{"condition": 0, "counterbalance": 2759, "assignmentId": "3WETL7AQWUFZS36APRNZFOE3MF035W", "workerId": "MTK1092", "hitId": "34YWR3PJ28HAQATTM8J9GPBWWSBX0F", "currenttrial": 626, "bonus": 0, "data": [{"uniqueid": "MTK1092:3WETL7AQWUFZS36APRNZFOE3MF035W", "current_trial": 0, "dateTime": 1513102261515, "trialdata": {"rt": 2758, "key_press": 32, "type": "INSTRUCTIONS", "trial_type": "text", "trial_index": 0, "time_elapsed": 2760, "internal_node_id": "0.0-0.0"}}, {"uniqueid": "MTK1092:3WETL7AQWUFZS36APRNZFOE3MF035W", "current_trial": 1, "dateTime": 1513102278029, "trialdata": {"rt": 16513, "key_press": 32, "type": "INSTRUCTIONS", "trial_type": "text", "trial_index": 1, "time_elapsed": 19275, "internal_node_id": "0.0-1.0"}}, {"uniqueid": "MTK1092:3WETL7AQWUFZS36APRNZFOE3MF035W", "current_trial": 2, "dateTime": 1513102282310, "trialdata": {"rt": [4268], "responses": ["ocean"], "type": "AUDIO_TEST", "trial_type": "audio-test", "trial_index": 2, "time_elapsed": 23556, "internal_node_id": "0.0-2.0"}}, {"uniqueid": "MTK1092:3WETL7AQWUFZS36APRNZFOE3MF035W", "current_trial": 3, "dateTime": 1513102287881, "trialdata": {"rt": [5565], "responses": ["crystal"], "type": "AUDIO_TEST", "trial_type": "audio-test", "trial_index": 3, "time_elapsed": 29127, "internal_node_id": "0.0-3.0"}}, {"uniqueid": "MTK1092:3WETL7AQWUFZS36APRNZFOE3MF035W", "current_trial": 4, "dateTime": 1513102293401, "trialdata": {"rt": [5516], "responses": ["spice"], "type": "AUDIO_TEST", "trial_type": "audio-test", "trial_index": 4, "time_elapsed": 34647, "internal_node_id": "0.0-4.0"}}, {"uniqueid": "MTK1092:3WETL7AQWUFZS36APRNZFOE3MF035W", "current_trial": 5, "dateTime": 1513102351385, "trialdata": {"rt": 57232, "responses": "{\"Q0\":\"1am\",\"Q1\":\"9am\",\"Q2\":\"4\"}", "type": "SLEEP_SURVEY", "trial_type": "survey-text", "trial_index": 5, "time_elapsed": 92631, "internal_node_id": "0.0-5.0"}}, {"uniqueid": "MTK1092:3WETL7AQWUFZS36APRNZFOE3MF035W", "current_trial": 6, "dateTime": 1513102408482, "trialdata": {"rt": 56095, "key_press": 32, "type": "INSTRUCTIONS", "trial_type": "text", "trial_index": 6, "time_elapsed": 149728, "internal_node_id": "0.0-6.0"}}, {"uniqueid": "MTK1092:3WETL7AQWUFZS36APRNZFOE3MF035W", "current_trial": 7, "dateTime": 1513102431189, "trialdata": {"rt": 22205, "key_press": 32, "type": "INSTRUCTIONS", "trial_type": "text", "trial_index": 7, "time_elapsed": 172435, "internal_node_id": "0.0-7.0"}}, {"uniqueid": "MTK1092:3WETL7AQWUFZS36APRNZFOE3MF035W", "current_trial": 8, "dateTime": 1513102444190, "trialdata": {"rt": 12500, "key_press": 32, "type": "INSTRUCTIONS", "trial_type": "text", "trial_index": 8, "time_elapsed": 185436, "internal_node_id": "0.0-8.0"}}, {"uniqueid": "MTK1092:3WETL7AQWUFZS36APRNZFOE3MF035W", "current_trial": 9, "dateTime": 1513102463197, "trialdata": {"rt": [2795, 4332, 5873, 7910, 9299, 10508, 11989, 13465, 15483], "responses": ["16", "12", "14", "17", "12", "12", "15", "13", "16"], "num1": [4, 5, 9, 6, 3, 5, 7, 9, 5, 6], "num2": [4, 2, 1, 5, 2, 5, 1, 1, 4, 9], "num3": [8, 5, 4, 6, 7, 2, 7, 3, 7, 5], "type": "DISTRACTOR", "conditions": [18, 1200, "v", 18000], "trial": 0, "trial_type": "math-distractor", "trial_index": 9, "time_elapsed": 204443, "internal_node_id": "0.0-9.0"}}, {"uniqueid": "MTK1092:3WETL7AQWUFZS36APRNZFOE3MF035W", "current_trial": 10, "dateTime": 1513102466199, "trialdata": {"rt": -1, "stimulus": "<p id=\"stim\">10</p>", "key_press": -1, "trial_type": "single-stim", "trial_index": 10, "time_elapsed": 207445, "internal_node_id": "0.0-10.0-0.0"}}, {"uniqueid": "MTK1092:3WETL7AQWUFZS36APRNZFOE3MF035W", "current_trial": 11, "dateTime": 1513102467201, "trialdata": {"rt": -1, "stimulus": "<p id=\"stim\">9</p>", "key_press": -1, "trial_type": "single-stim", "trial_index": 11, "time_elapsed": 208447, "internal_node_id": "0.0-10.0-1.0"}}, {"uniqueid": "MTK1092:3WETL7AQWUFZS36APRNZFOE3MF035W", "current_trial": 12, "dateTime": 1513102468202, "trialdata": {"rt": -1, "stimulus": "<p id=\"stim\">8</p>", "key_press": -1, "trial_type": "single-stim", "trial_index": 12, "time_elapsed": 209448, "internal_node_id": "0.0-10.0-2.0"}}, {"uniqueid": "MTK1092:3WETL7AQWUFZS36APRNZFOE3MF035W", "current_trial": 13, "dateTime": 1513102469203, "trialdata": {"rt": -1, "stimulus": "<p id=\"stim\">7</p>", "key_press": -1, "trial_type": "single-stim", "trial_index": 13, "time_elapsed": 210449, "internal_node_id": "0.0-10.0-3.0"}}, {"uniqueid": "MTK1092:3WETL7AQWUFZS36APRNZFOE3MF035W", "current_trial": 14, "dateTime": 1513102470205, "trialdata": {"rt": -1, "stimulus": "<p id=\"stim\">6</p>", "key_press": -1, "trial_type": "single-stim", "trial_index": 14, "time_elapsed": 211451, "internal_node_id": "0.0-10.0-4.0"}}, {"uniqueid": "MTK1092:3WETL7AQWUFZS36APRNZFOE3MF035W", "current_trial": 15, "dateTime": 1513102471206, "trialdata": {"rt": -1, "stimulus": "<p id=\"stim\">5</p>", "key_press": -1, "trial_type": "single-stim", "trial_index": 15, "time_elapsed": 212452, "internal_node_id": "0.0-10.0-5.0"}}, {"uniqueid": "MTK1092:3WETL7AQWUFZS36APRNZFOE3MF035W", "current_trial": 16, "dateTime": 1513102472207, "trialdata": {"rt": -1, "stimulus": "<p id=\"stim\">4</p>", "key_press": -1, "trial_type": "single-stim", "trial_index": 16, "time_elapsed": 213453, "internal_node_id": "0.0-10.0-6.0"}}, {"uniqueid": "MTK1092:3WETL7AQWUFZS36APRNZFOE3MF035W", "current_trial": 17, "dateTime": 1513102473209, "trialdata": {"rt": -1, "stimulus": "<p id=\"stim\">3</p>", "key_press": -1, "trial_type": "single-stim", "trial_index": 17, "time_elapsed": 214455, "internal_node_id": "0.0-10.0-7.0"}}, {"uniqueid": "MTK1092:3WETL7AQWUFZS36APRNZFOE3MF035W", "current_trial": 18, "dateTime": 1513102474211, "trialdata": {"rt": -1, "stimulus": "<p id=\"stim\">2</p>", "key_press": -1, "trial_type": "single-stim", "trial_index": 18, "time_elapsed": 215457, "internal_node_id": "0.0-10.0-8.0"}}, {"uniqueid": "MTK1092:3WETL7AQWUFZS36APRNZFOE3MF035W", "current_trial": 19, "dateTime": 1513102475212, "trialdata": {"rt": -1, "stimulus": "<p id=\"stim\">1</p>", "key_press": -1, "trial_type": "single-stim", "trial_index": 19, "time_elapsed": 216458, "internal_node_id": "0.0-10.0-9.0"}}, {"uniqueid": "MTK1092:3WETL7AQWUFZS36APRNZFOE3MF035W", "current_trial": 20, "dateTime": 1513102476713, "trialdata": {"rt": -1, "stimulus": "<p id=\"stim\">+</p>", "key_press": -1, "type": "FIXATION", "trial_type": "single-stim", "trial_index": 20, "time_elapsed": 217959, "internal_node_id": "0.0-11.0-0.0"}}, {"uniqueid": "MTK1092:3WETL7AQWUFZS36APRNZFOE3MF035W", "current_trial": 21, "dateTime": 1513102477915, "trialdata": {"rt": -1, "stimulus": "<p id=\"stim\">GUARD</p>", "key_press": -1, "type": "PRES_VIS", "word": "guard", "wordID": 666, "conditions": [18, 1200, "v", 18000], "trial": 0, "serialpos": 0, "trial_type": "single-stim", "trial_index": 21, "time_elapsed": 219161, "internal_node_id": "0.0-12.0"}}, {"uniqueid": "MTK1092:3WETL7AQWUFZS36APRNZFOE3MF035W", "current_trial": 22, "dateTime": 1513102480119, "trialdata": {"rt": -1, "stimulus": "<p id=\"stim\">TWIG</p>", "key_press": -1, "type": "PRES_VIS", "word": "twig", "wordID": 1526, "conditions": [18, 1200, "v", 18000], "trial": 0, "serialpos": 1, "trial_type": "single-stim", "trial_index": 22, "time_elapsed": 221365, "internal_node_id": "0.0-13.0"}}, {"uniqueid": "MTK1092:3WETL7AQWUFZS36APRNZFOE3MF035W", "current_trial": 23, "dateTime": 1513102482179, "trialdata": {"rt": -1, "stimulus": "<p id=\"stim\">HUSBAND</p>", "key_press": -1, "type": "PRES_VIS", "word": "husband", "wordID": 727, "conditions": [18, 1200, "v", 18000], "trial": 0, "serialpos": 2, "trial_type": "single-stim", "trial_index": 23, "time_elapsed": 223425, "internal_node_id": "0.0-14.0"}}, {"uniqueid": "MTK1092:3WETL7AQWUFZS36APRNZFOE3MF035W", "current_trial": 24, "dateTime": 1513102484427, "trialdata": {"rt": -1, "stimulus": "<p id=\"stim\">NOVEL</p>", "key_press": -1, "type": "PRES_VIS", "word": "novel", "wordID": 959, "conditions": [18, 1200, "v", 18000], "trial": 0, "serialpos": 3, "trial_type": "single-stim", "trial_index": 24, "time_elapsed": 225672, "internal_node_id": "0.0-15.0"}}, {"uniqueid": "MTK1092:3WETL7AQWUFZS36APRNZFOE3MF035W", "current_trial": 25, "dateTime": 1513102486785, "trialdata": {"rt": -1, "stimulus": "<p id=\"stim\">BUREAU</p>", "key_press": -1, "type": "PRES_VIS", "word": "bureau", "wordID": 198, "conditions": [18, 1200, "v", 18000], "trial": 0, "serialpos": 4, "trial_type": "single-stim", "trial_index": 25, "time_elapsed": 228031, "internal_node_id": "0.0-16.0"}}, {"uniqueid": "MTK1092:3WETL7AQWUFZS36APRNZFOE3MF035W", "current_trial": 26, "dateTime": 1513102488956, "trialdata": {"rt": -1, "stimulus": "<p id=\"stim\">SALAD</p>", "key_press": -1, "type": "PRES_VIS", "word": "salad", "wordID": 1223, "conditions": [18, 1200, "v", 18000], "trial": 0, "serialpos": 5, "trial_type": "single-stim", "trial_index": 26, "time_elapsed": 230202, "internal_node_id": "0.0-17.0"}}, {"uniqueid": "MTK1092:3WETL7AQWUFZS36APRNZFOE3MF035W", "current_trial": 27, "dateTime": 1513102491215, "trialdata": {"rt": -1, "stimulus": "<p id=\"stim\">PICNIC</p>", "key_press": -1, "type": "PRES_VIS", "word": "picnic", "wordID": 1059, "conditions": [18, 1200, "v", 18000], "trial": 0, "serialpos": 6, "trial_type": "single-stim", "trial_index": 27, "time_elapsed": 232461, "internal_node_id": "0.0-18.0"}}, {"uniqueid": "MTK1092:3WETL7AQWUFZS36APRNZFOE3MF035W", "current_trial": 28, "dateTime": 1513102493410, "trialdata": {"rt": -1, "stimulus": "<p id=\"stim\">HUMAN</p>", "key_press": -1, "type": "PRES_VIS", "word": "human", "wordID": 725, "conditions": [18, 1200, "v", 18000], "trial": 0, "serialpos": 7, "trial_type": "single-stim", "trial_index": 28, "time_elapsed": 234656, "internal_node_id": "0.0-19.0"}}, {"uniqueid": "MTK1092:3WETL7AQWUFZS36APRNZFOE3MF035W", "current_trial": 29, "dateTime": 1513102495674, "trialdata": {"rt": -1, "stimulus": "<p id=\"stim\">DOLPHIN</p>", "key_press": -1, "type": "PRES_VIS", "word": "dolphin", "wordID": 482, "conditions": [18, 1200, "v", 18000], "trial": 0, "serialpos": 8, "trial_type": "single-stim", "trial_index": 29, "time_elapsed": 236920, "internal_node_id": "0.0-20.0"}}, {"uniqueid": "MTK1092:3WETL7AQWUFZS36APRNZFOE3MF035W", "current_trial": 30, "dateTime": 1513102497857, "trialdata": {"rt": -1, "stimulus": "<p id=\"stim\">CHAPEL</p>", "key_press": -1, "type": "PRES_VIS", "word": "chapel", "wordID": 279, "conditions": [18, 1200, "v", 18000], "trial": 0, "serialpos": 9, "trial_type": "single-stim", "trial_index": 30, "time_elapsed": 239103, "internal_node_id": "0.0-21.0"}}, {"uniqueid": "MTK1092:3WETL7AQWUFZS36APRNZFOE3MF035W", "current_trial": 31, "dateTime": 1513102500210, "trialdata": {"rt": -1, "stimulus": "<p id=\"stim\">LADY</p>", "key_press": -1, "type": "PRES_VIS", "word": "lady", "wordID": 793, "conditions": [18, 1200, "v", 18000], "trial": 0, "serialpos": 10, "trial_type": "single-stim", "trial_index": 31, "time_elapsed": 241456, "internal_node_id": "0.0-22.0"}}, {"uniqueid": "MTK1092:3WETL7AQWUFZS36APRNZFOE3MF035W", "current_trial": 32, "dateTime": 1513102502217, "trialdata": {"rt": -1, "stimulus": "<p id=\"stim\">TABLET</p>", "key_press": -1, "type": "PRES_VIS", "word": "tablet", "wordID": 1426, "conditions": [18, 1200, "v", 18000], "trial": 0, "serialpos": 11, "trial_type": "single-stim", "trial_index": 32, "time_elapsed": 243463, "internal_node_id": "0.0-23.0"}}, {"uniqueid": "MTK1092:3WETL7AQWUFZS36APRNZFOE3MF035W", "current_trial": 33, "dateTime": 1513102504399, "trialdata": {"rt": -1, "stimulus": "<p id=\"stim\">RATTLE</p>", "key_press": -1, "type": "PRES_VIS", "word": "rattle", "wordID": 1169, "conditions": [18, 1200, "v", 18000], "trial": 0, "serialpos": 12, "trial_type": "single-stim", "trial_index": 33, "time_elapsed": 245645, "internal_node_id": "0.0-24.0"}}, {"uniqueid": "MTK1092:3WETL7AQWUFZS36APRNZFOE3MF035W", "current_trial": 34, "dateTime": 1513102506518, "trialdata": {"rt": -1, "stimulus": "<p id=\"stim\">CONCERT</p>", "key_press": -1, "type": "PRES_VIS", "word": "concert", "wordID": 359, "conditions": [18, 1200, "v", 18000], "trial": 0, "serialpos": 13, "trial_type": "single-stim", "trial_index": 34, "time_elapsed": 247764, "internal_node_id": "0.0-25.0"}}, {"uniqueid": "MTK1092:3WETL7AQWUFZS36APRNZFOE3MF035W", "current_trial": 35, "dateTime": 1513102508827, "trialdata": {"rt": -1, "stimulus": "<p id=\"stim\">APRON</p>", "key_press": -1, "type": "PRES_VIS", "word": "apron", "wordID": 34, "conditions": [18, 1200, "v", 18000], "trial": 0, "serialpos": 14, "trial_type": "single-stim", "trial_index": 35, "time_elapsed": 250073, "internal_node_id": "0.0-26.0"}}, {"uniqueid": "MTK1092:3WETL7AQWUFZS36APRNZFOE3MF035W", "current_trial": 36, "dateTime": 1513102511127, "trialdata": {"rt": -1, "stimulus": "<p id=\"stim\">ULCER</p>", "key_press": -1, "type": "PRES_VIS", "word": "ulcer", "wordID": 1532, "conditions": [18, 1200, "v", 18000], "trial": 0, "serialpos": 15, "trial_type": "single-stim", "trial_index": 36, "time_elapsed": 252372, "internal_node_id": "0.0-27.0"}}, {"uniqueid": "MTK1092:3WETL7AQWUFZS36APRNZFOE3MF035W", "current_trial": 37, "dateTime": 1513102513282, "trialdata": {"rt": -1, "stimulus": "<p id=\"stim\">YACHT</p>", "key_press": -1, "type": "PRES_VIS", "word": "yacht", "wordID": 1628, "conditions": [18, 1200, "v", 18000], "trial": 0, "serialpos": 16, "trial_type": "single-stim", "trial_index": 37, "time_elapsed": 254528, "internal_node_id": "0.0-28.0"}}, {"uniqueid": "MTK1092:3WETL7AQWUFZS36APRNZFOE3MF035W", "current_trial": 38, "dateTime": 1513102515504, "trialdata": {"rt": -1, "stimulus": "<p id=\"stim\">DENTIST</p>", "key_press": -1, "type": "PRES_VIS", "word": "dentist", "wordID": 446, "conditions": [18, 1200, "v", 18000], "trial": 0, "serialpos": 17, "trial_type": "single-stim", "trial_index": 38, "time_elapsed": 256750, "internal_node_id": "0.0-29.0"}}, {"uniqueid": "MTK1092:3WETL7AQWUFZS36APRNZFOE3MF035W", "current_trial": 39, "dateTime": 1513102517829, "trialdata": {"rt": -1, "stimulus": "", "key_press": -1, "type": "PRE_RECALL_DELAY", "trial_type": "single-stim", "trial_index": 39, "time_elapsed": 259075, "internal_node_id": "0.0-30.0-0.0"}}, {"uniqueid": "MTK1092:3WETL7AQWUFZS36APRNZFOE3MF035W", "current_trial": 40, "dateTime": 1513102518332, "trialdata": {"rt": -1000, "stimulus": "/static/audio/400Hz.wav", "key_press": -1, "type": "PRE_RECALL_ALERT", "trial_type": "single-audio", "trial_index": 40, "time_elapsed": 259578, "internal_node_id": "0.0-31.0"}}, {"uniqueid": "MTK1092:3WETL7AQWUFZS36APRNZFOE3MF035W", "current_trial": 41, "dateTime": 1513102578338, "trialdata": {"rt": [4749, 7006, 9007, 11429, 42341], "recwords": ["guard", "twig", "husband", "dentist", "bureua"], "type": "FREE_RECALL", "conditions": [18, 1200, "v", 18000], "trial": 0, "trial_type": "free-recall", "trial_index": 41, "time_elapsed": 319581, "internal_node_id": "0.0-32.0-0.0"}}, {"uniqueid": "MTK1092:3WETL7AQWUFZS36APRNZFOE3MF035W", "current_trial": 42, "dateTime": 1513102586950, "trialdata": {"rt": 6611, "key_press": 32, "type": "INSTRUCTIONS", "trial_type": "text", "trial_index": 42, "time_elapsed": 328196, "internal_node_id": "0.0-33.0"}}, {"uniqueid": "MTK1092:3WETL7AQWUFZS36APRNZFOE3MF035W", "current_trial": 43, "dateTime": 1513102606955, "trialdata": {"rt": [2366, 4053, 5407, 7541, 10909, 12177, 15899, 17786], "responses": ["10", "8", "15", "17", "14", "13", "20", "10"], "num1": [3, 2, 6, 8, 6, 2, 4, 1, 3], "num2": [5, 2, 4, 5, 7, 8, 8, 5, 5], "num3": [2, 4, 5, 6, 1, 3, 8, 4, 5], "type": "DISTRACTOR", "conditions": [18, 1200, "a", 18000], "trial": 1, "trial_type": "math-distractor", "trial_index": 43, "time_elapsed": 348201, "internal_node_id": "0.0-34.0"}}, {"uniqueid": "MTK1092:3WETL7AQWUFZS36APRNZFOE3MF035W", "current_trial": 44, "dateTime": 1513102609957, "trialdata": {"rt": -1, "stimulus": "<p id=\"stim\">10</p>", "key_press": -1, "trial_type": "single-stim", "trial_index": 44, "time_elapsed": 351203, "internal_node_id": "0.0-35.0-0.0"}}, {"uniqueid": "MTK1092:3WETL7AQWUFZS36APRNZFOE3MF035W", "current_trial": 45, "dateTime": 1513102610959, "trialdata": {"rt": -1, "stimulus": "<p id=\"stim\">9</p>", "key_press": -1, "trial_type": "single-stim", "trial_index": 45, "time_elapsed": 352205, "internal_node_id": "0.0-35.0-1.0"}}, {"uniqueid": "MTK1092:3WETL7AQWUFZS36APRNZFOE3MF035W", "current_trial": 46, "dateTime": 1513102611960, "trialdata": {"rt": -1, "stimulus": "<p id=\"stim\">8</p>", "key_press": -1, "trial_type": "single-stim", "trial_index": 46, "time_elapsed": 353206, "internal_node_id": "0.0-35.0-2.0"}}, {"uniqueid": "MTK1092:3WETL7AQWUFZS36APRNZFOE3MF035W", "current_trial": 47, "dateTime": 1513102612961, "trialdata": {"rt": -1, "stimulus": "<p id=\"stim\">7</p>", "key_press": -1, "trial_type": "single-stim", "trial_index": 47, "time_elapsed": 354207, "internal_node_id": "0.0-35.0-3.0"}}, {"uniqueid": "MTK1092:3WETL7AQWUFZS36APRNZFOE3MF035W", "current_trial": 48, "dateTime": 1513102613963, "trialdata": {"rt": -1, "stimulus": "<p id=\"stim\">6</p>", "key_press": -1, "trial_type": "single-stim", "trial_index": 48, "time_elapsed": 355209, "internal_node_id": "0.0-35.0-4.0"}}, {"uniqueid": "MTK1092:3WETL7AQWUFZS36APRNZFOE3MF035W", "current_trial": 49, "dateTime": 1513102614965, "trialdata": {"rt": -1, "stimulus": "<p id=\"stim\">5</p>", "key_press": -1, "trial_type": "single-stim", "trial_index": 49, "time_elapsed": 356211, "internal_node_id": "0.0-35.0-5.0"}}, {"uniqueid": "MTK1092:3WETL7AQWUFZS36APRNZFOE3MF035W", "current_trial": 50, "dateTime": 1513102615966, "trialdata": {"rt": -1, "stimulus": "<p id=\"stim\">4</p>", "key_press": -1, "trial_type": "single-stim", "trial_index": 50, "time_elapsed": 357211, "internal_node_id": "0.0-35.0-6.0"}}, {"uniqueid": "MTK1092:3WETL7AQWUFZS36APRNZFOE3MF035W", "current_trial": 51, "dateTime": 1513102616967, "trialdata": {"rt": -1, "stimulus": "<p id=\"stim\">3</p>", "key_press": -1, "trial_type": "single-stim", "trial_index": 51, "time_elapsed": 358213, "internal_node_id": "0.0-35.0-7.0"}}, {"uniqueid": "MTK1092:3WETL7AQWUFZS36APRNZFOE3MF035W", "current_trial": 52, "dateTime": 1513102617968, "trialdata": {"rt": -1, "stimulus": "<p id=\"stim\">2</p>", "key_press": -1, "trial_type": "single-stim", "trial_index": 52, "time_elapsed": 359214, "internal_node_id": "0.0-35.0-8.0"}}, {"uniqueid": "MTK1092:3WETL7AQWUFZS36APRNZFOE3MF035W", "current_trial": 53, "dateTime": 1513102618969, "trialdata": {"rt": -1, "stimulus": "<p id=\"stim\">1</p>", "key_press": -1, "trial_type": "single-stim", "trial_index": 53, "time_elapsed": 360215, "internal_node_id": "0.0-35.0-9.0"}}, {"uniqueid": "MTK1092:3WETL7AQWUFZS36APRNZFOE3MF035W", "current_trial": 54, "dateTime": 1513102620471, "trialdata": {"rt": -1, "stimulus": "<p id=\"stim\">+</p>", "key_press": -1, "type": "FIXATION", "trial_type": "single-stim", "trial_index": 54, "time_elapsed": 361717, "internal_node_id": "0.0-36.0-0.0"}}, {"uniqueid": "MTK1092:3WETL7AQWUFZS36APRNZFOE3MF035W", "current_trial": 55, "dateTime": 1513102622761, "trialdata": {"rt": -1000, "stimulus": "/static/audio/wordpool/BANK.wav", "key_press": -1, "type": "PRES_AUD", "word": "bank", "wordID": 82, "conditions": [18, 1200, "a", 18000], "trial": 1, "serialpos": 0, "trial_type": "single-audio", "trial_index": 55, "time_elapsed": 364007, "internal_node_id": "0.0-37.0"}}, {"uniqueid": "MTK1092:3WETL7AQWUFZS36APRNZFOE3MF035W", "current_trial": 56, "dateTime": 1513102625031, "trialdata": {"rt": -1000, "stimulus": "/static/audio/wordpool/LOVER.wav", "key_press": -1, "type": "PRES_AUD", "word": "lover", "wordID": 845, "conditions": [18, 1200, "a", 18000], "trial": 1, "serialpos": 1, "trial_type": "single-audio", "trial_index": 56, "time_elapsed": 366277, "internal_node_id": "0.0-38.0"}}, {"uniqueid": "MTK1092:3WETL7AQWUFZS36APRNZFOE3MF035W", "current_trial": 57, "dateTime": 1513102627331, "trialdata": {"rt": -1000, "stimulus": "/static/audio/wordpool/EMPIRE.wav", "key_press": -1, "type": "PRES_AUD", "word": "empire", "wordID": 529, "conditions": [18, 1200, "a", 18000], "trial": 1, "serialpos": 2, "trial_type": "single-audio", "trial_index": 57, "time_elapsed": 368577, "internal_node_id": "0.0-39.0"}}, {"uniqueid": "MTK1092:3WETL7AQWUFZS36APRNZFOE3MF035W", "current_trial": 58, "dateTime": 1513102629678, "trialdata": {"rt": -1000, "stimulus": "/static/audio/wordpool/BASEMENT.wav", "key_press": -1, "type": "PRES_AUD", "word": "basement", "wordID": 93, "conditions": [18, 1200, "a", 18000], "trial": 1, "serialpos": 3, "trial_type": "single-audio", "trial_index": 58, "time_elapsed": 370924, "internal_node_id": "0.0-40.0"}}, {"uniqueid": "MTK1092:3WETL7AQWUFZS36APRNZFOE3MF035W", "current_trial": 59, "dateTime": 1513102631876, "trialdata": {"rt": -1000, "stimulus": "/static/audio/wordpool/MISTER.wav", "key_press": -1, "type": "PRES_AUD", "word": "mister", "wordID": 900, "conditions": [18, 1200, "a", 18000], "trial": 1, "serialpos": 4, "trial_type": "single-audio", "trial_index": 59, "time_elapsed": 373122, "internal_node_id": "0.0-41.0"}}, {"uniqueid": "MTK1092:3WETL7AQWUFZS36APRNZFOE3MF035W", "current_trial": 60, "dateTime": 1513102634185, "trialdata": {"rt": -1000, "stimulus": "/static/audio/wordpool/NECKLACE.wav", "key_press": -1, "type": "PRES_AUD", "word": "necklace", "wordID": 939, "conditions": [18, 1200, "a", 18000], "trial": 1, "serialpos": 5, "trial_type": "single-audio", "trial_index": 60, "time_elapsed": 375431, "internal_node_id": "0.0-42.0"}}, {"uniqueid": "MTK1092:3WETL7AQWUFZS36APRNZFOE3MF035W", "current_trial": 61, "dateTime": 1513102636227, "trialdata": {"rt": -1000, "stimulus": "/static/audio/wordpool/DRESS.wav", "key_press": -1, "type": "PRES_AUD", "word": "dress", "wordID": 494, "conditions": [18, 1200, "a", 18000], "trial": 1, "serialpos": 6, "trial_type": "single-audio", "trial_index": 61, "time_elapsed": 377473, "internal_node_id": "0.0-43.0"}}, {"uniqueid": "MTK1092:3WETL7AQWUFZS36APRNZFOE3MF035W", "current_trial": 62, "dateTime": 1513102638626, "trialdata": {"rt": -1000, "stimulus": "/static/audio/wordpool/SNAIL.wav", "key_press": -1, "type": "PRES_AUD", "word": "snail", "wordID": 1331, "conditions": [18, 1200, "a", 18000], "trial": 1, "serialpos": 7, "trial_type": "single-audio", "trial_index": 62, "time_elapsed": 379872, "internal_node_id": "0.0-44.0"}}, {"uniqueid": "MTK1092:3WETL7AQWUFZS36APRNZFOE3MF035W", "current_trial": 63, "dateTime": 1513102640931, "trialdata": {"rt": -1000, "stimulus": "/static/audio/wordpool/HERO.wav", "key_press": -1, "type": "PRES_AUD", "word": "hero", "wordID": 705, "conditions": [18, 1200, "a", 18000], "trial": 1, "serialpos": 8, "trial_type": "single-audio", "trial_index": 63, "time_elapsed": 382177, "internal_node_id": "0.0-45.0"}}, {"uniqueid": "MTK1092:3WETL7AQWUFZS36APRNZFOE3MF035W", "current_trial": 64, "dateTime": 1513102643137, "trialdata": {"rt": -1000, "stimulus": "/static/audio/wordpool/PUPPY.wav", "key_press": -1, "type": "PRES_AUD", "word": "puppy", "wordID": 1143, "conditions": [18, 1200, "a", 18000], "trial": 1, "serialpos": 9, "trial_type": "single-audio", "trial_index": 64, "time_elapsed": 384383, "internal_node_id": "0.0-46.0"}}, {"uniqueid": "MTK1092:3WETL7AQWUFZS36APRNZFOE3MF035W", "current_trial": 65, "dateTime": 1513102645300, "trialdata": {"rt": -1000, "stimulus": "/static/audio/wordpool/COUCH.wav", "key_press": -1, "type": "PRES_AUD", "word": "couch", "wordID": 385, "conditions": [18, 1200, "a", 18000], "trial": 1, "serialpos": 10, "trial_type": "single-audio", "trial_index": 65, "time_elapsed": 386546, "internal_node_id": "0.0-47.0"}}, {"uniqueid": "MTK1092:3WETL7AQWUFZS36APRNZFOE3MF035W", "current_trial": 66, "dateTime": 1513102647565, "trialdata": {"rt": -1000, "stimulus": "/static/audio/wordpool/COCKTAIL.wav", "key_press": -1, "type": "PRES_AUD", "word": "cocktail", "wordID": 337, "conditions": [18, 1200, "a", 18000], "trial": 1, "serialpos": 11, "trial_type": "single-audio", "trial_index": 66, "time_elapsed": 388810, "internal_node_id": "0.0-48.0"}}, {"uniqueid": "MTK1092:3WETL7AQWUFZS36APRNZFOE3MF035W", "current_trial": 67, "dateTime": 1513102649957, "trialdata": {"rt": -1000, "stimulus": "/static/audio/wordpool/SERVANT.wav", "key_press": -1, "type": "PRES_AUD", "word": "servant", "wordID": 1270, "conditions": [18, 1200, "a", 18000], "trial": 1, "serialpos": 12, "trial_type": "single-audio", "trial_index": 67, "time_elapsed": 391203, "internal_node_id": "0.0-49.0"}}, {"uniqueid": "MTK1092:3WETL7AQWUFZS36APRNZFOE3MF035W", "current_trial": 68, "dateTime": 1513102652169, "trialdata": {"rt": -1000, "stimulus": "/static/audio/wordpool/OINTMENT.wav", "key_press": -1, "type": "PRES_AUD", "word": "ointment", "wordID": 973, "conditions": [18, 1200, "a", 18000], "trial": 1, "serialpos": 13, "trial_type": "single-audio", "trial_index": 68, "time_elapsed": 393413, "internal_node_id": "0.0-50.0"}}, {"uniqueid": "MTK1092:3WETL7AQWUFZS36APRNZFOE3MF035W", "current_trial": 69, "dateTime": 1513102654361, "trialdata": {"rt": -1000, "stimulus": "/static/audio/wordpool/WOMAN.wav", "key_press": -1, "type": "PRES_AUD", "word": "woman", "wordID": 1619, "conditions": [18, 1200, "a", 18000], "trial": 1, "serialpos": 14, "trial_type": "single-audio", "trial_index": 69, "time_elapsed": 395607, "internal_node_id": "0.0-51.0"}}, {"uniqueid": "MTK1092:3WETL7AQWUFZS36APRNZFOE3MF035W", "current_trial": 70, "dateTime": 1513102656377, "trialdata": {"rt": -1000, "stimulus": "/static/audio/wordpool/PRIMATE.wav", "key_press": -1, "type": "PRES_AUD", "word": "primate", "wordID": 1122, "conditions": [18, 1200, "a", 18000], "trial": 1, "serialpos": 15, "trial_type": "single-audio", "trial_index": 70, "time_elapsed": 397623, "internal_node_id": "0.0-52.0"}}, {"uniqueid": "MTK1092:3WETL7AQWUFZS36APRNZFOE3MF035W", "current_trial": 71, "dateTime": 1513102658636, "trialdata": {"rt": -1000, "stimulus": "/static/audio/wordpool/PERCH.wav", "key_press": -1, "type": "PRES_AUD", "word": "perch", "wordID": 1047, "conditions": [18, 1200, "a", 18000], "trial": 1, "serialpos": 16, "trial_type": "single-audio", "trial_index": 71, "time_elapsed": 399882, "internal_node_id": "0.0-53.0"}}, {"uniqueid": "MTK1092:3WETL7AQWUFZS36APRNZFOE3MF035W", "current_trial": 72, "dateTime": 1513102660966, "trialdata": {"rt": -1000, "stimulus": "/static/audio/wordpool/BLOUSE.wav", "key_press": -1, "type": "PRES_AUD", "word": "blouse", "wordID": 138, "conditions": [18, 1200, "a", 18000], "trial": 1, "serialpos": 17, "trial_type": "single-audio", "trial_index": 72, "time_elapsed": 402212, "internal_node_id": "0.0-54.0"}}, {"uniqueid": "MTK1092:3WETL7AQWUFZS36APRNZFOE3MF035W", "current_trial": 73, "dateTime": 1513102662261, "trialdata": {"rt": -1, "stimulus": "", "key_press": -1, "type": "PRE_RECALL_DELAY", "trial_type": "single-stim", "trial_index": 73, "time_elapsed": 403507, "internal_node_id": "0.0-55.0-0.0"}}, {"uniqueid": "MTK1092:3WETL7AQWUFZS36APRNZFOE3MF035W", "current_trial": 74, "dateTime": 1513102662762, "trialdata": {"rt": -1000, "stimulus": "/static/audio/400Hz.wav", "key_press": -1, "type": "PRE_RECALL_ALERT", "trial_type": "single-audio", "trial_index": 74, "time_elapsed": 404008, "internal_node_id": "0.0-56.0"}}, {"uniqueid": "MTK1092:3WETL7AQWUFZS36APRNZFOE3MF035W", "current_trial": 75, "dateTime": 1513102722767, "trialdata": {"rt": [3864, 5528, 8041, 12577, 15907, 27233, 45784, 50018, 52539, 57066], "recwords": ["woman", "primate", "puppy", "ointment", "bank", "primate", "blouse", "purse", "necklace", "dress"], "type": "FREE_RECALL", "conditions": [18, 1200, "a", 18000], "trial": 1, "trial_type": "free-recall", "trial_index": 75, "time_elapsed": 464011, "internal_node_id": "0.0-57.0-0.0"}}, {"uniqueid": "MTK1092:3WETL7AQWUFZS36APRNZFOE3MF035W", "current_trial": 76, "dateTime": 1513102727031, "trialdata": {"rt": 2259, "key_press": 32, "type": "INSTRUCTIONS", "trial_type": "text", "trial_index": 76, "time_elapsed": 468273, "internal_node_id": "0.0-58.0"}}, {"uniqueid": "MTK1092:3WETL7AQWUFZS36APRNZFOE3MF035W", "current_trial": 77, "dateTime": 1513102752036, "trialdata": {"rt": [2854, 4874, 7036, 8441, 9976, 11193, 13313, 16106, 17209, 18497, 20112, 22352, 23651], "responses": ["19", "14", "12", "19", "17", "11", "13", "20", "4", "12", "10", "13", "16"], "num1": [7, 2, 4, 6, 7, 1, 2, 7, 2, 2, 3, 4, 6, 1], "num2": [3, 9, 7, 4, 2, 3, 2, 5, 1, 9, 4, 7, 5, 8], "num3": [9, 3, 1, 9, 8, 7, 9, 8, 1, 1, 3, 2, 5, 5], "type": "DISTRACTOR", "conditions": [24, 1600, "v", 24000], "trial": 2, "trial_type": "math-distractor", "trial_index": 77, "time_elapsed": 493282, "internal_node_id": "0.0-59.0"}}, {"uniqueid": "MTK1092:3WETL7AQWUFZS36APRNZFOE3MF035W", "current_trial": 78, "dateTime": 1513102755038, "trialdata": {"rt": -1, "stimulus": "<p id=\"stim\">10</p>", "key_press": -1, "trial_type": "single-stim", "trial_index": 78, "time_elapsed": 496284, "internal_node_id": "0.0-60.0-0.0"}}, {"uniqueid": "MTK1092:3WETL7AQWUFZS36APRNZFOE3MF035W", "current_trial": 79, "dateTime": 1513102756039, "trialdata": {"rt": -1, "stimulus": "<p id=\"stim\">9</p>", "key_press": -1, "trial_type": "single-stim", "trial_index": 79, "time_elapsed": 497285, "internal_node_id": "0.0-60.0-1.0"}}, {"uniqueid": "MTK1092:3WETL7AQWUFZS36APRNZFOE3MF035W", "current_trial": 80, "dateTime": 1513102757041, "trialdata": {"rt": -1, "stimulus": "<p id=\"stim\">8</p>", "key_press": -1, "trial_type": "single-stim", "trial_index": 80, "time_elapsed": 498287, "internal_node_id": "0.0-60.0-2.0"}}, {"uniqueid": "MTK1092:3WETL7AQWUFZS36APRNZFOE3MF035W", "current_trial": 81, "dateTime": 1513102758043, "trialdata": {"rt": -1, "stimulus": "<p id=\"stim\">7</p>", "key_press": -1, "trial_type": "single-stim", "trial_index": 81, "time_elapsed": 499288, "internal_node_id": "0.0-60.0-3.0"}}, {"uniqueid": "MTK1092:3WETL7AQWUFZS36APRNZFOE3MF035W", "current_trial": 82, "dateTime": 1513102759043, "trialdata": {"rt": -1, "stimulus": "<p id=\"stim\">6</p>", "key_press": -1, "trial_type": "single-stim", "trial_index": 82, "time_elapsed": 500289, "internal_node_id": "0.0-60.0-4.0"}}, {"uniqueid": "MTK1092:3WETL7AQWUFZS36APRNZFOE3MF035W", "current_trial": 83, "dateTime": 1513102760044, "trialdata": {"rt": -1, "stimulus": "<p id=\"stim\">5</p>", "key_press": -1, "trial_type": "single-stim", "trial_index": 83, "time_elapsed": 501290, "internal_node_id": "0.0-60.0-5.0"}}, {"uniqueid": "MTK1092:3WETL7AQWUFZS36APRNZFOE3MF035W", "current_trial": 84, "dateTime": 1513102761045, "trialdata": {"rt": -1, "stimulus": "<p id=\"stim\">4</p>", "key_press": -1, "trial_type": "single-stim", "trial_index": 84, "time_elapsed": 502291, "internal_node_id": "0.0-60.0-6.0"}}, {"uniqueid": "MTK1092:3WETL7AQWUFZS36APRNZFOE3MF035W", "current_trial": 85, "dateTime": 1513102762046, "trialdata": {"rt": -1, "stimulus": "<p id=\"stim\">3</p>", "key_press": -1, "trial_type": "single-stim", "trial_index": 85, "time_elapsed": 503292, "internal_node_id": "0.0-60.0-7.0"}}, {"uniqueid": "MTK1092:3WETL7AQWUFZS36APRNZFOE3MF035W", "current_trial": 86, "dateTime": 1513102763047, "trialdata": {"rt": -1, "stimulus": "<p id=\"stim\">2</p>", "key_press": -1, "trial_type": "single-stim", "trial_index": 86, "time_elapsed": 504293, "internal_node_id": "0.0-60.0-8.0"}}, {"uniqueid": "MTK1092:3WETL7AQWUFZS36APRNZFOE3MF035W", "current_trial": 87, "dateTime": 1513102764048, "trialdata": {"rt": -1, "stimulus": "<p id=\"stim\">1</p>", "key_press": -1, "trial_type": "single-stim", "trial_index": 87, "time_elapsed": 505294, "internal_node_id": "0.0-60.0-9.0"}}, {"uniqueid": "MTK1092:3WETL7AQWUFZS36APRNZFOE3MF035W", "current_trial": 88, "dateTime": 1513102765550, "trialdata": {"rt": -1, "stimulus": "<p id=\"stim\">+</p>", "key_press": -1, "type": "FIXATION", "trial_type": "single-stim", "trial_index": 88, "time_elapsed": 506796, "internal_node_id": "0.0-61.0-0.0"}}, {"uniqueid": "MTK1092:3WETL7AQWUFZS36APRNZFOE3MF035W", "current_trial": 89, "dateTime": 1513102767151, "trialdata": {"rt": -1, "stimulus": "<p id=\"stim\">DORM</p>", "key_press": -1, "type": "PRES_VIS", "word": "dorm", "wordID": 487, "conditions": [24, 1600, "v", 24000], "trial": 2, "serialpos": 0, "trial_type": "single-stim", "trial_index": 89, "time_elapsed": 508397, "internal_node_id": "0.0-62.0"}}, {"uniqueid": "MTK1092:3WETL7AQWUFZS36APRNZFOE3MF035W", "current_trial": 90, "dateTime": 1513102769604, "trialdata": {"rt": -1, "stimulus": "<p id=\"stim\">REPORT</p>", "key_press": -1, "type": "PRES_VIS", "word": "report", "wordID": 1183, "conditions": [24, 1600, "v", 24000], "trial": 2, "serialpos": 1, "trial_type": "single-stim", "trial_index": 90, "time_elapsed": 510850, "internal_node_id": "0.0-63.0"}}, {"uniqueid": "MTK1092:3WETL7AQWUFZS36APRNZFOE3MF035W", "current_trial": 91, "dateTime": 1513102772053, "trialdata": {"rt": -1, "stimulus": "<p id=\"stim\">MUFFIN</p>", "key_press": -1, "type": "PRES_VIS", "word": "muffin", "wordID": 928, "conditions": [24, 1600, "v", 24000], "trial": 2, "serialpos": 2, "trial_type": "single-stim", "trial_index": 91, "time_elapsed": 513299, "internal_node_id": "0.0-64.0"}}, {"uniqueid": "MTK1092:3WETL7AQWUFZS36APRNZFOE3MF035W", "current_trial": 92, "dateTime": 1513102774559, "trialdata": {"rt": -1, "stimulus": "<p id=\"stim\">COFFEE</p>", "key_press": -1, "type": "PRES_VIS", "word": "coffee", "wordID": 340, "conditions": [24, 1600, "v", 24000], "trial": 2, "serialpos": 3, "trial_type": "single-stim", "trial_index": 92, "time_elapsed": 515804, "internal_node_id": "0.0-65.0"}}, {"uniqueid": "MTK1092:3WETL7AQWUFZS36APRNZFOE3MF035W", "current_trial": 93, "dateTime": 1513102777170, "trialdata": {"rt": -1, "stimulus": "<p id=\"stim\">SCOTCH</p>", "key_press": -1, "type": "PRES_VIS", "word": "scotch", "wordID": 1250, "conditions": [24, 1600, "v", 24000], "trial": 2, "serialpos": 4, "trial_type": "single-stim", "trial_index": 93, "time_elapsed": 518416, "internal_node_id": "0.0-66.0"}}, {"uniqueid": "MTK1092:3WETL7AQWUFZS36APRNZFOE3MF035W", "current_trial": 94, "dateTime": 1513102779949, "trialdata": {"rt": -1, "stimulus": "<p id=\"stim\">BRANDY</p>", "key_press": -1, "type": "PRES_VIS", "word": "brandy", "wordID": 168, "conditions": [24, 1600, "v", 24000], "trial": 2, "serialpos": 5, "trial_type": "single-stim", "trial_index": 94, "time_elapsed": 521195, "internal_node_id": "0.0-67.0"}}, {"uniqueid": "MTK1092:3WETL7AQWUFZS36APRNZFOE3MF035W", "current_trial": 95, "dateTime": 1513102782362, "trialdata": {"rt": -1, "stimulus": "<p id=\"stim\">SHIRT</p>", "key_press": -1, "type": "PRES_VIS", "word": "shirt", "wordID": 1286, "conditions": [24, 1600, "v", 24000], "trial": 2, "serialpos": 6, "trial_type": "single-stim", "trial_index": 95, "time_elapsed": 523608, "internal_node_id": "0.0-68.0"}}, {"uniqueid": "MTK1092:3WETL7AQWUFZS36APRNZFOE3MF035W", "current_trial": 96, "dateTime": 1513102784970, "trialdata": {"rt": -1, "stimulus": "<p id=\"stim\">POWDER</p>", "key_press": -1, "type": "PRES_VIS", "word": "powder", "wordID": 1116, "conditions": [24, 1600, "v", 24000], "trial": 2, "serialpos": 7, "trial_type": "single-stim", "trial_index": 96, "time_elapsed": 526216, "internal_node_id": "0.0-69.0"}}, {"uniqueid": "MTK1092:3WETL7AQWUFZS36APRNZFOE3MF035W", "current_trial": 97, "dateTime": 1513102787767, "trialdata": {"rt": -1, "stimulus": "<p id=\"stim\">SANDWICH</p>", "key_press": -1, "type": "PRES_VIS", "word": "sandwich", "wordID": 1231, "conditions": [24, 1600, "v", 24000], "trial": 2, "serialpos": 8, "trial_type": "single-stim", "trial_index": 97, "time_elapsed": 529012, "internal_node_id": "0.0-70.0"}}, {"uniqueid": "MTK1092:3WETL7AQWUFZS36APRNZFOE3MF035W", "current_trial": 98, "dateTime": 1513102790475, "trialdata": {"rt": -1, "stimulus": "<p id=\"stim\">GANGSTER</p>", "key_press": -1, "type": "PRES_VIS", "word": "gangster", "wordID": 619, "conditions": [24, 1600, "v", 24000], "trial": 2, "serialpos": 9, "trial_type": "single-stim", "trial_index": 98, "time_elapsed": 531721, "internal_node_id": "0.0-71.0"}}, {"uniqueid": "MTK1092:3WETL7AQWUFZS36APRNZFOE3MF035W", "current_trial": 99, "dateTime": 1513102792943, "trialdata": {"rt": -1, "stimulus": "<p id=\"stim\">BLENDER</p>", "key_press": -1, "type": "PRES_VIS", "word": "blender", "wordID": 135, "conditions": [24, 1600, "v", 24000], "trial": 2, "serialpos": 10, "trial_type": "single-stim", "trial_index": 99, "time_elapsed": 534189, "internal_node_id": "0.0-72.0"}}, {"uniqueid": "MTK1092:3WETL7AQWUFZS36APRNZFOE3MF035W", "current_trial": 100, "dateTime": 1513102795613, "trialdata": {"rt": -1, "stimulus": "<p id=\"stim\">OMELET</p>", "key_press": -1, "type": "PRES_VIS", "word": "omelet", "wordID": 975, "conditions": [24, 1600, "v", 24000], "trial": 2, "serialpos": 11, "trial_type": "single-stim", "trial_index": 100, "time_elapsed": 536859, "internal_node_id": "0.0-73.0"}}, {"uniqueid": "MTK1092:3WETL7AQWUFZS36APRNZFOE3MF035W", "current_trial": 101, "dateTime": 1513102798037, "trialdata": {"rt": -1, "stimulus": "<p id=\"stim\">SEAGULL</p>", "key_press": -1, "type": "PRES_VIS", "word": "seagull", "wordID": 1260, "conditions": [24, 1600, "v", 24000], "trial": 2, "serialpos": 12, "trial_type": "single-stim", "trial_index": 101, "time_elapsed": 539283, "internal_node_id": "0.0-74.0"}}, {"uniqueid": "MTK1092:3WETL7AQWUFZS36APRNZFOE3MF035W", "current_trial": 102, "dateTime": 1513102800634, "trialdata": {"rt": -1, "stimulus": "<p id=\"stim\">QUAIL</p>", "key_press": -1, "type": "PRES_VIS", "word": "quail", "wordID": 1146, "conditions": [24, 1600, "v", 24000], "trial": 2, "serialpos": 13, "trial_type": "single-stim", "trial_index": 102, "time_elapsed": 541880, "internal_node_id": "0.0-75.0"}}, {"uniqueid": "MTK1092:3WETL7AQWUFZS36APRNZFOE3MF035W", "current_trial": 103, "dateTime": 1513102803220, "trialdata": {"rt": -1, "stimulus": "<p id=\"stim\">TEACHER</p>", "key_press": -1, "type": "PRES_VIS", "word": "teacher", "wordID": 1439, "conditions": [24, 1600, "v", 24000], "trial": 2, "serialpos": 14, "trial_type": "single-stim", "trial_index": 103, "time_elapsed": 544466, "internal_node_id": "0.0-76.0"}}, {"uniqueid": "MTK1092:3WETL7AQWUFZS36APRNZFOE3MF035W", "current_trial": 104, "dateTime": 1513102805920, "trialdata": {"rt": -1, "stimulus": "<p id=\"stim\">VIKING</p>", "key_press": -1, "type": "PRES_VIS", "word": "viking", "wordID": 1564, "conditions": [24, 1600, "v", 24000], "trial": 2, "serialpos": 15, "trial_type": "single-stim", "trial_index": 104, "time_elapsed": 547166, "internal_node_id": "0.0-77.0"}}, {"uniqueid": "MTK1092:3WETL7AQWUFZS36APRNZFOE3MF035W", "current_trial": 105, "dateTime": 1513102808333, "trialdata": {"rt": -1, "stimulus": "<p id=\"stim\">LILY</p>", "key_press": -1, "type": "PRES_VIS", "word": "lily", "wordID": 820, "conditions": [24, 1600, "v", 24000], "trial": 2, "serialpos": 16, "trial_type": "single-stim", "trial_index": 105, "time_elapsed": 549579, "internal_node_id": "0.0-78.0"}}, {"uniqueid": "MTK1092:3WETL7AQWUFZS36APRNZFOE3MF035W", "current_trial": 106, "dateTime": 1513102810763, "trialdata": {"rt": -1, "stimulus": "<p id=\"stim\">COBRA</p>", "key_press": -1, "type": "PRES_VIS", "word": "cobra", "wordID": 335, "conditions": [24, 1600, "v", 24000], "trial": 2, "serialpos": 17, "trial_type": "single-stim", "trial_index": 106, "time_elapsed": 552009, "internal_node_id": "0.0-79.0"}}, {"uniqueid": "MTK1092:3WETL7AQWUFZS36APRNZFOE3MF035W", "current_trial": 107, "dateTime": 1513102813493, "trialdata": {"rt": -1, "stimulus": "<p id=\"stim\">TERMITE</p>", "key_press": -1, "type": "PRES_VIS", "word": "termite", "wordID": 1450, "conditions": [24, 1600, "v", 24000], "trial": 2, "serialpos": 18, "trial_type": "single-stim", "trial_index": 107, "time_elapsed": 554738, "internal_node_id": "0.0-80.0"}}, {"uniqueid": "MTK1092:3WETL7AQWUFZS36APRNZFOE3MF035W", "current_trial": 108, "dateTime": 1513102816172, "trialdata": {"rt": -1, "stimulus": "<p id=\"stim\">DAISY</p>", "key_press": -1, "type": "PRES_VIS", "word": "daisy", "wordID": 434, "conditions": [24, 1600, "v", 24000], "trial": 2, "serialpos": 19, "trial_type": "single-stim", "trial_index": 108, "time_elapsed": 557418, "internal_node_id": "0.0-81.0"}}, {"uniqueid": "MTK1092:3WETL7AQWUFZS36APRNZFOE3MF035W", "current_trial": 109, "dateTime": 1513102818775, "trialdata": {"rt": -1, "stimulus": "<p id=\"stim\">DUST</p>", "key_press": -1, "type": "PRES_VIS", "word": "dust", "wordID": 507, "conditions": [24, 1600, "v", 24000], "trial": 2, "serialpos": 20, "trial_type": "single-stim", "trial_index": 109, "time_elapsed": 560021, "internal_node_id": "0.0-82.0"}}, {"uniqueid": "MTK1092:3WETL7AQWUFZS36APRNZFOE3MF035W", "current_trial": 110, "dateTime": 1513102821433, "trialdata": {"rt": -1, "stimulus": "<p id=\"stim\">POPCORN</p>", "key_press": -1, "type": "PRES_VIS", "word": "popcorn", "wordID": 1103, "conditions": [24, 1600, "v", 24000], "trial": 2, "serialpos": 21, "trial_type": "single-stim", "trial_index": 110, "time_elapsed": 562679, "internal_node_id": "0.0-83.0"}}, {"uniqueid": "MTK1092:3WETL7AQWUFZS36APRNZFOE3MF035W", "current_trial": 111, "dateTime": 1513102824055, "trialdata": {"rt": -1, "stimulus": "<p id=\"stim\">SNACK</p>", "key_press": -1, "type": "PRES_VIS", "word": "snack", "wordID": 1330, "conditions": [24, 1600, "v", 24000], "trial": 2, "serialpos": 22, "trial_type": "single-stim", "trial_index": 111, "time_elapsed": 565301, "internal_node_id": "0.0-84.0"}}, {"uniqueid": "MTK1092:3WETL7AQWUFZS36APRNZFOE3MF035W", "current_trial": 112, "dateTime": 1513102826630, "trialdata": {"rt": -1, "stimulus": "<p id=\"stim\">PAPER</p>", "key_press": -1, "type": "PRES_VIS", "word": "paper", "wordID": 1010, "conditions": [24, 1600, "v", 24000], "trial": 2, "serialpos": 23, "trial_type": "single-stim", "trial_index": 112, "time_elapsed": 567876, "internal_node_id": "0.0-85.0"}}, {"uniqueid": "MTK1092:3WETL7AQWUFZS36APRNZFOE3MF035W", "current_trial": 113, "dateTime": 1513102828723, "trialdata": {"rt": -1, "stimulus": "", "key_press": -1, "type": "PRE_RECALL_DELAY", "trial_type": "single-stim", "trial_index": 113, "time_elapsed": 569969, "internal_node_id": "0.0-86.0-0.0"}}, {"uniqueid": "MTK1092:3WETL7AQWUFZS36APRNZFOE3MF035W", "current_trial": 114, "dateTime": 1513102829223, "trialdata": {"rt": -1000, "stimulus": "/static/audio/400Hz.wav", "key_press": -1, "type": "PRE_RECALL_ALERT", "trial_type": "single-audio", "trial_index": 114, "time_elapsed": 570469, "internal_node_id": "0.0-87.0"}}, {"uniqueid": "MTK1092:3WETL7AQWUFZS36APRNZFOE3MF035W", "current_trial": 115, "dateTime": 1513102889228, "trialdata": {"rt": [3997, 5693, 8164, 10680, 11889, 13915, 15537, 19724, 22908, 45147, 47372], "recwords": ["popcorn", "snack", "paper", "dust", "daisy", "lily", "cobra", "muffin", "dorm", "seagull", "quail"], "type": "FREE_RECALL", "conditions": [24, 1600, "v", 24000], "trial": 2, "trial_type": "free-recall", "trial_index": 115, "time_elapsed": 630472, "internal_node_id": "0.0-88.0-0.0"}}, {"uniqueid": "MTK1092:3WETL7AQWUFZS36APRNZFOE3MF035W", "current_trial": 116, "dateTime": 1513102892617, "trialdata": {"rt": 1388, "key_press": 32, "type": "INSTRUCTIONS", "trial_type": "text", "trial_index": 116, "time_elapsed": 633863, "internal_node_id": "0.0-89.0"}}, {"uniqueid": "MTK1092:3WETL7AQWUFZS36APRNZFOE3MF035W", "current_trial": 117, "dateTime": 1513102918620, "trialdata": {"rt": [2367, 5504, 7655, 9341, 11294, 12422, 14408, 19720, 21807, 23307], "responses": ["11", "25", "12", "10", "18", "12", "19", "19", "19", "10"], "num1": [5, 9, 6, 5, 7, 2, 9, 6, 4, 6, 4], "num2": [4, 9, 3, 2, 7, 3, 5, 8, 7, 2, 2], "num3": [2, 6, 3, 3, 4, 7, 5, 5, 8, 2, 7], "type": "DISTRACTOR", "conditions": [12, 1600, "a", 24000], "trial": 3, "trial_type": "math-distractor", "trial_index": 117, "time_elapsed": 659866, "internal_node_id": "0.0-90.0"}}, {"uniqueid": "MTK1092:3WETL7AQWUFZS36APRNZFOE3MF035W", "current_trial": 118, "dateTime": 1513102921622, "trialdata": {"rt": -1, "stimulus": "<p id=\"stim\">10</p>", "key_press": -1, "trial_type": "single-stim", "trial_index": 118, "time_elapsed": 662868, "internal_node_id": "0.0-91.0-0.0"}}, {"uniqueid": "MTK1092:3WETL7AQWUFZS36APRNZFOE3MF035W", "current_trial": 119, "dateTime": 1513102922623, "trialdata": {"rt": -1, "stimulus": "<p id=\"stim\">9</p>", "key_press": -1, "trial_type": "single-stim", "trial_index": 119, "time_elapsed": 663869, "internal_node_id": "0.0-91.0-1.0"}}, {"uniqueid": "MTK1092:3WETL7AQWUFZS36APRNZFOE3MF035W", "current_trial": 120, "dateTime": 1513102923625, "trialdata": {"rt": -1, "stimulus": "<p id=\"stim\">8</p>", "key_press": -1, "trial_type": "single-stim", "trial_index": 120, "time_elapsed": 664871, "internal_node_id": "0.0-91.0-2.0"}}, {"uniqueid": "MTK1092:3WETL7AQWUFZS36APRNZFOE3MF035W", "current_trial": 121, "dateTime": 1513102924626, "trialdata": {"rt": -1, "stimulus": "<p id=\"stim\">7</p>", "key_press": -1, "trial_type": "single-stim", "trial_index": 121, "time_elapsed": 665872, "internal_node_id": "0.0-91.0-3.0"}}, {"uniqueid": "MTK1092:3WETL7AQWUFZS36APRNZFOE3MF035W", "current_trial": 122, "dateTime": 1513102925627, "trialdata": {"rt": -1, "stimulus": "<p id=\"stim\">6</p>", "key_press": -1, "trial_type": "single-stim", "trial_index": 122, "time_elapsed": 666873, "internal_node_id": "0.0-91.0-4.0"}}, {"uniqueid": "MTK1092:3WETL7AQWUFZS36APRNZFOE3MF035W", "current_trial": 123, "dateTime": 1513102926629, "trialdata": {"rt": -1, "stimulus": "<p id=\"stim\">5</p>", "key_press": -1, "trial_type": "single-stim", "trial_index": 123, "time_elapsed": 667874, "internal_node_id": "0.0-91.0-5.0"}}, {"uniqueid": "MTK1092:3WETL7AQWUFZS36APRNZFOE3MF035W", "current_trial": 124, "dateTime": 1513102927630, "trialdata": {"rt": -1, "stimulus": "<p id=\"stim\">4</p>", "key_press": -1, "trial_type": "single-stim", "trial_index": 124, "time_elapsed": 668875, "internal_node_id": "0.0-91.0-6.0"}}, {"uniqueid": "MTK1092:3WETL7AQWUFZS36APRNZFOE3MF035W", "current_trial": 125, "dateTime": 1513102928631, "trialdata": {"rt": -1, "stimulus": "<p id=\"stim\">3</p>", "key_press": -1, "trial_type": "single-stim", "trial_index": 125, "time_elapsed": 669877, "internal_node_id": "0.0-91.0-7.0"}}, {"uniqueid": "MTK1092:3WETL7AQWUFZS36APRNZFOE3MF035W", "current_trial": 126, "dateTime": 1513102929633, "trialdata": {"rt": -1, "stimulus": "<p id=\"stim\">2</p>", "key_press": -1, "trial_type": "single-stim", "trial_index": 126, "time_elapsed": 670878, "internal_node_id": "0.0-91.0-8.0"}}, {"uniqueid": "MTK1092:3WETL7AQWUFZS36APRNZFOE3MF035W", "current_trial": 127, "dateTime": 1513102930634, "trialdata": {"rt": -1, "stimulus": "<p id=\"stim\">1</p>", "key_press": -1, "trial_type": "single-stim", "trial_index": 127, "time_elapsed": 671880, "internal_node_id": "0.0-91.0-9.0"}}, {"uniqueid": "MTK1092:3WETL7AQWUFZS36APRNZFOE3MF035W", "current_trial": 128, "dateTime": 1513102932136, "trialdata": {"rt": -1, "stimulus": "<p id=\"stim\">+</p>", "key_press": -1, "type": "FIXATION", "trial_type": "single-stim", "trial_index": 128, "time_elapsed": 673382, "internal_node_id": "0.0-92.0-0.0"}}, {"uniqueid": "MTK1092:3WETL7AQWUFZS36APRNZFOE3MF035W", "current_trial": 129, "dateTime": 1513102934709, "trialdata": {"rt": -1000, "stimulus": "/static/audio/wordpool/LEG.wav", "key_press": -1, "type": "PRES_AUD", "word": "leg", "wordID": 808, "conditions": [12, 1600, "a", 24000], "trial": 3, "serialpos": 0, "trial_type": "single-audio", "trial_index": 129, "time_elapsed": 675955, "internal_node_id": "0.0-93.0"}}, {"uniqueid": "MTK1092:3WETL7AQWUFZS36APRNZFOE3MF035W", "current_trial": 130, "dateTime": 1513102937114, "trialdata": {"rt": -1000, "stimulus": "/static/audio/wordpool/NURSE.wav", "key_press": -1, "type": "PRES_AUD", "word": "nurse", "wordID": 962, "conditions": [12, 1600, "a", 24000], "trial": 3, "serialpos": 1, "trial_type": "single-audio", "trial_index": 130, "time_elapsed": 678360, "internal_node_id": "0.0-94.0"}}, {"uniqueid": "MTK1092:3WETL7AQWUFZS36APRNZFOE3MF035W", "current_trial": 131, "dateTime": 1513102939819, "trialdata": {"rt": -1000, "stimulus": "/static/audio/wordpool/AIRPORT.wav", "key_press": -1, "type": "PRES_AUD", "word": "airport", "wordID": 12, "conditions": [12, 1600, "a", 24000], "trial": 3, "serialpos": 2, "trial_type": "single-audio", "trial_index": 131, "time_elapsed": 681064, "internal_node_id": "0.0-95.0"}}, {"uniqueid": "MTK1092:3WETL7AQWUFZS36APRNZFOE3MF035W", "current_trial": 132, "dateTime": 1513102942222, "trialdata": {"rt": -1000, "stimulus": "/static/audio/wordpool/ARM.wav", "key_press": -1, "type": "PRES_AUD", "word": "arm", "wordID": 37, "conditions": [12, 1600, "a", 24000], "trial": 3, "serialpos": 3, "trial_type": "single-audio", "trial_index": 132, "time_elapsed": 683468, "internal_node_id": "0.0-96.0"}}, {"uniqueid": "MTK1092:3WETL7AQWUFZS36APRNZFOE3MF035W", "current_trial": 133, "dateTime": 1513102944660, "trialdata": {"rt": -1000, "stimulus": "/static/audio/wordpool/SHOULDER.wav", "key_press": -1, "type": "PRES_AUD", "word": "shoulder", "wordID": 1293, "conditions": [12, 1600, "a", 24000], "trial": 3, "serialpos": 4, "trial_type": "single-audio", "trial_index": 133, "time_elapsed": 685906, "internal_node_id": "0.0-97.0"}}, {"uniqueid": "MTK1092:3WETL7AQWUFZS36APRNZFOE3MF035W", "current_trial": 134, "dateTime": 1513102947187, "trialdata": {"rt": -1000, "stimulus": "/static/audio/wordpool/WORLD.wav", "key_press": -1, "type": "PRES_AUD", "word": "world", "wordID": 1621, "conditions": [12, 1600, "a", 24000], "trial": 3, "serialpos": 5, "trial_type": "single-audio", "trial_index": 134, "time_elapsed": 688433, "internal_node_id": "0.0-98.0"}}, {"uniqueid": "MTK1092:3WETL7AQWUFZS36APRNZFOE3MF035W", "current_trial": 135, "dateTime": 1513102949902, "trialdata": {"rt": -1000, "stimulus": "/static/audio/wordpool/PASSAGE.wav", "key_press": -1, "type": "PRES_AUD", "word": "passage", "wordID": 1018, "conditions": [12, 1600, "a", 24000], "trial": 3, "serialpos": 6, "trial_type": "single-audio", "trial_index": 135, "time_elapsed": 691148, "internal_node_id": "0.0-99.0"}}, {"uniqueid": "MTK1092:3WETL7AQWUFZS36APRNZFOE3MF035W", "current_trial": 136, "dateTime": 1513102952547, "trialdata": {"rt": -1000, "stimulus": "/static/audio/wordpool/KNIFE.wav", "key_press": -1, "type": "PRES_AUD", "word": "knife", "wordID": 784, "conditions": [12, 1600, "a", 24000], "trial": 3, "serialpos": 7, "trial_type": "single-audio", "trial_index": 136, "time_elapsed": 693793, "internal_node_id": "0.0-100.0"}}, {"uniqueid": "MTK1092:3WETL7AQWUFZS36APRNZFOE3MF035W", "current_trial": 137, "dateTime": 1513102955227, "trialdata": {"rt": -1000, "stimulus": "/static/audio/wordpool/OX.wav", "key_press": -1, "type": "PRES_AUD", "word": "ox", "wordID": 993, "conditions": [12, 1600, "a", 24000], "trial": 3, "serialpos": 8, "trial_type": "single-audio", "trial_index": 137, "time_elapsed": 696473, "internal_node_id": "0.0-101.0"}}, {"uniqueid": "MTK1092:3WETL7AQWUFZS36APRNZFOE3MF035W", "current_trial": 138, "dateTime": 1513102957950, "trialdata": {"rt": -1000, "stimulus": "/static/audio/wordpool/SUNSET.wav", "key_press": -1, "type": "PRES_AUD", "word": "sunset", "wordID": 1407, "conditions": [12, 1600, "a", 24000], "trial": 3, "serialpos": 9, "trial_type": "single-audio", "trial_index": 138, "time_elapsed": 699196, "internal_node_id": "0.0-102.0"}}, {"uniqueid": "MTK1092:3WETL7AQWUFZS36APRNZFOE3MF035W", "current_trial": 139, "dateTime": 1513102960420, "trialdata": {"rt": -1000, "stimulus": "/static/audio/wordpool/GLOBE.wav", "key_press": -1, "type": "PRES_AUD", "word": "globe", "wordID": 640, "conditions": [12, 1600, "a", 24000], "trial": 3, "serialpos": 10, "trial_type": "single-audio", "trial_index": 139, "time_elapsed": 701666, "internal_node_id": "0.0-103.0"}}, {"uniqueid": "MTK1092:3WETL7AQWUFZS36APRNZFOE3MF035W", "current_trial": 140, "dateTime": 1513102963134, "trialdata": {"rt": -1000, "stimulus": "/static/audio/wordpool/BODY.wav", "key_press": -1, "type": "PRES_AUD", "word": "body", "wordID": 144, "conditions": [12, 1600, "a", 24000], "trial": 3, "serialpos": 11, "trial_type": "single-audio", "trial_index": 140, "time_elapsed": 704380, "internal_node_id": "0.0-104.0"}}, {"uniqueid": "MTK1092:3WETL7AQWUFZS36APRNZFOE3MF035W", "current_trial": 141, "dateTime": 1513102964531, "trialdata": {"rt": -1, "stimulus": "", "key_press": -1, "type": "PRE_RECALL_DELAY", "trial_type": "single-stim", "trial_index": 141, "time_elapsed": 705777, "internal_node_id": "0.0-105.0-0.0"}}, {"uniqueid": "MTK1092:3WETL7AQWUFZS36APRNZFOE3MF035W", "current_trial": 142, "dateTime": 1513102965032, "trialdata": {"rt": -1000, "stimulus": "/static/audio/400Hz.wav", "key_press": -1, "type": "PRE_RECALL_ALERT", "trial_type": "single-audio", "trial_index": 142, "time_elapsed": 706278, "internal_node_id": "0.0-106.0"}}, {"uniqueid": "MTK1092:3WETL7AQWUFZS36APRNZFOE3MF035W", "current_trial": 143, "dateTime": 1513103025036, "trialdata": {"rt": [3182, 4654, 6251, 8118, 9635, 11635, 13299, 15523, 17852, 44630], "recwords": ["arm", "leg", "shoulder", "nurse", "globe", "body", "sunset", "knife", "nurse", "body"], "type": "FREE_RECALL", "conditions": [12, 1600, "a", 24000], "trial": 3, "trial_type": "free-recall", "trial_index": 143, "time_elapsed": 766281, "internal_node_id": "0.0-107.0-0.0"}}, {"uniqueid": "MTK1092:3WETL7AQWUFZS36APRNZFOE3MF035W", "current_trial": 144, "dateTime": 1513103028285, "trialdata": {"rt": 1248, "key_press": 32, "type": "INSTRUCTIONS", "trial_type": "text", "trial_index": 144, "time_elapsed": 769531, "internal_node_id": "0.0-108.0"}}, {"uniqueid": "MTK1092:3WETL7AQWUFZS36APRNZFOE3MF035W", "current_trial": 145, "dateTime": 1513103054290, "trialdata": {"rt": [2687, 5560, 7732, 8985, 11174, 12609, 13834, 15279, 17078, 19889, 22214, 23861], "responses": ["7", "21", "9", "10", "13", "13", "12", "8", "21", "6", "19", "16"], "num1": [1, 8, 3, 8, 8, 8, 2, 4, 6, 3, 6, 3, 6], "num2": [1, 8, 5, 1, 1, 3, 1, 2, 7, 1, 6, 6, 7], "num3": [5, 5, 1, 1, 4, 2, 9, 2, 8, 2, 7, 7, 9], "type": "DISTRACTOR", "conditions": [12, 800, "a", 24000], "trial": 4, "trial_type": "math-distractor", "trial_index": 145, "time_elapsed": 795536, "internal_node_id": "0.0-109.0"}}, {"uniqueid": "MTK1092:3WETL7AQWUFZS36APRNZFOE3MF035W", "current_trial": 146, "dateTime": 1513103057294, "trialdata": {"rt": -1, "stimulus": "<p id=\"stim\">10</p>", "key_press": -1, "trial_type": "single-stim", "trial_index": 146, "time_elapsed": 798539, "internal_node_id": "0.0-110.0-0.0"}}, {"uniqueid": "MTK1092:3WETL7AQWUFZS36APRNZFOE3MF035W", "current_trial": 147, "dateTime": 1513103058295, "trialdata": {"rt": -1, "stimulus": "<p id=\"stim\">9</p>", "key_press": -1, "trial_type": "single-stim", "trial_index": 147, "time_elapsed": 799541, "internal_node_id": "0.0-110.0-1.0"}}, {"uniqueid": "MTK1092:3WETL7AQWUFZS36APRNZFOE3MF035W", "current_trial": 148, "dateTime": 1513103059297, "trialdata": {"rt": -1, "stimulus": "<p id=\"stim\">8</p>", "key_press": -1, "trial_type": "single-stim", "trial_index": 148, "time_elapsed": 800543, "internal_node_id": "0.0-110.0-2.0"}}, {"uniqueid": "MTK1092:3WETL7AQWUFZS36APRNZFOE3MF035W", "current_trial": 149, "dateTime": 1513103060299, "trialdata": {"rt": -1, "stimulus": "<p id=\"stim\">7</p>", "key_press": -1, "trial_type": "single-stim", "trial_index": 149, "time_elapsed": 801545, "internal_node_id": "0.0-110.0-3.0"}}, {"uniqueid": "MTK1092:3WETL7AQWUFZS36APRNZFOE3MF035W", "current_trial": 150, "dateTime": 1513103061300, "trialdata": {"rt": -1, "stimulus": "<p id=\"stim\">6</p>", "key_press": -1, "trial_type": "single-stim", "trial_index": 150, "time_elapsed": 802546, "internal_node_id": "0.0-110.0-4.0"}}, {"uniqueid": "MTK1092:3WETL7AQWUFZS36APRNZFOE3MF035W", "current_trial": 151, "dateTime": 1513103062301, "trialdata": {"rt": -1, "stimulus": "<p id=\"stim\">5</p>", "key_press": -1, "trial_type": "single-stim", "trial_index": 151, "time_elapsed": 803547, "internal_node_id": "0.0-110.0-5.0"}}, {"uniqueid": "MTK1092:3WETL7AQWUFZS36APRNZFOE3MF035W", "current_trial": 152, "dateTime": 1513103063303, "trialdata": {"rt": -1, "stimulus": "<p id=\"stim\">4</p>", "key_press": -1, "trial_type": "single-stim", "trial_index": 152, "time_elapsed": 804549, "internal_node_id": "0.0-110.0-6.0"}}, {"uniqueid": "MTK1092:3WETL7AQWUFZS36APRNZFOE3MF035W", "current_trial": 153, "dateTime": 1513103064304, "trialdata": {"rt": -1, "stimulus": "<p id=\"stim\">3</p>", "key_press": -1, "trial_type": "single-stim", "trial_index": 153, "time_elapsed": 805550, "internal_node_id": "0.0-110.0-7.0"}}, {"uniqueid": "MTK1092:3WETL7AQWUFZS36APRNZFOE3MF035W", "current_trial": 154, "dateTime": 1513103065305, "trialdata": {"rt": -1, "stimulus": "<p id=\"stim\">2</p>", "key_press": -1, "trial_type": "single-stim", "trial_index": 154, "time_elapsed": 806551, "internal_node_id": "0.0-110.0-8.0"}}, {"uniqueid": "MTK1092:3WETL7AQWUFZS36APRNZFOE3MF035W", "current_trial": 155, "dateTime": 1513103066307, "trialdata": {"rt": -1, "stimulus": "<p id=\"stim\">1</p>", "key_press": -1, "trial_type": "single-stim", "trial_index": 155, "time_elapsed": 807553, "internal_node_id": "0.0-110.0-9.0"}}, {"uniqueid": "MTK1092:3WETL7AQWUFZS36APRNZFOE3MF035W", "current_trial": 156, "dateTime": 1513103067809, "trialdata": {"rt": -1, "stimulus": "<p id=\"stim\">+</p>", "key_press": -1, "type": "FIXATION", "trial_type": "single-stim", "trial_index": 156, "time_elapsed": 809055, "internal_node_id": "0.0-111.0-0.0"}}, {"uniqueid": "MTK1092:3WETL7AQWUFZS36APRNZFOE3MF035W", "current_trial": 157, "dateTime": 1513103069647, "trialdata": {"rt": -1000, "stimulus": "/static/audio/wordpool/CHURCH.wav", "key_press": -1, "type": "PRES_AUD", "word": "church", "wordID": 306, "conditions": [12, 800, "a", 24000], "trial": 4, "serialpos": 0, "trial_type": "single-audio", "trial_index": 157, "time_elapsed": 810893, "internal_node_id": "0.0-112.0"}}, {"uniqueid": "MTK1092:3WETL7AQWUFZS36APRNZFOE3MF035W", "current_trial": 158, "dateTime": 1513103071376, "trialdata": {"rt": -1000, "stimulus": "/static/audio/wordpool/GROUND.wav", "key_press": -1, "type": "PRES_AUD", "word": "ground", "wordID": 665, "conditions": [12, 800, "a", 24000], "trial": 4, "serialpos": 1, "trial_type": "single-audio", "trial_index": 158, "time_elapsed": 812622, "internal_node_id": "0.0-113.0"}}, {"uniqueid": "MTK1092:3WETL7AQWUFZS36APRNZFOE3MF035W", "current_trial": 159, "dateTime": 1513103073275, "trialdata": {"rt": -1000, "stimulus": "/static/audio/wordpool/TOMBSTONE.wav", "key_press": -1, "type": "PRES_AUD", "word": "tombstone", "wordID": 1477, "conditions": [12, 800, "a", 24000], "trial": 4, "serialpos": 2, "trial_type": "single-audio", "trial_index": 159, "time_elapsed": 814521, "internal_node_id": "0.0-114.0"}}, {"uniqueid": "MTK1092:3WETL7AQWUFZS36APRNZFOE3MF035W", "current_trial": 160, "dateTime": 1513103074898, "trialdata": {"rt": -1000, "stimulus": "/static/audio/wordpool/CASKET.wav", "key_press": -1, "type": "PRES_AUD", "word": "casket", "wordID": 254, "conditions": [12, 800, "a", 24000], "trial": 4, "serialpos": 3, "trial_type": "single-audio", "trial_index": 160, "time_elapsed": 816144, "internal_node_id": "0.0-115.0"}}, {"uniqueid": "MTK1092:3WETL7AQWUFZS36APRNZFOE3MF035W", "current_trial": 161, "dateTime": 1513103076763, "trialdata": {"rt": -1000, "stimulus": "/static/audio/wordpool/ASIA.wav", "key_press": -1, "type": "PRES_AUD", "word": "asia", "wordID": 45, "conditions": [12, 800, "a", 24000], "trial": 4, "serialpos": 4, "trial_type": "single-audio", "trial_index": 161, "time_elapsed": 818009, "internal_node_id": "0.0-116.0"}}, {"uniqueid": "MTK1092:3WETL7AQWUFZS36APRNZFOE3MF035W", "current_trial": 162, "dateTime": 1513103078421, "trialdata": {"rt": -1000, "stimulus": "/static/audio/wordpool/PILOT.wav", "key_press": -1, "type": "PRES_AUD", "word": "pilot", "wordID": 1069, "conditions": [12, 800, "a", 24000], "trial": 4, "serialpos": 5, "trial_type": "single-audio", "trial_index": 162, "time_elapsed": 819667, "internal_node_id": "0.0-117.0"}}, {"uniqueid": "MTK1092:3WETL7AQWUFZS36APRNZFOE3MF035W", "current_trial": 163, "dateTime": 1513103080147, "trialdata": {"rt": -1000, "stimulus": "/static/audio/wordpool/ROBBER.wav", "key_press": -1, "type": "PRES_AUD", "word": "robber", "wordID": 1196, "conditions": [12, 800, "a", 24000], "trial": 4, "serialpos": 6, "trial_type": "single-audio", "trial_index": 163, "time_elapsed": 821393, "internal_node_id": "0.0-118.0"}}, {"uniqueid": "MTK1092:3WETL7AQWUFZS36APRNZFOE3MF035W", "current_trial": 164, "dateTime": 1513103082117, "trialdata": {"rt": -1000, "stimulus": "/static/audio/wordpool/AUTHOR.wav", "key_press": -1, "type": "PRES_AUD", "word": "author", "wordID": 60, "conditions": [12, 800, "a", 24000], "trial": 4, "serialpos": 7, "trial_type": "single-audio", "trial_index": 164, "time_elapsed": 823363, "internal_node_id": "0.0-119.0"}}, {"uniqueid": "MTK1092:3WETL7AQWUFZS36APRNZFOE3MF035W", "current_trial": 165, "dateTime": 1513103084025, "trialdata": {"rt": -1000, "stimulus": "/static/audio/wordpool/TILE.wav", "key_press": -1, "type": "PRES_AUD", "word": "tile", "wordID": 1467, "conditions": [12, 800, "a", 24000], "trial": 4, "serialpos": 8, "trial_type": "single-audio", "trial_index": 165, "time_elapsed": 825271, "internal_node_id": "0.0-120.0"}}, {"uniqueid": "MTK1092:3WETL7AQWUFZS36APRNZFOE3MF035W", "current_trial": 166, "dateTime": 1513103085779, "trialdata": {"rt": -1000, "stimulus": "/static/audio/wordpool/PUDDLE.wav", "key_press": -1, "type": "PRES_AUD", "word": "puddle", "wordID": 1139, "conditions": [12, 800, "a", 24000], "trial": 4, "serialpos": 9, "trial_type": "single-audio", "trial_index": 166, "time_elapsed": 827025, "internal_node_id": "0.0-121.0"}}, {"uniqueid": "MTK1092:3WETL7AQWUFZS36APRNZFOE3MF035W", "current_trial": 167, "dateTime": 1513103087415, "trialdata": {"rt": -1000, "stimulus": "/static/audio/wordpool/TUBA.wav", "key_press": -1, "type": "PRES_AUD", "word": "tuba", "wordID": 1514, "conditions": [12, 800, "a", 24000], "trial": 4, "serialpos": 10, "trial_type": "single-audio", "trial_index": 167, "time_elapsed": 828661, "internal_node_id": "0.0-122.0"}}, {"uniqueid": "MTK1092:3WETL7AQWUFZS36APRNZFOE3MF035W", "current_trial": 168, "dateTime": 1513103089393, "trialdata": {"rt": -1000, "stimulus": "/static/audio/wordpool/JAPAN.wav", "key_press": -1, "type": "PRES_AUD", "word": "japan", "wordID": 748, "conditions": [12, 800, "a", 24000], "trial": 4, "serialpos": 11, "trial_type": "single-audio", "trial_index": 168, "time_elapsed": 830639, "internal_node_id": "0.0-123.0"}}, {"uniqueid": "MTK1092:3WETL7AQWUFZS36APRNZFOE3MF035W", "current_trial": 169, "dateTime": 1513103090635, "trialdata": {"rt": -1, "stimulus": "", "key_press": -1, "type": "PRE_RECALL_DELAY", "trial_type": "single-stim", "trial_index": 169, "time_elapsed": 831881, "internal_node_id": "0.0-124.0-0.0"}}, {"uniqueid": "MTK1092:3WETL7AQWUFZS36APRNZFOE3MF035W", "current_trial": 170, "dateTime": 1513103091137, "trialdata": {"rt": -1000, "stimulus": "/static/audio/400Hz.wav", "key_press": -1, "type": "PRE_RECALL_ALERT", "trial_type": "single-audio", "trial_index": 170, "time_elapsed": 832383, "internal_node_id": "0.0-125.0"}}, {"uniqueid": "MTK1092:3WETL7AQWUFZS36APRNZFOE3MF035W", "current_trial": 171, "dateTime": 1513103151142, "trialdata": {"rt": [3176, 5088, 8610, 10704, 14562, 23717, 29409, 42886, 46205], "recwords": ["japan", "tuba", "church", "ground", "cascat", "graveyard", "cat", "puddle", "tile"], "type": "FREE_RECALL", "conditions": [12, 800, "a", 24000], "trial": 4, "trial_type": "free-recall", "trial_index": 171, "time_elapsed": 892386, "internal_node_id": "0.0-126.0-0.0"}}, {"uniqueid": "MTK1092:3WETL7AQWUFZS36APRNZFOE3MF035W", "current_trial": 172, "dateTime": 1513103154027, "trialdata": {"rt": 883, "key_press": 32, "type": "INSTRUCTIONS", "trial_type": "text", "trial_index": 172, "time_elapsed": 895273, "internal_node_id": "0.0-127.0"}}, {"uniqueid": "MTK1092:3WETL7AQWUFZS36APRNZFOE3MF035W", "current_trial": 173, "dateTime": 1513103180031, "trialdata": {"rt": [2007, 5281, 6705, 7914, 10517, 12681, 14474, 16612, 16727, 19023, 21568, 23142], "responses": ["14", "21", "10", "11", "10", "22", "14", "12", "", "10", "11", "11"], "num1": [2, 7, 3, 1, 1, 9, 7, 5, 2, 1, 2, 2, 5], "num2": [9, 6, 6, 3, 4, 8, 6, 6, 3, 7, 3, 7, 5], "num3": [3, 8, 1, 7, 5, 5, 1, 1, 5, 2, 6, 2, 2], "type": "DISTRACTOR", "conditions": [24, 1600, "a", 24000], "trial": 5, "trial_type": "math-distractor", "trial_index": 173, "time_elapsed": 921277, "internal_node_id": "0.0-128.0"}}, {"uniqueid": "MTK1092:3WETL7AQWUFZS36APRNZFOE3MF035W", "current_trial": 174, "dateTime": 1513103183034, "trialdata": {"rt": -1, "stimulus": "<p id=\"stim\">10</p>", "key_press": -1, "trial_type": "single-stim", "trial_index": 174, "time_elapsed": 924279, "internal_node_id": "0.0-129.0-0.0"}}, {"uniqueid": "MTK1092:3WETL7AQWUFZS36APRNZFOE3MF035W", "current_trial": 175, "dateTime": 1513103184034, "trialdata": {"rt": -1, "stimulus": "<p id=\"stim\">9</p>", "key_press": -1, "trial_type": "single-stim", "trial_index": 175, "time_elapsed": 925280, "internal_node_id": "0.0-129.0-1.0"}}, {"uniqueid": "MTK1092:3WETL7AQWUFZS36APRNZFOE3MF035W", "current_trial": 176, "dateTime": 1513103185036, "trialdata": {"rt": -1, "stimulus": "<p id=\"stim\">8</p>", "key_press": -1, "trial_type": "single-stim", "trial_index": 176, "time_elapsed": 926282, "internal_node_id": "0.0-129.0-2.0"}}, {"uniqueid": "MTK1092:3WETL7AQWUFZS36APRNZFOE3MF035W", "current_trial": 177, "dateTime": 1513103186038, "trialdata": {"rt": -1, "stimulus": "<p id=\"stim\">7</p>", "key_press": -1, "trial_type": "single-stim", "trial_index": 177, "time_elapsed": 927284, "internal_node_id": "0.0-129.0-3.0"}}, {"uniqueid": "MTK1092:3WETL7AQWUFZS36APRNZFOE3MF035W", "current_trial": 178, "dateTime": 1513103187040, "trialdata": {"rt": -1, "stimulus": "<p id=\"stim\">6</p>", "key_press": -1, "trial_type": "single-stim", "trial_index": 178, "time_elapsed": 928285, "internal_node_id": "0.0-129.0-4.0"}}, {"uniqueid": "MTK1092:3WETL7AQWUFZS36APRNZFOE3MF035W", "current_trial": 179, "dateTime": 1513103188041, "trialdata": {"rt": -1, "stimulus": "<p id=\"stim\">5</p>", "key_press": -1, "trial_type": "single-stim", "trial_index": 179, "time_elapsed": 929287, "internal_node_id": "0.0-129.0-5.0"}}, {"uniqueid": "MTK1092:3WETL7AQWUFZS36APRNZFOE3MF035W", "current_trial": 180, "dateTime": 1513103189043, "trialdata": {"rt": -1, "stimulus": "<p id=\"stim\">4</p>", "key_press": -1, "trial_type": "single-stim", "trial_index": 180, "time_elapsed": 930289, "internal_node_id": "0.0-129.0-6.0"}}, {"uniqueid": "MTK1092:3WETL7AQWUFZS36APRNZFOE3MF035W", "current_trial": 181, "dateTime": 1513103190046, "trialdata": {"rt": -1, "stimulus": "<p id=\"stim\">3</p>", "key_press": -1, "trial_type": "single-stim", "trial_index": 181, "time_elapsed": 931290, "internal_node_id": "0.0-129.0-7.0"}}, {"uniqueid": "MTK1092:3WETL7AQWUFZS36APRNZFOE3MF035W", "current_trial": 182, "dateTime": 1513103191046, "trialdata": {"rt": -1, "stimulus": "<p id=\"stim\">2</p>", "key_press": -1, "trial_type": "single-stim", "trial_index": 182, "time_elapsed": 932292, "internal_node_id": "0.0-129.0-8.0"}}, {"uniqueid": "MTK1092:3WETL7AQWUFZS36APRNZFOE3MF035W", "current_trial": 183, "dateTime": 1513103192048, "trialdata": {"rt": -1, "stimulus": "<p id=\"stim\">1</p>", "key_press": -1, "trial_type": "single-stim", "trial_index": 183, "time_elapsed": 933293, "internal_node_id": "0.0-129.0-9.0"}}, {"uniqueid": "MTK1092:3WETL7AQWUFZS36APRNZFOE3MF035W", "current_trial": 184, "dateTime": 1513103193550, "trialdata": {"rt": -1, "stimulus": "<p id=\"stim\">+</p>", "key_press": -1, "type": "FIXATION", "trial_type": "single-stim", "trial_index": 184, "time_elapsed": 934795, "internal_node_id": "0.0-130.0-0.0"}}, {"uniqueid": "MTK1092:3WETL7AQWUFZS36APRNZFOE3MF035W", "current_trial": 185, "dateTime": 1513103196217, "trialdata": {"rt": -1000, "stimulus": "/static/audio/wordpool/FRAGRANCE.wav", "key_press": -1, "type": "PRES_AUD", "word": "fragrance", "wordID": 598, "conditions": [24, 1600, "a", 24000], "trial": 5, "serialpos": 0, "trial_type": "single-audio", "trial_index": 185, "time_elapsed": 937462, "internal_node_id": "0.0-131.0"}}, {"uniqueid": "MTK1092:3WETL7AQWUFZS36APRNZFOE3MF035W", "current_trial": 186, "dateTime": 1513103199014, "trialdata": {"rt": -1000, "stimulus": "/static/audio/wordpool/GALLON.wav", "key_press": -1, "type": "PRES_AUD", "word": "gallon", "wordID": 617, "conditions": [24, 1600, "a", 24000], "trial": 5, "serialpos": 1, "trial_type": "single-audio", "trial_index": 186, "time_elapsed": 940260, "internal_node_id": "0.0-132.0"}}, {"uniqueid": "MTK1092:3WETL7AQWUFZS36APRNZFOE3MF035W", "current_trial": 187, "dateTime": 1513103201684, "trialdata": {"rt": -1000, "stimulus": "/static/audio/wordpool/RELISH.wav", "key_press": -1, "type": "PRES_AUD", "word": "relish", "wordID": 1182, "conditions": [24, 1600, "a", 24000], "trial": 5, "serialpos": 2, "trial_type": "single-audio", "trial_index": 187, "time_elapsed": 942930, "internal_node_id": "0.0-133.0"}}, {"uniqueid": "MTK1092:3WETL7AQWUFZS36APRNZFOE3MF035W", "current_trial": 188, "dateTime": 1513103204171, "trialdata": {"rt": -1000, "stimulus": "/static/audio/wordpool/POSTAGE.wav", "key_press": -1, "type": "PRES_AUD", "word": "postage", "wordID": 1112, "conditions": [24, 1600, "a", 24000], "trial": 5, "serialpos": 3, "trial_type": "single-audio", "trial_index": 188, "time_elapsed": 945417, "internal_node_id": "0.0-134.0"}}, {"uniqueid": "MTK1092:3WETL7AQWUFZS36APRNZFOE3MF035W", "current_trial": 189, "dateTime": 1513103206949, "trialdata": {"rt": -1000, "stimulus": "/static/audio/wordpool/CARRIAGE.wav", "key_press": -1, "type": "PRES_AUD", "word": "carriage", "wordID": 247, "conditions": [24, 1600, "a", 24000], "trial": 5, "serialpos": 4, "trial_type": "single-audio", "trial_index": 189, "time_elapsed": 948195, "internal_node_id": "0.0-135.0"}}, {"uniqueid": "MTK1092:3WETL7AQWUFZS36APRNZFOE3MF035W", "current_trial": 190, "dateTime": 1513103209454, "trialdata": {"rt": -1000, "stimulus": "/static/audio/wordpool/FEMALE.wav", "key_press": -1, "type": "PRES_AUD", "word": "female", "wordID": 558, "conditions": [24, 1600, "a", 24000], "trial": 5, "serialpos": 5, "trial_type": "single-audio", "trial_index": 190, "time_elapsed": 950700, "internal_node_id": "0.0-136.0"}}, {"uniqueid": "MTK1092:3WETL7AQWUFZS36APRNZFOE3MF035W", "current_trial": 191, "dateTime": 1513103212138, "trialdata": {"rt": -1000, "stimulus": "/static/audio/wordpool/QUEEN.wav", "key_press": -1, "type": "PRES_AUD", "word": "queen", "wordID": 1148, "conditions": [24, 1600, "a", 24000], "trial": 5, "serialpos": 6, "trial_type": "single-audio", "trial_index": 191, "time_elapsed": 953384, "internal_node_id": "0.0-137.0"}}, {"uniqueid": "MTK1092:3WETL7AQWUFZS36APRNZFOE3MF035W", "current_trial": 192, "dateTime": 1513103214773, "trialdata": {"rt": -1000, "stimulus": "/static/audio/wordpool/KETCHUP.wav", "key_press": -1, "type": "PRES_AUD", "word": "ketchup", "wordID": 770, "conditions": [24, 1600, "a", 24000], "trial": 5, "serialpos": 7, "trial_type": "single-audio", "trial_index": 192, "time_elapsed": 956019, "internal_node_id": "0.0-138.0"}}, {"uniqueid": "MTK1092:3WETL7AQWUFZS36APRNZFOE3MF035W", "current_trial": 193, "dateTime": 1513103217216, "trialdata": {"rt": -1000, "stimulus": "/static/audio/wordpool/BARREL.wav", "key_press": -1, "type": "PRES_AUD", "word": "barrel", "wordID": 90, "conditions": [24, 1600, "a", 24000], "trial": 5, "serialpos": 8, "trial_type": "single-audio", "trial_index": 193, "time_elapsed": 958461, "internal_node_id": "0.0-139.0"}}, {"uniqueid": "MTK1092:3WETL7AQWUFZS36APRNZFOE3MF035W", "current_trial": 194, "dateTime": 1513103219874, "trialdata": {"rt": -1000, "stimulus": "/static/audio/wordpool/SCALPEL.wav", "key_press": -1, "type": "PRES_AUD", "word": "scalpel", "wordID": 1242, "conditions": [24, 1600, "a", 24000], "trial": 5, "serialpos": 9, "trial_type": "single-audio", "trial_index": 194, "time_elapsed": 961120, "internal_node_id": "0.0-140.0"}}, {"uniqueid": "MTK1092:3WETL7AQWUFZS36APRNZFOE3MF035W", "current_trial": 195, "dateTime": 1513103222329, "trialdata": {"rt": -1000, "stimulus": "/static/audio/wordpool/SCISSORS.wav", "key_press": -1, "type": "PRES_AUD", "word": "scissors", "wordID": 1249, "conditions": [24, 1600, "a", 24000], "trial": 5, "serialpos": 10, "trial_type": "single-audio", "trial_index": 195, "time_elapsed": 963574, "internal_node_id": "0.0-141.0"}}, {"uniqueid": "MTK1092:3WETL7AQWUFZS36APRNZFOE3MF035W", "current_trial": 196, "dateTime": 1513103224861, "trialdata": {"rt": -1000, "stimulus": "/static/audio/wordpool/PASTRY.wav", "key_press": -1, "type": "PRES_AUD", "word": "pastry", "wordID": 1021, "conditions": [24, 1600, "a", 24000], "trial": 5, "serialpos": 11, "trial_type": "single-audio", "trial_index": 196, "time_elapsed": 966107, "internal_node_id": "0.0-142.0"}}, {"uniqueid": "MTK1092:3WETL7AQWUFZS36APRNZFOE3MF035W", "current_trial": 197, "dateTime": 1513103227658, "trialdata": {"rt": -1000, "stimulus": "/static/audio/wordpool/FRAME.wav", "key_press": -1, "type": "PRES_AUD", "word": "frame", "wordID": 599, "conditions": [24, 1600, "a", 24000], "trial": 5, "serialpos": 12, "trial_type": "single-audio", "trial_index": 197, "time_elapsed": 968904, "internal_node_id": "0.0-143.0"}}, {"uniqueid": "MTK1092:3WETL7AQWUFZS36APRNZFOE3MF035W", "current_trial": 198, "dateTime": 1513103230223, "trialdata": {"rt": -1000, "stimulus": "/static/audio/wordpool/ROCKET.wav", "key_press": -1, "type": "PRES_AUD", "word": "rocket", "wordID": 1201, "conditions": [24, 1600, "a", 24000], "trial": 5, "serialpos": 13, "trial_type": "single-audio", "trial_index": 198, "time_elapsed": 971469, "internal_node_id": "0.0-144.0"}}, {"uniqueid": "MTK1092:3WETL7AQWUFZS36APRNZFOE3MF035W", "current_trial": 199, "dateTime": 1513103232875, "trialdata": {"rt": -1000, "stimulus": "/static/audio/wordpool/TRUCK.wav", "key_press": -1, "type": "PRES_AUD", "word": "truck", "wordID": 1511, "conditions": [24, 1600, "a", 24000], "trial": 5, "serialpos": 14, "trial_type": "single-audio", "trial_index": 199, "time_elapsed": 974121, "internal_node_id": "0.0-145.0"}}, {"uniqueid": "MTK1092:3WETL7AQWUFZS36APRNZFOE3MF035W", "current_trial": 200, "dateTime": 1513103235545, "trialdata": {"rt": -1000, "stimulus": "/static/audio/wordpool/HONEY.wav", "key_press": -1, "type": "PRES_AUD", "word": "honey", "wordID": 712, "conditions": [24, 1600, "a", 24000], "trial": 5, "serialpos": 15, "trial_type": "single-audio", "trial_index": 200, "time_elapsed": 976791, "internal_node_id": "0.0-146.0"}}, {"uniqueid": "MTK1092:3WETL7AQWUFZS36APRNZFOE3MF035W", "current_trial": 201, "dateTime": 1513103238130, "trialdata": {"rt": -1000, "stimulus": "/static/audio/wordpool/CANAL.wav", "key_press": -1, "type": "PRES_AUD", "word": "canal", "wordID": 225, "conditions": [24, 1600, "a", 24000], "trial": 5, "serialpos": 16, "trial_type": "single-audio", "trial_index": 201, "time_elapsed": 979376, "internal_node_id": "0.0-147.0"}}, {"uniqueid": "MTK1092:3WETL7AQWUFZS36APRNZFOE3MF035W", "current_trial": 202, "dateTime": 1513103240587, "trialdata": {"rt": -1000, "stimulus": "/static/audio/wordpool/BLOCKADE.wav", "key_press": -1, "type": "PRES_AUD", "word": "blockade", "wordID": 136, "conditions": [24, 1600, "a", 24000], "trial": 5, "serialpos": 17, "trial_type": "single-audio", "trial_index": 202, "time_elapsed": 981833, "internal_node_id": "0.0-148.0"}}, {"uniqueid": "MTK1092:3WETL7AQWUFZS36APRNZFOE3MF035W", "current_trial": 203, "dateTime": 1513103243019, "trialdata": {"rt": -1000, "stimulus": "/static/audio/wordpool/WASP.wav", "key_press": -1, "type": "PRES_AUD", "word": "wasp", "wordID": 1592, "conditions": [24, 1600, "a", 24000], "trial": 5, "serialpos": 18, "trial_type": "single-audio", "trial_index": 203, "time_elapsed": 984265, "internal_node_id": "0.0-149.0"}}, {"uniqueid": "MTK1092:3WETL7AQWUFZS36APRNZFOE3MF035W", "current_trial": 204, "dateTime": 1513103245448, "trialdata": {"rt": -1000, "stimulus": "/static/audio/wordpool/SILK.wav", "key_press": -1, "type": "PRES_AUD", "word": "silk", "wordID": 1306, "conditions": [24, 1600, "a", 24000], "trial": 5, "serialpos": 19, "trial_type": "single-audio", "trial_index": 204, "time_elapsed": 986694, "internal_node_id": "0.0-150.0"}}, {"uniqueid": "MTK1092:3WETL7AQWUFZS36APRNZFOE3MF035W", "current_trial": 205, "dateTime": 1513103248234, "trialdata": {"rt": -1000, "stimulus": "/static/audio/wordpool/MISSILE.wav", "key_press": -1, "type": "PRES_AUD", "word": "missile", "wordID": 899, "conditions": [24, 1600, "a", 24000], "trial": 5, "serialpos": 20, "trial_type": "single-audio", "trial_index": 205, "time_elapsed": 989480, "internal_node_id": "0.0-151.0"}}, {"uniqueid": "MTK1092:3WETL7AQWUFZS36APRNZFOE3MF035W", "current_trial": 206, "dateTime": 1513103250778, "trialdata": {"rt": -1000, "stimulus": "/static/audio/wordpool/TURTLE.wav", "key_press": -1, "type": "PRES_AUD", "word": "turtle", "wordID": 1521, "conditions": [24, 1600, "a", 24000], "trial": 5, "serialpos": 21, "trial_type": "single-audio", "trial_index": 206, "time_elapsed": 992024, "internal_node_id": "0.0-152.0"}}, {"uniqueid": "MTK1092:3WETL7AQWUFZS36APRNZFOE3MF035W", "current_trial": 207, "dateTime": 1513103253500, "trialdata": {"rt": -1000, "stimulus": "/static/audio/wordpool/BLADE.wav", "key_press": -1, "type": "PRES_AUD", "word": "blade", "wordID": 133, "conditions": [24, 1600, "a", 24000], "trial": 5, "serialpos": 22, "trial_type": "single-audio", "trial_index": 207, "time_elapsed": 994746, "internal_node_id": "0.0-153.0"}}, {"uniqueid": "MTK1092:3WETL7AQWUFZS36APRNZFOE3MF035W", "current_trial": 208, "dateTime": 1513103255948, "trialdata": {"rt": -1000, "stimulus": "/static/audio/wordpool/RAZOR.wav", "key_press": -1, "type": "PRES_AUD", "word": "razor", "wordID": 1170, "conditions": [24, 1600, "a", 24000], "trial": 5, "serialpos": 23, "trial_type": "single-audio", "trial_index": 208, "time_elapsed": 997194, "internal_node_id": "0.0-154.0"}}, {"uniqueid": "MTK1092:3WETL7AQWUFZS36APRNZFOE3MF035W", "current_trial": 209, "dateTime": 1513103257312, "trialdata": {"rt": -1, "stimulus": "", "key_press": -1, "type": "PRE_RECALL_DELAY", "trial_type": "single-stim", "trial_index": 209, "time_elapsed": 998558, "internal_node_id": "0.0-155.0-0.0"}}, {"uniqueid": "MTK1092:3WETL7AQWUFZS36APRNZFOE3MF035W", "current_trial": 210, "dateTime": 1513103257814, "trialdata": {"rt": -1000, "stimulus": "/static/audio/400Hz.wav", "key_press": -1, "type": "PRE_RECALL_ALERT", "trial_type": "single-audio", "trial_index": 210, "time_elapsed": 999060, "internal_node_id": "0.0-156.0"}}, {"uniqueid": "MTK1092:3WETL7AQWUFZS36APRNZFOE3MF035W", "current_trial": 211, "dateTime": 1513103317822, "trialdata": {"rt": [3176, 5388, 7489, 9914, 16086, 17358, 19251], "recwords": ["blade", "razor", "turtle", "missle", "female", "queen", "honey"], "type": "FREE_RECALL", "conditions": [24, 1600, "a", 24000], "trial": 5, "trial_type": "free-recall", "trial_index": 211, "time_elapsed": 1059064, "internal_node_id": "0.0-157.0-0.0"}}, {"uniqueid": "MTK1092:3WETL7AQWUFZS36APRNZFOE3MF035W", "current_trial": 212, "dateTime": 1513103321394, "trialdata": {"rt": 1570, "key_press": 32, "type": "INSTRUCTIONS", "trial_type": "text", "trial_index": 212, "time_elapsed": 1062640, "internal_node_id": "0.0-158.0"}}, {"uniqueid": "MTK1092:3WETL7AQWUFZS36APRNZFOE3MF035W", "current_trial": 213, "dateTime": 1513103335398, "trialdata": {"rt": [2458, 3962, 6375, 8079, 10865], "responses": ["7", "14", "7", "19", "25"], "num1": [1, 4, 1, 1, 7, 2], "num2": [4, 5, 4, 9, 9, 8], "num3": [2, 5, 2, 9, 9, 5], "type": "DISTRACTOR", "conditions": [12, 800, "v", 12000], "trial": 6, "trial_type": "math-distractor", "trial_index": 213, "time_elapsed": 1076643, "internal_node_id": "0.0-159.0"}}, {"uniqueid": "MTK1092:3WETL7AQWUFZS36APRNZFOE3MF035W", "current_trial": 214, "dateTime": 1513103338400, "trialdata": {"rt": -1, "stimulus": "<p id=\"stim\">10</p>", "key_press": -1, "trial_type": "single-stim", "trial_index": 214, "time_elapsed": 1079646, "internal_node_id": "0.0-160.0-0.0"}}, {"uniqueid": "MTK1092:3WETL7AQWUFZS36APRNZFOE3MF035W", "current_trial": 215, "dateTime": 1513103339402, "trialdata": {"rt": -1, "stimulus": "<p id=\"stim\">9</p>", "key_press": -1, "trial_type": "single-stim", "trial_index": 215, "time_elapsed": 1080648, "internal_node_id": "0.0-160.0-1.0"}}, {"uniqueid": "MTK1092:3WETL7AQWUFZS36APRNZFOE3MF035W", "current_trial": 216, "dateTime": 1513103340403, "trialdata": {"rt": -1, "stimulus": "<p id=\"stim\">8</p>", "key_press": -1, "trial_type": "single-stim", "trial_index": 216, "time_elapsed": 1081649, "internal_node_id": "0.0-160.0-2.0"}}, {"uniqueid": "MTK1092:3WETL7AQWUFZS36APRNZFOE3MF035W", "current_trial": 217, "dateTime": 1513103341404, "trialdata": {"rt": -1, "stimulus": "<p id=\"stim\">7</p>", "key_press": -1, "trial_type": "single-stim", "trial_index": 217, "time_elapsed": 1082650, "internal_node_id": "0.0-160.0-3.0"}}, {"uniqueid": "MTK1092:3WETL7AQWUFZS36APRNZFOE3MF035W", "current_trial": 218, "dateTime": 1513103342405, "trialdata": {"rt": -1, "stimulus": "<p id=\"stim\">6</p>", "key_press": -1, "trial_type": "single-stim", "trial_index": 218, "time_elapsed": 1083651, "internal_node_id": "0.0-160.0-4.0"}}, {"uniqueid": "MTK1092:3WETL7AQWUFZS36APRNZFOE3MF035W", "current_trial": 219, "dateTime": 1513103343407, "trialdata": {"rt": -1, "stimulus": "<p id=\"stim\">5</p>", "key_press": -1, "trial_type": "single-stim", "trial_index": 219, "time_elapsed": 1084653, "internal_node_id": "0.0-160.0-5.0"}}, {"uniqueid": "MTK1092:3WETL7AQWUFZS36APRNZFOE3MF035W", "current_trial": 220, "dateTime": 1513103344409, "trialdata": {"rt": -1, "stimulus": "<p id=\"stim\">4</p>", "key_press": -1, "trial_type": "single-stim", "trial_index": 220, "time_elapsed": 1085655, "internal_node_id": "0.0-160.0-6.0"}}, {"uniqueid": "MTK1092:3WETL7AQWUFZS36APRNZFOE3MF035W", "current_trial": 221, "dateTime": 1513103345411, "trialdata": {"rt": -1, "stimulus": "<p id=\"stim\">3</p>", "key_press": -1, "trial_type": "single-stim", "trial_index": 221, "time_elapsed": 1086657, "internal_node_id": "0.0-160.0-7.0"}}, {"uniqueid": "MTK1092:3WETL7AQWUFZS36APRNZFOE3MF035W", "current_trial": 222, "dateTime": 1513103346413, "trialdata": {"rt": -1, "stimulus": "<p id=\"stim\">2</p>", "key_press": -1, "trial_type": "single-stim", "trial_index": 222, "time_elapsed": 1087659, "internal_node_id": "0.0-160.0-8.0"}}, {"uniqueid": "MTK1092:3WETL7AQWUFZS36APRNZFOE3MF035W", "current_trial": 223, "dateTime": 1513103347414, "trialdata": {"rt": -1, "stimulus": "<p id=\"stim\">1</p>", "key_press": -1, "trial_type": "single-stim", "trial_index": 223, "time_elapsed": 1088660, "internal_node_id": "0.0-160.0-9.0"}}, {"uniqueid": "MTK1092:3WETL7AQWUFZS36APRNZFOE3MF035W", "current_trial": 224, "dateTime": 1513103348916, "trialdata": {"rt": -1, "stimulus": "<p id=\"stim\">+</p>", "key_press": -1, "type": "FIXATION", "trial_type": "single-stim", "trial_index": 224, "time_elapsed": 1090162, "internal_node_id": "0.0-161.0-0.0"}}, {"uniqueid": "MTK1092:3WETL7AQWUFZS36APRNZFOE3MF035W", "current_trial": 225, "dateTime": 1513103349717, "trialdata": {"rt": -1, "stimulus": "<p id=\"stim\">RIFLE</p>", "key_press": -1, "type": "PRES_VIS", "word": "rifle", "wordID": 1191, "conditions": [12, 800, "v", 12000], "trial": 6, "serialpos": 0, "trial_type": "single-stim", "trial_index": 225, "time_elapsed": 1090963, "internal_node_id": "0.0-162.0"}}, {"uniqueid": "MTK1092:3WETL7AQWUFZS36APRNZFOE3MF035W", "current_trial": 226, "dateTime": 1513103351557, "trialdata": {"rt": -1, "stimulus": "<p id=\"stim\">TRIBE</p>", "key_press": -1, "type": "PRES_VIS", "word": "tribe", "wordID": 1504, "conditions": [12, 800, "v", 12000], "trial": 6, "serialpos": 1, "trial_type": "single-stim", "trial_index": 226, "time_elapsed": 1092803, "internal_node_id": "0.0-163.0"}}, {"uniqueid": "MTK1092:3WETL7AQWUFZS36APRNZFOE3MF035W", "current_trial": 227, "dateTime": 1513103353447, "trialdata": {"rt": -1, "stimulus": "<p id=\"stim\">SHORTCAKE</p>", "key_press": -1, "type": "PRES_VIS", "word": "shortcake", "wordID": 1291, "conditions": [12, 800, "v", 12000], "trial": 6, "serialpos": 2, "trial_type": "single-stim", "trial_index": 227, "time_elapsed": 1094693, "internal_node_id": "0.0-164.0"}}, {"uniqueid": "MTK1092:3WETL7AQWUFZS36APRNZFOE3MF035W", "current_trial": 228, "dateTime": 1513103355212, "trialdata": {"rt": -1, "stimulus": "<p id=\"stim\">TWISTER</p>", "key_press": -1, "type": "PRES_VIS", "word": "twister", "wordID": 1529, "conditions": [12, 800, "v", 12000], "trial": 6, "serialpos": 3, "trial_type": "single-stim", "trial_index": 228, "time_elapsed": 1096458, "internal_node_id": "0.0-165.0"}}, {"uniqueid": "MTK1092:3WETL7AQWUFZS36APRNZFOE3MF035W", "current_trial": 229, "dateTime": 1513103357162, "trialdata": {"rt": -1, "stimulus": "<p id=\"stim\">PLAZA</p>", "key_press": -1, "type": "PRES_VIS", "word": "plaza", "wordID": 1087, "conditions": [12, 800, "v", 12000], "trial": 6, "serialpos": 4, "trial_type": "single-stim", "trial_index": 229, "time_elapsed": 1098407, "internal_node_id": "0.0-166.0"}}, {"uniqueid": "MTK1092:3WETL7AQWUFZS36APRNZFOE3MF035W", "current_trial": 230, "dateTime": 1513103359100, "trialdata": {"rt": -1, "stimulus": "<p id=\"stim\">KEEPER</p>", "key_press": -1, "type": "PRES_VIS", "word": "keeper", "wordID": 768, "conditions": [12, 800, "v", 12000], "trial": 6, "serialpos": 5, "trial_type": "single-stim", "trial_index": 230, "time_elapsed": 1100345, "internal_node_id": "0.0-167.0"}}, {"uniqueid": "MTK1092:3WETL7AQWUFZS36APRNZFOE3MF035W", "current_trial": 231, "dateTime": 1513103360922, "trialdata": {"rt": -1, "stimulus": "<p id=\"stim\">INFANT</p>", "key_press": -1, "type": "PRES_VIS", "word": "infant", "wordID": 736, "conditions": [12, 800, "v", 12000], "trial": 6, "serialpos": 6, "trial_type": "single-stim", "trial_index": 231, "time_elapsed": 1102168, "internal_node_id": "0.0-168.0"}}, {"uniqueid": "MTK1092:3WETL7AQWUFZS36APRNZFOE3MF035W", "current_trial": 232, "dateTime": 1513103362817, "trialdata": {"rt": -1, "stimulus": "<p id=\"stim\">CHILD</p>", "key_press": -1, "type": "PRES_VIS", "word": "child", "wordID": 298, "conditions": [12, 800, "v", 12000], "trial": 6, "serialpos": 7, "trial_type": "single-stim", "trial_index": 232, "time_elapsed": 1104063, "internal_node_id": "0.0-169.0"}}, {"uniqueid": "MTK1092:3WETL7AQWUFZS36APRNZFOE3MF035W", "current_trial": 233, "dateTime": 1513103364561, "trialdata": {"rt": -1, "stimulus": "<p id=\"stim\">SIDEWALK</p>", "key_press": -1, "type": "PRES_VIS", "word": "sidewalk", "wordID": 1302, "conditions": [12, 800, "v", 12000], "trial": 6, "serialpos": 8, "trial_type": "single-stim", "trial_index": 233, "time_elapsed": 1105807, "internal_node_id": "0.0-170.0"}}, {"uniqueid": "MTK1092:3WETL7AQWUFZS36APRNZFOE3MF035W", "current_trial": 234, "dateTime": 1513103366269, "trialdata": {"rt": -1, "stimulus": "<p id=\"stim\">TRANSPLANT</p>", "key_press": -1, "type": "PRES_VIS", "word": "transplant", "wordID": 1495, "conditions": [12, 800, "v", 12000], "trial": 6, "serialpos": 9, "trial_type": "single-stim", "trial_index": 234, "time_elapsed": 1107515, "internal_node_id": "0.0-171.0"}}, {"uniqueid": "MTK1092:3WETL7AQWUFZS36APRNZFOE3MF035W", "current_trial": 235, "dateTime": 1513103368051, "trialdata": {"rt": -1, "stimulus": "<p id=\"stim\">TORTOISE</p>", "key_press": -1, "type": "PRES_VIS", "word": "tortoise", "wordID": 1485, "conditions": [12, 800, "v", 12000], "trial": 6, "serialpos": 10, "trial_type": "single-stim", "trial_index": 235, "time_elapsed": 1109297, "internal_node_id": "0.0-172.0"}}, {"uniqueid": "MTK1092:3WETL7AQWUFZS36APRNZFOE3MF035W", "current_trial": 236, "dateTime": 1513103369891, "trialdata": {"rt": -1, "stimulus": "<p id=\"stim\">WASHER</p>", "key_press": -1, "type": "PRES_VIS", "word": "washer", "wordID": 1591, "conditions": [12, 800, "v", 12000], "trial": 6, "serialpos": 11, "trial_type": "single-stim", "trial_index": 236, "time_elapsed": 1111137, "internal_node_id": "0.0-173.0"}}, {"uniqueid": "MTK1092:3WETL7AQWUFZS36APRNZFOE3MF035W", "current_trial": 237, "dateTime": 1513103372321, "trialdata": {"rt": -1, "stimulus": "", "key_press": -1, "type": "PRE_RECALL_DELAY", "trial_type": "single-stim", "trial_index": 237, "time_elapsed": 1113567, "internal_node_id": "0.0-174.0-0.0"}}, {"uniqueid": "MTK1092:3WETL7AQWUFZS36APRNZFOE3MF035W", "current_trial": 238, "dateTime": 1513103372825, "trialdata": {"rt": -1000, "stimulus": "/static/audio/400Hz.wav", "key_press": -1, "type": "PRE_RECALL_ALERT", "trial_type": "single-audio", "trial_index": 238, "time_elapsed": 1114071, "internal_node_id": "0.0-175.0"}}, {"uniqueid": "MTK1092:3WETL7AQWUFZS36APRNZFOE3MF035W", "current_trial": 239, "dateTime": 1513103432833, "trialdata": {"rt": [3495, 14616, 20831, 22621, 23988, 26367, 30817], "recwords": ["washer", "tortise", "transplant", "infant", "child", "sidewalk", "rifle"], "type": "FREE_RECALL", "conditions": [12, 800, "v", 12000], "trial": 6, "trial_type": "free-recall", "trial_index": 239, "time_elapsed": 1174075, "internal_node_id": "0.0-176.0-0.0"}}, {"uniqueid": "MTK1092:3WETL7AQWUFZS36APRNZFOE3MF035W", "current_trial": 240, "dateTime": 1513103436458, "trialdata": {"rt": 1623, "key_press": 32, "type": "INSTRUCTIONS", "trial_type": "text", "trial_index": 240, "time_elapsed": 1177704, "internal_node_id": "0.0-177.0"}}, {"uniqueid": "MTK1092:3WETL7AQWUFZS36APRNZFOE3MF035W", "current_trial": 241, "dateTime": 1513103462461, "trialdata": {"rt": [1902, 3305, 6559, 9368, 12097, 15316, 17183, 20716, 22380], "responses": ["20", "12", "22", "13", "18", "19", "9", "16", "22"], "num1": [7, 5, 9, 1, 6, 5, 6, 2, 9, 4], "num2": [8, 2, 8, 6, 5, 8, 2, 5, 9, 8], "num3": [5, 5, 5, 6, 7, 6, 1, 9, 4, 1], "type": "DISTRACTOR", "conditions": [12, 800, "v", 24000], "trial": 7, "trial_type": "math-distractor", "trial_index": 241, "time_elapsed": 1203707, "internal_node_id": "0.0-178.0"}}, {"uniqueid": "MTK1092:3WETL7AQWUFZS36APRNZFOE3MF035W", "current_trial": 242, "dateTime": 1513103465463, "trialdata": {"rt": -1, "stimulus": "<p id=\"stim\">10</p>", "key_press": -1, "trial_type": "single-stim", "trial_index": 242, "time_elapsed": 1206709, "internal_node_id": "0.0-179.0-0.0"}}, {"uniqueid": "MTK1092:3WETL7AQWUFZS36APRNZFOE3MF035W", "current_trial": 243, "dateTime": 1513103466464, "trialdata": {"rt": -1, "stimulus": "<p id=\"stim\">9</p>", "key_press": -1, "trial_type": "single-stim", "trial_index": 243, "time_elapsed": 1207710, "internal_node_id": "0.0-179.0-1.0"}}, {"uniqueid": "MTK1092:3WETL7AQWUFZS36APRNZFOE3MF035W", "current_trial": 244, "dateTime": 1513103467466, "trialdata": {"rt": -1, "stimulus": "<p id=\"stim\">8</p>", "key_press": -1, "trial_type": "single-stim", "trial_index": 244, "time_elapsed": 1208712, "internal_node_id": "0.0-179.0-2.0"}}, {"uniqueid": "MTK1092:3WETL7AQWUFZS36APRNZFOE3MF035W", "current_trial": 245, "dateTime": 1513103468468, "trialdata": {"rt": -1, "stimulus": "<p id=\"stim\">7</p>", "key_press": -1, "trial_type": "single-stim", "trial_index": 245, "time_elapsed": 1209714, "internal_node_id": "0.0-179.0-3.0"}}, {"uniqueid": "MTK1092:3WETL7AQWUFZS36APRNZFOE3MF035W", "current_trial": 246, "dateTime": 1513103469470, "trialdata": {"rt": -1, "stimulus": "<p id=\"stim\">6</p>", "key_press": -1, "trial_type": "single-stim", "trial_index": 246, "time_elapsed": 1210716, "internal_node_id": "0.0-179.0-4.0"}}, {"uniqueid": "MTK1092:3WETL7AQWUFZS36APRNZFOE3MF035W", "current_trial": 247, "dateTime": 1513103470472, "trialdata": {"rt": -1, "stimulus": "<p id=\"stim\">5</p>", "key_press": -1, "trial_type": "single-stim", "trial_index": 247, "time_elapsed": 1211718, "internal_node_id": "0.0-179.0-5.0"}}, {"uniqueid": "MTK1092:3WETL7AQWUFZS36APRNZFOE3MF035W", "current_trial": 248, "dateTime": 1513103471473, "trialdata": {"rt": -1, "stimulus": "<p id=\"stim\">4</p>", "key_press": -1, "trial_type": "single-stim", "trial_index": 248, "time_elapsed": 1212719, "internal_node_id": "0.0-179.0-6.0"}}, {"uniqueid": "MTK1092:3WETL7AQWUFZS36APRNZFOE3MF035W", "current_trial": 249, "dateTime": 1513103472474, "trialdata": {"rt": -1, "stimulus": "<p id=\"stim\">3</p>", "key_press": -1, "trial_type": "single-stim", "trial_index": 249, "time_elapsed": 1213720, "internal_node_id": "0.0-179.0-7.0"}}, {"uniqueid": "MTK1092:3WETL7AQWUFZS36APRNZFOE3MF035W", "current_trial": 250, "dateTime": 1513103473475, "trialdata": {"rt": -1, "stimulus": "<p id=\"stim\">2</p>", "key_press": -1, "trial_type": "single-stim", "trial_index": 250, "time_elapsed": 1214721, "internal_node_id": "0.0-179.0-8.0"}}, {"uniqueid": "MTK1092:3WETL7AQWUFZS36APRNZFOE3MF035W", "current_trial": 251, "dateTime": 1513103474477, "trialdata": {"rt": -1, "stimulus": "<p id=\"stim\">1</p>", "key_press": -1, "trial_type": "single-stim", "trial_index": 251, "time_elapsed": 1215723, "internal_node_id": "0.0-179.0-9.0"}}, {"uniqueid": "MTK1092:3WETL7AQWUFZS36APRNZFOE3MF035W", "current_trial": 252, "dateTime": 1513103475978, "trialdata": {"rt": -1, "stimulus": "<p id=\"stim\">+</p>", "key_press": -1, "type": "FIXATION", "trial_type": "single-stim", "trial_index": 252, "time_elapsed": 1217224, "internal_node_id": "0.0-180.0-0.0"}}, {"uniqueid": "MTK1092:3WETL7AQWUFZS36APRNZFOE3MF035W", "current_trial": 253, "dateTime": 1513103476780, "trialdata": {"rt": -1, "stimulus": "<p id=\"stim\">FRIEND</p>", "key_press": -1, "type": "PRES_VIS", "word": "friend", "wordID": 605, "conditions": [12, 800, "v", 24000], "trial": 7, "serialpos": 0, "trial_type": "single-stim", "trial_index": 253, "time_elapsed": 1218026, "internal_node_id": "0.0-181.0"}}, {"uniqueid": "MTK1092:3WETL7AQWUFZS36APRNZFOE3MF035W", "current_trial": 254, "dateTime": 1513103478451, "trialdata": {"rt": -1, "stimulus": "<p id=\"stim\">SHELF</p>", "key_press": -1, "type": "PRES_VIS", "word": "shelf", "wordID": 1279, "conditions": [12, 800, "v", 24000], "trial": 7, "serialpos": 1, "trial_type": "single-stim", "trial_index": 254, "time_elapsed": 1219697, "internal_node_id": "0.0-182.0"}}, {"uniqueid": "MTK1092:3WETL7AQWUFZS36APRNZFOE3MF035W", "current_trial": 255, "dateTime": 1513103480266, "trialdata": {"rt": -1, "stimulus": "<p id=\"stim\">SPACE</p>", "key_press": -1, "type": "PRES_VIS", "word": "space", "wordID": 1344, "conditions": [12, 800, "v", 24000], "trial": 7, "serialpos": 2, "trial_type": "single-stim", "trial_index": 255, "time_elapsed": 1221511, "internal_node_id": "0.0-183.0"}}, {"uniqueid": "MTK1092:3WETL7AQWUFZS36APRNZFOE3MF035W", "current_trial": 256, "dateTime": 1513103481899, "trialdata": {"rt": -1, "stimulus": "<p id=\"stim\">FLUTE</p>", "key_press": -1, "type": "PRES_VIS", "word": "flute", "wordID": 584, "conditions": [12, 800, "v", 24000], "trial": 7, "serialpos": 3, "trial_type": "single-stim", "trial_index": 256, "time_elapsed": 1223145, "internal_node_id": "0.0-184.0"}}, {"uniqueid": "MTK1092:3WETL7AQWUFZS36APRNZFOE3MF035W", "current_trial": 257, "dateTime": 1513103483650, "trialdata": {"rt": -1, "stimulus": "<p id=\"stim\">BLACKBOARD</p>", "key_press": -1, "type": "PRES_VIS", "word": "blackboard", "wordID": 132, "conditions": [12, 800, "v", 24000], "trial": 7, "serialpos": 4, "trial_type": "single-stim", "trial_index": 257, "time_elapsed": 1224896, "internal_node_id": "0.0-185.0"}}, {"uniqueid": "MTK1092:3WETL7AQWUFZS36APRNZFOE3MF035W", "current_trial": 258, "dateTime": 1513103485282, "trialdata": {"rt": -1, "stimulus": "<p id=\"stim\">MARKET</p>", "key_press": -1, "type": "PRES_VIS", "word": "market", "wordID": 870, "conditions": [12, 800, "v", 24000], "trial": 7, "serialpos": 5, "trial_type": "single-stim", "trial_index": 258, "time_elapsed": 1226528, "internal_node_id": "0.0-186.0"}}, {"uniqueid": "MTK1092:3WETL7AQWUFZS36APRNZFOE3MF035W", "current_trial": 259, "dateTime": 1513103486949, "trialdata": {"rt": -1, "stimulus": "<p id=\"stim\">SUPPER</p>", "key_press": -1, "type": "PRES_VIS", "word": "supper", "wordID": 1410, "conditions": [12, 800, "v", 24000], "trial": 7, "serialpos": 6, "trial_type": "single-stim", "trial_index": 259, "time_elapsed": 1228195, "internal_node_id": "0.0-187.0"}}, {"uniqueid": "MTK1092:3WETL7AQWUFZS36APRNZFOE3MF035W", "current_trial": 260, "dateTime": 1513103488740, "trialdata": {"rt": -1, "stimulus": "<p id=\"stim\">PASTA</p>", "key_press": -1, "type": "PRES_VIS", "word": "pasta", "wordID": 1020, "conditions": [12, 800, "v", 24000], "trial": 7, "serialpos": 7, "trial_type": "single-stim", "trial_index": 260, "time_elapsed": 1229986, "internal_node_id": "0.0-188.0"}}, {"uniqueid": "MTK1092:3WETL7AQWUFZS36APRNZFOE3MF035W", "current_trial": 261, "dateTime": 1513103490735, "trialdata": {"rt": -1, "stimulus": "<p id=\"stim\">SAUSAGE</p>", "key_press": -1, "type": "PRES_VIS", "word": "sausage", "wordID": 1237, "conditions": [12, 800, "v", 24000], "trial": 7, "serialpos": 8, "trial_type": "single-stim", "trial_index": 261, "time_elapsed": 1231981, "internal_node_id": "0.0-189.0"}}, {"uniqueid": "MTK1092:3WETL7AQWUFZS36APRNZFOE3MF035W", "current_trial": 262, "dateTime": 1513103492574, "trialdata": {"rt": -1, "stimulus": "<p id=\"stim\">BOYFRIEND</p>", "key_press": -1, "type": "PRES_VIS", "word": "boyfriend", "wordID": 161, "conditions": [12, 800, "v", 24000], "trial": 7, "serialpos": 9, "trial_type": "single-stim", "trial_index": 262, "time_elapsed": 1233820, "internal_node_id": "0.0-190.0"}}, {"uniqueid": "MTK1092:3WETL7AQWUFZS36APRNZFOE3MF035W", "current_trial": 263, "dateTime": 1513103494242, "trialdata": {"rt": -1, "stimulus": "<p id=\"stim\">CHEMIST</p>", "key_press": -1, "type": "PRES_VIS", "word": "chemist", "wordID": 291, "conditions": [12, 800, "v", 24000], "trial": 7, "serialpos": 10, "trial_type": "single-stim", "trial_index": 263, "time_elapsed": 1235488, "internal_node_id": "0.0-191.0"}}, {"uniqueid": "MTK1092:3WETL7AQWUFZS36APRNZFOE3MF035W", "current_trial": 264, "dateTime": 1513103496072, "trialdata": {"rt": -1, "stimulus": "<p id=\"stim\">STOMACH</p>", "key_press": -1, "type": "PRES_VIS", "word": "stomach", "wordID": 1383, "conditions": [12, 800, "v", 24000], "trial": 7, "serialpos": 11, "trial_type": "single-stim", "trial_index": 264, "time_elapsed": 1237318, "internal_node_id": "0.0-192.0"}}, {"uniqueid": "MTK1092:3WETL7AQWUFZS36APRNZFOE3MF035W", "current_trial": 265, "dateTime": 1513103498404, "trialdata": {"rt": -1, "stimulus": "", "key_press": -1, "type": "PRE_RECALL_DELAY", "trial_type": "single-stim", "trial_index": 265, "time_elapsed": 1239650, "internal_node_id": "0.0-193.0-0.0"}}, {"uniqueid": "MTK1092:3WETL7AQWUFZS36APRNZFOE3MF035W", "current_trial": 266, "dateTime": 1513103498905, "trialdata": {"rt": -1000, "stimulus": "/static/audio/400Hz.wav", "key_press": -1, "type": "PRE_RECALL_ALERT", "trial_type": "single-audio", "trial_index": 266, "time_elapsed": 1240151, "internal_node_id": "0.0-194.0"}}, {"uniqueid": "MTK1092:3WETL7AQWUFZS36APRNZFOE3MF035W", "current_trial": 267, "dateTime": 1513103558911, "trialdata": {"rt": [3766, 8422, 11719, 14667, 19790, 22664], "recwords": ["stomach", "chemist", "boyfriend", "stomach", "pasta", "sausage"], "type": "FREE_RECALL", "conditions": [12, 800, "v", 24000], "trial": 7, "trial_type": "free-recall", "trial_index": 267, "time_elapsed": 1300153, "internal_node_id": "0.0-195.0-0.0"}}, {"uniqueid": "MTK1092:3WETL7AQWUFZS36APRNZFOE3MF035W", "current_trial": 268, "dateTime": 1513103562754, "trialdata": {"rt": 1840, "key_press": 32, "type": "INSTRUCTIONS", "trial_type": "text", "trial_index": 268, "time_elapsed": 1304000, "internal_node_id": "0.0-196.0"}}, {"uniqueid": "MTK1092:3WETL7AQWUFZS36APRNZFOE3MF035W", "current_trial": 269, "dateTime": 1513103588757, "trialdata": {"rt": [6340, 7975, 9205, 10667, 11914, 12874, 14555, 15737, 20393, 21833, 23111], "responses": ["15", "8", "8", "13", "13", "4", "19", "13", "20", "13", "15"], "num1": [8, 4, 1, 5, 3, 2, 4, 3, 9, 3, 2, 4], "num2": [4, 2, 1, 4, 7, 1, 7, 3, 9, 5, 8, 6], "num3": [3, 2, 6, 4, 7, 1, 8, 7, 2, 5, 5, 5], "type": "DISTRACTOR", "conditions": [12, 1600, "v", 24000], "trial": 8, "trial_type": "math-distractor", "trial_index": 269, "time_elapsed": 1330003, "internal_node_id": "0.0-197.0"}}, {"uniqueid": "MTK1092:3WETL7AQWUFZS36APRNZFOE3MF035W", "current_trial": 270, "dateTime": 1513103591760, "trialdata": {"rt": -1, "stimulus": "<p id=\"stim\">10</p>", "key_press": -1, "trial_type": "single-stim", "trial_index": 270, "time_elapsed": 133