{"assignmentId": "3A9AA95ATXT6ZSBXNPK6SRH4UGB5P6", "workerId": "MTK1703", "questiondata": {"avail_screen_height": 826, "color_depth": 24, "screen_width": 1536, "pixel_depth": 24, "avail_screen_width": 1536, "screen_height": 864}, "bonus": 0, "hitId": "38F60IALAGO39TK9HYICRMQQKSP0TU", "counterbalance": 596, "useragent": "Mozilla/5.0 (Windows NT 6.3; WOW64; rv:57.0) Gecko/20100101 Firefox/57.0", "eventdata": [{"eventtype": "initialized", "interval": 0, "value": null, "timestamp": 1516130205040}, {"eventtype": "window_resize", "interval": 1, "value": [1520, 750], "timestamp": 1516130205041}, {"eventtype": "focus", "interval": 240253, "value": "off", "timestamp": 1516130445294}, {"eventtype": "focus", "interval": 726, "value": "on", "timestamp": 1516130446020}, {"eventtype": "focus", "interval": 625114, "value": "off", "timestamp": 1516131071134}, {"eventtype": "focus", "interval": 1474, "value": "on", "timestamp": 1516131072608}, {"eventtype": "focus", "interval": 695592, "value": "off", "timestamp": 1516131768200}, {"eventtype": "focus", "interval": 35450, "value": "on", "timestamp": 1516131803650}, {"eventtype": "focus", "interval": 280120, "value": "off", "timestamp": 1516132083770}, {"eventtype": "focus", "interval": 1367, "value": "on", "timestamp": 1516132085137}, {"eventtype": "focus", "interval": 151327, "value": "off", "timestamp": 1516132236464}, {"eventtype": "focus", "interval": 4055, "value": "on", "timestamp": 1516132240519}, {"eventtype": "focus", "interval": 2551, "value": "off", "timestamp": 1516132243070}, {"eventtype": "focus", "interval": 58748, "value": "on", "timestamp": 1516132301818}, {"eventtype": "focus", "interval": 192163, "value": "off", "timestamp": 1516132493981}, {"eventtype": "focus", "interval": 3305, "value": "on", "timestamp": 1516132497286}, {"eventtype": "focus", "interval": 11500, "value": "off", "timestamp": 1516132508786}, {"eventtype": "focus", "interval": 5418, "value": "on", "timestamp": 1516132514204}, {"eventtype": "focus", "interval": 1871, "value": "off", "timestamp": 1516132516075}, {"eventtype": "focus", "interval": 86880, "value": "on", "timestamp": 1516132602955}, {"eventtype": "focus", "interval": 144646, "value": "off", "timestamp": 1516132747601}, {"eventtype": "focus", "interval": 32648, "value": "on", "timestamp": 1516132780249}, {"eventtype": "focus", "interval": 1240, "value": "off", "timestamp": 1516132781489}, {"eventtype": "focus", "interval": 1910, "value": "on", "timestamp": 1516132783399}, {"eventtype": "focus", "interval": 121520, "value": "off", "timestamp": 1516132904919}, {"eventtype": "focus", "interval": 2534, "value": "on", "timestamp": 1516132907453}, {"eventtype": "focus", "interval": 19764, "value": "off", "timestamp": 1516132927217}, {"eventtype": "focus", "interval": 8413, "value": "on", "timestamp": 1516132935630}, {"eventtype": "focus", "interval": 417355, "value": "off", "timestamp": 1516133352985}, {"eventtype": "focus", "interval": 31708, "value": "on", "timestamp": 1516133384693}, {"eventtype": "focus", "interval": 1739, "value": "off", "timestamp": 1516133386432}, {"eventtype": "focus", "interval": 7567, "value": "on", "timestamp": 1516133393999}, {"eventtype": "focus", "interval": 22192, "value": "off", "timestamp": 1516133416191}, {"eventtype": "focus", "interval": 36043, "value": "on", "timestamp": 1516133452234}, {"eventtype": "focus", "interval": 1107, "value": "off", "timestamp": 1516133453341}, {"eventtype": "focus", "interval": 48558, "value": "on", "timestamp": 1516133501899}, {"eventtype": "focus", "interval": 879, "value": "off", "timestamp": 1516133502778}, {"eventtype": "focus", "interval": 57767, "value": "on", "timestamp": 1516133560545}, {"eventtype": "focus", "interval": 915, "value": "off", "timestamp": 1516133561460}], "data": [{"current_trial": 0, "trialdata": {"rt": 120460, "trial_type": "text", "internal_node_id": "0.0-0.0", "time_elapsed": 120469, "key_press": 74, "type": "INSTRUCTIONS", "trial_index": 0}, "uniqueid": "MTK1703:3A9AA95ATXT6ZSBXNPK6SRH4UGB5P6", "dateTime": 1516130326268}, {"current_trial": 1, "trialdata": {"rt": 3635, "trial_type": "text", "internal_node_id": "0.0-1.0", "time_elapsed": 124110, "key_press": 183, "type": "INSTRUCTIONS", "trial_index": 1}, "uniqueid": "MTK1703:3A9AA95ATXT6ZSBXNPK6SRH4UGB5P6", "dateTime": 1516130329909}, {"current_trial": 2, "trialdata": {"rt": [11650], "trial_type": "audio-test", "responses": ["ocean"], "internal_node_id": "0.0-2.0", "time_elapsed": 136009, "type": "AUDIO_TEST", "trial_index": 2}, "uniqueid": "MTK1703:3A9AA95ATXT6ZSBXNPK6SRH4UGB5P6", "dateTime": 1516130341806}, {"current_trial": 3, "trialdata": {"rt": [4849], "trial_type": "audio-test", "responses": ["crystal"], "internal_node_id": "0.0-3.0", "time_elapsed": 140917, "type": "AUDIO_TEST", "trial_index": 3}, "uniqueid": "MTK1703:3A9AA95ATXT6ZSBXNPK6SRH4UGB5P6", "dateTime": 1516130346715}, {"current_trial": 4, "trialdata": {"rt": [5158], "trial_type": "audio-test", "responses": ["spice"], "internal_node_id": "0.0-4.0", "time_elapsed": 146124, "type": "AUDIO_TEST", "trial_index": 4}, "uniqueid": "MTK1703:3A9AA95ATXT6ZSBXNPK6SRH4UGB5P6", "dateTime": 1516130351921}, {"current_trial": 5, "trialdata": {"rt": 26462, "trial_type": "survey-text", "responses": "{\"Q0\":\"1:00 AM\",\"Q1\":\"9:30 AM\",\"Q2\":\"4\"}", "internal_node_id": "0.0-5.0", "time_elapsed": 173353, "type": "SLEEP_SURVEY", "trial_index": 5}, "uniqueid": "MTK1703:3A9AA95ATXT6ZSBXNPK6SRH4UGB5P6", "dateTime": 1516130379151}, {"current_trial": 6, "trialdata": {"rt": 83836, "trial_type": "text", "internal_node_id": "0.0-6.0", "time_elapsed": 258209, "key_press": 32, "type": "INSTRUCTIONS", "trial_index": 6}, "uniqueid": "MTK1703:3A9AA95ATXT6ZSBXNPK6SRH4UGB5P6", "dateTime": 1516130464007}, {"current_trial": 7, "trialdata": {"rt": 13198, "trial_type": "text", "internal_node_id": "0.0-7.0", "time_elapsed": 271921, "key_press": 32, "type": "INSTRUCTIONS", "trial_index": 7}, "uniqueid": "MTK1703:3A9AA95ATXT6ZSBXNPK6SRH4UGB5P6", "dateTime": 1516130477718}, {"current_trial": 8, "trialdata": {"rt": 8032, "trial_type": "text", "internal_node_id": "0.0-8.0", "time_elapsed": 280458, "key_press": 32, "type": "INSTRUCTIONS", "trial_index": 8}, "uniqueid": "MTK1703:3A9AA95ATXT6ZSBXNPK6SRH4UGB5P6", "dateTime": 1516130486255}, {"current_trial": 9, "trialdata": {"rt": [2311, 3998, 7441, 10302, 12527, 14095, 16118], "trial_type": "math-distractor", "key_times": [1567, 1935, 2311, 3590, 3774, 3998, 6262, 7079, 7441, 9095, 9175, 9783, 10127, 10302, 12094, 12255, 12527, 13744, 13855, 14095, 15743, 15839, 16118], "responses": ["14", "14", "22", "17", "11", "12", "21"], "num2": [6, 2, 6, 4, 3, 7, 7, 3], "num3": [2, 4, 8, 8, 5, 2, 9, 7], "conditions": [18, 1200, "v", 18000], "internal_node_id": "0.0-9.0", "key_presses": [49, 52, 13, 49, 52, 13, 50, 50, 13, 49, 56, 8, 55, 13, 49, 49, 13, 49, 50, 13, 50, 49, 13], "trial": 0, "time_elapsed": 299490, "type": "DISTRACTOR", "trial_index": 9, "num1": [6, 8, 8, 5, 3, 3, 5, 8]}, "uniqueid": "MTK1703:3A9AA95ATXT6ZSBXNPK6SRH4UGB5P6", "dateTime": 1516130505287}, {"current_trial": 10, "trialdata": {"rt": -1, "trial_type": "single-stim", "stimulus": "<p id=\"stim\">10</p>", "internal_node_id": "0.0-10.0-0.0", "time_elapsed": 302521, "key_press": -1, "trial_index": 10}, "uniqueid": "MTK1703:3A9AA95ATXT6ZSBXNPK6SRH4UGB5P6", "dateTime": 1516130508320}, {"current_trial": 11, "trialdata": {"rt": -1, "trial_type": "single-stim", "stimulus": "<p id=\"stim\">9</p>", "internal_node_id": "0.0-10.0-1.0", "time_elapsed": 303535, "key_press": -1, "trial_index": 11}, "uniqueid": "MTK1703:3A9AA95ATXT6ZSBXNPK6SRH4UGB5P6", "dateTime": 1516130509333}, {"current_trial": 12, "trialdata": {"rt": -1, "trial_type": "single-stim", "stimulus": "<p id=\"stim\">8</p>", "internal_node_id": "0.0-10.0-2.0", "time_elapsed": 304551, "key_press": -1, "trial_index": 12}, "uniqueid": "MTK1703:3A9AA95ATXT6ZSBXNPK6SRH4UGB5P6", "dateTime": 1516130510348}, {"current_trial": 13, "trialdata": {"rt": -1, "trial_type": "single-stim", "stimulus": "<p id=\"stim\">7</p>", "internal_node_id": "0.0-10.0-3.0", "time_elapsed": 305567, "key_press": -1, "trial_index": 13}, "uniqueid": "MTK1703:3A9AA95ATXT6ZSBXNPK6SRH4UGB5P6", "dateTime": 1516130511364}, {"current_trial": 14, "trialdata": {"rt": -1, "trial_type": "single-stim", "stimulus": "<p id=\"stim\">6</p>", "internal_node_id": "0.0-10.0-4.0", "time_elapsed": 306582, "key_press": -1, "trial_index": 14}, "uniqueid": "MTK1703:3A9AA95ATXT6ZSBXNPK6SRH4UGB5P6", "dateTime": 1516130512380}, {"current_trial": 15, "trialdata": {"rt": -1, "trial_type": "single-stim", "stimulus": "<p id=\"stim\">5</p>", "internal_node_id": "0.0-10.0-5.0", "time_elapsed": 307598, "key_press": -1, "trial_index": 15}, "uniqueid": "MTK1703:3A9AA95ATXT6ZSBXNPK6SRH4UGB5P6", "dateTime": 1516130513395}, {"current_trial": 16, "trialdata": {"rt": -1, "trial_type": "single-stim", "stimulus": "<p id=\"stim\">4</p>", "internal_node_id": "0.0-10.0-6.0", "time_elapsed": 308613, "key_press": -1, "trial_index": 16}, "uniqueid": "MTK1703:3A9AA95ATXT6ZSBXNPK6SRH4UGB5P6", "dateTime": 1516130514411}, {"current_trial": 17, "trialdata": {"rt": -1, "trial_type": "single-stim", "stimulus": "<p id=\"stim\">3</p>", "internal_node_id": "0.0-10.0-7.0", "time_elapsed": 309629, "key_press": -1, "trial_index": 17}, "uniqueid": "MTK1703:3A9AA95ATXT6ZSBXNPK6SRH4UGB5P6", "dateTime": 1516130515426}, {"current_trial": 18, "trialdata": {"rt": -1, "trial_type": "single-stim", "stimulus": "<p id=\"stim\">2</p>", "internal_node_id": "0.0-10.0-8.0", "time_elapsed": 310645, "key_press": -1, "trial_index": 18}, "uniqueid": "MTK1703:3A9AA95ATXT6ZSBXNPK6SRH4UGB5P6", "dateTime": 1516130516442}, {"current_trial": 19, "trialdata": {"rt": -1, "trial_type": "single-stim", "stimulus": "<p id=\"stim\">1</p>", "internal_node_id": "0.0-10.0-9.0", "time_elapsed": 311661, "key_press": -1, "trial_index": 19}, "uniqueid": "MTK1703:3A9AA95ATXT6ZSBXNPK6SRH4UGB5P6", "dateTime": 1516130517458}, {"current_trial": 20, "trialdata": {"rt": -1, "trial_type": "single-stim", "stimulus": "<p id=\"stim\">+</p>", "internal_node_id": "0.0-11.0-0.0", "time_elapsed": 313177, "key_press": -1, "type": "FIXATION", "trial_index": 20}, "uniqueid": "MTK1703:3A9AA95ATXT6ZSBXNPK6SRH4UGB5P6", "dateTime": 1516130518975}, {"current_trial": 21, "trialdata": {"rt": -1, "trial_type": "single-stim", "word": "cross", "stimulus": "<p id=\"stim\">CROSS</p>", "conditions": [18, 1200, "v", 18000], "internal_node_id": "0.0-12.0", "trial": 0, "time_elapsed": 314395, "serialpos": 0, "key_press": -1, "wordID": 412, "type": "PRES_VIS", "trial_index": 21}, "uniqueid": "MTK1703:3A9AA95ATXT6ZSBXNPK6SRH4UGB5P6", "dateTime": 1516130520193}, {"current_trial": 22, "trialdata": {"rt": -1, "trial_type": "single-stim", "word": "witness", "stimulus": "<p id=\"stim\">WITNESS</p>", "conditions": [18, 1200, "v", 18000], "internal_node_id": "0.0-13.0", "trial": 0, "time_elapsed": 316738, "serialpos": 1, "key_press": -1, "wordID": 1617, "type": "PRES_VIS", "trial_index": 22}, "uniqueid": "MTK1703:3A9AA95ATXT6ZSBXNPK6SRH4UGB5P6", "dateTime": 1516130522535}, {"current_trial": 23, "trialdata": {"rt": -1, "trial_type": "single-stim", "word": "waitress", "stimulus": "<p id=\"stim\">WAITRESS</p>", "conditions": [18, 1200, "v", 18000], "internal_node_id": "0.0-14.0", "trial": 0, "time_elapsed": 318879, "serialpos": 2, "key_press": -1, "wordID": 1580, "type": "PRES_VIS", "trial_index": 23}, "uniqueid": "MTK1703:3A9AA95ATXT6ZSBXNPK6SRH4UGB5P6", "dateTime": 1516130524676}, {"current_trial": 24, "trialdata": {"rt": -1, "trial_type": "single-stim", "word": "marker", "stimulus": "<p id=\"stim\">MARKER</p>", "conditions": [18, 1200, "v", 18000], "internal_node_id": "0.0-15.0", "trial": 0, "time_elapsed": 321207, "serialpos": 3, "key_press": -1, "wordID": 869, "type": "PRES_VIS", "trial_index": 24}, "uniqueid": "MTK1703:3A9AA95ATXT6ZSBXNPK6SRH4UGB5P6", "dateTime": 1516130527004}, {"current_trial": 25, "trialdata": {"rt": -1, "trial_type": "single-stim", "word": "atom", "stimulus": "<p id=\"stim\">ATOM</p>", "conditions": [18, 1200, "v", 18000], "internal_node_id": "0.0-16.0", "trial": 0, "time_elapsed": 323473, "serialpos": 4, "key_press": -1, "wordID": 54, "type": "PRES_VIS", "trial_index": 25}, "uniqueid": "MTK1703:3A9AA95ATXT6ZSBXNPK6SRH4UGB5P6", "dateTime": 1516130529270}, {"current_trial": 26, "trialdata": {"rt": -1, "trial_type": "single-stim", "word": "forehead", "stimulus": "<p id=\"stim\">FOREHEAD</p>", "conditions": [18, 1200, "v", 18000], "internal_node_id": "0.0-17.0", "trial": 0, "time_elapsed": 325786, "serialpos": 5, "key_press": -1, "wordID": 591, "type": "PRES_VIS", "trial_index": 26}, "uniqueid": "MTK1703:3A9AA95ATXT6ZSBXNPK6SRH4UGB5P6", "dateTime": 1516130531583}, {"current_trial": 27, "trialdata": {"rt": -1, "trial_type": "single-stim", "word": "princess", "stimulus": "<p id=\"stim\">PRINCESS</p>", "conditions": [18, 1200, "v", 18000], "internal_node_id": "0.0-18.0", "trial": 0, "time_elapsed": 328176, "serialpos": 6, "key_press": -1, "wordID": 1124, "type": "PRES_VIS", "trial_index": 27}, "uniqueid": "MTK1703:3A9AA95ATXT6ZSBXNPK6SRH4UGB5P6", "dateTime": 1516130533973}, {"current_trial": 28, "trialdata": {"rt": -1, "trial_type": "single-stim", "word": "helmet", "stimulus": "<p id=\"stim\">HELMET</p>", "conditions": [18, 1200, "v", 18000], "internal_node_id": "0.0-19.0", "trial": 0, "time_elapsed": 330301, "serialpos": 7, "key_press": -1, "wordID": 701, "type": "PRES_VIS", "trial_index": 28}, "uniqueid": "MTK1703:3A9AA95ATXT6ZSBXNPK6SRH4UGB5P6", "dateTime": 1516130536099}, {"current_trial": 29, "trialdata": {"rt": -1, "trial_type": "single-stim", "word": "termite", "stimulus": "<p id=\"stim\">TERMITE</p>", "conditions": [18, 1200, "v", 18000], "internal_node_id": "0.0-20.0", "trial": 0, "time_elapsed": 332569, "serialpos": 8, "key_press": -1, "wordID": 1450, "type": "PRES_VIS", "trial_index": 29}, "uniqueid": "MTK1703:3A9AA95ATXT6ZSBXNPK6SRH4UGB5P6", "dateTime": 1516130538366}, {"current_trial": 30, "trialdata": {"rt": -1, "trial_type": "single-stim", "word": "woman", "stimulus": "<p id=\"stim\">WOMAN</p>", "conditions": [18, 1200, "v", 18000], "internal_node_id": "0.0-21.0", "trial": 0, "time_elapsed": 334676, "serialpos": 9, "key_press": -1, "wordID": 1619, "type": "PRES_VIS", "trial_index": 30}, "uniqueid": "MTK1703:3A9AA95ATXT6ZSBXNPK6SRH4UGB5P6", "dateTime": 1516130540474}, {"current_trial": 31, "trialdata": {"rt": -1, "trial_type": "single-stim", "word": "quarter", "stimulus": "<p id=\"stim\">QUARTER</p>", "conditions": [18, 1200, "v", 18000], "internal_node_id": "0.0-22.0", "trial": 0, "time_elapsed": 336942, "serialpos": 10, "key_press": -1, "wordID": 1147, "type": "PRES_VIS", "trial_index": 31}, "uniqueid": "MTK1703:3A9AA95ATXT6ZSBXNPK6SRH4UGB5P6", "dateTime": 1516130542739}, {"current_trial": 32, "trialdata": {"rt": -1, "trial_type": "single-stim", "word": "europe", "stimulus": "<p id=\"stim\">EUROPE</p>", "conditions": [18, 1200, "v", 18000], "internal_node_id": "0.0-23.0", "trial": 0, "time_elapsed": 339285, "serialpos": 11, "key_press": -1, "wordID": 540, "type": "PRES_VIS", "trial_index": 32}, "uniqueid": "MTK1703:3A9AA95ATXT6ZSBXNPK6SRH4UGB5P6", "dateTime": 1516130545083}, {"current_trial": 33, "trialdata": {"rt": -1, "trial_type": "single-stim", "word": "camel", "stimulus": "<p id=\"stim\">CAMEL</p>", "conditions": [18, 1200, "v", 18000], "internal_node_id": "0.0-24.0", "trial": 0, "time_elapsed": 341317, "serialpos": 12, "key_press": -1, "wordID": 222, "type": "PRES_VIS", "trial_index": 33}, "uniqueid": "MTK1703:3A9AA95ATXT6ZSBXNPK6SRH4UGB5P6", "dateTime": 1516130547114}, {"current_trial": 34, "trialdata": {"rt": -1, "trial_type": "single-stim", "word": "tourist", "stimulus": "<p id=\"stim\">TOURIST</p>", "conditions": [18, 1200, "v", 18000], "internal_node_id": "0.0-25.0", "trial": 0, "time_elapsed": 343430, "serialpos": 13, "key_press": -1, "wordID": 1487, "type": "PRES_VIS", "trial_index": 34}, "uniqueid": "MTK1703:3A9AA95ATXT6ZSBXNPK6SRH4UGB5P6", "dateTime": 1516130549228}, {"current_trial": 35, "trialdata": {"rt": -1, "trial_type": "single-stim", "word": "friend", "stimulus": "<p id=\"stim\">FRIEND</p>", "conditions": [18, 1200, "v", 18000], "internal_node_id": "0.0-26.0", "trial": 0, "time_elapsed": 345568, "serialpos": 14, "key_press": -1, "wordID": 605, "type": "PRES_VIS", "trial_index": 35}, "uniqueid": "MTK1703:3A9AA95ATXT6ZSBXNPK6SRH4UGB5P6", "dateTime": 1516130551365}, {"current_trial": 36, "trialdata": {"rt": -1, "trial_type": "single-stim", "word": "human", "stimulus": "<p id=\"stim\">HUMAN</p>", "conditions": [18, 1200, "v", 18000], "internal_node_id": "0.0-27.0", "trial": 0, "time_elapsed": 347833, "serialpos": 15, "key_press": -1, "wordID": 725, "type": "PRES_VIS", "trial_index": 36}, "uniqueid": "MTK1703:3A9AA95ATXT6ZSBXNPK6SRH4UGB5P6", "dateTime": 1516130553630}, {"current_trial": 37, "trialdata": {"rt": -1, "trial_type": "single-stim", "word": "lizard", "stimulus": "<p id=\"stim\">LIZARD</p>", "conditions": [18, 1200, "v", 18000], "internal_node_id": "0.0-28.0", "trial": 0, "time_elapsed": 349973, "serialpos": 16, "key_press": -1, "wordID": 833, "type": "PRES_VIS", "trial_index": 37}, "uniqueid": "MTK1703:3A9AA95ATXT6ZSBXNPK6SRH4UGB5P6", "dateTime": 1516130555770}, {"current_trial": 38, "trialdata": {"rt": -1, "trial_type": "single-stim", "word": "donkey", "stimulus": "<p id=\"stim\">DONKEY</p>", "conditions": [18, 1200, "v", 18000], "internal_node_id": "0.0-29.0", "trial": 0, "time_elapsed": 352114, "serialpos": 17, "key_press": -1, "wordID": 483, "type": "PRES_VIS", "trial_index": 38}, "uniqueid": "MTK1703:3A9AA95ATXT6ZSBXNPK6SRH4UGB5P6", "dateTime": 1516130557911}, {"current_trial": 39, "trialdata": {"rt": -1, "trial_type": "single-stim", "stimulus": "", "internal_node_id": "0.0-30.0-0.0", "time_elapsed": 354270, "key_press": -1, "type": "PRE_RECALL_DELAY", "trial_index": 39}, "uniqueid": "MTK1703:3A9AA95ATXT6ZSBXNPK6SRH4UGB5P6", "dateTime": 1516130560068}, {"current_trial": 40, "trialdata": {"rt": -1000, "trial_type": "single-audio", "stimulus": "/static/audio/400Hz.wav", "internal_node_id": "0.0-31.0", "time_elapsed": 354786, "key_press": -1, "type": "PRE_RECALL_ALERT", "trial_index": 40}, "uniqueid": "MTK1703:3A9AA95ATXT6ZSBXNPK6SRH4UGB5P6", "dateTime": 1516130560584}, {"current_trial": 41, "trialdata": {"rt": [2981, 4670, 5981, 7093, 10102, 18797, 30155, 31099], "recwords": ["cross", "crystal", "termite", "donkey", "human", "", "", ""], "key_times": [2038, 2245, 2389, 2613, 2758, 2981, 3437, 3630, 3839, 3949, 4126, 4285, 4414, 4670, 4989, 5118, 5213, 5325, 5501, 5565, 5677, 5981, 6222, 6277, 6389, 6549, 6624, 6773, 7093, 9253, 9446, 9622, 9765, 9861, 10102, 18797, 26515, 26819, 27043, 27171, 27284, 27524, 27907, 28413, 28445, 28476, 28507, 28538, 28569, 28600, 28632, 28663, 28710, 30155, 31099, 31627], "trial_type": "free-recall", "conditions": [18, 1200, "v", 18000], "internal_node_id": "0.0-32.0-0.0", "key_presses": [67, 82, 79, 83, 83, 13, 67, 82, 89, 83, 84, 65, 76, 13, 84, 69, 82, 77, 73, 84, 69, 13, 68, 79, 78, 75, 69, 89, 13, 72, 85, 77, 65, 78, 13, 13, 77, 79, 78, 75, 69, 89, 8, 8, 8, 8, 8, 8, 8, 8, 8, 8, 8, 32, 32, 8], "trial": 0, "time_elapsed": 414803, "type": "FREE_RECALL", "trial_index": 41}, "uniqueid": "MTK1703:3A9AA95ATXT6ZSBXNPK6SRH4UGB5P6", "dateTime": 1516130620606}, {"current_trial": 42, "trialdata": {"rt": 8583, "trial_type": "text", "internal_node_id": "0.0-33.0", "time_elapsed": 425400, "key_press": 13, "type": "INSTRUCTIONS", "trial_index": 42}, "uniqueid": "MTK1703:3A9AA95ATXT6ZSBXNPK6SRH4UGB5P6", "dateTime": 1516130631198}, {"current_trial": 43, "trialdata": {"rt": [3855, 5953, 7695, 10856, 13487, 16127], "trial_type": "math-distractor", "key_times": [3151, 3296, 3855, 5096, 5583, 5953, 7376, 7441, 7695, 10463, 10511, 10856, 12351, 13143, 13487, 15535, 15648, 16127], "responses": ["13", "18", "21", "10", "15", "21"], "num2": [1, 8, 5, 5, 6, 4, 3], "num3": [4, 8, 8, 1, 8, 8, 6], "conditions": [18, 1200, "v", 18000], "internal_node_id": "0.0-34.0", "key_presses": [49, 51, 13, 49, 56, 13, 50, 49, 13, 49, 48, 13, 49, 53, 13, 50, 49, 13], "trial": 1, "time_elapsed": 445428, "type": "DISTRACTOR", "trial_index": 43, "num1": [8, 2, 8, 4, 1, 9, 1]}, "uniqueid": "MTK1703:3A9AA95ATXT6ZSBXNPK6SRH4UGB5P6", "dateTime": 1516130651225}, {"current_trial": 44, "trialdata": {"rt": -1, "trial_type": "single-stim", "stimulus": "<p id=\"stim\">10</p>", "internal_node_id": "0.0-35.0-0.0", "time_elapsed": 448459, "key_press": -1, "trial_index": 44}, "uniqueid": "MTK1703:3A9AA95ATXT6ZSBXNPK6SRH4UGB5P6", "dateTime": 1516130654256}, {"current_trial": 45, "trialdata": {"rt": -1, "trial_type": "single-stim", "stimulus": "<p id=\"stim\">9</p>", "internal_node_id": "0.0-35.0-1.0", "time_elapsed": 449475, "key_press": -1, "trial_index": 45}, "uniqueid": "MTK1703:3A9AA95ATXT6ZSBXNPK6SRH4UGB5P6", "dateTime": 1516130655272}, {"current_trial": 46, "trialdata": {"rt": -1, "trial_type": "single-stim", "stimulus": "<p id=\"stim\">8</p>", "internal_node_id": "0.0-35.0-2.0", "time_elapsed": 450490, "key_press": -1, "trial_index": 46}, "uniqueid": "MTK1703:3A9AA95ATXT6ZSBXNPK6SRH4UGB5P6", "dateTime": 1516130656287}, {"current_trial": 47, "trialdata": {"rt": -1, "trial_type": "single-stim", "stimulus": "<p id=\"stim\">7</p>", "internal_node_id": "0.0-35.0-3.0", "time_elapsed": 451505, "key_press": -1, "trial_index": 47}, "uniqueid": "MTK1703:3A9AA95ATXT6ZSBXNPK6SRH4UGB5P6", "dateTime": 1516130657302}, {"current_trial": 48, "trialdata": {"rt": -1, "trial_type": "single-stim", "stimulus": "<p id=\"stim\">6</p>", "internal_node_id": "0.0-35.0-4.0", "time_elapsed": 452521, "key_press": -1, "trial_index": 48}, "uniqueid": "MTK1703:3A9AA95ATXT6ZSBXNPK6SRH4UGB5P6", "dateTime": 1516130658318}, {"current_trial": 49, "trialdata": {"rt": -1, "trial_type": "single-stim", "stimulus": "<p id=\"stim\">5</p>", "internal_node_id": "0.0-35.0-5.0", "time_elapsed": 453537, "key_press": -1, "trial_index": 49}, "uniqueid": "MTK1703:3A9AA95ATXT6ZSBXNPK6SRH4UGB5P6", "dateTime": 1516130659334}, {"current_trial": 50, "trialdata": {"rt": -1, "trial_type": "single-stim", "stimulus": "<p id=\"stim\">4</p>", "internal_node_id": "0.0-35.0-6.0", "time_elapsed": 454552, "key_press": -1, "trial_index": 50}, "uniqueid": "MTK1703:3A9AA95ATXT6ZSBXNPK6SRH4UGB5P6", "dateTime": 1516130660350}, {"current_trial": 51, "trialdata": {"rt": -1, "trial_type": "single-stim", "stimulus": "<p id=\"stim\">3</p>", "internal_node_id": "0.0-35.0-7.0", "time_elapsed": 455568, "key_press": -1, "trial_index": 51}, "uniqueid": "MTK1703:3A9AA95ATXT6ZSBXNPK6SRH4UGB5P6", "dateTime": 1516130661365}, {"current_trial": 52, "trialdata": {"rt": -1, "trial_type": "single-stim", "stimulus": "<p id=\"stim\">2</p>", "internal_node_id": "0.0-35.0-8.0", "time_elapsed": 456584, "key_press": -1, "trial_index": 52}, "uniqueid": "MTK1703:3A9AA95ATXT6ZSBXNPK6SRH4UGB5P6", "dateTime": 1516130662381}, {"current_trial": 53, "trialdata": {"rt": -1, "trial_type": "single-stim", "stimulus": "<p id=\"stim\">1</p>", "internal_node_id": "0.0-35.0-9.0", "time_elapsed": 457600, "key_press": -1, "trial_index": 53}, "uniqueid": "MTK1703:3A9AA95ATXT6ZSBXNPK6SRH4UGB5P6", "dateTime": 1516130663397}, {"current_trial": 54, "trialdata": {"rt": -1, "trial_type": "single-stim", "stimulus": "<p id=\"stim\">+</p>", "internal_node_id": "0.0-36.0-0.0", "time_elapsed": 459115, "key_press": -1, "type": "FIXATION", "trial_index": 54}, "uniqueid": "MTK1703:3A9AA95ATXT6ZSBXNPK6SRH4UGB5P6", "dateTime": 1516130664912}, {"current_trial": 55, "trialdata": {"rt": -1, "trial_type": "single-stim", "word": "tutu", "stimulus": "<p id=\"stim\">TUTU</p>", "conditions": [18, 1200, "v", 18000], "internal_node_id": "0.0-37.0", "trial": 1, "time_elapsed": 460318, "serialpos": 0, "key_press": -1, "wordID": 1523, "type": "PRES_VIS", "trial_index": 55}, "uniqueid": "MTK1703:3A9AA95ATXT6ZSBXNPK6SRH4UGB5P6", "dateTime": 1516130666115}, {"current_trial": 56, "trialdata": {"rt": -1, "trial_type": "single-stim", "word": "hornet", "stimulus": "<p id=\"stim\">HORNET</p>", "conditions": [18, 1200, "v", 18000], "internal_node_id": "0.0-38.0", "trial": 1, "time_elapsed": 462506, "serialpos": 1, "key_press": -1, "wordID": 717, "type": "PRES_VIS", "trial_index": 56}, "uniqueid": "MTK1703:3A9AA95ATXT6ZSBXNPK6SRH4UGB5P6", "dateTime": 1516130668303}, {"current_trial": 57, "trialdata": {"rt": -1, "trial_type": "single-stim", "word": "poison", "stimulus": "<p id=\"stim\">POISON</p>", "conditions": [18, 1200, "v", 18000], "internal_node_id": "0.0-39.0", "trial": 1, "time_elapsed": 464677, "serialpos": 2, "key_press": -1, "wordID": 1095, "type": "PRES_VIS", "trial_index": 57}, "uniqueid": "MTK1703:3A9AA95ATXT6ZSBXNPK6SRH4UGB5P6", "dateTime": 1516130670475}, {"current_trial": 58, "trialdata": {"rt": -1, "trial_type": "single-stim", "word": "river", "stimulus": "<p id=\"stim\">RIVER</p>", "conditions": [18, 1200, "v", 18000], "internal_node_id": "0.0-40.0", "trial": 1, "time_elapsed": 467021, "serialpos": 3, "key_press": -1, "wordID": 1193, "type": "PRES_VIS", "trial_index": 58}, "uniqueid": "MTK1703:3A9AA95ATXT6ZSBXNPK6SRH4UGB5P6", "dateTime": 1516130672819}, {"current_trial": 59, "trialdata": {"rt": -1, "trial_type": "single-stim", "word": "paper", "stimulus": "<p id=\"stim\">PAPER</p>", "conditions": [18, 1200, "v", 18000], "internal_node_id": "0.0-41.0", "trial": 1, "time_elapsed": 469287, "serialpos": 4, "key_press": -1, "wordID": 1010, "type": "PRES_VIS", "trial_index": 59}, "uniqueid": "MTK1703:3A9AA95ATXT6ZSBXNPK6SRH4UGB5P6", "dateTime": 1516130675084}, {"current_trial": 60, "trialdata": {"rt": -1, "trial_type": "single-stim", "word": "canal", "stimulus": "<p id=\"stim\">CANAL</p>", "conditions": [18, 1200, "v", 18000], "internal_node_id": "0.0-42.0", "trial": 1, "time_elapsed": 471412, "serialpos": 5, "key_press": -1, "wordID": 225, "type": "PRES_VIS", "trial_index": 60}, "uniqueid": "MTK1703:3A9AA95ATXT6ZSBXNPK6SRH4UGB5P6", "dateTime": 1516130677209}, {"current_trial": 61, "trialdata": {"rt": -1, "trial_type": "single-stim", "word": "space", "stimulus": "<p id=\"stim\">SPACE</p>", "conditions": [18, 1200, "v", 18000], "internal_node_id": "0.0-43.0", "trial": 1, "time_elapsed": 473475, "serialpos": 6, "key_press": -1, "wordID": 1344, "type": "PRES_VIS", "trial_index": 61}, "uniqueid": "MTK1703:3A9AA95ATXT6ZSBXNPK6SRH4UGB5P6", "dateTime": 1516130679272}, {"current_trial": 62, "trialdata": {"rt": -1, "trial_type": "single-stim", "word": "carriage", "stimulus": "<p id=\"stim\">CARRIAGE</p>", "conditions": [18, 1200, "v", 18000], "internal_node_id": "0.0-44.0", "trial": 1, "time_elapsed": 475740, "serialpos": 7, "key_press": -1, "wordID": 247, "type": "PRES_VIS", "trial_index": 62}, "uniqueid": "MTK1703:3A9AA95ATXT6ZSBXNPK6SRH4UGB5P6", "dateTime": 1516130681537}, {"current_trial": 63, "trialdata": {"rt": -1, "trial_type": "single-stim", "word": "binder", "stimulus": "<p id=\"stim\">BINDER</p>", "conditions": [18, 1200, "v", 18000], "internal_node_id": "0.0-45.0", "trial": 1, "time_elapsed": 477881, "serialpos": 8, "key_press": -1, "wordID": 126, "type": "PRES_VIS", "trial_index": 63}, "uniqueid": "MTK1703:3A9AA95ATXT6ZSBXNPK6SRH4UGB5P6", "dateTime": 1516130683678}, {"current_trial": 64, "trialdata": {"rt": -1, "trial_type": "single-stim", "word": "subway", "stimulus": "<p id=\"stim\">SUBWAY</p>", "conditions": [18, 1200, "v", 18000], "internal_node_id": "0.0-46.0", "trial": 1, "time_elapsed": 480272, "serialpos": 9, "key_press": -1, "wordID": 1399, "type": "PRES_VIS", "trial_index": 64}, "uniqueid": "MTK1703:3A9AA95ATXT6ZSBXNPK6SRH4UGB5P6", "dateTime": 1516130686069}, {"current_trial": 65, "trialdata": {"rt": -1, "trial_type": "single-stim", "word": "dragon", "stimulus": "<p id=\"stim\">DRAGON</p>", "conditions": [18, 1200, "v", 18000], "internal_node_id": "0.0-47.0", "trial": 1, "time_elapsed": 482287, "serialpos": 10, "key_press": -1, "wordID": 491, "type": "PRES_VIS", "trial_index": 65}, "uniqueid": "MTK1703:3A9AA95ATXT6ZSBXNPK6SRH4UGB5P6", "dateTime": 1516130688085}, {"current_trial": 66, "trialdata": {"rt": -1, "trial_type": "single-stim", "word": "mop", "stimulus": "<p id=\"stim\">MOP</p>", "conditions": [18, 1200, "v", 18000], "internal_node_id": "0.0-48.0", "trial": 1, "time_elapsed": 484555, "serialpos": 11, "key_press": -1, "wordID": 915, "type": "PRES_VIS", "trial_index": 66}, "uniqueid": "MTK1703:3A9AA95ATXT6ZSBXNPK6SRH4UGB5P6", "dateTime": 1516130690352}, {"current_trial": 67, "trialdata": {"rt": -1, "trial_type": "single-stim", "word": "flask", "stimulus": "<p id=\"stim\">FLASK</p>", "conditions": [18, 1200, "v", 18000], "internal_node_id": "0.0-49.0", "trial": 1, "time_elapsed": 486740, "serialpos": 12, "key_press": -1, "wordID": 575, "type": "PRES_VIS", "trial_index": 67}, "uniqueid": "MTK1703:3A9AA95ATXT6ZSBXNPK6SRH4UGB5P6", "dateTime": 1516130692538}, {"current_trial": 68, "trialdata": {"rt": -1, "trial_type": "single-stim", "word": "actress", "stimulus": "<p id=\"stim\">ACTRESS</p>", "conditions": [18, 1200, "v", 18000], "internal_node_id": "0.0-50.0", "trial": 1, "time_elapsed": 488756, "serialpos": 13, "key_press": -1, "wordID": 5, "type": "PRES_VIS", "trial_index": 68}, "uniqueid": "MTK1703:3A9AA95ATXT6ZSBXNPK6SRH4UGB5P6", "dateTime": 1516130694553}, {"current_trial": 69, "trialdata": {"rt": -1, "trial_type": "single-stim", "word": "belly", "stimulus": "<p id=\"stim\">BELLY</p>", "conditions": [18, 1200, "v", 18000], "internal_node_id": "0.0-51.0", "trial": 1, "time_elapsed": 491006, "serialpos": 14, "key_press": -1, "wordID": 118, "type": "PRES_VIS", "trial_index": 69}, "uniqueid": "MTK1703:3A9AA95ATXT6ZSBXNPK6SRH4UGB5P6", "dateTime": 1516130696803}, {"current_trial": 70, "trialdata": {"rt": -1, "trial_type": "single-stim", "word": "mask", "stimulus": "<p id=\"stim\">MASK</p>", "conditions": [18, 1200, "v", 18000], "internal_node_id": "0.0-52.0", "trial": 1, "time_elapsed": 493115, "serialpos": 15, "key_press": -1, "wordID": 875, "type": "PRES_VIS", "trial_index": 70}, "uniqueid": "MTK1703:3A9AA95ATXT6ZSBXNPK6SRH4UGB5P6", "dateTime": 1516130698913}, {"current_trial": 71, "trialdata": {"rt": -1, "trial_type": "single-stim", "word": "atlas", "stimulus": "<p id=\"stim\">ATLAS</p>", "conditions": [18, 1200, "v", 18000], "internal_node_id": "0.0-53.0", "trial": 1, "time_elapsed": 495428, "serialpos": 16, "key_press": -1, "wordID": 52, "type": "PRES_VIS", "trial_index": 71}, "uniqueid": "MTK1703:3A9AA95ATXT6ZSBXNPK6SRH4UGB5P6", "dateTime": 1516130701226}, {"current_trial": 72, "trialdata": {"rt": -1, "trial_type": "single-stim", "word": "partner", "stimulus": "<p id=\"stim\">PARTNER</p>", "conditions": [18, 1200, "v", 18000], "internal_node_id": "0.0-54.0", "trial": 1, "time_elapsed": 497710, "serialpos": 17, "key_press": -1, "wordID": 1016, "type": "PRES_VIS", "trial_index": 72}, "uniqueid": "MTK1703:3A9AA95ATXT6ZSBXNPK6SRH4UGB5P6", "dateTime": 1516130703508}, {"current_trial": 73, "trialdata": {"rt": -1, "trial_type": "single-stim", "stimulus": "", "internal_node_id": "0.0-55.0-0.0", "time_elapsed": 499881, "key_press": -1, "type": "PRE_RECALL_DELAY", "trial_index": 73}, "uniqueid": "MTK1703:3A9AA95ATXT6ZSBXNPK6SRH4UGB5P6", "dateTime": 1516130705678}, {"current_trial": 74, "trialdata": {"rt": -1000, "trial_type": "single-audio", "stimulus": "/static/audio/400Hz.wav", "internal_node_id": "0.0-56.0", "time_elapsed": 500397, "key_press": -1, "type": "PRE_RECALL_ALERT", "trial_index": 74}, "uniqueid": "MTK1703:3A9AA95ATXT6ZSBXNPK6SRH4UGB5P6", "dateTime": 1516130706194}, {"current_trial": 75, "trialdata": {"rt": [3014, 4044, 6532, 8222, 13156, 17612, 22564], "recwords": ["tutu", "belly", "partner", "actress", "dragon", "carriage", "partner"], "key_times": [2148, 2373, 2508, 2604, 3014, 3340, 3500, 3628, 3773, 3820, 4044, 4380, 4702, 4860, 5204, 5268, 5444, 5620, 5668, 6308, 6388, 6532, 6756, 6980, 7484, 7676, 7788, 7980, 8109, 8222, 12060, 12268, 12460, 12604, 12732, 12780, 13156, 16108, 16300, 16445, 16604, 16988, 17116, 17260, 17372, 17612, 21573, 21732, 21908, 22084, 22276, 22356, 22404, 22564], "trial_type": "free-recall", "conditions": [18, 1200, "v", 18000], "internal_node_id": "0.0-57.0-0.0", "key_presses": [84, 85, 84, 85, 13, 66, 69, 76, 76, 89, 13, 65, 8, 8, 80, 65, 82, 84, 78, 69, 82, 13, 65, 67, 84, 82, 69, 83, 83, 13, 68, 82, 65, 71, 79, 78, 13, 67, 65, 82, 82, 73, 65, 71, 69, 13, 80, 65, 82, 84, 78, 69, 82, 13], "trial": 1, "time_elapsed": 560414, "type": "FREE_RECALL", "trial_index": 75}, "uniqueid": "MTK1703:3A9AA95ATXT6ZSBXNPK6SRH4UGB5P6", "dateTime": 1516130766222}, {"current_trial": 76, "trialdata": {"rt": 33771, "trial_type": "text", "internal_node_id": "0.0-58.0", "time_elapsed": 596200, "key_press": 32, "type": "INSTRUCTIONS", "trial_index": 76}, "uniqueid": "MTK1703:3A9AA95ATXT6ZSBXNPK6SRH4UGB5P6", "dateTime": 1516130801998}, {"current_trial": 77, "trialdata": {"rt": [2176, 4456, 6424, 8497, 10544, 12304, 13968, 15751, 17721, 20417, 21784, 23983], "trial_type": "math-distractor", "key_times": [1664, 1824, 2176, 3944, 4216, 4456, 5832, 6168, 6424, 8028, 8104, 8497, 10017, 10304, 10544, 11921, 12000, 12304, 13688, 13792, 13968, 15384, 15464, 15751, 17351, 17529, 17721, 19943, 20288, 20417, 21536, 21680, 21784, 23320, 23351, 23983], "responses": ["11", "16", "16", "19", "15", "20", "13", "19", "24", "14", "11", "17"], "num2": [3, 9, 3, 8, 5, 5, 4, 8, 9, 7, 3, 6, 8], "num3": [7, 1, 6, 2, 9, 9, 1, 4, 9, 6, 2, 3, 8], "conditions": [12, 800, "v", 24000], "internal_node_id": "0.0-59.0", "key_presses": [49, 49, 13, 49, 54, 13, 49, 54, 13, 49, 57, 13, 49, 53, 13, 50, 48, 13, 49, 51, 13, 49, 57, 13, 50, 52, 13, 49, 52, 13, 49, 49, 13, 49, 55, 13], "trial": 2, "time_elapsed": 621227, "type": "DISTRACTOR", "trial_index": 77, "num1": [1, 6, 7, 9, 1, 6, 8, 7, 5, 1, 3, 8, 6]}, "uniqueid": "MTK1703:3A9AA95ATXT6ZSBXNPK6SRH4UGB5P6", "dateTime": 1516130827024}, {"current_trial": 78, "trialdata": {"rt": -1, "trial_type": "single-stim", "stimulus": "<p id=\"stim\">10</p>", "internal_node_id": "0.0-60.0-0.0", "time_elapsed": 624257, "key_press": -1, "trial_index": 78}, "uniqueid": "MTK1703:3A9AA95ATXT6ZSBXNPK6SRH4UGB5P6", "dateTime": 1516130830055}, {"current_trial": 79, "trialdata": {"rt": -1, "trial_type": "single-stim", "stimulus": "<p id=\"stim\">9</p>", "internal_node_id": "0.0-60.0-1.0", "time_elapsed": 625273, "key_press": -1, "trial_index": 79}, "uniqueid": "MTK1703:3A9AA95ATXT6ZSBXNPK6SRH4UGB5P6", "dateTime": 1516130831070}, {"current_trial": 80, "trialdata": {"rt": -1, "trial_type": "single-stim", "stimulus": "<p id=\"stim\">8</p>", "internal_node_id": "0.0-60.0-2.0", "time_elapsed": 626289, "key_press": -1, "trial_index": 80}, "uniqueid": "MTK1703:3A9AA95ATXT6ZSBXNPK6SRH4UGB5P6", "dateTime": 1516130832086}, {"current_trial": 81, "trialdata": {"rt": -1, "trial_type": "single-stim", "stimulus": "<p id=\"stim\">7</p>", "internal_node_id": "0.0-60.0-3.0", "time_elapsed": 627304, "key_press": -1, "trial_index": 81}, "uniqueid": "MTK1703:3A9AA95ATXT6ZSBXNPK6SRH4UGB5P6", "dateTime": 1516130833101}, {"current_trial": 82, "trialdata": {"rt": -1, "trial_type": "single-stim", "stimulus": "<p id=\"stim\">6</p>", "internal_node_id": "0.0-60.0-4.0", "time_elapsed": 628320, "key_press": -1, "trial_index": 82}, "uniqueid": "MTK1703:3A9AA95ATXT6ZSBXNPK6SRH4UGB5P6", "dateTime": 1516130834118}, {"current_trial": 83, "trialdata": {"rt": -1, "trial_type": "single-stim", "stimulus": "<p id=\"stim\">5</p>", "internal_node_id": "0.0-60.0-5.0", "time_elapsed": 629336, "key_press": -1, "trial_index": 83}, "uniqueid": "MTK1703:3A9AA95ATXT6ZSBXNPK6SRH4UGB5P6", "dateTime": 1516130835133}, {"current_trial": 84, "trialdata": {"rt": -1, "trial_type": "single-stim", "stimulus": "<p id=\"stim\">4</p>", "internal_node_id": "0.0-60.0-6.0", "time_elapsed": 630351, "key_press": -1, "trial_index": 84}, "uniqueid": "MTK1703:3A9AA95ATXT6ZSBXNPK6SRH4UGB5P6", "dateTime": 1516130836149}, {"current_trial": 85, "trialdata": {"rt": -1, "trial_type": "single-stim", "stimulus": "<p id=\"stim\">3</p>", "internal_node_id": "0.0-60.0-7.0", "time_elapsed": 631367, "key_press": -1, "trial_index": 85}, "uniqueid": "MTK1703:3A9AA95ATXT6ZSBXNPK6SRH4UGB5P6", "dateTime": 1516130837164}, {"current_trial": 86, "trialdata": {"rt": -1, "trial_type": "single-stim", "stimulus": "<p id=\"stim\">2</p>", "internal_node_id": "0.0-60.0-8.0", "time_elapsed": 632382, "key_press": -1, "trial_index": 86}, "uniqueid": "MTK1703:3A9AA95ATXT6ZSBXNPK6SRH4UGB5P6", "dateTime": 1516130838180}, {"current_trial": 87, "trialdata": {"rt": -1, "trial_type": "single-stim", "stimulus": "<p id=\"stim\">1</p>", "internal_node_id": "0.0-60.0-9.0", "time_elapsed": 633398, "key_press": -1, "trial_index": 87}, "uniqueid": "MTK1703:3A9AA95ATXT6ZSBXNPK6SRH4UGB5P6", "dateTime": 1516130839195}, {"current_trial": 88, "trialdata": {"rt": -1, "trial_type": "single-stim", "stimulus": "<p id=\"stim\">+</p>", "internal_node_id": "0.0-61.0-0.0", "time_elapsed": 634914, "key_press": -1, "type": "FIXATION", "trial_index": 88}, "uniqueid": "MTK1703:3A9AA95ATXT6ZSBXNPK6SRH4UGB5P6", "dateTime": 1516130840711}, {"current_trial": 89, "trialdata": {"rt": -1, "trial_type": "single-stim", "word": "smog", "stimulus": "<p id=\"stim\">SMOG</p>", "conditions": [12, 800, "v", 24000], "internal_node_id": "0.0-62.0", "trial": 2, "time_elapsed": 635726, "serialpos": 0, "key_press": -1, "wordID": 1329, "type": "PRES_VIS", "trial_index": 89}, "uniqueid": "MTK1703:3A9AA95ATXT6ZSBXNPK6SRH4UGB5P6", "dateTime": 1516130841524}, {"current_trial": 90, "trialdata": {"rt": -1, "trial_type": "single-stim", "word": "teacher", "stimulus": "<p id=\"stim\">TEACHER</p>", "conditions": [12, 800, "v", 24000], "internal_node_id": "0.0-63.0", "trial": 2, "time_elapsed": 637570, "serialpos": 1, "key_press": -1, "wordID": 1439, "type": "PRES_VIS", "trial_index": 90}, "uniqueid": "MTK1703:3A9AA95ATXT6ZSBXNPK6SRH4UGB5P6", "dateTime": 1516130843368}, {"current_trial": 91, "trialdata": {"rt": -1, "trial_type": "single-stim", "word": "victim", "stimulus": "<p id=\"stim\">VICTIM</p>", "conditions": [12, 800, "v", 24000], "internal_node_id": "0.0-64.0", "trial": 2, "time_elapsed": 639289, "serialpos": 2, "key_press": -1, "wordID": 1561, "type": "PRES_VIS", "trial_index": 91}, "uniqueid": "MTK1703:3A9AA95ATXT6ZSBXNPK6SRH4UGB5P6", "dateTime": 1516130845086}, {"current_trial": 92, "trialdata": {"rt": -1, "trial_type": "single-stim", "word": "mammal", "stimulus": "<p id=\"stim\">MAMMAL</p>", "conditions": [12, 800, "v", 24000], "internal_node_id": "0.0-65.0", "trial": 2, "time_elapsed": 641242, "serialpos": 3, "key_press": -1, "wordID": 860, "type": "PRES_VIS", "trial_index": 92}, "uniqueid": "MTK1703:3A9AA95ATXT6ZSBXNPK6SRH4UGB5P6", "dateTime": 1516130847040}, {"current_trial": 93, "trialdata": {"rt": -1, "trial_type": "single-stim", "word": "bug", "stimulus": "<p id=\"stim\">BUG</p>", "conditions": [12, 800, "v", 24000], "internal_node_id": "0.0-66.0", "trial": 2, "time_elapsed": 643054, "serialpos": 4, "key_press": -1, "wordID": 186, "type": "PRES_VIS", "trial_index": 93}, "uniqueid": "MTK1703:3A9AA95ATXT6ZSBXNPK6SRH4UGB5P6", "dateTime": 1516130848851}, {"current_trial": 94, "trialdata": {"rt": -1, "trial_type": "single-stim", "word": "plaster", "stimulus": "<p id=\"stim\">PLASTER</p>", "conditions": [12, 800, "v", 24000], "internal_node_id": "0.0-67.0", "trial": 2, "time_elapsed": 644826, "serialpos": 5, "key_press": -1, "wordID": 1084, "type": "PRES_VIS", "trial_index": 94}, "uniqueid": "MTK1703:3A9AA95ATXT6ZSBXNPK6SRH4UGB5P6", "dateTime": 1516130850624}, {"current_trial": 95, "trialdata": {"rt": -1, "trial_type": "single-stim", "word": "infant", "stimulus": "<p id=\"stim\">INFANT</p>", "conditions": [12, 800, "v", 24000], "internal_node_id": "0.0-68.0", "trial": 2, "time_elapsed": 646570, "serialpos": 6, "key_press": -1, "wordID": 736, "type": "PRES_VIS", "trial_index": 95}, "uniqueid": "MTK1703:3A9AA95ATXT6ZSBXNPK6SRH4UGB5P6", "dateTime": 1516130852367}, {"current_trial": 96, "trialdata": {"rt": -1, "trial_type": "single-stim", "word": "penguin", "stimulus": "<p id=\"stim\">PENGUIN</p>", "conditions": [12, 800, "v", 24000], "internal_node_id": "0.0-69.0", "trial": 2, "time_elapsed": 648555, "serialpos": 7, "key_press": -1, "wordID": 1043, "type": "PRES_VIS", "trial_index": 96}, "uniqueid": "MTK1703:3A9AA95ATXT6ZSBXNPK6SRH4UGB5P6", "dateTime": 1516130854352}, {"current_trial": 97, "trialdata": {"rt": -1, "trial_type": "single-stim", "word": "plate", "stimulus": "<p id=\"stim\">PLATE</p>", "conditions": [12, 800, "v", 24000], "internal_node_id": "0.0-70.0", "trial": 2, "time_elapsed": 650398, "serialpos": 8, "key_press": -1, "wordID": 1085, "type": "PRES_VIS", "trial_index": 97}, "uniqueid": "MTK1703:3A9AA95ATXT6ZSBXNPK6SRH4UGB5P6", "dateTime": 1516130856196}, {"current_trial": 98, "trialdata": {"rt": -1, "trial_type": "single-stim", "word": "robber", "stimulus": "<p id=\"stim\">ROBBER</p>", "conditions": [12, 800, "v", 24000], "internal_node_id": "0.0-71.0", "trial": 2, "time_elapsed": 652289, "serialpos": 9, "key_press": -1, "wordID": 1196, "type": "PRES_VIS", "trial_index": 98}, "uniqueid": "MTK1703:3A9AA95ATXT6ZSBXNPK6SRH4UGB5P6", "dateTime": 1516130858087}, {"current_trial": 99, "trialdata": {"rt": -1, "trial_type": "single-stim", "word": "cashier", "stimulus": "<p id=\"stim\">CASHIER</p>", "conditions": [12, 800, "v", 24000], "internal_node_id": "0.0-72.0", "trial": 2, "time_elapsed": 654117, "serialpos": 10, "key_press": -1, "wordID": 253, "type": "PRES_VIS", "trial_index": 99}, "uniqueid": "MTK1703:3A9AA95ATXT6ZSBXNPK6SRH4UGB5P6", "dateTime": 1516130859914}, {"current_trial": 100, "trialdata": {"rt": -1, "trial_type": "single-stim", "word": "student", "stimulus": "<p id=\"stim\">STUDENT</p>", "conditions": [12, 800, "v", 24000], "internal_node_id": "0.0-73.0", "trial": 2, "time_elapsed": 655867, "serialpos": 11, "key_press": -1, "wordID": 1394, "type": "PRES_VIS", "trial_index": 100}, "uniqueid": "MTK1703:3A9AA95ATXT6ZSBXNPK6SRH4UGB5P6", "dateTime": 1516130861665}, {"current_trial": 101, "trialdata": {"rt": -1, "trial_type": "single-stim", "stimulus": "", "internal_node_id": "0.0-74.0-0.0", "time_elapsed": 658227, "key_press": -1, "type": "PRE_RECALL_DELAY", "trial_index": 101}, "uniqueid": "MTK1703:3A9AA95ATXT6ZSBXNPK6SRH4UGB5P6", "dateTime": 1516130864024}, {"current_trial": 102, "trialdata": {"rt": -1000, "trial_type": "single-audio", "stimulus": "/static/audio/400Hz.wav", "internal_node_id": "0.0-75.0", "time_elapsed": 658743, "key_press": -1, "type": "PRE_RECALL_ALERT", "trial_index": 102}, "uniqueid": "MTK1703:3A9AA95ATXT6ZSBXNPK6SRH4UGB5P6", "dateTime": 1516130864540}, {"current_trial": 103, "trialdata": {"rt": [2691, 3923, 4915, 7467, 19594], "recwords": ["smog", "cashier", "student", "victim", "cashier"], "key_times": [1355, 1482, 1884, 2291, 2691, 2963, 3171, 3251, 3330, 3527, 3637, 3731, 3923, 4131, 4307, 4435, 4515, 4586, 4683, 4787, 4915, 6283, 6442, 6538, 6747, 6834, 6947, 7467, 17947, 18122, 18362, 18747, 18938, 19035, 19194, 19290, 19372, 19594], "trial_type": "free-recall", "conditions": [12, 800, "v", 24000], "internal_node_id": "0.0-76.0-0.0", "key_presses": [83, 77, 79, 71, 13, 67, 65, 83, 72, 73, 69, 82, 13, 83, 84, 85, 68, 69, 78, 84, 13, 86, 73, 67, 84, 73, 77, 13, 67, 65, 72, 8, 83, 72, 73, 69, 82, 13], "trial": 2, "time_elapsed": 718759, "type": "FREE_RECALL", "trial_index": 103}, "uniqueid": "MTK1703:3A9AA95ATXT6ZSBXNPK6SRH4UGB5P6", "dateTime": 1516130924563}, {"current_trial": 104, "trialdata": {"rt": 3730, "trial_type": "text", "internal_node_id": "0.0-77.0", "time_elapsed": 724504, "key_press": 32, "type": "INSTRUCTIONS", "trial_index": 104}, "uniqueid": "MTK1703:3A9AA95ATXT6ZSBXNPK6SRH4UGB5P6", "dateTime": 1516130930302}, {"current_trial": 105, "trialdata": {"rt": [2623, 4926, 6629, 9413, 11110], "trial_type": "math-distractor", "key_times": [2190, 2382, 2623, 4413, 4517, 4926, 6422, 6629, 9029, 9143, 9413, 10646, 10950, 11110], "responses": ["24", "17", "7", "21", "16"], "num2": [9, 2, 2, 4, 4, 7], "num3": [8, 8, 1, 8, 9, 7], "conditions": [12, 1600, "v", 12000], "internal_node_id": "0.0-78.0", "key_presses": [50, 52, 13, 49, 55, 13, 55, 13, 50, 49, 13, 49, 54, 13], "trial": 3, "time_elapsed": 738525, "type": "DISTRACTOR", "trial_index": 105, "num1": [7, 7, 5, 9, 3, 3]}, "uniqueid": "MTK1703:3A9AA95ATXT6ZSBXNPK6SRH4UGB5P6", "dateTime": 1516130944323}, {"current_trial": 106, "trialdata": {"rt": -1, "trial_type": "single-stim", "stimulus": "<p id=\"stim\">10</p>", "internal_node_id": "0.0-79.0-0.0", "time_elapsed": 741555, "key_press": -1, "trial_index": 106}, "uniqueid": "MTK1703:3A9AA95ATXT6ZSBXNPK6SRH4UGB5P6", "dateTime": 1516130947353}, {"current_trial": 107, "trialdata": {"rt": -1, "trial_type": "single-stim", "stimulus": "<p id=\"stim\">9</p>", "internal_node_id": "0.0-79.0-1.0", "time_elapsed": 742571, "key_press": -1, "trial_index": 107}, "uniqueid": "MTK1703:3A9AA95ATXT6ZSBXNPK6SRH4UGB5P6", "dateTime": 1516130948369}, {"current_trial": 108, "trialdata": {"rt": -1, "trial_type": "single-stim", "stimulus": "<p id=\"stim\">8</p>", "internal_node_id": "0.0-79.0-2.0", "time_elapsed": 743587, "key_press": -1, "trial_index": 108}, "uniqueid": "MTK1703:3A9AA95ATXT6ZSBXNPK6SRH4UGB5P6", "dateTime": 1516130949384}, {"current_trial": 109, "trialdata": {"rt": -1, "trial_type": "single-stim", "stimulus": "<p id=\"stim\">7</p>", "internal_node_id": "0.0-79.0-3.0", "time_elapsed": 744602, "key_press": -1, "trial_index": 109}, "uniqueid": "MTK1703:3A9AA95ATXT6ZSBXNPK6SRH4UGB5P6", "dateTime": 1516130950400}, {"current_trial": 110, "trialdata": {"rt": -1, "trial_type": "single-stim", "stimulus": "<p id=\"stim\">6</p>", "internal_node_id": "0.0-79.0-4.0", "time_elapsed": 745618, "key_press": -1, "trial_index": 110}, "uniqueid": "MTK1703:3A9AA95ATXT6ZSBXNPK6SRH4UGB5P6", "dateTime": 1516130951416}, {"current_trial": 111, "trialdata": {"rt": -1, "trial_type": "single-stim", "stimulus": "<p id=\"stim\">5</p>", "internal_node_id": "0.0-79.0-5.0", "time_elapsed": 746634, "key_press": -1, "trial_index": 111}, "uniqueid": "MTK1703:3A9AA95ATXT6ZSBXNPK6SRH4UGB5P6", "dateTime": 1516130952431}, {"current_trial": 112, "trialdata": {"rt": -1, "trial_type": "single-stim", "stimulus": "<p id=\"stim\">4</p>", "internal_node_id": "0.0-79.0-6.0", "time_elapsed": 747649, "key_press": -1, "trial_index": 112}, "uniqueid": "MTK1703:3A9AA95ATXT6ZSBXNPK6SRH4UGB5P6", "dateTime": 1516130953447}, {"current_trial": 113, "trialdata": {"rt": -1, "trial_type": "single-stim", "stimulus": "<p id=\"stim\">3</p>", "internal_node_id": "0.0-79.0-7.0", "time_elapsed": 748665, "key_press": -1, "trial_index": 113}, "uniqueid": "MTK1703:3A9AA95ATXT6ZSBXNPK6SRH4UGB5P6", "dateTime": 1516130954462}, {"current_trial": 114, "trialdata": {"rt": -1, "trial_type": "single-stim", "stimulus": "<p id=\"stim\">2</p>", "internal_node_id": "0.0-79.0-8.0", "time_elapsed": 749681, "key_press": -1, "trial_index": 114}, "uniqueid": "MTK1703:3A9AA95ATXT6ZSBXNPK6SRH4UGB5P6", "dateTime": 1516130955479}, {"current_trial": 115, "trialdata": {"rt": -1, "trial_type": "single-stim", "stimulus": "<p id=\"stim\">1</p>", "internal_node_id": "0.0-79.0-9.0", "time_elapsed": 750686, "key_press": -1, "trial_index": 115}, "uniqueid": "MTK1703:3A9AA95ATXT6ZSBXNPK6SRH4UGB5P6", "dateTime": 1516130956483}, {"current_trial": 116, "trialdata": {"rt": -1, "trial_type": "single-stim", "stimulus": "<p id=\"stim\">+</p>", "internal_node_id": "0.0-80.0-0.0", "time_elapsed": 752197, "key_press": -1, "type": "FIXATION", "trial_index": 116}, "uniqueid": "MTK1703:3A9AA95ATXT6ZSBXNPK6SRH4UGB5P6", "dateTime": 1516130957995}, {"current_trial": 117, "trialdata": {"rt": -1, "trial_type": "single-stim", "word": "lace", "stimulus": "<p id=\"stim\">LACE</p>", "conditions": [12, 1600, "v", 12000], "internal_node_id": "0.0-81.0", "trial": 3, "time_elapsed": 753806, "serialpos": 0, "key_press": -1, "wordID": 791, "type": "PRES_VIS", "trial_index": 117}, "uniqueid": "MTK1703:3A9AA95ATXT6ZSBXNPK6SRH4UGB5P6", "dateTime": 1516130959603}, {"current_trial": 118, "trialdata": {"rt": -1, "trial_type": "single-stim", "word": "police", "stimulus": "<p id=\"stim\">POLICE</p>", "conditions": [12, 1600, "v", 12000], "internal_node_id": "0.0-82.0", "trial": 3, "time_elapsed": 756587, "serialpos": 1, "key_press": -1, "wordID": 1097, "type": "PRES_VIS", "trial_index": 118}, "uniqueid": "MTK1703:3A9AA95ATXT6ZSBXNPK6SRH4UGB5P6", "dateTime": 1516130962385}, {"current_trial": 119, "trialdata": {"rt": -1, "trial_type": "single-stim", "word": "sculpture", "stimulus": "<p id=\"stim\">SCULPTURE</p>", "conditions": [12, 1600, "v", 12000], "internal_node_id": "0.0-83.0", "trial": 3, "time_elapsed": 759087, "serialpos": 2, "key_press": -1, "wordID": 1257, "type": "PRES_VIS", "trial_index": 119}, "uniqueid": "MTK1703:3A9AA95ATXT6ZSBXNPK6SRH4UGB5P6", "dateTime": 1516130964885}, {"current_trial": 120, "trialdata": {"rt": -1, "trial_type": "single-stim", "word": "denim", "stimulus": "<p id=\"stim\">DENIM</p>", "conditions": [12, 1600, "v", 12000], "internal_node_id": "0.0-84.0", "trial": 3, "time_elapsed": 761790, "serialpos": 3, "key_press": -1, "wordID": 445, "type": "PRES_VIS", "trial_index": 120}, "uniqueid": "MTK1703:3A9AA95ATXT6ZSBXNPK6SRH4UGB5P6", "dateTime": 1516130967588}, {"current_trial": 121, "trialdata": {"rt": -1, "trial_type": "single-stim", "word": "motel", "stimulus": "<p id=\"stim\">MOTEL</p>", "conditions": [12, 1600, "v", 12000], "internal_node_id": "0.0-85.0", "trial": 3, "time_elapsed": 764510, "serialpos": 4, "key_press": -1, "wordID": 918, "type": "PRES_VIS", "trial_index": 121}, "uniqueid": "MTK1703:3A9AA95ATXT6ZSBXNPK6SRH4UGB5P6", "dateTime": 1516130970307}, {"current_trial": 122, "trialdata": {"rt": -1, "trial_type": "single-stim", "word": "scissors", "stimulus": "<p id=\"stim\">SCISSORS</p>", "conditions": [12, 1600, "v", 12000], "internal_node_id": "0.0-86.0", "trial": 3, "time_elapsed": 766994, "serialpos": 5, "key_press": -1, "wordID": 1249, "type": "PRES_VIS", "trial_index": 122}, "uniqueid": "MTK1703:3A9AA95ATXT6ZSBXNPK6SRH4UGB5P6", "dateTime": 1516130972791}, {"current_trial": 123, "trialdata": {"rt": -1, "trial_type": "single-stim", "word": "plaid", "stimulus": "<p id=\"stim\">PLAID</p>", "conditions": [12, 1600, "v", 12000], "internal_node_id": "0.0-87.0", "trial": 3, "time_elapsed": 769525, "serialpos": 6, "key_press": -1, "wordID": 1079, "type": "PRES_VIS", "trial_index": 123}, "uniqueid": "MTK1703:3A9AA95ATXT6ZSBXNPK6SRH4UGB5P6", "dateTime": 1516130975322}, {"current_trial": 124, "trialdata": {"rt": -1, "trial_type": "single-stim", "word": "pilot", "stimulus": "<p id=\"stim\">PILOT</p>", "conditions": [12, 1600, "v", 12000], "internal_node_id": "0.0-88.0", "trial": 3, "time_elapsed": 772009, "serialpos": 7, "key_press": -1, "wordID": 1069, "type": "PRES_VIS", "trial_index": 124}, "uniqueid": "MTK1703:3A9AA95ATXT6ZSBXNPK6SRH4UGB5P6", "dateTime": 1516130977807}, {"current_trial": 125, "trialdata": {"rt": -1, "trial_type": "single-stim", "word": "airport", "stimulus": "<p id=\"stim\">AIRPORT</p>", "conditions": [12, 1600, "v", 12000], "internal_node_id": "0.0-89.0", "trial": 3, "time_elapsed": 774806, "serialpos": 8, "key_press": -1, "wordID": 12, "type": "PRES_VIS", "trial_index": 125}, "uniqueid": "MTK1703:3A9AA95ATXT6ZSBXNPK6SRH4UGB5P6", "dateTime": 1516130980604}, {"current_trial": 126, "trialdata": {"rt": -1, "trial_type": "single-stim", "word": "spouse", "stimulus": "<p id=\"stim\">SPOUSE</p>", "conditions": [12, 1600, "v", 12000], "internal_node_id": "0.0-90.0", "trial": 3, "time_elapsed": 777244, "serialpos": 9, "key_press": -1, "wordID": 1357, "type": "PRES_VIS", "trial_index": 126}, "uniqueid": "MTK1703:3A9AA95ATXT6ZSBXNPK6SRH4UGB5P6", "dateTime": 1516130983041}, {"current_trial": 127, "trialdata": {"rt": -1, "trial_type": "single-stim", "word": "wife", "stimulus": "<p id=\"stim\">WIFE</p>", "conditions": [12, 1600, "v", 12000], "internal_node_id": "0.0-91.0", "trial": 3, "time_elapsed": 779682, "serialpos": 10, "key_press": -1, "wordID": 1608, "type": "PRES_VIS", "trial_index": 127}, "uniqueid": "MTK1703:3A9AA95ATXT6ZSBXNPK6SRH4UGB5P6", "dateTime": 1516130985490}, {"current_trial": 128, "trialdata": {"rt": -1, "trial_type": "single-stim", "word": "wardrobe", "stimulus": "<p id=\"stim\">WARDROBE</p>", "conditions": [12, 1600, "v", 12000], "internal_node_id": "0.0-92.0", "trial": 3, "time_elapsed": 782291, "serialpos": 11, "key_press": -1, "wordID": 1586, "type": "PRES_VIS", "trial_index": 128}, "uniqueid": "MTK1703:3A9AA95ATXT6ZSBXNPK6SRH4UGB5P6", "dateTime": 1516130988088}, {"current_trial": 129, "trialdata": {"rt": -1, "trial_type": "single-stim", "stimulus": "", "internal_node_id": "0.0-93.0-0.0", "time_elapsed": 784572, "key_press": -1, "type": "PRE_RECALL_DELAY", "trial_index": 129}, "uniqueid": "MTK1703:3A9AA95ATXT6ZSBXNPK6SRH4UGB5P6", "dateTime": 1516130990369}, {"current_trial": 130, "trialdata": {"rt": -1000, "trial_type": "single-audio", "stimulus": "/static/audio/400Hz.wav", "internal_node_id": "0.0-94.0", "time_elapsed": 785087, "key_press": -1, "type": "PRE_RECALL_ALERT", "trial_index": 130}, "uniqueid": "MTK1703:3A9AA95ATXT6ZSBXNPK6SRH4UGB5P6", "dateTime": 1516130990885}, {"current_trial": 131, "trialdata": {"rt": [1346, 2850, 4274, 6339, 6994, 9651, 10883, 11747, 13554], "recwords": ["space", "police", "airport", "pilot", "wife", "spouse", "demin", "plaid", "lace"], "key_times": [706, 803, 898, 1010, 1155, 1346, 1938, 2114, 2290, 2514, 2595, 2690, 2850, 3090, 3363, 3458, 3751, 3826, 3906, 4098, 4274, 4610, 4787, 5506, 5731, 5923, 6098, 6194, 6339, 6594, 6706, 6818, 6914, 6994, 7154, 7282, 7490, 7914, 8658, 8850, 8930, 9134, 9651, 10098, 10194, 10307, 10498, 10586, 10883, 11138, 11250, 11362, 11491, 11586, 11747, 13123, 13187, 13314, 13434, 13554], "trial_type": "free-recall", "conditions": [12, 1600, "v", 12000], "internal_node_id": "0.0-95.0-0.0", "key_presses": [83, 80, 65, 67, 69, 13, 80, 79, 76, 73, 67, 69, 13, 65, 73, 82, 80, 79, 82, 84, 13, 80, 79, 8, 73, 76, 79, 84, 13, 87, 73, 70, 69, 13, 83, 80, 73, 8, 79, 85, 83, 69, 13, 68, 69, 77, 73, 78, 13, 80, 76, 65, 73, 68, 13, 76, 65, 67, 69, 13], "trial": 3, "time_elapsed": 845105, "type": "FREE_RECALL", "trial_index": 131}, "uniqueid": "MTK1703:3A9AA95ATXT6ZSBXNPK6SRH4UGB5P6", "dateTime": 1516131050910}, {"current_trial": 132, "trialdata": {"rt": 1887, "trial_type": "text", "internal_node_id": "0.0-96.0", "time_elapsed": 849008, "key_press": 32, "type": "INSTRUCTIONS", "trial_index": 132}, "uniqueid": "MTK1703:3A9AA95ATXT6ZSBXNPK6SRH4UGB5P6", "dateTime": 1516131054806}, {"current_trial": 133, "trialdata": {"rt": [2345, 4217, 6257, 7681, 9858, 11785], "trial_type": "math-distractor", "key_times": [1476, 1969, 2345, 3784, 3826, 4217, 5849, 5913, 6257, 7379, 7475, 7681, 9305, 9697, 9858, 11545, 11593, 11785], "responses": ["15", "17", "17", "13", "16", "13"], "num2": [7, 4, 2, 4, 5, 2, 6], "num3": [4, 7, 6, 2, 7, 6, 6], "conditions": [24, 800, "v", 12000], "internal_node_id": "0.0-97.0", "key_presses": [49, 53, 13, 49, 55, 13, 49, 55, 13, 49, 51, 13, 49, 54, 13, 49, 51, 13], "trial": 4, "time_elapsed": 863026, "type": "DISTRACTOR", "trial_index": 133, "num1": [4, 6, 9, 7, 4, 5, 8]}, "uniqueid": "MTK1703:3A9AA95ATXT6ZSBXNPK6SRH4UGB5P6", "dateTime": 1516131068824}, {"current_trial": 134, "trialdata": {"rt": -1, "trial_type": "single-stim", "stimulus": "<p id=\"stim\">10</p>", "internal_node_id": "0.0-98.0-0.0", "time_elapsed": 866045, "key_press": -1, "trial_index": 134}, "uniqueid": "MTK1703:3A9AA95ATXT6ZSBXNPK6SRH4UGB5P6", "dateTime": 1516131071843}, {"current_trial": 135, "trialdata": {"rt": -1, "trial_type": "single-stim", "stimulus": "<p id=\"stim\">9</p>", "internal_node_id": "0.0-98.0-1.0", "time_elapsed": 867055, "key_press": -1, "trial_index": 135}, "uniqueid": "MTK1703:3A9AA95ATXT6ZSBXNPK6SRH4UGB5P6", "dateTime": 1516131072853}, {"current_trial": 136, "trialdata": {"rt": -1, "trial_type": "single-stim", "stimulus": "<p id=\"stim\">8</p>", "internal_node_id": "0.0-98.0-2.0", "time_elapsed": 868071, "key_press": -1, "trial_index": 136}, "uniqueid": "MTK1703:3A9AA95ATXT6ZSBXNPK6SRH4UGB5P6", "dateTime": 1516131073868}, {"current_trial": 137, "trialdata": {"rt": -1, "trial_type": "single-stim", "stimulus": "<p id=\"stim\">7</p>", "internal_node_id": "0.0-98.0-3.0", "time_elapsed": 869086, "key_press": -1, "trial_index": 137}, "uniqueid": "MTK1703:3A9AA95ATXT6ZSBXNPK6SRH4UGB5P6", "dateTime": 1516131074884}, {"current_trial": 138, "trialdata": {"rt": -1, "trial_type": "single-stim", "stimulus": "<p id=\"stim\">6</p>", "internal_node_id": "0.0-98.0-4.0", "time_elapsed": 870102, "key_press": -1, "trial_index": 138}, "uniqueid": "MTK1703:3A9AA95ATXT6ZSBXNPK6SRH4UGB5P6", "dateTime": 1516131075900}, {"current_trial": 139, "trialdata": {"rt": -1, "trial_type": "single-stim", "stimulus": "<p id=\"stim\">5</p>", "internal_node_id": "0.0-98.0-5.0", "time_elapsed": 871118, "key_press": -1, "trial_index": 139}, "uniqueid": "MTK1703:3A9AA95ATXT6ZSBXNPK6SRH4UGB5P6", "dateTime": 1516131076915}, {"current_trial": 140, "trialdata": {"rt": -1, "trial_type": "single-stim", "stimulus": "<p id=\"stim\">4</p>", "internal_node_id": "0.0-98.0-6.0", "time_elapsed": 872133, "key_press": -1, "trial_index": 140}, "uniqueid": "MTK1703:3A9AA95ATXT6ZSBXNPK6SRH4UGB5P6", "dateTime": 1516131077931}, {"current_trial": 141, "trialdata": {"rt": -1, "trial_type": "single-stim", "stimulus": "<p id=\"stim\">3</p>", "internal_node_id": "0.0-98.0-7.0", "time_elapsed": 873149, "key_press": -1, "trial_index": 141}, "uniqueid": "MTK1703:3A9AA95ATXT6ZSBXNPK6SRH4UGB5P6", "dateTime": 1516131078946}, {"current_trial": 142, "trialdata": {"rt": -1, "trial_type": "single-stim", "stimulus": "<p id=\"stim\">2</p>", "internal_node_id": "0.0-98.0-8.0", "time_elapsed": 874165, "key_press": -1, "trial_index": 142}, "uniqueid": "MTK1703:3A9AA95ATXT6ZSBXNPK6SRH4UGB5P6", "dateTime": 1516131079962}, {"current_trial": 143, "trialdata": {"rt": -1, "trial_type": "single-stim", "stimulus": "<p id=\"stim\">1</p>", "internal_node_id": "0.0-98.0-9.0", "time_elapsed": 875180, "key_press": -1, "trial_index": 143}, "uniqueid": "MTK1703:3A9AA95ATXT6ZSBXNPK6SRH4UGB5P6", "dateTime": 1516131080978}, {"current_trial": 144, "trialdata": {"rt": -1, "trial_type": "single-stim", "stimulus": "<p id=\"stim\">+</p>", "internal_node_id": "0.0-99.0-0.0", "time_elapsed": 876696, "key_press": -1, "type": "FIXATION", "trial_index": 144}, "uniqueid": "MTK1703:3A9AA95ATXT6ZSBXNPK6SRH4UGB5P6", "dateTime": 1516131082493}, {"current_trial": 145, "trialdata": {"rt": -1, "trial_type": "single-stim", "word": "freckle", "stimulus": "<p id=\"stim\">FRECKLE</p>", "conditions": [24, 800, "v", 12000], "internal_node_id": "0.0-100.0", "trial": 4, "time_elapsed": 877508, "serialpos": 0, "key_press": -1, "wordID": 601, "type": "PRES_VIS", "trial_index": 145}, "uniqueid": "MTK1703:3A9AA95ATXT6ZSBXNPK6SRH4UGB5P6", "dateTime": 1516131083306}, {"current_trial": 146, "trialdata": {"rt": -1, "trial_type": "single-stim", "word": "coin", "stimulus": "<p id=\"stim\">COIN</p>", "conditions": [24, 800, "v", 12000], "internal_node_id": "0.0-101.0", "trial": 4, "time_elapsed": 879134, "serialpos": 1, "key_press": -1, "wordID": 342, "type": "PRES_VIS", "trial_index": 146}, "uniqueid": "MTK1703:3A9AA95ATXT6ZSBXNPK6SRH4UGB5P6", "dateTime": 1516131084931}, {"current_trial": 147, "trialdata": {"rt": -1, "trial_type": "single-stim", "word": "nurse", "stimulus": "<p id=\"stim\">NURSE</p>", "conditions": [24, 800, "v", 12000], "internal_node_id": "0.0-102.0", "trial": 4, "time_elapsed": 881008, "serialpos": 2, "key_press": -1, "wordID": 962, "type": "PRES_VIS", "trial_index": 147}, "uniqueid": "MTK1703:3A9AA95ATXT6ZSBXNPK6SRH4UGB5P6", "dateTime": 1516131086806}, {"current_trial": 148, "trialdata": {"rt": -1, "trial_type": "single-stim", "word": "bison", "stimulus": "<p id=\"stim\">BISON</p>", "conditions": [24, 800, "v", 12000], "internal_node_id": "0.0-103.0", "trial": 4, "time_elapsed": 882837, "serialpos": 3, "key_press": -1, "wordID": 130, "type": "PRES_VIS", "trial_index": 148}, "uniqueid": "MTK1703:3A9AA95ATXT6ZSBXNPK6SRH4UGB5P6", "dateTime": 1516131088635}, {"current_trial": 149, "trialdata": {"rt": -1, "trial_type": "single-stim", "word": "parsley", "stimulus": "<p id=\"stim\">PARSLEY</p>", "conditions": [24, 800, "v", 12000], "internal_node_id": "0.0-104.0", "trial": 4, "time_elapsed": 884493, "serialpos": 4, "key_press": -1, "wordID": 1015, "type": "PRES_VIS", "trial_index": 149}, "uniqueid": "MTK1703:3A9AA95ATXT6ZSBXNPK6SRH4UGB5P6", "dateTime": 1516131090290}, {"current_trial": 150, "trialdata": {"rt": -1, "trial_type": "single-stim", "word": "boyfriend", "stimulus": "<p id=\"stim\">BOYFRIEND</p>", "conditions": [24, 800, "v", 12000], "internal_node_id": "0.0-105.0", "trial": 4, "time_elapsed": 886305, "serialpos": 5, "key_press": -1, "wordID": 161, "type": "PRES_VIS", "trial_index": 150}, "uniqueid": "MTK1703:3A9AA95ATXT6ZSBXNPK6SRH4UGB5P6", "dateTime": 1516131092103}, {"current_trial": 151, "trialdata": {"rt": -1, "trial_type": "single-stim", "word": "crater", "stimulus": "<p id=\"stim\">CRATER</p>", "conditions": [24, 800, "v", 12000], "internal_node_id": "0.0-106.0", "trial": 4, "time_elapsed": 888150, "serialpos": 6, "key_press": -1, "wordID": 399, "type": "PRES_VIS", "trial_index": 151}, "uniqueid": "MTK1703:3A9AA95ATXT6ZSBXNPK6SRH4UGB5P6", "dateTime": 1516131093948}, {"current_trial": 152, "trialdata": {"rt": -1, "trial_type": "single-stim", "word": "perfume", "stimulus": "<p id=\"stim\">PERFUME</p>", "conditions": [24, 800, "v", 12000], "internal_node_id": "0.0-107.0", "trial": 4, "time_elapsed": 890118, "serialpos": 7, "key_press": -1, "wordID": 1048, "type": "PRES_VIS", "trial_index": 152}, "uniqueid": "MTK1703:3A9AA95ATXT6ZSBXNPK6SRH4UGB5P6", "dateTime": 1516131095916}, {"current_trial": 153, "trialdata": {"rt": -1, "trial_type": "single-stim", "word": "neutron", "stimulus": "<p id=\"stim\">NEUTRON</p>", "conditions": [24, 800, "v", 12000], "internal_node_id": "0.0-108.0", "trial": 4, "time_elapsed": 892009, "serialpos": 8, "key_press": -1, "wordID": 946, "type": "PRES_VIS", "trial_index": 153}, "uniqueid": "MTK1703:3A9AA95ATXT6ZSBXNPK6SRH4UGB5P6", "dateTime": 1516131097806}, {"current_trial": 154, "trialdata": {"rt": -1, "trial_type": "single-stim", "word": "wrist", "stimulus": "<p id=\"stim\">WRIST</p>", "conditions": [24, 800, "v", 12000], "internal_node_id": "0.0-109.0", "trial": 4, "time_elapsed": 893852, "serialpos": 9, "key_press": -1, "wordID": 1625, "type": "PRES_VIS", "trial_index": 154}, "uniqueid": "MTK1703:3A9AA95ATXT6ZSBXNPK6SRH4UGB5P6", "dateTime": 1516131099650}, {"current_trial": 155, "trialdata": {"rt": -1, "trial_type": "single-stim", "word": "shoulder", "stimulus": "<p id=\"stim\">SHOULDER</p>", "conditions": [24, 800, "v", 12000], "internal_node_id": "0.0-110.0", "trial": 4, "time_elapsed": 895821, "serialpos": 10, "key_press": -1, "wordID": 1293, "type": "PRES_VIS", "trial_index": 155}, "uniqueid": "MTK1703:3A9AA95ATXT6ZSBXNPK6SRH4UGB5P6", "dateTime": 1516131101619}, {"current_trial": 156, "trialdata": {"rt": -1, "trial_type": "single-stim", "word": "patient", "stimulus": "<p id=\"stim\">PATIENT</p>", "conditions": [24, 800, "v", 12000], "internal_node_id": "0.0-111.0", "trial": 4, "time_elapsed": 897446, "serialpos": 11, "key_press": -1, "wordID": 1023, "type": "PRES_VIS", "trial_index": 156}, "uniqueid": "MTK1703:3A9AA95ATXT6ZSBXNPK6SRH4UGB5P6", "dateTime": 1516131103244}, {"current_trial": 157, "trialdata": {"rt": -1, "trial_type": "single-stim", "word": "peach", "stimulus": "<p id=\"stim\">PEACH</p>", "conditions": [24, 800, "v", 12000], "internal_node_id": "0.0-112.0", "trial": 4, "time_elapsed": 899149, "serialpos": 12, "key_press": -1, "wordID": 1030, "type": "PRES_VIS", "trial_index": 157}, "uniqueid": "MTK1703:3A9AA95ATXT6ZSBXNPK6SRH4UGB5P6", "dateTime": 1516131104947}, {"current_trial": 158, "trialdata": {"rt": -1, "trial_type": "single-stim", "word": "skirt", "stimulus": "<p id=\"stim\">SKIRT</p>", "conditions": [24, 800, "v", 12000], "internal_node_id": "0.0-113.0", "trial": 4, "time_elapsed": 901118, "serialpos": 13, "key_press": -1, "wordID": 1318, "type": "PRES_VIS", "trial_index": 158}, "uniqueid": "MTK1703:3A9AA95ATXT6ZSBXNPK6SRH4UGB5P6", "dateTime": 1516131106916}, {"current_trial": 159, "trialdata": {"rt": -1, "trial_type": "single-stim", "word": "rabbit", "stimulus": "<p id=\"stim\">RABBIT</p>", "conditions": [24, 800, "v", 12000], "internal_node_id": "0.0-114.0", "trial": 4, "time_elapsed": 902946, "serialpos": 14, "key_press": -1, "wordID": 1151, "type": "PRES_VIS", "trial_index": 159}, "uniqueid": "MTK1703:3A9AA95ATXT6ZSBXNPK6SRH4UGB5P6", "dateTime": 1516131108744}, {"current_trial": 160, "trialdata": {"rt": -1, "trial_type": "single-stim", "word": "beaver", "stimulus": "<p id=\"stim\">BEAVER</p>", "conditions": [24, 800, "v", 12000], "internal_node_id": "0.0-115.0", "trial": 4, "time_elapsed": 904665, "serialpos": 15, "key_press": -1, "wordID": 108, "type": "PRES_VIS", "trial_index": 160}, "uniqueid": "MTK1703:3A9AA95ATXT6ZSBXNPK6SRH4UGB5P6", "dateTime": 1516131110462}, {"current_trial": 161, "trialdata": {"rt": -1, "trial_type": "single-stim", "word": "pecan", "stimulus": "<p id=\"stim\">PECAN</p>", "conditions": [24, 800, "v", 12000], "internal_node_id": "0.0-116.0", "trial": 4, "time_elapsed": 906446, "serialpos": 16, "key_press": -1, "wordID": 1035, "type": "PRES_VIS", "trial_index": 161}, "uniqueid": "MTK1703:3A9AA95ATXT6ZSBXNPK6SRH4UGB5P6", "dateTime": 1516131112244}, {"current_trial": 162, "trialdata": {"rt": -1, "trial_type": "single-stim", "word": "apple", "stimulus": "<p id=\"stim\">APPLE</p>", "conditions": [24, 800, "v", 12000], "internal_node_id": "0.0-117.0", "trial": 4, "time_elapsed": 908165, "serialpos": 17, "key_press": -1, "wordID": 32, "type": "PRES_VIS", "trial_index": 162}, "uniqueid": "MTK1703:3A9AA95ATXT6ZSBXNPK6SRH4UGB5P6", "dateTime": 1516131113962}, {"current_trial": 163, "trialdata": {"rt": -1, "trial_type": "single-stim", "word": "comet", "stimulus": "<p id=\"stim\">COMET</p>", "conditions": [24, 800, "v", 12000], "internal_node_id": "0.0-118.0", "trial": 4, "time_elapsed": 910056, "serialpos": 18, "key_press": -1, "wordID": 352, "type": "PRES_VIS", "trial_index": 163}, "uniqueid": "MTK1703:3A9AA95ATXT6ZSBXNPK6SRH4UGB5P6", "dateTime": 1516131115854}, {"current_trial": 164, "trialdata": {"rt": -1, "trial_type": "single-stim", "word": "beast", "stimulus": "<p id=\"stim\">BEAST</p>", "conditions": [24, 800, "v", 12000], "internal_node_id": "0.0-119.0", "trial": 4, "time_elapsed": 911743, "serialpos": 19, "key_press": -1, "wordID": 107, "type": "PRES_VIS", "trial_index": 164}, "uniqueid": "MTK1703:3A9AA95ATXT6ZSBXNPK6SRH4UGB5P6", "dateTime": 1516131117541}, {"current_trial": 165, "trialdata": {"rt": -1, "trial_type": "single-stim", "word": "pizza", "stimulus": "<p id=\"stim\">PIZZA</p>", "conditions": [24, 800, "v", 12000], "internal_node_id": "0.0-120.0", "trial": 4, "time_elapsed": 913446, "serialpos": 20, "key_press": -1, "wordID": 1078, "type": "PRES_VIS", "trial_index": 165}, "uniqueid": "MTK1703:3A9AA95ATXT6ZSBXNPK6SRH4UGB5P6", "dateTime": 1516131119244}, {"current_trial": 166, "trialdata": {"rt": -1, "trial_type": "single-stim", "word": "critic", "stimulus": "<p id=\"stim\">CRITIC</p>", "conditions": [24, 800, "v", 12000], "internal_node_id": "0.0-121.0", "trial": 4, "time_elapsed": 915212, "serialpos": 21, "key_press": -1, "wordID": 409, "type": "PRES_VIS", "trial_index": 166}, "uniqueid": "MTK1703:3A9AA95ATXT6ZSBXNPK6SRH4UGB5P6", "dateTime": 1516131121009}, {"current_trial": 167, "trialdata": {"rt": -1, "trial_type": "single-stim", "word": "snail", "stimulus": "<p id=\"stim\">SNAIL</p>", "conditions": [24, 800, "v", 12000], "internal_node_id": "0.0-122.0", "trial": 4, "time_elapsed": 917024, "serialpos": 22, "key_press": -1, "wordID": 1331, "type": "PRES_VIS", "trial_index": 167}, "uniqueid": "MTK1703:3A9AA95ATXT6ZSBXNPK6SRH4UGB5P6", "dateTime": 1516131122822}, {"current_trial": 168, "trialdata": {"rt": -1, "trial_type": "single-stim", "word": "agent", "stimulus": "<p id=\"stim\">AGENT</p>", "conditions": [24, 800, "v", 12000], "internal_node_id": "0.0-123.0", "trial": 4, "time_elapsed": 918962, "serialpos": 23, "key_press": -1, "wordID": 9, "type": "PRES_VIS", "trial_index": 168}, "uniqueid": "MTK1703:3A9AA95ATXT6ZSBXNPK6SRH4UGB5P6", "dateTime": 1516131124759}, {"current_trial": 169, "trialdata": {"rt": -1, "trial_type": "single-stim", "stimulus": "", "internal_node_id": "0.0-124.0-0.0", "time_elapsed": 921243, "key_press": -1, "type": "PRE_RECALL_DELAY", "trial_index": 169}, "uniqueid": "MTK1703:3A9AA95ATXT6ZSBXNPK6SRH4UGB5P6", "dateTime": 1516131127041}, {"current_trial": 170, "trialdata": {"rt": -1000, "trial_type": "single-audio", "stimulus": "/static/audio/400Hz.wav", "internal_node_id": "0.0-125.0", "time_elapsed": 921759, "key_press": -1, "type": "PRE_RECALL_ALERT", "trial_index": 170}, "uniqueid": "MTK1703:3A9AA95ATXT6ZSBXNPK6SRH4UGB5P6", "dateTime": 1516131127556}, {"current_trial": 171, "trialdata": {"rt": [2142, 3659, 4835, 7403, 8251, 10339], "recwords": ["critic", "snail", "agent", "pecan", "apple", "beast"], "key_times": [1076, 1299, 1507, 1636, 1747, 1875, 2142, 2475, 2572, 2668, 2930, 3451, 3659, 4035, 4243, 4419, 4547, 4595, 4835, 6676, 6723, 6892, 7036, 7131, 7403, 7595, 7699, 7851, 7947, 8094, 8251, 9747, 9796, 9971, 10067, 10259, 10339], "trial_type": "free-recall", "conditions": [24, 800, "v", 12000], "internal_node_id": "0.0-126.0-0.0", "key_presses": [67, 82, 73, 84, 73, 67, 13, 83, 78, 65, 73, 76, 13, 65, 71, 69, 78, 84, 13, 80, 69, 67, 65, 78, 13, 65, 80, 80, 76, 69, 13, 66, 69, 65, 83, 84, 13], "trial": 4, "time_elapsed": 981767, "type": "FREE_RECALL", "trial_index": 171}, "uniqueid": "MTK1703:3A9AA95ATXT6ZSBXNPK6SRH4UGB5P6", "dateTime": 1516131187567}, {"current_trial": 172, "trialdata": {"rt": 24943, "trial_type": "text", "internal_node_id": "0.0-127.0", "time_elapsed": 1008725, "key_press": 13, "type": "INSTRUCTIONS", "trial_index": 172}, "uniqueid": "MTK1703:3A9AA95ATXT6ZSBXNPK6SRH4UGB5P6", "dateTime": 1516131214522}, {"current_trial": 173, "trialdata": {"rt": [2826, 5754, 7266, 8810, 11770], "trial_type": "math-distractor", "key_times": [2290, 2434, 2826, 4034, 4586, 5258, 5626, 5754, 6914, 7106, 7266, 8519, 8560, 8810, 11370, 11467, 11770], "responses": ["10", "15", "14", "12", "20"], "num2": [1, 3, 5, 8, 8, 1], "num3": [5, 7, 5, 3, 7, 9], "conditions": [12, 800, "v", 12000], "internal_node_id": "0.0-128.0", "key_presses": [49, 48, 13, 49, 8, 49, 53, 13, 49, 52, 13, 49, 50, 13, 50, 48, 13], "trial": 5, "time_elapsed": 1022754, "type": "DISTRACTOR", "trial_index": 173, "num1": [4, 5, 4, 1, 5, 4]}, "uniqueid": "MTK1703:3A9AA95ATXT6ZSBXNPK6SRH4UGB5P6", "dateTime": 1516131228552}, {"current_trial": 174, "trialdata": {"rt": -1, "trial_type": "single-stim", "stimulus": "<p id=\"stim\">10</p>", "internal_node_id": "0.0-129.0-0.0", "time_elapsed": 1025760, "key_press": -1, "trial_index": 174}, "uniqueid": "MTK1703:3A9AA95ATXT6ZSBXNPK6SRH4UGB5P6", "dateTime": 1516131231557}, {"current_trial": 175, "trialdata": {"rt": -1, "trial_type": "single-stim", "stimulus": "<p id=\"stim\">9</p>", "internal_node_id": "0.0-129.0-1.0", "time_elapsed": 1026775, "key_press": -1, "trial_index": 175}, "uniqueid": "MTK1703:3A9AA95ATXT6ZSBXNPK6SRH4UGB5P6", "dateTime": 1516131232572}, {"current_trial": 176, "trialdata": {"rt": -1, "trial_type": "single-stim", "stimulus": "<p id=\"stim\">8</p>", "internal_node_id": "0.0-129.0-2.0", "time_elapsed": 1027791, "key_press": -1, "trial_index": 176}, "uniqueid": "MTK1703:3A9AA95ATXT6ZSBXNPK6SRH4UGB5P6", "dateTime": 1516131233588}, {"current_trial": 177, "trialdata": {"rt": -1, "trial_type": "single-stim", "stimulus": "<p id=\"stim\">7</p>", "internal_node_id": "0.0-129.0-3.0", "time_elapsed": 1028806, "key_press": -1, "trial_index": 177}, "uniqueid": "MTK1703:3A9AA95ATXT6ZSBXNPK6SRH4UGB5P6", "dateTime": 1516131234604}, {"current_trial": 178, "trialdata": {"rt": -1, "trial_type": "single-stim", "stimulus": "<p id=\"stim\">6</p>", "internal_node_id": "0.0-129.0-4.0", "time_elapsed": 1029822, "key_press": -1, "trial_index": 178}, "uniqueid": "MTK1703:3A9AA95ATXT6ZSBXNPK6SRH4UGB5P6", "dateTime": 1516131235619}, {"current_trial": 179, "trialdata": {"rt": -1, "trial_type": "single-stim", "stimulus": "<p id=\"stim\">5</p>", "internal_node_id": "0.0-129.0-5.0", "time_elapsed": 1030838, "key_press": -1, "trial_index": 179}, "uniqueid": "MTK1703:3A9AA95ATXT6ZSBXNPK6SRH4UGB5P6", "dateTime": 1516131236635}, {"current_trial": 180, "trialdata": {"rt": -1, "trial_type": "single-stim", "stimulus": "<p id=\"stim\">4</p>", "internal_node_id": "0.0-129.0-6.0", "time_elapsed": 1031853, "key_press": -1, "trial_index": 180}, "uniqueid": "MTK1703:3A9AA95ATXT6ZSBXNPK6SRH4UGB5P6", "dateTime": 1516131237651}, {"current_trial": 181, "trialdata": {"rt": -1, "trial_type": "single-stim", "stimulus": "<p id=\"stim\">3</p>", "internal_node_id": "0.0-129.0-7.0", "time_elapsed": 1032869, "key_press": -1, "trial_index": 181}, "uniqueid": "MTK1703:3A9AA95ATXT6ZSBXNPK6SRH4UGB5P6", "dateTime": 1516131238666}, {"current_trial": 182, "trialdata": {"rt": -1, "trial_type": "single-stim", "stimulus": "<p id=\"stim\">2</p>", "internal_node_id": "0.0-129.0-8.0", "time_elapsed": 1033885, "key_press": -1, "trial_index": 182}, "uniqueid": "MTK1703:3A9AA95ATXT6ZSBXNPK6SRH4UGB5P6", "dateTime": 1516131239682}, {"current_trial": 183, "trialdata": {"rt": -1, "trial_type": "single-stim", "stimulus": "<p id=\"stim\">1</p>", "internal_node_id": "0.0-129.0-9.0", "time_elapsed": 1034900, "key_press": -1, "trial_index": 183}, "uniqueid": "MTK1703:3A9AA95ATXT6ZSBXNPK6SRH4UGB5P6", "dateTime": 1516131240697}, {"current_trial": 184, "trialdata": {"rt": -1, "trial_type": "single-stim", "stimulus": "<p id=\"stim\">+</p>", "internal_node_id": "0.0-130.0-0.0", "time_elapsed": 1036416, "key_press": -1, "type": "FIXATION", "trial_index": 184}, "uniqueid": "MTK1703:3A9AA95ATXT6ZSBXNPK6SRH4UGB5P6", "dateTime": 1516131242213}, {"current_trial": 185, "trialdata": {"rt": -1, "trial_type": "single-stim", "word": "bunny", "stimulus": "<p id=\"stim\">BUNNY</p>", "conditions": [12, 800, "v", 12000], "internal_node_id": "0.0-131.0", "trial": 5, "time_elapsed": 1037228, "serialpos": 0, "key_press": -1, "wordID": 197, "type": "PRES_VIS", "trial_index": 185}, "uniqueid": "MTK1703:3A9AA95ATXT6ZSBXNPK6SRH4UGB5P6", "dateTime": 1516131243025}, {"current_trial": 186, "trialdata": {"rt": -1, "trial_type": "single-stim", "word": "turkey", "stimulus": "<p id=\"stim\">TURKEY</p>", "conditions": [12, 800, "v", 12000], "internal_node_id": "0.0-132.0", "trial": 5, "time_elapsed": 1039213, "serialpos": 1, "key_press": -1, "wordID": 1519, "type": "PRES_VIS", "trial_index": 186}, "uniqueid": "MTK1703:3A9AA95ATXT6ZSBXNPK6SRH4UGB5P6", "dateTime": 1516131245010}, {"current_trial": 187, "trialdata": {"rt": -1, "trial_type": "single-stim", "word": "onion", "stimulus": "<p id=\"stim\">ONION</p>", "conditions": [12, 800, "v", 12000], "internal_node_id": "0.0-133.0", "trial": 5, "time_elapsed": 1040963, "serialpos": 2, "key_press": -1, "wordID": 976, "type": "PRES_VIS", "trial_index": 187}, "uniqueid": "MTK1703:3A9AA95ATXT6ZSBXNPK6SRH4UGB5P6", "dateTime": 1516131246760}, {"current_trial": 188, "trialdata": {"rt": -1, "trial_type": "single-stim", "word": "bacon", "stimulus": "<p id=\"stim\">BACON</p>", "conditions": [12, 800, "v", 12000], "internal_node_id": "0.0-134.0", "trial": 5, "time_elapsed": 1042760, "serialpos": 3, "key_press": -1, "wordID": 66, "type": "PRES_VIS", "trial_index": 188}, "uniqueid": "MTK1703:3A9AA95ATXT6ZSBXNPK6SRH4UGB5P6", "dateTime": 1516131248557}, {"current_trial": 189, "trialdata": {"rt": -1, "trial_type": "single-stim", "word": "chipmunk", "stimulus": "<p id=\"stim\">CHIPMUNK</p>", "conditions": [12, 800, "v", 12000], "internal_node_id": "0.0-135.0", "trial": 5, "time_elapsed": 1044572, "serialpos": 4, "key_press": -1, "wordID": 303, "type": "PRES_VIS", "trial_index": 189}, "uniqueid": "MTK1703:3A9AA95ATXT6ZSBXNPK6SRH4UGB5P6", "dateTime": 1516131250369}, {"current_trial": 190, "trialdata": {"rt": -1, "trial_type": "single-stim", "word": "marrow", "stimulus": "<p id=\"stim\">MARROW</p>", "conditions": [12, 800, "v", 12000], "internal_node_id": "0.0-136.0", "trial": 5, "time_elapsed": 1046291, "serialpos": 5, "key_press": -1, "wordID": 871, "type": "PRES_VIS", "trial_index": 190}, "uniqueid": "MTK1703:3A9AA95ATXT6ZSBXNPK6SRH4UGB5P6", "dateTime": 1516131252088}, {"current_trial": 191, "trialdata": {"rt": -1, "trial_type": "single-stim", "word": "oyster", "stimulus": "<p id=\"stim\">OYSTER</p>", "conditions": [12, 800, "v", 12000], "internal_node_id": "0.0-137.0", "trial": 5, "time_elapsed": 1048291, "serialpos": 6, "key_press": -1, "wordID": 994, "type": "PRES_VIS", "trial_index": 191}, "uniqueid": "MTK1703:3A9AA95ATXT6ZSBXNPK6SRH4UGB5P6", "dateTime": 1516131254088}, {"current_trial": 192, "trialdata": {"rt": -1, "trial_type": "single-stim", "word": "drink", "stimulus": "<p id=\"stim\">DRINK</p>", "conditions": [12, 800, "v", 12000], "internal_node_id": "0.0-138.0", "trial": 5, "time_elapsed": 1050150, "serialpos": 7, "key_press": -1, "wordID": 497, "type": "PRES_VIS", "trial_index": 192}, "uniqueid": "MTK1703:3A9AA95ATXT6ZSBXNPK6SRH4UGB5P6", "dateTime": 1516131255948}, {"current_trial": 193, "trialdata": {"rt": -1, "trial_type": "single-stim", "word": "freezer", "stimulus": "<p id=\"stim\">FREEZER</p>", "conditions": [12, 800, "v", 12000], "internal_node_id": "0.0-139.0", "trial": 5, "time_elapsed": 1051822, "serialpos": 8, "key_press": -1, "wordID": 603, "type": "PRES_VIS", "trial_index": 193}, "uniqueid": "MTK1703:3A9AA95ATXT6ZSBXNPK6SRH4UGB5P6", "dateTime": 1516131257619}, {"current_trial": 194, "trialdata": {"rt": -1, "trial_type": "single-stim", "word": "grill", "stimulus": "<p id=\"stim\">GRILL</p>", "conditions": [12, 800, "v", 12000], "internal_node_id": "0.0-140.0", "trial": 5, "time_elapsed": 1053729, "serialpos": 9, "key_press": -1, "wordID": 660, "type": "PRES_VIS", "trial_index": 194}, "uniqueid": "MTK1703:3A9AA95ATXT6ZSBXNPK6SRH4UGB5P6", "dateTime": 1516131259526}, {"current_trial": 195, "trialdata": {"rt": -1, "trial_type": "single-stim", "word": "world", "stimulus": "<p id=\"stim\">WORLD</p>", "conditions": [12, 800, "v", 12000], "internal_node_id": "0.0-141.0", "trial": 5, "time_elapsed": 1055697, "serialpos": 10, "key_press": -1, "wordID": 1621, "type": "PRES_VIS", "trial_index": 195}, "uniqueid": "MTK1703:3A9AA95ATXT6ZSBXNPK6SRH4UGB5P6", "dateTime": 1516131261495}, {"current_trial": 196, "trialdata": {"rt": -1, "trial_type": "single-stim", "word": "globe", "stimulus": "<p id=\"stim\">GLOBE</p>", "conditions": [12, 800, "v", 12000], "internal_node_id": "0.0-142.0", "trial": 5, "time_elapsed": 1057432, "serialpos": 11, "key_press": -1, "wordID": 640, "type": "PRES_VIS", "trial_index": 196}, "uniqueid": "MTK1703:3A9AA95ATXT6ZSBXNPK6SRH4UGB5P6", "dateTime": 1516131263229}, {"current_trial": 197, "trialdata": {"rt": -1, "trial_type": "single-stim", "stimulus": "", "internal_node_id": "0.0-143.0-0.0", "time_elapsed": 1059682, "key_press": -1, "type": "PRE_RECALL_DELAY", "trial_index": 197}, "uniqueid": "MTK1703:3A9AA95ATXT6ZSBXNPK6SRH4UGB5P6", "dateTime": 1516131265479}, {"current_trial": 198, "trialdata": {"rt": -1000, "trial_type": "single-audio", "stimulus": "/static/audio/400Hz.wav", "internal_node_id": "0.0-144.0", "time_elapsed": 1060197, "key_press": -1, "type": "PRE_RECALL_ALERT", "trial_index": 198}, "uniqueid": "MTK1703:3A9AA95ATXT6ZSBXNPK6SRH4UGB5P6", "dateTime": 1516131265994}, {"current_trial": 199, "trialdata": {"rt": [1734, 2870, 4342, 5286, 6918, 8398, 15078, 22318], "recwords": ["world", "globe", "freezer", "drink", "beaver", "bunny", "chipmunk", "grill"], "key_times": [614, 774, 838, 1022, 1070, 1734, 2168, 2247, 2422, 2518, 2662, 2870, 3270, 3446, 3526, 3670, 3910, 4150, 4230, 4342, 4454, 4630, 4742, 4870, 5014, 5286, 6158, 6238, 6398, 6542, 6734, 6822, 6918, 7550, 7694, 7886, 8046, 8126, 8398, 13166, 13294, 13534, 13774, 14358, 14534, 14646, 14806, 15078, 21534, 21630, 21758, 21982, 22126, 22318], "trial_type": "free-recall", "conditions": [12, 800, "v", 12000], "internal_node_id": "0.0-145.0-0.0", "key_presses": [87, 79, 82, 76, 68, 13, 71, 76, 79, 66, 69, 13, 70, 82, 69, 69, 90, 69, 82, 13, 68, 82, 73, 78, 75, 13, 66, 69, 65, 86, 69, 82, 13, 66, 85, 78, 78, 89, 13, 67, 72, 73, 80, 77, 85, 78, 75, 13, 71, 82, 73, 76, 76, 13], "trial": 5, "time_elapsed": 1120214, "type": "FREE_RECALL", "trial_index": 199}, "uniqueid": "MTK1703:3A9AA95ATXT6ZSBXNPK6SRH4UGB5P6", "dateTime": 1516131326014}, {"current_trial": 200, "trialdata": {"rt": 12551, "trial_type": "text", "internal_node_id": "0.0-146.0", "time_elapsed": 1134781, "key_press": 68, "type": "INSTRUCTIONS", "trial_index": 200}, "uniqueid": "MTK1703:3A9AA95ATXT6ZSBXNPK6SRH4UGB5P6", "dateTime": 1516131340578}, {"current_trial": 201, "trialdata": {"rt": [2439, 3687, 5567, 7399, 10039, 11543, 14359, 16167, 17903, 19711, 21927], "trial_type": "math-distractor", "key_times": [1871, 2439, 3335, 3511, 3687, 5199, 5263, 5567, 7079, 7399, 9719, 9767, 10039, 11415, 11543, 13991, 14079, 14359, 15831, 15943, 16167, 17567, 17631, 17903, 19359, 19423, 19711, 20927, 21151, 21495, 21735, 21927, 23567], "responses": ["8", "11", "20", "9", "20", "5", "20", "12", "20", "10", "17"], "num2": [1, 7, 6, 4, 8, 9, 6, 1, 3, 1, 6, 5], "num3": [3, 1, 6, 4, 6, 1, 7, 8, 9, 6, 6, 4], "conditions": [12, 1600, "v", 24000], "internal_node_id": "0.0-147.0", "key_presses": [56, 13, 49, 49, 13, 50, 48, 13, 57, 13, 50, 48, 13, 53, 13, 50, 48, 13, 49, 50, 13, 50, 48, 13, 49, 48, 13, 49, 56, 8, 55, 13, 49], "trial": 6, "time_elapsed": 1160804, "type": "DISTRACTOR", "trial_index": 201, "num1": [4, 3, 8, 1, 9, 5, 6, 3, 8, 3, 5, 8]}, "uniqueid": "MTK1703:3A9AA95ATXT6ZSBXNPK6SRH4UGB5P6", "dateTime": 1516131366602}, {"current_trial": 202, "trialdata": {"rt": -1, "trial_type": "single-stim", "stimulus": "<p id=\"stim\">10</p>", "internal_node_id": "0.0-148.0-0.0", "time_elapsed": 1163820, "key_press": -1, "trial_index": 202}, "uniqueid": "MTK1703:3A9AA95ATXT6ZSBXNPK6SRH4UGB5P6", "dateTime": 1516131369617}, {"current_trial": 203, "trialdata": {"rt": -1, "trial_type": "single-stim", "stimulus": "<p id=\"stim\">9</p>", "internal_node_id": "0.0-148.0-1.0", "time_elapsed": 1164836, "key_press": -1, "trial_index": 203}, "uniqueid": "MTK1703:3A9AA95ATXT6ZSBXNPK6SRH4UGB5P6", "dateTime": 1516131370633}, {"current_trial": 204, "trialdata": {"rt": -1, "trial_type": "single-stim", "stimulus": "<p id=\"stim\">8</p>", "internal_node_id": "0.0-148.0-2.0", "time_elapsed": 1165851, "key_press": -1, "trial_index": 204}, "uniqueid": "MTK1703:3A9AA95ATXT6ZSBXNPK6SRH4UGB5P6", "dateTime": 1516131371648}, {"current_trial": 205, "trialdata": {"rt": -1, "trial_type": "single-stim", "stimulus": "<p id=\"stim\">7</p>", "internal_node_id": "0.0-148.0-3.0", "time_elapsed": 1166867, "key_press": -1, "trial_index": 205}, "uniqueid": "MTK1703:3A9AA95ATXT6ZSBXNPK6SRH4UGB5P6", "dateTime": 1516131372664}, {"current_trial": 206, "trialdata": {"rt": -1, "trial_type": "single-stim", "stimulus": "<p id=\"stim\">6</p>", "internal_node_id": "0.0-148.0-4.0", "time_elapsed": 1167882, "key_press": -1, "trial_index": 206}, "uniqueid": "MTK1703:3A9AA95ATXT6ZSBXNPK6SRH4UGB5P6", "dateTime": 1516131373680}, {"current_trial": 207, "trialdata": {"rt": -1, "trial_type": "single-stim", "stimulus": "<p id=\"stim\">5</p>", "internal_node_id": "0.0-148.0-5.0", "time_elapsed": 1168898, "key_press": -1, "trial_index": 207}, "uniqueid": "MTK1703:3A9AA95ATXT6ZSBXNPK6SRH4UGB5P6", "dateTime": 1516131374695}, {"current_trial": 208, "trialdata": {"rt": -1, "trial_type": "single-stim", "stimulus": "<p id=\"stim\">4</p>", "internal_node_id": "0.0-148.0-6.0", "time_elapsed": 1169914, "key_press": -1, "trial_index": 208}, "uniqueid": "MTK1703:3A9AA95ATXT6ZSBXNPK6SRH4UGB5P6", "dateTime": 1516131375711}, {"current_trial": 209, "trialdata": {"rt": -1, "trial_type": "single-stim", "stimulus": "<p id=\"stim\">3</p>", "internal_node_id": "0.0-148.0-7.0", "time_elapsed": 1170929, "key_press": -1, "trial_index": 209}, "uniqueid": "MTK1703:3A9AA95ATXT6ZSBXNPK6SRH4UGB5P6", "dateTime": 1516131376727}, {"current_trial": 210, "trialdata": {"rt": -1, "trial_type": "single-stim", "stimulus": "<p id=\"stim\">2</p>", "internal_node_id": "0.0-148.0-8.0", "time_elapsed": 1171945, "key_press": -1, "trial_index": 210}, "uniqueid": "MTK1703:3A9AA95ATXT6ZSBXNPK6SRH4UGB5P6", "dateTime": 1516131377742}, {"current_trial": 211, "trialdata": {"rt": -1, "trial_type": "single-stim", "stimulus": "<p id=\"stim\">1</p>", "internal_node_id": "0.0-148.0-9.0", "time_elapsed": 1172961, "key_press": -1, "trial_index": 211}, "uniqueid": "MTK1703:3A9AA95ATXT6ZSBXNPK6SRH4UGB5P6", "dateTime": 1516131378758}, {"current_trial": 212, "trialdata": {"rt": -1, "trial_type": "single-stim", "stimulus": "<p id=\"stim\">+</p>", "internal_node_id": "0.0-149.0-0.0", "time_elapsed": 1174476, "key_press": -1, "type": "FIXATION", "trial_index": 212}, "uniqueid": "MTK1703:3A9AA95ATXT6ZSBXNPK6SRH4UGB5P6", "dateTime": 1516131380274}, {"current_trial": 213, "trialdata": {"rt": -1, "trial_type": "single-stim", "word": "carrot", "stimulus": "<p id=\"stim\">CARROT</p>", "conditions": [12, 1600, "v", 24000], "internal_node_id": "0.0-150.0", "trial": 6, "time_elapsed": 1176086, "serialpos": 0, "key_press": -1, "wordID": 248, "type": "PRES_VIS", "trial_index": 213}, "uniqueid": "MTK1703:3A9AA95ATXT6ZSBXNPK6SRH4UGB5P6", "dateTime": 1516131381883}, {"current_trial": 214, "trialdata": {"rt": -1, "trial_type": "single-stim", "word": "pliers", "stimulus": "<p id=\"stim\">PLIERS</p>", "conditions": [12, 1600, "v", 24000], "internal_node_id": "0.0-151.0", "trial": 6, "time_elapsed": 1178664, "serialpos": 1, "key_press": -1, "wordID": 1088, "type": "PRES_VIS", "trial_index": 214}, "uniqueid": "MTK1703:3A9AA95ATXT6ZSBXNPK6SRH4UGB5P6", "dateTime": 1516131384461}, {"current_trial": 215, "trialdata": {"rt": -1, "trial_type": "single-stim", "word": "vagrant", "stimulus": "<p id=\"stim\">VAGRANT</p>", "conditions": [12, 1600, "v", 24000], "internal_node_id": "0.0-152.0", "trial": 6, "time_elapsed": 1181086, "serialpos": 2, "key_press": -1, "wordID": 1543, "type": "PRES_VIS", "trial_index": 215}, "uniqueid": "MTK1703:3A9AA95ATXT6ZSBXNPK6SRH4UGB5P6", "dateTime": 1516131386883}, {"current_trial": 216, "trialdata": {"rt": -1, "trial_type": "single-stim", "word": "milk", "stimulus": "<p id=\"stim\">MILK</p>", "conditions": [12, 1600, "v", 24000], "internal_node_id": "0.0-153.0", "trial": 6, "time_elapsed": 1183820, "serialpos": 3, "key_press": -1, "wordID": 894, "type": "PRES_VIS", "trial_index": 216}, "uniqueid": "MTK1703:3A9AA95ATXT6ZSBXNPK6SRH4UGB5P6", "dateTime": 1516131389617}, {"current_trial": 217, "trialdata": {"rt": -1, "trial_type": "single-stim", "word": "honey", "stimulus": "<p id=\"stim\">HONEY</p>", "conditions": [12, 1600, "v", 24000], "internal_node_id": "0.0-154.0", "trial": 6, "time_elapsed": 1186555, "serialpos": 4, "key_press": -1, "wordID": 712, "type": "PRES_VIS", "trial_index": 217}, "uniqueid": "MTK1703:3A9AA95ATXT6ZSBXNPK6SRH4UGB5P6", "dateTime": 1516131392352}, {"current_trial": 218, "trialdata": {"rt": -1, "trial_type": "single-stim", "word": "soda", "stimulus": "<p id=\"stim\">SODA</p>", "conditions": [12, 1600, "v", 24000], "internal_node_id": "0.0-155.0", "trial": 6, "time_elapsed": 1189211, "serialpos": 5, "key_press": -1, "wordID": 1340, "type": "PRES_VIS", "trial_index": 218}, "uniqueid": "MTK1703:3A9AA95ATXT6ZSBXNPK6SRH4UGB5P6", "dateTime": 1516131395011}, {"current_trial": 219, "trialdata": {"rt": -1, "trial_type": "single-stim", "word": "seafood", "stimulus": "<p id=\"stim\">SEAFOOD</p>", "conditions": [12, 1600, "v", 24000], "internal_node_id": "0.0-156.0", "trial": 6, "time_elapsed": 1191726, "serialpos": 6, "key_press": -1, "wordID": 1259, "type": "PRES_VIS", "trial_index": 219}, "uniqueid": "MTK1703:3A9AA95ATXT6ZSBXNPK6SRH4UGB5P6", "dateTime": 1516131397524}, {"current_trial": 220, "trialdata": {"rt": -1, "trial_type": "single-stim", "word": "sphinx", "stimulus": "<p id=\"stim\">SPHINX</p>", "conditions": [12, 1600, "v", 24000], "internal_node_id": "0.0-157.0", "trial": 6, "time_elapsed": 1194367, "serialpos": 7, "key_press": -1, "wordID": 1348, "type": "PRES_VIS", "trial_index": 220}, "uniqueid": "MTK1703:3A9AA95ATXT6ZSBXNPK6SRH4UGB5P6", "dateTime": 1516131400164}, {"current_trial": 221, "trialdata": {"rt": -1, "trial_type": "single-stim", "word": "puppy", "stimulus": "<p id=\"stim\">PUPPY</p>", "conditions": [12, 1600, "v", 24000], "internal_node_id": "0.0-158.0", "trial": 6, "time_elapsed": 1197039, "serialpos": 8, "key_press": -1, "wordID": 1143, "type": "PRES_VIS", "trial_index": 221}, "uniqueid": "MTK1703:3A9AA95ATXT6ZSBXNPK6SRH4UGB5P6", "dateTime": 1516131402836}, {"current_trial": 222, "trialdata": {"rt": -1, "trial_type": "single-stim", "word": "france", "stimulus": "<p id=\"stim\">FRANCE</p>", "conditions": [12, 1600, "v", 24000], "internal_node_id": "0.0-159.0", "trial": 6, "time_elapsed": 1199851, "serialpos": 9, "key_press": -1, "wordID": 600, "type": "PRES_VIS", "trial_index": 222}, "uniqueid": "MTK1703:3A9AA95ATXT6ZSBXNPK6SRH4UGB5P6", "dateTime": 1516131405649}, {"current_trial": 223, "trialdata": {"rt": -1, "trial_type": "single-stim", "word": "eyelash", "stimulus": "<p id=\"stim\">EYELASH</p>", "conditions": [12, 1600, "v", 24000], "internal_node_id": "0.0-160.0", "trial": 6, "time_elapsed": 1202477, "serialpos": 10, "key_press": -1, "wordID": 545, "type": "PRES_VIS", "trial_index": 223}, "uniqueid": "MTK1703:3A9AA95ATXT6ZSBXNPK6SRH4UGB5P6", "dateTime": 1516131408274}, {"current_trial": 224, "trialdata": {"rt": -1, "trial_type": "single-stim", "word": "coffee", "stimulus": "<p id=\"stim\">COFFEE</p>", "conditions": [12, 1600, "v", 24000], "internal_node_id": "0.0-161.0", "trial": 6, "time_elapsed": 1205086, "serialpos": 11, "key_press": -1, "wordID": 340, "type": "PRES_VIS", "trial_index": 224}, "uniqueid": "MTK1703:3A9AA95ATXT6ZSBXNPK6SRH4UGB5P6", "dateTime": 1516131410883}, {"current_trial": 225, "trialdata": {"rt": -1, "trial_type": "single-stim", "stimulus": "", "internal_node_id": "0.0-162.0-0.0", "time_elapsed": 1207442, "key_press": -1, "type": "PRE_RECALL_DELAY", "trial_index": 225}, "uniqueid": "MTK1703:3A9AA95ATXT6ZSBXNPK6SRH4UGB5P6", "dateTime": 1516131413239}, {"current_trial": 226, "trialdata": {"rt": -1000, "trial_type": "single-audio", "stimulus": "/static/audio/400Hz.wav", "internal_node_id": "0.0-163.0", "time_elapsed": 1207958, "key_press": -1, "type": "PRE_RECALL_ALERT", "trial_index": 226}, "uniqueid": "MTK1703:3A9AA95ATXT6ZSBXNPK6SRH4UGB5P6", "dateTime": 1516131413755}, {"current_trial": 227, "trialdata": {"rt": [2182, 3190, 5022, 6398, 8454, 16846, 20390], "recwords": ["eyelash", "coffee", "sphinx", "seafood", "vagrant", "coffee", "soda"], "key_times": [630, 886, 1046, 1158, 1350, 1430, 1558, 2182, 2422, 2566, 2662, 2806, 2886, 3030, 3190, 3430, 3518, 4078, 4238, 4350, 4734, 5022, 5422, 5598, 5774, 5902, 6062, 6174, 6254, 6398, 7174, 7606, 7766, 7910, 8070, 8189, 8310, 8454, 16110, 16254, 16366, 16494, 16606, 16734, 16846, 19894, 20070, 20198, 20262, 20390], "trial_type": "free-recall", "conditions": [12, 1600, "v", 24000], "internal_node_id": "0.0-164.0-0.0", "key_presses": [69, 89, 69, 76, 65, 83, 72, 13, 67, 79, 70, 70, 69, 69, 13, 83, 80, 72, 73, 78, 88, 13, 83, 69, 65, 70, 79, 79, 68, 13, 86, 65, 71, 82, 65, 78, 84, 13, 67, 79, 70, 70, 69, 69, 13, 83, 79, 68, 65, 13], "trial": 6, "time_elapsed": 1267976, "type": "FREE_RECALL", "trial_index": 227}, "uniqueid": "MTK1703:3A9AA95ATXT6ZSBXNPK6SRH4UGB5P6", "dateTime": 1516131473775}, {"current_trial": 228, "trialdata": {"rt": 5102, "trial_type": "text", "internal_node_id": "0.0-165.0", "time_elapsed": 1275092, "key_press": 78, "type": "INSTRUCTIONS", "trial_index": 228}, "uniqueid": "MTK1703:3A9AA95ATXT6ZSBXNPK6SRH4UGB5P6", "dateTime": 1516131480889}, {"current_trial": 229, "trialdata": {"rt": [2427, 3786, 5258, 8210, 9826, 11562, 13282, 14946, 16251, 18843, 20379, 21922, 23826], "trial_type": "math-distractor", "key_times": [1698, 2171, 2427, 3371, 3627, 3786, 4890, 5115, 5258, 6611, 6770, 7123, 7906, 8210, 9554, 9667, 9826, 11122, 11218, 11562, 12994, 13090, 13282, 14594, 14682, 14946, 15882, 16074, 16251, 18507, 18634, 18843, 19859, 20210, 20379, 21490, 21715, 21922, 23698, 23826], "responses": ["16", "15", "14", "18", "12", "20", "22", "20", "13", "11", "13", "14", "5"], "num2": [3, 6, 2, 9, 5, 9, 5, 6, 5, 1, 7, 1, 1, 8], "num3": [4, 4, 5, 8, 5, 5, 9, 7, 3, 3, 1, 7, 3, 3], "conditions": [12, 1600, "v", 24000], "internal_node_id": "0.0-166.0", "key_presses": [49, 54, 13, 49, 53, 13, 49, 52, 13, 49, 56, 8, 56, 13, 49, 50, 13, 50, 48, 13, 50, 50, 13, 50, 48, 13, 49, 51, 13, 49, 49, 13, 49, 51, 13, 49, 52, 13, 53, 13], "trial": 7, "time_elapsed": 1301112, "type": "DISTRACTOR", "trial_index": 229, "num1": [9, 5, 7, 1, 2, 6, 8, 6, 5, 7, 5, 6, 1, 2]}, "uniqueid": "MTK1703:3A9AA95ATXT6ZSBXNPK6SRH4UGB5P6", "dateTime": 1516131506909}, {"current_trial": 230, "trialdata": {"rt": -1, "trial_type": "single-stim", "stimulus": "<p id=\"stim\">10</p>", "internal_node_id": "0.0-167.0-0.0", "time_elapsed": 1304143, "key_press": -1, "trial_index": 230}, "uniqueid": "MTK1703:3A9AA95ATXT6ZSBXNPK6SRH4UGB5P6", "dateTime": 1516131509941}, {"current_trial": 231, "trialdata": {"rt": -1, "trial_type": "single-stim", "stimulus": "<p id=\"stim\">9</p>", "internal_node_id": "0.0-167.0-1.0", "time_elapsed": 1305159, "key_press": -1, "trial_index": 231}, "uniqueid": "MTK1703:3A9AA95ATXT6ZSBXNPK6SRH4UGB5P6", "dateTime": 1516131510956}, {"current_trial": 232, "trialdata": {"rt": -1, "trial_type": "single-stim", "stimulus": "<p id=\"stim\">8</p>", "internal_node_id": "0.0-167.0-2.0", "time_elapsed": 1306175, "key_press": -1, "trial_index": 232}, "uniqueid": "MTK1703:3A9AA95ATXT6ZSBXNPK6SRH4UGB5P6", "dateTime": 1516131511972}, {"current_trial": 233, "trialdata": {"rt": -1, "trial_type": "single-stim", "stimulus": "<p id=\"stim\">7</p>", "internal_node_id": "0.0-167.0-3.0", "time_elapsed": 1307190, "key_press": -1, "trial_index": 233}, "uniqueid": "MTK1703:3A9AA95ATXT6ZSBXNPK6SRH4UGB5P6", "dateTime": 1516131512988}, {"current_trial": 234, "trialdata": {"rt": -1, "trial_type": "single-stim", "stimulus": "<p id=\"stim\">6</p>", "internal_node_id": "0.0-167.0-4.0", "time_elapsed": 1308206, "key_press": -1, "trial_index": 234}, "uniqueid": "MTK1703:3A9AA95ATXT6ZSBXNPK6SRH4UGB5P6", "dateTime": 1516131514003}, {"current_trial": 235, "trialdata": {"rt": -1, "trial_type": "single-stim", "stimulus": "<p id=\"stim\">5</p>", "internal_node_id": "0.0-167.0-5.0", "time_elapsed": 1309221, "key_press": -1, "trial_index": 235}, "uniqueid": "MTK1703:3A9AA95ATXT6ZSBXNPK6SRH4UGB5P6", "dateTime": 1516131515019}, {"current_trial": 236, "trialdata": {"rt": -1, "trial_type": "single-stim", "stimulus": "<p id=\"stim\">4</p>", "internal_node_id": "0.0-167.0-6.0", "time_elapsed": 1310237, "key_press": -1, "trial_index": 236}, "uniqueid": "MTK1703:3A9AA95ATXT6ZSBXNPK6SRH4UGB5P6", "dateTime": 1516131516034}, {"current_trial": 237, "trialdata": {"rt": -1, "trial_type": "single-stim", "stimulus": "<p id=\"stim\">3</p>", "internal_node_id": "0.0-167.0-7.0", "time_elapsed": 1311253, "key_press": -1, "trial_index": 237}, "uniqueid": "MTK1703:3A9AA95ATXT6ZSBXNPK6SRH4UGB5P6", "dateTime": 1516131517050}, {"current_trial": 238, "trialdata": {"rt": -1, "trial_type": "single-stim", "stimulus": "<p id=\"stim\">2</p>", "internal_node_id": "0.0-167.0-8.0", "time_elapsed": 1312268, "key_press": -1, "trial_index": 238}, "uniqueid": "MTK1703:3A9AA95ATXT6ZSBXNPK6SRH4UGB5P6", "dateTime": 1516131518066}, {"current_trial": 239, "trialdata": {"rt": -1, "trial_type": "single-stim", "stimulus": "<p id=\"stim\">1</p>", "internal_node_id": "0.0-167.0-9.0", "time_elapsed": 1313284, "key_press": -1, "trial_index": 239}, "uniqueid": "MTK1703:3A9AA95ATXT6ZSBXNPK6SRH4UGB5P6", "dateTime": 1516131519081}, {"current_trial": 240, "trialdata": {"rt": -1, "trial_type": "single-stim", "stimulus": "<p id=\"stim\">+</p>", "internal_node_id": "0.0-168.0-0.0", "time_elapsed": 1314800, "key_press": -1, "type": "FIXATION", "trial_index": 240}, "uniqueid": "MTK1703:3A9AA95ATXT6ZSBXNPK6SRH4UGB5P6", "dateTime": 1516131520597}, {"current_trial": 241, "trialdata": {"rt": -1, "trial_type": "single-stim", "word": "primate", "stimulus": "<p id=\"stim\">PRIMATE</p>", "conditions": [12, 1600, "v", 24000], "internal_node_id": "0.0-169.0", "trial": 7, "time_elapsed": 1316409, "serialpos": 0, "key_press": -1, "wordID": 1122, "type": "PRES_VIS", "trial_index": 241}, "uniqueid": "MTK1703:3A9AA95ATXT6ZSBXNPK6SRH4UGB5P6", "dateTime": 1516131522206}, {"current_trial": 242, "trialdata": {"rt": -1, "trial_type": "single-stim", "word": "sparrow", "stimulus": "<p id=\"stim\">SPARROW</p>", "conditions": [12, 1600, "v", 24000], "internal_node_id": "0.0-170.0", "trial": 7, "time_elapsed": 1319191, "serialpos": 1, "key_press": -1, "wordID": 1346, "type": "PRES_VIS", "trial_index": 242}, "uniqueid": "MTK1703:3A9AA95ATXT6ZSBXNPK6SRH4UGB5P6", "dateTime": 1516131524988}, {"current_trial": 243, "trialdata": {"rt": -1, "trial_type": "single-stim", "word": "piston", "stimulus": "<p id=\"stim\">PISTON</p>", "conditions": [12, 1600, "v", 24000], "internal_node_id": "0.0-171.0", "trial": 7, "time_elapsed": 1322003, "serialpos": 2, "key_press": -1, "wordID": 1075, "type": "PRES_VIS", "trial_index": 243}, "uniqueid": "MTK1703:3A9AA95ATXT6ZSBXNPK6SRH4UGB5P6", "dateTime": 1516131527800}, {"current_trial": 244, "trialdata": {"rt": -1, "trial_type": "single-stim", "word": "valve", "stimulus": "<p id=\"stim\">VALVE</p>", "conditions": [12, 1600, "v", 24000], "internal_node_id": "0.0-172.0", "trial": 7, "time_elapsed": 1324566, "serialpos": 3, "key_press": -1, "wordID": 1545, "type": "PRES_VIS", "trial_index": 244}, "uniqueid": "MTK1703:3A9AA95ATXT6ZSBXNPK6SRH4UGB5P6", "dateTime": 1516131530363}, {"current_trial": 245, "trialdata": {"rt": -1, "trial_type": "single-stim", "word": "tombstone", "stimulus": "<p id=\"stim\">TOMBSTONE</p>", "conditions": [12, 1600, "v", 24000], "internal_node_id": "0.0-173.0", "trial": 7, "time_elapsed": 1327316, "serialpos": 4, "key_press": -1, "wordID": 1477, "type": "PRES_VIS", "trial_index": 245}, "uniqueid": "MTK1703:3A9AA95ATXT6ZSBXNPK6SRH4UGB5P6", "dateTime": 1516131533113}, {"current_trial": 246, "trialdata": {"rt": -1, "trial_type": "single-stim", "word": "dust", "stimulus": "<p id=\"stim\">DUST</p>", "conditions": [12, 1600, "v", 24000], "internal_node_id": "0.0-174.0", "trial": 7, "time_elapsed": 1330050, "serialpos": 5, "key_press": -1, "wordID": 507, "type": "PRES_VIS", "trial_index": 246}, "uniqueid": "MTK1703:3A9AA95ATXT6ZSBXNPK6SRH4UGB5P6", "dateTime": 1516131535847}, {"current_trial": 247, "trialdata": {"rt": -1, "trial_type": "single-stim", "word": "ozone", "stimulus": "<p id=\"stim\">OZONE</p>", "conditions": [12, 1600, "v", 24000], "internal_node_id": "0.0-175.0", "trial": 7, "time_elapsed": 1332519, "serialpos": 6, "key_press": -1, "wordID": 995, "type": "PRES_VIS", "trial_index": 247}, "uniqueid": "MTK1703:3A9AA95ATXT6ZSBXNPK6SRH4UGB5P6", "dateTime": 1516131538316}, {"current_trial": 248, "trialdata": {"rt": -1, "trial_type": "single-stim", "word": "cowboy", "stimulus": "<p id=\"stim\">COWBOY</p>", "conditions": [12, 1600, "v", 24000], "internal_node_id": "0.0-176.0", "trial": 7, "time_elapsed": 1335206, "serialpos": 7, "key_press": -1, "wordID": 394, "type": "PRES_VIS", "trial_index": 248}, "uniqueid": "MTK1703:3A9AA95ATXT6ZSBXNPK6SRH4UGB5P6", "dateTime": 1516131541003}, {"current_trial": 249, "trialdata": {"rt": -1, "trial_type": "single-stim", "word": "pasta", "stimulus": "<p id=\"stim\">PASTA</p>", "conditions": [12, 1600, "v", 24000], "internal_node_id": "0.0-177.0", "trial": 7, "time_elapsed": 1337972, "serialpos": 8, "key_press": -1, "wordID": 1020, "type": "PRES_VIS", "