{"assignmentId": "3KB8R4ZV1FE2BVZ7LGLW143422TGBU", "workerId": "MTK1489", "questiondata": {"origin": "United States", "strat-rehearsal": "14", "marital": "Married/Domestic Partnership", "education": "Bachelor's degree", "ethnicity": "Not Hispanic", "color_depth": 24, "distracted": "No", "wrote-notes": "Yes", "strat-other": "", "screen_width": 1280, "avail_screen_width": 1280, "avail_screen_height": 773, "strat-image": "5", "language": "english", "gender": "Female", "age": "50", "gender_other": "", "race": ["White"], "strat-categorize": "39", "pixel_depth": 24, "strat-spatial": "1", "strat-story": "84", "race_other": "", "screen_height": 800}, "bonus": 0, "hitId": "3EQPA8A37436XBUU9YH0VF634S9JZI", "counterbalance": 2957, "useragent": "Mozilla/5.0 (Macintosh; Intel Mac OS X 10_10_5) AppleWebKit/537.36 (KHTML, like Gecko) Chrome/63.0.3239.84 Safari/537.36", "eventdata": [{"eventtype": "initialized", "interval": 0, "value": null, "timestamp": 1515948578582}, {"eventtype": "window_resize", "interval": 0, "value": [1280, 722], "timestamp": 1515948578582}], "data": [{"current_trial": 0, "trialdata": {"rt": 2582, "trial_type": "text", "internal_node_id": "0.0-0.0", "time_elapsed": 2585, "key_press": 32, "type": "INSTRUCTIONS", "trial_index": 0}, "uniqueid": "MTK1489:3KB8R4ZV1FE2BVZ7LGLW143422TGBU", "dateTime": 1515948617766}, {"current_trial": 1, "trialdata": {"rt": 31684, "trial_type": "text", "internal_node_id": "0.0-1.0", "time_elapsed": 34271, "key_press": 32, "type": "INSTRUCTIONS", "trial_index": 1}, "uniqueid": "MTK1489:3KB8R4ZV1FE2BVZ7LGLW143422TGBU", "dateTime": 1515948649451}, {"current_trial": 2, "trialdata": {"rt": [17184], "trial_type": "audio-test", "responses": ["ocean"], "internal_node_id": "0.0-2.0", "time_elapsed": 51471, "type": "AUDIO_TEST", "trial_index": 2}, "uniqueid": "MTK1489:3KB8R4ZV1FE2BVZ7LGLW143422TGBU", "dateTime": 1515948666652}, {"current_trial": 3, "trialdata": {"rt": [13922], "trial_type": "audio-test", "responses": ["crystal"], "internal_node_id": "0.0-3.0", "time_elapsed": 65399, "type": "AUDIO_TEST", "trial_index": 3}, "uniqueid": "MTK1489:3KB8R4ZV1FE2BVZ7LGLW143422TGBU", "dateTime": 1515948680579}, {"current_trial": 4, "trialdata": {"rt": [8578], "trial_type": "audio-test", "responses": ["spice"], "internal_node_id": "0.0-4.0", "time_elapsed": 73982, "type": "AUDIO_TEST", "trial_index": 4}, "uniqueid": "MTK1489:3KB8R4ZV1FE2BVZ7LGLW143422TGBU", "dateTime": 1515948689162}, {"current_trial": 5, "trialdata": {"rt": 32032, "trial_type": "survey-text", "responses": "{\"Q0\":\"9:30\",\"Q1\":\"6:00\",\"Q2\":\"4\"}", "internal_node_id": "0.0-5.0", "time_elapsed": 106770, "type": "SLEEP_SURVEY", "trial_index": 5}, "uniqueid": "MTK1489:3KB8R4ZV1FE2BVZ7LGLW143422TGBU", "dateTime": 1515948721950}, {"current_trial": 6, "trialdata": {"rt": 19440, "trial_type": "text", "internal_node_id": "0.0-6.0", "time_elapsed": 127213, "key_press": 40, "type": "INSTRUCTIONS", "trial_index": 6}, "uniqueid": "MTK1489:3KB8R4ZV1FE2BVZ7LGLW143422TGBU", "dateTime": 1515948742393}, {"current_trial": 7, "trialdata": {"rt": 3719, "trial_type": "text", "internal_node_id": "0.0-7.0", "time_elapsed": 131437, "key_press": 38, "type": "INSTRUCTIONS", "trial_index": 7}, "uniqueid": "MTK1489:3KB8R4ZV1FE2BVZ7LGLW143422TGBU", "dateTime": 1515948746617}, {"current_trial": 8, "trialdata": {"rt": 25310, "trial_type": "text", "internal_node_id": "0.0-8.0", "time_elapsed": 157251, "key_press": 40, "type": "INSTRUCTIONS", "trial_index": 8}, "uniqueid": "MTK1489:3KB8R4ZV1FE2BVZ7LGLW143422TGBU", "dateTime": 1515948772431}, {"current_trial": 9, "trialdata": {"rt": [3536, 7272, 10272, 12768, 15136], "trial_type": "math-distractor", "key_times": [2321, 2528, 3536, 6120, 6328, 7272, 9177, 9656, 10272, 11904, 12120, 12768, 14608, 14864, 15136], "responses": ["12", "16", "10", "11", "11"], "num2": [9, 6, 2, 6, 1, 5], "num3": [1, 1, 3, 2, 7, 3], "conditions": [18, 1200, "a", 18000], "internal_node_id": "0.0-9.0", "key_presses": [49, 50, 13, 49, 54, 13, 49, 48, 13, 49, 49, 13, 49, 49, 13], "trial": 0, "time_elapsed": 176259, "type": "DISTRACTOR", "trial_index": 9, "num1": [2, 9, 5, 3, 3, 8]}, "uniqueid": "MTK1489:3KB8R4ZV1FE2BVZ7LGLW143422TGBU", "dateTime": 1515948791439}, {"current_trial": 10, "trialdata": {"rt": -1, "trial_type": "single-stim", "stimulus": "<p id=\"stim\">10</p>", "internal_node_id": "0.0-10.0-0.0", "time_elapsed": 179263, "key_press": -1, "trial_index": 10}, "uniqueid": "MTK1489:3KB8R4ZV1FE2BVZ7LGLW143422TGBU", "dateTime": 1515948794443}, {"current_trial": 11, "trialdata": {"rt": -1, "trial_type": "single-stim", "stimulus": "<p id=\"stim\">9</p>", "internal_node_id": "0.0-10.0-1.0", "time_elapsed": 180268, "key_press": -1, "trial_index": 11}, "uniqueid": "MTK1489:3KB8R4ZV1FE2BVZ7LGLW143422TGBU", "dateTime": 1515948795449}, {"current_trial": 12, "trialdata": {"rt": -1, "trial_type": "single-stim", "stimulus": "<p id=\"stim\">8</p>", "internal_node_id": "0.0-10.0-2.0", "time_elapsed": 181273, "key_press": -1, "trial_index": 12}, "uniqueid": "MTK1489:3KB8R4ZV1FE2BVZ7LGLW143422TGBU", "dateTime": 1515948796453}, {"current_trial": 13, "trialdata": {"rt": -1, "trial_type": "single-stim", "stimulus": "<p id=\"stim\">7</p>", "internal_node_id": "0.0-10.0-3.0", "time_elapsed": 182278, "key_press": -1, "trial_index": 13}, "uniqueid": "MTK1489:3KB8R4ZV1FE2BVZ7LGLW143422TGBU", "dateTime": 1515948797458}, {"current_trial": 14, "trialdata": {"rt": -1, "trial_type": "single-stim", "stimulus": "<p id=\"stim\">6</p>", "internal_node_id": "0.0-10.0-4.0", "time_elapsed": 183283, "key_press": -1, "trial_index": 14}, "uniqueid": "MTK1489:3KB8R4ZV1FE2BVZ7LGLW143422TGBU", "dateTime": 1515948798463}, {"current_trial": 15, "trialdata": {"rt": -1, "trial_type": "single-stim", "stimulus": "<p id=\"stim\">5</p>", "internal_node_id": "0.0-10.0-5.0", "time_elapsed": 184285, "key_press": -1, "trial_index": 15}, "uniqueid": "MTK1489:3KB8R4ZV1FE2BVZ7LGLW143422TGBU", "dateTime": 1515948799465}, {"current_trial": 16, "trialdata": {"rt": -1, "trial_type": "single-stim", "stimulus": "<p id=\"stim\">4</p>", "internal_node_id": "0.0-10.0-6.0", "time_elapsed": 185288, "key_press": -1, "trial_index": 16}, "uniqueid": "MTK1489:3KB8R4ZV1FE2BVZ7LGLW143422TGBU", "dateTime": 1515948800468}, {"current_trial": 17, "trialdata": {"rt": -1, "trial_type": "single-stim", "stimulus": "<p id=\"stim\">3</p>", "internal_node_id": "0.0-10.0-7.0", "time_elapsed": 186294, "key_press": -1, "trial_index": 17}, "uniqueid": "MTK1489:3KB8R4ZV1FE2BVZ7LGLW143422TGBU", "dateTime": 1515948801474}, {"current_trial": 18, "trialdata": {"rt": -1, "trial_type": "single-stim", "stimulus": "<p id=\"stim\">2</p>", "internal_node_id": "0.0-10.0-8.0", "time_elapsed": 187299, "key_press": -1, "trial_index": 18}, "uniqueid": "MTK1489:3KB8R4ZV1FE2BVZ7LGLW143422TGBU", "dateTime": 1515948802479}, {"current_trial": 19, "trialdata": {"rt": -1, "trial_type": "single-stim", "stimulus": "<p id=\"stim\">1</p>", "internal_node_id": "0.0-10.0-9.0", "time_elapsed": 188304, "key_press": -1, "trial_index": 19}, "uniqueid": "MTK1489:3KB8R4ZV1FE2BVZ7LGLW143422TGBU", "dateTime": 1515948803484}, {"current_trial": 20, "trialdata": {"rt": -1, "trial_type": "single-stim", "stimulus": "<p id=\"stim\">+</p>", "internal_node_id": "0.0-11.0-0.0", "time_elapsed": 189810, "key_press": -1, "type": "FIXATION", "trial_index": 20}, "uniqueid": "MTK1489:3KB8R4ZV1FE2BVZ7LGLW143422TGBU", "dateTime": 1515948804990}, {"current_trial": 21, "trialdata": {"rt": -1000, "trial_type": "single-audio", "word": "monster", "stimulus": "/static/audio/wordpool/MONSTER.wav", "conditions": [18, 1200, "a", 18000], "internal_node_id": "0.0-12.0", "trial": 0, "time_elapsed": 191847, "serialpos": 0, "key_press": -1, "wordID": 911, "type": "PRES_AUD", "trial_index": 21}, "uniqueid": "MTK1489:3KB8R4ZV1FE2BVZ7LGLW143422TGBU", "dateTime": 1515948807027}, {"current_trial": 22, "trialdata": {"rt": -1000, "trial_type": "single-audio", "word": "nightgown", "stimulus": "/static/audio/wordpool/NIGHTGOWN.wav", "conditions": [18, 1200, "a", 18000], "internal_node_id": "0.0-13.0", "trial": 0, "time_elapsed": 194192, "serialpos": 1, "key_press": -1, "wordID": 952, "type": "PRES_AUD", "trial_index": 22}, "uniqueid": "MTK1489:3KB8R4ZV1FE2BVZ7LGLW143422TGBU", "dateTime": 1515948809373}, {"current_trial": 23, "trialdata": {"rt": -1000, "trial_type": "single-audio", "word": "scarecrow", "stimulus": "/static/audio/wordpool/SCARECROW.wav", "conditions": [18, 1200, "a", 18000], "internal_node_id": "0.0-14.0", "trial": 0, "time_elapsed": 196543, "serialpos": 2, "key_press": -1, "wordID": 1244, "type": "PRES_AUD", "trial_index": 23}, "uniqueid": "MTK1489:3KB8R4ZV1FE2BVZ7LGLW143422TGBU", "dateTime": 1515948811723}, {"current_trial": 24, "trialdata": {"rt": -1000, "trial_type": "single-audio", "word": "country", "stimulus": "/static/audio/wordpool/COUNTRY.wav", "conditions": [18, 1200, "a", 18000], "internal_node_id": "0.0-15.0", "trial": 0, "time_elapsed": 198576, "serialpos": 3, "key_press": -1, "wordID": 387, "type": "PRES_AUD", "trial_index": 24}, "uniqueid": "MTK1489:3KB8R4ZV1FE2BVZ7LGLW143422TGBU", "dateTime": 1515948813757}, {"current_trial": 25, "trialdata": {"rt": -1000, "trial_type": "single-audio", "word": "donor", "stimulus": "/static/audio/wordpool/DONOR.wav", "conditions": [18, 1200, "a", 18000], "internal_node_id": "0.0-16.0", "trial": 0, "time_elapsed": 200669, "serialpos": 4, "key_press": -1, "wordID": 484, "type": "PRES_AUD", "trial_index": 25}, "uniqueid": "MTK1489:3KB8R4ZV1FE2BVZ7LGLW143422TGBU", "dateTime": 1515948815849}, {"current_trial": 26, "trialdata": {"rt": -1000, "trial_type": "single-audio", "word": "shortcake", "stimulus": "/static/audio/wordpool/SHORTCAKE.wav", "conditions": [18, 1200, "a", 18000], "internal_node_id": "0.0-17.0", "trial": 0, "time_elapsed": 202754, "serialpos": 5, "key_press": -1, "wordID": 1291, "type": "PRES_AUD", "trial_index": 26}, "uniqueid": "MTK1489:3KB8R4ZV1FE2BVZ7LGLW143422TGBU", "dateTime": 1515948817934}, {"current_trial": 27, "trialdata": {"rt": -1000, "trial_type": "single-audio", "word": "egypt", "stimulus": "/static/audio/wordpool/EGYPT.wav", "conditions": [18, 1200, "a", 18000], "internal_node_id": "0.0-18.0", "trial": 0, "time_elapsed": 204844, "serialpos": 6, "key_press": -1, "wordID": 518, "type": "PRES_AUD", "trial_index": 27}, "uniqueid": "MTK1489:3KB8R4ZV1FE2BVZ7LGLW143422TGBU", "dateTime": 1515948820024}, {"current_trial": 28, "trialdata": {"rt": -1000, "trial_type": "single-audio", "word": "sunrise", "stimulus": "/static/audio/wordpool/SUNRISE.wav", "conditions": [18, 1200, "a", 18000], "internal_node_id": "0.0-19.0", "trial": 0, "time_elapsed": 206998, "serialpos": 7, "key_press": -1, "wordID": 1406, "type": "PRES_AUD", "trial_index": 28}, "uniqueid": "MTK1489:3KB8R4ZV1FE2BVZ7LGLW143422TGBU", "dateTime": 1515948822178}, {"current_trial": 29, "trialdata": {"rt": -1000, "trial_type": "single-audio", "word": "necklace", "stimulus": "/static/audio/wordpool/NECKLACE.wav", "conditions": [18, 1200, "a", 18000], "internal_node_id": "0.0-20.0", "trial": 0, "time_elapsed": 209204, "serialpos": 8, "key_press": -1, "wordID": 939, "type": "PRES_AUD", "trial_index": 29}, "uniqueid": "MTK1489:3KB8R4ZV1FE2BVZ7LGLW143422TGBU", "dateTime": 1515948824384}, {"current_trial": 30, "trialdata": {"rt": -1000, "trial_type": "single-audio", "word": "milk", "stimulus": "/static/audio/wordpool/MILK.wav", "conditions": [18, 1200, "a", 18000], "internal_node_id": "0.0-21.0", "trial": 0, "time_elapsed": 211230, "serialpos": 9, "key_press": -1, "wordID": 894, "type": "PRES_AUD", "trial_index": 30}, "uniqueid": "MTK1489:3KB8R4ZV1FE2BVZ7LGLW143422TGBU", "dateTime": 1515948826410}, {"current_trial": 31, "trialdata": {"rt": -1000, "trial_type": "single-audio", "word": "island", "stimulus": "/static/audio/wordpool/ISLAND.wav", "conditions": [18, 1200, "a", 18000], "internal_node_id": "0.0-22.0", "trial": 0, "time_elapsed": 213308, "serialpos": 10, "key_press": -1, "wordID": 744, "type": "PRES_AUD", "trial_index": 31}, "uniqueid": "MTK1489:3KB8R4ZV1FE2BVZ7LGLW143422TGBU", "dateTime": 1515948828488}, {"current_trial": 32, "trialdata": {"rt": -1000, "trial_type": "single-audio", "word": "toaster", "stimulus": "/static/audio/wordpool/TOASTER.wav", "conditions": [18, 1200, "a", 18000], "internal_node_id": "0.0-23.0", "trial": 0, "time_elapsed": 215368, "serialpos": 11, "key_press": -1, "wordID": 1471, "type": "PRES_AUD", "trial_index": 32}, "uniqueid": "MTK1489:3KB8R4ZV1FE2BVZ7LGLW143422TGBU", "dateTime": 1515948830548}, {"current_trial": 33, "trialdata": {"rt": -1000, "trial_type": "single-audio", "word": "lamp", "stimulus": "/static/audio/wordpool/LAMP.wav", "conditions": [18, 1200, "a", 18000], "internal_node_id": "0.0-24.0", "trial": 0, "time_elapsed": 217756, "serialpos": 12, "key_press": -1, "wordID": 797, "type": "PRES_AUD", "trial_index": 33}, "uniqueid": "MTK1489:3KB8R4ZV1FE2BVZ7LGLW143422TGBU", "dateTime": 1515948832936}, {"current_trial": 34, "trialdata": {"rt": -1000, "trial_type": "single-audio", "word": "stream", "stimulus": "/static/audio/wordpool/STREAM.wav", "conditions": [18, 1200, "a", 18000], "internal_node_id": "0.0-25.0", "trial": 0, "time_elapsed": 219936, "serialpos": 13, "key_press": -1, "wordID": 1391, "type": "PRES_AUD", "trial_index": 34}, "uniqueid": "MTK1489:3KB8R4ZV1FE2BVZ7LGLW143422TGBU", "dateTime": 1515948835117}, {"current_trial": 35, "trialdata": {"rt": -1000, "trial_type": "single-audio", "word": "jungle", "stimulus": "/static/audio/wordpool/JUNGLE.wav", "conditions": [18, 1200, "a", 18000], "internal_node_id": "0.0-26.0", "trial": 0, "time_elapsed": 222026, "serialpos": 14, "key_press": -1, "wordID": 763, "type": "PRES_AUD", "trial_index": 35}, "uniqueid": "MTK1489:3KB8R4ZV1FE2BVZ7LGLW143422TGBU", "dateTime": 1515948837206}, {"current_trial": 36, "trialdata": {"rt": -1000, "trial_type": "single-audio", "word": "crib", "stimulus": "/static/audio/wordpool/CRIB.wav", "conditions": [18, 1200, "a", 18000], "internal_node_id": "0.0-27.0", "trial": 0, "time_elapsed": 224064, "serialpos": 15, "key_press": -1, "wordID": 406, "type": "PRES_AUD", "trial_index": 36}, "uniqueid": "MTK1489:3KB8R4ZV1FE2BVZ7LGLW143422TGBU", "dateTime": 1515948839244}, {"current_trial": 37, "trialdata": {"rt": -1000, "trial_type": "single-audio", "word": "cocktail", "stimulus": "/static/audio/wordpool/COCKTAIL.wav", "conditions": [18, 1200, "a", 18000], "internal_node_id": "0.0-28.0", "trial": 0, "time_elapsed": 226312, "serialpos": 16, "key_press": -1, "wordID": 337, "type": "PRES_AUD", "trial_index": 37}, "uniqueid": "MTK1489:3KB8R4ZV1FE2BVZ7LGLW143422TGBU", "dateTime": 1515948841492}, {"current_trial": 38, "trialdata": {"rt": -1000, "trial_type": "single-audio", "word": "ulcer", "stimulus": "/static/audio/wordpool/ULCER.wav", "conditions": [18, 1200, "a", 18000], "internal_node_id": "0.0-29.0", "trial": 0, "time_elapsed": 228621, "serialpos": 17, "key_press": -1, "wordID": 1532, "type": "PRES_AUD", "trial_index": 38}, "uniqueid": "MTK1489:3KB8R4ZV1FE2BVZ7LGLW143422TGBU", "dateTime": 1515948843801}, {"current_trial": 39, "trialdata": {"rt": -1, "trial_type": "single-stim", "stimulus": "", "internal_node_id": "0.0-30.0-0.0", "time_elapsed": 229992, "key_press": -1, "type": "PRE_RECALL_DELAY", "trial_index": 39}, "uniqueid": "MTK1489:3KB8R4ZV1FE2BVZ7LGLW143422TGBU", "dateTime": 1515948845172}, {"current_trial": 40, "trialdata": {"rt": -1000, "trial_type": "single-audio", "stimulus": "/static/audio/400Hz.wav", "internal_node_id": "0.0-31.0", "time_elapsed": 230494, "key_press": -1, "type": "PRE_RECALL_ALERT", "trial_index": 40}, "uniqueid": "MTK1489:3KB8R4ZV1FE2BVZ7LGLW143422TGBU", "dateTime": 1515948845674}, {"current_trial": 41, "trialdata": {"rt": [5205, 9317, 14676, 20732, 29960, 30460, 30544, 53762], "recwords": ["crib", "ulcer", "monster", "costume", "", "", "", "ball"], "key_times": [2782, 3053, 4005, 4397, 5205, 6413, 6981, 7549, 7901, 8149, 9317, 11541, 11844, 12157, 12684, 13037, 13325, 13596, 14676, 16452, 17092, 17580, 18228, 18708, 19084, 19564, 20732, 29960, 30460, 30544, 51659, 52114, 53122, 53410, 53762], "trial_type": "free-recall", "conditions": [18, 1200, "a", 18000], "internal_node_id": "0.0-32.0-0.0", "key_presses": [67, 82, 73, 66, 13, 85, 76, 67, 69, 82, 13, 77, 79, 78, 83, 84, 69, 82, 13, 67, 79, 83, 84, 85, 77, 69, 13, 13, 13, 13, 66, 65, 76, 76, 13], "trial": 0, "time_elapsed": 290496, "type": "FREE_RECALL", "trial_index": 41}, "uniqueid": "MTK1489:3KB8R4ZV1FE2BVZ7LGLW143422TGBU", "dateTime": 1515948905679}, {"current_trial": 42, "trialdata": {"rt": 1860, "trial_type": "text", "internal_node_id": "0.0-33.0", "time_elapsed": 294364, "key_press": 13, "type": "INSTRUCTIONS", "trial_index": 42}, "uniqueid": "MTK1489:3KB8R4ZV1FE2BVZ7LGLW143422TGBU", "dateTime": 1515948909544}, {"current_trial": 43, "trialdata": {"rt": [3397, 5806, 10646, 13349, 16317], "trial_type": "math-distractor", "key_times": [2901, 3062, 3397, 4901, 5238, 5806, 9678, 9838, 10646, 12157, 12485, 13349, 15149, 15557, 16317, 17965], "responses": ["11", "18", "23", "14", "19"], "num2": [5, 5, 5, 5, 4, 1], "num3": [3, 5, 8, 5, 7, 7], "conditions": [18, 1200, "a", 18000], "internal_node_id": "0.0-34.0", "key_presses": [49, 49, 13, 49, 56, 13, 50, 51, 13, 49, 52, 13, 49, 57, 13, 49], "trial": 1, "time_elapsed": 314373, "type": "DISTRACTOR", "trial_index": 43, "num1": [3, 8, 9, 4, 8, 7]}, "uniqueid": "MTK1489:3KB8R4ZV1FE2BVZ7LGLW143422TGBU", "dateTime": 1515948929553}, {"current_trial": 44, "trialdata": {"rt": -1, "trial_type": "single-stim", "stimulus": "<p id=\"stim\">10</p>", "internal_node_id": "0.0-35.0-0.0", "time_elapsed": 317379, "key_press": -1, "trial_index": 44}, "uniqueid": "MTK1489:3KB8R4ZV1FE2BVZ7LGLW143422TGBU", "dateTime": 1515948932559}, {"current_trial": 45, "trialdata": {"rt": -1, "trial_type": "single-stim", "stimulus": "<p id=\"stim\">9</p>", "internal_node_id": "0.0-35.0-1.0", "time_elapsed": 318383, "key_press": -1, "trial_index": 45}, "uniqueid": "MTK1489:3KB8R4ZV1FE2BVZ7LGLW143422TGBU", "dateTime": 1515948933563}, {"current_trial": 46, "trialdata": {"rt": -1, "trial_type": "single-stim", "stimulus": "<p id=\"stim\">8</p>", "internal_node_id": "0.0-35.0-2.0", "time_elapsed": 319387, "key_press": -1, "trial_index": 46}, "uniqueid": "MTK1489:3KB8R4ZV1FE2BVZ7LGLW143422TGBU", "dateTime": 1515948934567}, {"current_trial": 47, "trialdata": {"rt": -1, "trial_type": "single-stim", "stimulus": "<p id=\"stim\">7</p>", "internal_node_id": "0.0-35.0-3.0", "time_elapsed": 320391, "key_press": -1, "trial_index": 47}, "uniqueid": "MTK1489:3KB8R4ZV1FE2BVZ7LGLW143422TGBU", "dateTime": 1515948935571}, {"current_trial": 48, "trialdata": {"rt": -1, "trial_type": "single-stim", "stimulus": "<p id=\"stim\">6</p>", "internal_node_id": "0.0-35.0-4.0", "time_elapsed": 321395, "key_press": -1, "trial_index": 48}, "uniqueid": "MTK1489:3KB8R4ZV1FE2BVZ7LGLW143422TGBU", "dateTime": 1515948936575}, {"current_trial": 49, "trialdata": {"rt": -1, "trial_type": "single-stim", "stimulus": "<p id=\"stim\">5</p>", "internal_node_id": "0.0-35.0-5.0", "time_elapsed": 322399, "key_press": -1, "trial_index": 49}, "uniqueid": "MTK1489:3KB8R4ZV1FE2BVZ7LGLW143422TGBU", "dateTime": 1515948937579}, {"current_trial": 50, "trialdata": {"rt": -1, "trial_type": "single-stim", "stimulus": "<p id=\"stim\">4</p>", "internal_node_id": "0.0-35.0-6.0", "time_elapsed": 323401, "key_press": -1, "trial_index": 50}, "uniqueid": "MTK1489:3KB8R4ZV1FE2BVZ7LGLW143422TGBU", "dateTime": 1515948938581}, {"current_trial": 51, "trialdata": {"rt": -1, "trial_type": "single-stim", "stimulus": "<p id=\"stim\">3</p>", "internal_node_id": "0.0-35.0-7.0", "time_elapsed": 324402, "key_press": -1, "trial_index": 51}, "uniqueid": "MTK1489:3KB8R4ZV1FE2BVZ7LGLW143422TGBU", "dateTime": 1515948939582}, {"current_trial": 52, "trialdata": {"rt": -1, "trial_type": "single-stim", "stimulus": "<p id=\"stim\">2</p>", "internal_node_id": "0.0-35.0-8.0", "time_elapsed": 325406, "key_press": -1, "trial_index": 52}, "uniqueid": "MTK1489:3KB8R4ZV1FE2BVZ7LGLW143422TGBU", "dateTime": 1515948940586}, {"current_trial": 53, "trialdata": {"rt": -1, "trial_type": "single-stim", "stimulus": "<p id=\"stim\">1</p>", "internal_node_id": "0.0-35.0-9.0", "time_elapsed": 326410, "key_press": -1, "trial_index": 53}, "uniqueid": "MTK1489:3KB8R4ZV1FE2BVZ7LGLW143422TGBU", "dateTime": 1515948941590}, {"current_trial": 54, "trialdata": {"rt": -1, "trial_type": "single-stim", "stimulus": "<p id=\"stim\">+</p>", "internal_node_id": "0.0-36.0-0.0", "time_elapsed": 327913, "key_press": -1, "type": "FIXATION", "trial_index": 54}, "uniqueid": "MTK1489:3KB8R4ZV1FE2BVZ7LGLW143422TGBU", "dateTime": 1515948943093}, {"current_trial": 55, "trialdata": {"rt": -1000, "trial_type": "single-audio", "word": "lace", "stimulus": "/static/audio/wordpool/LACE.wav", "conditions": [18, 1200, "a", 18000], "internal_node_id": "0.0-37.0", "trial": 1, "time_elapsed": 329938, "serialpos": 0, "key_press": -1, "wordID": 791, "type": "PRES_AUD", "trial_index": 55}, "uniqueid": "MTK1489:3KB8R4ZV1FE2BVZ7LGLW143422TGBU", "dateTime": 1515948945118}, {"current_trial": 56, "trialdata": {"rt": -1000, "trial_type": "single-audio", "word": "umpire", "stimulus": "/static/audio/wordpool/UMPIRE.wav", "conditions": [18, 1200, "a", 18000], "internal_node_id": "0.0-38.0", "trial": 1, "time_elapsed": 332277, "serialpos": 1, "key_press": -1, "wordID": 1534, "type": "PRES_AUD", "trial_index": 56}, "uniqueid": "MTK1489:3KB8R4ZV1FE2BVZ7LGLW143422TGBU", "dateTime": 1515948947457}, {"current_trial": 57, "trialdata": {"rt": -1000, "trial_type": "single-audio", "word": "knife", "stimulus": "/static/audio/wordpool/KNIFE.wav", "conditions": [18, 1200, "a", 18000], "internal_node_id": "0.0-39.0", "trial": 1, "time_elapsed": 334471, "serialpos": 2, "key_press": -1, "wordID": 784, "type": "PRES_AUD", "trial_index": 57}, "uniqueid": "MTK1489:3KB8R4ZV1FE2BVZ7LGLW143422TGBU", "dateTime": 1515948949652}, {"current_trial": 58, "trialdata": {"rt": -1000, "trial_type": "single-audio", "word": "crab", "stimulus": "/static/audio/wordpool/CRAB.wav", "conditions": [18, 1200, "a", 18000], "internal_node_id": "0.0-40.0", "trial": 1, "time_elapsed": 336781, "serialpos": 3, "key_press": -1, "wordID": 396, "type": "PRES_AUD", "trial_index": 58}, "uniqueid": "MTK1489:3KB8R4ZV1FE2BVZ7LGLW143422TGBU", "dateTime": 1515948951962}, {"current_trial": 59, "trialdata": {"rt": -1000, "trial_type": "single-audio", "word": "grill", "stimulus": "/static/audio/wordpool/GRILL.wav", "conditions": [18, 1200, "a", 18000], "internal_node_id": "0.0-41.0", "trial": 1, "time_elapsed": 338993, "serialpos": 4, "key_press": -1, "wordID": 660, "type": "PRES_AUD", "trial_index": 59}, "uniqueid": "MTK1489:3KB8R4ZV1FE2BVZ7LGLW143422TGBU", "dateTime": 1515948954173}, {"current_trial": 60, "trialdata": {"rt": -1000, "trial_type": "single-audio", "word": "cocoon", "stimulus": "/static/audio/wordpool/COCOON.wav", "conditions": [18, 1200, "a", 18000], "internal_node_id": "0.0-42.0", "trial": 1, "time_elapsed": 341234, "serialpos": 5, "key_press": -1, "wordID": 338, "type": "PRES_AUD", "trial_index": 60}, "uniqueid": "MTK1489:3KB8R4ZV1FE2BVZ7LGLW143422TGBU", "dateTime": 1515948956414}, {"current_trial": 61, "trialdata": {"rt": -1000, "trial_type": "single-audio", "word": "seagull", "stimulus": "/static/audio/wordpool/SEAGULL.wav", "conditions": [18, 1200, "a", 18000], "internal_node_id": "0.0-43.0", "trial": 1, "time_elapsed": 343471, "serialpos": 6, "key_press": -1, "wordID": 1260, "type": "PRES_AUD", "trial_index": 61}, "uniqueid": "MTK1489:3KB8R4ZV1FE2BVZ7LGLW143422TGBU", "dateTime": 1515948958651}, {"current_trial": 62, "trialdata": {"rt": -1000, "trial_type": "single-audio", "word": "marine", "stimulus": "/static/audio/wordpool/MARINE.wav", "conditions": [18, 1200, "a", 18000], "internal_node_id": "0.0-44.0", "trial": 1, "time_elapsed": 345680, "serialpos": 7, "key_press": -1, "wordID": 868, "type": "PRES_AUD", "trial_index": 62}, "uniqueid": "MTK1489:3KB8R4ZV1FE2BVZ7LGLW143422TGBU", "dateTime": 1515948960860}, {"current_trial": 63, "trialdata": {"rt": -1000, "trial_type": "single-audio", "word": "diver", "stimulus": "/static/audio/wordpool/DIVER.wav", "conditions": [18, 1200, "a", 18000], "internal_node_id": "0.0-45.0", "trial": 1, "time_elapsed": 347828, "serialpos": 8, "key_press": -1, "wordID": 475, "type": "PRES_AUD", "trial_index": 63}, "uniqueid": "MTK1489:3KB8R4ZV1FE2BVZ7LGLW143422TGBU", "dateTime": 1515948963008}, {"current_trial": 64, "trialdata": {"rt": -1000, "trial_type": "single-audio", "word": "author", "stimulus": "/static/audio/wordpool/AUTHOR.wav", "conditions": [18, 1200, "a", 18000], "internal_node_id": "0.0-46.0", "trial": 1, "time_elapsed": 349981, "serialpos": 9, "key_press": -1, "wordID": 60, "type": "PRES_AUD", "trial_index": 64}, "uniqueid": "MTK1489:3KB8R4ZV1FE2BVZ7LGLW143422TGBU", "dateTime": 1515948965162}, {"current_trial": 65, "trialdata": {"rt": -1000, "trial_type": "single-audio", "word": "blackboard", "stimulus": "/static/audio/wordpool/BLACKBOARD.wav", "conditions": [18, 1200, "a", 18000], "internal_node_id": "0.0-47.0", "trial": 1, "time_elapsed": 352013, "serialpos": 10, "key_press": -1, "wordID": 132, "type": "PRES_AUD", "trial_index": 65}, "uniqueid": "MTK1489:3KB8R4ZV1FE2BVZ7LGLW143422TGBU", "dateTime": 1515948967193}, {"current_trial": 66, "trialdata": {"rt": -1000, "trial_type": "single-audio", "word": "sphinx", "stimulus": "/static/audio/wordpool/SPHINX.wav", "conditions": [18, 1200, "a", 18000], "internal_node_id": "0.0-48.0", "trial": 1, "time_elapsed": 354351, "serialpos": 11, "key_press": -1, "wordID": 1348, "type": "PRES_AUD", "trial_index": 66}, "uniqueid": "MTK1489:3KB8R4ZV1FE2BVZ7LGLW143422TGBU", "dateTime": 1515948969531}, {"current_trial": 67, "trialdata": {"rt": -1000, "trial_type": "single-audio", "word": "valley", "stimulus": "/static/audio/wordpool/VALLEY.wav", "conditions": [18, 1200, "a", 18000], "internal_node_id": "0.0-49.0", "trial": 1, "time_elapsed": 356649, "serialpos": 12, "key_press": -1, "wordID": 1544, "type": "PRES_AUD", "trial_index": 67}, "uniqueid": "MTK1489:3KB8R4ZV1FE2BVZ7LGLW143422TGBU", "dateTime": 1515948971829}, {"current_trial": 68, "trialdata": {"rt": -1000, "trial_type": "single-audio", "word": "concert", "stimulus": "/static/audio/wordpool/CONCERT.wav", "conditions": [18, 1200, "a", 18000], "internal_node_id": "0.0-50.0", "trial": 1, "time_elapsed": 358807, "serialpos": 13, "key_press": -1, "wordID": 359, "type": "PRES_AUD", "trial_index": 68}, "uniqueid": "MTK1489:3KB8R4ZV1FE2BVZ7LGLW143422TGBU", "dateTime": 1515948973989}, {"current_trial": 69, "trialdata": {"rt": -1000, "trial_type": "single-audio", "word": "fireman", "stimulus": "/static/audio/wordpool/FIREMAN.wav", "conditions": [18, 1200, "a", 18000], "internal_node_id": "0.0-51.0", "trial": 1, "time_elapsed": 361179, "serialpos": 14, "key_press": -1, "wordID": 568, "type": "PRES_AUD", "trial_index": 69}, "uniqueid": "MTK1489:3KB8R4ZV1FE2BVZ7LGLW143422TGBU", "dateTime": 1515948976359}, {"current_trial": 70, "trialdata": {"rt": -1000, "trial_type": "single-audio", "word": "lodge", "stimulus": "/static/audio/wordpool/LODGE.wav", "conditions": [18, 1200, "a", 18000], "internal_node_id": "0.0-52.0", "trial": 1, "time_elapsed": 363182, "serialpos": 15, "key_press": -1, "wordID": 838, "type": "PRES_AUD", "trial_index": 70}, "uniqueid": "MTK1489:3KB8R4ZV1FE2BVZ7LGLW143422TGBU", "dateTime": 1515948978362}, {"current_trial": 71, "trialdata": {"rt": -1000, "trial_type": "single-audio", "word": "patrol", "stimulus": "/static/audio/wordpool/PATROL.wav", "conditions": [18, 1200, "a", 18000], "internal_node_id": "0.0-53.0", "trial": 1, "time_elapsed": 365515, "serialpos": 16, "key_press": -1, "wordID": 1026, "type": "PRES_AUD", "trial_index": 71}, "uniqueid": "MTK1489:3KB8R4ZV1FE2BVZ7LGLW143422TGBU", "dateTime": 1515948980695}, {"current_trial": 72, "trialdata": {"rt": -1000, "trial_type": "single-audio", "word": "star", "stimulus": "/static/audio/wordpool/STAR.wav", "conditions": [18, 1200, "a", 18000], "internal_node_id": "0.0-54.0", "trial": 1, "time_elapsed": 367616, "serialpos": 17, "key_press": -1, "wordID": 1372, "type": "PRES_AUD", "trial_index": 72}, "uniqueid": "MTK1489:3KB8R4ZV1FE2BVZ7LGLW143422TGBU", "dateTime": 1515948982797}, {"current_trial": 73, "trialdata": {"rt": -1, "trial_type": "single-stim", "stimulus": "", "internal_node_id": "0.0-55.0-0.0", "time_elapsed": 368923, "key_press": -1, "type": "PRE_RECALL_DELAY", "trial_index": 73}, "uniqueid": "MTK1489:3KB8R4ZV1FE2BVZ7LGLW143422TGBU", "dateTime": 1515948984103}, {"current_trial": 74, "trialdata": {"rt": -1000, "trial_type": "single-audio", "stimulus": "/static/audio/400Hz.wav", "internal_node_id": "0.0-56.0", "time_elapsed": 369424, "key_press": -1, "type": "PRE_RECALL_ALERT", "trial_index": 74}, "uniqueid": "MTK1489:3KB8R4ZV1FE2BVZ7LGLW143422TGBU", "dateTime": 1515948984604}, {"current_trial": 75, "trialdata": {"rt": [4456, 9352, 12592, 15136, 18928, 23088, 27512, 33439, 39079], "recwords": ["star", "patrolman", "marine", "crab", "grill", "crab", "knife", "phynx", "author"], "key_times": [1465, 1657, 1945, 2761, 4456, 5672, 6008, 6448, 6880, 7184, 7512, 8224, 8600, 8816, 9352, 10152, 10424, 10736, 11521, 11816, 12160, 12592, 13152, 13384, 13712, 14640, 15136, 15824, 16128, 16728, 17072, 17280, 18928, 21136, 21633, 22352, 22624, 23088, 24208, 24432, 25160, 25568, 25832, 27512, 29192, 29759, 30063, 31127, 32008, 33439, 36759, 37199, 37447, 37687, 38247, 38695, 39079], "trial_type": "free-recall", "conditions": [18, 1200, "a", 18000], "internal_node_id": "0.0-57.0-0.0", "key_presses": [83, 84, 65, 82, 13, 80, 65, 84, 82, 79, 76, 77, 65, 78, 13, 77, 65, 82, 73, 78, 69, 13, 67, 82, 65, 66, 13, 71, 82, 73, 76, 76, 13, 67, 82, 65, 66, 13, 75, 78, 73, 70, 69, 13, 80, 72, 89, 78, 88, 13, 65, 85, 84, 72, 79, 82, 13], "trial": 1, "time_elapsed": 429429, "type": "FREE_RECALL", "trial_index": 75}, "uniqueid": "MTK1489:3KB8R4ZV1FE2BVZ7LGLW143422TGBU", "dateTime": 1515949044611}, {"current_trial": 76, "trialdata": {"rt": 4918, "trial_type": "text", "internal_node_id": "0.0-58.0", "time_elapsed": 436355, "key_press": 13, "type": "INSTRUCTIONS", "trial_index": 76}, "uniqueid": "MTK1489:3KB8R4ZV1FE2BVZ7LGLW143422TGBU", "dateTime": 1515949051535}, {"current_trial": 77, "trialdata": {"rt": [4013, 6149, 8852, 11612], "trial_type": "math-distractor", "key_times": [2053, 3149, 4013, 5645, 5901, 6149, 8229, 8852, 10509, 10756, 11612], "responses": ["12", "11", "9", "14"], "num2": [5, 6, 6, 5, 9], "num3": [4, 3, 2, 5, 5], "conditions": [12, 800, "a", 12000], "internal_node_id": "0.0-59.0", "key_presses": [49, 50, 13, 49, 49, 13, 57, 13, 49, 52, 13], "trial": 2, "time_elapsed": 449358, "type": "DISTRACTOR", "trial_index": 77, "num1": [3, 2, 1, 4, 6]}, "uniqueid": "MTK1489:3KB8R4ZV1FE2BVZ7LGLW143422TGBU", "dateTime": 1515949064539}, {"current_trial": 78, "trialdata": {"rt": -1, "trial_type": "single-stim", "stimulus": "<p id=\"stim\">10</p>", "internal_node_id": "0.0-60.0-0.0", "time_elapsed": 452364, "key_press": -1, "trial_index": 78}, "uniqueid": "MTK1489:3KB8R4ZV1FE2BVZ7LGLW143422TGBU", "dateTime": 1515949067544}, {"current_trial": 79, "trialdata": {"rt": -1, "trial_type": "single-stim", "stimulus": "<p id=\"stim\">9</p>", "internal_node_id": "0.0-60.0-1.0", "time_elapsed": 453368, "key_press": -1, "trial_index": 79}, "uniqueid": "MTK1489:3KB8R4ZV1FE2BVZ7LGLW143422TGBU", "dateTime": 1515949068549}, {"current_trial": 80, "trialdata": {"rt": -1, "trial_type": "single-stim", "stimulus": "<p id=\"stim\">8</p>", "internal_node_id": "0.0-60.0-2.0", "time_elapsed": 454370, "key_press": -1, "trial_index": 80}, "uniqueid": "MTK1489:3KB8R4ZV1FE2BVZ7LGLW143422TGBU", "dateTime": 1515949069550}, {"current_trial": 81, "trialdata": {"rt": -1, "trial_type": "single-stim", "stimulus": "<p id=\"stim\">7</p>", "internal_node_id": "0.0-60.0-3.0", "time_elapsed": 455373, "key_press": -1, "trial_index": 81}, "uniqueid": "MTK1489:3KB8R4ZV1FE2BVZ7LGLW143422TGBU", "dateTime": 1515949070553}, {"current_trial": 82, "trialdata": {"rt": -1, "trial_type": "single-stim", "stimulus": "<p id=\"stim\">6</p>", "internal_node_id": "0.0-60.0-4.0", "time_elapsed": 456375, "key_press": -1, "trial_index": 82}, "uniqueid": "MTK1489:3KB8R4ZV1FE2BVZ7LGLW143422TGBU", "dateTime": 1515949071555}, {"current_trial": 83, "trialdata": {"rt": -1, "trial_type": "single-stim", "stimulus": "<p id=\"stim\">5</p>", "internal_node_id": "0.0-60.0-5.0", "time_elapsed": 457379, "key_press": -1, "trial_index": 83}, "uniqueid": "MTK1489:3KB8R4ZV1FE2BVZ7LGLW143422TGBU", "dateTime": 1515949072559}, {"current_trial": 84, "trialdata": {"rt": -1, "trial_type": "single-stim", "stimulus": "<p id=\"stim\">4</p>", "internal_node_id": "0.0-60.0-6.0", "time_elapsed": 458383, "key_press": -1, "trial_index": 84}, "uniqueid": "MTK1489:3KB8R4ZV1FE2BVZ7LGLW143422TGBU", "dateTime": 1515949073563}, {"current_trial": 85, "trialdata": {"rt": -1, "trial_type": "single-stim", "stimulus": "<p id=\"stim\">3</p>", "internal_node_id": "0.0-60.0-7.0", "time_elapsed": 459387, "key_press": -1, "trial_index": 85}, "uniqueid": "MTK1489:3KB8R4ZV1FE2BVZ7LGLW143422TGBU", "dateTime": 1515949074567}, {"current_trial": 86, "trialdata": {"rt": -1, "trial_type": "single-stim", "stimulus": "<p id=\"stim\">2</p>", "internal_node_id": "0.0-60.0-8.0", "time_elapsed": 460391, "key_press": -1, "trial_index": 86}, "uniqueid": "MTK1489:3KB8R4ZV1FE2BVZ7LGLW143422TGBU", "dateTime": 1515949075571}, {"current_trial": 87, "trialdata": {"rt": -1, "trial_type": "single-stim", "stimulus": "<p id=\"stim\">1</p>", "internal_node_id": "0.0-60.0-9.0", "time_elapsed": 461395, "key_press": -1, "trial_index": 87}, "uniqueid": "MTK1489:3KB8R4ZV1FE2BVZ7LGLW143422TGBU", "dateTime": 1515949076575}, {"current_trial": 88, "trialdata": {"rt": -1, "trial_type": "single-stim", "stimulus": "<p id=\"stim\">+</p>", "internal_node_id": "0.0-61.0-0.0", "time_elapsed": 462898, "key_press": -1, "type": "FIXATION", "trial_index": 88}, "uniqueid": "MTK1489:3KB8R4ZV1FE2BVZ7LGLW143422TGBU", "dateTime": 1515949078079}, {"current_trial": 89, "trialdata": {"rt": -1000, "trial_type": "single-audio", "word": "luggage", "stimulus": "/static/audio/wordpool/LUGGAGE.wav", "conditions": [12, 800, "a", 12000], "internal_node_id": "0.0-62.0", "trial": 2, "time_elapsed": 464853, "serialpos": 0, "key_press": -1, "wordID": 846, "type": "PRES_AUD", "trial_index": 89}, "uniqueid": "MTK1489:3KB8R4ZV1FE2BVZ7LGLW143422TGBU", "dateTime": 1515949080034}, {"current_trial": 90, "trialdata": {"rt": -1000, "trial_type": "single-audio", "word": "burglar", "stimulus": "/static/audio/wordpool/BURGLAR.wav", "conditions": [12, 800, "a", 12000], "internal_node_id": "0.0-63.0", "trial": 2, "time_elapsed": 466630, "serialpos": 1, "key_press": -1, "wordID": 199, "type": "PRES_AUD", "trial_index": 90}, "uniqueid": "MTK1489:3KB8R4ZV1FE2BVZ7LGLW143422TGBU", "dateTime": 1515949081810}, {"current_trial": 91, "trialdata": {"rt": -1000, "trial_type": "single-audio", "word": "xerox", "stimulus": "/static/audio/wordpool/XEROX.wav", "conditions": [12, 800, "a", 12000], "internal_node_id": "0.0-64.0", "trial": 2, "time_elapsed": 468505, "serialpos": 2, "key_press": -1, "wordID": 1627, "type": "PRES_AUD", "trial_index": 91}, "uniqueid": "MTK1489:3KB8R4ZV1FE2BVZ7LGLW143422TGBU", "dateTime": 1515949083685}, {"current_trial": 92, "trialdata": {"rt": -1000, "trial_type": "single-audio", "word": "daughter", "stimulus": "/static/audio/wordpool/DAUGHTER.wav", "conditions": [12, 800, "a", 12000], "internal_node_id": "0.0-65.0", "trial": 2, "time_elapsed": 470130, "serialpos": 3, "key_press": -1, "wordID": 441, "type": "PRES_AUD", "trial_index": 92}, "uniqueid": "MTK1489:3KB8R4ZV1FE2BVZ7LGLW143422TGBU", "dateTime": 1515949085310}, {"current_trial": 93, "trialdata": {"rt": -1000, "trial_type": "single-audio", "word": "basement", "stimulus": "/static/audio/wordpool/BASEMENT.wav", "conditions": [12, 800, "a", 12000], "internal_node_id": "0.0-66.0", "trial": 2, "time_elapsed": 471888, "serialpos": 4, "key_press": -1, "wordID": 93, "type": "PRES_AUD", "trial_index": 93}, "uniqueid": "MTK1489:3KB8R4ZV1FE2BVZ7LGLW143422TGBU", "dateTime": 1515949087068}, {"current_trial": 94, "trialdata": {"rt": -1000, "trial_type": "single-audio", "word": "snake", "stimulus": "/static/audio/wordpool/SNAKE.wav", "conditions": [12, 800, "a", 12000], "internal_node_id": "0.0-67.0", "trial": 2, "time_elapsed": 473834, "serialpos": 5, "key_press": -1, "wordID": 1332, "type": "PRES_AUD", "trial_index": 94}, "uniqueid": "MTK1489:3KB8R4ZV1FE2BVZ7LGLW143422TGBU", "dateTime": 1515949089014}, {"current_trial": 95, "trialdata": {"rt": -1000, "trial_type": "single-audio", "word": "plate", "stimulus": "/static/audio/wordpool/PLATE.wav", "conditions": [12, 800, "a", 12000], "internal_node_id": "0.0-68.0", "trial": 2, "time_elapsed": 475450, "serialpos": 6, "key_press": -1, "wordID": 1085, "type": "PRES_AUD", "trial_index": 95}, "uniqueid": "MTK1489:3KB8R4ZV1FE2BVZ7LGLW143422TGBU", "dateTime": 1515949090630}, {"current_trial": 96, "trialdata": {"rt": -1000, "trial_type": "single-audio", "word": "scotch", "stimulus": "/static/audio/wordpool/SCOTCH.wav", "conditions": [12, 800, "a", 12000], "internal_node_id": "0.0-69.0", "trial": 2, "time_elapsed": 477142, "serialpos": 7, "key_press": -1, "wordID": 1250, "type": "PRES_AUD", "trial_index": 96}, "uniqueid": "MTK1489:3KB8R4ZV1FE2BVZ7LGLW143422TGBU", "dateTime": 1515949092322}, {"current_trial": 97, "trialdata": {"rt": -1000, "trial_type": "single-audio", "word": "brandy", "stimulus": "/static/audio/wordpool/BRANDY.wav", "conditions": [12, 800, "a", 12000], "internal_node_id": "0.0-70.0", "trial": 2, "time_elapsed": 479110, "serialpos": 8, "key_press": -1, "wordID": 168, "type": "PRES_AUD", "trial_index": 97}, "uniqueid": "MTK1489:3KB8R4ZV1FE2BVZ7LGLW143422TGBU", "dateTime": 1515949094290}, {"current_trial": 98, "trialdata": {"rt": -1000, "trial_type": "single-audio", "word": "tortoise", "stimulus": "/static/audio/wordpool/TORTOISE.wav", "conditions": [12, 800, "a", 12000], "internal_node_id": "0.0-71.0", "trial": 2, "time_elapsed": 480863, "serialpos": 9, "key_press": -1, "wordID": 1485, "type": "PRES_AUD", "trial_index": 98}, "uniqueid": "MTK1489:3KB8R4ZV1FE2BVZ7LGLW143422TGBU", "dateTime": 1515949096043}, {"current_trial": 99, "trialdata": {"rt": -1000, "trial_type": "single-audio", "word": "supper", "stimulus": "/static/audio/wordpool/SUPPER.wav", "conditions": [12, 800, "a", 12000], "internal_node_id": "0.0-72.0", "trial": 2, "time_elapsed": 482494, "serialpos": 10, "key_press": -1, "wordID": 1410, "type": "PRES_AUD", "trial_index": 99}, "uniqueid": "MTK1489:3KB8R4ZV1FE2BVZ7LGLW143422TGBU", "dateTime": 1515949097674}, {"current_trial": 100, "trialdata": {"rt": -1000, "trial_type": "single-audio", "word": "scallop", "stimulus": "/static/audio/wordpool/SCALLOP.wav", "conditions": [12, 800, "a", 12000], "internal_node_id": "0.0-73.0", "trial": 2, "time_elapsed": 484230, "serialpos": 11, "key_press": -1, "wordID": 1241, "type": "PRES_AUD", "trial_index": 100}, "uniqueid": "MTK1489:3KB8R4ZV1FE2BVZ7LGLW143422TGBU", "dateTime": 1515949099410}, {"current_trial": 101, "trialdata": {"rt": -1, "trial_type": "single-stim", "stimulus": "", "internal_node_id": "0.0-74.0-0.0", "time_elapsed": 485525, "key_press": -1, "type": "PRE_RECALL_DELAY", "trial_index": 101}, "uniqueid": "MTK1489:3KB8R4ZV1FE2BVZ7LGLW143422TGBU", "dateTime": 1515949100705}, {"current_trial": 102, "trialdata": {"rt": -1000, "trial_type": "single-audio", "stimulus": "/static/audio/400Hz.wav", "internal_node_id": "0.0-75.0", "time_elapsed": 486026, "key_press": -1, "type": "PRE_RECALL_ALERT", "trial_index": 102}, "uniqueid": "MTK1489:3KB8R4ZV1FE2BVZ7LGLW143422TGBU", "dateTime": 1515949101206}, {"current_trial": 103, "trialdata": {"rt": [3432, 7976, 11281, 14624, 17735, 36058, 38610], "recwords": ["scallop", "tortoise", "zeox", "basement", "daighter", "dinner", "scallop"], "key_times": [937, 1200, 1456, 1880, 2080, 2304, 2472, 3432, 3904, 4272, 4632, 5200, 6272, 6504, 6864, 7112, 7976, 9336, 9624, 10552, 10928, 11281, 11784, 12080, 12440, 12784, 13440, 13696, 13920, 14200, 14624, 15103, 15383, 15911, 16264, 16496, 16735, 16992, 17159, 17735, 33810, 34098, 34570, 34778, 35002, 35202, 36058, 36674, 37002, 37202, 37626, 37897, 38106, 38282, 38610], "trial_type": "free-recall", "conditions": [12, 800, "a", 12000], "internal_node_id": "0.0-76.0-0.0", "key_presses": [83, 67, 65, 76, 76, 79, 80, 13, 84, 79, 82, 84, 79, 73, 83, 69, 13, 90, 69, 79, 88, 13, 66, 65, 83, 69, 77, 69, 78, 84, 13, 68, 65, 73, 71, 72, 84, 69, 82, 13, 68, 73, 78, 78, 69, 82, 13, 83, 67, 65, 76, 76, 79, 80, 13], "trial": 2, "time_elapsed": 546030, "type": "FREE_RECALL", "trial_index": 103}, "uniqueid": "MTK1489:3KB8R4ZV1FE2BVZ7LGLW143422TGBU", "dateTime": 1515949161212}, {"current_trial": 104, "trialdata": {"rt": 3754, "trial_type": "text", "internal_node_id": "0.0-77.0", "time_elapsed": 551789, "key_press": 13, "type": "INSTRUCTIONS", "trial_index": 104}, "uniqueid": "MTK1489:3KB8R4ZV1FE2BVZ7LGLW143422TGBU", "dateTime": 1515949166969}, {"current_trial": 105, "trialdata": {"rt": [7306, 11649], "trial_type": "math-distractor", "key_times": [6026, 6202, 7306, 10642, 10986, 11649], "responses": ["23", "18"], "num2": [8, 7, 4], "num3": [7, 4, 3], "conditions": [24, 800, "a", 12000], "internal_node_id": "0.0-78.0", "key_presses": [50, 51, 13, 49, 56, 13], "trial": 3, "time_elapsed": 565795, "type": "DISTRACTOR", "trial_index": 105, "num1": [7, 7, 2]}, "uniqueid": "MTK1489:3KB8R4ZV1FE2BVZ7LGLW143422TGBU", "dateTime": 1515949180975}, {"current_trial": 106, "trialdata": {"rt": -1, "trial_type": "single-stim", "stimulus": "<p id=\"stim\">10</p>", "internal_node_id": "0.0-79.0-0.0", "time_elapsed": 568804, "key_press": -1, "trial_index": 106}, "uniqueid": "MTK1489:3KB8R4ZV1FE2BVZ7LGLW143422TGBU", "dateTime": 1515949183984}, {"current_trial": 107, "trialdata": {"rt": -1, "trial_type": "single-stim", "stimulus": "<p id=\"stim\">9</p>", "internal_node_id": "0.0-79.0-1.0", "time_elapsed": 569808, "key_press": -1, "trial_index": 107}, "uniqueid": "MTK1489:3KB8R4ZV1FE2BVZ7LGLW143422TGBU", "dateTime": 1515949184988}, {"current_trial": 108, "trialdata": {"rt": -1, "trial_type": "single-stim", "stimulus": "<p id=\"stim\">8</p>", "internal_node_id": "0.0-79.0-2.0", "time_elapsed": 570810, "key_press": -1, "trial_index": 108}, "uniqueid": "MTK1489:3KB8R4ZV1FE2BVZ7LGLW143422TGBU", "dateTime": 1515949185990}, {"current_trial": 109, "trialdata": {"rt": -1, "trial_type": "single-stim", "stimulus": "<p id=\"stim\">7</p>", "internal_node_id": "0.0-79.0-3.0", "time_elapsed": 571812, "key_press": -1, "trial_index": 109}, "uniqueid": "MTK1489:3KB8R4ZV1FE2BVZ7LGLW143422TGBU", "dateTime": 1515949186992}, {"current_trial": 110, "trialdata": {"rt": -1, "trial_type": "single-stim", "stimulus": "<p id=\"stim\">6</p>", "internal_node_id": "0.0-79.0-4.0", "time_elapsed": 572816, "key_press": -1, "trial_index": 110}, "uniqueid": "MTK1489:3KB8R4ZV1FE2BVZ7LGLW143422TGBU", "dateTime": 1515949187996}, {"current_trial": 111, "trialdata": {"rt": -1, "trial_type": "single-stim", "stimulus": "<p id=\"stim\">5</p>", "internal_node_id": "0.0-79.0-5.0", "time_elapsed": 573821, "key_press": -1, "trial_index": 111}, "uniqueid": "MTK1489:3KB8R4ZV1FE2BVZ7LGLW143422TGBU", "dateTime": 1515949189001}, {"current_trial": 112, "trialdata": {"rt": -1, "trial_type": "single-stim", "stimulus": "<p id=\"stim\">4</p>", "internal_node_id": "0.0-79.0-6.0", "time_elapsed": 574827, "key_press": -1, "trial_index": 112}, "uniqueid": "MTK1489:3KB8R4ZV1FE2BVZ7LGLW143422TGBU", "dateTime": 1515949190007}, {"current_trial": 113, "trialdata": {"rt": -1, "trial_type": "single-stim", "stimulus": "<p id=\"stim\">3</p>", "internal_node_id": "0.0-79.0-7.0", "time_elapsed": 575832, "key_press": -1, "trial_index": 113}, "uniqueid": "MTK1489:3KB8R4ZV1FE2BVZ7LGLW143422TGBU", "dateTime": 1515949191012}, {"current_trial": 114, "trialdata": {"rt": -1, "trial_type": "single-stim", "stimulus": "<p id=\"stim\">2</p>", "internal_node_id": "0.0-79.0-8.0", "time_elapsed": 576833, "key_press": -1, "trial_index": 114}, "uniqueid": "MTK1489:3KB8R4ZV1FE2BVZ7LGLW143422TGBU", "dateTime": 1515949192013}, {"current_trial": 115, "trialdata": {"rt": -1, "trial_type": "single-stim", "stimulus": "<p id=\"stim\">1</p>", "internal_node_id": "0.0-79.0-9.0", "time_elapsed": 577835, "key_press": -1, "trial_index": 115}, "uniqueid": "MTK1489:3KB8R4ZV1FE2BVZ7LGLW143422TGBU", "dateTime": 1515949193015}, {"current_trial": 116, "trialdata": {"rt": -1, "trial_type": "single-stim", "stimulus": "<p id=\"stim\">+</p>", "internal_node_id": "0.0-80.0-0.0", "time_elapsed": 579338, "key_press": -1, "type": "FIXATION", "trial_index": 116}, "uniqueid": "MTK1489:3KB8R4ZV1FE2BVZ7LGLW143422TGBU", "dateTime": 1515949194518}, {"current_trial": 117, "trialdata": {"rt": -1000, "trial_type": "single-audio", "word": "citrus", "stimulus": "/static/audio/wordpool/CITRUS.wav", "conditions": [24, 800, "a", 12000], "internal_node_id": "0.0-81.0", "trial": 3, "time_elapsed": 581141, "serialpos": 0, "key_press": -1, "wordID": 312, "type": "PRES_AUD", "trial_index": 117}, "uniqueid": "MTK1489:3KB8R4ZV1FE2BVZ7LGLW143422TGBU", "dateTime": 1515949196321}, {"current_trial": 118, "trialdata": {"rt": -1000, "trial_type": "single-audio", "word": "twig", "stimulus": "/static/audio/wordpool/TWIG.wav", "conditions": [24, 800, "a", 12000], "internal_node_id": "0.0-82.0", "trial": 3, "time_elapsed": 582853, "serialpos": 1, "key_press": -1, "wordID": 1526, "type": "PRES_AUD", "trial_index": 118}, "uniqueid": "MTK1489:3KB8R4ZV1FE2BVZ7LGLW143422TGBU", "dateTime": 1515949198034}, {"current_trial": 119, "trialdata": {"rt": -1000, "trial_type": "single-audio", "word": "highway", "stimulus": "/static/audio/wordpool/HIGHWAY.wav", "conditions": [24, 800, "a", 12000], "internal_node_id": "0.0-83.0", "trial": 3, "time_elapsed": 584470, "serialpos": 2, "key_press": -1, "wordID": 706, "type": "PRES_AUD", "trial_index": 119}, "uniqueid": "MTK1489:3KB8R4ZV1FE2BVZ7LGLW143422TGBU", "dateTime": 1515949199650}, {"current_trial": 120, "trialdata": {"rt": -1000, "trial_type": "single-audio", "word": "flask", "stimulus": "/static/audio/wordpool/FLASK.wav", "conditions": [24, 800, "a", 12000], "internal_node_id": "0.0-84.0", "trial": 3, "time_elapsed": 586290, "serialpos": 3, "key_press": -1, "wordID": 575, "type": "PRES_AUD", "trial_index": 120}, "uniqueid": "MTK1489:3KB8R4ZV1FE2BVZ7LGLW143422TGBU", "dateTime": 1515949201470}, {"current_trial": 121, "trialdata": {"rt": -1000, "trial_type": "single-audio", "word": "salmon", "stimulus": "/static/audio/wordpool/SALMON.wav", "conditions": [24, 800, "a", 12000], "internal_node_id": "0.0-85.0", "trial": 3, "time_elapsed": 588031, "serialpos": 4, "key_press": -1, "wordID": 1226, "type": "PRES_AUD", "trial_index": 121}, "uniqueid": "MTK1489:3KB8R4ZV1FE2BVZ7LGLW143422TGBU", "dateTime": 1515949203211}, {"current_trial": 122, "trialdata": {"rt": -1000, "trial_type": "single-audio", "word": "pliers", "stimulus": "/static/audio/wordpool/PLIERS.wav", "conditions": [24, 800, "a", 12000], "internal_node_id": "0.0-86.0", "trial": 3, "time_elapsed": 589964, "serialpos": 5, "key_press": -1, "wordID": 1088, "type": "PRES_AUD", "trial_index": 122}, "uniqueid": "MTK1489:3KB8R4ZV1FE2BVZ7LGLW143422TGBU", "dateTime": 1515949205144}, {"current_trial": 123, "trialdata": {"rt": -1000, "trial_type": "single-audio", "word": "scissors", "stimulus": "/static/audio/wordpool/SCISSORS.wav", "conditions": [24, 800, "a", 12000], "internal_node_id": "0.0-87.0", "trial": 3, "time_elapsed": 591648, "serialpos": 6, "key_press": -1, "wordID": 1249, "type": "PRES_AUD", "trial_index": 123}, "uniqueid": "MTK1489:3KB8R4ZV1FE2BVZ7LGLW143422TGBU", "dateTime": 1515949206828}, {"current_trial": 124, "trialdata": {"rt": -1000, "trial_type": "single-audio", "word": "harp", "stimulus": "/static/audio/wordpool/HARP.wav", "conditions": [24, 800, "a", 12000], "internal_node_id": "0.0-88.0", "trial": 3, "time_elapsed": 593491, "serialpos": 7, "key_press": -1, "wordID": 688, "type": "PRES_AUD", "trial_index": 124}, "uniqueid": "MTK1489:3KB8R4ZV1FE2BVZ7LGLW143422TGBU", "dateTime": 1515949208671}, {"current_trial": 125, "trialdata": {"rt": -1000, "trial_type": "single-audio", "word": "pecan", "stimulus": "/static/audio/wordpool/PECAN.wav", "conditions": [24, 800, "a", 12000], "internal_node_id": "0.0-89.0", "trial": 3, "time_elapsed": 595416, "serialpos": 8, "key_press": -1, "wordID": 1035, "type": "PRES_AUD", "trial_index": 125}, "uniqueid": "MTK1489:3KB8R4ZV1FE2BVZ7LGLW143422TGBU", "dateTime": 1515949210597}, {"current_trial": 126, "trialdata": {"rt": -1000, "trial_type": "single-audio", "word": "bureau", "stimulus": "/static/audio/wordpool/BUREAU.wav", "conditions": [24, 800, "a", 12000], "internal_node_id": "0.0-90.0", "trial": 3, "time_elapsed": 597197, "serialpos": 9, "key_press": -1, "wordID": 198, "type": "PRES_AUD", "trial_index": 126}, "uniqueid": "MTK1489:3KB8R4ZV1FE2BVZ7LGLW143422TGBU", "dateTime": 1515949212377}, {"current_trial": 127, "trialdata": {"rt": -1000, "trial_type": "single-audio", "word": "report", "stimulus": "/static/audio/wordpool/REPORT.wav", "conditions": [24, 800, "a", 12000], "internal_node_id": "0.0-91.0", "trial": 3, "time_elapsed": 598802, "serialpos": 10, "key_press": -1, "wordID": 1183, "type": "PRES_AUD", "trial_index": 127}, "uniqueid": "MTK1489:3KB8R4ZV1FE2BVZ7LGLW143422TGBU", "dateTime": 1515949213982}, {"current_trial": 128, "trialdata": {"rt": -1000, "trial_type": "single-audio", "word": "compass", "stimulus": "/static/audio/wordpool/COMPASS.wav", "conditions": [24, 800, "a", 12000], "internal_node_id": "0.0-92.0", "trial": 3, "time_elapsed": 600610, "serialpos": 11, "key_press": -1, "wordID": 357, "type": "PRES_AUD", "trial_index": 128}, "uniqueid": "MTK1489:3KB8R4ZV1FE2BVZ7LGLW143422TGBU", "dateTime": 1515949215790}, {"current_trial": 129, "trialdata": {"rt": 706.8934240362523, "trial_type": "single-audio", "word": "jello", "stimulus": "/static/audio/wordpool/JELLO.wav", "conditions": [24, 800, "a", 12000], "internal_node_id": "0.0-93.0", "trial": 3, "time_elapsed": 602247, "serialpos": 12, "key_press": 13, "wordID": 753, "type": "PRES_AUD", "trial_index": 129}, "uniqueid": "MTK1489:3KB8R4ZV1FE2BVZ7LGLW143422TGBU", "dateTime": 1515949217427}, {"current_trial": 130, "trialdata": {"rt": -1000, "trial_type": "single-audio", "word": "jelly", "stimulus": "/static/audio/wordpool/JELLY.wav", "conditions": [24, 800, "a", 12000], "internal_node_id": "0.0-94.0", "trial": 3, "time_elapsed": 603946, "serialpos": 13, "key_press": -1, "wordID": 754, "type": "PRES_AUD", "trial_index": 130}, "uniqueid": "MTK1489:3KB8R4ZV1FE2BVZ7LGLW143422TGBU", "dateTime": 1515949219126}, {"current_trial": 131, "trialdata": {"rt": -1000, "trial_type": "single-audio", "word": "clock", "stimulus": "/static/audio/wordpool/CLOCK.wav", "conditions": [24, 800, "a", 12000], "internal_node_id": "0.0-95.0", "trial": 3, "time_elapsed": 605945, "serialpos": 14, "key_press": -1, "wordID": 324, "type": "PRES_AUD", "trial_index": 131}, "uniqueid": "MTK1489:3KB8R4ZV1FE2BVZ7LGLW143422TGBU", "dateTime": 1515949221125}, {"current_trial": 132, "trialdata": {"rt": -1000, "trial_type": "single-audio", "word": "banjo", "stimulus": "/static/audio/wordpool/BANJO.wav", "conditions": [24, 800, "a", 12000], "internal_node_id": "0.0-96.0", "trial": 3, "time_elapsed": 607663, "serialpos": 15, "key_press": -1, "wordID": 81, "type": "PRES_AUD", "trial_index": 132}, "uniqueid": "MTK1489:3KB8R4ZV1FE2BVZ7LGLW143422TGBU", "dateTime": 1515949222843}, {"current_trial": 133, "trialdata": {"rt": -1000, "trial_type": "single-audio", "word": "lion", "stimulus": "/static/audio/wordpool/LION.wav", "conditions": [24, 800, "a", 12000], "internal_node_id": "0.0-97.0", "trial": 3, "time_elapsed": 609542, "serialpos": 16, "key_press": -1, "wordID": 826, "type": "PRES_AUD", "trial_index": 133}, "uniqueid": "MTK1489:3KB8R4ZV1FE2BVZ7LGLW143422TGBU", "dateTime": 1515949224722}, {"current_trial": 134, "trialdata": {"rt": -1000, "trial_type": "single-audio", "word": "buggy", "stimulus": "/static/audio/wordpool/BUGGY.wav", "conditions": [24, 800, "a", 12000], "internal_node_id": "0.0-98.0", "trial": 3, "time_elapsed": 611497, "serialpos": 17, "key_press": -1, "wordID": 187, "type": "PRES_AUD", "trial_index": 134}, "uniqueid": "MTK1489:3KB8R4ZV1FE2BVZ7LGLW143422TGBU", "dateTime": 1515949226677}, {"current_trial": 135, "trialdata": {"rt": -1000, "trial_type": "single-audio", "word": "oyster", "stimulus": "/static/audio/wordpool/OYSTER.wav", "conditions": [24, 800, "a", 12000], "internal_node_id": "0.0-99.0", "trial": 3, "time_elapsed": 613306, "serialpos": 18, "key_press": -1, "wordID": 994, "type": "PRES_AUD", "trial_index": 135}, "uniqueid": "MTK1489:3KB8R4ZV1FE2BVZ7LGLW143422TGBU", "dateTime": 1515949228486}, {"current_trial": 136, "trialdata": {"rt": -1000, "trial_type": "single-audio", "word": "perfume", "stimulus": "/static/audio/wordpool/PERFUME.wav", "conditions": [24, 800, "a", 12000], "internal_node_id": "0.0-100.0", "trial": 3, "time_elapsed": 615027, "serialpos": 19, "key_press": -1, "wordID": 1048, "type": "PRES_AUD", "trial_index": 136}, "uniqueid": "MTK1489:3KB8R4ZV1FE2BVZ7LGLW143422TGBU", "dateTime": 1515949230207}, {"current_trial": 137, "trialdata": {"rt": -1000, "trial_type": "single-audio", "word": "bouquet", "stimulus": "/static/audio/wordpool/BOUQUET.wav", "conditions": [24, 800, "a", 12000], "internal_node_id": "0.0-101.0", "trial": 3, "time_elapsed": 616887, "serialpos": 20, "key_press": -1, "wordID": 156, "type": "PRES_AUD", "trial_index": 137}, "uniqueid": "MTK1489:3KB8R4ZV1FE2BVZ7LGLW143422TGBU", "dateTime": 1515949232068}, {"current_trial": 138, "trialdata": {"rt": -1000, "trial_type": "single-audio", "word": "headband", "stimulus": "/static/audio/wordpool/HEADBAND.wav", "conditions": [24, 800, "a", 12000], "internal_node_id": "0.0-102.0", "trial": 3, "time_elapsed": 618877, "serialpos": 21, "key_press": -1, "wordID": 695, "type": "PRES_AUD", "trial_index": 138}, "uniqueid": "MTK1489:3KB8R4ZV1FE2BVZ7LGLW143422TGBU", "dateTime": 1515949234057}, {"current_trial": 139, "trialdata": {"rt": -1000, "trial_type": "single-audio", "word": "trombone", "stimulus": "/static/audio/wordpool/TROMBONE.wav", "conditions": [24, 800, "a", 12000], "internal_node_id": "0.0-103.0", "trial": 3, "time_elapsed": 620637, "serialpos": 22, "key_press": -1, "wordID": 1507, "type": "PRES_AUD", "trial_index": 139}, "uniqueid": "MTK1489:3KB8R4ZV1FE2BVZ7LGLW143422TGBU", "dateTime": 1515949235817}, {"current_trial": 140, "trialdata": {"rt": -1000, "trial_type": "single-audio", "word": "sunset", "stimulus": "/static/audio/wordpool/SUNSET.wav", "conditions": [24, 800, "a", 12000], "internal_node_id": "0.0-104.0", "trial": 3, "time_elapsed": 622419, "serialpos": 23, "key_press": -1, "wordID": 1407, "type": "PRES_AUD", "trial_index": 140}, "uniqueid": "MTK1489:3KB8R4ZV1FE2BVZ7LGLW143422TGBU", "dateTime": 1515949237599}, {"current_trial": 141, "trialdata": {"rt": -1, "trial_type": "single-stim", "stimulus": "", "internal_node_id": "0.0-105.0-0.0", "time_elapsed": 623702, "key_press": -1, "type": "PRE_RECALL_DELAY", "trial_index": 141}, "uniqueid": "MTK1489:3KB8R4ZV1FE2BVZ7LGLW143422TGBU", "dateTime": 1515949238882}, {"current_trial": 142, "trialdata": {"rt": -1000, "trial_type": "single-audio", "stimulus": "/static/audio/400Hz.wav", "internal_node_id": "0.0-106.0", "time_elapsed": 624204, "key_press": -1, "type": "PRE_RECALL_ALERT", "trial_index": 142}, "uniqueid": "MTK1489:3KB8R4ZV1FE2BVZ7LGLW143422TGBU", "dateTime": 1515949239384}, {"current_trial": 143, "trialdata": {"rt": [3698, 7673, 10657, 13249, 16377, 26137, 33270, 40479], "recwords": ["sunset", "trombone", "highway", "jelly", "jelllo", "sunset", "buggy", "citrus"], "key_times": [1187, 1434, 1962, 2410, 2842, 3250, 3698, 4258, 4498, 5162, 5562, 5898, 6602, 6929, 7282, 7673, 8201, 8529, 8865, 9098, 9665, 9905, 10241, 10657, 11690, 11969, 12321, 12513, 12817, 13249, 14377, 14697, 15065, 15241, 15649, 16009, 16377, 22161, 22425, 22721, 25121, 25560, 25745, 26137, 30982, 31494, 31846, 32046, 32879, 33270, 38256, 38575, 38935, 39175, 39728, 40151, 40479], "trial_type": "free-recall", "conditions": [24, 800, "a", 12000], "internal_node_id": "0.0-107.0-0.0", "key_presses": [83, 85, 78, 83, 69, 84, 13, 84, 82, 79, 77, 66, 79, 78, 69, 13, 72, 73, 71, 72, 87, 65, 89, 13, 74, 69, 76, 76, 89, 13, 74, 69, 76, 76, 76, 79, 13, 83, 85, 78, 83, 69, 84, 13, 66, 85, 71, 71, 89, 13, 67, 73, 84, 82, 85, 83, 13], "trial": 3, "time_elapsed": 684205, "type": "FREE_RECALL", "trial_index": 143}, "uniqueid": "MTK1489:3KB8R4ZV1FE2BVZ7LGLW143422TGBU", "dateTime": 1515949299388}, {"current_trial": 144, "trialdata": {"rt": 1665, "trial_type": "text", "internal_node_id": "0.0-108.0", "time_elapsed": 687877, "key_press": 13, "type": "INSTRUCTIONS", "trial_index": 144}, "uniqueid": "MTK1489:3KB8R4ZV1FE2BVZ7LGLW143422TGBU", "dateTime": 1515949303057}, {"current_trial": 145, "trialdata": {"rt": [2493, 5381, 7845, 11405, 15157, 19229, 23093], "trial_type": "math-distractor", "key_times": [1806, 2053, 2493, 4277, 4630, 5381, 7253, 7845, 10550, 10741, 11405, 14141, 14621, 15157, 18101, 18613, 19229, 22102, 22525, 23093], "responses": ["11", "13", "8", "16", "14", "20", "20"], "num2": [5, 8, 2, 9, 5, 5, 8, 3], "num3": [1, 1, 1, 8, 7, 8, 5, 2], "conditions": [24, 800, "a", 24000], "internal_node_id": "0.0-109.0", "key_presses": [49, 49, 13, 49, 51, 13, 56, 13, 49, 54, 13, 49, 52, 13, 50, 48, 13, 50, 48, 13], "trial": 4, "time_elapsed": 713882, "type": "DISTRACTOR", "trial_index": 145, "num1": [5, 4, 5, 9, 2, 7, 7, 2]}, "uniqueid": "MTK1489:3KB8R4ZV1FE2BVZ7LGLW143422TGBU", "dateTime": 1515949329062}, {"current_trial": 146, "trialdata": {"rt": -1, "trial_type": "single-stim", "stimulus": "<p id=\"stim\">10</p>", "internal_node_id": "0.0-110.0-0.0", "time_elapsed": 716885, "key_press": -1, "trial_index": 146}, "uniqueid": "MTK1489:3KB8R4ZV1FE2BVZ7LGLW143422TGBU", "dateTime": 1515949332065}, {"current_trial": 147, "trialdata": {"rt": -1, "trial_type": "single-stim", "stimulus": "<p id=\"stim\">9</p>", "internal_node_id": "0.0-110.0-1.0", "time_elapsed": 717890, "key_press": -1, "trial_index": 147}, "uniqueid": "MTK1489:3KB8R4ZV1FE2BVZ7LGLW143422TGBU", "dateTime": 1515949333070}, {"current_trial": 148, "trialdata": {"rt": -1, "trial_type": "single-stim", "stimulus": "<p id=\"stim\">8</p>", "internal_node_id": "0.0-110.0-2.0", "time_elapsed": 718895, "key_press": -1, "trial_index": 148}, "uniqueid": "MTK1489:3KB8R4ZV1FE2BVZ7LGLW143422TGBU", "dateTime": 1515949334075}, {"current_trial": 149, "trialdata": {"rt": -1, "trial_type": "single-stim", "stimulus": "<p id=\"stim\">7</p>", "internal_node_id": "0.0-110.0-3.0", "time_elapsed": 719897, "key_press": -1, "trial_index": 149}, "uniqueid": "MTK1489:3KB8R4ZV1FE2BVZ7LGLW143422TGBU", "dateTime": 1515949335077}, {"current_trial": 150, "trialdata": {"rt": -1, "trial_type": "single-stim", "stimulus": "<p id=\"stim\">6</p>", "internal_node_id": "0.0-110.0-4.0", "time_elapsed": 720901, "key_press": -1, "trial_index": 150}, "uniqueid": "MTK1489:3KB8R4ZV1FE2BVZ7LGLW143422TGBU", "dateTime": 1515949336082}, {"current_trial": 151, "trialdata": {"rt": -1, "trial_type": "single-stim", "stimulus": "<p id=\"stim\">5</p>", "internal_node_id": "0.0-110.0-5.0", "time_elapsed": 721904, "key_press": -1, "trial_index": 151}, "uniqueid": "MTK1489:3KB8R4ZV1FE2BVZ7LGLW143422TGBU", "dateTime": 1515949337084}, {"current_trial": 152, "trialdata": {"rt": -1, "trial_type": "single-stim", "stimulus": "<p id=\"stim\">4</p>", "internal_node_id": "0.0-110.0-6.0", "time_elapsed": 722905, "key_press": -1, "trial_index": 152}, "uniqueid": "MTK1489:3KB8R4ZV1FE2BVZ7LGLW143422TGBU", "dateTime": 1515949338085}, {"current_trial": 153, "trialdata": {"rt": -1, "trial_type": "single-stim", "stimulus": "<p id=\"stim\">3</p>", "internal_node_id": "0.0-110.0-7.0", "time_elapsed": 723906, "key_press": -1, "trial_index": 153}, "uniqueid": "MTK1489:3KB8R4ZV1FE2BVZ7LGLW143422TGBU", "dateTime": 1515949339086}, {"current_trial": 154, "trialdata": {"rt": -1, "trial_type": "single-stim", "stimulus": "<p id=\"stim\">2</p>", "internal_node_id": "0.0-110.0-8.0", "time_elapsed": 724908, "key_press": -1, "trial_index": 154}, "uniqueid": "MTK1489:3KB8R4ZV1FE2BVZ7LGLW143422TGBU", "dateTime": 1515949340088}, {"current_trial": 155, "trialdata": {"rt": -1, "trial_type": "single-stim", "stimulus": "<p id=\"stim\">1</p>", "internal_node_id": "0.0-110.0-9.0", "time_elapsed": 725910, "key_press": -1, "trial_index": 155}, "uniqueid": "MTK1489:3KB8R4ZV1FE2BVZ7LGLW143422TGBU", "dateTime": 1515949341090}, {"current_trial": 156, "trialdata": {"rt": -1, "trial_type": "single-stim", "stimulus": "<p id=\"stim\">+</p>", "internal_node_id": "0.0-111.0-0.0", "time_elapsed": 727412, "key_press": -1, "type": "FIXATION", "trial_index": 156}, "uniqueid": "MTK1489:3KB8R4ZV1FE2BVZ7LGLW143422TGBU", "dateTime": 1515949342592}, {"current_trial": 157, "trialdata": {"rt": -1000, "trial_type": "single-audio", "word": "arm", "stimulus": "/static/audio/wordpool/ARM.wav", "conditions": [24, 800, "a", 24000], "internal_node_id": "0.0-112.0", "trial": 4, "time_elapsed": 729361, "serialpos": 0, "key_press": -1, "wordID": 37, "type": "PRES_AUD", "trial_index": 157}, "uniqueid": "MTK1489:3KB8R4ZV1FE2BVZ7LGLW143422TGBU", "dateTime": 1515949344542}, {"current_trial": 158, "trialdata": {"rt": -1000, "trial_type": "single-audio", "word": "transplant", "stimulus": "/static/audio/wordpool/TRANSPLANT.wav", "conditions": [24, 800, "a", 24000], "internal_node_id": "0.0-113.0", "trial": 4, "time_elapsed": 731044, "serialpos": 1, "key_press": -1, "wordID": 1495, "type": "PRES_AUD", "trial_index": 158}, "uniqueid": "MTK1489:3KB8R4ZV1FE2BVZ7LGLW143422TGBU", "dateTime": 1515949346224}, {"current_trial": 159, "trialdata": {"rt": -1000, "trial_type": "single-audio", "word": "hand", "stimulus": "/static/audio/wordpool/HAND.wav", "conditions": [24, 800, "a", 24000], "internal_node_id": "0.0-114.0", "trial": 4, "time_elapsed": 732743, "serialpos": 2, "key_press": -1, "wordID": 682, "type": "PRES_AUD", "trial_index": 159}, "uniqueid": "MTK1489:3KB8R4ZV1FE2BVZ7LGLW143422TGBU", "dateTime": 1515949347923}, {"current_trial": 160, "trialdata": {"rt": -1000, "trial_type": "single-audio", "word": "barley", "stimulus": "/static/audio/wordpool/BARLEY.wav", "conditions": [24, 800, "a", 24000], "internal_node_id": "0.0-115.0", "trial": 4, "time_elapsed": 734409, "serialpos": 3, "key_press": -1, "wordID": 87, "type": "PRES_AUD", "trial_index": 160}, "uniqueid": "MTK1489:3KB8R4ZV1FE2BVZ7LGLW143422TGBU", "dateTime": 1515949349589}, {"current_trial": 161, "trialdata": {"rt": -1000, "trial_type": "single-audio", "word": "mustard", "stimulus": "/static/audio/wordpool/MUSTARD.wav", "conditions": [24, 800, "a", 24000], "internal_node_id": "0.0-116.0", "trial": 4, "time_elapsed": 736260, "serialpos": 4, "key_press": -1, "wordID": 934, "type": "PRES_AUD", "trial_index": 161}, "uniqueid": "MTK1489:3KB8R4ZV1FE2BVZ7LGLW143422TGBU", "dateTime": 1515949351440}, {"current_trial": 162, "trialdata": {"rt": -1000, "trial_type": "single-audio", "word": "pigeon", "stimulus": "/static/audio/wordpool/PIGEON.wav", "conditions": [24, 800, "a", 24000], "internal_node_id": "0.0-117.0", "trial": 4, "time_elapsed": 737897, "serialpos": 5, "key_press": -1, "wordID": 1064, "type": "PRES_AUD", "trial_index": 162}, "uniqueid": "MTK1489:3KB8R4ZV1FE2BVZ7LGLW143422TGBU", "dateTime": 1515949353077}, {"current_trial": 163, "trialdata": {"rt": -1000, "trial_type": "single-audio", "word": "shelf", "stimulus": "/static/audio/wordpool/SHELF.wav", "conditions": [24, 800, "a", 24000], "internal_node_id": "0.0-118.0", "trial": 4, "time_elapsed": 739824, "serialpos": 6, "key_press": -1, "wordID": 1279, "type": "PRES_AUD", "trial_index": 163}, "uniqueid": "MTK1489:3KB8R4ZV1FE2BVZ7LGLW143422TGBU", "dateTime": 1515949355005}, {"current_trial": 164, "trialdata": {"rt": 294.7392290249127, "trial_type": "single-audio", "word": "rifle", "stimulus": "/static/audio/wordpool/RIFLE.wav", "conditions": [24, 800, "a", 24000], "internal_node_id": "0.0-119.0", "trial": 4, "time_elapsed": 741522, "serialpos": 7, "key_press": 49, "wordID": 1191, "type": "PRES_AUD", "trial_index": 164}, "uniqueid": "MTK1489:3KB8R4ZV1FE2BVZ7LGLW143422TGBU", "dateTime": 1515949356702}, {"current_trial": 165, "trialdata": {"rt": -1000, "trial_type": "single-audio", "word": "braces", "stimulus": "/static/audio/wordpool/BRACES.wav", "conditions": [24, 800, "a", 24000], "internal_node_id": "0.0-120.0", "trial": 4, "time_elapsed": 743223, "serialpos": 8, "key_press": -1, "wordID": 163, "type": "PRES_AUD", "trial_index": 165}, "uniqueid": "MTK1489:3KB8R4ZV1FE2BVZ7LGLW143422TGBU", "dateTime": 1515949358404}, {"current_trial": 166, "trialdata": {"rt": -1000, "trial_type": "single-audio", "word": "dresser", "stimulus": "/static/audio/wordpool/DRESSER.wav", "conditions": [24, 800, "a", 24000], "internal_node_id": "0.0-121.0", "trial": 4, "time_elapsed": 744997, "serialpos": 9, "key_press": -1, "wordID": 495, "type": "PRES_AUD", "trial_index": 166}, "uniqueid": "MTK1489:3KB8R4ZV1FE2BVZ7LGLW143422TGBU", "dateTime": 1515949360177}, {"current_trial": 167, "trialdata": {"rt": -1000, "trial_type": "single-audio", "word": "cupboard", "stimulus": "/static/audio/wordpool/CUPBOARD.wav", "conditions": [24, 800, "a", 24000], "internal_node_id": "0.0-122.0", "trial": 4, "time_elapsed": 746929, "serialpos": 10, "key_press": -1, "wordID": 424, "type": "PRES_AUD", "trial_index": 167}, "uniqueid": "MTK1489:3KB8R4ZV1FE2BVZ7LGLW143422TGBU", "dateTime": 1515949362110}, {"current_trial": 168, "trialdata": {"rt": -1000, "trial_type": "single-audio", "word": "shoulder", "stimulus": "/static/audio/wordpool/SHOULDER.wav", "conditions": [24, 800, "a", 24000], "internal_node_id": "0.0-123.0", "trial": 4, "time_elapsed": 748685, "serialpos": 11, "key_press": -1, "wordID": 1293, "type": "PRES_AUD", "trial_index": 168}, "uniqueid": "MTK1489:3KB8R4ZV1FE2BVZ7LGLW143422TGBU", "dateTime": 1515949363865}, {"current_trial": 169, "trialdata": {"rt": -1000, "trial_type": "single-audio", "word": "clothes", "stimulus": "/static/audio/wordpool/CLOTHES.wav", "conditions": [24, 800, "a", 24000], "internal_node_id": "0.0-124.0", "trial": 4, "time_elapsed": 750424, "serialpos": 12, "key_press": -1, "wordID": 326, "type": "PRES_AUD", "trial_index": 169}, "uniqueid": "MTK1489:3KB8R4ZV1FE2BVZ7LGLW143422TGBU", "dateTime": 1515949365604}, {"current_trial": 170, "trialdata": {"rt": -1000, "trial_type": "single-audio", "word": "outdoors", "stimulus": "/static/audio/wordpool/OUTDOORS.wav", "conditions": [24, 800, "a", 24000], "internal_node_id": "0.0-125.0", "trial": 4, "time_elapsed": 752078, "serialpos": 13, "key_press": -1, "wordID": 986, "type": "PRES_AUD", "trial_index": 170}, "uniqueid": "MTK1489:3KB8R4ZV1FE2BVZ7LGLW143422TGBU", "dateTime": 1515949367258}, {"current_trial": 171, "trialdata": {"rt": -1000, "trial_type": "single-audio", "word": "missile", "stimulus": "/static/audio/wordpool/MISSILE.wav", "conditions": [24, 800, "a", 24000], "internal_node_id": "0.0-126.0", "trial": 4, "time_elapsed": 753705, "serialpos": 14, "key_press": -1, "wordID": 899, "type": "PRES_AUD", "trial_index": 171}, "uniqueid": "MTK1489:3KB8R4ZV1FE2BVZ7LGLW143422TGBU", "dateTime": 1515949368885}, {"current_trial": 172, "trialdata": {"rt": -1000, "trial_type": "single-audio", "word": "stomach", "stimulus": "/static/audio/wordpool/STOMACH.wav", "conditions": [24, 800, "a", 24000], "internal_node_id": "0.0-127.0", "trial": 4, "time_elapsed": 755515, "serialpos": 15, "key_press": -1, "wordID": 1383, "type": "PRES_AUD", "trial_index": 172}, "uniqueid": "MTK1489:3KB8R4ZV1FE2BVZ7LGLW143422TGBU", "dateTime": 1515949370695}, {"current_trial": 173, "trialdata": {"rt": -1000, "trial_type": "single-audio", "word": "slide", "stimulus": "/static/audio/wordpool/SLIDE.wav", "conditions": [24, 800, "a", 24000], "internal_node_id": "0.0-128.0", "trial": 4, "time_elapsed": 757454, "serialpos": 16, "key_press": -1, "wordID": 1325, "type": "PRES_AUD", "trial_index": 173}, "uniqueid": "MTK1489:3KB8R4ZV1FE2BVZ7LGLW143422TGBU", "dateTime": 1515949372634}, {"current_trial": 174, "trialdata": {"rt": -1000, "trial_type": "single-audio", "word": "airport", "stimulus": "/static/audio/wordpool/AIRPORT.wav", "conditions": [24, 800, "a", 24000], "internal_node_id": "0.0-129.0", "trial": 4, "time_elapsed": 759279, "serialpos": 17, "key_press": -1, "wordID": 12, "type": "PRES_AUD", "trial_index": 174}, "uniqueid": "MTK1489:3KB8R4ZV1FE2BVZ7LGLW143422TGBU", "dateTime": 1515949374459}, {"current_trial": 175, "trialdata": {"rt": -1000, "trial_type": "single-audio", "word": "jury", "stimulus": "/static/audio/wordpool/JURY.wav", "conditions": [24, 800, "a", 24000], "internal_node_id": "0.0-130.0", "trial": 4, "time_elapsed": 761259, "serialpos": 18, "key_press": -1, "wordID": 765, "type": "PRES_AUD", "trial_index": 175}, "uniqueid": "MTK1489:3KB8R4ZV1FE2BVZ7LGLW143422TGBU", "dateTime": 1515949376439}, {"current_trial": 176, "trialdata": {"rt": -1000, "trial_type": "single-audio", "word": "rocket", "stimulus": "/static/audio/wordpool/ROCKET.wav", "conditions": [24, 800, "a", 24000], "internal_node_id": "0.0-131.0", "trial": 4, "time_elapsed": 762923, "serialpos": 19, "key_press": -1, "wordID": 1201, "type": "PRES_AUD", "trial_index": 176}, "uniqueid": "MTK1489:3KB8R4ZV1FE2BVZ7LGLW143422TGBU", "dateTime": 1515949378103}, {"current_trial": 177, "trialdata": {"rt": -1000, "trial_type": "single-audio", "word": "bubble", "stimulus": "/static/audio/wordpool/BUBBLE.wav", "conditions": [24, 800, "a", 24000], "internal_node_id": "0.0-132.0", "trial": 4, "time_elapsed": 764547, "serialpos": 20, "key_press": -1, "wordID": 182, "type": "PRES_AUD", "trial_index": 177}, "uniqueid": "MTK1489:3KB8R4ZV1FE2BVZ7LGLW143422TGBU", "dateTime": 1515949379727}, {"current_trial": 178, "trialdata": {"rt": -1000, "trial_type": "single-audio", "word": "velvet", "stimulus": "/static/audio/wordpool/VELVET.wav", "conditions": [24, 800, "a", 24000], "internal_node_id": "0.0-133.0", "trial": 4, "time_elapsed": 766163, "serialpos": 21, "key_press": -1, "wordID": 1554, "type": "PRES_AUD", "trial_index": 178}, "uniqueid": "MTK1489:3KB8R4ZV1FE2BVZ7LGLW143422TGBU", "dateTime": 1515949381343}, {"current_trial": 179, "trialdata": {"rt": -1000, "trial_type": "single-audio", "word": "silk", "stimulus": "/static/audio/wordpool/SILK.wav", "conditions": [24, 800, "a", 24000], "internal_node_id": "0.0-134.0", "trial": 4, "time_elapsed": 767844, "serialpos": 22, "key_press": -1, "wordID": 1306, "type": "PRES_AUD", "trial_index": 179}, "uniqueid": "MTK1489:3KB8R4ZV1FE2BVZ7LGLW143422TGBU", "dateTime": 1515949383024}, {"current_trial": 180, "trialdata": {"rt": -1000, "trial_type": "single-audio", "word": "bug", "stimulus": "/static/audio/wordpool/BUG.wav", "conditions": [24, 800, "a", 24000], "internal_node_id": "0.0-135.0", "trial": 4, "time_elapsed": 769685, "serialpos": 23, "key_press": -1, "wordID": 186, "type": "PRES_AUD", "trial_index": 180}, "uniqueid": "MTK1489:3KB8R4ZV1FE2BVZ7LGLW143422TGBU", "dateTime": 1515949384865}, {"current_trial": 181, "trialdata": {"rt": -1, "trial_type": "single-stim", "stimulus": "", "internal_node_id": "0.0-136.0-0.0", "time_elapsed": 771083, "key_press": -1, "type": "PRE_RECALL_DELAY", "trial_index": 181}, "uniqueid": "MTK1489:3KB8R4ZV1FE2BVZ7LGLW143422TGBU", "dateTime": 1515949386264}, {"current_trial": 182, "trialdata": {"rt": -1000, "trial_type": "single-audio", "stimulus": "/static/audio/400Hz.wav", "internal_node_id": "0.0-137.0", "time_elapsed": 771585, "key_press": -1, "type": "PRE_RECALL_ALERT", "trial_index": 182}, "uniqueid": "MTK1489:3KB8R4ZV1FE2BVZ7LGLW143422TGBU", "dateTime": 1515949386765}, {"current_trial": 183, "trialdata": {"rt": [4938, 7361, 9233, 12537, 16530, 18865, 23305], "recwords": ["transplant", "arm", "hand", "sholder", "airport", "fly", "stomach"], "key_times": [1315, 1538, 1834, 2321, 2682, 3114, 3442, 3666, 4002, 4338, 4938, 5994, 6305, 6954, 7361, 7802, 8106, 8417, 8809, 9233, 9986, 10377, 10897, 11154, 11642, 11842, 12049, 12537, 13169, 13561, 14081, 14673, 15577, 15881, 16121, 16530, 17217, 17593, 18057, 18865, 20289, 20625, 21289, 21714, 22297, 22513, 22769, 23305], "trial_type": "free-recall", "conditions": [24, 800, "a", 24000], "internal_node_id": "0.0-138.0-0.0", "key_presses": [84, 82, 65, 78, 83, 80, 76, 65, 78, 84, 13, 65, 82, 77, 13, 72, 65, 78, 68, 13, 83, 72, 79, 76, 68, 69, 82, 13, 65, 73, 82, 80, 79, 82, 84, 13, 70, 76, 89, 13, 83, 84, 79, 77, 65, 67, 72, 13], "trial": 4, "time_elapsed": 831586, "type": "FREE_RECALL", "trial_index": 183}, "uniqueid": "MTK1489:3KB8R4ZV1FE2BVZ7LGLW143422TGBU", "dateTime": 1515949446769}, {"current_trial": 184, "trialdata": {"rt": 1248, "trial_type": "text", "internal_node_id": "0.0-139.0", "time_elapsed": 834840, "key_press": 13, "type": "INSTRUCTIONS", "trial_index": 184}, "uniqueid": "MTK1489:3KB8R4ZV1FE2BVZ7LGLW143422TGBU", "dateTime": 1515949450020}, {"current_trial": 185, "trialdata": {"rt": [2920, 4464, 7120, 8872, 11648], "trial_type": "math-distractor", "key_times": [2329, 2464, 2920, 3984, 4248, 4464, 6368, 6688, 7120, 8432, 8656, 8872, 11192, 11480, 11648], "responses": ["18", "12", "16", "12", "23"], "num2": [5, 5, 2, 6, 9, 9], "num3": [7, 2, 8, 5, 5, 9], "conditions": [12, 1600, "a", 12000], "internal_node_id": "0.0-140.0", "key_presses": [49, 56, 13, 49, 50, 13, 49, 54, 13, 49, 50, 13, 50, 51, 13], "trial": 5, "time_elapsed": 848843, "type": "DISTRACTOR", "trial_index": 185, "num1": [6, 5, 6, 1, 9, 9]}, "uniqueid": "MTK1489:3KB8R4ZV1FE2BVZ7LGLW143422TGBU", "dateTime": 1515949464023}, {"current_trial": 186, "trialdata": {"rt": -1, "trial_type": "single-stim", "stimulus": "<p id=\"stim\">10</p>", "internal_node_id": "0.0-141.0-0.0", "time_elapsed": 851845, "key_press": -1, "trial_index": 186}, "uniqueid": "MTK1489:3KB8R4ZV1FE2BVZ7LGLW143422TGBU", "dateTime": 1515949467025}, {"current_trial": 187, "trialdata": {"rt": -1, "trial_type": "single-stim", "stimulus": "<p id=\"stim\">9</p>", "internal_node_id": "0.0-141.0-1.0", "time_elapsed": 852848, "key_press": -1, "trial_index": 187}, "uniqueid": "MTK1489:3KB8R4ZV1FE2BVZ7LGLW143422TGBU", "dateTime": 1515949468028}, {"current_trial": 188, "trialdata": {"rt": -1, "trial_type": "single-stim", "stimulus": "<p id=\"stim\">8</p>", "internal_node_id": "0.0-141.0-2.0", "time_elapsed": 853853, "key_press": -1, "trial_index": 188}, "uniqueid": "MTK1489:3KB8R4ZV1FE2BVZ7LGLW143422TGBU", "dateTime": 1515949469033}, {"current_trial": 189, "trialdata": {"rt": -1, "trial_type": "single-stim", "stimulus": "<p id=\"stim\">7</p>", "internal_node_id": "0.0-141.0-3.0", "time_elapsed": 854858, "key_press": -1, "trial_index": 189}, "uniqueid": "MTK1489:3KB8R4ZV1FE2BVZ7LGLW143422TGBU", "dateTime": 1515949470038}, {"current_trial": 190, "trialdata": {"rt": -1, "trial_type": "single-stim", "stimulus": "<p id=\"stim\">6</p>", "internal_node_id": "0.0-141.0-4.0", "time_elapsed": 855863, "key_press": -1, "trial_index": 190}, "uniqueid": "MTK1489:3KB8R4ZV1FE2BVZ7LGLW143422TGBU", "dateTime": 1515949471043}, {"current_trial": 191, "trialdata": {"rt": -1, "trial_type": "single-stim", "stimulus": "<p id=\"stim\">5</p>", "internal_node_id": "0.0-141.0-5.0", "time_elapsed": 856867, "key_press": -1, "trial_index": 191}, "uniqueid": "MTK1489:3KB8R4ZV1FE2BVZ7LGLW143422TGBU", "dateTime": 1515949472048}, {"current_trial": 192, "trialdata": {"rt": -1, "trial_type": "single-stim", "stimulus": "<p id=\"stim\">4</p>", "internal_node_id": "0.0-141.0-6.0", "time_elapsed": 857868, "key_press": -1, "trial_index": 192}, "uniqueid": "MTK1489:3KB8R4ZV1FE2BVZ7LGLW143422TGBU", "dateTime": 1515949473049}, {"current_trial": 193, "trialdata": {"rt": -1, "trial_type": "single-stim", "stimulus": "<p id=\"stim\">3</p>", "internal_node_id": "0.0-141.0-7.0", "time_elapsed": 858872, "key_press": -1, "trial_index": 193}, "uniqueid": "MTK1489:3KB8R4ZV1FE2BVZ7LGLW143422TGBU", "dateTime": 1515949474052}, {"current_trial": 194, "trialdata": {"rt": -1, "trial_type": "single-stim", "stimulus": "<p id=\"stim\">2</p>", "internal_node_id": "0.0-141.0-8.0", "time_elapsed": 859875, "key_press": -1, "trial_index": 194}, "uniqueid": "MTK1489:3KB8R4ZV1FE2BVZ7LGLW143422TGBU", "dateTime": 1515949475056}, {"current_trial": 195, "trialdata": {"rt": -1, "trial_type": "single-stim", "stimulus": "<p id=\"stim\">1</p>", "internal_node_id": "0.0-141.0-9.0", "time_elapsed": 860880, "key_press": -1, "trial_index": 195}, "uniqueid": "MTK1489:3KB8R4ZV1FE2BVZ7LGLW143422TGBU", "dateTime": 1515949476060}, {"current_trial": 196, "trialdata": {"rt": -1, "trial_type": "single-stim", "stimulus": "<p id=\"stim\">+</p>", "internal_node_id": "0.0-142.0-0.0", "time_elapsed": 862382, "key_press": -1, "type": "FIXATION", "trial_index": 196}, "uniqueid": "MTK1489:3KB8R4ZV1FE2BVZ7LGLW143422TGBU", "dateTime": 1515949477562}, {"current_trial": 197, "trialdata": {"rt": -1000, "trial_type": "single-audio", "word": "whistle", "stimulus": "/static/audio/wordpool/WHISTLE.wav", "conditions": [12, 1600, "a", 12000], "internal_node_id": "0.0-143.0", "trial": 5, "time_elapsed": 865034, "serialpos": 0, "key_press": -1, "wordID": 1605, "type": "PRES_AUD", "trial_index": 197}, "uniqueid": "MTK1489:3KB8R4ZV1FE2BVZ7LGLW143422TGBU", "dateTime": 1515949480214}, {"current_trial": 198, "trialdata": {"rt": -1000, "trial_type": "single-audio", "word": "chest", "stimulus": "/static/audio/wordpool/CHEST.wav", "conditions": [12, 1600, "a", 12000], "internal_node_id": "0.0-144.0", "trial": 5, "time_elapsed": 867519, "serialpos": 1, "key_press": -1, "wordID": 294, "type": "PRES_AUD", "trial_index": 198}, "uniqueid": "MTK1489:3KB8R4ZV1FE2BVZ7LGLW143422TGBU", "dateTime": 1515949482699}, {"current_trial": 199, "trialdata": {"rt": -1000, "trial_type": "single-audio", "word": "dandruff", "stimulus": "/static/audio/wordpool/DANDRUFF.wav", "conditions": [12, 1600, "a", 12000], "internal_node_id": "0.0-145.0", "trial": 5, "time_elapsed": 870107, "serialpos": 2, "key_press": -1, "wordID": 438, "type": "PRES_AUD", "trial_index": 199}, "uniqueid": "MTK1489:3KB8R4ZV1FE2BVZ7LGLW143422TGBU", "dateTime": 1515949485287}, {"current_trial": 200, "trialdata": {"rt": -1000, "trial_type": "single-audio", "word": "eagle", "stimulus": "/static/audio/wordpool/EAGLE.wav", "conditions": [12, 1600, "a", 12000], "internal_node_id": "0.0-146.0", "trial": 5, "time_elapsed": 872583, "serialpos": 3, "key_press": -1, "wordID": 511, "type": "PRES_AUD", "trial_index": 200}, "uniqueid": "MTK1489:3KB8R4ZV1FE2BVZ7LGLW143422TGBU", "dateTime": 1515949487763}, {"current_trial": 201, "trialdata": {"rt": -1000, "trial_type": "single-audio", "word": "daisy", "stimulus": "/static/audio/wordpool/DAISY.wav", "conditions": [12, 1600, "a", 12000], "internal_node_id": "0.0-147.0", "trial": 5, "time_elapsed": 875297, "serialpos": 4, "key_press": -1, "wordID": 434, "type": "PRES_AUD", "trial_index": 201}, "uniqueid": "MTK1489:3KB8R4ZV1FE2BVZ7LGLW143422TGBU", "dateTime": 1515949490478}, {"current_trial": 202, "trialdata": {"rt": -1000, "trial_type": "single-audio", "word": "friend", "stimulus": "/static/audio/wordpool/FRIEND.wav", "conditions": [12, 1600, "a", 12000], "internal_node_id": "0.0-148.0", "trial": 5, "time_elapsed": 877875, "serialpos": 5, "key_press": -1, "wordID": 605, "type": "PRES_AUD", "trial_index": 202}, "uniqueid": "MTK1489:3KB8R4ZV1FE2BVZ7LGLW143422TGBU", "dateTime": 1515949493055}, {"current_trial": 203, "trialdata": {"rt": -1000, "trial_type": "single-audio", "word": "boyfriend", "stimulus": "/static/audio/wordpool/BOYFRIEND.wav", "conditions": [12, 1600, "a", 12000], "internal_node_id": "0.0-149.0", "trial": 5, "time_elapsed": 880458, "serialpos": 6, "key_press": -1, "wordID": 161, "type": "PRES_AUD", "trial_index": 203}, "uniqueid": "MTK1489:3KB8R4ZV1FE2BVZ7LGLW143422TGBU", "dateTime": 1515949495638}, {"current_trial": 204, "trialdata": {"rt": -1000, "trial_type": "single-audio", "word": "bunny", "stimulus": "/static/audio/wordpool/BUNNY.wav", "conditions": [12, 1600, "a", 12000], "internal_node_id": "0.0-150.0", "trial": 5, "time_elapsed": 883175, "serialpos": 7, "key_press": -1, "wordID": 197, "type": "PRES_AUD", "trial_index": 204}, "uniqueid": "MTK1489:3KB8R4ZV1FE2BVZ7LGLW143422TGBU", "dateTime": 1515949498355}, {"current_trial": 205, "trialdata": {"rt": -1000, "trial_type": "single-audio", "word": "crutch", "stimulus": "/static/audio/wordpool/CRUTCH.wav", "conditions": [12, 1600, "a", 12000], "internal_node_id": "0.0-151.0", "trial": 5, "time_elapsed": 885607, "serialpos": 8, "key_press": -1, "wordID": 416, "type": "PRES_AUD", "trial_index": 205}, "uniqueid": "MTK1489:3KB8R4ZV1FE2BVZ7LGLW143422TGBU", "dateTime": 1515949500787}, {"current_trial": 206, "trialdata": {"rt": -1000, "trial_type": "single-audio", "word": "shrub", "stimulus": "/static/audio/wordpool/SHRUB.wav", "conditions": [12, 1600, "a", 12000], "internal_node_id": "0.0-152.0", "trial": 5, "time_elapsed": 888074, "serialpos": 9, "key_press": -1, "wordID": 1298, "type": "PRES_AUD", "trial_index": 206}, "uniqueid": "MTK1489:3KB8R4ZV1FE2BVZ7LGLW143422TGBU", "dateTime": 1515949503254}, {"current_trial": 207, "trialdata": {"rt": -1000, "trial_type": "single-audio", "word": "lumber", "stimulus": "/static/audio/wordpool/LUMBER.wav", "conditions": [12, 1600, "a", 12000], "internal_node_id": "0.0-153.0", "trial": 5, "time_elapsed": 890727, "serialpos": 10, "key_press": -1, "wordID": 847, "type": "PRES_AUD", "trial_index": 207}, "uniqueid": "MTK1489:3KB8R4ZV1FE2BVZ7LGLW143422TGBU", "dateTime": 1515949505907}, {"current_trial": 208, "trialdata": {"rt": -1000, "trial_type": "single-audio", "word": "flower", "stimulus": "/static/audio/wordpool/FLOWER.wav", "conditions": [12, 1600, "a", 12000], "internal_node_id": "0.0-154.0", "trial": 5, "time_elapsed": 893242, "serialpos": 11, "key_press": -1, "wordID": 583, "type": "PRES_AUD", "trial_index": 208}, "uniqueid": "MTK1489:3KB8R4ZV1FE2BVZ7LGLW143422TGBU", "dateTime": 1515949508422}, {"current_trial": 209, "trialdata": {"rt": -1, "trial_type": "single-stim", "stimulus": "", "internal_node_id": "0.0-155.0-0.0", "time_elapsed": 894479, "key_press": -1, "type": "PRE_RECALL_DELAY", "trial_index": 209}, "uniqueid": "MTK1489:3KB8R4ZV1FE2BVZ7LGLW143422TGBU", "dateTime": 1515949509659}, {"current_trial": 210, "trialdata": {"rt": -1000, "trial_type": "single-audio", "stimulus": "/static/audio/400Hz.wav", "internal_node_id": "0.0-156.0", "time_elapsed": 894980, "key_press": -1, "type": "PRE_RECALL_ALERT", "trial_index": 210}, "uniqueid": "MTK1489:3KB8R4ZV1FE2BVZ7LGLW143422TGBU", "dateTime": 1515949510160}, {"current_trial": 211, "trialdata": {"rt": [3635, 6731, 9891], "recwords": ["shrub", "flower", "lumber"], "key_times": [1076, 1452, 1867, 2283, 2907, 3635, 4571, 4947, 5299, 5795, 6051, 6267, 6731, 7451, 7939, 8323, 8779, 9099, 9347, 9891], "trial_type": "free-recall", "conditions": [12, 1600, "a", 12000], "internal_node_id": "0.0-157.0-0.0", "key_presses": [83, 72, 82, 85, 66, 13, 70, 76, 79, 87, 69, 82, 13, 76, 85, 77, 66, 69, 82, 13], "trial": 5, "time_elapsed": 954983, "type": "FREE_RECALL", "trial_index": 211}, "uniqueid": "MTK1489:3KB8R4ZV1FE2BVZ7LGLW143422TGBU", "dateTime": 1515949570165}, {"current_trial": 212, "trialdata": {"rt": 662, "trial_type": "text", "internal_node_id": "0.0-158.0", "time_elapsed": 957648, "key_press": 13, "type": "INSTRUCTIONS", "trial_index": 212}, "uniqueid": "MTK1489:3KB8R4ZV1FE2BVZ7LGLW143422TGBU", "dateTime": 1515949572829}, {"current_trial": 213, "trialdata": {"rt": [3035, 4907, 7331, 10131, 12075, 14627, 16915, 19507, 22315], "trial_type": "math-distractor", "key_times": [2260, 2580, 3035, 4491, 4723, 4907, 6715, 7084, 7331, 9620, 9851, 10131, 11451, 11755, 12075, 13995, 14387, 14627, 16051, 16819, 16915, 18507, 19323, 19507, 21684, 22043, 22315, 23787], "responses": ["18", "12", "13", "12", "13", "14", "17", "12", "13"], "num2": [3, 1, 7, 2, 6, 7, 9, 4, 1, 8], "num3": [9, 6, 3, 1, 6, 2, 7, 4, 5, 3], "conditions": [12, 800, "a", 24000], "internal_node_id": "0.0-159.0", "key_presses": [49, 56, 13, 49, 50, 13, 49, 51, 13, 49, 50, 13, 49, 51, 13, 49, 52, 13, 49, 55, 13, 49, 50, 13, 49, 51, 13, 49], "trial": 6, "time_elapsed": 983655, "type": "DISTRACTOR", "trial_index": 213, "num1": [6, 5, 3, 9, 1, 5, 1, 4, 7, 1]}, "uniqueid": "MTK1489:3KB8R4ZV1FE2BVZ7LGLW143422TGBU", "dateTime": 1515949598836}, {"current_trial": 214, "trialdata": {"rt": -1, "trial_type": "single-stim", "stimulus": "<p id=\"stim\">10</p>", "internal_node_id": "0.0-160.0-0.0", "time_elapsed": 986664, "key_press": -1, "trial_index": 214}, "uniqueid": "MTK1489:3KB8R4ZV1FE2BVZ7LGLW143422TGBU", "dateTime": 1515949601844}, {"current_trial": 215, "trialdata": {"rt": -1, "trial_type": "single-stim", "stimulus": "<p id=\"stim\">9</p>", "internal_node_id": "0.0-160.0-1.0", "time_elapsed": 987669, "key_press": -1, "trial_index": 215}, "uniqueid": "MTK1489:3KB8R4ZV1FE2BVZ7LGLW143422TGBU", "dateTime": 1515949602849}, {"current_trial": 216, "trialdata": {"rt": -1, "trial_type": "single-stim", "stimulus": "<p id=\"stim\">8</p>", "internal_node_id": "0.0-160.0-2.0", "time_elapsed": 988673, "key_press": -1, "trial_index": 216}, "uniqueid": "MTK1489:3KB8R4ZV1FE2BVZ7LGLW143422TGBU", "dateTime": 1515949603853}, {"current_trial": 217, "trialdata": {"rt": -1, "trial_type": "single-stim", "stimulus": "<p id=\"stim\">7</p>", "internal_node_id": "0.0-160.0-3.0", "time_elapsed": 989678, "key_press": -1, "trial_index": 217}, "uniqueid": "MTK1489:3KB8R4ZV1FE2BVZ7LGLW143422TGBU", "dateTime": 1515949604858}, {"current_trial": 218, "trialdata": {"rt": -1, "trial_type": "single-stim", "stimulus": "<p id=\"stim\">6</p>", "internal_node_id": "0.0-160.0-4.0", "time_elapsed": 990680, "key_press": -1, "trial_index": 218}, "uniqueid": "MTK1489:3KB8R4ZV1FE2BVZ7LGLW143422TGBU", "dateTime": 1515949605860}, {"current_trial": 219, "trialdata": {"rt": -1, "trial_type": "single-stim", "stimulus": "<p id=\"stim\">5</p>", "internal_node_id": "0.0-160.0-5.0", "time_elapsed": 991685, "key_press": -1, "trial_index": 219}, "uniqueid": "MTK1489:3KB8R4ZV1FE2BVZ7LGLW143422TGBU", "dateTime": 1515949606865}, {"current_trial": 220, "trialdata": {"rt": -1, "trial_type": "single-stim", "stimulus": "<p id=\"stim\">4</p>", "internal_node_id": "0.0-160.0-6.0", "time_elapsed": 992690, "key_press": -1, "trial_index": 220}, "uniqueid": "MTK1489:3KB8R4ZV1FE2BVZ7LGLW143422TGBU", "dateTime": 1515949607870}, {"current_trial": 221, "trialdata": {"rt": -1, "trial_type": "single-stim", "stimulus": "<p id=\"stim\">3</p>", "internal_node_id": "0.0-160.0-7.0", "time_elapsed": 993695, "key_press": -1, "trial_index": 221}, "uniqueid": "MTK1489:3KB8R4ZV1FE2BVZ7LGLW143422TGBU", "dateTime": 1515949608875}, {"current_trial": 222, "trialdata": {"rt": -1, "trial_type": "single-stim", "stimulus": "<p id=\"stim\">2</p>", "internal_node_id": "0.0-160.0-8.0", "time_elapsed": 994700, "key_press": -1, "trial_index": 222}, "uniqueid": "MTK1489:3KB8R4ZV1FE2BVZ7LGLW143422TGBU", "dateTime": 1515949609880}, {"current_trial": 223, "trialdata": {"rt": -1, "trial_type": "single-stim", "stimulus": "<p id=\"stim\">1</p>", "internal_node_id": "0.0-160.0-9.0", "time_elapsed": 995701, "key_press": -1, "trial_index": 223}, "uniqueid": "MTK1489:3KB8R4ZV1FE2BVZ7LGLW143422TGBU", "dateTime": 1515949610882}, {"current_trial": 224, "trialdata": {"rt": -1, "trial_type": "single-stim", "stimulus": "<p id=\"stim\">+</p>", "internal_node_id": "0.0-161.0-0.0", "time_elapsed": 997207, "key_press": -1, "type": "FIXATION", "trial_index": 224}, "uniqueid": "MTK1489:3KB8R4ZV1FE2BVZ7LGLW143422TGBU", "dateTime": 1515949612387}, {"current_trial": 225, "trialdata": {"rt": -1000, "trial_type": "single-audio", "word": "radish", "stimulus": "/static/audio/wordpool/RADISH.wav", "conditions": [12, 800, "a", 24000], "internal_node_id": "0.0-162.0", "trial": 6, "time_elapsed": 999140, "serialpos": 0, "key_press": -1, "wordID": 1157, "type": "PRES_AUD", "trial_index": 225}, "uniqueid": "MTK1489:3KB8R4ZV1FE2BVZ7LGLW143422TGBU", "dateTime": 1515949614320}, {"current_trial": 226, "trialdata": {"rt": -1000, "trial_type": "single-audio", "word": "bank", "stimulus": "/static/audio/wordpool/BANK.wav", "conditions": [12, 800, "a", 24000], "internal_node_id": "0.0-163.0", "trial": 6, "time_elapsed": 1001000, "serialpos": 1, "key_press": -1, "wordID": 82, "type": "PRES_AUD", "trial_index": 226}, "uniqueid": "MTK1489:3KB8R4ZV1FE2BVZ7LGLW143422TGBU", "dateTime": 1515949616180}, {"current_trial": 227, "trialdata": {"rt": -1000, "trial_type": "single-audio", "word": "branch", "stimulus": "/static/audio/wordpool/BRANCH.wav", "conditions": [12, 800, "a", 24000], "internal_node_id": "0.0-164.0", "trial": 6, "time_elapsed": 1002898, "serialpos": 2, "key_press": -1, "wordID": 167, "type": "PRES_AUD", "trial_index": 227}, "uniqueid": "MTK1489:3KB8R4ZV1FE2BVZ7LGLW143422TGBU", "dateTime": 1515949618078}, {"current_trial": 228, "trialdata": {"rt": -1000, "trial_type": "single-audio", "word": "lizard", "stimulus": "/static/audio/wordpool/LIZARD.wav", "conditions": [12, 800, "a", 24000], "internal_node_id": "0.0-165.0", "trial": 6, "time_elapsed": 1004761, "serialpos": 3, "key_press": -1, "wordID": 833, "type": "PRES_AUD", "trial_index": 228}, "uniqueid": "MTK1489:3KB8R4ZV1FE2BVZ7LGLW143422TGBU", "dateTime": 1515949619942}, {"current_trial": 229, "trialdata": {"rt": -1000, "trial_type": "single-audio", "word": "waitress", "stimulus": "/static/audio/wordpool/WAITRESS.wav", "conditions": [12, 800, "a", 24000], "internal_node_id": "0.0-166.0", "trial": 6, "time_elapsed": 1006572, "serialpos": 4, "key_press": -1, "wordID": 1580, "type": "PRES_AUD", "trial_index": 229}, "uniqueid": "MTK1489:3KB8R4ZV1FE2BVZ7LGLW143422TGBU", "dateTime": 1515949621752}, {"current_trial": 230, "trialdata": {"rt": -1000, "trial_type": "single-audio", "word": "salad", "stimulus": "/static/audio/wordpool/SALAD.wav", "conditions": [12, 800, "a", 24000], "internal_node_id": "0.0-167.0", "trial": 6, "time_elapsed": 1008311, "serialpos": 5, "key_press": -1, "wordID": 1223, "type": "PRES_AUD", "trial_index": 230}, "uniqueid": "MTK1489:3KB8R4ZV1FE2BVZ7LGLW143422TGBU", "dateTime": 1515949623491}, {"current_trial": 231, "trialdata": {"rt": -1000, "trial_type": "single-audio", "word": "apron", "stimulus": "/static/audio/wordpool/APRON.wav", "conditions": [12, 800, "a", 24000], "internal_node_id": "0.0-168.0", "trial": 6, "time_elapsed": 1010102, "serialpos": 6, "key_press": -1, "wordID": 34, "type": "PRES_AUD", "trial_index": 231}, "uniqueid": "MTK1489:3KB8R4ZV1FE2BVZ7LGLW143422TGBU", "dateTime": 1515949625282}, {"current_trial": 232, "trialdata": {"rt": -1000, "trial_type": "single-audio", "word": "helmet", "stimulus": "/static/audio/wordpool/HELMET.wav", "conditions": [12, 800, "a", 24000], "internal_node_id": "0.0-169.0", "trial": 6, "time_elapsed": 1011756, "serialpos": 7, "key_press": -1, "wordID": 701, "type": "PRES_AUD", "trial_index": 232}, "uniqueid": "MTK1489:3KB8R4ZV1FE2BVZ7LGLW143422TGBU", "dateTime": 1515949626936}, {"current_trial": 233, "trialdata": {"rt": -1000, "trial_type": "single-audio", "word": "worker", "stimulus": "/static/audio/wordpool/WORKER.wav", "conditions": [12, 800, "a", 24000], "internal_node_id": "0.0-170.0", "trial": 6, "time_elapsed": 1013364, "serialpos": 8, "key_press": -1, "wordID": 1620, "type": "PRES_AUD", "trial_index": 233}, "uniqueid": "MTK1489:3KB8R4ZV1FE2BVZ7LGLW143422TGBU", "dateTime": 1515949628544}, {"current_trial": 234, "trialdata": {"rt": -1000, "trial_type": "single-audio", "word": "world", "stimulus": "/static/audio/wordpool/WORLD.wav", "conditions": [12, 800, "a", 24000], "internal_node_id": "0.0-171.0", "trial": 6, "time_elapsed": 1014978, "serialpos": 9, "key_press": -1, "wordID": 1621, "type": "PRES_AUD", "trial_index": 234}, "uniqueid": "MTK1489:3KB8R4ZV1FE2BVZ7LGLW143422TGBU", "dateTime": 1515949630158}, {"current_trial": 235, "trialdata": {"rt": -1000, "trial_type": "single-audio", "word": "gymnast", "stimulus": "/static/audio/wordpool/GYMNAST.wav", "conditions": [12, 800, "a", 24000], "internal_node_id": "0.0-172.0", "trial": 6, "time_elapsed": 1016864, "serialpos": 10, "key_press": -1, "wordID": 674, "type": "PRES_AUD", "trial_index": 235}, "uniqueid": "MTK1489:3KB8R4ZV1FE2BVZ7LGLW143422TGBU", "dateTime": 1515949632045}, {"current_trial": 236, "trialdata": {"rt": -1000, "trial_type": "single-audio", "word": "mildew", "stimulus": "/static/audio/wordpool/MILDEW.wav", "conditions": [12, 800, "a", 24000], "internal_node_id": "0.0-173.0", "trial": 6, "time_elapsed": 1018565, "serialpos": 11, "key_press": -1, "wordID": 892, "type": "PRES_AUD", "trial_index": 236}, "uniqueid": "MTK1489:3KB8R4ZV1FE2BVZ7LGLW143422TGBU", "dateTime": 1515949633745}, {"current_trial": 237, "trialdata": {"rt": -1, "trial_type": "single-stim", "stimulus": "", "internal_node_id": "0.0-174.0-0.0", "time_elapsed": 1019848, "key_press": -1, "type": "PRE_RECALL_DELAY", "trial_index": 237}, "uniqueid": "MTK1489:3KB8R4ZV1FE2BVZ7LGLW143422TGBU", "dateTime": 1515949635029}, {"current_trial": 238, "trialdata": {"rt": -1000, "trial_type": "single-audio", "stimulus": "/static/audio/400Hz.wav", "internal_node_id": "0.0-175.0", "time_elapsed": 1020350, "key_press": -1, "type": "PRE_RECALL_ALERT", "trial_index": 238}, "uniqueid": "MTK1489:3KB8R4ZV1FE2BVZ7LGLW143422TGBU", "dateTime": 1515949635530}, {"current_trial": 239, "trialdata": {"rt": [3806, 6581, 11285, 14548, 17812, 22960, 24360, 27279, 30815], "recwords": ["mildew", "worl", "gymnast", "waitress", "apron", "tree", "", "bank", "branch"], "key_times": [1269, 1621, 1916, 2341, 3028, 3341, 3806, 4941, 5220, 5693, 5996, 6581, 7524, 7844, 8668, 9004, 9332, 9636, 9884, 11285, 12132, 12356, 12836, 13156, 13420, 13620, 13916, 14157, 14548, 15068, 15396, 15732, 16036, 16740, 17812, 21920, 22111, 22416, 22672, 22960, 24360, 24624, 24983, 26215, 26855, 27279, 28319, 28679, 29191, 29623, 30063, 30343, 30815], "trial_type": "free-recall", "conditions": [12, 800, "a", 24000], "internal_node_id": "0.0-176.0-0.0", "key_presses": [77, 73, 76, 68, 69, 87, 13, 87, 79, 82, 76, 13, 71, 89, 77, 78, 65, 83, 84, 13, 87, 65, 73, 84, 82, 69, 83, 83, 13, 65, 80, 82, 79, 78, 13, 84, 82, 69, 69, 13, 32, 66, 65, 78, 75, 13, 66, 82, 65, 78, 67, 72, 13], "trial": 6, "time_elapsed": 1080351, "type": "FREE_RECALL", "trial_index": 239}, "uniqueid": "MTK1489:3KB8R4ZV1FE2BVZ7LGLW143422TGBU", "dateTime": 1515949695534}, {"current_trial": 240, "trialdata": {"rt": 2292, "trial_type": "text", "internal_node_id": "0.0-177.0", "time_elapsed": 1084647, "key_press": 13, "type": "INSTRUCTIONS", "trial_index": 240}, "uniqueid": "MTK1489:3KB8R4ZV1FE2BVZ7LGLW143422TGBU", "dateTime": 1515949699828}, {"current_trial": 241, "trialdata": {"rt": [3258, 6754, 10841, 13185, 16353, 19649, 23105], "trial_type": "math-distractor", "key_times": [2170, 2457, 3258, 5690, 5970, 6754, 9754, 9985, 10841, 12841, 13185, 15505, 15873, 16353, 19313, 19545, 19649, 21978, 22409, 23105], "responses": ["16", "15", "11", "1", "10", "22", "18"], "num2": [6, 4, 5, 1, 6, 6, 9, 6], "num3": [9, 3, 2, 3, 3, 8, 2, 5], "conditions": [12, 1600, "a", 24000], "internal_node_id": "0.0-178.0", "key_presses": [49, 54, 13, 49, 53, 13, 49, 49, 13, 49, 13, 49, 48, 13, 50, 50, 13, 49, 56, 13], "trial": 7, "time_elapsed": 1110655, "type": "DISTRACTOR", "trial_index": 241, "num1": [1, 8, 4, 3, 1, 8, 7, 5]}, "uniqueid": "MTK1489:3KB8R4ZV1FE2BVZ7LGLW143422TGBU", "dateTime": 1515949725836}, {"current_trial": 242, "trialdata": {"rt": -1, "trial_type": "single-stim", "stimulus": "<p id=\"stim\">10</p>", "internal_node_id": "0.0-179.0-0.0", "time_elapsed": 1113662, "key_press": -1, "trial_index": 242}, "uniqueid": "MTK1489:3KB8R4ZV1FE2BVZ7LGLW143422TGBU", "dateTime": 1515949728842}, {"current_trial": 243, "trialdata": {"rt": -1, "trial_type": "single-stim", "stimulus": "<p id=\"stim\">9</p>", "internal_node_id": "0.0-179.0-1.0", "time_elapsed": 1114663, "key_press": -1, "trial_index": 243}, "uniqueid": "MTK1489:3KB8R4ZV1FE2BVZ7LGLW143422TGBU", "dateTime": 1515949729843}, {"current_trial": 244, "trialdata": {"rt": -1, "trial_type": "single-stim", "stimulus": "<p id=\"stim\">8</p>", "internal_node_id": "0.0-179.0-2.0", "time_elapsed": 1115666, "key_press": -1, "trial_index": 244}, "uniqueid": "MTK1489:3KB8R4ZV1FE2BVZ7LGLW143422TGBU", "dateTime": 1515949730846}, {"current_trial": 245, "trialdata": {"rt": -1, "trial_type": "single-stim", "stimulus": "<p id=\"stim\">7</p>", "internal_node_id": "0.0-179.0-3.0", "time_elapsed": 1116670, "key_press": -1, "trial_index": 245}, "uniqueid": "MTK1489:3KB8R4ZV1FE2BVZ7LGLW143422TGBU", "dateTime": 1515949731851}, {"current_trial": 246, "trialdata": {"rt": -1, "trial_type": "single-stim", "stimulus": "<p id=\"stim\">6</p>", "internal_node_id": "0.0-179.0-4.0", "time_elapsed": 1117675, "key_press": -1, "trial_index": 246}, "uniqueid": "MTK1489:3KB8R4ZV1FE2BVZ7LGLW143422TGBU", "dateTime": 1515949732855}, {"current_trial": 247, "trialdata": {"rt": -1, "trial_type": "single-stim", "stimulus": "<p id=\"stim\">5</p>", "internal_node_id": "0.0-179.0-5.0", "time_elapsed": 1118680, "key_press": -1, "trial_index": 247}, "uniqueid": "MTK1489:3KB8R4ZV1FE2BVZ7LGLW143422TGBU", "dateTime": 1515949733861}, {"current_trial": 248, "trialdata": {"rt": -1, "trial_type": "single-stim", "stimulus": "<p id=\"stim\">4</p>", "internal_node_id": "0.0-179.0-6.0", "time_elapsed": 1119686, "key_press": -1, "trial_index": 248}, "uniqueid": "MTK1489:3KB8R4ZV1FE2BVZ7LGLW143422TGBU", "dateTime": 1515949734866}, {"current_trial": 249, "trialdata": {"rt": -1, "trial_type": "single-stim", "stimulus": "<p id=\"stim\">3</p>", "internal_node_id": "0.0-179.0-7.0", "time_elapsed": 1120689, "key_press": -1, "trial_index": 249}, "uniqueid": "MTK1489:3KB8R4ZV1FE2BVZ7LGLW143422TGBU", "dateTime": 1515949735869}, {"current_trial": 250, "trialdata": {"rt": -1, "trial_type": "single-stim", "stimulus": "<p id=\"stim\">2</p>", "internal_node_id": "0.0-179.0-8.0", "time_elapsed": 1121693, "key_press": -1, "trial_index": 250}, "uniqueid": "MTK1489:3KB8R4ZV1FE2BVZ7LGLW143422TGBU", "dateTime": 1515949736874}, {"current_trial": 251, "trialdata": {"rt": -1, "trial_type": "single-stim", "stimulus": "<p id=\"stim\">1</p>", "internal_node_id": "0.0-179.0-9.0", "time_elapsed": 1122698, "key_press": -1, "trial_index": 251}, "uniqueid": "MTK1489:3KB8R4ZV1FE2BVZ7LGLW143422TGBU", "dateTime": 1515949737878}, {"current_trial": 252, "trialdata": {"rt": -1, "trial_type": "single-stim", "stimulus": "<p id=\"stim\">+</p>", "internal_node_id": "0.0-180.0-0.0", "time_elapsed": 1124200, "key_press": -1, "type": "FIXATION", "trial_index": 252}, "uniqueid": "MTK1489:3KB8R4ZV1FE2BVZ7LGLW143422TGBU", "dateTime": 1515949739380}, {"current_trial": 253, "trialdata": {"rt": -1000, "trial_type": "single-audio", "word": "uncle", "stimulus": "/static/audio/wordpool/UNCLE.wav", "conditions": [12, 1600, "a", 24000], "internal_node_id": "0.0-181.0", "trial": 7, "time_elapsed": 1126983, "serialpos": 0, "key_press": -1, "wordID": 1535, "type": "PRES_AUD", "trial_index": 253}, "uniqueid": "MTK1489:3KB8R4ZV1FE2BVZ7LGLW143422TGBU", "dateTime": 1515949742164}, {"current_trial": 254, "trialdata": {"rt": -1000, "trial_type": "single-audio", "word": "wasp", "stimulus": "/static/audio/wordpool/WASP.wav", "conditions": [12, 1600, "a", 24000], "internal_node_id": "0.0-182.0", "trial": 7, "time_elapsed": 1129494, "serialpos": 1, "key_press": -1, "wordID": 1592, "type": "PRES_AUD", "trial_index": 254}, "uniqueid": "MTK1489:3KB8R4ZV1FE2BVZ7LGLW143422TGBU", "dateTime": 1515949744674}, {"current_trial": 255, "trialdata": {"rt": -1000, "trial_type": "single-audio", "word": "salt", "stimulus": "/static/audio/wordpool/SALT.wav", "conditions": [12, 1600, "a", 24000], "internal_node_id": "0.0-183.0", "trial": 7, "time_elapsed": 1132199, "serialpos": 2, "key_press": -1, "wordID": 1228, "type": "PRES_AUD", "trial_index": 255}, "u