{"condition": 0, "counterbalance": 999, "assignmentId": "3E337GFOLAF4C4O4O6Q5SZ3YH5XNG6", "workerId": "MTK1094", "hitId": "3XDJY5RK5SSZ8UHZ04VO8L25JMB4UB", "currenttrial": 626, "bonus": 0, "data": [{"uniqueid": "MTK1094:3E337GFOLAF4C4O4O6Q5SZ3YH5XNG6", "current_trial": 0, "dateTime": 1513102571545, "trialdata": {"rt": 65517, "key_press": 13, "type": "INSTRUCTIONS", "trial_type": "text", "trial_index": 0, "time_elapsed": 65525, "internal_node_id": "0.0-0.0"}}, {"uniqueid": "MTK1094:3E337GFOLAF4C4O4O6Q5SZ3YH5XNG6", "current_trial": 1, "dateTime": 1513102576752, "trialdata": {"rt": 5202, "key_press": 183, "type": "INSTRUCTIONS", "trial_type": "text", "trial_index": 1, "time_elapsed": 70732, "internal_node_id": "0.0-1.0"}}, {"uniqueid": "MTK1094:3E337GFOLAF4C4O4O6Q5SZ3YH5XNG6", "current_trial": 2, "dateTime": 1513102588721, "trialdata": {"rt": [11822], "responses": ["ocean"], "type": "AUDIO_TEST", "trial_type": "audio-test", "trial_index": 2, "time_elapsed": 82703, "internal_node_id": "0.0-2.0"}}, {"uniqueid": "MTK1094:3E337GFOLAF4C4O4O6Q5SZ3YH5XNG6", "current_trial": 3, "dateTime": 1513102597100, "trialdata": {"rt": [8338], "responses": ["crystal"], "type": "AUDIO_TEST", "trial_type": "audio-test", "trial_index": 3, "time_elapsed": 91081, "internal_node_id": "0.0-3.0"}}, {"uniqueid": "MTK1094:3E337GFOLAF4C4O4O6Q5SZ3YH5XNG6", "current_trial": 4, "dateTime": 1513102603501, "trialdata": {"rt": [6359], "responses": ["spice"], "type": "AUDIO_TEST", "trial_type": "audio-test", "trial_index": 4, "time_elapsed": 97482, "internal_node_id": "0.0-4.0"}}, {"uniqueid": "MTK1094:3E337GFOLAF4C4O4O6Q5SZ3YH5XNG6", "current_trial": 5, "dateTime": 1513102645264, "trialdata": {"rt": 41002, "responses": "{\"Q0\":\"9:00 p.m.\",\"Q1\":\"6:00 a.m.\",\"Q2\":\"5\"}", "type": "SLEEP_SURVEY", "trial_type": "survey-text", "trial_index": 5, "time_elapsed": 139245, "internal_node_id": "0.0-5.0"}}, {"uniqueid": "MTK1094:3E337GFOLAF4C4O4O6Q5SZ3YH5XNG6", "current_trial": 6, "dateTime": 1513102687182, "trialdata": {"rt": 40908, "key_press": 32, "type": "INSTRUCTIONS", "trial_type": "text", "trial_index": 6, "time_elapsed": 181164, "internal_node_id": "0.0-6.0"}}, {"uniqueid": "MTK1094:3E337GFOLAF4C4O4O6Q5SZ3YH5XNG6", "current_trial": 7, "dateTime": 1513102707466, "trialdata": {"rt": 19779, "key_press": 32, "type": "INSTRUCTIONS", "trial_type": "text", "trial_index": 7, "time_elapsed": 201448, "internal_node_id": "0.0-7.0"}}, {"uniqueid": "MTK1094:3E337GFOLAF4C4O4O6Q5SZ3YH5XNG6", "current_trial": 8, "dateTime": 1513102721549, "trialdata": {"rt": 13567, "key_press": 32, "type": "INSTRUCTIONS", "trial_type": "text", "trial_index": 8, "time_elapsed": 215531, "internal_node_id": "0.0-8.0"}}, {"uniqueid": "MTK1094:3E337GFOLAF4C4O4O6Q5SZ3YH5XNG6", "current_trial": 9, "dateTime": 1513102740567, "trialdata": {"rt": [4579, 10553, 14386, 16842], "responses": ["7", "21", "15", "7"], "num1": [1, 5, 8, 3, 2], "num2": [5, 7, 1, 3, 5], "num3": [1, 9, 6, 1, 1], "type": "DISTRACTOR", "conditions": [18, 1200, "a", 18000], "trial": 0, "trial_type": "math-distractor", "trial_index": 9, "time_elapsed": 234548, "internal_node_id": "0.0-9.0"}}, {"uniqueid": "MTK1094:3E337GFOLAF4C4O4O6Q5SZ3YH5XNG6", "current_trial": 10, "dateTime": 1513102743579, "trialdata": {"rt": -1, "stimulus": "<p id=\"stim\">10</p>", "key_press": -1, "trial_type": "single-stim", "trial_index": 10, "time_elapsed": 237561, "internal_node_id": "0.0-10.0-0.0"}}, {"uniqueid": "MTK1094:3E337GFOLAF4C4O4O6Q5SZ3YH5XNG6", "current_trial": 11, "dateTime": 1513102744582, "trialdata": {"rt": 630, "stimulus": "<p id=\"stim\">9</p>", "key_press": 49, "trial_type": "single-stim", "trial_index": 11, "time_elapsed": 238563, "internal_node_id": "0.0-10.0-1.0"}}, {"uniqueid": "MTK1094:3E337GFOLAF4C4O4O6Q5SZ3YH5XNG6", "current_trial": 12, "dateTime": 1513102745587, "trialdata": {"rt": 491, "stimulus": "<p id=\"stim\">8</p>", "key_press": 48, "trial_type": "single-stim", "trial_index": 12, "time_elapsed": 239569, "internal_node_id": "0.0-10.0-2.0"}}, {"uniqueid": "MTK1094:3E337GFOLAF4C4O4O6Q5SZ3YH5XNG6", "current_trial": 13, "dateTime": 1513102746593, "trialdata": {"rt": -1, "stimulus": "<p id=\"stim\">7</p>", "key_press": -1, "trial_type": "single-stim", "trial_index": 13, "time_elapsed": 240574, "internal_node_id": "0.0-10.0-3.0"}}, {"uniqueid": "MTK1094:3E337GFOLAF4C4O4O6Q5SZ3YH5XNG6", "current_trial": 14, "dateTime": 1513102747601, "trialdata": {"rt": -1, "stimulus": "<p id=\"stim\">6</p>", "key_press": -1, "trial_type": "single-stim", "trial_index": 14, "time_elapsed": 241582, "internal_node_id": "0.0-10.0-4.0"}}, {"uniqueid": "MTK1094:3E337GFOLAF4C4O4O6Q5SZ3YH5XNG6", "current_trial": 15, "dateTime": 1513102748605, "trialdata": {"rt": -1, "stimulus": "<p id=\"stim\">5</p>", "key_press": -1, "trial_type": "single-stim", "trial_index": 15, "time_elapsed": 242587, "internal_node_id": "0.0-10.0-5.0"}}, {"uniqueid": "MTK1094:3E337GFOLAF4C4O4O6Q5SZ3YH5XNG6", "current_trial": 16, "dateTime": 1513102749612, "trialdata": {"rt": -1, "stimulus": "<p id=\"stim\">4</p>", "key_press": -1, "trial_type": "single-stim", "trial_index": 16, "time_elapsed": 243594, "internal_node_id": "0.0-10.0-6.0"}}, {"uniqueid": "MTK1094:3E337GFOLAF4C4O4O6Q5SZ3YH5XNG6", "current_trial": 17, "dateTime": 1513102750616, "trialdata": {"rt": -1, "stimulus": "<p id=\"stim\">3</p>", "key_press": -1, "trial_type": "single-stim", "trial_index": 17, "time_elapsed": 244598, "internal_node_id": "0.0-10.0-7.0"}}, {"uniqueid": "MTK1094:3E337GFOLAF4C4O4O6Q5SZ3YH5XNG6", "current_trial": 18, "dateTime": 1513102751621, "trialdata": {"rt": -1, "stimulus": "<p id=\"stim\">2</p>", "key_press": -1, "trial_type": "single-stim", "trial_index": 18, "time_elapsed": 245603, "internal_node_id": "0.0-10.0-8.0"}}, {"uniqueid": "MTK1094:3E337GFOLAF4C4O4O6Q5SZ3YH5XNG6", "current_trial": 19, "dateTime": 1513102752627, "trialdata": {"rt": -1, "stimulus": "<p id=\"stim\">1</p>", "key_press": -1, "trial_type": "single-stim", "trial_index": 19, "time_elapsed": 246608, "internal_node_id": "0.0-10.0-9.0"}}, {"uniqueid": "MTK1094:3E337GFOLAF4C4O4O6Q5SZ3YH5XNG6", "current_trial": 20, "dateTime": 1513102754146, "trialdata": {"rt": -1, "stimulus": "<p id=\"stim\">+</p>", "key_press": -1, "type": "FIXATION", "trial_type": "single-stim", "trial_index": 20, "time_elapsed": 248126, "internal_node_id": "0.0-11.0-0.0"}}, {"uniqueid": "MTK1094:3E337GFOLAF4C4O4O6Q5SZ3YH5XNG6", "current_trial": 21, "dateTime": 1513102756422, "trialdata": {"rt": -1000, "stimulus": "/static/audio/wordpool/CUPBOARD.wav", "key_press": -1, "type": "PRES_AUD", "word": "cupboard", "wordID": 424, "conditions": [18, 1200, "a", 18000], "trial": 0, "serialpos": 0, "trial_type": "single-audio", "trial_index": 21, "time_elapsed": 250403, "internal_node_id": "0.0-12.0"}}, {"uniqueid": "MTK1094:3E337GFOLAF4C4O4O6Q5SZ3YH5XNG6", "current_trial": 22, "dateTime": 1513102758786, "trialdata": {"rt": -1000, "stimulus": "/static/audio/wordpool/HOUND.wav", "key_press": -1, "type": "PRES_AUD", "word": "hound", "wordID": 723, "conditions": [18, 1200, "a", 18000], "trial": 0, "serialpos": 1, "trial_type": "single-audio", "trial_index": 22, "time_elapsed": 252768, "internal_node_id": "0.0-13.0"}}, {"uniqueid": "MTK1094:3E337GFOLAF4C4O4O6Q5SZ3YH5XNG6", "current_trial": 23, "dateTime": 1513102760829, "trialdata": {"rt": -1000, "stimulus": "/static/audio/wordpool/DRIVER.wav", "key_press": -1, "type": "PRES_AUD", "word": "driver", "wordID": 498, "conditions": [18, 1200, "a", 18000], "trial": 0, "serialpos": 2, "trial_type": "single-audio", "trial_index": 23, "time_elapsed": 254811, "internal_node_id": "0.0-14.0"}}, {"uniqueid": "MTK1094:3E337GFOLAF4C4O4O6Q5SZ3YH5XNG6", "current_trial": 24, "dateTime": 1513102763060, "trialdata": {"rt": -1000, "stimulus": "/static/audio/wordpool/CUSTARD.wav", "key_press": -1, "type": "PRES_AUD", "word": "custard", "wordID": 428, "conditions": [18, 1200, "a", 18000], "trial": 0, "serialpos": 3, "trial_type": "single-audio", "trial_index": 24, "time_elapsed": 257042, "internal_node_id": "0.0-15.0"}}, {"uniqueid": "MTK1094:3E337GFOLAF4C4O4O6Q5SZ3YH5XNG6", "current_trial": 25, "dateTime": 1513102765176, "trialdata": {"rt": -1000, "stimulus": "/static/audio/wordpool/SHERIFF.wav", "key_press": -1, "type": "PRES_AUD", "word": "sheriff", "wordID": 1283, "conditions": [18, 1200, "a", 18000], "trial": 0, "serialpos": 4, "trial_type": "single-audio", "trial_index": 25, "time_elapsed": 259158, "internal_node_id": "0.0-16.0"}}, {"uniqueid": "MTK1094:3E337GFOLAF4C4O4O6Q5SZ3YH5XNG6", "current_trial": 26, "dateTime": 1513102767294, "trialdata": {"rt": -1000, "stimulus": "/static/audio/wordpool/GRAVE.wav", "key_press": -1, "type": "PRES_AUD", "word": "grave", "wordID": 657, "conditions": [18, 1200, "a", 18000], "trial": 0, "serialpos": 5, "trial_type": "single-audio", "trial_index": 26, "time_elapsed": 261275, "internal_node_id": "0.0-17.0"}}, {"uniqueid": "MTK1094:3E337GFOLAF4C4O4O6Q5SZ3YH5XNG6", "current_trial": 27, "dateTime": 1513102769630, "trialdata": {"rt": -1000, "stimulus": "/static/audio/wordpool/PARENT.wav", "key_press": -1, "type": "PRES_AUD", "word": "parent", "wordID": 1012, "conditions": [18, 1200, "a", 18000], "trial": 0, "serialpos": 6, "trial_type": "single-audio", "trial_index": 27, "time_elapsed": 263612, "internal_node_id": "0.0-18.0"}}, {"uniqueid": "MTK1094:3E337GFOLAF4C4O4O6Q5SZ3YH5XNG6", "current_trial": 28, "dateTime": 1513102771681, "trialdata": {"rt": -1000, "stimulus": "/static/audio/wordpool/JOURNAL.wav", "key_press": -1, "type": "PRES_AUD", "word": "journal", "wordID": 759, "conditions": [18, 1200, "a", 18000], "trial": 0, "serialpos": 7, "trial_type": "single-audio", "trial_index": 28, "time_elapsed": 265663, "internal_node_id": "0.0-19.0"}}, {"uniqueid": "MTK1094:3E337GFOLAF4C4O4O6Q5SZ3YH5XNG6", "current_trial": 29, "dateTime": 1513102773832, "trialdata": {"rt": -1000, "stimulus": "/static/audio/wordpool/CAPTIVE.wav", "key_press": -1, "type": "PRES_AUD", "word": "captive", "wordID": 239, "conditions": [18, 1200, "a", 18000], "trial": 0, "serialpos": 8, "trial_type": "single-audio", "trial_index": 29, "time_elapsed": 267814, "internal_node_id": "0.0-20.0"}}, {"uniqueid": "MTK1094:3E337GFOLAF4C4O4O6Q5SZ3YH5XNG6", "current_trial": 30, "dateTime": 1513102776044, "trialdata": {"rt": -1000, "stimulus": "/static/audio/wordpool/POSSUM.wav", "key_press": -1, "type": "PRES_AUD", "word": "possum", "wordID": 1111, "conditions": [18, 1200, "a", 18000], "trial": 0, "serialpos": 9, "trial_type": "single-audio", "trial_index": 30, "time_elapsed": 270026, "internal_node_id": "0.0-21.0"}}, {"uniqueid": "MTK1094:3E337GFOLAF4C4O4O6Q5SZ3YH5XNG6", "current_trial": 31, "dateTime": 1513102778381, "trialdata": {"rt": -1000, "stimulus": "/static/audio/wordpool/SUPPER.wav", "key_press": -1, "type": "PRES_AUD", "word": "supper", "wordID": 1410, "conditions": [18, 1200, "a", 18000], "trial": 0, "serialpos": 10, "trial_type": "single-audio", "trial_index": 31, "time_elapsed": 272363, "internal_node_id": "0.0-22.0"}}, {"uniqueid": "MTK1094:3E337GFOLAF4C4O4O6Q5SZ3YH5XNG6", "current_trial": 32, "dateTime": 1513102780454, "trialdata": {"rt": -1000, "stimulus": "/static/audio/wordpool/COCOON.wav", "key_press": -1, "type": "PRES_AUD", "word": "cocoon", "wordID": 338, "conditions": [18, 1200, "a", 18000], "trial": 0, "serialpos": 11, "trial_type": "single-audio", "trial_index": 32, "time_elapsed": 274435, "internal_node_id": "0.0-23.0"}}, {"uniqueid": "MTK1094:3E337GFOLAF4C4O4O6Q5SZ3YH5XNG6", "current_trial": 33, "dateTime": 1513102782775, "trialdata": {"rt": -1000, "stimulus": "/static/audio/wordpool/WHISKERS.wav", "key_press": -1, "type": "PRES_AUD", "word": "whiskers", "wordID": 1604, "conditions": [18, 1200, "a", 18000], "trial": 0, "serialpos": 12, "trial_type": "single-audio", "trial_index": 33, "time_elapsed": 276757, "internal_node_id": "0.0-24.0"}}, {"uniqueid": "MTK1094:3E337GFOLAF4C4O4O6Q5SZ3YH5XNG6", "current_trial": 34, "dateTime": 1513102784986, "trialdata": {"rt": -1000, "stimulus": "/static/audio/wordpool/CITRUS.wav", "key_press": -1, "type": "PRES_AUD", "word": "citrus", "wordID": 312, "conditions": [18, 1200, "a", 18000], "trial": 0, "serialpos": 13, "trial_type": "single-audio", "trial_index": 34, "time_elapsed": 278967, "internal_node_id": "0.0-25.0"}}, {"uniqueid": "MTK1094:3E337GFOLAF4C4O4O6Q5SZ3YH5XNG6", "current_trial": 35, "dateTime": 1513102787337, "trialdata": {"rt": -1000, "stimulus": "/static/audio/wordpool/BEAST.wav", "key_press": -1, "type": "PRES_AUD", "word": "beast", "wordID": 107, "conditions": [18, 1200, "a", 18000], "trial": 0, "serialpos": 14, "trial_type": "single-audio", "trial_index": 35, "time_elapsed": 281319, "internal_node_id": "0.0-26.0"}}, {"uniqueid": "MTK1094:3E337GFOLAF4C4O4O6Q5SZ3YH5XNG6", "current_trial": 36, "dateTime": 1513102789723, "trialdata": {"rt": -1000, "stimulus": "/static/audio/wordpool/DIVER.wav", "key_press": -1, "type": "PRES_AUD", "word": "diver", "wordID": 475, "conditions": [18, 1200, "a", 18000], "trial": 0, "serialpos": 15, "trial_type": "single-audio", "trial_index": 36, "time_elapsed": 283705, "internal_node_id": "0.0-27.0"}}, {"uniqueid": "MTK1094:3E337GFOLAF4C4O4O6Q5SZ3YH5XNG6", "current_trial": 37, "dateTime": 1513102791967, "trialdata": {"rt": -1000, "stimulus": "/static/audio/wordpool/SNAKE.wav", "key_press": -1, "type": "PRES_AUD", "word": "snake", "wordID": 1332, "conditions": [18, 1200, "a", 18000], "trial": 0, "serialpos": 16, "trial_type": "single-audio", "trial_index": 37, "time_elapsed": 285949, "internal_node_id": "0.0-28.0"}}, {"uniqueid": "MTK1094:3E337GFOLAF4C4O4O6Q5SZ3YH5XNG6", "current_trial": 38, "dateTime": 1513102794350, "trialdata": {"rt": -1000, "stimulus": "/static/audio/wordpool/PUPPY.wav", "key_press": -1, "type": "PRES_AUD", "word": "puppy", "wordID": 1143, "conditions": [18, 1200, "a", 18000], "trial": 0, "serialpos": 17, "trial_type": "single-audio", "trial_index": 38, "time_elapsed": 288332, "internal_node_id": "0.0-29.0"}}, {"uniqueid": "MTK1094:3E337GFOLAF4C4O4O6Q5SZ3YH5XNG6", "current_trial": 39, "dateTime": 1513102795695, "trialdata": {"rt": -1, "stimulus": "", "key_press": -1, "type": "PRE_RECALL_DELAY", "trial_type": "single-stim", "trial_index": 39, "time_elapsed": 289677, "internal_node_id": "0.0-30.0-0.0"}}, {"uniqueid": "MTK1094:3E337GFOLAF4C4O4O6Q5SZ3YH5XNG6", "current_trial": 40, "dateTime": 1513102796206, "trialdata": {"rt": -1000, "stimulus": "/static/audio/400Hz.wav", "key_press": -1, "type": "PRE_RECALL_ALERT", "trial_type": "single-audio", "trial_index": 40, "time_elapsed": 290188, "internal_node_id": "0.0-31.0"}}, {"uniqueid": "MTK1094:3E337GFOLAF4C4O4O6Q5SZ3YH5XNG6", "current_trial": 41, "dateTime": 1513102856238, "trialdata": {"rt": [5192, 7536, 8056, 13032, 15988, 19664, 24278, 29892, 35635, 42751, 54034], "recwords": ["puppy", "snake", "", "cocoon", "possum", "beast", "custard", "cupboard", "grave", "snake", "parent"], "type": "FREE_RECALL", "conditions": [18, 1200, "a", 18000], "trial": 0, "trial_type": "free-recall", "trial_index": 41, "time_elapsed": 350209, "internal_node_id": "0.0-32.0-0.0"}}, {"uniqueid": "MTK1094:3E337GFOLAF4C4O4O6Q5SZ3YH5XNG6", "current_trial": 42, "dateTime": 1513102861225, "trialdata": {"rt": 2982, "key_press": 32, "type": "INSTRUCTIONS", "trial_type": "text", "trial_index": 42, "time_elapsed": 355206, "internal_node_id": "0.0-33.0"}}, {"uniqueid": "MTK1094:3E337GFOLAF4C4O4O6Q5SZ3YH5XNG6", "current_trial": 43, "dateTime": 1513102881245, "trialdata": {"rt": [4611, 7304, 9389, 11412, 14454, 17375], "responses": ["16", "15", "7", "9", "15", "24"], "num1": [1, 9, 2, 3, 9, 9, 8], "num2": [7, 1, 3, 5, 4, 9, 6], "num3": [8, 5, 2, 1, 2, 6, 1], "type": "DISTRACTOR", "conditions": [18, 1200, "v", 18000], "trial": 1, "trial_type": "math-distractor", "trial_index": 43, "time_elapsed": 375226, "internal_node_id": "0.0-34.0"}}, {"uniqueid": "MTK1094:3E337GFOLAF4C4O4O6Q5SZ3YH5XNG6", "current_trial": 44, "dateTime": 1513102884265, "trialdata": {"rt": -1, "stimulus": "<p id=\"stim\">10</p>", "key_press": -1, "trial_type": "single-stim", "trial_index": 44, "time_elapsed": 378247, "internal_node_id": "0.0-35.0-0.0"}}, {"uniqueid": "MTK1094:3E337GFOLAF4C4O4O6Q5SZ3YH5XNG6", "current_trial": 45, "dateTime": 1513102885271, "trialdata": {"rt": -1, "stimulus": "<p id=\"stim\">9</p>", "key_press": -1, "trial_type": "single-stim", "trial_index": 45, "time_elapsed": 379253, "internal_node_id": "0.0-35.0-1.0"}}, {"uniqueid": "MTK1094:3E337GFOLAF4C4O4O6Q5SZ3YH5XNG6", "current_trial": 46, "dateTime": 1513102886277, "trialdata": {"rt": -1, "stimulus": "<p id=\"stim\">8</p>", "key_press": -1, "trial_type": "single-stim", "trial_index": 46, "time_elapsed": 380259, "internal_node_id": "0.0-35.0-2.0"}}, {"uniqueid": "MTK1094:3E337GFOLAF4C4O4O6Q5SZ3YH5XNG6", "current_trial": 47, "dateTime": 1513102887284, "trialdata": {"rt": -1, "stimulus": "<p id=\"stim\">7</p>", "key_press": -1, "trial_type": "single-stim", "trial_index": 47, "time_elapsed": 381265, "internal_node_id": "0.0-35.0-3.0"}}, {"uniqueid": "MTK1094:3E337GFOLAF4C4O4O6Q5SZ3YH5XNG6", "current_trial": 48, "dateTime": 1513102888289, "trialdata": {"rt": -1, "stimulus": "<p id=\"stim\">6</p>", "key_press": -1, "trial_type": "single-stim", "trial_index": 48, "time_elapsed": 382271, "internal_node_id": "0.0-35.0-4.0"}}, {"uniqueid": "MTK1094:3E337GFOLAF4C4O4O6Q5SZ3YH5XNG6", "current_trial": 49, "dateTime": 1513102889294, "trialdata": {"rt": -1, "stimulus": "<p id=\"stim\">5</p>", "key_press": -1, "trial_type": "single-stim", "trial_index": 49, "time_elapsed": 383276, "internal_node_id": "0.0-35.0-5.0"}}, {"uniqueid": "MTK1094:3E337GFOLAF4C4O4O6Q5SZ3YH5XNG6", "current_trial": 50, "dateTime": 1513102890300, "trialdata": {"rt": -1, "stimulus": "<p id=\"stim\">4</p>", "key_press": -1, "trial_type": "single-stim", "trial_index": 50, "time_elapsed": 384282, "internal_node_id": "0.0-35.0-6.0"}}, {"uniqueid": "MTK1094:3E337GFOLAF4C4O4O6Q5SZ3YH5XNG6", "current_trial": 51, "dateTime": 1513102891305, "trialdata": {"rt": -1, "stimulus": "<p id=\"stim\">3</p>", "key_press": -1, "trial_type": "single-stim", "trial_index": 51, "time_elapsed": 385286, "internal_node_id": "0.0-35.0-7.0"}}, {"uniqueid": "MTK1094:3E337GFOLAF4C4O4O6Q5SZ3YH5XNG6", "current_trial": 52, "dateTime": 1513102892310, "trialdata": {"rt": -1, "stimulus": "<p id=\"stim\">2</p>", "key_press": -1, "trial_type": "single-stim", "trial_index": 52, "time_elapsed": 386292, "internal_node_id": "0.0-35.0-8.0"}}, {"uniqueid": "MTK1094:3E337GFOLAF4C4O4O6Q5SZ3YH5XNG6", "current_trial": 53, "dateTime": 1513102893315, "trialdata": {"rt": -1, "stimulus": "<p id=\"stim\">1</p>", "key_press": -1, "trial_type": "single-stim", "trial_index": 53, "time_elapsed": 387297, "internal_node_id": "0.0-35.0-9.0"}}, {"uniqueid": "MTK1094:3E337GFOLAF4C4O4O6Q5SZ3YH5XNG6", "current_trial": 54, "dateTime": 1513102894829, "trialdata": {"rt": -1, "stimulus": "<p id=\"stim\">+</p>", "key_press": -1, "type": "FIXATION", "trial_type": "single-stim", "trial_index": 54, "time_elapsed": 388811, "internal_node_id": "0.0-36.0-0.0"}}, {"uniqueid": "MTK1094:3E337GFOLAF4C4O4O6Q5SZ3YH5XNG6", "current_trial": 55, "dateTime": 1513102896036, "trialdata": {"rt": -1, "stimulus": "<p id=\"stim\">PLAZA</p>", "key_press": -1, "type": "PRES_VIS", "word": "plaza", "wordID": 1087, "conditions": [18, 1200, "v", 18000], "trial": 1, "serialpos": 0, "trial_type": "single-stim", "trial_index": 55, "time_elapsed": 390017, "internal_node_id": "0.0-37.0"}}, {"uniqueid": "MTK1094:3E337GFOLAF4C4O4O6Q5SZ3YH5XNG6", "current_trial": 56, "dateTime": 1513102898434, "trialdata": {"rt": -1, "stimulus": "<p id=\"stim\">MUFFIN</p>", "key_press": -1, "type": "PRES_VIS", "word": "muffin", "wordID": 928, "conditions": [18, 1200, "v", 18000], "trial": 1, "serialpos": 1, "trial_type": "single-stim", "trial_index": 56, "time_elapsed": 392416, "internal_node_id": "0.0-38.0"}}, {"uniqueid": "MTK1094:3E337GFOLAF4C4O4O6Q5SZ3YH5XNG6", "current_trial": 57, "dateTime": 1513102900819, "trialdata": {"rt": -1, "stimulus": "<p id=\"stim\">FEMALE</p>", "key_press": -1, "type": "PRES_VIS", "word": "female", "wordID": 558, "conditions": [18, 1200, "v", 18000], "trial": 1, "serialpos": 2, "trial_type": "single-stim", "trial_index": 57, "time_elapsed": 394800, "internal_node_id": "0.0-39.0"}}, {"uniqueid": "MTK1094:3E337GFOLAF4C4O4O6Q5SZ3YH5XNG6", "current_trial": 58, "dateTime": 1513102902952, "trialdata": {"rt": -1, "stimulus": "<p id=\"stim\">INMATE</p>", "key_press": -1, "type": "PRES_VIS", "word": "inmate", "wordID": 737, "conditions": [18, 1200, "v", 18000], "trial": 1, "serialpos": 3, "trial_type": "single-stim", "trial_index": 58, "time_elapsed": 396934, "internal_node_id": "0.0-40.0"}}, {"uniqueid": "MTK1094:3E337GFOLAF4C4O4O6Q5SZ3YH5XNG6", "current_trial": 59, "dateTime": 1513102905057, "trialdata": {"rt": -1, "stimulus": "<p id=\"stim\">ELBOW</p>", "key_press": -1, "type": "PRES_VIS", "word": "elbow", "wordID": 519, "conditions": [18, 1200, "v", 18000], "trial": 1, "serialpos": 4, "trial_type": "single-stim", "trial_index": 59, "time_elapsed": 399039, "internal_node_id": "0.0-41.0"}}, {"uniqueid": "MTK1094:3E337GFOLAF4C4O4O6Q5SZ3YH5XNG6", "current_trial": 60, "dateTime": 1513102907335, "trialdata": {"rt": -1, "stimulus": "<p id=\"stim\">CROSS</p>", "key_press": -1, "type": "PRES_VIS", "word": "cross", "wordID": 412, "conditions": [18, 1200, "v", 18000], "trial": 1, "serialpos": 5, "trial_type": "single-stim", "trial_index": 60, "time_elapsed": 401317, "internal_node_id": "0.0-42.0"}}, {"uniqueid": "MTK1094:3E337GFOLAF4C4O4O6Q5SZ3YH5XNG6", "current_trial": 61, "dateTime": 1513102909551, "trialdata": {"rt": -1, "stimulus": "<p id=\"stim\">SUNRISE</p>", "key_press": -1, "type": "PRES_VIS", "word": "sunrise", "wordID": 1406, "conditions": [18, 1200, "v", 18000], "trial": 1, "serialpos": 6, "trial_type": "single-stim", "trial_index": 61, "time_elapsed": 403533, "internal_node_id": "0.0-43.0"}}, {"uniqueid": "MTK1094:3E337GFOLAF4C4O4O6Q5SZ3YH5XNG6", "current_trial": 62, "dateTime": 1513102911813, "trialdata": {"rt": -1, "stimulus": "<p id=\"stim\">SHORTS</p>", "key_press": -1, "type": "PRES_VIS", "word": "shorts", "wordID": 1292, "conditions": [18, 1200, "v", 18000], "trial": 1, "serialpos": 7, "trial_type": "single-stim", "trial_index": 62, "time_elapsed": 405794, "internal_node_id": "0.0-44.0"}}, {"uniqueid": "MTK1094:3E337GFOLAF4C4O4O6Q5SZ3YH5XNG6", "current_trial": 63, "dateTime": 1513102914076, "trialdata": {"rt": -1, "stimulus": "<p id=\"stim\">FLEET</p>", "key_press": -1, "type": "PRES_VIS", "word": "fleet", "wordID": 577, "conditions": [18, 1200, "v", 18000], "trial": 1, "serialpos": 8, "trial_type": "single-stim", "trial_index": 63, "time_elapsed": 408057, "internal_node_id": "0.0-45.0"}}, {"uniqueid": "MTK1094:3E337GFOLAF4C4O4O6Q5SZ3YH5XNG6", "current_trial": 64, "dateTime": 1513102916245, "trialdata": {"rt": -1, "stimulus": "<p id=\"stim\">LAKE</p>", "key_press": -1, "type": "PRES_VIS", "word": "lake", "wordID": 795, "conditions": [18, 1200, "v", 18000], "trial": 1, "serialpos": 9, "trial_type": "single-stim", "trial_index": 64, "time_elapsed": 410227, "internal_node_id": "0.0-46.0"}}, {"uniqueid": "MTK1094:3E337GFOLAF4C4O4O6Q5SZ3YH5XNG6", "current_trial": 65, "dateTime": 1513102918475, "trialdata": {"rt": -1, "stimulus": "<p id=\"stim\">TURNIP</p>", "key_press": -1, "type": "PRES_VIS", "word": "turnip", "wordID": 1520, "conditions": [18, 1200, "v", 18000], "trial": 1, "serialpos": 10, "trial_type": "single-stim", "trial_index": 65, "time_elapsed": 412457, "internal_node_id": "0.0-47.0"}}, {"uniqueid": "MTK1094:3E337GFOLAF4C4O4O6Q5SZ3YH5XNG6", "current_trial": 66, "dateTime": 1513102920858, "trialdata": {"rt": -1, "stimulus": "<p id=\"stim\">HOSTESS</p>", "key_press": -1, "type": "PRES_VIS", "word": "hostess", "wordID": 722, "conditions": [18, 1200, "v", 18000], "trial": 1, "serialpos": 11, "trial_type": "single-stim", "trial_index": 66, "time_elapsed": 414839, "internal_node_id": "0.0-48.0"}}, {"uniqueid": "MTK1094:3E337GFOLAF4C4O4O6Q5SZ3YH5XNG6", "current_trial": 67, "dateTime": 1513102922870, "trialdata": {"rt": -1, "stimulus": "<p id=\"stim\">CLOTHES</p>", "key_press": -1, "type": "PRES_VIS", "word": "clothes", "wordID": 326, "conditions": [18, 1200, "v", 18000], "trial": 1, "serialpos": 12, "trial_type": "single-stim", "trial_index": 67, "time_elapsed": 416852, "internal_node_id": "0.0-49.0"}}, {"uniqueid": "MTK1094:3E337GFOLAF4C4O4O6Q5SZ3YH5XNG6", "current_trial": 68, "dateTime": 1513102925041, "trialdata": {"rt": -1, "stimulus": "<p id=\"stim\">COOK</p>", "key_press": -1, "type": "PRES_VIS", "word": "cook", "wordID": 371, "conditions": [18, 1200, "v", 18000], "trial": 1, "serialpos": 13, "trial_type": "single-stim", "trial_index": 68, "time_elapsed": 419022, "internal_node_id": "0.0-50.0"}}, {"uniqueid": "MTK1094:3E337GFOLAF4C4O4O6Q5SZ3YH5XNG6", "current_trial": 69, "dateTime": 1513102927379, "trialdata": {"rt": -1, "stimulus": "<p id=\"stim\">COCKTAIL</p>", "key_press": -1, "type": "PRES_VIS", "word": "cocktail", "wordID": 337, "conditions": [18, 1200, "v", 18000], "trial": 1, "serialpos": 14, "trial_type": "single-stim", "trial_index": 69, "time_elapsed": 421361, "internal_node_id": "0.0-51.0"}}, {"uniqueid": "MTK1094:3E337GFOLAF4C4O4O6Q5SZ3YH5XNG6", "current_trial": 70, "dateTime": 1513102929485, "trialdata": {"rt": -1, "stimulus": "<p id=\"stim\">BACON</p>", "key_press": -1, "type": "PRES_VIS", "word": "bacon", "wordID": 66, "conditions": [18, 1200, "v", 18000], "trial": 1, "serialpos": 15, "trial_type": "single-stim", "trial_index": 70, "time_elapsed": 423467, "internal_node_id": "0.0-52.0"}}, {"uniqueid": "MTK1094:3E337GFOLAF4C4O4O6Q5SZ3YH5XNG6", "current_trial": 71, "dateTime": 1513102931686, "trialdata": {"rt": -1, "stimulus": "<p id=\"stim\">BABY</p>", "key_press": -1, "type": "PRES_VIS", "word": "baby", "wordID": 63, "conditions": [18, 1200, "v", 18000], "trial": 1, "serialpos": 16, "trial_type": "single-stim", "trial_index": 71, "time_elapsed": 425667, "internal_node_id": "0.0-53.0"}}, {"uniqueid": "MTK1094:3E337GFOLAF4C4O4O6Q5SZ3YH5XNG6", "current_trial": 72, "dateTime": 1513102933979, "trialdata": {"rt": -1, "stimulus": "<p id=\"stim\">OMELET</p>", "key_press": -1, "type": "PRES_VIS", "word": "omelet", "wordID": 975, "conditions": [18, 1200, "v", 18000], "trial": 1, "serialpos": 17, "trial_type": "single-stim", "trial_index": 72, "time_elapsed": 427960, "internal_node_id": "0.0-54.0"}}, {"uniqueid": "MTK1094:3E337GFOLAF4C4O4O6Q5SZ3YH5XNG6", "current_trial": 73, "dateTime": 1513102936274, "trialdata": {"rt": -1, "stimulus": "", "key_press": -1, "type": "PRE_RECALL_DELAY", "trial_type": "single-stim", "trial_index": 73, "time_elapsed": 430255, "internal_node_id": "0.0-55.0-0.0"}}, {"uniqueid": "MTK1094:3E337GFOLAF4C4O4O6Q5SZ3YH5XNG6", "current_trial": 74, "dateTime": 1513102936784, "trialdata": {"rt": -1000, "stimulus": "/static/audio/400Hz.wav", "key_press": -1, "type": "PRE_RECALL_ALERT", "trial_type": "single-audio", "trial_index": 74, "time_elapsed": 430766, "internal_node_id": "0.0-56.0"}}, {"uniqueid": "MTK1094:3E337GFOLAF4C4O4O6Q5SZ3YH5XNG6", "current_trial": 75, "dateTime": 1513102996810, "trialdata": {"rt": [3640, 3872, 7159, 10465, 15869, 19571, 21099, 26372, 28527, 35357, 40566, 44226, 50922], "recwords": ["omelet", "", "bacon.", "baby", "shorts", "clothes", "cook", "shorts", "shirt", "girl", "omelet", "muffin", "bake"], "type": "FREE_RECALL", "conditions": [18, 1200, "v", 18000], "trial": 1, "trial_type": "free-recall", "trial_index": 75, "time_elapsed": 490785, "internal_node_id": "0.0-57.0-0.0"}}, {"uniqueid": "MTK1094:3E337GFOLAF4C4O4O6Q5SZ3YH5XNG6", "current_trial": 76, "dateTime": 1513103000355, "trialdata": {"rt": 1527, "key_press": 32, "type": "INSTRUCTIONS", "trial_type": "text", "trial_index": 76, "time_elapsed": 494324, "internal_node_id": "0.0-58.0"}}, {"uniqueid": "MTK1094:3E337GFOLAF4C4O4O6Q5SZ3YH5XNG6", "current_trial": 77, "dateTime": 1513103025383, "trialdata": {"rt": [18679, 21806], "responses": ["12", "13"], "num1": [4, 5, 5], "num2": [1, 7, 2], "num3": [7, 1, 6], "type": "DISTRACTOR", "conditions": [24, 800, "a", 24000], "trial": 2, "trial_type": "math-distractor", "trial_index": 77, "time_elapsed": 519364, "internal_node_id": "0.0-59.0"}}, {"uniqueid": "MTK1094:3E337GFOLAF4C4O4O6Q5SZ3YH5XNG6", "current_trial": 78, "dateTime": 1513103028397, "trialdata": {"rt": -1, "stimulus": "<p id=\"stim\">10</p>", "key_press": -1, "trial_type": "single-stim", "trial_index": 78, "time_elapsed": 522379, "internal_node_id": "0.0-60.0-0.0"}}, {"uniqueid": "MTK1094:3E337GFOLAF4C4O4O6Q5SZ3YH5XNG6", "current_trial": 79, "dateTime": 1513103029402, "trialdata": {"rt": -1, "stimulus": "<p id=\"stim\">9</p>", "key_press": -1, "trial_type": "single-stim", "trial_index": 79, "time_elapsed": 523384, "internal_node_id": "0.0-60.0-1.0"}}, {"uniqueid": "MTK1094:3E337GFOLAF4C4O4O6Q5SZ3YH5XNG6", "current_trial": 80, "dateTime": 1513103030410, "trialdata": {"rt": -1, "stimulus": "<p id=\"stim\">8</p>", "key_press": -1, "trial_type": "single-stim", "trial_index": 80, "time_elapsed": 524390, "internal_node_id": "0.0-60.0-2.0"}}, {"uniqueid": "MTK1094:3E337GFOLAF4C4O4O6Q5SZ3YH5XNG6", "current_trial": 81, "dateTime": 1513103031417, "trialdata": {"rt": -1, "stimulus": "<p id=\"stim\">7</p>", "key_press": -1, "trial_type": "single-stim", "trial_index": 81, "time_elapsed": 525398, "internal_node_id": "0.0-60.0-3.0"}}, {"uniqueid": "MTK1094:3E337GFOLAF4C4O4O6Q5SZ3YH5XNG6", "current_trial": 82, "dateTime": 1513103032424, "trialdata": {"rt": -1, "stimulus": "<p id=\"stim\">6</p>", "key_press": -1, "trial_type": "single-stim", "trial_index": 82, "time_elapsed": 526406, "internal_node_id": "0.0-60.0-4.0"}}, {"uniqueid": "MTK1094:3E337GFOLAF4C4O4O6Q5SZ3YH5XNG6", "current_trial": 83, "dateTime": 1513103033430, "trialdata": {"rt": -1, "stimulus": "<p id=\"stim\">5</p>", "key_press": -1, "trial_type": "single-stim", "trial_index": 83, "time_elapsed": 527411, "internal_node_id": "0.0-60.0-5.0"}}, {"uniqueid": "MTK1094:3E337GFOLAF4C4O4O6Q5SZ3YH5XNG6", "current_trial": 84, "dateTime": 1513103034434, "trialdata": {"rt": -1, "stimulus": "<p id=\"stim\">4</p>", "key_press": -1, "trial_type": "single-stim", "trial_index": 84, "time_elapsed": 528416, "internal_node_id": "0.0-60.0-6.0"}}, {"uniqueid": "MTK1094:3E337GFOLAF4C4O4O6Q5SZ3YH5XNG6", "current_trial": 85, "dateTime": 1513103035439, "trialdata": {"rt": -1, "stimulus": "<p id=\"stim\">3</p>", "key_press": -1, "trial_type": "single-stim", "trial_index": 85, "time_elapsed": 529420, "internal_node_id": "0.0-60.0-7.0"}}, {"uniqueid": "MTK1094:3E337GFOLAF4C4O4O6Q5SZ3YH5XNG6", "current_trial": 86, "dateTime": 1513103036445, "trialdata": {"rt": -1, "stimulus": "<p id=\"stim\">2</p>", "key_press": -1, "trial_type": "single-stim", "trial_index": 86, "time_elapsed": 530426, "internal_node_id": "0.0-60.0-8.0"}}, {"uniqueid": "MTK1094:3E337GFOLAF4C4O4O6Q5SZ3YH5XNG6", "current_trial": 87, "dateTime": 1513103037449, "trialdata": {"rt": -1, "stimulus": "<p id=\"stim\">1</p>", "key_press": -1, "trial_type": "single-stim", "trial_index": 87, "time_elapsed": 531431, "internal_node_id": "0.0-60.0-9.0"}}, {"uniqueid": "MTK1094:3E337GFOLAF4C4O4O6Q5SZ3YH5XNG6", "current_trial": 88, "dateTime": 1513103038966, "trialdata": {"rt": -1, "stimulus": "<p id=\"stim\">+</p>", "key_press": -1, "type": "FIXATION", "trial_type": "single-stim", "trial_index": 88, "time_elapsed": 532948, "internal_node_id": "0.0-61.0-0.0"}}, {"uniqueid": "MTK1094:3E337GFOLAF4C4O4O6Q5SZ3YH5XNG6", "current_trial": 89, "dateTime": 1513103040837, "trialdata": {"rt": -1000, "stimulus": "/static/audio/wordpool/ONION.wav", "key_press": -1, "type": "PRES_AUD", "word": "onion", "wordID": 976, "conditions": [24, 800, "a", 24000], "trial": 2, "serialpos": 0, "trial_type": "single-audio", "trial_index": 89, "time_elapsed": 534819, "internal_node_id": "0.0-62.0"}}, {"uniqueid": "MTK1094:3E337GFOLAF4C4O4O6Q5SZ3YH5XNG6", "current_trial": 90, "dateTime": 1513103042568, "trialdata": {"rt": -1000, "stimulus": "/static/audio/wordpool/STICKER.wav", "key_press": -1, "type": "PRES_AUD", "word": "sticker", "wordID": 1381, "conditions": [24, 800, "a", 24000], "trial": 2, "serialpos": 1, "trial_type": "single-audio", "trial_index": 90, "time_elapsed": 536550, "internal_node_id": "0.0-63.0"}}, {"uniqueid": "MTK1094:3E337GFOLAF4C4O4O6Q5SZ3YH5XNG6", "current_trial": 91, "dateTime": 1513103044349, "trialdata": {"rt": -1000, "stimulus": "/static/audio/wordpool/BADGE.wav", "key_press": -1, "type": "PRES_AUD", "word": "badge", "wordID": 67, "conditions": [24, 800, "a", 24000], "trial": 2, "serialpos": 2, "trial_type": "single-audio", "trial_index": 91, "time_elapsed": 538330, "internal_node_id": "0.0-64.0"}}, {"uniqueid": "MTK1094:3E337GFOLAF4C4O4O6Q5SZ3YH5XNG6", "current_trial": 92, "dateTime": 1513103046021, "trialdata": {"rt": -1000, "stimulus": "/static/audio/wordpool/AGENT.wav", "key_press": -1, "type": "PRES_AUD", "word": "agent", "wordID": 9, "conditions": [24, 800, "a", 24000], "trial": 2, "serialpos": 3, "trial_type": "single-audio", "trial_index": 92, "time_elapsed": 540003, "internal_node_id": "0.0-65.0"}}, {"uniqueid": "MTK1094:3E337GFOLAF4C4O4O6Q5SZ3YH5XNG6", "current_trial": 93, "dateTime": 1513103047661, "trialdata": {"rt": -1000, "stimulus": "/static/audio/wordpool/PLATE.wav", "key_press": -1, "type": "PRES_AUD", "word": "plate", "wordID": 1085, "conditions": [24, 800, "a", 24000], "trial": 2, "serialpos": 4, "trial_type": "single-audio", "trial_index": 93, "time_elapsed": 541643, "internal_node_id": "0.0-66.0"}}, {"uniqueid": "MTK1094:3E337GFOLAF4C4O4O6Q5SZ3YH5XNG6", "current_trial": 94, "dateTime": 1513103049532, "trialdata": {"rt": -1000, "stimulus": "/static/audio/wordpool/FOX.wav", "key_press": -1, "type": "PRES_AUD", "word": "fox", "wordID": 597, "conditions": [24, 800, "a", 24000], "trial": 2, "serialpos": 5, "trial_type": "single-audio", "trial_index": 94, "time_elapsed": 543513, "internal_node_id": "0.0-67.0"}}, {"uniqueid": "MTK1094:3E337GFOLAF4C4O4O6Q5SZ3YH5XNG6", "current_trial": 95, "dateTime": 1513103051419, "trialdata": {"rt": -1000, "stimulus": "/static/audio/wordpool/NEUTRON.wav", "key_press": -1, "type": "PRES_AUD", "word": "neutron", "wordID": 946, "conditions": [24, 800, "a", 24000], "trial": 2, "serialpos": 6, "trial_type": "single-audio", "trial_index": 95, "time_elapsed": 545401, "internal_node_id": "0.0-68.0"}}, {"uniqueid": "MTK1094:3E337GFOLAF4C4O4O6Q5SZ3YH5XNG6", "current_trial": 96, "dateTime": 1513103053291, "trialdata": {"rt": -1000, "stimulus": "/static/audio/wordpool/PARSLEY.wav", "key_press": -1, "type": "PRES_AUD", "word": "parsley", "wordID": 1015, "conditions": [24, 800, "a", 24000], "trial": 2, "serialpos": 7, "trial_type": "single-audio", "trial_index": 96, "time_elapsed": 547272, "internal_node_id": "0.0-69.0"}}, {"uniqueid": "MTK1094:3E337GFOLAF4C4O4O6Q5SZ3YH5XNG6", "current_trial": 97, "dateTime": 1513103055241, "trialdata": {"rt": -1000, "stimulus": "/static/audio/wordpool/OFFICE.wav", "key_press": -1, "type": "PRES_AUD", "word": "office", "wordID": 971, "conditions": [24, 800, "a", 24000], "trial": 2, "serialpos": 8, "trial_type": "single-audio", "trial_index": 97, "time_elapsed": 549223, "internal_node_id": "0.0-70.0"}}, {"uniqueid": "MTK1094:3E337GFOLAF4C4O4O6Q5SZ3YH5XNG6", "current_trial": 98, "dateTime": 1513103057036, "trialdata": {"rt": -1000, "stimulus": "/static/audio/wordpool/PARROT.wav", "key_press": -1, "type": "PRES_AUD", "word": "parrot", "wordID": 1014, "conditions": [24, 800, "a", 24000], "trial": 2, "serialpos": 9, "trial_type": "single-audio", "trial_index": 98, "time_elapsed": 551018, "internal_node_id": "0.0-71.0"}}, {"uniqueid": "MTK1094:3E337GFOLAF4C4O4O6Q5SZ3YH5XNG6", "current_trial": 99, "dateTime": 1513103058739, "trialdata": {"rt": -1000, "stimulus": "/static/audio/wordpool/BRIEFCASE.wav", "key_press": -1, "type": "PRES_AUD", "word": "briefcase", "wordID": 174, "conditions": [24, 800, "a", 24000], "trial": 2, "serialpos": 10, "trial_type": "single-audio", "trial_index": 99, "time_elapsed": 552720, "internal_node_id": "0.0-72.0"}}, {"uniqueid": "MTK1094:3E337GFOLAF4C4O4O6Q5SZ3YH5XNG6", "current_trial": 100, "dateTime": 1513103060393, "trialdata": {"rt": -1000, "stimulus": "/static/audio/wordpool/SCARF.wav", "key_press": -1, "type": "PRES_AUD", "word": "scarf", "wordID": 1245, "conditions": [24, 800, "a", 24000], "trial": 2, "serialpos": 11, "trial_type": "single-audio", "trial_index": 100, "time_elapsed": 554375, "internal_node_id": "0.0-73.0"}}, {"uniqueid": "MTK1094:3E337GFOLAF4C4O4O6Q5SZ3YH5XNG6", "current_trial": 101, "dateTime": 1513103062295, "trialdata": {"rt": -1000, "stimulus": "/static/audio/wordpool/PACKAGE.wav", "key_press": -1, "type": "PRES_AUD", "word": "package", "wordID": 996, "conditions": [24, 800, "a", 24000], "trial": 2, "serialpos": 12, "trial_type": "single-audio", "trial_index": 101, "time_elapsed": 556276, "internal_node_id": "0.0-74.0"}}, {"uniqueid": "MTK1094:3E337GFOLAF4C4O4O6Q5SZ3YH5XNG6", "current_trial": 102, "dateTime": 1513103063965, "trialdata": {"rt": -1000, "stimulus": "/static/audio/wordpool/AIRPLANE.wav", "key_press": -1, "type": "PRES_AUD", "word": "airplane", "wordID": 11, "conditions": [24, 800, "a", 24000], "trial": 2, "serialpos": 13, "trial_type": "single-audio", "trial_index": 102, "time_elapsed": 557947, "internal_node_id": "0.0-75.0"}}, {"uniqueid": "MTK1094:3E337GFOLAF4C4O4O6Q5SZ3YH5XNG6", "current_trial": 103, "dateTime": 1513103065913, "trialdata": {"rt": -1000, "stimulus": "/static/audio/wordpool/SCALPEL.wav", "key_press": -1, "type": "PRES_AUD", "word": "scalpel", "wordID": 1242, "conditions": [24, 800, "a", 24000], "trial": 2, "serialpos": 14, "trial_type": "single-audio", "trial_index": 103, "time_elapsed": 559895, "internal_node_id": "0.0-76.0"}}, {"uniqueid": "MTK1094:3E337GFOLAF4C4O4O6Q5SZ3YH5XNG6", "current_trial": 104, "dateTime": 1513103067756, "trialdata": {"rt": -1000, "stimulus": "/static/audio/wordpool/ZIPPER.wav", "key_press": -1, "type": "PRES_AUD", "word": "zipper", "wordID": 1635, "conditions": [24, 800, "a", 24000], "trial": 2, "serialpos": 15, "trial_type": "single-audio", "trial_index": 104, "time_elapsed": 561738, "internal_node_id": "0.0-77.0"}}, {"uniqueid": "MTK1094:3E337GFOLAF4C4O4O6Q5SZ3YH5XNG6", "current_trial": 105, "dateTime": 1513103069615, "trialdata": {"rt": -1000, "stimulus": "/static/audio/wordpool/SUITCASE.wav", "key_press": -1, "type": "PRES_AUD", "word": "suitcase", "wordID": 1402, "conditions": [24, 800, "a", 24000], "trial": 2, "serialpos": 16, "trial_type": "single-audio", "trial_index": 105, "time_elapsed": 563597, "internal_node_id": "0.0-78.0"}}, {"uniqueid": "MTK1094:3E337GFOLAF4C4O4O6Q5SZ3YH5XNG6", "current_trial": 106, "dateTime": 1513103071532, "trialdata": {"rt": -1000, "stimulus": "/static/audio/wordpool/BUGGY.wav", "key_press": -1, "type": "PRES_AUD", "word": "buggy", "wordID": 187, "conditions": [24, 800, "a", 24000], "trial": 2, "serialpos": 17, "trial_type": "single-audio", "trial_index": 106, "time_elapsed": 565513, "internal_node_id": "0.0-79.0"}}, {"uniqueid": "MTK1094:3E337GFOLAF4C4O4O6Q5SZ3YH5XNG6", "current_trial": 107, "dateTime": 1513103073509, "trialdata": {"rt": -1000, "stimulus": "/static/audio/wordpool/DASHBOARD.wav", "key_press": -1, "type": "PRES_AUD", "word": "dashboard", "wordID": 440, "conditions": [24, 800, "a", 24000], "trial": 2, "serialpos": 18, "trial_type": "single-audio", "trial_index": 107, "time_elapsed": 567491, "internal_node_id": "0.0-80.0"}}, {"uniqueid": "MTK1094:3E337GFOLAF4C4O4O6Q5SZ3YH5XNG6", "current_trial": 108, "dateTime": 1513103075334, "trialdata": {"rt": -1000, "stimulus": "/static/audio/wordpool/PARTNER.wav", "key_press": -1, "type": "PRES_AUD", "word": "partner", "wordID": 1016, "conditions": [24, 800, "a", 24000], "trial": 2, "serialpos": 19, "trial_type": "single-audio", "trial_index": 108, "time_elapsed": 569316, "internal_node_id": "0.0-81.0"}}, {"uniqueid": "MTK1094:3E337GFOLAF4C4O4O6Q5SZ3YH5XNG6", "current_trial": 109, "dateTime": 1513103076975, "trialdata": {"rt": -1000, "stimulus": "/static/audio/wordpool/SCISSORS.wav", "key_press": -1, "type": "PRES_AUD", "word": "scissors", "wordID": 1249, "conditions": [24, 800, "a", 24000], "trial": 2, "serialpos": 20, "trial_type": "single-audio", "trial_index": 109, "time_elapsed": 570957, "internal_node_id": "0.0-82.0"}}, {"uniqueid": "MTK1094:3E337GFOLAF4C4O4O6Q5SZ3YH5XNG6", "current_trial": 110, "dateTime": 1513103078598, "trialdata": {"rt": -1000, "stimulus": "/static/audio/wordpool/CHEMIST.wav", "key_press": -1, "type": "PRES_AUD", "word": "chemist", "wordID": 291, "conditions": [24, 800, "a", 24000], "trial": 2, "serialpos": 21, "trial_type": "single-audio", "trial_index": 110, "time_elapsed": 572580, "internal_node_id": "0.0-83.0"}}, {"uniqueid": "MTK1094:3E337GFOLAF4C4O4O6Q5SZ3YH5XNG6", "current_trial": 111, "dateTime": 1513103080269, "trialdata": {"rt": -1000, "stimulus": "/static/audio/wordpool/FLUTE.wav", "key_press": -1, "type": "PRES_AUD", "word": "flute", "wordID": 584, "conditions": [24, 800, "a", 24000], "trial": 2, "serialpos": 22, "trial_type": "single-audio", "trial_index": 111, "time_elapsed": 574251, "internal_node_id": "0.0-84.0"}}, {"uniqueid": "MTK1094:3E337GFOLAF4C4O4O6Q5SZ3YH5XNG6", "current_trial": 112, "dateTime": 1513103081959, "trialdata": {"rt": -1000, "stimulus": "/static/audio/wordpool/FIDDLE.wav", "key_press": -1, "type": "PRES_AUD", "word": "fiddle", "wordID": 560, "conditions": [24, 800, "a", 24000], "trial": 2, "serialpos": 23, "trial_type": "single-audio", "trial_index": 112, "time_elapsed": 575941, "internal_node_id": "0.0-85.0"}}, {"uniqueid": "MTK1094:3E337GFOLAF4C4O4O6Q5SZ3YH5XNG6", "current_trial": 113, "dateTime": 1513103083211, "trialdata": {"rt": -1, "stimulus": "", "key_press": -1, "type": "PRE_RECALL_DELAY", "trial_type": "single-stim", "trial_index": 113, "time_elapsed": 577193, "internal_node_id": "0.0-86.0-0.0"}}, {"uniqueid": "MTK1094:3E337GFOLAF4C4O4O6Q5SZ3YH5XNG6", "current_trial": 114, "dateTime": 1513103083722, "trialdata": {"rt": -1000, "stimulus": "/static/audio/400Hz.wav", "key_press": -1, "type": "PRE_RECALL_ALERT", "trial_type": "single-audio", "trial_index": 114, "time_elapsed": 577704, "internal_node_id": "0.0-87.0"}}, {"uniqueid": "MTK1094:3E337GFOLAF4C4O4O6Q5SZ3YH5XNG6", "current_trial": 115, "dateTime": 1513103143736, "trialdata": {"rt": [6630, 9195, 12458, 16755, 19144, 24811, 29778, 33375, 35517, 38432, 42803, 48617, 50399], "recwords": ["flute", "fiddle", "carriage", "parsley", "garlic", "onion", "plate", "sheriff", "badge", "fiddle", "flute", "suitcase", "bag"], "type": "FREE_RECALL", "conditions": [24, 800, "a", 24000], "trial": 2, "trial_type": "free-recall", "trial_index": 115, "time_elapsed": 637712, "internal_node_id": "0.0-88.0-0.0"}}, {"uniqueid": "MTK1094:3E337GFOLAF4C4O4O6Q5SZ3YH5XNG6", "current_trial": 116, "dateTime": 1513103147496, "trialdata": {"rt": 1748, "key_press": 32, "type": "INSTRUCTIONS", "trial_type": "text", "trial_index": 116, "time_elapsed": 641478, "internal_node_id": "0.0-89.0"}}, {"uniqueid": "MTK1094:3E337GFOLAF4C4O4O6Q5SZ3YH5XNG6", "current_trial": 117, "dateTime": 1513103161521, "trialdata": {"rt": [5615, 8646, 11693], "responses": ["13", "15", "15"], "num1": [6, 4, 8, 7], "num2": [5, 6, 4, 8], "num3": [2, 5, 3, 8], "type": "DISTRACTOR", "conditions": [12, 1600, "a", 12000], "trial": 3, "trial_type": "math-distractor", "trial_index": 117, "time_elapsed": 655503, "internal_node_id": "0.0-90.0"}}, {"uniqueid": "MTK1094:3E337GFOLAF4C4O4O6Q5SZ3YH5XNG6", "current_trial": 118, "dateTime": 1513103164538, "trialdata": {"rt": -1, "stimulus": "<p id=\"stim\">10</p>", "key_press": -1, "trial_type": "single-stim", "trial_index": 118, "time_elapsed": 658520, "internal_node_id": "0.0-91.0-0.0"}}, {"uniqueid": "MTK1094:3E337GFOLAF4C4O4O6Q5SZ3YH5XNG6", "current_trial": 119, "dateTime": 1513103165542, "trialdata": {"rt": -1, "stimulus": "<p id=\"stim\">9</p>", "key_press": -1, "trial_type": "single-stim", "trial_index": 119, "time_elapsed": 659524, "internal_node_id": "0.0-91.0-1.0"}}, {"uniqueid": "MTK1094:3E337GFOLAF4C4O4O6Q5SZ3YH5XNG6", "current_trial": 120, "dateTime": 1513103166545, "trialdata": {"rt": -1, "stimulus": "<p id=\"stim\">8</p>", "key_press": -1, "trial_type": "single-stim", "trial_index": 120, "time_elapsed": 660527, "internal_node_id": "0.0-91.0-2.0"}}, {"uniqueid": "MTK1094:3E337GFOLAF4C4O4O6Q5SZ3YH5XNG6", "current_trial": 121, "dateTime": 1513103167553, "trialdata": {"rt": -1, "stimulus": "<p id=\"stim\">7</p>", "key_press": -1, "trial_type": "single-stim", "trial_index": 121, "time_elapsed": 661535, "internal_node_id": "0.0-91.0-3.0"}}, {"uniqueid": "MTK1094:3E337GFOLAF4C4O4O6Q5SZ3YH5XNG6", "current_trial": 122, "dateTime": 1513103168558, "trialdata": {"rt": -1, "stimulus": "<p id=\"stim\">6</p>", "key_press": -1, "trial_type": "single-stim", "trial_index": 122, "time_elapsed": 662540, "internal_node_id": "0.0-91.0-4.0"}}, {"uniqueid": "MTK1094:3E337GFOLAF4C4O4O6Q5SZ3YH5XNG6", "current_trial": 123, "dateTime": 1513103169562, "trialdata": {"rt": -1, "stimulus": "<p id=\"stim\">5</p>", "key_press": -1, "trial_type": "single-stim", "trial_index": 123, "time_elapsed": 663544, "internal_node_id": "0.0-91.0-5.0"}}, {"uniqueid": "MTK1094:3E337GFOLAF4C4O4O6Q5SZ3YH5XNG6", "current_trial": 124, "dateTime": 1513103170568, "trialdata": {"rt": -1, "stimulus": "<p id=\"stim\">4</p>", "key_press": -1, "trial_type": "single-stim", "trial_index": 124, "time_elapsed": 664550, "internal_node_id": "0.0-91.0-6.0"}}, {"uniqueid": "MTK1094:3E337GFOLAF4C4O4O6Q5SZ3YH5XNG6", "current_trial": 125, "dateTime": 1513103171574, "trialdata": {"rt": -1, "stimulus": "<p id=\"stim\">3</p>", "key_press": -1, "trial_type": "single-stim", "trial_index": 125, "time_elapsed": 665556, "internal_node_id": "0.0-91.0-7.0"}}, {"uniqueid": "MTK1094:3E337GFOLAF4C4O4O6Q5SZ3YH5XNG6", "current_trial": 126, "dateTime": 1513103172580, "trialdata": {"rt": -1, "stimulus": "<p id=\"stim\">2</p>", "key_press": -1, "trial_type": "single-stim", "trial_index": 126, "time_elapsed": 666561, "internal_node_id": "0.0-91.0-8.0"}}, {"uniqueid": "MTK1094:3E337GFOLAF4C4O4O6Q5SZ3YH5XNG6", "current_trial": 127, "dateTime": 1513103173585, "trialdata": {"rt": -1, "stimulus": "<p id=\"stim\">1</p>", "key_press": -1, "trial_type": "single-stim", "trial_index": 127, "time_elapsed": 667566, "internal_node_id": "0.0-91.0-9.0"}}, {"uniqueid": "MTK1094:3E337GFOLAF4C4O4O6Q5SZ3YH5XNG6", "current_trial": 128, "dateTime": 1513103175101, "trialdata": {"rt": -1, "stimulus": "<p id=\"stim\">+</p>", "key_press": -1, "type": "FIXATION", "trial_type": "single-stim", "trial_index": 128, "time_elapsed": 669083, "internal_node_id": "0.0-92.0-0.0"}}, {"uniqueid": "MTK1094:3E337GFOLAF4C4O4O6Q5SZ3YH5XNG6", "current_trial": 129, "dateTime": 1513103177732, "trialdata": {"rt": -1000, "stimulus": "/static/audio/wordpool/FUNGUS.wav", "key_press": -1, "type": "PRES_AUD", "word": "fungus", "wordID": 613, "conditions": [12, 1600, "a", 12000], "trial": 3, "serialpos": 0, "trial_type": "single-audio", "trial_index": 129, "time_elapsed": 671714, "internal_node_id": "0.0-93.0"}}, {"uniqueid": "MTK1094:3E337GFOLAF4C4O4O6Q5SZ3YH5XNG6", "current_trial": 130, "dateTime": 1513103180145, "trialdata": {"rt": -1000, "stimulus": "/static/audio/wordpool/ANTLER.wav", "key_press": -1, "type": "PRES_AUD", "word": "antler", "wordID": 28, "conditions": [12, 1600, "a", 12000], "trial": 3, "serialpos": 1, "trial_type": "single-audio", "trial_index": 130, "time_elapsed": 674127, "internal_node_id": "0.0-94.0"}}, {"uniqueid": "MTK1094:3E337GFOLAF4C4O4O6Q5SZ3YH5XNG6", "current_trial": 131, "dateTime": 1513103182822, "trialdata": {"rt": -1000, "stimulus": "/static/audio/wordpool/HARP.wav", "key_press": -1, "type": "PRES_AUD", "word": "harp", "wordID": 688, "conditions": [12, 1600, "a", 12000], "trial": 3, "serialpos": 2, "trial_type": "single-audio", "trial_index": 131, "time_elapsed": 676804, "internal_node_id": "0.0-95.0"}}, {"uniqueid": "MTK1094:3E337GFOLAF4C4O4O6Q5SZ3YH5XNG6", "current_trial": 132, "dateTime": 1513103185500, "trialdata": {"rt": -1000, "stimulus": "/static/audio/wordpool/COUNTRY.wav", "key_press": -1, "type": "PRES_AUD", "word": "country", "wordID": 387, "conditions": [12, 1600, "a", 12000], "trial": 3, "serialpos": 3, "trial_type": "single-audio", "trial_index": 132, "time_elapsed": 679481, "internal_node_id": "0.0-96.0"}}, {"uniqueid": "MTK1094:3E337GFOLAF4C4O4O6Q5SZ3YH5XNG6", "current_trial": 133, "dateTime": 1513103188298, "trialdata": {"rt": -1000, "stimulus": "/static/audio/wordpool/LIZARD.wav", "key_press": -1, "type": "PRES_AUD", "word": "lizard", "wordID": 833, "conditions": [12, 1600, "a", 12000], "trial": 3, "serialpos": 4, "trial_type": "single-audio", "trial_index": 133, "time_elapsed": 682280, "internal_node_id": "0.0-97.0"}}, {"uniqueid": "MTK1094:3E337GFOLAF4C4O4O6Q5SZ3YH5XNG6", "current_trial": 134, "dateTime": 1513103191052, "trialdata": {"rt": -1000, "stimulus": "/static/audio/wordpool/CHIPMUNK.wav", "key_press": -1, "type": "PRES_AUD", "word": "chipmunk", "wordID": 303, "conditions": [12, 1600, "a", 12000], "trial": 3, "serialpos": 5, "trial_type": "single-audio", "trial_index": 134, "time_elapsed": 685034, "internal_node_id": "0.0-98.0"}}, {"uniqueid": "MTK1094:3E337GFOLAF4C4O4O6Q5SZ3YH5XNG6", "current_trial": 135, "dateTime": 1513103193573, "trialdata": {"rt": -1000, "stimulus": "/static/audio/wordpool/TROMBONE.wav", "key_press": -1, "type": "PRES_AUD", "word": "trombone", "wordID": 1507, "conditions": [12, 1600, "a", 12000], "trial": 3, "serialpos": 6, "trial_type": "single-audio", "trial_index": 135, "time_elapsed": 687555, "internal_node_id": "0.0-99.0"}}, {"uniqueid": "MTK1094:3E337GFOLAF4C4O4O6Q5SZ3YH5XNG6", "current_trial": 136, "dateTime": 1513103196049, "trialdata": {"rt": -1000, "stimulus": "/static/audio/wordpool/DENTIST.wav", "key_press": -1, "type": "PRES_AUD", "word": "dentist", "wordID": 446, "conditions": [12, 1600, "a", 12000], "trial": 3, "serialpos": 7, "trial_type": "single-audio", "trial_index": 136, "time_elapsed": 690031, "internal_node_id": "0.0-100.0"}}, {"uniqueid": "MTK1094:3E337GFOLAF4C4O4O6Q5SZ3YH5XNG6", "current_trial": 137, "dateTime": 1513103198662, "trialdata": {"rt": -1000, "stimulus": "/static/audio/wordpool/EUROPE.wav", "key_press": -1, "type": "PRES_AUD", "word": "europe", "wordID": 540, "conditions": [12, 1600, "a", 12000], "trial": 3, "serialpos": 8, "trial_type": "single-audio", "trial_index": 137, "time_elapsed": 692644, "internal_node_id": "0.0-101.0"}}, {"uniqueid": "MTK1094:3E337GFOLAF4C4O4O6Q5SZ3YH5XNG6", "current_trial": 138, "dateTime": 1513103201288, "trialdata": {"rt": -1000, "stimulus": "/static/audio/wordpool/SWIMMER.wav", "key_press": -1, "type": "PRES_AUD", "word": "swimmer", "wordID": 1419, "conditions": [12, 1600, "a", 12000], "trial": 3, "serialpos": 9, "trial_type": "single-audio", "trial_index": 138, "time_elapsed": 695270, "internal_node_id": "0.0-102.0"}}, {"uniqueid": "MTK1094:3E337GFOLAF4C4O4O6Q5SZ3YH5XNG6", "current_trial": 139, "dateTime": 1513103204088, "trialdata": {"rt": -1000, "stimulus": "/static/audio/wordpool/TABLE.wav", "key_press": -1, "type": "PRES_AUD", "word": "table", "wordID": 1425, "conditions": [12, 1600, "a", 12000], "trial": 3, "serialpos": 10, "trial_type": "single-audio", "trial_index": 139, "time_elapsed": 698069, "internal_node_id": "0.0-103.0"}}, {"uniqueid": "MTK1094:3E337GFOLAF4C4O4O6Q5SZ3YH5XNG6", "current_trial": 140, "dateTime": 1513103206514, "trialdata": {"rt": -1000, "stimulus": "/static/audio/wordpool/RATTLE.wav", "key_press": -1, "type": "PRES_AUD", "word": "rattle", "wordID": 1169, "conditions": [12, 1600, "a", 12000], "trial": 3, "serialpos": 11, "trial_type": "single-audio", "trial_index": 140, "time_elapsed": 700496, "internal_node_id": "0.0-104.0"}}, {"uniqueid": "MTK1094:3E337GFOLAF4C4O4O6Q5SZ3YH5XNG6", "current_trial": 141, "dateTime": 1513103207907, "trialdata": {"rt": -1, "stimulus": "", "key_press": -1, "type": "PRE_RECALL_DELAY", "trial_type": "single-stim", "trial_index": 141, "time_elapsed": 701889, "internal_node_id": "0.0-105.0-0.0"}}, {"uniqueid": "MTK1094:3E337GFOLAF4C4O4O6Q5SZ3YH5XNG6", "current_trial": 142, "dateTime": 1513103208419, "trialdata": {"rt": -1000, "stimulus": "/static/audio/400Hz.wav", "key_press": -1, "type": "PRE_RECALL_ALERT", "trial_type": "single-audio", "trial_index": 142, "time_elapsed": 702400, "internal_node_id": "0.0-106.0"}}, {"uniqueid": "MTK1094:3E337GFOLAF4C4O4O6Q5SZ3YH5XNG6", "current_trial": 143, "dateTime": 1513103268447, "trialdata": {"rt": [3798, 7808, 11114, 14372, 17287, 30204, 34138, 44805, 47905, 50273], "recwords": ["harp", "trombone", "trumpet", "lizard", "anteler", "whiskers", "harp", "europe", "country", "rattle"], "type": "FREE_RECALL", "conditions": [12, 1600, "a", 12000], "trial": 3, "trial_type": "free-recall", "trial_index": 143, "time_elapsed": 762416, "internal_node_id": "0.0-107.0-0.0"}}, {"uniqueid": "MTK1094:3E337GFOLAF4C4O4O6Q5SZ3YH5XNG6", "current_trial": 144, "dateTime": 1513103272400, "trialdata": {"rt": 1939, "key_press": 32, "type": "INSTRUCTIONS", "trial_type": "text", "trial_index": 144, "time_elapsed": 766381, "internal_node_id": "0.0-108.0"}}, {"uniqueid": "MTK1094:3E337GFOLAF4C4O4O6Q5SZ3YH5XNG6", "current_trial": 145, "dateTime": 1513103298439, "trialdata": {"rt": [4008, 7346, 9982, 13162, 17772, 19849, 21768], "responses": ["12", "15", "17", "18", "19", "8", "9"], "num1": [6, 4, 9, 2, 5, 2, 1, 9], "num2": [5, 4, 1, 7, 6, 5, 5, 5], "num3": [1, 7, 7, 9, 8, 1, 3, 2], "type": "DISTRACTOR", "conditions": [12, 1600, "v", 24000], "trial": 4, "trial_type": "math-distractor", "trial_index": 145, "time_elapsed": 792418, "internal_node_id": "0.0-109.0"}}, {"uniqueid": "MTK1094:3E337GFOLAF4C4O4O6Q5SZ3YH5XNG6", "current_trial": 146, "dateTime": 1513103301453, "trialdata": {"rt": -1, "stimulus": "<p id=\"stim\">10</p>", "key_press": -1, "trial_type": "single-stim", "trial_index": 146, "time_elapsed": 795433, "internal_node_id": "0.0-110.0-0.0"}}, {"uniqueid": "MTK1094:3E337GFOLAF4C4O4O6Q5SZ3YH5XNG6", "current_trial": 147, "dateTime": 1513103302457, "trialdata": {"rt": -1, "stimulus": "<p id=\"stim\">9</p>", "key_press": -1, "trial_type": "single-stim", "trial_index": 147, "time_elapsed": 796438, "internal_node_id": "0.0-110.0-1.0"}}, {"uniqueid": "MTK1094:3E337GFOLAF4C4O4O6Q5SZ3YH5XNG6", "current_trial": 148, "dateTime": 1513103303463, "trialdata": {"rt": -1, "stimulus": "<p id=\"stim\">8</p>", "key_press": -1, "trial_type": "single-stim", "trial_index": 148, "time_elapsed": 797445, "internal_node_id": "0.0-110.0-2.0"}}, {"uniqueid": "MTK1094:3E337GFOLAF4C4O4O6Q5SZ3YH5XNG6", "current_trial": 149, "dateTime": 1513103304470, "trialdata": {"rt": -1, "stimulus": "<p id=\"stim\">7</p>", "key_press": -1, "trial_type": "single-stim", "trial_index": 149, "time_elapsed": 798452, "internal_node_id": "0.0-110.0-3.0"}}, {"uniqueid": "MTK1094:3E337GFOLAF4C4O4O6Q5SZ3YH5XNG6", "current_trial": 150, "dateTime": 1513103305476, "trialdata": {"rt": -1, "stimulus": "<p id=\"stim\">6</p>", "key_press": -1, "trial_type": "single-stim", "trial_index": 150, "time_elapsed": 799458, "internal_node_id": "0.0-110.0-4.0"}}, {"uniqueid": "MTK1094:3E337GFOLAF4C4O4O6Q5SZ3YH5XNG6", "current_trial": 151, "dateTime": 1513103306484, "trialdata": {"rt": -1, "stimulus": "<p id=\"stim\">5</p>", "key_press": -1, "trial_type": "single-stim", "trial_index": 151, "time_elapsed": 800465, "internal_node_id": "0.0-110.0-5.0"}}, {"uniqueid": "MTK1094:3E337GFOLAF4C4O4O6Q5SZ3YH5XNG6", "current_trial": 152, "dateTime": 1513103307491, "trialdata": {"rt": -1, "stimulus": "<p id=\"stim\">4</p>", "key_press": -1, "trial_type": "single-stim", "trial_index": 152, "time_elapsed": 801473, "internal_node_id": "0.0-110.0-6.0"}}, {"uniqueid": "MTK1094:3E337GFOLAF4C4O4O6Q5SZ3YH5XNG6", "current_trial": 153, "dateTime": 1513103308499, "trialdata": {"rt": -1, "stimulus": "<p id=\"stim\">3</p>", "key_press": -1, "trial_type": "single-stim", "trial_index": 153, "time_elapsed": 802480, "internal_node_id": "0.0-110.0-7.0"}}, {"uniqueid": "MTK1094:3E337GFOLAF4C4O4O6Q5SZ3YH5XNG6", "current_trial": 154, "dateTime": 1513103309504, "trialdata": {"rt": -1, "stimulus": "<p id=\"stim\">2</p>", "key_press": -1, "trial_type": "single-stim", "trial_index": 154, "time_elapsed": 803485, "internal_node_id": "0.0-110.0-8.0"}}, {"uniqueid": "MTK1094:3E337GFOLAF4C4O4O6Q5SZ3YH5XNG6", "current_trial": 155, "dateTime": 1513103310512, "trialdata": {"rt": -1, "stimulus": "<p id=\"stim\">1</p>", "key_press": -1, "trial_type": "single-stim", "trial_index": 155, "time_elapsed": 804493, "internal_node_id": "0.0-110.0-9.0"}}, {"uniqueid": "MTK1094:3E337GFOLAF4C4O4O6Q5SZ3YH5XNG6", "current_trial": 156, "dateTime": 1513103312027, "trialdata": {"rt": -1, "stimulus": "<p id=\"stim\">+</p>", "key_press": -1, "type": "FIXATION", "trial_type": "single-stim", "trial_index": 156, "time_elapsed": 806007, "internal_node_id": "0.0-111.0-0.0"}}, {"uniqueid": "MTK1094:3E337GFOLAF4C4O4O6Q5SZ3YH5XNG6", "current_trial": 157, "dateTime": 1513103313638, "trialdata": {"rt": -1, "stimulus": "<p id=\"stim\">PRINCESS</p>", "key_press": -1, "type": "PRES_VIS", "word": "princess", "wordID": 1124, "conditions": [12, 1600, "v", 24000], "trial": 4, "serialpos": 0, "trial_type": "single-stim", "trial_index": 157, "time_elapsed": 807619, "internal_node_id": "0.0-112.0"}}, {"uniqueid": "MTK1094:3E337GFOLAF4C4O4O6Q5SZ3YH5XNG6", "current_trial": 158, "dateTime": 1513103316265, "trialdata": {"rt": -1, "stimulus": "<p id=\"stim\">WAITRESS</p>", "key_press": -1, "type": "PRES_VIS", "word": "waitress", "wordID": 1580, "conditions": [12, 1600, "v", 24000], "trial": 4, "serialpos": 1, "trial_type": "single-stim", "trial_index": 158, "time_elapsed": 810246, "internal_node_id": "0.0-113.0"}}, {"uniqueid": "MTK1094:3E337GFOLAF4C4O4O6Q5SZ3YH5XNG6", "current_trial": 159, "dateTime": 1513103318959, "trialdata": {"rt": -1, "stimulus": "<p id=\"stim\">BURGLAR</p>", "key_press": -1, "type": "PRES_VIS", "word": "burglar", "wordID": 199, "conditions": [12, 1600, "v", 24000], "trial": 4, "serialpos": 2, "trial_type": "single-stim", "trial_index": 159, "time_elapsed": 812940, "internal_node_id": "0.0-114.0"}}, {"uniqueid": "MTK1094:3E337GFOLAF4C4O4O6Q5SZ3YH5XNG6", "current_trial": 160, "dateTime": 1513103321402, "trialdata": {"rt": -1, "stimulus": "<p id=\"stim\">STONE</p>", "key_press": -1, "type": "PRES_VIS", "word": "stone", "wordID": 1384, "conditions": [12, 1600, "v", 24000], "trial": 4, "serialpos": 3, "trial_type": "single-stim", "trial_index": 160, "time_elapsed": 815384, "internal_node_id": "0.0-115.0"}}, {"uniqueid": "MTK1094:3E337GFOLAF4C4O4O6Q5SZ3YH5XNG6", "current_trial": 161, "dateTime": 1513103323906, "trialdata": {"rt": -1, "stimulus": "<p id=\"stim\">CROWN</p>", "key_press": -1, "type": "PRES_VIS", "word": "crown", "wordID": 414, "conditions": [12, 1600, "v", 24000], "trial": 4, "serialpos": 4, "trial_type": "single-stim", "trial_index": 161, "time_elapsed": 817887, "internal_node_id": "0.0-116.0"}}, {"uniqueid": "MTK1094:3E337GFOLAF4C4O4O6Q5SZ3YH5XNG6", "current_trial": 162, "dateTime": 1513103326628, "trialdata": {"rt": -1, "stimulus": "<p id=\"stim\">MOTEL</p>", "key_press": -1, "type": "PRES_VIS", "word": "motel", "wordID": 918, "conditions": [12, 1600, "v", 24000], "trial": 4, "serialpos": 5, "trial_type": "single-stim", "trial_index": 162, "time_elapsed": 820609, "internal_node_id": "0.0-117.0"}}, {"uniqueid": "MTK1094:3E337GFOLAF4C4O4O6Q5SZ3YH5XNG6", "current_trial": 163, "dateTime": 1513103329166, "trialdata": {"rt": -1, "stimulus": "<p id=\"stim\">CATTLE</p>", "key_press": -1, "type": "PRES_VIS", "word": "cattle", "wordID": 260, "conditions": [12, 1600, "v", 24000], "trial": 4, "serialpos": 6, "trial_type": "single-stim", "trial_index": 163, "time_elapsed": 823148, "internal_node_id": "0.0-118.0"}}, {"uniqueid": "MTK1094:3E337GFOLAF4C4O4O6Q5SZ3YH5XNG6", "current_trial": 164, "dateTime": 1513103331813, "trialdata": {"rt": -1, "stimulus": "<p id=\"stim\">COMPASS</p>", "key_press": -1, "type": "PRES_VIS", "word": "compass", "wordID": 357, "conditions": [12, 1600, "v", 24000], "trial": 4, "serialpos": 7, "trial_type": "single-stim", "trial_index": 164, "time_elapsed": 825795, "internal_node_id": "0.0-119.0"}}, {"uniqueid": "MTK1094:3E337GFOLAF4C4O4O6Q5SZ3YH5XNG6", "current_trial": 165, "dateTime": 1513103334645, "trialdata": {"rt": -1, "stimulus": "<p id=\"stim\">JUDGE</p>", "key_press": -1, "type": "PRES_VIS", "word": "judge", "wordID": 760, "conditions": [12, 1600, "v", 24000], "trial": 4, "serialpos": 8, "trial_type": "single-stim", "trial_index": 165, "time_elapsed": 828627, "internal_node_id": "0.0-120.0"}}, {"uniqueid": "MTK1094:3E337GFOLAF4C4O4O6Q5SZ3YH5XNG6", "current_trial": 166, "dateTime": 1513103337354, "trialdata": {"rt": -1, "stimulus": "<p id=\"stim\">JURY</p>", "key_press": -1, "type": "PRES_VIS", "word": "jury", "wordID": 765, "conditions": [12, 1600, "v", 24000], "trial": 4, "serialpos": 9, "trial_type": "single-stim", "trial_index": 166, "time_elapsed": 831335, "internal_node_id": "0.0-121.0"}}, {"uniqueid": "MTK1094:3E337GFOLAF4C4O4O6Q5SZ3YH5XNG6", "current_trial": 167, "dateTime": 1513103339878, "trialdata": {"rt": -1, "stimulus": "<p id=\"stim\">QUEEN</p>", "key_press": -1, "type": "PRES_VIS", "word": "queen", "wordID": 1148, "conditions": [12, 1600, "v", 24000], "trial": 4, "serialpos": 10, "trial_type": "single-stim", "trial_index": 167, "time_elapsed": 833858, "internal_node_id": "0.0-122.0"}}, {"uniqueid": "MTK1094:3E337GFOLAF4C4O4O6Q5SZ3YH5XNG6", "current_trial": 168, "dateTime": 1513103342660, "trialdata": {"rt": -1, "stimulus": "<p id=\"stim\">SPONGE</p>", "key_press": -1, "type": "PRES_VIS", "word": "sponge", "wordID": 1354, "conditions": [12, 1600, "v", 24000], "trial": 4, "serialpos": 11, "trial_type": "single-stim", "trial_index": 168, "time_elapsed": 836642, "internal_node_id": "0.0-123.0"}}, {"uniqueid": "MTK1094:3E337GFOLAF4C4O4O6Q5SZ3YH5XNG6", "current_trial": 169, "dateTime": 1513103344883, "trialdata": {"rt": -1, "stimulus": "", "key_press": -1, "type": "PRE_RECALL_DELAY", "trial_type": "single-stim", "trial_index": 169, "time_elapsed": 838865, "internal_node_id": "0.0-124.0-0.0"}}, {"uniqueid": "MTK1094:3E337GFOLAF4C4O4O6Q5SZ3YH5XNG6", "current_trial": 170, "dateTime": 1513103345395, "trialdata": {"rt": -1000, "stimulus": "/static/audio/400Hz.wav", "key_press": -1, "type": "PRE_RECALL_ALERT", "trial_type": "single-audio", "trial_index": 170, "time_elapsed": 839377, "internal_node_id": "0.0-125.0"}}, {"uniqueid": "MTK1094:3E337GFOLAF4C4O4O6Q5SZ3YH5XNG6", "current_trial": 171, "dateTime": 1513103405427, "trialdata": {"rt": [4974, 7137, 9434, 12086, 16781, 18901, 21022, 27089, 29199, 33890, 37092, 43327, 45183, 54829], "recwords": ["princess", "queen", "crown", "badge", "waitress", "hotel", "motel", "judge", "jury", "plaintiff", "defendent", "burgular", "thief", "agent"], "type": "FREE_RECALL", "conditions": [12, 1600, "v", 24000], "trial": 4, "trial_type": "free-recall", "trial_index": 171, "time_elapsed": 899396, "internal_node_id": "0.0-126.0-0.0"}}, {"uniqueid": "MTK1094:3E337GFOLAF4C4O4O6Q5SZ3YH5XNG6", "current_trial": 172, "dateTime": 1513103409224, "trialdata": {"rt": 1784, "key_press": 32, "type": "INSTRUCTIONS", "trial_type": "text", "trial_index": 172, "time_elapsed": 903206, "internal_node_id": "0.0-127.0"}}, {"uniqueid": "MTK1094:3E337GFOLAF4C4O4O6Q5SZ3YH5XNG6", "current_trial": 173, "dateTime": 1513103423244, "trialdata": {"rt": [3238, 5869, 8820, 11965], "responses": ["12", "15", "18", "12"], "num1": [3, 6, 9, 3, 4], "num2": [5, 5, 7, 4, 4], "num3": [4, 4, 2, 5, 3], "type": "DISTRACTOR", "conditions": [24, 1600, "a", 12000], "trial": 5, "trial_type": "math-distractor", "trial_index": 173, "time_elapsed": 917225, "internal_node_id": "0.0-128.0"}}, {"uniqueid": "MTK1094:3E337GFOLAF4C4O4O6Q5SZ3YH5XNG6", "current_trial": 174, "dateTime": 1513103426261, "trialdata": {"rt": -1, "stimulus": "<p id=\"stim\">10</p>", "key_press": -1, "trial_type": "single-stim", "trial_index": 174, "time_elapsed": 920243, "internal_node_id": "0.0-129.0-0.0"}}, {"uniqueid": "MTK1094:3E337GFOLAF4C4O4O6Q5SZ3YH5XNG6", "current_trial": 175, "dateTime": 1513103427268, "trialdata": {"rt": -1, "stimulus": "<p id=\"stim\">9</p>", "key_press": -1, "trial_type": "single-stim", "trial_index": 175, "time_elapsed": 921249, "internal_node_id": "0.0-129.0-1.0"}}, {"uniqueid": "MTK1094:3E337GFOLAF4C4O4O6Q5SZ3YH5XNG6", "current_trial": 176, "dateTime": 1513103428274, "trialdata": {"rt": -1, "stimulus": "<p id=\"stim\">8</p>", "key_press": -1, "trial_type": "single-stim", "trial_index": 176, "time_elapsed": 922256, "internal_node_id": "0.0-129.0-2.0"}}, {"uniqueid": "MTK1094:3E337GFOLAF4C4O4O6Q5SZ3YH5XNG6", "current_trial": 177, "dateTime": 1513103429282, "trialdata": {"rt": -1, "stimulus": "<p id=\"stim\">7</p>", "key_press": -1, "trial_type": "single-stim", "trial_index": 177, "time_elapsed": 923263, "internal_node_id": "0.0-129.0-3.0"}}, {"uniqueid": "MTK1094:3E337GFOLAF4C4O4O6Q5SZ3YH5XNG6", "current_trial": 178, "dateTime": 1513103430285, "trialdata": {"rt": -1, "stimulus": "<p id=\"stim\">6</p>", "key_press": -1, "trial_type": "single-stim", "trial_index": 178, "time_elapsed": 924267, "internal_node_id": "0.0-129.0-4.0"}}, {"uniqueid": "MTK1094:3E337GFOLAF4C4O4O6Q5SZ3YH5XNG6", "current_trial": 179, "dateTime": 1513103431291, "trialdata": {"rt": -1, "stimulus": "<p id=\"stim\">5</p>", "key_press": -1, "trial_type": "single-stim", "trial_index": 179, "time_elapsed": 925273, "internal_node_id": "0.0-129.0-5.0"}}, {"uniqueid": "MTK1094:3E337GFOLAF4C4O4O6Q5SZ3YH5XNG6", "current_trial": 180, "dateTime": 1513103432299, "trialdata": {"rt": -1, "stimulus": "<p id=\"stim\">4</p>", "key_press": -1, "trial_type": "single-stim", "trial_index": 180, "time_elapsed": 926280, "internal_node_id": "0.0-129.0-6.0"}}, {"uniqueid": "MTK1094:3E337GFOLAF4C4O4O6Q5SZ3YH5XNG6", "current_trial": 181, "dateTime": 1513103433303, "trialdata": {"rt": -1, "stimulus": "<p id=\"stim\">3</p>", "key_press": -1, "trial_type": "single-stim", "trial_index": 181, "time_elapsed": 927284, "internal_node_id": "0.0-129.0-7.0"}}, {"uniqueid": "MTK1094:3E337GFOLAF4C4O4O6Q5SZ3YH5XNG6", "current_trial": 182, "dateTime": 1513103434309, "trialdata": {"rt": -1, "stimulus": "<p id=\"stim\">2</p>", "key_press": -1, "trial_type": "single-stim", "trial_index": 182, "time_elapsed": 928291, "internal_node_id": "0.0-129.0-8.0"}}, {"uniqueid": "MTK1094:3E337GFOLAF4C4O4O6Q5SZ3YH5XNG6", "current_trial": 183, "dateTime": 1513103435315, "trialdata": {"rt": -1, "stimulus": "<p id=\"stim\">1</p>", "key_press": -1, "trial_type": "single-stim", "trial_index": 183, "time_elapsed": 929296, "internal_node_id": "0.0-129.0-9.0"}}, {"uniqueid": "MTK1094:3E337GFOLAF4C4O4O6Q5SZ3YH5XNG6", "current_trial": 184, "dateTime": 1513103436829, "trialdata": {"rt": -1, "stimulus": "<p id=\"stim\">+</p>", "key_press": -1, "type": "FIXATION", "trial_type": "single-stim", "trial_index": 184, "time_elapsed": 930811, "internal_node_id": "0.0-130.0-0.0"}}, {"uniqueid": "MTK1094:3E337GFOLAF4C4O4O6Q5SZ3YH5XNG6", "current_trial": 185, "dateTime": 1513103439461, "trialdata": {"rt": -1000, "stimulus": "/static/audio/wordpool/BANJO.wav", "key_press": -1, "type": "PRES_AUD", "word": "banjo", "wordID": 81, "conditions": [24, 1600, "a", 12000], "trial": 5, "serialpos": 0, "trial_type": "single-audio", "trial_index": 185, "time_elapsed": 933442, "internal_node_id": "0.0-131.0"}}, {"uniqueid": "MTK1094:3E337GFOLAF4C4O4O6Q5SZ3YH5XNG6", "current_trial": 186, "dateTime": 1513103442088, "trialdata": {"rt": -1000, "stimulus": "/static/audio/wordpool/CELLAR.wav", "key_press": -1, "type": "PRES_AUD", "word": "cellar", "wordID": 266, "conditions": [24, 1600, "a", 12000], "trial": 5, "serialpos": 1, "trial_type": "single-audio", "trial_index": 186, "time_elapsed": 936070, "internal_node_id": "0.0-132.0"}}, {"uniqueid": "MTK1094:3E337GFOLAF4C4O4O6Q5SZ3YH5XNG6", "current_trial": 187, "dateTime": 1513103444656, "trialdata": {"rt": -1000, "stimulus": "/static/audio/wordpool/GARDEN.wav", "key_press": -1, "type": "PRES_AUD", "word": "garden", "wordID": 622, "conditions": [24, 1600, "a", 12000], "trial": 5, "serialpos": 2, "trial_type": "single-audio", "trial_index": 187, "time_elapsed": 938637, "internal_node_id": "0.0-133.0"}}, {"uniqueid": "MTK1094:3E337GFOLAF4C4O4O6Q5SZ3YH5XNG6", "current_trial": 188, "dateTime": 1513103447241, "trialdata": {"rt": -1000, "stimulus": "/static/audio/wordpool/POISON.wav", "key_press": -1, "type": "PRES_AUD", "word": "poison", "wordID": 1095, "conditions": [24, 1600, "a", 12000], "trial": 5, "serialpos": 3, "trial_type": "single-audio", "trial_index": 188, "time_elapsed": 941223, "internal_node_id": "0.0-134.0"}}, {"uniqueid": "MTK1094:3E337GFOLAF4C4O4O6Q5SZ3YH5XNG6", "current_trial": 189, "dateTime": 1513103449668, "trialdata": {"rt": -1000, "stimulus": "/static/audio/wordpool/TUBA.wav", "key_press": -1, "type": "PRES_AUD", "word": "tuba", "wordID": 1514, "conditions": [24, 1600, "a", 12000], "trial": 5, "serialpos": 4, "trial_type": "single-audio", "trial_index": 189, "time_elapsed": 943650, "internal_node_id": "0.0-135.0"}}, {"uniqueid": "MTK1094:3E337GFOLAF4C4O4O6Q5SZ3YH5XNG6", "current_trial": 190, "dateTime": 1513103452249, "trialdata": {"rt": -1000, "stimulus": "/static/audio/wordpool/SWAMP.wav", "key_press": -1, "type": "PRES_AUD", "word": "swamp", "wordID": 1415, "conditions": [24, 1600, "a", 12000], "trial": 5, "serialpos": 5, "trial_type": "single-audio", "trial_index": 190, "time_elapsed": 946231, "internal_node_id": "0.0-136.0"}}, {"uniqueid": "MTK1094:3E337GFOLAF4C4O4O6Q5SZ3YH5XNG6", "current_trial": 191, "dateTime": 1513103454727, "trialdata": {"rt": -1000, "stimulus": "/static/audio/wordpool/PEPPER.wav", "key_press": -1, "type": "PRES_AUD", "word": "pepper", "wordID": 1046, "conditions": [24, 1600, "a", 12000], "trial": 5, "serialpos": 6, "trial_type": "single-audio", "trial_index": 191, "time_elapsed": 948708, "internal_node_id": "0.0-137.0"}}, {"uniqueid": "MTK1094:3E337GFOLAF4C4O4O6Q5SZ3YH5XNG6", "current_trial": 192, "dateTime": 1513103457481, "trialdata": {"rt": -1000, "stimulus": "/static/audio/wordpool/SHORTCAKE.wav", "key_press": -1, "type": "PRES_AUD", "word": "shortcake", "wordID": 1291, "conditions": [24, 1600, "a", 12000], "trial": 5, "serialpos": 7, "trial_type": "single-audio", "trial_index": 192, "time_elapsed": 951462, "internal_node_id": "0.0-138.0"}}, {"uniqueid": "MTK1094:3E337GFOLAF4C4O4O6Q5SZ3YH5XNG6", "current_trial": 193, "dateTime": 1513103459914, "trialdata": {"rt": -1000, "stimulus": "/static/audio/wordpool/ANKLE.wav", "key_press": -1, "type": "PRES_AUD", "word": "ankle", "wordID": 23, "conditions": [24, 1600, "a", 12000], "trial": 5, "serialpos": 8, "trial_type": "single-audio", "trial_index": 193, "time_elapsed": 953895, "internal_node_id": "0.0-139.0"}}, {"uniqueid": "MTK1094:3E337GFOLAF4C4O4O6Q5SZ3YH5XNG6", "current_trial": 194, "dateTime": 1513103462498, "trialdata": {"rt": -1000, "stimulus": "/static/audio/wordpool/LEG.wav", "key_press": -1, "type": "PRES_AUD", "word": "leg", "wordID": 808, "conditions": [24, 1600, "a", 12000], "trial": 5, "serialpos": 9, "trial_type": "single-audio", "trial_index": 194, "time_elapsed": 956480, "internal_node_id": "0.0-140.0"}}, {"uniqueid": "MTK1094:3E337GFOLAF4C4O4O6Q5SZ3YH5XNG6", "current_trial": 195, "dateTime": 1513103465081, "trialdata": {"rt": -1000, "stimulus": "/static/audio/wordpool/CREVICE.wav", "key_press": -1, "type": "PRES_AUD", "word": "crevice", "wordID": 404, "conditions": [24, 1600, "a", 12000], "trial": 5, "serialpos": 10, "trial_type": "single-audio", "trial_index": 195, "time_elapsed": 959062, "internal_node_id": "0.0-141.0"}}, {"uniqueid": "MTK1094:3E337GFOLAF4C4O4O6Q5SZ3YH5XNG6", "current_trial": 196, "dateTime": 1513103467568, "trialdata": {"rt": -1000, "stimulus": "/static/audio/wordpool/TABLET.wav", "key_press": -1, "type": "PRES_AUD", "word": "tablet", "wordID": 1426, "conditions": [24, 1600, "a", 12000], "trial": 5, "serialpos": 11, "trial_type": "single-audio", "trial_index": 196, "time_elapsed": 961550, "internal_node_id": "0.0-142.0"}}, {"uniqueid": "MTK1094:3E337GFOLAF4C4O4O6Q5SZ3YH5XNG6", "current_trial": 197, "dateTime": 1513103470342, "trialdata": {"rt": -1000, "stimulus": "/static/audio/wordpool/DRESS.wav", "key_press": -1, "type": "PRES_AUD", "word": "dress", "wordID": 494, "conditions": [24, 1600, "a", 12000], "trial": 5, "serialpos": 12, "trial_type": "single-audio", "trial_index": 197, "time_elapsed": 964324, "internal_node_id": "0.0-143.0"}}, {"uniqueid": "MTK1094:3E337GFOLAF4C4O4O6Q5SZ3YH5XNG6", "current_trial": 198, "dateTime": 1513103472786, "trialdata": {"rt": -1000, "stimulus": "/static/audio/wordpool/LAGOON.wav", "key_press": -1, "type": "PRES_AUD", "word": "lagoon", "wordID": 794, "conditions": [24, 1600, "a", 12000], "trial": 5, "serialpos": 13, "trial_type": "single-audio", "trial_index": 198, "time_elapsed": 966767, "internal_node_id": "0.0-144.0"}}, {"uniqueid": "MTK1094:3E337GFOLAF4C4O4O6Q5SZ3YH5XNG6", "current_trial": 199, "dateTime": 1513103475588, "trialdata": {"rt": -1000, "stimulus": "/static/audio/wordpool/EXPERT.wav", "key_press": -1, "type": "PRES_AUD", "word": "expert", "wordID": 542, "conditions": [24, 1600, "a", 12000], "trial": 5, "serialpos": 14, "trial_type": "single-audio", "trial_index": 199, "time_elapsed": 969569, "internal_node_id": "0.0-145.0"}}, {"uniqueid": "MTK1094:3E337GFOLAF4C4O4O6Q5SZ3YH5XNG6", "current_trial": 200, "dateTime": 1513103478280, "trialdata": {"rt": -1000, "stimulus": "/static/audio/wordpool/GRAPE.wav", "key_press": -1, "type": "PRES_AUD", "word": "grape", "wordID": 653, "conditions": [24, 1600, "a", 12000], "trial": 5, "serialpos": 15, "trial_type": "single-audio", "trial_index": 200, "time_elapsed": 972261, "internal_node_id": "0.0-146.0"}}, {"uniqueid": "MTK1094:3E337GFOLAF4C4O4O6Q5SZ3YH5XNG6", "current_trial": 201, "dateTime": 1513103480771, "trialdata": {"rt": -1000, "stimulus": "/static/audio/wordpool/KITCHEN.wav", "key_press": -1, "type": "PRES_AUD", "word": "kitchen", "wordID": 777, "conditions": [24, 1600, "a", 12000], "trial": 5, "serialpos": 16, "trial_type": "single-audio", "trial_index": 201, "time_elapsed": 974753, "internal_node_id": "0.0-147.0"}}, {"uniqueid": "MTK1094:3E337GFOLAF4C4O4O6Q5SZ3YH5XNG6", "current_trial": 202, "dateTime": 1513103483466, "trialdata": {"rt": -1000, "stimulus": "/static/audio/wordpool/STAPLE.wav", "key_press": -1, "type": "PRES_AUD", "word": "staple", "wordID": 1370, "conditions": [24, 1600, "a", 12000], "trial": 5, "serialpos": 17, "trial_type": "single-audio", "trial_index": 202, "time_elapsed": 977447, "internal_node_id": "0.0-148.0"}}, {"uniqueid": "MTK1094:3E337GFOLAF4C4O4O6Q5SZ3YH5XNG6", "current_trial": 203, "dateTime": 1513103486157, "trialdata": {"rt": -1000, "stimulus": "/static/audio/wordpool/BACKBONE.wav", "key_press": -1, "type": "PRES_AUD", "word": "backbone", "wordID": 65, "conditions": [24, 1600, "a", 12000], "trial": 5, "serialpos": 18, "trial_type": "single-audio", "trial_index": 203, "time_elapsed": 980139, "internal_node_id": "0.0-149.0"}}, {"uniqueid": "MTK1094:3E337GFOLAF4C4O4O6Q5SZ3YH5XNG6", "current_trial": 204, "dateTime": 1513103488789, "trialdata": {"rt": -1000, "stimulus": "/static/audio/wordpool/POWDER.wav", "key_press": -1, "type": "PRES_AUD", "word": "powder", "wordID": 1116, "conditions": [24, 1600, "a", 12000], "trial": 5, "serialpos": 19, "trial_type": "single-audio", "trial_index": 204, "time_elapsed": 982771, "internal_node_id": "0.0-150.0"}}, {"uniqueid": "MTK1094:3E337GFOLAF4C4O4O6Q5SZ3YH5XNG6", "current_trial": 205, "dateTime": 1513103491452, "trialdata": {"rt": -1000, "stimulus": "/static/audio/wordpool/CLOUD.wav", "key_press": -1, "type": "PRES_AUD", "word": "cloud", "wordID": 327, "conditions": [24, 1600, "a", 12000], "trial": 5, "serialpos": 20, "trial_type": "single-audio", "trial_index": 205, "time_elapsed": 985433, "internal_node_id": "0.0-151.0"}}, {"uniqueid": "MTK1094:3E337GFOLAF4C4O4O6Q5SZ3YH5XNG6", "current_trial": 206, "dateTime": 1513103493896, "trialdata": {"rt": -1000, "stimulus": "/static/audio/wordpool/CRAB.wav", "key_press": -1, "type": "PRES_AUD", "word": "crab", "wordID": 396, "conditions": [24, 1600, "a", 12000], "trial": 5, "serialpos": 21, "trial_type": "single-audio", "trial_index": 206, "time_elapsed": 987877, "internal_node_id": "0.0-152.0"}}, {"uniqueid": "MTK1094:3E337GFOLAF4C4O4O6Q5SZ3YH5XNG6", "current_trial": 207, "dateTime": 1513103496606, "trialdata": {"rt": -1000, "stimulus": "/static/audio/wordpool/CLAM.wav", "key_press": -1, "type": "PRES_AUD", "word": "clam", "wordID": 314, "conditions": [24, 1600, "a", 12000], "trial": 5, "serialpos": 22, "trial_type": "single-audio", "trial_index": 207, "time_elapsed": 990587, "internal_node_id": "0.0-153.0"}}, {"uniqueid": "MTK1094:3E337GFOLAF4C4O4O6Q5SZ3YH5XNG6", "current_trial": 208, "dateTime": 1513103499328, "trialdata": {"rt": -1000, "stimulus": "/static/audio/wordpool/COSTUME.wav", "key_press": -1, "type": "PRES_AUD", "word": "costume", "wordID": 382, "conditions": [24, 1600, "a", 12000], "trial": 5, "serialpos": 23, "trial_type": "single-audio", "trial_index": 208, "time_elapsed": 993309, "internal_node_id": "0.0-154.0"}}, {"uniqueid": "MTK1094:3E337GFOLAF4C4O4O6Q5SZ3YH5XNG6", "current_trial": 209, "dateTime": 1513103500533, "trialdata": {"rt": -1, "stimulus": "", "key_press": -1, "type": "PRE_RECALL_DELAY", "trial_type": "single-stim", "trial_index": 209, "time_elapsed": 994515, "internal_node_id": "0.0-155.0-0.0"}}, {"uniqueid": "MTK1094:3E337GFOLAF4C4O4O6Q5SZ3YH5XNG6", "current_trial": 210, "dateTime": 1513103501044, "trialdata": {"rt": -1000, "stimulus": "/static/audio/400Hz.wav", "key_press": -1, "type": "PRE_RECALL_ALERT", "trial_type": "single-audio", "trial_index": 210, "time_elapsed": 995026, "internal_node_id": "0.0-156.0"}}, {"uniqueid": "MTK1094:3E337GFOLAF4C4O4O6Q5SZ3YH5XNG6", "current_trial": 211, "dateTime": 1513103561074, "trialdata": {"rt": [3248, 5732, 8613, 12310, 14584, 16597, 18504, 20701, 25222, 27215, 29238, 33442, 40642, 42970, 46674, 51812, 55463, 57642], "recwords": ["crab", "clam", "costume", "backbone", "wrist", "ankle", "leg", "tuba", "garden", "swamp", "grapes", "lagoon", "knee", "wrist", "finger", "poison", "lagoon", "garden"], "type": "FREE_RECALL", "conditions": [24, 1600, "a", 12000], "trial": 5, "trial_type": "free-recall", "trial_index": 211, "time_elapsed": 1055046, "internal_node_id": "0.0-157.0-0.0"}}, {"uniqueid": "MTK1094:3E337GFOLAF4C4O4O6Q5SZ3YH5XNG6", "current_trial": 212, "dateTime": 1513103564654, "trialdata": {"rt": 1564, "key_press": 32, "type": "INSTRUCTIONS", "trial_type": "text", "trial_index": 212, "time_elapsed": 1058636, "internal_node_id": "0.0-158.0"}}, {"uniqueid": "MTK1094:3E337GFOLAF4C4O4O6Q5SZ3YH5XNG6", "current_trial": 213, "dateTime": 1513103590675, "trialdata": {"rt": [3519, 6049, 10192, 12607, 14954, 17565, 19415, 21228], "responses": ["19", "9", "16", "10", "15", "12", "12", "12"], "num1": [9, 3, 8, 5, 7, 1, 2, 1, 9], "num2": [7, 4, 3, 4, 5, 3, 8, 2, 8], "num3": [3, 2, 5, 1, 3, 8, 2, 9, 8], "type": "DISTRACTOR", "conditions": [24, 1600, "a", 24000], "trial": 6, "trial_type": "math-distractor", "trial_index": 213, "time_elapsed": 1084656, "internal_node_id": "0.0-159.0"}}, {"uniqueid": "MTK1094:3E337GFOLAF4C4O4O6Q5SZ3YH5XNG6", "current_trial": 214, "dateTime": 1513103593688, "trialdata": {"rt": -1, "stimulus": "<p id=\"stim\">10</p>", "key_press": -1, "trial_type": "single-stim", "trial_index": 214, "time_elapsed": 1087669, "internal_node_id": "0.0-160.0-0.0"}}, {"uniqueid": "MTK1094:3E337GFOLAF4C4O4O6Q5SZ3YH5XNG6", "current_trial": 215, "dateTime": 1513103594692, "trialdata": {"rt": -1, "stimulus": "<p id=\"stim\">9</p>", "key_press": -1, "trial_type": "single-stim", "trial_index": 215, "time_elapsed": 1088674, "internal_node_id": "0.0-160.0-1.0"}}, {"uniqueid": "MTK1094:3E337GFOLAF4C4O4O6Q5SZ3YH5XNG6", "current_trial": 216, "dateTime": 1513103595698, "trialdata": {"rt": -1, "stimulus": "<p id=\"stim\">8</p>", "key_press": -1, "trial_type": "single-stim", "trial_index": 216, "time_elapsed": 1089680, "internal_node_id": "0.0-160.0-2.0"}}, {"uniqueid": "MTK1094:3E337GFOLAF4C4O4O6Q5SZ3YH5XNG6", "current_trial": 217, "dateTime": 1513103596705, "trialdata": {"rt": -1, "stimulus": "<p id=\"stim\">7</p>", "key_press": -1, "trial_type": "single-stim", "trial_index": 217, "time_elapsed": 1090686, "internal_node_id": "0.0-160.0-3.0"}}, {"uniqueid": "MTK1094:3E337GFOLAF4C4O4O6Q5SZ3YH5XNG6", "current_trial": 218, "dateTime": 1513103597708, "trialdata": {"rt": -1, "stimulus": "<p id=\"stim\">6</p>", "key_press": -1, "trial_type": "single-stim", "trial_index": 218, "time_elapsed": 1091690, "internal_node_id": "0.0-160.0-4.0"}}, {"uniqueid": "MTK1094:3E337GFOLAF4C4O4O6Q5SZ3YH5XNG6", "current_trial": 219, "dateTime": 1513103598714, "trialdata": {"rt": -1, "stimulus": "<p id=\"stim\">5</p>", "key_press": -1, "trial_type": "single-stim", "trial_index": 219, "time_elapsed": 1092696, "internal_node_id": "0.0-160.0-5.0"}}, {"uniqueid": "MTK1094:3E337GFOLAF4C4O4O6Q5SZ3YH5XNG6", "current_trial": 220, "dateTime": 1513103599719, "trialdata": {"rt": -1, "stimulus": "<p id=\"stim\">4</p>", "key_press": -1, "trial_type": "single-stim", "trial_index": 220, "time_elapsed": 1093701, "internal_node_id": "0.0-160.0-6.0"}}, {"uniqueid": "MTK1094:3E337GFOLAF4C4O4O6Q5SZ3YH5XNG6", "current_trial": 221, "dateTime": 1513103600727, "trialdata": {"rt": -1, "stimulus": "<p id=\"stim\">3</p>", "key_press": -1, "trial_type": "single-stim", "trial_index": 221, "time_elapsed": 1094708, "internal_node_id": "0.0-160.0-7.0"}}, {"uniqueid": "MTK1094:3E337GFOLAF4C4O4O6Q5SZ3YH5XNG6", "current_trial": 222, "dateTime": 1513103601732, "trialdata": {"rt": -1, "stimulus": "<p id=\"stim\">2</p>", "key_press": -1, "trial_type": "single-stim", "trial_index": 222, "time_elapsed": 1095713, "internal_node_id": "0.0-160.0-8.0"}}, {"uniqueid": "MTK1094:3E337GFOLAF4C4O4O6Q5SZ3YH5XNG6", "current_trial": 223, "dateTime": 1513103602736, "trialdata": {"rt": -1, "stimulus": "<p id=\"stim\">1</p>", "key_press": -1, "trial_type": "single-stim", "trial_index": 223, "time_elapsed": 1096718, "internal_node_id": "0.0-160.0-9.0"}}, {"uniqueid": "MTK1094:3E337GFOLAF4C4O4O6Q5SZ3YH5XNG6", "current_trial": 224, "dateTime": 1513103604252, "trialdata": {"rt": -1, "stimulus": "<p id=\"stim\">+</p>", "key_press": -1, "type": "FIXATION", "trial_type": "single-stim", "trial_index": 224, "time_elapsed": 1098233, "internal_node_id": "0.0-161.0-0.0"}}, {"uniqueid": "MTK1094:3E337GFOLAF4C4O4O6Q5SZ3YH5XNG6", "current_trial": 225, "dateTime": 1513103606945, "trialdata": {"rt": -1000, "stimulus": "/static/audio/wordpool/FRIEND.wav", "key_press": -1, "type": "PRES_AUD", "word": "friend", "wordID": 605, "conditions": [24, 1600, "a", 24000], "trial": 6, "serialpos": 0, "trial_type": "single-audio", "trial_index": 225, "time_elapsed": 1100927, "internal_node_id": "0.0-162.0"}}, {"uniqueid": "MTK1094:3E337GFOLAF4C4O4O6Q5SZ3YH5XNG6", "current_trial": 226, "dateTime": 1513103609421, "trialdata": {"rt": -1000, "stimulus": "/static/audio/wordpool/SWITCH.wav", "key_press": -1, "type": "PRES_AUD", "word": "switch", "wordID": 1421, "conditions": [24, 1600, "a", 24000], "trial": 6, "serialpos": 1, "trial_type": "single-audio", "trial_index": 226, "time_elapsed": 1103403, "internal_node_id": "0.0-163.0"}}, {"uniqueid": "MTK1094:3E337GFOLAF4C4O4O6Q5SZ3YH5XNG6", "current_trial": 227, "dateTime": 1513103612081, "trialdata": {"rt": -1000, "stimulus": "/static/audio/wordpool/GOBLIN.wav", "key_press": -1, "type": "PRES_AUD", "word": "goblin", "wordID": 644, "conditions": [24, 1600, "a", 24000], "trial": 6, "serialpos": 2, "trial_type": "single-audio", "trial_index": 227, "time_elapsed": 1106062, "internal_node_id": "0.0-164.0"}}, {"uniqueid": "MTK1094:3E337GFOLAF4C4O4O6Q5SZ3YH5XNG6", "current_trial": 228, "dateTime": 1513103614538, "trialdata": {"rt": -1000, "stimulus": "/static/audio/wordpool/DAUGHTER.wav", "key_press": -1, "type": "PRES_AUD", "word": "daughter", "wordID": 441, "conditions": [24, 1600, "a", 24000], "trial": 6, "serialpos": 3, "trial_type": "single-audio", "trial_index": 228, "time_elapsed": 1108520, "internal_node_id": "0.0-165.0"}}, {"uniqueid": "MTK1094:3E337GFOLAF4C4O4O6Q5SZ3YH5XNG6", "current_trial": 229, "dateTime": 1513103617124, "trialdata": {"rt": -1000, "stimulus": "/static/audio/wordpool/HONEY.wav", "key_press": -1, "type": "PRES_AUD", "word": "honey", "wordID": 712, "conditions": [24, 1600, "a", 24000], "trial": 6, "serialpos": 4, "trial_type": "single-audio", "trial_index": 229, "time_elapsed": 1111106, "internal_node_id": "0.0-166.0"}}, {"uniqueid": "MTK1094:3E337GFOLAF4C4O4O6Q5SZ3YH5XNG6", "current_trial": 230, "dateTime": 1513103619615, "trialdata": {"rt": -1000, "stimulus": "/static/audio/wordpool/ARM.wav", "key_press": -1, "type": "PRES_AUD", "word": "arm", "wordID": 37, "conditions": [24, 1600, "a", 24000], "trial": 6, "serialpos": 5, "trial_type": "single-audio", "trial_index": 230, "time_elapsed": 1113596, "internal_node_id": "0.0-167.0"}}, {"uniqueid": "MTK1094:3E337GFOLAF4C4O4O6Q5SZ3YH5XNG6", "current_trial": 231, "dateTime": 1513103622196, "trialdata": {"rt": -1000, "stimulus": "/static/audio/wordpool/SLIME.wav", "key_press": -1, "type": "PRES_AUD", "word": "slime", "wordID": 1326, "conditions": [24, 1600, "a", 24000], "trial": 6, "serialpos": 6, "trial_type": "single-audio", "trial_index": 231, "time_elapsed": 1116178, "internal_node_id": "0.0-168.0"}}, {"uniqueid": "MTK1094:3E337GFOLAF4C4O4O6Q5SZ3YH5XNG6", "current_trial": 232, "dateTime": 1513103624877, "trialdata": {"rt": -1000, "stimulus": "/static/audio/wordpool/LION.wav", "key_press": -1, "type": "PRES_AUD", "word": "lion", "wordID": 826, "conditions": [24, 1600, "a", 24000], "trial": 6, "serialpos": 7, "trial_type": "single-audio", "trial_index": 232, "time_elapsed": 1118859, "internal_node_id": "0.0-169.0"}}, {"uniqueid": "MTK1094:3E337GFOLAF4C4O4O6Q5SZ3YH5XNG6", "current_trial": 233, "dateTime": 1513103627464, "trialdata": {"rt": -1000, "stimulus": "/static/audio/wordpool/BELLY.wav", "key_press": -1, "type": "PRES_AUD", "word": "belly", "wordID": 118, "conditions": [24, 1600, "a", 24000], "trial": 6, "serialpos": 8, "trial_type": "single-audio", "trial_index": 233, "time_elapsed": 1121445, "internal_node_id": "0.0-170.0"}}, {"uniqueid": "MTK1094:3E337GFOLAF4C4O4O6Q5SZ3YH5XNG6", "current_trial": 234, "dateTime": 1513103630265, "trialdata": {"rt": -1000, "stimulus": "/static/audio/wordpool/LAPEL.wav", "key_press": -1, "type": "PRES_AUD", "word": "lapel", "wordID": 799, "conditions": [24, 1600, "a", 24000], "trial": 6, "serialpos": 9, "trial_type": "single-audio", "trial_index": 234, "time_elapsed": 1124246, "internal_node_id": "0.0-171.0"}}, {"uniqueid": "MTK1094:3E337GFOLAF4C4O4O6Q5SZ3YH5XNG6", "current_trial": 235, "dateTime": 1513103632896, "trialdata": {"rt": -1000, "stimulus": "/static/audio/wordpool/LEOPARD.wav", "key_press": -1, "type": "PRES_AUD", "word": "leopard", "wordID": 811, "conditions": [24, 1600, "a", 24000], "trial": 6, "serialpos": 10, "trial_type": "single-audio", "trial_index": 235, "time_elapsed": 1126877, "internal_node_id": "0.0-172.0"}}, {"uniqueid": "MTK1094:3E337GFOLAF4C4O4O6Q5SZ3YH5XNG6", "current_trial": 236, "dateTime": 1513103635653, "trialdata": {"rt": -1000, "stimulus": "/static/audio/wordpool/ZEBRA.wav", "key_press": -1, "type": "PRES_AUD", "word": "zebra", "wordID": 1634, "conditions": [24, 1600, "a", 24000], "trial": 6, "serialpos": 11, "trial_type": "single-audio", "trial_index": 236, "time_elapsed": 1129634, "internal_node_id": "0.0-173.0"}}, {"uniqueid": "MTK1094:3E337GFOLAF4C4O4O6Q5SZ3YH5XNG6", "current_trial": 237, "dateTime": 1513103638159, "trialdata": {"rt": -1000, "stimulus": "/static/audio/wordpool/WORKER.wav", "key_press": -1, "type": "PRES_AUD", "word": "worker", "wordID": 1620, "conditions": [24, 1600, "a", 24000], "trial": 6, "serialpos": 12, "trial_type": "single-audio", "trial_index": 237, "time_elapsed": 1132140, "internal_node_id": "0.0-174.0"}}, {"uniqueid": "MTK1094:3E337GFOLAF4C4O4O6Q5SZ3YH5XNG6", "current_trial": 238, "dateTime": 1513103640695, "trialdata": {"rt": -1000, "stimulus": "/static/audio/wordpool/BARREL.wav", "key_press": -1, "type": "PRES_AUD", "word": "barrel", "wordID": 90, "conditions": [24, 1600, "a", 24000], "trial": 6, "serialpos": 13, "trial_type": "single-audio", "trial_index": 238, "time_elapsed": 1134676, "internal_node_id": "0.0-175.0"}}, {"uniqueid": "MTK1094:3E337GFOLAF4C4O4O6Q5SZ3YH5XNG6", "current_trial": 239, "dateTime": 1513103643108, "trialdata": {"rt": -1000, "stimulus": "/static/audio/wordpool/PASSAGE.wav", "key_press": -1, "type": "PRES_AUD", "word": "passage", "wordID": 1018, "conditions": [24, 1600, "a", 24000], "trial": 6, "serialpos": 14, "trial_type": "single-audio", "trial_index": 239, "time_elapsed": 1137090, "internal_node_id": "0.0-176.0"}}, {"uniqueid": "MTK1094:3E337GFOLAF4C4O4O6Q5SZ3YH5XNG6", "current_trial": 240, "dateTime": 1513103645894, "trialdata": {"rt": -1000, "stimulus": "/static/audio/wordpool/LAVA.wav", "key_press": -1, "type": "PRES_AUD", "word": "lava", "wordID": 803, "conditions": [24, 1600, "a", 24000], "trial": 6, "serialpos": 15, "trial_type": "single-audio", "trial_index": 240, "time_elapsed": 1139876, "internal_node_id": "0.0-177.0"}}, {"uniqueid": "MTK1094:3E337GFOLAF4C4O4O6Q5SZ3YH5XNG6", "current_trial": 241, "dateTime": 1513103648510, "trialdata": {"rt": -1000, "stimulus": "/static/audio/wordpool/TRENCH.wav", "key_press": -1, "type": "PRES_AUD", "word": "trench", "wordID": 1502, "conditions": [24, 1600, "a", 24000], "trial": 6, "serialpos": 16, "trial_type": "single-audio", "trial_index": 241, "time_elapsed": 1142492, "internal_node_id": "0.0-178.0"}}, {"uniqueid": "MTK1094:3E337GFOLAF4C4O4O6Q5SZ3YH5XNG6", "current_trial": 242, "dateTime": 1513103651311, "trialdata": {"rt": -1000, "stimulus": "/static/audio/wordpool/BARLEY.wav", "key_press": -1, "type": "PRES_AUD", "word": "barley", "wordID": 87, "conditions": [24, 1600, "a", 24000], "trial": 6, "serialpos": 17, "trial_type": "single-audio", "trial_index": 242, "time_elapsed": 1145292, "internal_node_id": "0.0-179.0"}}, {"uniqueid": "MTK1094:3E337GFOLAF4C4O4O6Q5SZ3YH5XNG6", "current_trial": 243, "dateTime": 1513103654048, "trialdata": {"rt": -1000, "stimulus": "/static/audio/wordpool/CRUTCH.wav", "key_press": -1, "type": "PRES_AUD", "word": "crutch", "wordID": 416, "conditions": [24, 1600, "a", 24000], "trial": 6, "serialpos": 18, "trial_type": "single-audio", "trial_index": 243, "time_elapsed": 1148029, "internal_node_id": "0.0-180.0"}}, {"uniqueid": "MTK1094:3E337GFOLAF4C4O4O6Q5SZ3YH5XNG6", "current_trial": 244, "dateTime": 1513103656829, "trialdata": {"rt": -1000, "stimulus": "/static/audio/wordpool/GARLIC.wav", "key_press": -1, "type": "PRES_AUD", "word": "garlic", "wordID": 623, "conditions": [24, 1600, "a", 24000], "trial": 6, "serialpos": 19, "trial_type": "single-audio", "trial_index": 244, "time_elapsed": 1150811, "internal_node_id": "0.0-181.0"}}, {"uniqueid": "MTK1094:3E337GFOLAF4C4O4O6Q5SZ3YH5XNG6", "current_trial": 245, "dateTime": 1513103659556, "trialdata": {"rt": -1000, "stimulus": "/static/audio/wordpool/GALLON.wav", "key_press": -1, "type": "PRES_AUD", "word": "gallon", "wordID": 617, "conditions": [24, 1600, "a", 24000], "trial": 6, "serialpos": 20, "trial_type": "single-audio", "trial_index": 245, "time_elapsed": 1153538, "internal_node_id": "0.0-182.0"}}, {"uniqueid": "MTK1094:3E337GFOLAF4C4O4O6Q5SZ3YH5XNG6", "current_trial": 246, "dateTime": 1513103662106, "trialdata": {"rt": -1000, "stimulus": "/static/audio/wordpool/SNACK.wav", "key_press": -1, "type": "PRES_AUD", "word": "snack", "wordID": 1330, "conditions": [24, 1600, "a", 24000], "trial": 6, "serialpos": 21, "trial_type": "single-audio", "trial_index": 246, "time_elapsed": 1156087, "internal_node_id": "0.0-183.0"}}, {"uniqueid": "MTK1094:3E337GFOLAF4C4O4O6Q5SZ3YH5XNG6", "current_trial": 247, "dateTime": 1513103664531, "trialdata": {"rt": -1000, "stimulus": "/static/audio/wordpool/LUNCH.wav", "key_press": -1, "type": "PRES_AUD", "word": "lunch", "wordID": 848, "conditions": [24, 1600, "a", 24000], "trial": 6, "serialpos": 22, "trial_type": "single-audio", "trial_index": 247, "time_elapsed": 1158513, "internal_node_id": "0.0-184.0"}}, {"uniqueid": "MTK1094:3E337GFOLAF4C4O4O6Q5SZ3YH5XNG6", "current_trial": 248, "dateTime": 1513103667229, "trialdata": {"rt": -1000, "stimulus": "/static/audio/wordpool/HUSBAND.wav", "key_press": -1, "type": "PRES_AUD", "word": "husband", "wordID": 727, "conditions": [24, 1600, "a", 24000], "trial": 6, "serialpos": 23, "trial_type": "single-audio", "trial_index": 248, "time_elapsed": 1161211, "internal_node_id": "0.0-185.0"}}, {"uniqueid": "MTK1094:3E337GFOLAF4C4O4O6Q5SZ3YH5XNG6", "current_trial": 249, "dateTime": 1513103668431, "trialdata": {"rt": -1, "stimulus": "", "key_press": -1, "type": "PRE_RECALL_DELAY", "trial_type": "single-stim", "trial_index": 249, "time_elapsed": 1162413, "internal_node_id": "0.0-186.0-0.0"}}, {"uniqueid": "MTK1094:3E337GFOLAF4C4O4O6Q5SZ3YH5XNG6", "current_trial": 250, "dateTime": 1513103668942, "trialdata": {"rt": -1000, "stimulus": "/static/audio/400Hz.wav", "key_press": -1, "type": "PRE_RECALL_ALERT", "trial_type": "single-audio", "trial_index": 250, "time_elapsed": 1162924, "internal_node_id": "0.0-187.0"}}, {"uniqueid": "MTK1094:3E337GFOLAF4C4O4O6Q5SZ3YH5XNG6", "current_trial": 251, "dateTime": 1513103728964, "trialdata": {"rt": [3204, 5975, 10113, 12560, 15181, 20136, 23847, 26820, 29038, 30633, 35064, 36787, 38119, 40671, 45967, 47372, 49498, 51725, 53623, 57243, 59259], "recwords": ["husband", "friend", "daghter", "snack", "lunch", "gallon", "zebra", "leopard", "tiger", "lion", "leg", "knee", "arm", "wrist", "daughter", "son", "friend", "mother", "father", "husband", "wife"], "type": "FREE_RECALL", "conditions": [24, 1600, "a", 24000], "trial": 6, "trial_type": "free-recall", "trial_index": 251, "time_elapsed": 1222935, "internal_node_id": "0.0-188.0-0.0"}}, {"uniqueid": "MTK1094:3E337GFOLAF4C4O4O6Q5SZ3YH5XNG6", "current_trial": 252, "dateTime": 1513103733495, "trialdata": {"rt": 2515, "key_press": 32, "type": "INSTRUCTIONS", "trial_type": "text", "trial_index": 252, "time_elapsed": 1227477, "internal_node_id": "0.0-189.0"}}, {"uniqueid": "MTK1094:3E337GFOLAF4C4O4O6Q5SZ3YH5XNG6", "current_trial": 253, "dateTime": 1513103747503, "trialdata": {"rt": [4087, 7015, 8739, 10651], "responses": ["15", "16", "11", "13"], "num1": [6, 2, 1, 2, 8], "num2": [1, 9, 4, 7, 6], "num3": [8, 5, 6, 3, 8], "type": "DISTRACTOR", "conditions": [24, 800, "v", 12000], "trial": 7, "trial_type": "math-distractor", "trial_index": 253, "time_elapsed": 1241485, "internal_node_id": "0.0-190.0"}}, {"uniqueid": "MTK1094:3E337GFOLAF4C4O4O6Q5SZ3YH5XNG6", "current_trial": 254, "dateTime": 1513103750516, "trialdata": {"rt": -1, "stimulus": "<p id=\"stim\">10</p>", "key_press": -1, "trial_type": "single-stim", "trial_index": 254, "time_elapsed": 1244498, "internal_node_id": "0.0-191.0-0.0"}}, {"uniqueid": "MTK1094:3E337GFOLAF4C4O4O6Q5SZ3YH5XNG6", "current_trial": 255, "dateTime": 1513103751522, "trialdata": {"rt": -1, "stimulus": "<p id=\"stim\">9</p>", "key_press": -1, "trial_type": "single-stim", "trial_index": 255, "time_elapsed": 1245504, "internal_node_id": "0.0-191.0-1.0"}}, {"uniqueid": "MTK1094:3E337GFOLAF4C4O4O6Q5SZ3YH5XNG6", "current_trial": 256, "dateTime": 1513103752527, "trialdata": {"rt": -1, "stimulus": "<p id=\"stim\">8</p>", "key_press": -1, "trial_type": "single-stim", "trial_index": 256, "time_elapsed": 1246509, "internal_node_id": "0.0-191.0-2.0"}}, {"uniqueid": "MTK1094:3E337GFOLAF4C4O4O6Q5SZ3YH5XNG6", "current_trial": 257, "dateTime": 1513103753534, "trialdata": {"rt": -1, "stimulus": "<p id=\"stim\">7</p>", "key_press": -1, "trial_type": "single-stim", "trial_index": 257, "time_elapsed": 1247516, "internal_node_id": "0.0-191.0-3.0"}}, {"uniqueid": "MTK1094:3E337GFOLAF4C4O4O6Q5SZ3YH5XNG6", "current_trial": 258, "dateTime": 1513103754536, "trialdata": {"rt": -1, "stimulus": "<p id=\"stim\">6</p>", "key_press": -1, "trial_type": "single-stim", "trial_index": 258, "time_elapsed": 1248518, "internal_node_id": "0.0-191.0-4.0"}}, {"uniqueid": "MTK1094:3E337GFOLAF4C4O4O6Q5SZ3YH5XNG6", "current_trial": 259, "dateTime": 1513103755542, "trialdata": {"rt": -1, "stimulus": "<p id=\"stim\">5</p>", "key_press": -1, "trial_type": "single-stim", "trial_index": 259, "time_elapsed": 1249524, "internal_node_id": "0.0-191.0-5.0"}}, {"uniqueid": "MTK1094:3E337GFOLAF4C4O4O6Q5SZ3YH5XNG6", "current_trial": 260, "dateTime": 1513103756549, "trialdata": {"rt": -1, "stimulus": "<p id=\"stim\">4</p>", "key_press": -1, "trial_type": "single-stim", "trial_index": 260, "time_elapsed": 1250531, "internal_node_id": "0.0-191.0-6.0"}}, {"uniqueid": "MTK1094:3E337GFOLAF4C4O4O6Q5SZ3YH5XNG6", "current_trial": 261, "dateTime": 1513103757556, "trialdata": {"rt": -1, "stimulus": "<p id=\"stim\">3</p>", "key_press": -1, "trial_type": "single-stim", "trial_index": 261, "time_elapsed": 1251537, "internal_node_id": "0.0-191.0-7.0"}}, {"uniqueid": "MTK1094:3E337GFOLAF4C4O4O6Q5SZ3YH5XNG6", "current_trial": 262, "dateTime": 1513103758559, "trialdata": {"rt": -1, "stimulus": "<p id=\"stim\">2</p>", "key_press": -1, "trial_type": "single-stim", "trial_index": 262, "time_elapsed": 1252541, "internal_node_id": "0.0-191.0-8.0"}}, {"uniqueid": "MTK1094:3E337GFOLAF4C4O4O6Q5SZ3YH5XNG6", "current_trial": 263, "dateTime": 1513103759566, "trialdata": {"rt": -1, "stimulus": "<p id=\"stim\">1</p>", "key_press": -1, "trial_type": "single-stim", "trial_index": 263, "time_elapsed": 1253548, "internal_node_id": "0.0-191.0-9.0"}}, {"uniqueid": "MTK1094:3E337GFOLAF4C4O4O6Q5SZ3YH5XNG6", "current_trial": 264, "dateTime": 1513103761083, "trialdata": {"rt": -1, "stimulus": "<p id=\"stim\">+</p>", "key_press": -1, "type": "FIXATION", "trial_type": "single-stim", "trial_index": 264, "time_elapsed": 1255064, "internal_node_id": "0.0-192.0-0.0"}}, {"uniqueid": "MTK1094:3E337GFOLAF4C4O4O6Q5SZ3YH5XNG6", "current_trial": 265, "dateTime": 1513103761888, "trialdata": {"rt": -1, "stimulus": "<p id=\"stim\">PICTURE</p>", "key_press": -1, "type": "PRES_VIS", "word": "picture", "wordID": 1060, "conditions": [24, 800, "v", 12000], "trial": 7, "serialpos": 0, "trial_type": "single-stim", "trial_index": 265, "time_elapsed": 1255870, "internal_node_id": "0.0-193.0"}}, {"uniqueid": "MTK1094:3E337GFOLAF4C4O4O6Q5SZ3YH5XNG6", "current_trial": 266, "dateTime": 1513103763867, "trialdata": {"rt": -1, "stimulus": "<p id=\"stim\">PORTRAIT</p>", "key_press": -1, "type": "PRES_VIS", "word": "portrait", "wordID": 1110, "conditions": [24, 800, "v", 12000], "trial": 7, "serialpos": 1, "trial_type": "single-stim", "trial_index": 266, "time_elapsed": 1257848, "internal_node_id": "0.0-194.0"}}, {"uniqueid": "MTK1094:3E337GFOLAF4C4O4O6Q5SZ3YH5XNG6", "current_trial": 267, "dateTime": 1513103765644, "trialdata": {"rt": -1, "stimulus": "<p id=\"stim\">SIBLING</p>", "key_press": -1, "type": "PRES_VIS", "word": "sibling", "wordID": 1300, "conditions": [24, 800, "v", 12000], "trial": 7, "serialpos": 2, "trial_type": "single-stim", "trial_index": 267, "time_elapsed": 1259626, "internal_node_id": "0.0-195.0"}}, {"uniqueid": "MTK1094:3E337GFOLAF4C4O4O6Q5SZ3YH5XNG6", "current_trial": 268, "dateTime": 1513103767593, "trialdata": {"rt": -1, "stimulus": "<p id=\"stim\">CIGAR</p>", "key_press": -1, "type": "PRES_VIS", "word": "cigar", "wordID": 307, "conditions": [24, 800, "v", 12000], "trial": 7, "serialpos": 3, "trial_type": "single-stim", "trial_index": 268, "time_elapsed": 1261575, "internal_node_id": "0.0-196.0"}}, {"uniqueid": "MTK1094:3E337GFOLAF4C4O4O6Q5SZ3YH5XNG6", "current_trial": 269, "dateTime": 1513103769526, "trialdata": {"rt": -1, "stimulus": "<p id=\"stim\">KIDNEY</p>", "key_press": -1, "type": "PRES_VIS", "word": "kidney", "wordID": 775, 