{"condition": 0, "counterbalance": 1705, "assignmentId": "3Z7VU45IPZO1PECK9BGWGZ61PYW1ZJ", "workerId": "MTK1148", "hitId": "3EFNPKWBMSVYACMF2JCL99MSQY603H", "currenttrial": 626, "bonus": 0, "data": [{"uniqueid": "MTK1148:3Z7VU45IPZO1PECK9BGWGZ61PYW1ZJ", "current_trial": 0, "dateTime": 1513204202925, "trialdata": {"rt": 2166, "key_press": 13, "type": "INSTRUCTIONS", "trial_type": "text", "trial_index": 0, "time_elapsed": 2171, "internal_node_id": "0.0-0.0"}}, {"uniqueid": "MTK1148:3Z7VU45IPZO1PECK9BGWGZ61PYW1ZJ", "current_trial": 1, "dateTime": 1513204210816, "trialdata": {"rt": 7887, "key_press": 175, "type": "INSTRUCTIONS", "trial_type": "text", "trial_index": 1, "time_elapsed": 10062, "internal_node_id": "0.0-1.0"}}, {"uniqueid": "MTK1148:3Z7VU45IPZO1PECK9BGWGZ61PYW1ZJ", "current_trial": 2, "dateTime": 1513204227886, "trialdata": {"rt": [17047], "responses": ["ocean"], "type": "AUDIO_TEST", "trial_type": "audio-test", "trial_index": 2, "time_elapsed": 27133, "internal_node_id": "0.0-2.0"}}, {"uniqueid": "MTK1148:3Z7VU45IPZO1PECK9BGWGZ61PYW1ZJ", "current_trial": 3, "dateTime": 1513204236159, "trialdata": {"rt": [8261], "responses": ["crystal"], "type": "AUDIO_TEST", "trial_type": "audio-test", "trial_index": 3, "time_elapsed": 35406, "internal_node_id": "0.0-3.0"}}, {"uniqueid": "MTK1148:3Z7VU45IPZO1PECK9BGWGZ61PYW1ZJ", "current_trial": 4, "dateTime": 1513204242329, "trialdata": {"rt": [6157], "responses": ["spice"], "type": "AUDIO_TEST", "trial_type": "audio-test", "trial_index": 4, "time_elapsed": 41575, "internal_node_id": "0.0-4.0"}}, {"uniqueid": "MTK1148:3Z7VU45IPZO1PECK9BGWGZ61PYW1ZJ", "current_trial": 5, "dateTime": 1513204262147, "trialdata": {"rt": 19061, "responses": "{\"Q0\":\"11pm\",\"Q1\":\"6am\",\"Q2\":\"5\"}", "type": "SLEEP_SURVEY", "trial_type": "survey-text", "trial_index": 5, "time_elapsed": 61393, "internal_node_id": "0.0-5.0"}}, {"uniqueid": "MTK1148:3Z7VU45IPZO1PECK9BGWGZ61PYW1ZJ", "current_trial": 6, "dateTime": 1513204291244, "trialdata": {"rt": 28093, "key_press": 13, "type": "INSTRUCTIONS", "trial_type": "text", "trial_index": 6, "time_elapsed": 90490, "internal_node_id": "0.0-6.0"}}, {"uniqueid": "MTK1148:3Z7VU45IPZO1PECK9BGWGZ61PYW1ZJ", "current_trial": 7, "dateTime": 1513204331298, "trialdata": {"rt": 39552, "key_press": 13, "type": "INSTRUCTIONS", "trial_type": "text", "trial_index": 7, "time_elapsed": 130545, "internal_node_id": "0.0-7.0"}}, {"uniqueid": "MTK1148:3Z7VU45IPZO1PECK9BGWGZ61PYW1ZJ", "current_trial": 8, "dateTime": 1513204348732, "trialdata": {"rt": 16931, "key_press": 13, "type": "INSTRUCTIONS", "trial_type": "text", "trial_index": 8, "time_elapsed": 147979, "internal_node_id": "0.0-8.0"}}, {"uniqueid": "MTK1148:3Z7VU45IPZO1PECK9BGWGZ61PYW1ZJ", "current_trial": 9, "dateTime": 1513204367749, "trialdata": {"rt": [4493, 8627, 12056, 16075], "responses": ["11", "12", "21", "14"], "num1": [7, 1, 7, 9, 2], "num2": [3, 8, 8, 2, 7], "num3": [1, 3, 6, 3, 2], "type": "DISTRACTOR", "conditions": [18, 1200, "a", 18000], "trial": 0, "trial_type": "math-distractor", "trial_index": 9, "time_elapsed": 166995, "internal_node_id": "0.0-9.0"}}, {"uniqueid": "MTK1148:3Z7VU45IPZO1PECK9BGWGZ61PYW1ZJ", "current_trial": 10, "dateTime": 1513204370756, "trialdata": {"rt": -1, "stimulus": "<p id=\"stim\">10</p>", "key_press": -1, "trial_type": "single-stim", "trial_index": 10, "time_elapsed": 170002, "internal_node_id": "0.0-10.0-0.0"}}, {"uniqueid": "MTK1148:3Z7VU45IPZO1PECK9BGWGZ61PYW1ZJ", "current_trial": 11, "dateTime": 1513204371764, "trialdata": {"rt": -1, "stimulus": "<p id=\"stim\">9</p>", "key_press": -1, "trial_type": "single-stim", "trial_index": 11, "time_elapsed": 171011, "internal_node_id": "0.0-10.0-1.0"}}, {"uniqueid": "MTK1148:3Z7VU45IPZO1PECK9BGWGZ61PYW1ZJ", "current_trial": 12, "dateTime": 1513204372768, "trialdata": {"rt": -1, "stimulus": "<p id=\"stim\">8</p>", "key_press": -1, "trial_type": "single-stim", "trial_index": 12, "time_elapsed": 172015, "internal_node_id": "0.0-10.0-2.0"}}, {"uniqueid": "MTK1148:3Z7VU45IPZO1PECK9BGWGZ61PYW1ZJ", "current_trial": 13, "dateTime": 1513204373772, "trialdata": {"rt": -1, "stimulus": "<p id=\"stim\">7</p>", "key_press": -1, "trial_type": "single-stim", "trial_index": 13, "time_elapsed": 173018, "internal_node_id": "0.0-10.0-3.0"}}, {"uniqueid": "MTK1148:3Z7VU45IPZO1PECK9BGWGZ61PYW1ZJ", "current_trial": 14, "dateTime": 1513204374775, "trialdata": {"rt": -1, "stimulus": "<p id=\"stim\">6</p>", "key_press": -1, "trial_type": "single-stim", "trial_index": 14, "time_elapsed": 174021, "internal_node_id": "0.0-10.0-4.0"}}, {"uniqueid": "MTK1148:3Z7VU45IPZO1PECK9BGWGZ61PYW1ZJ", "current_trial": 15, "dateTime": 1513204375779, "trialdata": {"rt": -1, "stimulus": "<p id=\"stim\">5</p>", "key_press": -1, "trial_type": "single-stim", "trial_index": 15, "time_elapsed": 175025, "internal_node_id": "0.0-10.0-5.0"}}, {"uniqueid": "MTK1148:3Z7VU45IPZO1PECK9BGWGZ61PYW1ZJ", "current_trial": 16, "dateTime": 1513204376783, "trialdata": {"rt": -1, "stimulus": "<p id=\"stim\">4</p>", "key_press": -1, "trial_type": "single-stim", "trial_index": 16, "time_elapsed": 176029, "internal_node_id": "0.0-10.0-6.0"}}, {"uniqueid": "MTK1148:3Z7VU45IPZO1PECK9BGWGZ61PYW1ZJ", "current_trial": 17, "dateTime": 1513204377788, "trialdata": {"rt": -1, "stimulus": "<p id=\"stim\">3</p>", "key_press": -1, "trial_type": "single-stim", "trial_index": 17, "time_elapsed": 177035, "internal_node_id": "0.0-10.0-7.0"}}, {"uniqueid": "MTK1148:3Z7VU45IPZO1PECK9BGWGZ61PYW1ZJ", "current_trial": 18, "dateTime": 1513204378792, "trialdata": {"rt": -1, "stimulus": "<p id=\"stim\">2</p>", "key_press": -1, "trial_type": "single-stim", "trial_index": 18, "time_elapsed": 178039, "internal_node_id": "0.0-10.0-8.0"}}, {"uniqueid": "MTK1148:3Z7VU45IPZO1PECK9BGWGZ61PYW1ZJ", "current_trial": 19, "dateTime": 1513204379795, "trialdata": {"rt": -1, "stimulus": "<p id=\"stim\">1</p>", "key_press": -1, "trial_type": "single-stim", "trial_index": 19, "time_elapsed": 179041, "internal_node_id": "0.0-10.0-9.0"}}, {"uniqueid": "MTK1148:3Z7VU45IPZO1PECK9BGWGZ61PYW1ZJ", "current_trial": 20, "dateTime": 1513204381298, "trialdata": {"rt": -1, "stimulus": "<p id=\"stim\">+</p>", "key_press": -1, "type": "FIXATION", "trial_type": "single-stim", "trial_index": 20, "time_elapsed": 180544, "internal_node_id": "0.0-11.0-0.0"}}, {"uniqueid": "MTK1148:3Z7VU45IPZO1PECK9BGWGZ61PYW1ZJ", "current_trial": 21, "dateTime": 1513204383540, "trialdata": {"rt": -1000, "stimulus": "/static/audio/wordpool/ROCKET.wav", "key_press": -1, "type": "PRES_AUD", "word": "rocket", "wordID": 1201, "conditions": [18, 1200, "a", 18000], "trial": 0, "serialpos": 0, "trial_type": "single-audio", "trial_index": 21, "time_elapsed": 182787, "internal_node_id": "0.0-12.0"}}, {"uniqueid": "MTK1148:3Z7VU45IPZO1PECK9BGWGZ61PYW1ZJ", "current_trial": 22, "dateTime": 1513204385776, "trialdata": {"rt": -1000, "stimulus": "/static/audio/wordpool/DENTIST.wav", "key_press": -1, "type": "PRES_AUD", "word": "dentist", "wordID": 446, "conditions": [18, 1200, "a", 18000], "trial": 0, "serialpos": 1, "trial_type": "single-audio", "trial_index": 22, "time_elapsed": 185023, "internal_node_id": "0.0-13.0"}}, {"uniqueid": "MTK1148:3Z7VU45IPZO1PECK9BGWGZ61PYW1ZJ", "current_trial": 23, "dateTime": 1513204388010, "trialdata": {"rt": -1000, "stimulus": "/static/audio/wordpool/DENIM.wav", "key_press": -1, "type": "PRES_AUD", "word": "denim", "wordID": 445, "conditions": [18, 1200, "a", 18000], "trial": 0, "serialpos": 2, "trial_type": "single-audio", "trial_index": 23, "time_elapsed": 187256, "internal_node_id": "0.0-14.0"}}, {"uniqueid": "MTK1148:3Z7VU45IPZO1PECK9BGWGZ61PYW1ZJ", "current_trial": 24, "dateTime": 1513204390120, "trialdata": {"rt": -1000, "stimulus": "/static/audio/wordpool/TURTLE.wav", "key_press": -1, "type": "PRES_AUD", "word": "turtle", "wordID": 1521, "conditions": [18, 1200, "a", 18000], "trial": 0, "serialpos": 3, "trial_type": "single-audio", "trial_index": 24, "time_elapsed": 189367, "internal_node_id": "0.0-15.0"}}, {"uniqueid": "MTK1148:3Z7VU45IPZO1PECK9BGWGZ61PYW1ZJ", "current_trial": 25, "dateTime": 1513204392469, "trialdata": {"rt": -1000, "stimulus": "/static/audio/wordpool/WRENCH.wav", "key_press": -1, "type": "PRES_AUD", "word": "wrench", "wordID": 1624, "conditions": [18, 1200, "a", 18000], "trial": 0, "serialpos": 4, "trial_type": "single-audio", "trial_index": 25, "time_elapsed": 191714, "internal_node_id": "0.0-16.0"}}, {"uniqueid": "MTK1148:3Z7VU45IPZO1PECK9BGWGZ61PYW1ZJ", "current_trial": 26, "dateTime": 1513204394847, "trialdata": {"rt": -1000, "stimulus": "/static/audio/wordpool/BEAST.wav", "key_press": -1, "type": "PRES_AUD", "word": "beast", "wordID": 107, "conditions": [18, 1200, "a", 18000], "trial": 0, "serialpos": 5, "trial_type": "single-audio", "trial_index": 26, "time_elapsed": 194093, "internal_node_id": "0.0-17.0"}}, {"uniqueid": "MTK1148:3Z7VU45IPZO1PECK9BGWGZ61PYW1ZJ", "current_trial": 27, "dateTime": 1513204397184, "trialdata": {"rt": -1000, "stimulus": "/static/audio/wordpool/AUTHOR.wav", "key_press": -1, "type": "PRES_AUD", "word": "author", "wordID": 60, "conditions": [18, 1200, "a", 18000], "trial": 0, "serialpos": 6, "trial_type": "single-audio", "trial_index": 27, "time_elapsed": 196430, "internal_node_id": "0.0-18.0"}}, {"uniqueid": "MTK1148:3Z7VU45IPZO1PECK9BGWGZ61PYW1ZJ", "current_trial": 28, "dateTime": 1513204399326, "trialdata": {"rt": -1000, "stimulus": "/static/audio/wordpool/PASSAGE.wav", "key_press": -1, "type": "PRES_AUD", "word": "passage", "wordID": 1018, "conditions": [18, 1200, "a", 18000], "trial": 0, "serialpos": 7, "trial_type": "single-audio", "trial_index": 28, "time_elapsed": 198572, "internal_node_id": "0.0-19.0"}}, {"uniqueid": "MTK1148:3Z7VU45IPZO1PECK9BGWGZ61PYW1ZJ", "current_trial": 29, "dateTime": 1513204401341, "trialdata": {"rt": -1000, "stimulus": "/static/audio/wordpool/FOOTBALL.wav", "key_press": -1, "type": "PRES_AUD", "word": "football", "wordID": 590, "conditions": [18, 1200, "a", 18000], "trial": 0, "serialpos": 8, "trial_type": "single-audio", "trial_index": 29, "time_elapsed": 200587, "internal_node_id": "0.0-20.0"}}, {"uniqueid": "MTK1148:3Z7VU45IPZO1PECK9BGWGZ61PYW1ZJ", "current_trial": 30, "dateTime": 1513204403361, "trialdata": {"rt": -1000, "stimulus": "/static/audio/wordpool/ONION.wav", "key_press": -1, "type": "PRES_AUD", "word": "onion", "wordID": 976, "conditions": [18, 1200, "a", 18000], "trial": 0, "serialpos": 9, "trial_type": "single-audio", "trial_index": 30, "time_elapsed": 202607, "internal_node_id": "0.0-21.0"}}, {"uniqueid": "MTK1148:3Z7VU45IPZO1PECK9BGWGZ61PYW1ZJ", "current_trial": 31, "dateTime": 1513204405438, "trialdata": {"rt": -1000, "stimulus": "/static/audio/wordpool/COTTAGE.wav", "key_press": -1, "type": "PRES_AUD", "word": "cottage", "wordID": 383, "conditions": [18, 1200, "a", 18000], "trial": 0, "serialpos": 10, "trial_type": "single-audio", "trial_index": 31, "time_elapsed": 204684, "internal_node_id": "0.0-22.0"}}, {"uniqueid": "MTK1148:3Z7VU45IPZO1PECK9BGWGZ61PYW1ZJ", "current_trial": 32, "dateTime": 1513204407722, "trialdata": {"rt": -1000, "stimulus": "/static/audio/wordpool/SNAIL.wav", "key_press": -1, "type": "PRES_AUD", "word": "snail", "wordID": 1331, "conditions": [18, 1200, "a", 18000], "trial": 0, "serialpos": 11, "trial_type": "single-audio", "trial_index": 32, "time_elapsed": 206969, "internal_node_id": "0.0-23.0"}}, {"uniqueid": "MTK1148:3Z7VU45IPZO1PECK9BGWGZ61PYW1ZJ", "current_trial": 33, "dateTime": 1513204410016, "trialdata": {"rt": -1000, "stimulus": "/static/audio/wordpool/MARKET.wav", "key_press": -1, "type": "PRES_AUD", "word": "market", "wordID": 870, "conditions": [18, 1200, "a", 18000], "trial": 0, "serialpos": 12, "trial_type": "single-audio", "trial_index": 33, "time_elapsed": 209263, "internal_node_id": "0.0-24.0"}}, {"uniqueid": "MTK1148:3Z7VU45IPZO1PECK9BGWGZ61PYW1ZJ", "current_trial": 34, "dateTime": 1513204412087, "trialdata": {"rt": -1000, "stimulus": "/static/audio/wordpool/POSSUM.wav", "key_press": -1, "type": "PRES_AUD", "word": "possum", "wordID": 1111, "conditions": [18, 1200, "a", 18000], "trial": 0, "serialpos": 13, "trial_type": "single-audio", "trial_index": 34, "time_elapsed": 211333, "internal_node_id": "0.0-25.0"}}, {"uniqueid": "MTK1148:3Z7VU45IPZO1PECK9BGWGZ61PYW1ZJ", "current_trial": 35, "dateTime": 1513204414281, "trialdata": {"rt": -1000, "stimulus": "/static/audio/wordpool/POWDER.wav", "key_press": -1, "type": "PRES_AUD", "word": "powder", "wordID": 1116, "conditions": [18, 1200, "a", 18000], "trial": 0, "serialpos": 14, "trial_type": "single-audio", "trial_index": 35, "time_elapsed": 213528, "internal_node_id": "0.0-26.0"}}, {"uniqueid": "MTK1148:3Z7VU45IPZO1PECK9BGWGZ61PYW1ZJ", "current_trial": 36, "dateTime": 1513204416577, "trialdata": {"rt": -1000, "stimulus": "/static/audio/wordpool/SPHINX.wav", "key_press": -1, "type": "PRES_AUD", "word": "sphinx", "wordID": 1348, "conditions": [18, 1200, "a", 18000], "trial": 0, "serialpos": 15, "trial_type": "single-audio", "trial_index": 36, "time_elapsed": 215824, "internal_node_id": "0.0-27.0"}}, {"uniqueid": "MTK1148:3Z7VU45IPZO1PECK9BGWGZ61PYW1ZJ", "current_trial": 37, "dateTime": 1513204418741, "trialdata": {"rt": -1000, "stimulus": "/static/audio/wordpool/BRICK.wav", "key_press": -1, "type": "PRES_AUD", "word": "brick", "wordID": 171, "conditions": [18, 1200, "a", 18000], "trial": 0, "serialpos": 16, "trial_type": "single-audio", "trial_index": 37, "time_elapsed": 217988, "internal_node_id": "0.0-28.0"}}, {"uniqueid": "MTK1148:3Z7VU45IPZO1PECK9BGWGZ61PYW1ZJ", "current_trial": 38, "dateTime": 1513204420974, "trialdata": {"rt": 2089.333333333343, "stimulus": "/static/audio/wordpool/PREACHER.wav", "key_press": 175, "type": "PRES_AUD", "word": "preacher", "wordID": 1118, "conditions": [18, 1200, "a", 18000], "trial": 0, "serialpos": 17, "trial_type": "single-audio", "trial_index": 38, "time_elapsed": 220220, "internal_node_id": "0.0-29.0"}}, {"uniqueid": "MTK1148:3Z7VU45IPZO1PECK9BGWGZ61PYW1ZJ", "current_trial": 39, "dateTime": 1513204422359, "trialdata": {"rt": 470, "stimulus": "", "key_press": 175, "type": "PRE_RECALL_DELAY", "trial_type": "single-stim", "trial_index": 39, "time_elapsed": 221606, "internal_node_id": "0.0-30.0-0.0"}}, {"uniqueid": "MTK1148:3Z7VU45IPZO1PECK9BGWGZ61PYW1ZJ", "current_trial": 40, "dateTime": 1513204422865, "trialdata": {"rt": -70.66666666665355, "stimulus": "/static/audio/400Hz.wav", "key_press": 175, "type": "PRE_RECALL_ALERT", "trial_type": "single-audio", "trial_index": 40, "time_elapsed": 222112, "internal_node_id": "0.0-31.0"}}, {"uniqueid": "MTK1148:3Z7VU45IPZO1PECK9BGWGZ61PYW1ZJ", "current_trial": 41, "dateTime": 1513204482902, "trialdata": {"rt": [3585, 6235, 8611, 11017, 14457], "recwords": ["preacher", "football", "turtle", "rocket", "sphinx"], "type": "FREE_RECALL", "conditions": [18, 1200, "a", 18000], "trial": 0, "trial_type": "free-recall", "trial_index": 41, "time_elapsed": 282129, "internal_node_id": "0.0-32.0-0.0"}}, {"uniqueid": "MTK1148:3Z7VU45IPZO1PECK9BGWGZ61PYW1ZJ", "current_trial": 42, "dateTime": 1513204489772, "trialdata": {"rt": 4867, "key_press": 13, "type": "INSTRUCTIONS", "trial_type": "text", "trial_index": 42, "time_elapsed": 289015, "internal_node_id": "0.0-33.0"}}, {"uniqueid": "MTK1148:3Z7VU45IPZO1PECK9BGWGZ61PYW1ZJ", "current_trial": 43, "dateTime": 1513204509778, "trialdata": {"rt": [2552, 5468, 7184, 13428, 17637], "responses": ["11", "15", "18", "15", "22"], "num1": [3, 7, 6, 6, 9, 2], "num2": [5, 5, 6, 2, 7, 4], "num3": [3, 3, 6, 7, 6, 1], "type": "DISTRACTOR", "conditions": [18, 1200, "v", 18000], "trial": 1, "trial_type": "math-distractor", "trial_index": 43, "time_elapsed": 309025, "internal_node_id": "0.0-34.0"}}, {"uniqueid": "MTK1148:3Z7VU45IPZO1PECK9BGWGZ61PYW1ZJ", "current_trial": 44, "dateTime": 1513204512781, "trialdata": {"rt": -1, "stimulus": "<p id=\"stim\">10</p>", "key_press": -1, "trial_type": "single-stim", "trial_index": 44, "time_elapsed": 312028, "internal_node_id": "0.0-35.0-0.0"}}, {"uniqueid": "MTK1148:3Z7VU45IPZO1PECK9BGWGZ61PYW1ZJ", "current_trial": 45, "dateTime": 1513204513782, "trialdata": {"rt": -1, "stimulus": "<p id=\"stim\">9</p>", "key_press": -1, "trial_type": "single-stim", "trial_index": 45, "time_elapsed": 313029, "internal_node_id": "0.0-35.0-1.0"}}, {"uniqueid": "MTK1148:3Z7VU45IPZO1PECK9BGWGZ61PYW1ZJ", "current_trial": 46, "dateTime": 1513204514782, "trialdata": {"rt": -1, "stimulus": "<p id=\"stim\">8</p>", "key_press": -1, "trial_type": "single-stim", "trial_index": 46, "time_elapsed": 314029, "internal_node_id": "0.0-35.0-2.0"}}, {"uniqueid": "MTK1148:3Z7VU45IPZO1PECK9BGWGZ61PYW1ZJ", "current_trial": 47, "dateTime": 1513204515783, "trialdata": {"rt": -1, "stimulus": "<p id=\"stim\">7</p>", "key_press": -1, "trial_type": "single-stim", "trial_index": 47, "time_elapsed": 315030, "internal_node_id": "0.0-35.0-3.0"}}, {"uniqueid": "MTK1148:3Z7VU45IPZO1PECK9BGWGZ61PYW1ZJ", "current_trial": 48, "dateTime": 1513204516783, "trialdata": {"rt": -1, "stimulus": "<p id=\"stim\">6</p>", "key_press": -1, "trial_type": "single-stim", "trial_index": 48, "time_elapsed": 316030, "internal_node_id": "0.0-35.0-4.0"}}, {"uniqueid": "MTK1148:3Z7VU45IPZO1PECK9BGWGZ61PYW1ZJ", "current_trial": 49, "dateTime": 1513204517783, "trialdata": {"rt": -1, "stimulus": "<p id=\"stim\">5</p>", "key_press": -1, "trial_type": "single-stim", "trial_index": 49, "time_elapsed": 317030, "internal_node_id": "0.0-35.0-5.0"}}, {"uniqueid": "MTK1148:3Z7VU45IPZO1PECK9BGWGZ61PYW1ZJ", "current_trial": 50, "dateTime": 1513204518787, "trialdata": {"rt": -1, "stimulus": "<p id=\"stim\">4</p>", "key_press": -1, "trial_type": "single-stim", "trial_index": 50, "time_elapsed": 318034, "internal_node_id": "0.0-35.0-6.0"}}, {"uniqueid": "MTK1148:3Z7VU45IPZO1PECK9BGWGZ61PYW1ZJ", "current_trial": 51, "dateTime": 1513204519788, "trialdata": {"rt": -1, "stimulus": "<p id=\"stim\">3</p>", "key_press": -1, "trial_type": "single-stim", "trial_index": 51, "time_elapsed": 319035, "internal_node_id": "0.0-35.0-7.0"}}, {"uniqueid": "MTK1148:3Z7VU45IPZO1PECK9BGWGZ61PYW1ZJ", "current_trial": 52, "dateTime": 1513204520789, "trialdata": {"rt": -1, "stimulus": "<p id=\"stim\">2</p>", "key_press": -1, "trial_type": "single-stim", "trial_index": 52, "time_elapsed": 320036, "internal_node_id": "0.0-35.0-8.0"}}, {"uniqueid": "MTK1148:3Z7VU45IPZO1PECK9BGWGZ61PYW1ZJ", "current_trial": 53, "dateTime": 1513204521789, "trialdata": {"rt": -1, "stimulus": "<p id=\"stim\">1</p>", "key_press": -1, "trial_type": "single-stim", "trial_index": 53, "time_elapsed": 321036, "internal_node_id": "0.0-35.0-9.0"}}, {"uniqueid": "MTK1148:3Z7VU45IPZO1PECK9BGWGZ61PYW1ZJ", "current_trial": 54, "dateTime": 1513204523290, "trialdata": {"rt": -1, "stimulus": "<p id=\"stim\">+</p>", "key_press": -1, "type": "FIXATION", "trial_type": "single-stim", "trial_index": 54, "time_elapsed": 322537, "internal_node_id": "0.0-36.0-0.0"}}, {"uniqueid": "MTK1148:3Z7VU45IPZO1PECK9BGWGZ61PYW1ZJ", "current_trial": 55, "dateTime": 1513204524490, "trialdata": {"rt": -1, "stimulus": "<p id=\"stim\">SEAL</p>", "key_press": -1, "type": "PRES_VIS", "word": "seal", "wordID": 1261, "conditions": [18, 1200, "v", 18000], "trial": 1, "serialpos": 0, "trial_type": "single-stim", "trial_index": 55, "time_elapsed": 323737, "internal_node_id": "0.0-37.0"}}, {"uniqueid": "MTK1148:3Z7VU45IPZO1PECK9BGWGZ61PYW1ZJ", "current_trial": 56, "dateTime": 1513204526892, "trialdata": {"rt": -1, "stimulus": "<p id=\"stim\">MOTEL</p>", "key_press": -1, "type": "PRES_VIS", "word": "motel", "wordID": 918, "conditions": [18, 1200, "v", 18000], "trial": 1, "serialpos": 1, "trial_type": "single-stim", "trial_index": 56, "time_elapsed": 326135, "internal_node_id": "0.0-38.0"}}, {"uniqueid": "MTK1148:3Z7VU45IPZO1PECK9BGWGZ61PYW1ZJ", "current_trial": 57, "dateTime": 1513204529078, "trialdata": {"rt": -1, "stimulus": "<p id=\"stim\">COUCH</p>", "key_press": -1, "type": "PRES_VIS", "word": "couch", "wordID": 385, "conditions": [18, 1200, "v", 18000], "trial": 1, "serialpos": 2, "trial_type": "single-stim", "trial_index": 57, "time_elapsed": 328325, "internal_node_id": "0.0-39.0"}}, {"uniqueid": "MTK1148:3Z7VU45IPZO1PECK9BGWGZ61PYW1ZJ", "current_trial": 58, "dateTime": 1513204531302, "trialdata": {"rt": -1, "stimulus": "<p id=\"stim\">PORK</p>", "key_press": -1, "type": "PRES_VIS", "word": "pork", "wordID": 1107, "conditions": [18, 1200, "v", 18000], "trial": 1, "serialpos": 3, "trial_type": "single-stim", "trial_index": 58, "time_elapsed": 330549, "internal_node_id": "0.0-40.0"}}, {"uniqueid": "MTK1148:3Z7VU45IPZO1PECK9BGWGZ61PYW1ZJ", "current_trial": 59, "dateTime": 1513204533449, "trialdata": {"rt": -1, "stimulus": "<p id=\"stim\">CLAM</p>", "key_press": -1, "type": "PRES_VIS", "word": "clam", "wordID": 314, "conditions": [18, 1200, "v", 18000], "trial": 1, "serialpos": 4, "trial_type": "single-stim", "trial_index": 59, "time_elapsed": 332696, "internal_node_id": "0.0-41.0"}}, {"uniqueid": "MTK1148:3Z7VU45IPZO1PECK9BGWGZ61PYW1ZJ", "current_trial": 60, "dateTime": 1513204535539, "trialdata": {"rt": -1, "stimulus": "<p id=\"stim\">SPONGE</p>", "key_press": -1, "type": "PRES_VIS", "word": "sponge", "wordID": 1354, "conditions": [18, 1200, "v", 18000], "trial": 1, "serialpos": 5, "trial_type": "single-stim", "trial_index": 60, "time_elapsed": 334786, "internal_node_id": "0.0-42.0"}}, {"uniqueid": "MTK1148:3Z7VU45IPZO1PECK9BGWGZ61PYW1ZJ", "current_trial": 61, "dateTime": 1513204537572, "trialdata": {"rt": -1, "stimulus": "<p id=\"stim\">FLUTE</p>", "key_press": -1, "type": "PRES_VIS", "word": "flute", "wordID": 584, "conditions": [18, 1200, "v", 18000], "trial": 1, "serialpos": 6, "trial_type": "single-stim", "trial_index": 61, "time_elapsed": 336819, "internal_node_id": "0.0-43.0"}}, {"uniqueid": "MTK1148:3Z7VU45IPZO1PECK9BGWGZ61PYW1ZJ", "current_trial": 62, "dateTime": 1513204539942, "trialdata": {"rt": -1, "stimulus": "<p id=\"stim\">PILOT</p>", "key_press": -1, "type": "PRES_VIS", "word": "pilot", "wordID": 1069, "conditions": [18, 1200, "v", 18000], "trial": 1, "serialpos": 7, "trial_type": "single-stim", "trial_index": 62, "time_elapsed": 339189, "internal_node_id": "0.0-44.0"}}, {"uniqueid": "MTK1148:3Z7VU45IPZO1PECK9BGWGZ61PYW1ZJ", "current_trial": 63, "dateTime": 1513204542110, "trialdata": {"rt": -1, "stimulus": "<p id=\"stim\">VIRUS</p>", "key_press": -1, "type": "PRES_VIS", "word": "virus", "wordID": 1571, "conditions": [18, 1200, "v", 18000], "trial": 1, "serialpos": 8, "trial_type": "single-stim", "trial_index": 63, "time_elapsed": 341357, "internal_node_id": "0.0-45.0"}}, {"uniqueid": "MTK1148:3Z7VU45IPZO1PECK9BGWGZ61PYW1ZJ", "current_trial": 64, "dateTime": 1513204544373, "trialdata": {"rt": -1, "stimulus": "<p id=\"stim\">BIKE</p>", "key_press": -1, "type": "PRES_VIS", "word": "bike", "wordID": 124, "conditions": [18, 1200, "v", 18000], "trial": 1, "serialpos": 9, "trial_type": "single-stim", "trial_index": 64, "time_elapsed": 343620, "internal_node_id": "0.0-46.0"}}, {"uniqueid": "MTK1148:3Z7VU45IPZO1PECK9BGWGZ61PYW1ZJ", "current_trial": 65, "dateTime": 1513204546584, "trialdata": {"rt": -1, "stimulus": "<p id=\"stim\">RIVER</p>", "key_press": -1, "type": "PRES_VIS", "word": "river", "wordID": 1193, "conditions": [18, 1200, "v", 18000], "trial": 1, "serialpos": 10, "trial_type": "single-stim", "trial_index": 65, "time_elapsed": 345831, "internal_node_id": "0.0-47.0"}}, {"uniqueid": "MTK1148:3Z7VU45IPZO1PECK9BGWGZ61PYW1ZJ", "current_trial": 66, "dateTime": 1513204548872, "trialdata": {"rt": -1, "stimulus": "<p id=\"stim\">CAFE</p>", "key_press": -1, "type": "PRES_VIS", "word": "cafe", "wordID": 215, "conditions": [18, 1200, "v", 18000], "trial": 1, "serialpos": 11, "trial_type": "single-stim", "trial_index": 66, "time_elapsed": 348119, "internal_node_id": "0.0-48.0"}}, {"uniqueid": "MTK1148:3Z7VU45IPZO1PECK9BGWGZ61PYW1ZJ", "current_trial": 67, "dateTime": 1513204551112, "trialdata": {"rt": -1, "stimulus": "<p id=\"stim\">FIDDLE</p>", "key_press": -1, "type": "PRES_VIS", "word": "fiddle", "wordID": 560, "conditions": [18, 1200, "v", 18000], "trial": 1, "serialpos": 12, "trial_type": "single-stim", "trial_index": 67, "time_elapsed": 350359, "internal_node_id": "0.0-49.0"}}, {"uniqueid": "MTK1148:3Z7VU45IPZO1PECK9BGWGZ61PYW1ZJ", "current_trial": 68, "dateTime": 1513204553209, "trialdata": {"rt": -1, "stimulus": "<p id=\"stim\">LACE</p>", "key_press": -1, "type": "PRES_VIS", "word": "lace", "wordID": 791, "conditions": [18, 1200, "v", 18000], "trial": 1, "serialpos": 13, "trial_type": "single-stim", "trial_index": 68, "time_elapsed": 352448, "internal_node_id": "0.0-50.0"}}, {"uniqueid": "MTK1148:3Z7VU45IPZO1PECK9BGWGZ61PYW1ZJ", "current_trial": 69, "dateTime": 1513204555508, "trialdata": {"rt": -1, "stimulus": "<p id=\"stim\">NEUTRON</p>", "key_press": -1, "type": "PRES_VIS", "word": "neutron", "wordID": 946, "conditions": [18, 1200, "v", 18000], "trial": 1, "serialpos": 14, "trial_type": "single-stim", "trial_index": 69, "time_elapsed": 354755, "internal_node_id": "0.0-51.0"}}, {"uniqueid": "MTK1148:3Z7VU45IPZO1PECK9BGWGZ61PYW1ZJ", "current_trial": 70, "dateTime": 1513204557801, "trialdata": {"rt": -1, "stimulus": "<p id=\"stim\">TREAT</p>", "key_press": -1, "type": "PRES_VIS", "word": "treat", "wordID": 1500, "conditions": [18, 1200, "v", 18000], "trial": 1, "serialpos": 15, "trial_type": "single-stim", "trial_index": 70, "time_elapsed": 357048, "internal_node_id": "0.0-52.0"}}, {"uniqueid": "MTK1148:3Z7VU45IPZO1PECK9BGWGZ61PYW1ZJ", "current_trial": 71, "dateTime": 1513204560028, "trialdata": {"rt": -1, "stimulus": "<p id=\"stim\">SUITCASE</p>", "key_press": -1, "type": "PRES_VIS", "word": "suitcase", "wordID": 1402, "conditions": [18, 1200, "v", 18000], "trial": 1, "serialpos": 16, "trial_type": "single-stim", "trial_index": 71, "time_elapsed": 359275, "internal_node_id": "0.0-53.0"}}, {"uniqueid": "MTK1148:3Z7VU45IPZO1PECK9BGWGZ61PYW1ZJ", "current_trial": 72, "dateTime": 1513204562301, "trialdata": {"rt": -1, "stimulus": "<p id=\"stim\">BEEF</p>", "key_press": -1, "type": "PRES_VIS", "word": "beef", "wordID": 112, "conditions": [18, 1200, "v", 18000], "trial": 1, "serialpos": 17, "trial_type": "single-stim", "trial_index": 72, "time_elapsed": 361548, "internal_node_id": "0.0-54.0"}}, {"uniqueid": "MTK1148:3Z7VU45IPZO1PECK9BGWGZ61PYW1ZJ", "current_trial": 73, "dateTime": 1513204564499, "trialdata": {"rt": -1, "stimulus": "", "key_press": -1, "type": "PRE_RECALL_DELAY", "trial_type": "single-stim", "trial_index": 73, "time_elapsed": 363746, "internal_node_id": "0.0-55.0-0.0"}}, {"uniqueid": "MTK1148:3Z7VU45IPZO1PECK9BGWGZ61PYW1ZJ", "current_trial": 74, "dateTime": 1513204565012, "trialdata": {"rt": -1000, "stimulus": "/static/audio/400Hz.wav", "key_press": -1, "type": "PRE_RECALL_ALERT", "trial_type": "single-audio", "trial_index": 74, "time_elapsed": 364259, "internal_node_id": "0.0-56.0"}}, {"uniqueid": "MTK1148:3Z7VU45IPZO1PECK9BGWGZ61PYW1ZJ", "current_trial": 75, "dateTime": 1513204625022, "trialdata": {"rt": [2959, 6284, 8105, 9779, 11610, 13267, 14872], "recwords": ["beef", "suitcase", "treat", "bike", "river", "motel", "seal"], "type": "FREE_RECALL", "conditions": [18, 1200, "v", 18000], "trial": 1, "trial_type": "free-recall", "trial_index": 75, "time_elapsed": 424261, "internal_node_id": "0.0-57.0-0.0"}}, {"uniqueid": "MTK1148:3Z7VU45IPZO1PECK9BGWGZ61PYW1ZJ", "current_trial": 76, "dateTime": 1513204649919, "trialdata": {"rt": 22879, "key_press": 32, "type": "INSTRUCTIONS", "trial_type": "text", "trial_index": 76, "time_elapsed": 449150, "internal_node_id": "0.0-58.0"}}, {"uniqueid": "MTK1148:3Z7VU45IPZO1PECK9BGWGZ61PYW1ZJ", "current_trial": 77, "dateTime": 1513204662926, "trialdata": {"rt": [2860, 4411, 6979, 9580], "responses": ["18", "15", "18", "15"], "num1": [8, 5, 7, 2, 8], "num2": [8, 5, 3, 9, 9], "num3": [2, 5, 8, 4, 7], "type": "DISTRACTOR", "conditions": [12, 800, "a", 12000], "trial": 2, "trial_type": "math-distractor", "trial_index": 77, "time_elapsed": 462173, "internal_node_id": "0.0-59.0"}}, {"uniqueid": "MTK1148:3Z7VU45IPZO1PECK9BGWGZ61PYW1ZJ", "current_trial": 78, "dateTime": 1513204665927, "trialdata": {"rt": -1, "stimulus": "<p id=\"stim\">10</p>", "key_press": -1, "trial_type": "single-stim", "trial_index": 78, "time_elapsed": 465174, "internal_node_id": "0.0-60.0-0.0"}}, {"uniqueid": "MTK1148:3Z7VU45IPZO1PECK9BGWGZ61PYW1ZJ", "current_trial": 79, "dateTime": 1513204666927, "trialdata": {"rt": -1, "stimulus": "<p id=\"stim\">9</p>", "key_press": -1, "trial_type": "single-stim", "trial_index": 79, "time_elapsed": 466174, "internal_node_id": "0.0-60.0-1.0"}}, {"uniqueid": "MTK1148:3Z7VU45IPZO1PECK9BGWGZ61PYW1ZJ", "current_trial": 80, "dateTime": 1513204667929, "trialdata": {"rt": -1, "stimulus": "<p id=\"stim\">8</p>", "key_press": -1, "trial_type": "single-stim", "trial_index": 80, "time_elapsed": 467176, "internal_node_id": "0.0-60.0-2.0"}}, {"uniqueid": "MTK1148:3Z7VU45IPZO1PECK9BGWGZ61PYW1ZJ", "current_trial": 81, "dateTime": 1513204668929, "trialdata": {"rt": -1, "stimulus": "<p id=\"stim\">7</p>", "key_press": -1, "trial_type": "single-stim", "trial_index": 81, "time_elapsed": 468176, "internal_node_id": "0.0-60.0-3.0"}}, {"uniqueid": "MTK1148:3Z7VU45IPZO1PECK9BGWGZ61PYW1ZJ", "current_trial": 82, "dateTime": 1513204669930, "trialdata": {"rt": -1, "stimulus": "<p id=\"stim\">6</p>", "key_press": -1, "trial_type": "single-stim", "trial_index": 82, "time_elapsed": 469177, "internal_node_id": "0.0-60.0-4.0"}}, {"uniqueid": "MTK1148:3Z7VU45IPZO1PECK9BGWGZ61PYW1ZJ", "current_trial": 83, "dateTime": 1513204670930, "trialdata": {"rt": -1, "stimulus": "<p id=\"stim\">5</p>", "key_press": -1, "trial_type": "single-stim", "trial_index": 83, "time_elapsed": 470177, "internal_node_id": "0.0-60.0-5.0"}}, {"uniqueid": "MTK1148:3Z7VU45IPZO1PECK9BGWGZ61PYW1ZJ", "current_trial": 84, "dateTime": 1513204671931, "trialdata": {"rt": -1, "stimulus": "<p id=\"stim\">4</p>", "key_press": -1, "trial_type": "single-stim", "trial_index": 84, "time_elapsed": 471178, "internal_node_id": "0.0-60.0-6.0"}}, {"uniqueid": "MTK1148:3Z7VU45IPZO1PECK9BGWGZ61PYW1ZJ", "current_trial": 85, "dateTime": 1513204672931, "trialdata": {"rt": -1, "stimulus": "<p id=\"stim\">3</p>", "key_press": -1, "trial_type": "single-stim", "trial_index": 85, "time_elapsed": 472178, "internal_node_id": "0.0-60.0-7.0"}}, {"uniqueid": "MTK1148:3Z7VU45IPZO1PECK9BGWGZ61PYW1ZJ", "current_trial": 86, "dateTime": 1513204673939, "trialdata": {"rt": -1, "stimulus": "<p id=\"stim\">2</p>", "key_press": -1, "trial_type": "single-stim", "trial_index": 86, "time_elapsed": 473186, "internal_node_id": "0.0-60.0-8.0"}}, {"uniqueid": "MTK1148:3Z7VU45IPZO1PECK9BGWGZ61PYW1ZJ", "current_trial": 87, "dateTime": 1513204674939, "trialdata": {"rt": -1, "stimulus": "<p id=\"stim\">1</p>", "key_press": -1, "trial_type": "single-stim", "trial_index": 87, "time_elapsed": 474186, "internal_node_id": "0.0-60.0-9.0"}}, {"uniqueid": "MTK1148:3Z7VU45IPZO1PECK9BGWGZ61PYW1ZJ", "current_trial": 88, "dateTime": 1513204676439, "trialdata": {"rt": -1, "stimulus": "<p id=\"stim\">+</p>", "key_press": -1, "type": "FIXATION", "trial_type": "single-stim", "trial_index": 88, "time_elapsed": 475686, "internal_node_id": "0.0-61.0-0.0"}}, {"uniqueid": "MTK1148:3Z7VU45IPZO1PECK9BGWGZ61PYW1ZJ", "current_trial": 89, "dateTime": 1513204678115, "trialdata": {"rt": -1000, "stimulus": "/static/audio/wordpool/JUDGE.wav", "key_press": -1, "type": "PRES_AUD", "word": "judge", "wordID": 760, "conditions": [12, 800, "a", 12000], "trial": 2, "serialpos": 0, "trial_type": "single-audio", "trial_index": 89, "time_elapsed": 477361, "internal_node_id": "0.0-62.0"}}, {"uniqueid": "MTK1148:3Z7VU45IPZO1PECK9BGWGZ61PYW1ZJ", "current_trial": 90, "dateTime": 1513204679810, "trialdata": {"rt": -1000, "stimulus": "/static/audio/wordpool/PLAID.wav", "key_press": -1, "type": "PRES_AUD", "word": "plaid", "wordID": 1079, "conditions": [12, 800, "a", 12000], "trial": 2, "serialpos": 1, "trial_type": "single-audio", "trial_index": 90, "time_elapsed": 479057, "internal_node_id": "0.0-63.0"}}, {"uniqueid": "MTK1148:3Z7VU45IPZO1PECK9BGWGZ61PYW1ZJ", "current_trial": 91, "dateTime": 1513204681776, "trialdata": {"rt": -1000, "stimulus": "/static/audio/wordpool/RACKET.wav", "key_press": -1, "type": "PRES_AUD", "word": "racket", "wordID": 1154, "conditions": [12, 800, "a", 12000], "trial": 2, "serialpos": 2, "trial_type": "single-audio", "trial_index": 91, "time_elapsed": 481022, "internal_node_id": "0.0-64.0"}}, {"uniqueid": "MTK1148:3Z7VU45IPZO1PECK9BGWGZ61PYW1ZJ", "current_trial": 92, "dateTime": 1513204683414, "trialdata": {"rt": -1000, "stimulus": "/static/audio/wordpool/TABLE.wav", "key_press": -1, "type": "PRES_AUD", "word": "table", "wordID": 1425, "conditions": [12, 800, "a", 12000], "trial": 2, "serialpos": 3, "trial_type": "single-audio", "trial_index": 92, "time_elapsed": 482661, "internal_node_id": "0.0-65.0"}}, {"uniqueid": "MTK1148:3Z7VU45IPZO1PECK9BGWGZ61PYW1ZJ", "current_trial": 93, "dateTime": 1513204685277, "trialdata": {"rt": -1000, "stimulus": "/static/audio/wordpool/SUMMIT.wav", "key_press": -1, "type": "PRES_AUD", "word": "summit", "wordID": 1404, "conditions": [12, 800, "a", 12000], "trial": 2, "serialpos": 4, "trial_type": "single-audio", "trial_index": 93, "time_elapsed": 484524, "internal_node_id": "0.0-66.0"}}, {"uniqueid": "MTK1148:3Z7VU45IPZO1PECK9BGWGZ61PYW1ZJ", "current_trial": 94, "dateTime": 1513204687225, "trialdata": {"rt": -1000, "stimulus": "/static/audio/wordpool/MASK.wav", "key_press": -1, "type": "PRES_AUD", "word": "mask", "wordID": 875, "conditions": [12, 800, "a", 12000], "trial": 2, "serialpos": 5, "trial_type": "single-audio", "trial_index": 94, "time_elapsed": 486471, "internal_node_id": "0.0-67.0"}}, {"uniqueid": "MTK1148:3Z7VU45IPZO1PECK9BGWGZ61PYW1ZJ", "current_trial": 95, "dateTime": 1513204689205, "trialdata": {"rt": -1000, "stimulus": "/static/audio/wordpool/SPACE.wav", "key_press": -1, "type": "PRES_AUD", "word": "space", "wordID": 1344, "conditions": [12, 800, "a", 12000], "trial": 2, "serialpos": 6, "trial_type": "single-audio", "trial_index": 95, "time_elapsed": 488452, "internal_node_id": "0.0-68.0"}}, {"uniqueid": "MTK1148:3Z7VU45IPZO1PECK9BGWGZ61PYW1ZJ", "current_trial": 96, "dateTime": 1513204691124, "trialdata": {"rt": -1000, "stimulus": "/static/audio/wordpool/VELVET.wav", "key_press": -1, "type": "PRES_AUD", "word": "velvet", "wordID": 1554, "conditions": [12, 800, "a", 12000], "trial": 2, "serialpos": 7, "trial_type": "single-audio", "trial_index": 96, "time_elapsed": 490371, "internal_node_id": "0.0-69.0"}}, {"uniqueid": "MTK1148:3Z7VU45IPZO1PECK9BGWGZ61PYW1ZJ", "current_trial": 97, "dateTime": 1513204692793, "trialdata": {"rt": -1000, "stimulus": "/static/audio/wordpool/YARN.wav", "key_press": -1, "type": "PRES_AUD", "word": "yarn", "wordID": 1630, "conditions": [12, 800, "a", 12000], "trial": 2, "serialpos": 8, "trial_type": "single-audio", "trial_index": 97, "time_elapsed": 492040, "internal_node_id": "0.0-70.0"}}, {"uniqueid": "MTK1148:3Z7VU45IPZO1PECK9BGWGZ61PYW1ZJ", "current_trial": 98, "dateTime": 1513204694540, "trialdata": {"rt": -1000, "stimulus": "/static/audio/wordpool/SUSPECT.wav", "key_press": -1, "type": "PRES_AUD", "word": "suspect", "wordID": 1414, "conditions": [12, 800, "a", 12000], "trial": 2, "serialpos": 9, "trial_type": "single-audio", "trial_index": 98, "time_elapsed": 493787, "internal_node_id": "0.0-71.0"}}, {"uniqueid": "MTK1148:3Z7VU45IPZO1PECK9BGWGZ61PYW1ZJ", "current_trial": 99, "dateTime": 1513204696155, "trialdata": {"rt": -1000, "stimulus": "/static/audio/wordpool/VICTIM.wav", "key_press": -1, "type": "PRES_AUD", "word": "victim", "wordID": 1561, "conditions": [12, 800, "a", 12000], "trial": 2, "serialpos": 10, "trial_type": "single-audio", "trial_index": 99, "time_elapsed": 495402, "internal_node_id": "0.0-72.0"}}, {"uniqueid": "MTK1148:3Z7VU45IPZO1PECK9BGWGZ61PYW1ZJ", "current_trial": 100, "dateTime": 1513204698151, "trialdata": {"rt": -1000, "stimulus": "/static/audio/wordpool/TWIG.wav", "key_press": -1, "type": "PRES_AUD", "word": "twig", "wordID": 1526, "conditions": [12, 800, "a", 12000], "trial": 2, "serialpos": 11, "trial_type": "single-audio", "trial_index": 100, "time_elapsed": 497397, "internal_node_id": "0.0-73.0"}}, {"uniqueid": "MTK1148:3Z7VU45IPZO1PECK9BGWGZ61PYW1ZJ", "current_trial": 101, "dateTime": 1513204699389, "trialdata": {"rt": -1, "stimulus": "", "key_press": -1, "type": "PRE_RECALL_DELAY", "trial_type": "single-stim", "trial_index": 101, "time_elapsed": 498636, "internal_node_id": "0.0-74.0-0.0"}}, {"uniqueid": "MTK1148:3Z7VU45IPZO1PECK9BGWGZ61PYW1ZJ", "current_trial": 102, "dateTime": 1513204699900, "trialdata": {"rt": -1000, "stimulus": "/static/audio/400Hz.wav", "key_press": -1, "type": "PRE_RECALL_ALERT", "trial_type": "single-audio", "trial_index": 102, "time_elapsed": 499146, "internal_node_id": "0.0-75.0"}}, {"uniqueid": "MTK1148:3Z7VU45IPZO1PECK9BGWGZ61PYW1ZJ", "current_trial": 103, "dateTime": 1513204759911, "trialdata": {"rt": [4081, 6278, 8354, 10909, 13259], "recwords": ["suspect", "victim", "twig", "yarn", "racket"], "type": "FREE_RECALL", "conditions": [12, 800, "a", 12000], "trial": 2, "trial_type": "free-recall", "trial_index": 103, "time_elapsed": 559150, "internal_node_id": "0.0-76.0-0.0"}}, {"uniqueid": "MTK1148:3Z7VU45IPZO1PECK9BGWGZ61PYW1ZJ", "current_trial": 104, "dateTime": 1513204774093, "trialdata": {"rt": 12177, "key_press": 32, "type": "INSTRUCTIONS", "trial_type": "text", "trial_index": 104, "time_elapsed": 573340, "internal_node_id": "0.0-77.0"}}, {"uniqueid": "MTK1148:3Z7VU45IPZO1PECK9BGWGZ61PYW1ZJ", "current_trial": 105, "dateTime": 1513204800094, "trialdata": {"rt": [2294, 4901, 7519, 12125, 14285, 16438, 18962, 21612, 23019], "responses": ["21", "11", "17", "12", "13", "14", "15", "21", "6"], "num1": [7, 8, 9, 2, 4, 2, 2, 6, 1, 4], "num2": [8, 1, 2, 9, 6, 3, 5, 9, 4, 1], "num3": [6, 2, 6, 1, 3, 9, 8, 6, 1, 9], "type": "DISTRACTOR", "conditions": [24, 800, "a", 24000], "trial": 3, "trial_type": "math-distractor", "trial_index": 105, "time_elapsed": 599341, "internal_node_id": "0.0-78.0"}}, {"uniqueid": "MTK1148:3Z7VU45IPZO1PECK9BGWGZ61PYW1ZJ", "current_trial": 106, "dateTime": 1513204803094, "trialdata": {"rt": -1, "stimulus": "<p id=\"stim\">10</p>", "key_press": -1, "trial_type": "single-stim", "trial_index": 106, "time_elapsed": 602341, "internal_node_id": "0.0-79.0-0.0"}}, {"uniqueid": "MTK1148:3Z7VU45IPZO1PECK9BGWGZ61PYW1ZJ", "current_trial": 107, "dateTime": 1513204804096, "trialdata": {"rt": -1, "stimulus": "<p id=\"stim\">9</p>", "key_press": -1, "trial_type": "single-stim", "trial_index": 107, "time_elapsed": 603343, "internal_node_id": "0.0-79.0-1.0"}}, {"uniqueid": "MTK1148:3Z7VU45IPZO1PECK9BGWGZ61PYW1ZJ", "current_trial": 108, "dateTime": 1513204805096, "trialdata": {"rt": -1, "stimulus": "<p id=\"stim\">8</p>", "key_press": -1, "trial_type": "single-stim", "trial_index": 108, "time_elapsed": 604343, "internal_node_id": "0.0-79.0-2.0"}}, {"uniqueid": "MTK1148:3Z7VU45IPZO1PECK9BGWGZ61PYW1ZJ", "current_trial": 109, "dateTime": 1513204806096, "trialdata": {"rt": -1, "stimulus": "<p id=\"stim\">7</p>", "key_press": -1, "trial_type": "single-stim", "trial_index": 109, "time_elapsed": 605343, "internal_node_id": "0.0-79.0-3.0"}}, {"uniqueid": "MTK1148:3Z7VU45IPZO1PECK9BGWGZ61PYW1ZJ", "current_trial": 110, "dateTime": 1513204807096, "trialdata": {"rt": -1, "stimulus": "<p id=\"stim\">6</p>", "key_press": -1, "trial_type": "single-stim", "trial_index": 110, "time_elapsed": 606343, "internal_node_id": "0.0-79.0-4.0"}}, {"uniqueid": "MTK1148:3Z7VU45IPZO1PECK9BGWGZ61PYW1ZJ", "current_trial": 111, "dateTime": 1513204808096, "trialdata": {"rt": -1, "stimulus": "<p id=\"stim\">5</p>", "key_press": -1, "trial_type": "single-stim", "trial_index": 111, "time_elapsed": 607343, "internal_node_id": "0.0-79.0-5.0"}}, {"uniqueid": "MTK1148:3Z7VU45IPZO1PECK9BGWGZ61PYW1ZJ", "current_trial": 112, "dateTime": 1513204809097, "trialdata": {"rt": -1, "stimulus": "<p id=\"stim\">4</p>", "key_press": -1, "trial_type": "single-stim", "trial_index": 112, "time_elapsed": 608344, "internal_node_id": "0.0-79.0-6.0"}}, {"uniqueid": "MTK1148:3Z7VU45IPZO1PECK9BGWGZ61PYW1ZJ", "current_trial": 113, "dateTime": 1513204810097, "trialdata": {"rt": -1, "stimulus": "<p id=\"stim\">3</p>", "key_press": -1, "trial_type": "single-stim", "trial_index": 113, "time_elapsed": 609344, "internal_node_id": "0.0-79.0-7.0"}}, {"uniqueid": "MTK1148:3Z7VU45IPZO1PECK9BGWGZ61PYW1ZJ", "current_trial": 114, "dateTime": 1513204811097, "trialdata": {"rt": -1, "stimulus": "<p id=\"stim\">2</p>", "key_press": -1, "trial_type": "single-stim", "trial_index": 114, "time_elapsed": 610344, "internal_node_id": "0.0-79.0-8.0"}}, {"uniqueid": "MTK1148:3Z7VU45IPZO1PECK9BGWGZ61PYW1ZJ", "current_trial": 115, "dateTime": 1513204812097, "trialdata": {"rt": -1, "stimulus": "<p id=\"stim\">1</p>", "key_press": -1, "trial_type": "single-stim", "trial_index": 115, "time_elapsed": 611344, "internal_node_id": "0.0-79.0-9.0"}}, {"uniqueid": "MTK1148:3Z7VU45IPZO1PECK9BGWGZ61PYW1ZJ", "current_trial": 116, "dateTime": 1513204813597, "trialdata": {"rt": -1, "stimulus": "<p id=\"stim\">+</p>", "key_press": -1, "type": "FIXATION", "trial_type": "single-stim", "trial_index": 116, "time_elapsed": 612844, "internal_node_id": "0.0-80.0-0.0"}}, {"uniqueid": "MTK1148:3Z7VU45IPZO1PECK9BGWGZ61PYW1ZJ", "current_trial": 117, "dateTime": 1513204815475, "trialdata": {"rt": -1000, "stimulus": "/static/audio/wordpool/WITNESS.wav", "key_press": -1, "type": "PRES_AUD", "word": "witness", "wordID": 1617, "conditions": [24, 800, "a", 24000], "trial": 3, "serialpos": 0, "trial_type": "single-audio", "trial_index": 117, "time_elapsed": 614722, "internal_node_id": "0.0-81.0"}}, {"uniqueid": "MTK1148:3Z7VU45IPZO1PECK9BGWGZ61PYW1ZJ", "current_trial": 118, "dateTime": 1513204817181, "trialdata": {"rt": -1000, "stimulus": "/static/audio/wordpool/CRIB.wav", "key_press": -1, "type": "PRES_AUD", "word": "crib", "wordID": 406, "conditions": [24, 800, "a", 24000], "trial": 3, "serialpos": 1, "trial_type": "single-audio", "trial_index": 118, "time_elapsed": 616427, "internal_node_id": "0.0-82.0"}}, {"uniqueid": "MTK1148:3Z7VU45IPZO1PECK9BGWGZ61PYW1ZJ", "current_trial": 119, "dateTime": 1513204818941, "trialdata": {"rt": -1000, "stimulus": "/static/audio/wordpool/BUGGY.wav", "key_press": -1, "type": "PRES_AUD", "word": "buggy", "wordID": 187, "conditions": [24, 800, "a", 24000], "trial": 3, "serialpos": 2, "trial_type": "single-audio", "trial_index": 119, "time_elapsed": 618188, "internal_node_id": "0.0-83.0"}}, {"uniqueid": "MTK1148:3Z7VU45IPZO1PECK9BGWGZ61PYW1ZJ", "current_trial": 120, "dateTime": 1513204820784, "trialdata": {"rt": -1000, "stimulus": "/static/audio/wordpool/VALLEY.wav", "key_press": -1, "type": "PRES_AUD", "word": "valley", "wordID": 1544, "conditions": [24, 800, "a", 24000], "trial": 3, "serialpos": 3, "trial_type": "single-audio", "trial_index": 120, "time_elapsed": 620030, "internal_node_id": "0.0-84.0"}}, {"uniqueid": "MTK1148:3Z7VU45IPZO1PECK9BGWGZ61PYW1ZJ", "current_trial": 121, "dateTime": 1513204822663, "trialdata": {"rt": -1000, "stimulus": "/static/audio/wordpool/CANYON.wav", "key_press": -1, "type": "PRES_AUD", "word": "canyon", "wordID": 234, "conditions": [24, 800, "a", 24000], "trial": 3, "serialpos": 4, "trial_type": "single-audio", "trial_index": 121, "time_elapsed": 621910, "internal_node_id": "0.0-85.0"}}, {"uniqueid": "MTK1148:3Z7VU45IPZO1PECK9BGWGZ61PYW1ZJ", "current_trial": 122, "dateTime": 1513204824437, "trialdata": {"rt": -1000, "stimulus": "/static/audio/wordpool/DRIVER.wav", "key_press": -1, "type": "PRES_AUD", "word": "driver", "wordID": 498, "conditions": [24, 800, "a", 24000], "trial": 3, "serialpos": 5, "trial_type": "single-audio", "trial_index": 122, "time_elapsed": 623684, "internal_node_id": "0.0-86.0"}}, {"uniqueid": "MTK1148:3Z7VU45IPZO1PECK9BGWGZ61PYW1ZJ", "current_trial": 123, "dateTime": 1513204826283, "trialdata": {"rt": -1000, "stimulus": "/static/audio/wordpool/DASHBOARD.wav", "key_press": -1, "type": "PRES_AUD", "word": "dashboard", "wordID": 440, "conditions": [24, 800, "a", 24000], "trial": 3, "serialpos": 6, "trial_type": "single-audio", "trial_index": 123, "time_elapsed": 625530, "internal_node_id": "0.0-87.0"}}, {"uniqueid": "MTK1148:3Z7VU45IPZO1PECK9BGWGZ61PYW1ZJ", "current_trial": 124, "dateTime": 1513204828094, "trialdata": {"rt": -1000, "stimulus": "/static/audio/wordpool/OUTLAW.wav", "key_press": -1, "type": "PRES_AUD", "word": "outlaw", "wordID": 988, "conditions": [24, 800, "a", 24000], "trial": 3, "serialpos": 7, "trial_type": "single-audio", "trial_index": 124, "time_elapsed": 627341, "internal_node_id": "0.0-88.0"}}, {"uniqueid": "MTK1148:3Z7VU45IPZO1PECK9BGWGZ61PYW1ZJ", "current_trial": 125, "dateTime": 1513204829933, "trialdata": {"rt": -1000, "stimulus": "/static/audio/wordpool/STAMP.wav", "key_press": -1, "type": "PRES_AUD", "word": "stamp", "wordID": 1369, "conditions": [24, 800, "a", 24000], "trial": 3, "serialpos": 8, "trial_type": "single-audio", "trial_index": 125, "time_elapsed": 629180, "internal_node_id": "0.0-89.0"}}, {"uniqueid": "MTK1148:3Z7VU45IPZO1PECK9BGWGZ61PYW1ZJ", "current_trial": 126, "dateTime": 1513204831894, "trialdata": {"rt": -1000, "stimulus": "/static/audio/wordpool/BODY.wav", "key_press": -1, "type": "PRES_AUD", "word": "body", "wordID": 144, "conditions": [24, 800, "a", 24000], "trial": 3, "serialpos": 9, "trial_type": "single-audio", "trial_index": 126, "time_elapsed": 631141, "internal_node_id": "0.0-90.0"}}, {"uniqueid": "MTK1148:3Z7VU45IPZO1PECK9BGWGZ61PYW1ZJ", "current_trial": 127, "dateTime": 1513204833678, "trialdata": {"rt": -1000, "stimulus": "/static/audio/wordpool/BOYFRIEND.wav", "key_press": -1, "type": "PRES_AUD", "word": "boyfriend", "wordID": 161, "conditions": [24, 800, "a", 24000], "trial": 3, "serialpos": 10, "trial_type": "single-audio", "trial_index": 127, "time_elapsed": 632925, "internal_node_id": "0.0-91.0"}}, {"uniqueid": "MTK1148:3Z7VU45IPZO1PECK9BGWGZ61PYW1ZJ", "current_trial": 128, "dateTime": 1513204835517, "trialdata": {"rt": -1000, "stimulus": "/static/audio/wordpool/MATTRESS.wav", "key_press": -1, "type": "PRES_AUD", "word": "mattress", "wordID": 878, "conditions": [24, 800, "a", 24000], "trial": 3, "serialpos": 11, "trial_type": "single-audio", "trial_index": 128, "time_elapsed": 634764, "internal_node_id": "0.0-92.0"}}, {"uniqueid": "MTK1148:3Z7VU45IPZO1PECK9BGWGZ61PYW1ZJ", "current_trial": 129, "dateTime": 1513204837378, "trialdata": {"rt": -1000, "stimulus": "/static/audio/wordpool/DRESS.wav", "key_press": -1, "type": "PRES_AUD", "word": "dress", "wordID": 494, "conditions": [24, 800, "a", 24000], "trial": 3, "serialpos": 12, "trial_type": "single-audio", "trial_index": 129, "time_elapsed": 636625, "internal_node_id": "0.0-93.0"}}, {"uniqueid": "MTK1148:3Z7VU45IPZO1PECK9BGWGZ61PYW1ZJ", "current_trial": 130, "dateTime": 1513204839219, "trialdata": {"rt": -1000, "stimulus": "/static/audio/wordpool/TUTU.wav", "key_press": -1, "type": "PRES_AUD", "word": "tutu", "wordID": 1523, "conditions": [24, 800, "a", 24000], "trial": 3, "serialpos": 13, "trial_type": "single-audio", "trial_index": 130, "time_elapsed": 638465, "internal_node_id": "0.0-94.0"}}, {"uniqueid": "MTK1148:3Z7VU45IPZO1PECK9BGWGZ61PYW1ZJ", "current_trial": 131, "dateTime": 1513204841034, "trialdata": {"rt": -1000, "stimulus": "/static/audio/wordpool/PIZZA.wav", "key_press": -1, "type": "PRES_AUD", "word": "pizza", "wordID": 1078, "conditions": [24, 800, "a", 24000], "trial": 3, "serialpos": 14, "trial_type": "single-audio", "trial_index": 131, "time_elapsed": 640280, "internal_node_id": "0.0-95.0"}}, {"uniqueid": "MTK1148:3Z7VU45IPZO1PECK9BGWGZ61PYW1ZJ", "current_trial": 132, "dateTime": 1513204842988, "trialdata": {"rt": -1000, "stimulus": "/static/audio/wordpool/HOOK.wav", "key_press": -1, "type": "PRES_AUD", "word": "hook", "wordID": 714, "conditions": [24, 800, "a", 24000], "trial": 3, "serialpos": 15, "trial_type": "single-audio", "trial_index": 132, "time_elapsed": 642234, "internal_node_id": "0.0-96.0"}}, {"uniqueid": "MTK1148:3Z7VU45IPZO1PECK9BGWGZ61PYW1ZJ", "current_trial": 133, "dateTime": 1513204844743, "trialdata": {"rt": -1000, "stimulus": "/static/audio/wordpool/CABBAGE.wav", "key_press": -1, "type": "PRES_AUD", "word": "cabbage", "wordID": 209, "conditions": [24, 800, "a", 24000], "trial": 3, "serialpos": 16, "trial_type": "single-audio", "trial_index": 133, "time_elapsed": 643989, "internal_node_id": "0.0-97.0"}}, {"uniqueid": "MTK1148:3Z7VU45IPZO1PECK9BGWGZ61PYW1ZJ", "current_trial": 134, "dateTime": 1513204846694, "trialdata": {"rt": -1000, "stimulus": "/static/audio/wordpool/UNCLE.wav", "key_press": -1, "type": "PRES_AUD", "word": "uncle", "wordID": 1535, "conditions": [24, 800, "a", 24000], "trial": 3, "serialpos": 17, "trial_type": "single-audio", "trial_index": 134, "time_elapsed": 645940, "internal_node_id": "0.0-98.0"}}, {"uniqueid": "MTK1148:3Z7VU45IPZO1PECK9BGWGZ61PYW1ZJ", "current_trial": 135, "dateTime": 1513204848305, "trialdata": {"rt": -1000, "stimulus": "/static/audio/wordpool/CELLAR.wav", "key_press": -1, "type": "PRES_AUD", "word": "cellar", "wordID": 266, "conditions": [24, 800, "a", 24000], "trial": 3, "serialpos": 18, "trial_type": "single-audio", "trial_index": 135, "time_elapsed": 647551, "internal_node_id": "0.0-99.0"}}, {"uniqueid": "MTK1148:3Z7VU45IPZO1PECK9BGWGZ61PYW1ZJ", "current_trial": 136, "dateTime": 1513204850127, "trialdata": {"rt": -1000, "stimulus": "/static/audio/wordpool/CRUTCH.wav", "key_press": -1, "type": "PRES_AUD", "word": "crutch", "wordID": 416, "conditions": [24, 800, "a", 24000], "trial": 3, "serialpos": 19, "trial_type": "single-audio", "trial_index": 136, "time_elapsed": 649374, "internal_node_id": "0.0-100.0"}}, {"uniqueid": "MTK1148:3Z7VU45IPZO1PECK9BGWGZ61PYW1ZJ", "current_trial": 137, "dateTime": 1513204851947, "trialdata": {"rt": -1000, "stimulus": "/static/audio/wordpool/HIGHWAY.wav", "key_press": -1, "type": "PRES_AUD", "word": "highway", "wordID": 706, "conditions": [24, 800, "a", 24000], "trial": 3, "serialpos": 20, "trial_type": "single-audio", "trial_index": 137, "time_elapsed": 651194, "internal_node_id": "0.0-101.0"}}, {"uniqueid": "MTK1148:3Z7VU45IPZO1PECK9BGWGZ61PYW1ZJ", "current_trial": 138, "dateTime": 1513204853698, "trialdata": {"rt": -1000, "stimulus": "/static/audio/wordpool/DINER.wav", "key_press": -1, "type": "PRES_AUD", "word": "diner", "wordID": 466, "conditions": [24, 800, "a", 24000], "trial": 3, "serialpos": 21, "trial_type": "single-audio", "trial_index": 138, "time_elapsed": 652945, "internal_node_id": "0.0-102.0"}}, {"uniqueid": "MTK1148:3Z7VU45IPZO1PECK9BGWGZ61PYW1ZJ", "current_trial": 139, "dateTime": 1513204855387, "trialdata": {"rt": -1000, "stimulus": "/static/audio/wordpool/FOOT.wav", "key_press": -1, "type": "PRES_AUD", "word": "foot", "wordID": 589, "conditions": [24, 800, "a", 24000], "trial": 3, "serialpos": 22, "trial_type": "single-audio", "trial_index": 139, "time_elapsed": 654634, "internal_node_id": "0.0-103.0"}}, {"uniqueid": "MTK1148:3Z7VU45IPZO1PECK9BGWGZ61PYW1ZJ", "current_trial": 140, "dateTime": 1513204857098, "trialdata": {"rt": -1000, "stimulus": "/static/audio/wordpool/NOVEL.wav", "key_press": -1, "type": "PRES_AUD", "word": "novel", "wordID": 959, "conditions": [24, 800, "a", 24000], "trial": 3, "serialpos": 23, "trial_type": "single-audio", "trial_index": 140, "time_elapsed": 656345, "internal_node_id": "0.0-104.0"}}, {"uniqueid": "MTK1148:3Z7VU45IPZO1PECK9BGWGZ61PYW1ZJ", "current_trial": 141, "dateTime": 1513204858360, "trialdata": {"rt": -1, "stimulus": "", "key_press": -1, "type": "PRE_RECALL_DELAY", "trial_type": "single-stim", "trial_index": 141, "time_elapsed": 657607, "internal_node_id": "0.0-105.0-0.0"}}, {"uniqueid": "MTK1148:3Z7VU45IPZO1PECK9BGWGZ61PYW1ZJ", "current_trial": 142, "dateTime": 1513204858863, "trialdata": {"rt": -1000, "stimulus": "/static/audio/400Hz.wav", "key_press": -1, "type": "PRE_RECALL_ALERT", "trial_type": "single-audio", "trial_index": 142, "time_elapsed": 658110, "internal_node_id": "0.0-106.0"}}, {"uniqueid": "MTK1148:3Z7VU45IPZO1PECK9BGWGZ61PYW1ZJ", "current_trial": 143, "dateTime": 1513204918878, "trialdata": {"rt": [2630, 4446, 6407, 8151, 13824], "recwords": ["novel", "foot", "diner", "uncle", "tutu"], "type": "FREE_RECALL", "conditions": [24, 800, "a", 24000], "trial": 3, "trial_type": "free-recall", "trial_index": 143, "time_elapsed": 718117, "internal_node_id": "0.0-107.0-0.0"}}, {"uniqueid": "MTK1148:3Z7VU45IPZO1PECK9BGWGZ61PYW1ZJ", "current_trial": 144, "dateTime": 1513204927088, "trialdata": {"rt": 6206, "key_press": 13, "type": "INSTRUCTIONS", "trial_type": "text", "trial_index": 144, "time_elapsed": 726331, "internal_node_id": "0.0-108.0"}}, {"uniqueid": "MTK1148:3Z7VU45IPZO1PECK9BGWGZ61PYW1ZJ", "current_trial": 145, "dateTime": 1513204941095, "trialdata": {"rt": [3562, 6840, 10032], "responses": ["13", "23", "18"], "num1": [3, 9, 8, 2], "num2": [4, 9, 7, 7], "num3": [6, 5, 3, 2], "type": "DISTRACTOR", "conditions": [12, 800, "v", 12000], "trial": 4, "trial_type": "math-distractor", "trial_index": 145, "time_elapsed": 740342, "internal_node_id": "0.0-109.0"}}, {"uniqueid": "MTK1148:3Z7VU45IPZO1PECK9BGWGZ61PYW1ZJ", "current_trial": 146, "dateTime": 1513204944097, "trialdata": {"rt": -1, "stimulus": "<p id=\"stim\">10</p>", "key_press": -1, "trial_type": "single-stim", "trial_index": 146, "time_elapsed": 743344, "internal_node_id": "0.0-110.0-0.0"}}, {"uniqueid": "MTK1148:3Z7VU45IPZO1PECK9BGWGZ61PYW1ZJ", "current_trial": 147, "dateTime": 1513204945100, "trialdata": {"rt": -1, "stimulus": "<p id=\"stim\">9</p>", "key_press": -1, "trial_type": "single-stim", "trial_index": 147, "time_elapsed": 744346, "internal_node_id": "0.0-110.0-1.0"}}, {"uniqueid": "MTK1148:3Z7VU45IPZO1PECK9BGWGZ61PYW1ZJ", "current_trial": 148, "dateTime": 1513204946103, "trialdata": {"rt": -1, "stimulus": "<p id=\"stim\">8</p>", "key_press": -1, "trial_type": "single-stim", "trial_index": 148, "time_elapsed": 745350, "internal_node_id": "0.0-110.0-2.0"}}, {"uniqueid": "MTK1148:3Z7VU45IPZO1PECK9BGWGZ61PYW1ZJ", "current_trial": 149, "dateTime": 1513204947105, "trialdata": {"rt": -1, "stimulus": "<p id=\"stim\">7</p>", "key_press": -1, "trial_type": "single-stim", "trial_index": 149, "time_elapsed": 746351, "internal_node_id": "0.0-110.0-3.0"}}, {"uniqueid": "MTK1148:3Z7VU45IPZO1PECK9BGWGZ61PYW1ZJ", "current_trial": 150, "dateTime": 1513204948108, "trialdata": {"rt": -1, "stimulus": "<p id=\"stim\">6</p>", "key_press": -1, "trial_type": "single-stim", "trial_index": 150, "time_elapsed": 747354, "internal_node_id": "0.0-110.0-4.0"}}, {"uniqueid": "MTK1148:3Z7VU45IPZO1PECK9BGWGZ61PYW1ZJ", "current_trial": 151, "dateTime": 1513204949111, "trialdata": {"rt": -1, "stimulus": "<p id=\"stim\">5</p>", "key_press": -1, "trial_type": "single-stim", "trial_index": 151, "time_elapsed": 748357, "internal_node_id": "0.0-110.0-5.0"}}, {"uniqueid": "MTK1148:3Z7VU45IPZO1PECK9BGWGZ61PYW1ZJ", "current_trial": 152, "dateTime": 1513204950113, "trialdata": {"rt": -1, "stimulus": "<p id=\"stim\">4</p>", "key_press": -1, "trial_type": "single-stim", "trial_index": 152, "time_elapsed": 749359, "internal_node_id": "0.0-110.0-6.0"}}, {"uniqueid": "MTK1148:3Z7VU45IPZO1PECK9BGWGZ61PYW1ZJ", "current_trial": 153, "dateTime": 1513204951115, "trialdata": {"rt": -1, "stimulus": "<p id=\"stim\">3</p>", "key_press": -1, "trial_type": "single-stim", "trial_index": 153, "time_elapsed": 750362, "internal_node_id": "0.0-110.0-7.0"}}, {"uniqueid": "MTK1148:3Z7VU45IPZO1PECK9BGWGZ61PYW1ZJ", "current_trial": 154, "dateTime": 1513204952118, "trialdata": {"rt": -1, "stimulus": "<p id=\"stim\">2</p>", "key_press": -1, "trial_type": "single-stim", "trial_index": 154, "time_elapsed": 751364, "internal_node_id": "0.0-110.0-8.0"}}, {"uniqueid": "MTK1148:3Z7VU45IPZO1PECK9BGWGZ61PYW1ZJ", "current_trial": 155, "dateTime": 1513204953121, "trialdata": {"rt": -1, "stimulus": "<p id=\"stim\">1</p>", "key_press": -1, "trial_type": "single-stim", "trial_index": 155, "time_elapsed": 752367, "internal_node_id": "0.0-110.0-9.0"}}, {"uniqueid": "MTK1148:3Z7VU45IPZO1PECK9BGWGZ61PYW1ZJ", "current_trial": 156, "dateTime": 1513204954623, "trialdata": {"rt": -1, "stimulus": "<p id=\"stim\">+</p>", "key_press": -1, "type": "FIXATION", "trial_type": "single-stim", "trial_index": 156, "time_elapsed": 753869, "internal_node_id": "0.0-111.0-0.0"}}, {"uniqueid": "MTK1148:3Z7VU45IPZO1PECK9BGWGZ61PYW1ZJ", "current_trial": 157, "dateTime": 1513204955425, "trialdata": {"rt": -1, "stimulus": "<p id=\"stim\">CYCLONE</p>", "key_press": -1, "type": "PRES_VIS", "word": "cyclone", "wordID": 430, "conditions": [12, 800, "v", 12000], "trial": 4, "serialpos": 0, "trial_type": "single-stim", "trial_index": 157, "time_elapsed": 754671, "internal_node_id": "0.0-112.0"}}, {"uniqueid": "MTK1148:3Z7VU45IPZO1PECK9BGWGZ61PYW1ZJ", "current_trial": 158, "dateTime": 1513204957151, "trialdata": {"rt": -1, "stimulus": "<p id=\"stim\">HANDBAG</p>", "key_press": -1, "type": "PRES_VIS", "word": "handbag", "wordID": 683, "conditions": [12, 800, "v", 12000], "trial": 4, "serialpos": 1, "trial_type": "single-stim", "trial_index": 158, "time_elapsed": 756397, "internal_node_id": "0.0-113.0"}}, {"uniqueid": "MTK1148:3Z7VU45IPZO1PECK9BGWGZ61PYW1ZJ", "current_trial": 159, "dateTime": 1513204959126, "trialdata": {"rt": -1, "stimulus": "<p id=\"stim\">BRIEFCASE</p>", "key_press": -1, "type": "PRES_VIS", "word": "briefcase", "wordID": 174, "conditions": [12, 800, "v", 12000], "trial": 4, "serialpos": 2, "trial_type": "single-stim", "trial_index": 159, "time_elapsed": 758373, "internal_node_id": "0.0-114.0"}}, {"uniqueid": "MTK1148:3Z7VU45IPZO1PECK9BGWGZ61PYW1ZJ", "current_trial": 160, "dateTime": 1513204960761, "trialdata": {"rt": -1, "stimulus": "<p id=\"stim\">PRIMATE</p>", "key_press": -1, "type": "PRES_VIS", "word": "primate", "wordID": 1122, "conditions": [12, 800, "v", 12000], "trial": 4, "serialpos": 3, "trial_type": "single-stim", "trial_index": 160, "time_elapsed": 760008, "internal_node_id": "0.0-115.0"}}, {"uniqueid": "MTK1148:3Z7VU45IPZO1PECK9BGWGZ61PYW1ZJ", "current_trial": 161, "dateTime": 1513204962590, "trialdata": {"rt": -1, "stimulus": "<p id=\"stim\">OMELET</p>", "key_press": -1, "type": "PRES_VIS", "word": "omelet", "wordID": 975, "conditions": [12, 800, "v", 12000], "trial": 4, "serialpos": 4, "trial_type": "single-stim", "trial_index": 161, "time_elapsed": 761837, "internal_node_id": "0.0-116.0"}}, {"uniqueid": "MTK1148:3Z7VU45IPZO1PECK9BGWGZ61PYW1ZJ", "current_trial": 162, "dateTime": 1513204964315, "trialdata": {"rt": -1, "stimulus": "<p id=\"stim\">SPOUSE</p>", "key_press": -1, "type": "PRES_VIS", "word": "spouse", "wordID": 1357, "conditions": [12, 800, "v", 12000], "trial": 4, "serialpos": 5, "trial_type": "single-stim", "trial_index": 162, "time_elapsed": 763562, "internal_node_id": "0.0-117.0"}}, {"uniqueid": "MTK1148:3Z7VU45IPZO1PECK9BGWGZ61PYW1ZJ", "current_trial": 163, "dateTime": 1513204966015, "trialdata": {"rt": -1, "stimulus": "<p id=\"stim\">BISON</p>", "key_press": -1, "type": "PRES_VIS", "word": "bison", "wordID": 130, "conditions": [12, 800, "v", 12000], "trial": 4, "serialpos": 6, "trial_type": "single-stim", "trial_index": 163, "time_elapsed": 765261, "internal_node_id": "0.0-118.0"}}, {"uniqueid": "MTK1148:3Z7VU45IPZO1PECK9BGWGZ61PYW1ZJ", "current_trial": 164, "dateTime": 1513204967704, "trialdata": {"rt": -1, "stimulus": "<p id=\"stim\">JELLY</p>", "key_press": -1, "type": "PRES_VIS", "word": "jelly", "wordID": 754, "conditions": [12, 800, "v", 12000], "trial": 4, "serialpos": 7, "trial_type": "single-stim", "trial_index": 164, "time_elapsed": 766951, "internal_node_id": "0.0-119.0"}}, {"uniqueid": "MTK1148:3Z7VU45IPZO1PECK9BGWGZ61PYW1ZJ", "current_trial": 165, "dateTime": 1513204969547, "trialdata": {"rt": -1, "stimulus": "<p id=\"stim\">CITRUS</p>", "key_press": -1, "type": "PRES_VIS", "word": "citrus", "wordID": 312, "conditions": [12, 800, "v", 12000], "trial": 4, "serialpos": 8, "trial_type": "single-stim", "trial_index": 165, "time_elapsed": 768793, "internal_node_id": "0.0-120.0"}}, {"uniqueid": "MTK1148:3Z7VU45IPZO1PECK9BGWGZ61PYW1ZJ", "current_trial": 166, "dateTime": 1513204971321, "trialdata": {"rt": -1, "stimulus": "<p id=\"stim\">CATTLE</p>", "key_press": -1, "type": "PRES_VIS", "word": "cattle", "wordID": 260, "conditions": [12, 800, "v", 12000], "trial": 4, "serialpos": 9, "trial_type": "single-stim", "trial_index": 166, "time_elapsed": 770565, "internal_node_id": "0.0-121.0"}}, {"uniqueid": "MTK1148:3Z7VU45IPZO1PECK9BGWGZ61PYW1ZJ", "current_trial": 167, "dateTime": 1513204973255, "trialdata": {"rt": -1, "stimulus": "<p id=\"stim\">GUARD</p>", "key_press": -1, "type": "PRES_VIS", "word": "guard", "wordID": 666, "conditions": [12, 800, "v", 12000], "trial": 4, "serialpos": 10, "trial_type": "single-stim", "trial_index": 167, "time_elapsed": 772501, "internal_node_id": "0.0-122.0"}}, {"uniqueid": "MTK1148:3Z7VU45IPZO1PECK9BGWGZ61PYW1ZJ", "current_trial": 168, "dateTime": 1513204975063, "trialdata": {"rt": -1, "stimulus": "<p id=\"stim\">BLOCKADE</p>", "key_press": -1, "type": "PRES_VIS", "word": "blockade", "wordID": 136, "conditions": [12, 800, "v", 12000], "trial": 4, "serialpos": 11, "trial_type": "single-stim", "trial_index": 168, "time_elapsed": 774310, "internal_node_id": "0.0-123.0"}}, {"uniqueid": "MTK1148:3Z7VU45IPZO1PECK9BGWGZ61PYW1ZJ", "current_trial": 169, "dateTime": 1513204977338, "trialdata": {"rt": -1, "stimulus": "", "key_press": -1, "type": "PRE_RECALL_DELAY", "trial_type": "single-stim", "trial_index": 169, "time_elapsed": 776584, "internal_node_id": "0.0-124.0-0.0"}}, {"uniqueid": "MTK1148:3Z7VU45IPZO1PECK9BGWGZ61PYW1ZJ", "current_trial": 170, "dateTime": 1513204977848, "trialdata": {"rt": -1000, "stimulus": "/static/audio/400Hz.wav", "key_press": -1, "type": "PRE_RECALL_ALERT", "trial_type": "single-audio", "trial_index": 170, "time_elapsed": 777095, "internal_node_id": "0.0-125.0"}}, {"uniqueid": "MTK1148:3Z7VU45IPZO1PECK9BGWGZ61PYW1ZJ", "current_trial": 171, "dateTime": 1513205037882, "trialdata": {"rt": [3807, 5973, 15723, 18221, 25534], "recwords": ["blockade", "guard", "omelet", "citrus", "cattle"], "type": "FREE_RECALL", "conditions": [12, 800, "v", 12000], "trial": 4, "trial_type": "free-recall", "trial_index": 171, "time_elapsed": 837098, "internal_node_id": "0.0-126.0-0.0"}}, {"uniqueid": "MTK1148:3Z7VU45IPZO1PECK9BGWGZ61PYW1ZJ", "current_trial": 172, "dateTime": 1513205046549, "trialdata": {"rt": 6665, "key_press": 13, "type": "INSTRUCTIONS", "trial_type": "text", "trial_index": 172, "time_elapsed": 845796, "internal_node_id": "0.0-127.0"}}, {"uniqueid": "MTK1148:3Z7VU45IPZO1PECK9BGWGZ61PYW1ZJ", "current_trial": 173, "dateTime": 1513205060556, "trialdata": {"rt": [2522, 4598, 6091, 7929, 9841], "responses": ["15", "18", "7", "13", "16"], "num1": [6, 7, 5, 9, 9, 5], "num2": [1, 9, 1, 1, 1, 9], "num3": [8, 2, 1, 3, 6, 2], "type": "DISTRACTOR", "conditions": [24, 1600, "a", 12000], "trial": 5, "trial_type": "math-distractor", "trial_index": 173, "time_elapsed": 859802, "internal_node_id": "0.0-128.0"}}, {"uniqueid": "MTK1148:3Z7VU45IPZO1PECK9BGWGZ61PYW1ZJ", "current_trial": 174, "dateTime": 1513205063558, "trialdata": {"rt": -1, "stimulus": "<p id=\"stim\">10</p>", "key_press": -1, "trial_type": "single-stim", "trial_index": 174, "time_elapsed": 862805, "internal_node_id": "0.0-129.0-0.0"}}, {"uniqueid": "MTK1148:3Z7VU45IPZO1PECK9BGWGZ61PYW1ZJ", "current_trial": 175, "dateTime": 1513205064560, "trialdata": {"rt": -1, "stimulus": "<p id=\"stim\">9</p>", "key_press": -1, "trial_type": "single-stim", "trial_index": 175, "time_elapsed": 863807, "internal_node_id": "0.0-129.0-1.0"}}, {"uniqueid": "MTK1148:3Z7VU45IPZO1PECK9BGWGZ61PYW1ZJ", "current_trial": 176, "dateTime": 1513205065564, "trialdata": {"rt": -1, "stimulus": "<p id=\"stim\">8</p>", "key_press": -1, "trial_type": "single-stim", "trial_index": 176, "time_elapsed": 864810, "internal_node_id": "0.0-129.0-2.0"}}, {"uniqueid": "MTK1148:3Z7VU45IPZO1PECK9BGWGZ61PYW1ZJ", "current_trial": 177, "dateTime": 1513205066568, "trialdata": {"rt": -1, "stimulus": "<p id=\"stim\">7</p>", "key_press": -1, "trial_type": "single-stim", "trial_index": 177, "time_elapsed": 865814, "internal_node_id": "0.0-129.0-3.0"}}, {"uniqueid": "MTK1148:3Z7VU45IPZO1PECK9BGWGZ61PYW1ZJ", "current_trial": 178, "dateTime": 1513205067571, "trialdata": {"rt": -1, "stimulus": "<p id=\"stim\">6</p>", "key_press": -1, "trial_type": "single-stim", "trial_index": 178, "time_elapsed": 866817, "internal_node_id": "0.0-129.0-4.0"}}, {"uniqueid": "MTK1148:3Z7VU45IPZO1PECK9BGWGZ61PYW1ZJ", "current_trial": 179, "dateTime": 1513205068573, "trialdata": {"rt": -1, "stimulus": "<p id=\"stim\">5</p>", "key_press": -1, "trial_type": "single-stim", "trial_index": 179, "time_elapsed": 867820, "internal_node_id": "0.0-129.0-5.0"}}, {"uniqueid": "MTK1148:3Z7VU45IPZO1PECK9BGWGZ61PYW1ZJ", "current_trial": 180, "dateTime": 1513205069575, "trialdata": {"rt": -1, "stimulus": "<p id=\"stim\">4</p>", "key_press": -1, "trial_type": "single-stim", "trial_index": 180, "time_elapsed": 868821, "internal_node_id": "0.0-129.0-6.0"}}, {"uniqueid": "MTK1148:3Z7VU45IPZO1PECK9BGWGZ61PYW1ZJ", "current_trial": 181, "dateTime": 1513205070577, "trialdata": {"rt": -1, "stimulus": "<p id=\"stim\">3</p>", "key_press": -1, "trial_type": "single-stim", "trial_index": 181, "time_elapsed": 869824, "internal_node_id": "0.0-129.0-7.0"}}, {"uniqueid": "MTK1148:3Z7VU45IPZO1PECK9BGWGZ61PYW1ZJ", "current_trial": 182, "dateTime": 1513205071579, "trialdata": {"rt": -1, "stimulus": "<p id=\"stim\">2</p>", "key_press": -1, "trial_type": "single-stim", "trial_index": 182, "time_elapsed": 870826, "internal_node_id": "0.0-129.0-8.0"}}, {"uniqueid": "MTK1148:3Z7VU45IPZO1PECK9BGWGZ61PYW1ZJ", "current_trial": 183, "dateTime": 1513205072581, "trialdata": {"rt": -1, "stimulus": "<p id=\"stim\">1</p>", "key_press": -1, "trial_type": "single-stim", "trial_index": 183, "time_elapsed": 871828, "internal_node_id": "0.0-129.0-9.0"}}, {"uniqueid": "MTK1148:3Z7VU45IPZO1PECK9BGWGZ61PYW1ZJ", "current_trial": 184, "dateTime": 1513205074083, "trialdata": {"rt": -1, "stimulus": "<p id=\"stim\">+</p>", "key_press": -1, "type": "FIXATION", "trial_type": "single-stim", "trial_index": 184, "time_elapsed": 873329, "internal_node_id": "0.0-130.0-0.0"}}, {"uniqueid": "MTK1148:3Z7VU45IPZO1PECK9BGWGZ61PYW1ZJ", "current_trial": 185, "dateTime": 1513205076715, "trialdata": {"rt": -1000, "stimulus": "/static/audio/wordpool/TROUT.wav", "key_press": -1, "type": "PRES_AUD", "word": "trout", "wordID": 1510, "conditions": [24, 1600, "a", 12000], "trial": 5, "serialpos": 0, "trial_type": "single-audio", "trial_index": 185, "time_elapsed": 875962, "internal_node_id": "0.0-131.0"}}, {"uniqueid": "MTK1148:3Z7VU45IPZO1PECK9BGWGZ61PYW1ZJ", "current_trial": 186, "dateTime": 1513205079184, "trialdata": {"rt": -1000, "stimulus": "/static/audio/wordpool/BLENDER.wav", "key_press": -1, "type": "PRES_AUD", "word": "blender", "wordID": 135, "conditions": [24, 1600, "a", 12000], "trial": 5, "serialpos": 1, "trial_type": "single-audio", "trial_index": 186, "time_elapsed": 878431, "internal_node_id": "0.0-132.0"}}, {"uniqueid": "MTK1148:3Z7VU45IPZO1PECK9BGWGZ61PYW1ZJ", "current_trial": 187, "dateTime": 1513205081970, "trialdata": {"rt": -1000, "stimulus": "/static/audio/wordpool/CRAYON.wav", "key_press": -1, "type": "PRES_AUD", "word": "crayon", "wordID": 400, "conditions": [24, 1600, "a", 12000], "trial": 5, "serialpos": 2, "trial_type": "single-audio", "trial_index": 187, "time_elapsed": 881217, "internal_node_id": "0.0-133.0"}}, {"uniqueid": "MTK1148:3Z7VU45IPZO1PECK9BGWGZ61PYW1ZJ", "current_trial": 188, "dateTime": 1513205084600, "trialdata": {"rt": -1000, "stimulus": "/static/audio/wordpool/GUITAR.wav", "key_press": -1, "type": "PRES_AUD", "word": "guitar", "wordID": 669, "conditions": [24, 1600, "a", 12000], "trial": 5, "serialpos": 3, "trial_type": "single-audio", "trial_index": 188, "time_elapsed": 883847, "internal_node_id": "0.0-134.0"}}, {"uniqueid": "MTK1148:3Z7VU45IPZO1PECK9BGWGZ61PYW1ZJ", "current_trial": 189, "dateTime": 1513205087319, "trialdata": {"rt": -1000, "stimulus": "/static/audio/wordpool/APRON.wav", "key_press": -1, "type": "PRES_AUD", "word": "apron", "wordID": 34, "conditions": [24, 1600, "a", 12000], "trial": 5, "serialpos": 4, "trial_type": "single-audio", "trial_index": 189, "time_elapsed": 886566, "internal_node_id": "0.0-135.0"}}, {"uniqueid": "MTK1148:3Z7VU45IPZO1PECK9BGWGZ61PYW1ZJ", "current_trial": 190, "dateTime": 1513205090086, "trialdata": {"rt": -1000, "stimulus": "/static/audio/wordpool/WOMAN.wav", "key_press": -1, "type": "PRES_AUD", "word": "woman", "wordID": 1619, "conditions": [24, 1600, "a", 12000], "trial": 5, "serialpos": 5, "trial_type": "single-audio", "trial_index": 190, "time_elapsed": 889333, "internal_node_id": "0.0-136.0"}}, {"uniqueid": "MTK1148:3Z7VU45IPZO1PECK9BGWGZ61PYW1ZJ", "current_trial": 191, "dateTime": 1513205092505, "trialdata": {"rt": -1000, "stimulus": "/static/audio/wordpool/TROMBONE.wav", "key_press": -1, "type": "PRES_AUD", "word": "trombone", "wordID": 1507, "conditions": [24, 1600, "a", 12000], "trial": 5, "serialpos": 6, "trial_type": "single-audio", "trial_index": 191, "time_elapsed": 891752, "internal_node_id": "0.0-137.0"}}, {"uniqueid": "MTK1148:3Z7VU45IPZO1PECK9BGWGZ61PYW1ZJ", "current_trial": 192, "dateTime": 1513205095287, "trialdata": {"rt": -1000, "stimulus": "/static/audio/wordpool/BARREL.wav", "key_press": -1, "type": "PRES_AUD", "word": "barrel", "wordID": 90, "conditions": [24, 1600, "a", 12000], "trial": 5, "serialpos": 7, "trial_type": "single-audio", "trial_index": 192, "time_elapsed": 894534, "internal_node_id": "0.0-138.0"}}, {"uniqueid": "MTK1148:3Z7VU45IPZO1PECK9BGWGZ61PYW1ZJ", "current_trial": 193, "dateTime": 1513205098009, "trialdata": {"rt": -1000, "stimulus": "/static/audio/wordpool/GALLON.wav", "key_press": -1, "type": "PRES_AUD", "word": "gallon", "wordID": 617, "conditions": [24, 1600, "a", 12000], "trial": 5, "serialpos": 8, "trial_type": "single-audio", "trial_index": 193, "time_elapsed": 897255, "internal_node_id": "0.0-139.0"}}, {"uniqueid": "MTK1148:3Z7VU45IPZO1PECK9BGWGZ61PYW1ZJ", "current_trial": 194, "dateTime": 1513205100766, "trialdata": {"rt": -1000, "stimulus": "/static/audio/wordpool/SKILLET.wav", "key_press": -1, "type": "PRES_AUD", "word": "skillet", "wordID": 1316, "conditions": [24, 1600, "a", 12000], "trial": 5, "serialpos": 9, "trial_type": "single-audio", "trial_index": 194, "time_elapsed": 900013, "internal_node_id": "0.0-140.0"}}, {"uniqueid": "MTK1148:3Z7VU45IPZO1PECK9BGWGZ61PYW1ZJ", "current_trial": 195, "dateTime": 1513205103447, "trialdata": {"rt": -1000, "stimulus": "/static/audio/wordpool/FREEZER.wav", "key_press": -1, "type": "PRES_AUD", "word": "freezer", "wordID": 603, "conditions": [24, 1600, "a", 12000], "trial": 5, "serialpos": 10, "trial_type": "single-audio", "trial_index": 195, "time_elapsed": 902694, "internal_node_id": "0.0-141.0"}}, {"uniqueid": "MTK1148:3Z7VU45IPZO1PECK9BGWGZ61PYW1ZJ", "current_trial": 196, "dateTime": 1513205106185, "trialdata": {"rt": -1000, "stimulus": "/static/audio/wordpool/WORLD.wav", "key_press": -1, "type": "PRES_AUD", "word": "world", "wordID": 1621, "conditions": [24, 1600, "a", 12000], "trial": 5, "serialpos": 11, "trial_type": "single-audio", "trial_index": 196, "time_elapsed": 905429, "internal_node_id": "0.0-142.0"}}, {"uniqueid": "MTK1148:3Z7VU45IPZO1PECK9BGWGZ61PYW1ZJ", "current_trial": 197, "dateTime": 1513205108667, "trialdata": {"rt": -1000, "stimulus": "/static/audio/wordpool/POCKET.wav", "key_press": -1, "type": "PRES_AUD", "word": "pocket", "wordID": 1092, "conditions": [24, 1600, "a", 12000], "trial": 5, "serialpos": 12, "trial_type": "single-audio", "trial_index": 197, "time_elapsed": 907914, "internal_node_id": "0.0-143.0"}}, {"uniqueid": "MTK1148:3Z7VU45IPZO1PECK9BGWGZ61PYW1ZJ", "current_trial": 198, "dateTime": 1513205111231, "trialdata": {"rt": -1000, "stimulus": "/static/audio/wordpool/EGYPT.wav", "key_press": -1, "type": "PRES_AUD", "word": "egypt", "wordID": 518, "conditions": [24, 1600, "a", 12000], "trial": 5, "serialpos": 13, "trial_type": "single-audio", "trial_index": 198, "time_elapsed": 910478, "internal_node_id": "0.0-144.0"}}, {"uniqueid": "MTK1148:3Z7VU45IPZO1PECK9BGWGZ61PYW1ZJ", "current_trial": 199, "dateTime": 1513205113992, "trialdata": {"rt": -1000, "stimulus": "/static/audio/wordpool/CARROT.wav", "key_press": -1, "type": "PRES_AUD", "word": "carrot", "wordID": 248, "conditions": [24, 1600, "a", 12000], "trial": 5, "serialpos": 14, "trial_type": "single-audio", "trial_index": 199, "time_elapsed": 913239, "internal_node_id": "0.0-145.0"}}, {"uniqueid": "MTK1148:3Z7VU45IPZO1PECK9BGWGZ61PYW1ZJ", "current_trial": 200, "dateTime": 1513205116560, "trialdata": {"rt": -1000, "stimulus": "/static/audio/wordpool/LIZARD.wav", "key_press": -1, "type": "PRES_AUD", "word": "lizard", "wordID": 833, "conditions": [24, 1600, "a", 12000], "trial": 5, "serialpos": 15, "trial_type": "single-audio", "trial_index": 200, "time_elapsed": 915807, "internal_node_id": "0.0-146.0"}}, {"uniqueid": "MTK1148:3Z7VU45IPZO1PECK9BGWGZ61PYW1ZJ", "current_trial": 201, "dateTime": 1513205119235, "trialdata": {"rt": -1000, "stimulus": "/static/audio/wordpool/GOBLIN.wav", "key_press": -1, "type": "PRES_AUD", "word": "goblin", "wordID": 644, "conditions": [24, 1600, "a", 12000], "trial": 5, "serialpos": 16, "trial_type": "single-audio", "trial_index": 201, "time_elapsed": 918482, "internal_node_id": "0.0-147.0"}}, {"uniqueid": "MTK1148:3Z7VU45IPZO1PECK9BGWGZ61PYW1ZJ", "current_trial": 202, "dateTime": 1513205121817, "trialdata": {"rt": -1000, "stimulus": "/static/audio/wordpool/SCALLOP.wav", "key_press": -1, "type": "PRES_AUD", "word": "scallop", "wordID": 1241, "conditions": [24, 1600, "a", 12000], "trial": 5, "serialpos": 17, "trial_type": "single-audio", "trial_index": 202, "time_elapsed": 921063, "internal_node_id": "0.0-148.0"}}, {"uniqueid": "MTK1148:3Z7VU45IPZO1PECK9BGWGZ61PYW1ZJ", "current_trial": 203, "dateTime": 1513205124447, "trialdata": {"rt": -1000, "stimulus": "/static/audio/wordpool/SEAFOOD.wav", "key_press": -1, "type": "PRES_AUD", "word": "seafood", "wordID": 1259, "conditions": [24, 1600, "a", 12000], "trial": 5, "serialpos": 18, "trial_type": "single-audio", "trial_index": 203, "time_elapsed": 923694, "internal_node_id": "0.0-149.0"}}, {"uniqueid": "MTK1148:3Z7VU45IPZO1PECK9BGWGZ61PYW1ZJ", "current_trial": 204, "dateTime": 1513205126867, "trialdata": {"rt": -1000, "stimulus": "/static/audio/wordpool/ZIPPER.wav", "key_press": -1, "type": "PRES_AUD", "word": "zipper", "wordID": 1635, "conditions": [24, 1600, "a", 12000], "trial": 5, "serialpos": 19, "trial_type": "single-audio", "trial_index": 204, "time_elapsed": 926113, "internal_node_id": "0.0-150.0"}}, {"uniqueid": "MTK1148:3Z7VU45IPZO1PECK9BGWGZ61PYW1ZJ", "current_trial": 205, "dateTime": 1513205129464, "trialdata": {"rt": -1000, "stimulus": "/static/audio/wordpool/DRAGON.wav", "key_press": -1, "type": "PRES_AUD", "word": "dragon", "wordID": 491, "conditions": [24, 1600, "a", 12000], "trial": 5, "serialpos": 20, "trial_type": "single-audio", "trial_index": 205, "time_elapsed": 928710, "internal_node_id": "0.0-151.0"}}, {"uniqueid": "MTK1148:3Z7VU45IPZO1PECK9BGWGZ61PYW1ZJ", "current_trial": 206, "dateTime": 1513205131928, "trialdata": {"rt": -1000, "stimulus": "/static/audio/wordpool/PICTURE.wav", "key_press": -1, "type": "PRES_AUD", "word": "picture", "wordID": 1060, "conditions": [24, 1600, "a", 12000], "trial": 5, "serialpos": 21, "trial_type": "single-audio", "trial_index": 206, "time_elapsed": 931174, "internal_node_id": "0.0-152.0"}}, {"uniqueid": "MTK1148:3Z7VU45IPZO1PECK9BGWGZ61PYW1ZJ", "current_trial": 207, "dateTime": 1513205134482, "trialdata": {"rt": -1000, "stimulus": "/static/audio/wordpool/PARSLEY.wav", "key_press": -1, "type": "PRES_AUD", "word": "parsley", "wordID": 1015, "conditions": [24, 1600, "a", 12000], "trial": 5, "serialpos": 22, "trial_type": "single-audio", "trial_index": 207, "time_elapsed": 933728, "internal_node_id": "0.0-153.0"}}, {"uniqueid": "MTK1148:3Z7VU45IPZO1PECK9BGWGZ61PYW1ZJ", "current_trial": 208, "dateTime": 1513205137271, "trialdata": {"rt": -1000, "stimulus": "/static/audio/wordpool/ISLAND.wav", "key_press": -1, "type": "PRES_AUD", "word": "island", "wordID": 744, "conditions": [24, 1600, "a", 12000], "trial": 5, "serialpos": 23, "trial_type": "single-audio", "trial_index": 208, "time_elapsed": 936518, "internal_node_id": "0.0-154.0"}}, {"uniqueid": "MTK1148:3Z7VU45IPZO1PECK9BGWGZ61PYW1ZJ", "current_trial": 209, "dateTime": 1513205138580, "trialdata": {"rt": -1, "stimulus": "", "key_press": -1, "type": "PRE_RECALL_DELAY", "trial_type": "single-stim", "trial_index": 209, "time_elapsed": 937826, "internal_node_id": "0.0-155.0-0.0"}}, {"uniqueid": "MTK1148:3Z7VU45IPZO1PECK9BGWGZ61PYW1ZJ", "current_trial": 210, "dateTime": 1513205139086, "trialdata": {"rt": -1000, "stimulus": "/static/audio/400Hz.wav", "key_press": -1, "type": "PRE_RECALL_ALERT", "trial_type": "single-audio", "trial_index": 210, "time_elapsed": 938332, "internal_node_id": "0.0-156.0"}}, {"uniqueid": "MTK1148:3Z7VU45IPZO1PECK9BGWGZ61PYW1ZJ", "current_trial": 211, "dateTime": 1513205199098, "trialdata": {"rt": [2531, 7243, 11339, 13236, 17044], "recwords": ["island", "parsley", "dragon", "seafood", "picture"], "type": "FREE_RECALL", "conditions": [24, 1600, "a", 12000], "trial": 5, "trial_type": "free-recall", "trial_index": 211, "time_elapsed": 998339, "internal_node_id": "0.0-157.0-0.0"}}, {"uniqueid": "MTK1148:3Z7VU45IPZO1PECK9BGWGZ61PYW1ZJ", "current_trial": 212, "dateTime": 1513205205242, "trialdata": {"rt": 4141, "key_press": 13, "type": "INSTRUCTIONS", "trial_type": "text", "trial_index": 212, "time_elapsed": 1004489, "internal_node_id": "0.0-158.0"}}, {"uniqueid": "MTK1148:3Z7VU45IPZO1PECK9BGWGZ61PYW1ZJ", "current_trial": 213, "dateTime": 1513205219248, "trialdata": {"rt": [3130, 5872, 8257, 10517], "responses": ["16", "14", "15", "11"], "num1": [6, 7, 9, 2, 4], "num2": [7, 4, 3, 6, 4], "num3": [3, 3, 3, 3, 9], "type": "DISTRACTOR", "conditions": [24, 800, "a", 12000], "trial": 6, "trial_type": "math-distractor", "trial_index": 213, "time_elapsed": 1018495, "internal_node_id": "0.0-159.0"}}, {"uniqueid": "MTK1148:3Z7VU45IPZO1PECK9BGWGZ61PYW1ZJ", "current_trial": 214, "dateTime": 1513205222250, "trialdata": {"rt": -1, "stimulus": "<p id=\"stim\">10</p>", "key_press": -1, "trial_type": "single-stim", "trial_index": 214, "time_elapsed": 1021496, "internal_node_id": "0.0-160.0-0.0"}}, {"uniqueid": "MTK1148:3Z7VU45IPZO1PECK9BGWGZ61PYW1ZJ", "current_trial": 215, "dateTime": 1513205223252, "trialdata": {"rt": -1, "stimulus": "<p id=\"stim\">9</p>", "key_press": -1, "trial_type": "single-stim", "trial_index": 215, "time_elapsed": 1022498, "internal_node_id": "0.0-160.0-1.0"}}, {"uniqueid": "MTK1148:3Z7VU45IPZO1PECK9BGWGZ61PYW1ZJ", "current_trial": 216, "dateTime": 1513205224254, "trialdata": {"rt": -1, "stimulus": "<p id=\"stim\">8</p>", "key_press": -1, "trial_type": "single-stim", "trial_index": 216, "time_elapsed": 1023500, "internal_node_id": "0.0-160.0-2.0"}}, {"uniqueid": "MTK1148:3Z7VU45IPZO1PECK9BGWGZ61PYW1ZJ", "current_trial": 217, "dateTime": 1513205225256, "trialdata": {"rt": -1, "stimulus": "<p id=\"stim\">7</p>", "key_press": -1, "trial_type": "single-stim", "trial_index": 217, "time_elapsed": 1024502, "internal_node_id": "0.0-160.0-3.0"}}, {"uniqueid": "MTK1148:3Z7VU45IPZO1PECK9BGWGZ61PYW1ZJ", "current_trial": 218, "dateTime": 1513205226259, "trialdata": {"rt": -1, "stimulus": "<p id=\"stim\">6</p>", "key_press": -1, "trial_type": "single-stim", "trial_index": 218, "time_elapsed": 1025505, "internal_node_id": "0.0-160.0-4.0"}}, {"uniqueid": "MTK1148:3Z7VU45IPZO1PECK9BGWGZ61PYW1ZJ", "current_trial": 219, "dateTime": 1513205227261, "trialdata": {"rt": -1, "stimulus": "<p id=\"stim\">5</p>", "key_press": -1, "trial_type": "single-stim", "trial_index": 219, "time_elapsed": 1026507, "internal_node_id": "0.0-160.0-5.0"}}, {"uniqueid": "MTK1148:3Z7VU45IPZO1PECK9BGWGZ61PYW1ZJ", "current_trial": 220, "dateTime": 1513205228263, "trialdata": {"rt": -1, "stimulus": "<p id=\"stim\">4</p>", "key_press": -1, "trial_type": "single-stim", "trial_index": 220, "time_elapsed": 1027509, "internal_node_id": "0.0-160.0-6.0"}}, {"uniqueid": "MTK1148:3Z7VU45IPZO1PECK9BGWGZ61PYW1ZJ", "current_trial": 221, "dateTime": 1513205229266, "trialdata": {"rt": -1, "stimulus": "<p id=\"stim\">3</p>", "key_press": -1, "trial_type": "single-stim", "trial_index": 221, "time_elapsed": 1028513, "internal_node_id": "0.0-160.0-7.0"}}, {"uniqueid": "MTK1148:3Z7VU45IPZO1PECK9BGWGZ61PYW1ZJ", "current_trial": 222, "dateTime": 1513205230274, "trialdata": {"rt": -1, "stimulus": "<p id=\"stim\">2</p>", "key_press": -1, "trial_type": "single-stim", "trial_index": 222, "time_elapsed": 1029520, "internal_node_id": "0.0-160.0-8.0"}}, {"uniqueid": "MTK1148:3Z7VU45IPZO1PECK9BGWGZ61PYW1ZJ", "current_trial": 223, "dateTime": 1513205231276, "trialdata": {"rt": -1, "stimulus": "<p id=\"stim\">1</p>", "key_press": -1, "trial_type": "single-stim", "trial_index": 223, "time_elapsed": 1030523, "internal_node_id": "0.0-160.0-9.0"}}, {"uniqueid": "MTK1148:3Z7VU45IPZO1PECK9BGWGZ61PYW1ZJ", "current_trial": 224, "dateTime": 1513205232779, "trialdata": {"rt": -1, "stimulus": "<p id=\"stim\">+</p>", "key_press": -1, "type": "FIXATION", "trial_type": "single-stim", "trial_index": 224, "time_elapsed": 1032025, "internal_node_id": "0.0-161.0-0.0"}}, {"uniqueid": "MTK1148:3Z7VU45IPZO1PECK9BGWGZ61PYW1ZJ", "current_trial": 225, "dateTime": 1513205234677, "trialdata": {"rt": -1000, "stimulus": "/static/audio/wordpool/LONDON.wav", "key_press": -1, "type": "PRES_AUD", "word": "london", "wordID": 842, "conditions": [24, 800, "a", 12000], "trial": 6, "serialpos": 0, "trial_type": "single-audio", "trial_index": 225, "time_elapsed": 1033923, "internal_node_id": "0.0-162.0"}}, {"uniqueid": "MTK1148:3Z7VU45IPZO1PECK9BGWGZ61PYW1ZJ", "current_trial": 226, "dateTime": 1513205236544, "trialdata": {"rt": -1000, "stimulus": "/static/audio/wordpool/FUNGUS.wav", "key_press": -1, "type": "PRES_AUD", "word": "fungus", "wordID": 613, "conditions": [24, 800, "a", 12000], "trial": 6, "serialpos": 1, "trial_type": "single-audio", "trial_index": 226, "time_elapsed": 1035791, "internal_node_id": "0.0-163.0"}}, {"uniqueid": "MTK1148:3Z7VU45IPZO1PECK9BGWGZ61PYW1ZJ", "current_trial": 227, "dateTime": 1513205238553, "trialdata": {"rt": -1000, "stimulus": "/static/audio/wordpool/STUDENT.wav", "key_press": -1, "type": "PRES_AUD", "word": "student", "wordID": 1394, "conditions": [24, 800, "a", 12000], "trial": 6, "serialpos": 2, "trial_type": "single-audio", "trial_index": 227, "time_elapsed": 1037800, "internal_node_id": "0.0-164.0"}}, {"uniqueid": "MTK1148:3Z7VU45IPZO1PECK9BGWGZ61PYW1ZJ", "current_trial": 228, "dateTime": 1513205240535, "trialdata": {"rt": -1000, "stimulus": "/static/audio/wordpool/DAUGHTER.wav", "key_press": -1, "type": "PRES_AUD", "word": "daughter", "wordID": 441, "conditions": [24, 800, "a", 12000], "trial": 6, "serialpos": 3, "trial_type": "single-audio", "trial_index": 228, "time_elapsed": 1039782, "internal_node_id": "0.0-165.0"}}, {"uniqueid": "MTK1148:3Z7VU45IPZO1PECK9BGWGZ61PYW1ZJ", "current_trial": 229, "dateTime": 1513205242302, "trialdata": {"rt": -1000, "stimulus": "/static/audio/wordpool/CHILD.wav", "key_press": -1, "type": "PRES_AUD", "word": "child", "wordID": 298, "conditions": [24, 800, "a", 12000], "trial": 6, "serialpos": 4, "trial_type": "single-audio", "trial_index": 229, "time_elapsed": 1041548, "internal_node_id": "0.0-166.0"}}, {"uniqueid": "MTK1148:3Z7VU45IPZO1PECK9BGWGZ61PYW1ZJ", "current_trial": 230, "dateTime": 1513205244165, "trialdata": {"rt": -1000, "stimulus": "/static/audio/wordpool/TART.wav", "key_press": -1, "type": "PRES_AUD", "word": "tart", "wordID": 1435, "conditions": [24, 800, "a", 12000], "trial": 6, "serialpos": 5, "trial_type": "single-audio", "trial_index": 230, "time_elapsed": 1043412, "internal_node_id": "0.0-167.0"}}, {"uniqueid": "MTK1148:3Z7VU45IPZO1PECK9BGWGZ61PYW1ZJ", "current_trial": 231, "dateTime": 1513205246075, "trialdata": {"rt": -1000, "stimulus": "/static/audio/wordpool/SHRUB.wav", "key_press": -1, "type": "PRES_AUD", "word": "shrub", "wordID": 1298, "conditions": [24, 800, "a", 12000], "trial": 6, "serialpos": 6, "trial_type": "single-audio", "trial_index": 231, "time_elapsed": 1045322, "internal_node_id": "0.0-168.0"}}, {"uniqueid": "MTK1148:3Z7VU45IPZO1PECK9BGWGZ61PYW1ZJ", "current_trial": 232, "dateTime": 1513205247951, "trialdata": {"rt": -1000, "stimulus": "/static/audio/wordpool/OFFICE.wav", "key_press": -1, "type": "PRES_AUD", "word": "office", "wordID": 971, "conditions": [24, 800, "a", 12000], "trial": 6, "serialpos": 7, "trial_type": "single-audio", "trial_index": 232, "time_elapsed": 1047198, "internal_node_id": "0.0-169.0"}}, {"uniqueid": "MTK1148:3Z7VU45IPZO1PECK9BGWGZ61PYW1ZJ", "current_trial": 233, "dateTime": 1513205249634, "trialdata": {"rt": -1000, "stimulus": "/static/audio/wordpool/FRANCE.wav", "key_press": -1, "type": "PRES_AUD", "word": "france", "wordID": 600, "conditions": [24, 800, "a", 12000], "trial": 6, "serialpos": 8, "trial_type": "single-audio", "trial_index": 233, "time_elapsed": 1048881, "internal_node_id": "0.0-170.0"}}, {"uniqueid": "MTK1148:3Z7VU45IPZO1PECK9BGWGZ61PYW1ZJ", "current_trial": 234, "dateTime": 1513205251321, "trialdata": {"rt": -1000, "stimulus": "/static/audio/wordpool/FRIEND.wav", "key_press": -1, "type": "PRES_AUD", "word": "friend", "wordID": 605, "conditions": [24, 800, "a", 12000], "trial": 6, "serialpos": 9, "trial_type": "single-audio", "trial_index": 234, "time_elapsed": 1050567, "internal_node_id": "0.0-171.0"}}, {"uniqueid": "MTK1148:3Z7VU45IPZO1PECK9BGWGZ61PYW1ZJ", "current_trial": 235, "dateTime": 1513205253025, "trialdata": {"rt": -1000, "stimulus": "/static/audio/wordpool/ARMY.wav", "key_press": -1, "type": "PRES_AUD", "word": "army", "wordID": 38, "conditions": [24, 800, "a", 12000], "trial": 6, "serialpos": 10, "trial_type": "single-audio", "trial_index": 235, "time_elapsed": 1052271, "internal_node_id": "0.0-172.0"}}, {"uniqueid": "MTK1148:3Z7VU45IPZO1PECK9BGWGZ61PYW1ZJ", "current_trial": 236, "dateTime": 1513205254744, "trialdata": {"rt": -1000, "stimulus": "/static/audio/wordpool/PISTON.wav", "key_press": -1, "type": "PRES_AUD", "word": "piston", "wordID": 1075, "conditions": [24, 800, "a", 12000], "trial": 6, "serialpos": 11, "trial_type": "single-audio", "trial_index": 236, "time_elapsed": 1053991, "internal_node_id": "0.0-173.0"}}, {"uniqueid": "MTK1148:3Z7VU45IPZO1PECK9BGWGZ61PYW1ZJ", "current_trial": 237, "dateTime": 1513205256419, "trialdata": {"rt": -1000, "stimulus": "/static/audio/wordpool/BEAVER.wav", "key_press": -1, "type": "PRES_AUD", "word": "beaver", "wordID": 108, "conditions": [24, 800, "a", 12000], "trial": 6, "serialpos": 12, "trial_type": "single-audio", "trial_index": 237, "time_elapsed": 1055666, "internal_node_id": "0.0-174.0"}}, {"uniqueid": "MTK1148:3Z7VU45IPZO1PECK9BGWGZ61PYW1ZJ", "current_trial": 238, "dateTime": 1513205258129, "trialdata": {"rt": -1000, "stimulus": "/static/audio/wordpool/WAITRESS.wav", "key_press": -1, "type": "PRES_AUD", "word": "waitress", "wordID": 1580, "conditions": [24, 800, "a", 12000], "trial": 6, "serialpos": 13, "trial_type": "single-audio", "trial_index": 238, "time_elapsed": 1057376, "internal_node_id": "0.0-175.0"}}, {"uniqueid": "MTK1148:3Z7VU45IPZO1PECK9BGWGZ61PYW1ZJ", "current_trial": 239, "dateTime": 1513205259916, "trialdata": {"rt": -1000, "stimulus": "/static/audio/wordpool/BADGE.wav", "key_press": -1, "type": "PRES_AUD", "word": "badge", "wordID": 67, "conditions": [24, 800, "a", 12000], "trial": 6, "serialpos": 14, "trial_type": "single-audio", "trial_index": 239, "time_elapsed": 1059162, "internal_node_id": "0.0-176.0"}}, {"uniqueid": "MTK1148:3Z7VU45IPZO1PECK9BGWGZ61PYW1ZJ", "current_trial": 240, "dateTime": 1513205261771, "trialdata": {"rt": -1000, "stimulus": "/static/audio/wordpool/DONKEY.wav", "key_press": -1, "type": "PRES_AUD", "word": "donkey", "wordID": 483, "conditions": [24, 800, "a", 12000], "trial": 6, "serialpos": 15, "trial_type": "single-audio", "trial_index": 240, "time_elapsed": 1061018, "internal_node_id": "0.0-177.0"}}, {"uniqueid": "MTK1148:3Z7VU45IPZO1PECK9BGWGZ61PYW1ZJ", "current_trial": 241, "dateTime": 1513205263434, "trialdata": {"rt": -1000, "stimulus": "/static/audio/wordpool/MARSH.wav", "key_press": -1, "type": "PRES_AUD", "word": "marsh", "wordID": 873, "conditions": [24, 800, "a", 12000], "trial": 6, "serialpos": 16, "trial_type": "single-audio", "trial_index": 241, "time_elapsed": 1062681, "internal_node_id": "0.0-178.0"}}, {"uniqueid": "MTK1148:3Z7VU45IPZO1PECK9BGWGZ61PYW1ZJ", "current_trial": 242, "dateTime": 1513205265405, "trialdata": {"rt": -1000, "stimulus": "/static/audio/wordpool/FOREST.wav", "key_press": -1, "type": "PRES_AUD", "word": "forest", "wordID": 592, "conditions": [24, 800, "a", 12000], "trial": 6, "serialpos": 17, "trial_type": "single-audio", "trial_index": 242, "time_elapsed": 1064651, "internal_node_id": "0.0-179.0"}}, {"uniqueid": "MTK1148:3Z7VU45IPZO1PECK9BGWGZ61PYW1ZJ", "current_trial": 243, "dateTime": 1513205267262, "trialdata": {"rt": -1000, "stimulus": "/static/audio/wordpool/STICKER.wav", "key_press": -1, "type": "PRES_AUD", "word": "sticker", "wordID": 1381, "conditions": [24, 800, "a", 12000], "trial": 6, "serialpos": 18, "trial_type": "single-audio", "trial_index": 243, "time_elapsed": 1066509, "internal_node_id": "0.0-180.0"}}, {"uniqueid": "MTK1148:3Z7VU45IPZO1PECK9BGWGZ61PYW1ZJ", "current_trial": 244, "dateTime": 1513205269162, "trialdata": {"rt": -1000, "stimulus": "/static/audio/wordpool/CHIPMUNK.wav", "key_press": -1, "type": "PRES_AUD", "word": "chipmunk", "wordID": 303, "conditions": [24, 800, "a", 12000], "trial": 6, "serialpos": 19, "trial_type": "single-audio", "trial_index": 244, "time_elapsed": 1068409, "internal_node_id": "0.0-181.0"}}, {"uniqueid": "MTK1148:3Z7VU45IPZO1PECK9BGWGZ61PYW1ZJ", "current_trial": 245, "dateTime": 1513205271159, "trialdata": {"rt": -1000, "stimulus": "/static/audio/wordpool/FINGER.wav", "key_press": -1, "type": "PRES_AUD", "word": "finger", "wordID": 566, "conditions": [24, 800, "a", 12000], "trial": 6, "serialpos": 20, "trial_type": "single-audio", "trial_index": 245, "time_elapsed": 1070406, "internal_node_id": "0.0-182.0"}}, {"uniqueid": "MTK1148:3Z7VU45IPZO1PECK9BGWGZ61PYW1ZJ", "current_trial": 246, "dateTime": 1513205273045, "trialdata": {"rt": -1000, "stimulus": "/static/audio/wordpool/FOX.wav", "key_press": -1, "type": "PRES_AUD", "word": "fox", "wordID": 597, "conditions": [24, 800, "a", 12000], "trial": 6, "serialpos": 21, "trial_type": "single-audio", "trial_index": 246, "time_elapsed": 1072291, "internal_node_id": "0.0-183.0"}}, {"uniqueid": "MTK1148:3Z7VU45IPZO1PECK9BGWGZ61PYW1ZJ", "current_trial": 247, "dateTime": 1513205274735, "trialdata": {"rt": -1000, "stimulus": "/static/audio/wordpool/ROBIN.wav", "key_press": -1, "type": "PRES_AUD", "word": "robin", "wordID": 1198, "conditions": [24, 800, "a", 12000], "trial": 6, "serialpos": 22, "trial_type": "single-audio", "trial_index": 247, "time_elapsed": 1073982, "internal_node_id": "0.0-184.0"}}, {"uniqueid": "MTK1148:3Z7VU45IPZO1PECK9BGWGZ61PYW1ZJ", "current_trial": 248, "dateTime": 1513205276724, "trialdata": {"rt": -1000, "stimulus": "/static/audio/wordpool/CROSS.wav", "key_press": -1, "type": "PRES_AUD", "word": "cross", "wordID": 412, "conditions": [24, 800, "a", 12000], "trial": 6, "serialpos": 23, "trial_type": "single-audio", "trial_index": 248, "time_elapsed": 1075971, "internal_node_id": "0.0-185.0"}}, {"uniqueid": "MTK1148:3Z7VU45IPZO1PECK9BGWGZ61PYW1ZJ", "current_trial": 249, "dateTime": 1513205278050, "trialdata": {"rt": -1, "stimulus": "", "key_press": -1, "type": "PRE_RECALL_DELAY", "trial_type": "single-stim", "trial_index": 249, "time_elapsed": 1077297, "internal_node_id": "0.0-186.0-0.0"}}, {"uniqueid": "MTK1148:3Z7VU45IPZO1PECK9BGWGZ61PYW1ZJ", "current_trial": 250, "dateTime": 1513205278561, "trialdata": {"rt": -1000, "stimulus": "/static/audio/400Hz.wav", "key_press": -1, "type": "PRE_RECALL_ALERT", "trial_type": "single-audio", "trial_index": 250, "time_elapsed": 1077807, "internal_node_id": "0.0-187.0"}}, {"uniqueid": "MTK1148:3Z7VU45IPZO1PECK9BGWGZ61PYW1ZJ", "current_trial": 251, "dateTime": 1513205338580, "trialdata": {"rt": [2430, 4649, 6279, 7731], "recwords": ["cross", "robin", "fox", "finger"], "type": "FREE_RECALL", "conditions": [24, 800, "a", 12000], "trial": 6, "trial_type": "free-recall", "trial_index": 251, "time_elapsed": 1137814, "internal_node_id": "0.0-188.0-0.0"}}, {"uniqueid": "MTK1148:3Z7VU45IPZO1PECK9BGWGZ61PYW1ZJ", "current_trial": 252, "dateTime": 1513205347133, "trialdata": {"rt": 6551, "key_press": 13, "type": "INSTRUCTIONS", "trial_type": "text", "trial_index": 252, "time_elapsed": 1146379, "internal_node_id": "0.0-189.0"}}, {"uniqueid": "MTK1148:3Z7VU45IPZO1PECK9BGWGZ61PYW1ZJ", "current_trial": 253, "dateTime": 1513205373139, "trialdata": {"rt": [1727, 5406, 7458, 12271, 16301, 19067, 21316], "responses": ["20", "21", "10", "12", "20", "16", "18"], "num1": [9, 4, 8, 2, 9, 5, 7, 1], "num2": [2, 9, 1, 7, 3, 4, 3, 3], "num3": [9, 8, 1, 3, 8, 7, 8, 6], "type": "DISTRACTOR", "conditions": [24, 1600, "a", 24000], "trial": 7, "trial_type": "math-distractor", "trial_index": 253, "time_elapsed": 1172386, "internal_node_id": "0.0-190.0"}}, {"uniqueid": "MTK1148:3Z7VU45IPZO1PECK9BGWGZ61PYW1ZJ", "current_trial": 254, "dateTime": 1513205376142, "trialdata": {"rt": -1, "stimulus": "<p id=\"stim\">10</p>", "key_press": -1, "trial_type": "single-stim", "trial_index": 254, "time_elapsed": 1175388, "internal_node_id": "0.0-191.0-0.0"}}, {"uniqueid": "MTK1148:3Z7VU45IPZO1PECK9BGWGZ61PYW1ZJ", "current_trial": 255, "dateTime": 1513205377145, "trialdata": {"rt": -1, "stimulus": "<p id=\"stim\">9</p>", "key_press": -1, "trial_type": "single-stim", "trial_index": 255, "time_elapsed": 1176391, "internal_node_id": "0.0-191.0-1.0"}}, {"uniqueid": "MTK1148:3Z7VU45IPZO1PECK9BGWGZ61PYW1ZJ", "current_trial": 256, "dateTime": 1513205378147, "trialdata": {"rt": -1, "stimulus": "<p id=\"stim\">8</p>", "key_press": -1, "trial_type": "single-stim", "trial_index": 256, "time_elapsed": 1177394, "internal_node_id": "0.0-191.0-2.0"}}, {"uniqueid": "MTK1148:3Z7VU45IPZO1PECK9BGWGZ61PYW1ZJ", "current_trial": 257, "dateTime": 1513205379149, "trialdata": {"rt": -1, "stimulus": "<p id=\"stim\">7</p>", "key_press": -1, "trial_type": "single-stim", "trial_index": 257, "time_elapsed": 1178396, "internal_node_id": "0.0-191.0-3.0"}}, {"uniqueid": "MTK1148:3Z7VU45IPZO1PECK9BGWGZ61PYW1ZJ", "current_trial": 258, "dateTime": 1513205380151, "trialdata": {"rt": -1, "stimulus": "<p id=\"stim\">6</p>", "key_press": -1, "trial_type": "single-stim", "trial_index": 258, "time_elapsed": 1179397, "internal_node_id": "0.0-191.0-4.0"}}, {"uniqueid": "MTK1148:3Z7VU45IPZO1PECK9BGWGZ61PYW1ZJ", "current_trial": 259, "dateTime": 1513205381153, "trialdata": {"rt": -1, "stimulus": "<p id=\"stim\">5</p>", "key_press": -1, "trial_type": "single-stim", "trial_index": 259, "time_elapsed": 1180399, "internal_node_id": "0.0-191.0-5.0"}}, {"uniqueid": "MTK1148:3Z7VU45IPZO1PECK9BGWGZ61PYW1ZJ", "current_trial": 260, "dateTime": 1513205382156, "trialdata": {"rt": -1, "stimulus": "<p id=\"stim\">4</p>", "key_press": -1, "trial_type": "single-stim", "trial_index": 260, "time_elapsed": 1181402, "internal_node_id": "0.0-191.0-6.0"}}, {"uniqueid": "MTK1148:3Z7VU45IPZO1PECK9BGWGZ61PYW1ZJ", "current_trial": 261, "dateTime": 1513205383159, "trialdata": {"rt": -1, "stimulus": "<p id=\"stim\">3</p>", "key_press": -1, "trial_type": "single-stim", "trial_index": 261, "time_elapsed": 1182405, "internal_node_id": "0.0-191.0-7.0"}}, {"uniqueid": "MTK1148:3Z7VU45IPZO1PECK9BGWGZ61PYW1ZJ", "current_trial": 262, "dateTime": 1513205384161, "trialdata": {"rt": -1, "stimulus": "<p id=\"stim\">2</p>", "key_press": -1, "trial_type": "single-stim", "trial_index": 262, "time_elapsed": 1183407, "internal_node_id": "0.0-191.0-8.0"}}, {"uniqueid": "MTK1148:3Z7VU45IPZO1PECK9BGWGZ61PYW1ZJ", "current_trial": 263, "dateTime": 1513205385163, "trialdata": {"rt": -1, "stimulus": "<p id=\"stim\">1</p>", "key_press": -1, "trial_type": "single-stim", "trial_index": 263, "time_elapsed": 1184410, "internal_node_id": "0.0-191.0-9.0"}}, {"uniqueid": "MTK1148:3Z7VU45IPZO1PECK9BGWGZ61PYW1ZJ", "current_trial": 264, "dateTime": 1513205386665, "trialdata": {"rt": -1, "stimulus": "<p id=\"stim\">+</p>", "key_press": -1, "type": "FIXATION", "trial_type": "single-stim", "trial_index": 264, "time_elapsed": 1185911, "internal_node_id": "0.0-192.0-0.0"}}, {"uniqueid": "MTK1148:3Z7VU45IPZO1PECK9BGWGZ61PYW1ZJ", "current_trial": 265, "dateTime": 1513205389191, "trialdata": {"rt": -1000, "stimulus": "/static/audio/wordpool/ATOM.wav", "key_press": -1, "type": "PRES_AUD", "word": "atom", "wordID": 54, "conditions": [24, 1600, "a", 24000], "trial": 7, "serialpos": 0, "trial_type": "single-audio", "trial_index": 265, "time_elapsed": 1188437, "internal_node_id": "0.0-193.0"}}, {"uniqueid": "MTK1148:3Z7VU45IPZO1PECK9BGWGZ61PYW1ZJ", "current_trial": 266, "dateTime": 1513205391670, "trialdata": {"rt": -1000, "stimulus": "/static/audio/wordpool/HERO.wav", "key_press": -1, "type": "PRES_AUD", "word": "hero", "wordID": 705, "conditions": [24, 1600, "a", 24000], "trial": 7, "serialpos": 1, "trial_type": "single-audio", "trial_index": 266, "time_elapsed": 1190917, "internal_node_id": "0.0-194.0"}}, {"uniqueid": "MTK1148:3Z7VU45IPZO1PECK9BGWGZ61PYW1ZJ", "current_trial": 267, "dateTime": 1513205394203, "trialdata": {"rt": -1000, "stimulus": "/static/audio/wordpool/MACHINE.wav", "key_press": -1, "type": "PRES_AUD", "word": "machine", "wordID": 851, "conditions": [24, 1600, "a", 24000], "trial": 7, "serialpos": 2, "trial_type": "single-audio", "trial_index": 267, "time_elapsed": 1193450, "internal_node_id": "0.0-195.0"}}, {"uniqueid": "MTK1148:3Z7VU45IPZO1PECK9BGWGZ61PYW1ZJ", "current_trial": 268, "dateTime": 1513205396792, "trialdata": {"rt": -1000, "stimulus": "/static/audio/wordpool/SCARF.wav", "key_press": -1, "type": "PRES_AUD", "word": "scarf", "wordID": 1245, "conditions": [24, 1600, "a", 24000], "trial": 7, "serialpos": 3, "trial_type": "single-audio", "trial_index": 268, "time_elapsed": 1196038, "internal_node_id": "0.0-196.0"}}, {"uniqueid": "MTK1148:3Z7VU45IPZO1PECK9BGWGZ61PYW1ZJ", "current_trial": 269, "dateTime": 1513205399543, "trialdata": {"rt": -1000, "stimulus": "/static/audio/wordpool/SANDWICH.wav", "key_press": -1, "type": "PRES_AUD", "word": "sandwich", "wordID": 1231, "conditions": [24, 1600, "a", 24000], "trial": 7, "serialpos": 4, "trial_type": "single-audio", "trial_index": 269, "time_elapsed": 1198790, "internal_node_id": "0.0-197.0"}}, {"uniqueid": "MTK1148:3Z7VU45IPZO1PECK9BGWGZ61PYW1ZJ", "current_trial": 270, "dateTime": 1513205402023, "trialdata": {"rt": -1000, "stimulus": "/static/audio/wordpool/BACON.wav", "key_press": -1, "type": "PRES_AUD", "word": "bacon", "wordID": 66, "conditions": [24, 1600, "a", 24000], "trial": 7, "serialpos": 5, "trial_type": "single-audio", "trial_index": 270, "time_elapsed": 1201270, "internal_node_id": "0.0-198.0"}}, {"uniqueid": "MTK1148:3Z7VU45IPZO1PECK9BGWGZ61PYW1ZJ", "current_trial": 271, "dateTime": 1513205404440, "trialdata": {"rt": -1000, "stimulus": "/static/audio/wordpool/HUSBAND.wav", "key_press": -1, "type": "PRES_AUD", "word": "husband", "wordID": 727, "conditions": [24, 1600, "a", 24000], "trial": 7, "serialpos": 6, "trial_type": "single-audio", "trial_index": 271, "time_elapsed": 1203687, "internal_node_i