{"condition": 0, "counterbalance": 2263, "assignmentId": "33CID571050DUS9VHE36WDA08A23LW", "workerId": "MTK1165", "hitId": "3UL5XDRDNCQJ6GEMB6DTHLQUNSM85F", "currenttrial": 626, "bonus": 0, "data": [{"uniqueid": "MTK1165:33CID571050DUS9VHE36WDA08A23LW", "current_trial": 0, "dateTime": 1513264634850, "trialdata": {"rt": 2340, "key_press": 13, "type": "INSTRUCTIONS", "trial_type": "text", "trial_index": 0, "time_elapsed": 2340, "internal_node_id": "0.0-0.0"}}, {"uniqueid": "MTK1165:33CID571050DUS9VHE36WDA08A23LW", "current_trial": 1, "dateTime": 1513264639942, "trialdata": {"rt": 5092, "key_press": 175, "type": "INSTRUCTIONS", "trial_type": "text", "trial_index": 1, "time_elapsed": 7432, "internal_node_id": "0.0-1.0"}}, {"uniqueid": "MTK1165:33CID571050DUS9VHE36WDA08A23LW", "current_trial": 2, "dateTime": 1513264649202, "trialdata": {"rt": [9250], "responses": ["ocean"], "type": "AUDIO_TEST", "trial_type": "audio-test", "trial_index": 2, "time_elapsed": 16692, "internal_node_id": "0.0-2.0"}}, {"uniqueid": "MTK1165:33CID571050DUS9VHE36WDA08A23LW", "current_trial": 3, "dateTime": 1513264656923, "trialdata": {"rt": [7708], "responses": ["crystal"], "type": "AUDIO_TEST", "trial_type": "audio-test", "trial_index": 3, "time_elapsed": 24413, "internal_node_id": "0.0-3.0"}}, {"uniqueid": "MTK1165:33CID571050DUS9VHE36WDA08A23LW", "current_trial": 4, "dateTime": 1513264661827, "trialdata": {"rt": [4893], "responses": ["spice"], "type": "AUDIO_TEST", "trial_type": "audio-test", "trial_index": 4, "time_elapsed": 29317, "internal_node_id": "0.0-4.0"}}, {"uniqueid": "MTK1165:33CID571050DUS9VHE36WDA08A23LW", "current_trial": 5, "dateTime": 1513264682663, "trialdata": {"rt": 20079, "responses": "{\"Q0\":\"11\",\"Q1\":\"5\",\"Q2\":\"4\"}", "type": "SLEEP_SURVEY", "trial_type": "survey-text", "trial_index": 5, "time_elapsed": 50153, "internal_node_id": "0.0-5.0"}}, {"uniqueid": "MTK1165:33CID571050DUS9VHE36WDA08A23LW", "current_trial": 6, "dateTime": 1513264753011, "trialdata": {"rt": 69343, "key_press": 13, "type": "INSTRUCTIONS", "trial_type": "text", "trial_index": 6, "time_elapsed": 120501, "internal_node_id": "0.0-6.0"}}, {"uniqueid": "MTK1165:33CID571050DUS9VHE36WDA08A23LW", "current_trial": 7, "dateTime": 1513264773556, "trialdata": {"rt": 20043, "key_press": 13, "type": "INSTRUCTIONS", "trial_type": "text", "trial_index": 7, "time_elapsed": 141046, "internal_node_id": "0.0-7.0"}}, {"uniqueid": "MTK1165:33CID571050DUS9VHE36WDA08A23LW", "current_trial": 8, "dateTime": 1513264792125, "trialdata": {"rt": 18067, "key_press": 13, "type": "INSTRUCTIONS", "trial_type": "text", "trial_index": 8, "time_elapsed": 159615, "internal_node_id": "0.0-8.0"}}, {"uniqueid": "MTK1165:33CID571050DUS9VHE36WDA08A23LW", "current_trial": 9, "dateTime": 1513264811147, "trialdata": {"rt": [5813, 11337, 16464], "responses": ["14", "14", "13"], "num1": [2, 6, 1, 5], "num2": [3, 3, 6, 9], "num3": [9, 5, 6, 1], "type": "DISTRACTOR", "conditions": [18, 1200, "a", 18000], "trial": 0, "trial_type": "math-distractor", "trial_index": 9, "time_elapsed": 178637, "internal_node_id": "0.0-9.0"}}, {"uniqueid": "MTK1165:33CID571050DUS9VHE36WDA08A23LW", "current_trial": 10, "dateTime": 1513264814151, "trialdata": {"rt": -1, "stimulus": "<p id=\"stim\">10</p>", "key_press": -1, "trial_type": "single-stim", "trial_index": 10, "time_elapsed": 181641, "internal_node_id": "0.0-10.0-0.0"}}, {"uniqueid": "MTK1165:33CID571050DUS9VHE36WDA08A23LW", "current_trial": 11, "dateTime": 1513264815152, "trialdata": {"rt": -1, "stimulus": "<p id=\"stim\">9</p>", "key_press": -1, "trial_type": "single-stim", "trial_index": 11, "time_elapsed": 182642, "internal_node_id": "0.0-10.0-1.0"}}, {"uniqueid": "MTK1165:33CID571050DUS9VHE36WDA08A23LW", "current_trial": 12, "dateTime": 1513264816154, "trialdata": {"rt": -1, "stimulus": "<p id=\"stim\">8</p>", "key_press": -1, "trial_type": "single-stim", "trial_index": 12, "time_elapsed": 183644, "internal_node_id": "0.0-10.0-2.0"}}, {"uniqueid": "MTK1165:33CID571050DUS9VHE36WDA08A23LW", "current_trial": 13, "dateTime": 1513264817156, "trialdata": {"rt": -1, "stimulus": "<p id=\"stim\">7</p>", "key_press": -1, "trial_type": "single-stim", "trial_index": 13, "time_elapsed": 184646, "internal_node_id": "0.0-10.0-3.0"}}, {"uniqueid": "MTK1165:33CID571050DUS9VHE36WDA08A23LW", "current_trial": 14, "dateTime": 1513264818158, "trialdata": {"rt": -1, "stimulus": "<p id=\"stim\">6</p>", "key_press": -1, "trial_type": "single-stim", "trial_index": 14, "time_elapsed": 185647, "internal_node_id": "0.0-10.0-4.0"}}, {"uniqueid": "MTK1165:33CID571050DUS9VHE36WDA08A23LW", "current_trial": 15, "dateTime": 1513264819160, "trialdata": {"rt": -1, "stimulus": "<p id=\"stim\">5</p>", "key_press": -1, "trial_type": "single-stim", "trial_index": 15, "time_elapsed": 186650, "internal_node_id": "0.0-10.0-5.0"}}, {"uniqueid": "MTK1165:33CID571050DUS9VHE36WDA08A23LW", "current_trial": 16, "dateTime": 1513264820161, "trialdata": {"rt": -1, "stimulus": "<p id=\"stim\">4</p>", "key_press": -1, "trial_type": "single-stim", "trial_index": 16, "time_elapsed": 187651, "internal_node_id": "0.0-10.0-6.0"}}, {"uniqueid": "MTK1165:33CID571050DUS9VHE36WDA08A23LW", "current_trial": 17, "dateTime": 1513264821163, "trialdata": {"rt": -1, "stimulus": "<p id=\"stim\">3</p>", "key_press": -1, "trial_type": "single-stim", "trial_index": 17, "time_elapsed": 188653, "internal_node_id": "0.0-10.0-7.0"}}, {"uniqueid": "MTK1165:33CID571050DUS9VHE36WDA08A23LW", "current_trial": 18, "dateTime": 1513264822164, "trialdata": {"rt": -1, "stimulus": "<p id=\"stim\">2</p>", "key_press": -1, "trial_type": "single-stim", "trial_index": 18, "time_elapsed": 189654, "internal_node_id": "0.0-10.0-8.0"}}, {"uniqueid": "MTK1165:33CID571050DUS9VHE36WDA08A23LW", "current_trial": 19, "dateTime": 1513264823165, "trialdata": {"rt": -1, "stimulus": "<p id=\"stim\">1</p>", "key_press": -1, "trial_type": "single-stim", "trial_index": 19, "time_elapsed": 190655, "internal_node_id": "0.0-10.0-9.0"}}, {"uniqueid": "MTK1165:33CID571050DUS9VHE36WDA08A23LW", "current_trial": 20, "dateTime": 1513264824666, "trialdata": {"rt": -1, "stimulus": "<p id=\"stim\">+</p>", "key_press": -1, "type": "FIXATION", "trial_type": "single-stim", "trial_index": 20, "time_elapsed": 192156, "internal_node_id": "0.0-11.0-0.0"}}, {"uniqueid": "MTK1165:33CID571050DUS9VHE36WDA08A23LW", "current_trial": 21, "dateTime": 1513264826982, "trialdata": {"rt": -1000, "stimulus": "/static/audio/wordpool/ARM.wav", "key_press": -1, "type": "PRES_AUD", "word": "arm", "wordID": 37, "conditions": [18, 1200, "a", 18000], "trial": 0, "serialpos": 0, "trial_type": "single-audio", "trial_index": 21, "time_elapsed": 194472, "internal_node_id": "0.0-12.0"}}, {"uniqueid": "MTK1165:33CID571050DUS9VHE36WDA08A23LW", "current_trial": 22, "dateTime": 1513264829127, "trialdata": {"rt": -1000, "stimulus": "/static/audio/wordpool/BRANCH.wav", "key_press": -1, "type": "PRES_AUD", "word": "branch", "wordID": 167, "conditions": [18, 1200, "a", 18000], "trial": 0, "serialpos": 1, "trial_type": "single-audio", "trial_index": 22, "time_elapsed": 196617, "internal_node_id": "0.0-13.0"}}, {"uniqueid": "MTK1165:33CID571050DUS9VHE36WDA08A23LW", "current_trial": 23, "dateTime": 1513264831450, "trialdata": {"rt": -1000, "stimulus": "/static/audio/wordpool/CONTRACT.wav", "key_press": -1, "type": "PRES_AUD", "word": "contract", "wordID": 367, "conditions": [18, 1200, "a", 18000], "trial": 0, "serialpos": 2, "trial_type": "single-audio", "trial_index": 23, "time_elapsed": 198940, "internal_node_id": "0.0-14.0"}}, {"uniqueid": "MTK1165:33CID571050DUS9VHE36WDA08A23LW", "current_trial": 24, "dateTime": 1513264833635, "trialdata": {"rt": -1000, "stimulus": "/static/audio/wordpool/SHIRT.wav", "key_press": -1, "type": "PRES_AUD", "word": "shirt", "wordID": 1286, "conditions": [18, 1200, "a", 18000], "trial": 0, "serialpos": 3, "trial_type": "single-audio", "trial_index": 24, "time_elapsed": 201125, "internal_node_id": "0.0-15.0"}}, {"uniqueid": "MTK1165:33CID571050DUS9VHE36WDA08A23LW", "current_trial": 25, "dateTime": 1513264835881, "trialdata": {"rt": -1000, "stimulus": "/static/audio/wordpool/GARLIC.wav", "key_press": -1, "type": "PRES_AUD", "word": "garlic", "wordID": 623, "conditions": [18, 1200, "a", 18000], "trial": 0, "serialpos": 4, "trial_type": "single-audio", "trial_index": 25, "time_elapsed": 203371, "internal_node_id": "0.0-16.0"}}, {"uniqueid": "MTK1165:33CID571050DUS9VHE36WDA08A23LW", "current_trial": 26, "dateTime": 1513264837919, "trialdata": {"rt": -1000, "stimulus": "/static/audio/wordpool/QUAIL.wav", "key_press": -1, "type": "PRES_AUD", "word": "quail", "wordID": 1146, "conditions": [18, 1200, "a", 18000], "trial": 0, "serialpos": 5, "trial_type": "single-audio", "trial_index": 26, "time_elapsed": 205409, "internal_node_id": "0.0-17.0"}}, {"uniqueid": "MTK1165:33CID571050DUS9VHE36WDA08A23LW", "current_trial": 27, "dateTime": 1513264839932, "trialdata": {"rt": -1000, "stimulus": "/static/audio/wordpool/BUTCHER.wav", "key_press": -1, "type": "PRES_AUD", "word": "butcher", "wordID": 202, "conditions": [18, 1200, "a", 18000], "trial": 0, "serialpos": 6, "trial_type": "single-audio", "trial_index": 27, "time_elapsed": 207422, "internal_node_id": "0.0-18.0"}}, {"uniqueid": "MTK1165:33CID571050DUS9VHE36WDA08A23LW", "current_trial": 28, "dateTime": 1513264841996, "trialdata": {"rt": -1000, "stimulus": "/static/audio/wordpool/OZONE.wav", "key_press": -1, "type": "PRES_AUD", "word": "ozone", "wordID": 995, "conditions": [18, 1200, "a", 18000], "trial": 0, "serialpos": 7, "trial_type": "single-audio", "trial_index": 28, "time_elapsed": 209486, "internal_node_id": "0.0-19.0"}}, {"uniqueid": "MTK1165:33CID571050DUS9VHE36WDA08A23LW", "current_trial": 29, "dateTime": 1513264844325, "trialdata": {"rt": -1000, "stimulus": "/static/audio/wordpool/TORTOISE.wav", "key_press": -1, "type": "PRES_AUD", "word": "tortoise", "wordID": 1485, "conditions": [18, 1200, "a", 18000], "trial": 0, "serialpos": 8, "trial_type": "single-audio", "trial_index": 29, "time_elapsed": 211815, "internal_node_id": "0.0-20.0"}}, {"uniqueid": "MTK1165:33CID571050DUS9VHE36WDA08A23LW", "current_trial": 30, "dateTime": 1513264846417, "trialdata": {"rt": -1000, "stimulus": "/static/audio/wordpool/SERVANT.wav", "key_press": -1, "type": "PRES_AUD", "word": "servant", "wordID": 1270, "conditions": [18, 1200, "a", 18000], "trial": 0, "serialpos": 9, "trial_type": "single-audio", "trial_index": 30, "time_elapsed": 213907, "internal_node_id": "0.0-21.0"}}, {"uniqueid": "MTK1165:33CID571050DUS9VHE36WDA08A23LW", "current_trial": 31, "dateTime": 1513264848481, "trialdata": {"rt": -1000, "stimulus": "/static/audio/wordpool/SIBLING.wav", "key_press": -1, "type": "PRES_AUD", "word": "sibling", "wordID": 1300, "conditions": [18, 1200, "a", 18000], "trial": 0, "serialpos": 10, "trial_type": "single-audio", "trial_index": 31, "time_elapsed": 215971, "internal_node_id": "0.0-22.0"}}, {"uniqueid": "MTK1165:33CID571050DUS9VHE36WDA08A23LW", "current_trial": 32, "dateTime": 1513264850678, "trialdata": {"rt": -1000, "stimulus": "/static/audio/wordpool/TWIG.wav", "key_press": -1, "type": "PRES_AUD", "word": "twig", "wordID": 1526, "conditions": [18, 1200, "a", 18000], "trial": 0, "serialpos": 11, "trial_type": "single-audio", "trial_index": 32, "time_elapsed": 218168, "internal_node_id": "0.0-23.0"}}, {"uniqueid": "MTK1165:33CID571050DUS9VHE36WDA08A23LW", "current_trial": 33, "dateTime": 1513264852798, "trialdata": {"rt": -1000, "stimulus": "/static/audio/wordpool/CASHEW.wav", "key_press": -1, "type": "PRES_AUD", "word": "cashew", "wordID": 252, "conditions": [18, 1200, "a", 18000], "trial": 0, "serialpos": 12, "trial_type": "single-audio", "trial_index": 33, "time_elapsed": 220288, "internal_node_id": "0.0-24.0"}}, {"uniqueid": "MTK1165:33CID571050DUS9VHE36WDA08A23LW", "current_trial": 34, "dateTime": 1513264854888, "trialdata": {"rt": -1000, "stimulus": "/static/audio/wordpool/VICTIM.wav", "key_press": -1, "type": "PRES_AUD", "word": "victim", "wordID": 1561, "conditions": [18, 1200, "a", 18000], "trial": 0, "serialpos": 13, "trial_type": "single-audio", "trial_index": 34, "time_elapsed": 222378, "internal_node_id": "0.0-25.0"}}, {"uniqueid": "MTK1165:33CID571050DUS9VHE36WDA08A23LW", "current_trial": 35, "dateTime": 1513264856895, "trialdata": {"rt": -1000, "stimulus": "/static/audio/wordpool/PARROT.wav", "key_press": -1, "type": "PRES_AUD", "word": "parrot", "wordID": 1014, "conditions": [18, 1200, "a", 18000], "trial": 0, "serialpos": 14, "trial_type": "single-audio", "trial_index": 35, "time_elapsed": 224385, "internal_node_id": "0.0-26.0"}}, {"uniqueid": "MTK1165:33CID571050DUS9VHE36WDA08A23LW", "current_trial": 36, "dateTime": 1513264859147, "trialdata": {"rt": -1000, "stimulus": "/static/audio/wordpool/HOOK.wav", "key_press": -1, "type": "PRES_AUD", "word": "hook", "wordID": 714, "conditions": [18, 1200, "a", 18000], "trial": 0, "serialpos": 15, "trial_type": "single-audio", "trial_index": 36, "time_elapsed": 226637, "internal_node_id": "0.0-27.0"}}, {"uniqueid": "MTK1165:33CID571050DUS9VHE36WDA08A23LW", "current_trial": 37, "dateTime": 1513264861302, "trialdata": {"rt": -1000, "stimulus": "/static/audio/wordpool/LAMP.wav", "key_press": -1, "type": "PRES_AUD", "word": "lamp", "wordID": 797, "conditions": [18, 1200, "a", 18000], "trial": 0, "serialpos": 16, "trial_type": "single-audio", "trial_index": 37, "time_elapsed": 228792, "internal_node_id": "0.0-28.0"}}, {"uniqueid": "MTK1165:33CID571050DUS9VHE36WDA08A23LW", "current_trial": 38, "dateTime": 1513264863590, "trialdata": {"rt": -1000, "stimulus": "/static/audio/wordpool/GROUND.wav", "key_press": -1, "type": "PRES_AUD", "word": "ground", "wordID": 665, "conditions": [18, 1200, "a", 18000], "trial": 0, "serialpos": 17, "trial_type": "single-audio", "trial_index": 38, "time_elapsed": 231080, "internal_node_id": "0.0-29.0"}}, {"uniqueid": "MTK1165:33CID571050DUS9VHE36WDA08A23LW", "current_trial": 39, "dateTime": 1513264864832, "trialdata": {"rt": -1, "stimulus": "", "key_press": -1, "type": "PRE_RECALL_DELAY", "trial_type": "single-stim", "trial_index": 39, "time_elapsed": 232322, "internal_node_id": "0.0-30.0-0.0"}}, {"uniqueid": "MTK1165:33CID571050DUS9VHE36WDA08A23LW", "current_trial": 40, "dateTime": 1513264865337, "trialdata": {"rt": -1000, "stimulus": "/static/audio/400Hz.wav", "key_press": -1, "type": "PRE_RECALL_ALERT", "trial_type": "single-audio", "trial_index": 40, "time_elapsed": 232827, "internal_node_id": "0.0-31.0"}}, {"uniqueid": "MTK1165:33CID571050DUS9VHE36WDA08A23LW", "current_trial": 41, "dateTime": 1513264925353, "trialdata": {"rt": [9273, 15561, 21016, 24060, 30823, 36643, 44336, 51653], "recwords": ["ground", "arm", "branch", "shirt", "butcher", "servant", "twig", "parrot"], "type": "FREE_RECALL", "conditions": [18, 1200, "a", 18000], "trial": 0, "trial_type": "free-recall", "trial_index": 41, "time_elapsed": 292837, "internal_node_id": "0.0-32.0-0.0"}}, {"uniqueid": "MTK1165:33CID571050DUS9VHE36WDA08A23LW", "current_trial": 42, "dateTime": 1513264930308, "trialdata": {"rt": 2953, "key_press": 13, "type": "INSTRUCTIONS", "trial_type": "text", "trial_index": 42, "time_elapsed": 297798, "internal_node_id": "0.0-33.0"}}, {"uniqueid": "MTK1165:33CID571050DUS9VHE36WDA08A23LW", "current_trial": 43, "dateTime": 1513264950312, "trialdata": {"rt": [12394, 14856], "responses": ["7", "13"], "num1": [3, 4, 8], "num2": [3, 8, 5], "num3": [1, 1, 1], "type": "DISTRACTOR", "conditions": [18, 1200, "v", 18000], "trial": 1, "trial_type": "math-distractor", "trial_index": 43, "time_elapsed": 317802, "internal_node_id": "0.0-34.0"}}, {"uniqueid": "MTK1165:33CID571050DUS9VHE36WDA08A23LW", "current_trial": 44, "dateTime": 1513264953314, "trialdata": {"rt": -1, "stimulus": "<p id=\"stim\">10</p>", "key_press": -1, "trial_type": "single-stim", "trial_index": 44, "time_elapsed": 320804, "internal_node_id": "0.0-35.0-0.0"}}, {"uniqueid": "MTK1165:33CID571050DUS9VHE36WDA08A23LW", "current_trial": 45, "dateTime": 1513264954315, "trialdata": {"rt": -1, "stimulus": "<p id=\"stim\">9</p>", "key_press": -1, "trial_type": "single-stim", "trial_index": 45, "time_elapsed": 321805, "internal_node_id": "0.0-35.0-1.0"}}, {"uniqueid": "MTK1165:33CID571050DUS9VHE36WDA08A23LW", "current_trial": 46, "dateTime": 1513264955316, "trialdata": {"rt": -1, "stimulus": "<p id=\"stim\">8</p>", "key_press": -1, "trial_type": "single-stim", "trial_index": 46, "time_elapsed": 322806, "internal_node_id": "0.0-35.0-2.0"}}, {"uniqueid": "MTK1165:33CID571050DUS9VHE36WDA08A23LW", "current_trial": 47, "dateTime": 1513264956317, "trialdata": {"rt": -1, "stimulus": "<p id=\"stim\">7</p>", "key_press": -1, "trial_type": "single-stim", "trial_index": 47, "time_elapsed": 323807, "internal_node_id": "0.0-35.0-3.0"}}, {"uniqueid": "MTK1165:33CID571050DUS9VHE36WDA08A23LW", "current_trial": 48, "dateTime": 1513264957318, "trialdata": {"rt": -1, "stimulus": "<p id=\"stim\">6</p>", "key_press": -1, "trial_type": "single-stim", "trial_index": 48, "time_elapsed": 324808, "internal_node_id": "0.0-35.0-4.0"}}, {"uniqueid": "MTK1165:33CID571050DUS9VHE36WDA08A23LW", "current_trial": 49, "dateTime": 1513264958337, "trialdata": {"rt": -1, "stimulus": "<p id=\"stim\">5</p>", "key_press": -1, "trial_type": "single-stim", "trial_index": 49, "time_elapsed": 325827, "internal_node_id": "0.0-35.0-5.0"}}, {"uniqueid": "MTK1165:33CID571050DUS9VHE36WDA08A23LW", "current_trial": 50, "dateTime": 1513264959338, "trialdata": {"rt": -1, "stimulus": "<p id=\"stim\">4</p>", "key_press": -1, "trial_type": "single-stim", "trial_index": 50, "time_elapsed": 326828, "internal_node_id": "0.0-35.0-6.0"}}, {"uniqueid": "MTK1165:33CID571050DUS9VHE36WDA08A23LW", "current_trial": 51, "dateTime": 1513264960339, "trialdata": {"rt": -1, "stimulus": "<p id=\"stim\">3</p>", "key_press": -1, "trial_type": "single-stim", "trial_index": 51, "time_elapsed": 327829, "internal_node_id": "0.0-35.0-7.0"}}, {"uniqueid": "MTK1165:33CID571050DUS9VHE36WDA08A23LW", "current_trial": 52, "dateTime": 1513264961341, "trialdata": {"rt": -1, "stimulus": "<p id=\"stim\">2</p>", "key_press": -1, "trial_type": "single-stim", "trial_index": 52, "time_elapsed": 328831, "internal_node_id": "0.0-35.0-8.0"}}, {"uniqueid": "MTK1165:33CID571050DUS9VHE36WDA08A23LW", "current_trial": 53, "dateTime": 1513264962343, "trialdata": {"rt": -1, "stimulus": "<p id=\"stim\">1</p>", "key_press": -1, "trial_type": "single-stim", "trial_index": 53, "time_elapsed": 329833, "internal_node_id": "0.0-35.0-9.0"}}, {"uniqueid": "MTK1165:33CID571050DUS9VHE36WDA08A23LW", "current_trial": 54, "dateTime": 1513264963845, "trialdata": {"rt": -1, "stimulus": "<p id=\"stim\">+</p>", "key_press": -1, "type": "FIXATION", "trial_type": "single-stim", "trial_index": 54, "time_elapsed": 331335, "internal_node_id": "0.0-36.0-0.0"}}, {"uniqueid": "MTK1165:33CID571050DUS9VHE36WDA08A23LW", "current_trial": 55, "dateTime": 1513264965047, "trialdata": {"rt": -1, "stimulus": "<p id=\"stim\">BUREAU</p>", "key_press": -1, "type": "PRES_VIS", "word": "bureau", "wordID": 198, "conditions": [18, 1200, "v", 18000], "trial": 1, "serialpos": 0, "trial_type": "single-stim", "trial_index": 55, "time_elapsed": 332537, "internal_node_id": "0.0-37.0"}}, {"uniqueid": "MTK1165:33CID571050DUS9VHE36WDA08A23LW", "current_trial": 56, "dateTime": 1513264967105, "trialdata": {"rt": -1, "stimulus": "<p id=\"stim\">FLUTE</p>", "key_press": -1, "type": "PRES_VIS", "word": "flute", "wordID": 584, "conditions": [18, 1200, "v", 18000], "trial": 1, "serialpos": 1, "trial_type": "single-stim", "trial_index": 56, "time_elapsed": 334595, "internal_node_id": "0.0-38.0"}}, {"uniqueid": "MTK1165:33CID571050DUS9VHE36WDA08A23LW", "current_trial": 57, "dateTime": 1513264969299, "trialdata": {"rt": -1, "stimulus": "<p id=\"stim\">JURY</p>", "key_press": -1, "type": "PRES_VIS", "word": "jury", "wordID": 765, "conditions": [18, 1200, "v", 18000], "trial": 1, "serialpos": 2, "trial_type": "single-stim", "trial_index": 57, "time_elapsed": 336789, "internal_node_id": "0.0-39.0"}}, {"uniqueid": "MTK1165:33CID571050DUS9VHE36WDA08A23LW", "current_trial": 58, "dateTime": 1513264971319, "trialdata": {"rt": -1, "stimulus": "<p id=\"stim\">SALMON</p>", "key_press": -1, "type": "PRES_VIS", "word": "salmon", "wordID": 1226, "conditions": [18, 1200, "v", 18000], "trial": 1, "serialpos": 3, "trial_type": "single-stim", "trial_index": 58, "time_elapsed": 338808, "internal_node_id": "0.0-40.0"}}, {"uniqueid": "MTK1165:33CID571050DUS9VHE36WDA08A23LW", "current_trial": 59, "dateTime": 1513264973602, "trialdata": {"rt": -1, "stimulus": "<p id=\"stim\">BISON</p>", "key_press": -1, "type": "PRES_VIS", "word": "bison", "wordID": 130, "conditions": [18, 1200, "v", 18000], "trial": 1, "serialpos": 4, "trial_type": "single-stim", "trial_index": 59, "time_elapsed": 341092, "internal_node_id": "0.0-41.0"}}, {"uniqueid": "MTK1165:33CID571050DUS9VHE36WDA08A23LW", "current_trial": 60, "dateTime": 1513264975609, "trialdata": {"rt": -1, "stimulus": "<p id=\"stim\">JAPAN</p>", "key_press": -1, "type": "PRES_VIS", "word": "japan", "wordID": 748, "conditions": [18, 1200, "v", 18000], "trial": 1, "serialpos": 5, "trial_type": "single-stim", "trial_index": 60, "time_elapsed": 343099, "internal_node_id": "0.0-42.0"}}, {"uniqueid": "MTK1165:33CID571050DUS9VHE36WDA08A23LW", "current_trial": 61, "dateTime": 1513264977818, "trialdata": {"rt": -1, "stimulus": "<p id=\"stim\">WAGON</p>", "key_press": -1, "type": "PRES_VIS", "word": "wagon", "wordID": 1577, "conditions": [18, 1200, "v", 18000], "trial": 1, "serialpos": 6, "trial_type": "single-stim", "trial_index": 61, "time_elapsed": 345307, "internal_node_id": "0.0-43.0"}}, {"uniqueid": "MTK1165:33CID571050DUS9VHE36WDA08A23LW", "current_trial": 62, "dateTime": 1513264980037, "trialdata": {"rt": -1, "stimulus": "<p id=\"stim\">LACE</p>", "key_press": -1, "type": "PRES_VIS", "word": "lace", "wordID": 791, "conditions": [18, 1200, "v", 18000], "trial": 1, "serialpos": 7, "trial_type": "single-stim", "trial_index": 62, "time_elapsed": 347527, "internal_node_id": "0.0-44.0"}}, {"uniqueid": "MTK1165:33CID571050DUS9VHE36WDA08A23LW", "current_trial": 63, "dateTime": 1513264982070, "trialdata": {"rt": -1, "stimulus": "<p id=\"stim\">DASHBOARD</p>", "key_press": -1, "type": "PRES_VIS", "word": "dashboard", "wordID": 440, "conditions": [18, 1200, "v", 18000], "trial": 1, "serialpos": 8, "trial_type": "single-stim", "trial_index": 63, "time_elapsed": 349560, "internal_node_id": "0.0-45.0"}}, {"uniqueid": "MTK1165:33CID571050DUS9VHE36WDA08A23LW", "current_trial": 64, "dateTime": 1513264984293, "trialdata": {"rt": -1, "stimulus": "<p id=\"stim\">HAND</p>", "key_press": -1, "type": "PRES_VIS", "word": "hand", "wordID": 682, "conditions": [18, 1200, "v", 18000], "trial": 1, "serialpos": 9, "trial_type": "single-stim", "trial_index": 64, "time_elapsed": 351782, "internal_node_id": "0.0-46.0"}}, {"uniqueid": "MTK1165:33CID571050DUS9VHE36WDA08A23LW", "current_trial": 65, "dateTime": 1513264986523, "trialdata": {"rt": -1, "stimulus": "<p id=\"stim\">GLOVE</p>", "key_press": -1, "type": "PRES_VIS", "word": "glove", "wordID": 641, "conditions": [18, 1200, "v", 18000], "trial": 1, "serialpos": 10, "trial_type": "single-stim", "trial_index": 65, "time_elapsed": 354013, "internal_node_id": "0.0-47.0"}}, {"uniqueid": "MTK1165:33CID571050DUS9VHE36WDA08A23LW", "current_trial": 66, "dateTime": 1513264988601, "trialdata": {"rt": -1, "stimulus": "<p id=\"stim\">SHOVEL</p>", "key_press": -1, "type": "PRES_VIS", "word": "shovel", "wordID": 1294, "conditions": [18, 1200, "v", 18000], "trial": 1, "serialpos": 11, "trial_type": "single-stim", "trial_index": 66, "time_elapsed": 356091, "internal_node_id": "0.0-48.0"}}, {"uniqueid": "MTK1165:33CID571050DUS9VHE36WDA08A23LW", "current_trial": 67, "dateTime": 1513264990998, "trialdata": {"rt": -1, "stimulus": "<p id=\"stim\">TABLET</p>", "key_press": -1, "type": "PRES_VIS", "word": "tablet", "wordID": 1426, "conditions": [18, 1200, "v", 18000], "trial": 1, "serialpos": 12, "trial_type": "single-stim", "trial_index": 67, "time_elapsed": 358488, "internal_node_id": "0.0-49.0"}}, {"uniqueid": "MTK1165:33CID571050DUS9VHE36WDA08A23LW", "current_trial": 68, "dateTime": 1513264993092, "trialdata": {"rt": -1, "stimulus": "<p id=\"stim\">FIREPLACE</p>", "key_press": -1, "type": "PRES_VIS", "word": "fireplace", "wordID": 569, "conditions": [18, 1200, "v", 18000], "trial": 1, "serialpos": 13, "trial_type": "single-stim", "trial_index": 68, "time_elapsed": 360575, "internal_node_id": "0.0-50.0"}}, {"uniqueid": "MTK1165:33CID571050DUS9VHE36WDA08A23LW", "current_trial": 69, "dateTime": 1513264995291, "trialdata": {"rt": -1, "stimulus": "<p id=\"stim\">SOFTBALL</p>", "key_press": -1, "type": "PRES_VIS", "word": "softball", "wordID": 1342, "conditions": [18, 1200, "v", 18000], "trial": 1, "serialpos": 14, "trial_type": "single-stim", "trial_index": 69, "time_elapsed": 362781, "internal_node_id": "0.0-51.0"}}, {"uniqueid": "MTK1165:33CID571050DUS9VHE36WDA08A23LW", "current_trial": 70, "dateTime": 1513264997488, "trialdata": {"rt": -1, "stimulus": "<p id=\"stim\">SURVEY</p>", "key_press": -1, "type": "PRES_VIS", "word": "survey", "wordID": 1413, "conditions": [18, 1200, "v", 18000], "trial": 1, "serialpos": 15, "trial_type": "single-stim", "trial_index": 70, "time_elapsed": 364978, "internal_node_id": "0.0-52.0"}}, {"uniqueid": "MTK1165:33CID571050DUS9VHE36WDA08A23LW", "current_trial": 71, "dateTime": 1513264999719, "trialdata": {"rt": -1, "stimulus": "<p id=\"stim\">SHELTER</p>", "key_press": -1, "type": "PRES_VIS", "word": "shelter", "wordID": 1281, "conditions": [18, 1200, "v", 18000], "trial": 1, "serialpos": 16, "trial_type": "single-stim", "trial_index": 71, "time_elapsed": 367209, "internal_node_id": "0.0-53.0"}}, {"uniqueid": "MTK1165:33CID571050DUS9VHE36WDA08A23LW", "current_trial": 72, "dateTime": 1513265001978, "trialdata": {"rt": -1, "stimulus": "<p id=\"stim\">PASSAGE</p>", "key_press": -1, "type": "PRES_VIS", "word": "passage", "wordID": 1018, "conditions": [18, 1200, "v", 18000], "trial": 1, "serialpos": 17, "trial_type": "single-stim", "trial_index": 72, "time_elapsed": 369468, "internal_node_id": "0.0-54.0"}}, {"uniqueid": "MTK1165:33CID571050DUS9VHE36WDA08A23LW", "current_trial": 73, "dateTime": 1513265004472, "trialdata": {"rt": -1, "stimulus": "", "key_press": -1, "type": "PRE_RECALL_DELAY", "trial_type": "single-stim", "trial_index": 73, "time_elapsed": 371962, "internal_node_id": "0.0-55.0-0.0"}}, {"uniqueid": "MTK1165:33CID571050DUS9VHE36WDA08A23LW", "current_trial": 74, "dateTime": 1513265004972, "trialdata": {"rt": -1000, "stimulus": "/static/audio/400Hz.wav", "key_press": -1, "type": "PRE_RECALL_ALERT", "trial_type": "single-audio", "trial_index": 74, "time_elapsed": 372462, "internal_node_id": "0.0-56.0"}}, {"uniqueid": "MTK1165:33CID571050DUS9VHE36WDA08A23LW", "current_trial": 75, "dateTime": 1513265064991, "trialdata": {"rt": [4728, 6921, 8991, 22517, 24869, 32262, 38755], "recwords": ["softball", "survey", "shelter", "flute", "jury", "japan", "lace"], "type": "FREE_RECALL", "conditions": [18, 1200, "v", 18000], "trial": 1, "trial_type": "free-recall", "trial_index": 75, "time_elapsed": 432475, "internal_node_id": "0.0-57.0-0.0"}}, {"uniqueid": "MTK1165:33CID571050DUS9VHE36WDA08A23LW", "current_trial": 76, "dateTime": 1513265069136, "trialdata": {"rt": 2129, "key_press": 13, "type": "INSTRUCTIONS", "trial_type": "text", "trial_index": 76, "time_elapsed": 436613, "internal_node_id": "0.0-58.0"}}, {"uniqueid": "MTK1165:33CID571050DUS9VHE36WDA08A23LW", "current_trial": 77, "dateTime": 1513265082143, "trialdata": {"rt": [5910, 7575, 8904, 10841], "responses": ["15", "8", "13", "11"], "num1": [3, 3, 6, 4, 4], "num2": [3, 4, 1, 5, 9], "num3": [9, 1, 6, 2, 2], "type": "DISTRACTOR", "conditions": [12, 1600, "a", 12000], "trial": 2, "trial_type": "math-distractor", "trial_index": 77, "time_elapsed": 449633, "internal_node_id": "0.0-59.0"}}, {"uniqueid": "MTK1165:33CID571050DUS9VHE36WDA08A23LW", "current_trial": 78, "dateTime": 1513265085146, "trialdata": {"rt": -1, "stimulus": "<p id=\"stim\">10</p>", "key_press": -1, "trial_type": "single-stim", "trial_index": 78, "time_elapsed": 452636, "internal_node_id": "0.0-60.0-0.0"}}, {"uniqueid": "MTK1165:33CID571050DUS9VHE36WDA08A23LW", "current_trial": 79, "dateTime": 1513265086149, "trialdata": {"rt": -1, "stimulus": "<p id=\"stim\">9</p>", "key_press": -1, "trial_type": "single-stim", "trial_index": 79, "time_elapsed": 453639, "internal_node_id": "0.0-60.0-1.0"}}, {"uniqueid": "MTK1165:33CID571050DUS9VHE36WDA08A23LW", "current_trial": 80, "dateTime": 1513265087151, "trialdata": {"rt": -1, "stimulus": "<p id=\"stim\">8</p>", "key_press": -1, "trial_type": "single-stim", "trial_index": 80, "time_elapsed": 454641, "internal_node_id": "0.0-60.0-2.0"}}, {"uniqueid": "MTK1165:33CID571050DUS9VHE36WDA08A23LW", "current_trial": 81, "dateTime": 1513265088153, "trialdata": {"rt": -1, "stimulus": "<p id=\"stim\">7</p>", "key_press": -1, "trial_type": "single-stim", "trial_index": 81, "time_elapsed": 455643, "internal_node_id": "0.0-60.0-3.0"}}, {"uniqueid": "MTK1165:33CID571050DUS9VHE36WDA08A23LW", "current_trial": 82, "dateTime": 1513265089156, "trialdata": {"rt": -1, "stimulus": "<p id=\"stim\">6</p>", "key_press": -1, "trial_type": "single-stim", "trial_index": 82, "time_elapsed": 456646, "internal_node_id": "0.0-60.0-4.0"}}, {"uniqueid": "MTK1165:33CID571050DUS9VHE36WDA08A23LW", "current_trial": 83, "dateTime": 1513265090158, "trialdata": {"rt": -1, "stimulus": "<p id=\"stim\">5</p>", "key_press": -1, "trial_type": "single-stim", "trial_index": 83, "time_elapsed": 457648, "internal_node_id": "0.0-60.0-5.0"}}, {"uniqueid": "MTK1165:33CID571050DUS9VHE36WDA08A23LW", "current_trial": 84, "dateTime": 1513265091161, "trialdata": {"rt": -1, "stimulus": "<p id=\"stim\">4</p>", "key_press": -1, "trial_type": "single-stim", "trial_index": 84, "time_elapsed": 458650, "internal_node_id": "0.0-60.0-6.0"}}, {"uniqueid": "MTK1165:33CID571050DUS9VHE36WDA08A23LW", "current_trial": 85, "dateTime": 1513265092163, "trialdata": {"rt": -1, "stimulus": "<p id=\"stim\">3</p>", "key_press": -1, "trial_type": "single-stim", "trial_index": 85, "time_elapsed": 459653, "internal_node_id": "0.0-60.0-7.0"}}, {"uniqueid": "MTK1165:33CID571050DUS9VHE36WDA08A23LW", "current_trial": 86, "dateTime": 1513265093165, "trialdata": {"rt": -1, "stimulus": "<p id=\"stim\">2</p>", "key_press": -1, "trial_type": "single-stim", "trial_index": 86, "time_elapsed": 460655, "internal_node_id": "0.0-60.0-8.0"}}, {"uniqueid": "MTK1165:33CID571050DUS9VHE36WDA08A23LW", "current_trial": 87, "dateTime": 1513265094168, "trialdata": {"rt": -1, "stimulus": "<p id=\"stim\">1</p>", "key_press": -1, "trial_type": "single-stim", "trial_index": 87, "time_elapsed": 461658, "internal_node_id": "0.0-60.0-9.0"}}, {"uniqueid": "MTK1165:33CID571050DUS9VHE36WDA08A23LW", "current_trial": 88, "dateTime": 1513265095670, "trialdata": {"rt": -1, "stimulus": "<p id=\"stim\">+</p>", "key_press": -1, "type": "FIXATION", "trial_type": "single-stim", "trial_index": 88, "time_elapsed": 463160, "internal_node_id": "0.0-61.0-0.0"}}, {"uniqueid": "MTK1165:33CID571050DUS9VHE36WDA08A23LW", "current_trial": 89, "dateTime": 1513265098376, "trialdata": {"rt": -1000, "stimulus": "/static/audio/wordpool/BOYFRIEND.wav", "key_press": -1, "type": "PRES_AUD", "word": "boyfriend", "wordID": 161, "conditions": [12, 1600, "a", 12000], "trial": 2, "serialpos": 0, "trial_type": "single-audio", "trial_index": 89, "time_elapsed": 465866, "internal_node_id": "0.0-62.0"}}, {"uniqueid": "MTK1165:33CID571050DUS9VHE36WDA08A23LW", "current_trial": 90, "dateTime": 1513265101029, "trialdata": {"rt": -1000, "stimulus": "/static/audio/wordpool/POISON.wav", "key_press": -1, "type": "PRES_AUD", "word": "poison", "wordID": 1095, "conditions": [12, 1600, "a", 12000], "trial": 2, "serialpos": 1, "trial_type": "single-audio", "trial_index": 90, "time_elapsed": 468519, "internal_node_id": "0.0-63.0"}}, {"uniqueid": "MTK1165:33CID571050DUS9VHE36WDA08A23LW", "current_trial": 91, "dateTime": 1513265103759, "trialdata": {"rt": -1000, "stimulus": "/static/audio/wordpool/JELLO.wav", "key_press": -1, "type": "PRES_AUD", "word": "jello", "wordID": 753, "conditions": [12, 1600, "a", 12000], "trial": 2, "serialpos": 2, "trial_type": "single-audio", "trial_index": 91, "time_elapsed": 471249, "internal_node_id": "0.0-64.0"}}, {"uniqueid": "MTK1165:33CID571050DUS9VHE36WDA08A23LW", "current_trial": 92, "dateTime": 1513265106488, "trialdata": {"rt": -1000, "stimulus": "/static/audio/wordpool/SNACK.wav", "key_press": -1, "type": "PRES_AUD", "word": "snack", "wordID": 1330, "conditions": [12, 1600, "a", 12000], "trial": 2, "serialpos": 3, "trial_type": "single-audio", "trial_index": 92, "time_elapsed": 473978, "internal_node_id": "0.0-65.0"}}, {"uniqueid": "MTK1165:33CID571050DUS9VHE36WDA08A23LW", "current_trial": 93, "dateTime": 1513265109089, "trialdata": {"rt": -1000, "stimulus": "/static/audio/wordpool/BROTHER.wav", "key_press": -1, "type": "PRES_AUD", "word": "brother", "wordID": 178, "conditions": [12, 1600, "a", 12000], "trial": 2, "serialpos": 4, "trial_type": "single-audio", "trial_index": 93, "time_elapsed": 476579, "internal_node_id": "0.0-66.0"}}, {"uniqueid": "MTK1165:33CID571050DUS9VHE36WDA08A23LW", "current_trial": 94, "dateTime": 1513265111498, "trialdata": {"rt": -1000, "stimulus": "/static/audio/wordpool/WAITRESS.wav", "key_press": -1, "type": "PRES_AUD", "word": "waitress", "wordID": 1580, "conditions": [12, 1600, "a", 12000], "trial": 2, "serialpos": 5, "trial_type": "single-audio", "trial_index": 94, "time_elapsed": 478988, "internal_node_id": "0.0-67.0"}}, {"uniqueid": "MTK1165:33CID571050DUS9VHE36WDA08A23LW", "current_trial": 95, "dateTime": 1513265114275, "trialdata": {"rt": -1000, "stimulus": "/static/audio/wordpool/BROOK.wav", "key_press": -1, "type": "PRES_AUD", "word": "brook", "wordID": 176, "conditions": [12, 1600, "a", 12000], "trial": 2, "serialpos": 6, "trial_type": "single-audio", "trial_index": 95, "time_elapsed": 481765, "internal_node_id": "0.0-68.0"}}, {"uniqueid": "MTK1165:33CID571050DUS9VHE36WDA08A23LW", "current_trial": 96, "dateTime": 1513265116756, "trialdata": {"rt": -1000, "stimulus": "/static/audio/wordpool/OMELET.wav", "key_press": -1, "type": "PRES_AUD", "word": "omelet", "wordID": 975, "conditions": [12, 1600, "a", 12000], "trial": 2, "serialpos": 7, "trial_type": "single-audio", "trial_index": 96, "time_elapsed": 484246, "internal_node_id": "0.0-69.0"}}, {"uniqueid": "MTK1165:33CID571050DUS9VHE36WDA08A23LW", "current_trial": 97, "dateTime": 1513265119346, "trialdata": {"rt": -1000, "stimulus": "/static/audio/wordpool/COIN.wav", "key_press": -1, "type": "PRES_AUD", "word": "coin", "wordID": 342, "conditions": [12, 1600, "a", 12000], "trial": 2, "serialpos": 8, "trial_type": "single-audio", "trial_index": 97, "time_elapsed": 486836, "internal_node_id": "0.0-70.0"}}, {"uniqueid": "MTK1165:33CID571050DUS9VHE36WDA08A23LW", "current_trial": 98, "dateTime": 1513265122146, "trialdata": {"rt": -1000, "stimulus": "/static/audio/wordpool/CANYON.wav", "key_press": -1, "type": "PRES_AUD", "word": "canyon", "wordID": 234, "conditions": [12, 1600, "a", 12000], "trial": 2, "serialpos": 9, "trial_type": "single-audio", "trial_index": 98, "time_elapsed": 489636, "internal_node_id": "0.0-71.0"}}, {"uniqueid": "MTK1165:33CID571050DUS9VHE36WDA08A23LW", "current_trial": 99, "dateTime": 1513265124881, "trialdata": {"rt": -1000, "stimulus": "/static/audio/wordpool/SODA.wav", "key_press": -1, "type": "PRES_AUD", "word": "soda", "wordID": 1340, "conditions": [12, 1600, "a", 12000], "trial": 2, "serialpos": 10, "trial_type": "single-audio", "trial_index": 99, "time_elapsed": 492371, "internal_node_id": "0.0-72.0"}}, {"uniqueid": "MTK1165:33CID571050DUS9VHE36WDA08A23LW", "current_trial": 100, "dateTime": 1513265127473, "trialdata": {"rt": -1000, "stimulus": "/static/audio/wordpool/POPCORN.wav", "key_press": -1, "type": "PRES_AUD", "word": "popcorn", "wordID": 1103, "conditions": [12, 1600, "a", 12000], "trial": 2, "serialpos": 11, "trial_type": "single-audio", "trial_index": 100, "time_elapsed": 494963, "internal_node_id": "0.0-73.0"}}, {"uniqueid": "MTK1165:33CID571050DUS9VHE36WDA08A23LW", "current_trial": 101, "dateTime": 1513265128855, "trialdata": {"rt": -1, "stimulus": "", "key_press": -1, "type": "PRE_RECALL_DELAY", "trial_type": "single-stim", "trial_index": 101, "time_elapsed": 496345, "internal_node_id": "0.0-74.0-0.0"}}, {"uniqueid": "MTK1165:33CID571050DUS9VHE36WDA08A23LW", "current_trial": 102, "dateTime": 1513265129357, "trialdata": {"rt": -1000, "stimulus": "/static/audio/400Hz.wav", "key_press": -1, "type": "PRE_RECALL_ALERT", "trial_type": "single-audio", "trial_index": 102, "time_elapsed": 496847, "internal_node_id": "0.0-75.0"}}, {"uniqueid": "MTK1165:33CID571050DUS9VHE36WDA08A23LW", "current_trial": 103, "dateTime": 1513265189370, "trialdata": {"rt": [4671, 7290, 10915, 13993, 25782, 28542, 29837, 41403], "recwords": ["soda", "popcorn", "boyfriend", "brook", "poison", "yellow", "snack", "waitress"], "type": "FREE_RECALL", "conditions": [12, 1600, "a", 12000], "trial": 2, "trial_type": "free-recall", "trial_index": 103, "time_elapsed": 556854, "internal_node_id": "0.0-76.0-0.0"}}, {"uniqueid": "MTK1165:33CID571050DUS9VHE36WDA08A23LW", "current_trial": 104, "dateTime": 1513265191395, "trialdata": {"rt": 24, "key_press": 83, "type": "INSTRUCTIONS", "trial_type": "text", "trial_index": 104, "time_elapsed": 558885, "internal_node_id": "0.0-77.0"}}, {"uniqueid": "MTK1165:33CID571050DUS9VHE36WDA08A23LW", "current_trial": 105, "dateTime": 1513265205402, "trialdata": {"rt": [4114, 8270, 10863], "responses": ["16", "17", "15"], "num1": [2, 8, 5, 9], "num2": [6, 6, 1, 7], "num3": [8, 3, 9, 5], "type": "DISTRACTOR", "conditions": [12, 1600, "v", 12000], "trial": 3, "trial_type": "math-distractor", "trial_index": 105, "time_elapsed": 572892, "internal_node_id": "0.0-78.0"}}, {"uniqueid": "MTK1165:33CID571050DUS9VHE36WDA08A23LW", "current_trial": 106, "dateTime": 1513265208405, "trialdata": {"rt": -1, "stimulus": "<p id=\"stim\">10</p>", "key_press": -1, "trial_type": "single-stim", "trial_index": 106, "time_elapsed": 575895, "internal_node_id": "0.0-79.0-0.0"}}, {"uniqueid": "MTK1165:33CID571050DUS9VHE36WDA08A23LW", "current_trial": 107, "dateTime": 1513265209407, "trialdata": {"rt": -1, "stimulus": "<p id=\"stim\">9</p>", "key_press": -1, "trial_type": "single-stim", "trial_index": 107, "time_elapsed": 576897, "internal_node_id": "0.0-79.0-1.0"}}, {"uniqueid": "MTK1165:33CID571050DUS9VHE36WDA08A23LW", "current_trial": 108, "dateTime": 1513265210409, "trialdata": {"rt": -1, "stimulus": "<p id=\"stim\">8</p>", "key_press": -1, "trial_type": "single-stim", "trial_index": 108, "time_elapsed": 577899, "internal_node_id": "0.0-79.0-2.0"}}, {"uniqueid": "MTK1165:33CID571050DUS9VHE36WDA08A23LW", "current_trial": 109, "dateTime": 1513265211410, "trialdata": {"rt": -1, "stimulus": "<p id=\"stim\">7</p>", "key_press": -1, "trial_type": "single-stim", "trial_index": 109, "time_elapsed": 578900, "internal_node_id": "0.0-79.0-3.0"}}, {"uniqueid": "MTK1165:33CID571050DUS9VHE36WDA08A23LW", "current_trial": 110, "dateTime": 1513265212413, "trialdata": {"rt": -1, "stimulus": "<p id=\"stim\">6</p>", "key_press": -1, "trial_type": "single-stim", "trial_index": 110, "time_elapsed": 579903, "internal_node_id": "0.0-79.0-4.0"}}, {"uniqueid": "MTK1165:33CID571050DUS9VHE36WDA08A23LW", "current_trial": 111, "dateTime": 1513265213415, "trialdata": {"rt": -1, "stimulus": "<p id=\"stim\">5</p>", "key_press": -1, "trial_type": "single-stim", "trial_index": 111, "time_elapsed": 580905, "internal_node_id": "0.0-79.0-5.0"}}, {"uniqueid": "MTK1165:33CID571050DUS9VHE36WDA08A23LW", "current_trial": 112, "dateTime": 1513265214417, "trialdata": {"rt": -1, "stimulus": "<p id=\"stim\">4</p>", "key_press": -1, "trial_type": "single-stim", "trial_index": 112, "time_elapsed": 581906, "internal_node_id": "0.0-79.0-6.0"}}, {"uniqueid": "MTK1165:33CID571050DUS9VHE36WDA08A23LW", "current_trial": 113, "dateTime": 1513265215418, "trialdata": {"rt": -1, "stimulus": "<p id=\"stim\">3</p>", "key_press": -1, "trial_type": "single-stim", "trial_index": 113, "time_elapsed": 582908, "internal_node_id": "0.0-79.0-7.0"}}, {"uniqueid": "MTK1165:33CID571050DUS9VHE36WDA08A23LW", "current_trial": 114, "dateTime": 1513265216420, "trialdata": {"rt": -1, "stimulus": "<p id=\"stim\">2</p>", "key_press": -1, "trial_type": "single-stim", "trial_index": 114, "time_elapsed": 583910, "internal_node_id": "0.0-79.0-8.0"}}, {"uniqueid": "MTK1165:33CID571050DUS9VHE36WDA08A23LW", "current_trial": 115, "dateTime": 1513265217422, "trialdata": {"rt": -1, "stimulus": "<p id=\"stim\">1</p>", "key_press": -1, "trial_type": "single-stim", "trial_index": 115, "time_elapsed": 584912, "internal_node_id": "0.0-79.0-9.0"}}, {"uniqueid": "MTK1165:33CID571050DUS9VHE36WDA08A23LW", "current_trial": 116, "dateTime": 1513265218925, "trialdata": {"rt": -1, "stimulus": "<p id=\"stim\">+</p>", "key_press": -1, "type": "FIXATION", "trial_type": "single-stim", "trial_index": 116, "time_elapsed": 586415, "internal_node_id": "0.0-80.0-0.0"}}, {"uniqueid": "MTK1165:33CID571050DUS9VHE36WDA08A23LW", "current_trial": 117, "dateTime": 1513265220527, "trialdata": {"rt": -1, "stimulus": "<p id=\"stim\">TEACHER</p>", "key_press": -1, "type": "PRES_VIS", "word": "teacher", "wordID": 1439, "conditions": [12, 1600, "v", 12000], "trial": 3, "serialpos": 0, "trial_type": "single-stim", "trial_index": 117, "time_elapsed": 588017, "internal_node_id": "0.0-81.0"}}, {"uniqueid": "MTK1165:33CID571050DUS9VHE36WDA08A23LW", "current_trial": 118, "dateTime": 1513265223146, "trialdata": {"rt": -1, "stimulus": "<p id=\"stim\">MACHINE</p>", "key_press": -1, "type": "PRES_VIS", "word": "machine", "wordID": 851, "conditions": [12, 1600, "v", 12000], "trial": 3, "serialpos": 1, "trial_type": "single-stim", "trial_index": 118, "time_elapsed": 590636, "internal_node_id": "0.0-82.0"}}, {"uniqueid": "MTK1165:33CID571050DUS9VHE36WDA08A23LW", "current_trial": 119, "dateTime": 1513265225564, "trialdata": {"rt": -1, "stimulus": "<p id=\"stim\">ZIPPER</p>", "key_press": -1, "type": "PRES_VIS", "word": "zipper", "wordID": 1635, "conditions": [12, 1600, "v", 12000], "trial": 3, "serialpos": 2, "trial_type": "single-stim", "trial_index": 119, "time_elapsed": 593054, "internal_node_id": "0.0-83.0"}}, {"uniqueid": "MTK1165:33CID571050DUS9VHE36WDA08A23LW", "current_trial": 120, "dateTime": 1513265228127, "trialdata": {"rt": -1, "stimulus": "<p id=\"stim\">CLOTHES</p>", "key_press": -1, "type": "PRES_VIS", "word": "clothes", "wordID": 326, "conditions": [12, 1600, "v", 12000], "trial": 3, "serialpos": 3, "trial_type": "single-stim", "trial_index": 120, "time_elapsed": 595617, "internal_node_id": "0.0-84.0"}}, {"uniqueid": "MTK1165:33CID571050DUS9VHE36WDA08A23LW", "current_trial": 121, "dateTime": 1513265230541, "trialdata": {"rt": -1, "stimulus": "<p id=\"stim\">PLASTER</p>", "key_press": -1, "type": "PRES_VIS", "word": "plaster", "wordID": 1084, "conditions": [12, 1600, "v", 12000], "trial": 3, "serialpos": 4, "trial_type": "single-stim", "trial_index": 121, "time_elapsed": 598031, "internal_node_id": "0.0-85.0"}}, {"uniqueid": "MTK1165:33CID571050DUS9VHE36WDA08A23LW", "current_trial": 122, "dateTime": 1513265233293, "trialdata": {"rt": -1, "stimulus": "<p id=\"stim\">STUDENT</p>", "key_press": -1, "type": "PRES_VIS", "word": "student", "wordID": 1394, "conditions": [12, 1600, "v", 12000], "trial": 3, "serialpos": 5, "trial_type": "single-stim", "trial_index": 122, "time_elapsed": 600783, "internal_node_id": "0.0-86.0"}}, {"uniqueid": "MTK1165:33CID571050DUS9VHE36WDA08A23LW", "current_trial": 123, "dateTime": 1513265235874, "trialdata": {"rt": -1, "stimulus": "<p id=\"stim\">MARKET</p>", "key_press": -1, "type": "PRES_VIS", "word": "market", "wordID": 870, "conditions": [12, 1600, "v", 12000], "trial": 3, "serialpos": 6, "trial_type": "single-stim", "trial_index": 123, "time_elapsed": 603364, "internal_node_id": "0.0-87.0"}}, {"uniqueid": "MTK1165:33CID571050DUS9VHE36WDA08A23LW", "current_trial": 124, "dateTime": 1513265238489, "trialdata": {"rt": -1, "stimulus": "<p id=\"stim\">MAPLE</p>", "key_press": -1, "type": "PRES_VIS", "word": "maple", "wordID": 865, "conditions": [12, 1600, "v", 12000], "trial": 3, "serialpos": 7, "trial_type": "single-stim", "trial_index": 124, "time_elapsed": 605979, "internal_node_id": "0.0-88.0"}}, {"uniqueid": "MTK1165:33CID571050DUS9VHE36WDA08A23LW", "current_trial": 125, "dateTime": 1513265241210, "trialdata": {"rt": -1, "stimulus": "<p id=\"stim\">SCARF</p>", "key_press": -1, "type": "PRES_VIS", "word": "scarf", "wordID": 1245, "conditions": [12, 1600, "v", 12000], "trial": 3, "serialpos": 8, "trial_type": "single-stim", "trial_index": 125, "time_elapsed": 608700, "internal_node_id": "0.0-89.0"}}, {"uniqueid": "MTK1165:33CID571050DUS9VHE36WDA08A23LW", "current_trial": 126, "dateTime": 1513265243934, "trialdata": {"rt": -1, "stimulus": "<p id=\"stim\">DIME</p>", "key_press": -1, "type": "PRES_VIS", "word": "dime", "wordID": 465, "conditions": [12, 1600, "v", 12000], "trial": 3, "serialpos": 9, "trial_type": "single-stim", "trial_index": 126, "time_elapsed": 611423, "internal_node_id": "0.0-90.0"}}, {"uniqueid": "MTK1165:33CID571050DUS9VHE36WDA08A23LW", "current_trial": 127, "dateTime": 1513265246675, "trialdata": {"rt": -1, "stimulus": "<p id=\"stim\">PRINCESS</p>", "key_press": -1, "type": "PRES_VIS", "word": "princess", "wordID": 1124, "conditions": [12, 1600, "v", 12000], "trial": 3, "serialpos": 10, "trial_type": "single-stim", "trial_index": 127, "time_elapsed": 614165, "internal_node_id": "0.0-91.0"}}, {"uniqueid": "MTK1165:33CID571050DUS9VHE36WDA08A23LW", "current_trial": 128, "dateTime": 1513265249152, "trialdata": {"rt": -1, "stimulus": "<p id=\"stim\">QUEEN</p>", "key_press": -1, "type": "PRES_VIS", "word": "queen", "wordID": 1148, "conditions": [12, 1600, "v", 12000], "trial": 3, "serialpos": 11, "trial_type": "single-stim", "trial_index": 128, "time_elapsed": 616642, "internal_node_id": "0.0-92.0"}}, {"uniqueid": "MTK1165:33CID571050DUS9VHE36WDA08A23LW", "current_trial": 129, "dateTime": 1513265251342, "trialdata": {"rt": -1, "stimulus": "", "key_press": -1, "type": "PRE_RECALL_DELAY", "trial_type": "single-stim", "trial_index": 129, "time_elapsed": 618832, "internal_node_id": "0.0-93.0-0.0"}}, {"uniqueid": "MTK1165:33CID571050DUS9VHE36WDA08A23LW", "current_trial": 130, "dateTime": 1513265251846, "trialdata": {"rt": -1000, "stimulus": "/static/audio/400Hz.wav", "key_press": -1, "type": "PRE_RECALL_ALERT", "trial_type": "single-audio", "trial_index": 130, "time_elapsed": 619336, "internal_node_id": "0.0-94.0"}}, {"uniqueid": "MTK1165:33CID571050DUS9VHE36WDA08A23LW", "current_trial": 131, "dateTime": 1513265311866, "trialdata": {"rt": [3351, 10142, 15531, 22818, 24299, 30819, 37186, 41284], "recwords": ["dime", "teacher", "zipper", "student", "clothes", "scarf", "princess", "queen"], "type": "FREE_RECALL", "conditions": [12, 1600, "v", 12000], "trial": 3, "trial_type": "free-recall", "trial_index": 131, "time_elapsed": 679343, "internal_node_id": "0.0-95.0-0.0"}}, {"uniqueid": "MTK1165:33CID571050DUS9VHE36WDA08A23LW", "current_trial": 132, "dateTime": 1513265315710, "trialdata": {"rt": 1842, "key_press": 13, "type": "INSTRUCTIONS", "trial_type": "text", "trial_index": 132, "time_elapsed": 683200, "internal_node_id": "0.0-96.0"}}, {"uniqueid": "MTK1165:33CID571050DUS9VHE36WDA08A23LW", "current_trial": 133, "dateTime": 1513265341717, "trialdata": {"rt": [4257, 8612, 10678, 12511, 15297, 17906, 21176, 22818], "responses": ["18", "19", "11", "14", "17", "10", "13", "7"], "num1": [9, 4, 7, 3, 4, 2, 4, 1, 5], "num2": [4, 7, 1, 9, 8, 7, 4, 3, 7], "num3": [5, 8, 3, 2, 5, 1, 5, 3, 5], "type": "DISTRACTOR", "conditions": [24, 1600, "v", 24000], "trial": 4, "trial_type": "math-distractor", "trial_index": 133, "time_elapsed": 709207, "internal_node_id": "0.0-97.0"}}, {"uniqueid": "MTK1165:33CID571050DUS9VHE36WDA08A23LW", "current_trial": 134, "dateTime": 1513265344720, "trialdata": {"rt": -1, "stimulus": "<p id=\"stim\">10</p>", "key_press": -1, "trial_type": "single-stim", "trial_index": 134, "time_elapsed": 712210, "internal_node_id": "0.0-98.0-0.0"}}, {"uniqueid": "MTK1165:33CID571050DUS9VHE36WDA08A23LW", "current_trial": 135, "dateTime": 1513265345722, "trialdata": {"rt": -1, "stimulus": "<p id=\"stim\">9</p>", "key_press": -1, "trial_type": "single-stim", "trial_index": 135, "time_elapsed": 713212, "internal_node_id": "0.0-98.0-1.0"}}, {"uniqueid": "MTK1165:33CID571050DUS9VHE36WDA08A23LW", "current_trial": 136, "dateTime": 1513265346724, "trialdata": {"rt": -1, "stimulus": "<p id=\"stim\">8</p>", "key_press": -1, "trial_type": "single-stim", "trial_index": 136, "time_elapsed": 714214, "internal_node_id": "0.0-98.0-2.0"}}, {"uniqueid": "MTK1165:33CID571050DUS9VHE36WDA08A23LW", "current_trial": 137, "dateTime": 1513265347725, "trialdata": {"rt": -1, "stimulus": "<p id=\"stim\">7</p>", "key_press": -1, "trial_type": "single-stim", "trial_index": 137, "time_elapsed": 715215, "internal_node_id": "0.0-98.0-3.0"}}, {"uniqueid": "MTK1165:33CID571050DUS9VHE36WDA08A23LW", "current_trial": 138, "dateTime": 1513265348729, "trialdata": {"rt": -1, "stimulus": "<p id=\"stim\">6</p>", "key_press": -1, "trial_type": "single-stim", "trial_index": 138, "time_elapsed": 716218, "internal_node_id": "0.0-98.0-4.0"}}, {"uniqueid": "MTK1165:33CID571050DUS9VHE36WDA08A23LW", "current_trial": 139, "dateTime": 1513265349731, "trialdata": {"rt": -1, "stimulus": "<p id=\"stim\">5</p>", "key_press": -1, "trial_type": "single-stim", "trial_index": 139, "time_elapsed": 717221, "internal_node_id": "0.0-98.0-5.0"}}, {"uniqueid": "MTK1165:33CID571050DUS9VHE36WDA08A23LW", "current_trial": 140, "dateTime": 1513265350733, "trialdata": {"rt": -1, "stimulus": "<p id=\"stim\">4</p>", "key_press": -1, "trial_type": "single-stim", "trial_index": 140, "time_elapsed": 718223, "internal_node_id": "0.0-98.0-6.0"}}, {"uniqueid": "MTK1165:33CID571050DUS9VHE36WDA08A23LW", "current_trial": 141, "dateTime": 1513265351735, "trialdata": {"rt": -1, "stimulus": "<p id=\"stim\">3</p>", "key_press": -1, "trial_type": "single-stim", "trial_index": 141, "time_elapsed": 719224, "internal_node_id": "0.0-98.0-7.0"}}, {"uniqueid": "MTK1165:33CID571050DUS9VHE36WDA08A23LW", "current_trial": 142, "dateTime": 1513265352737, "trialdata": {"rt": -1, "stimulus": "<p id=\"stim\">2</p>", "key_press": -1, "trial_type": "single-stim", "trial_index": 142, "time_elapsed": 720227, "internal_node_id": "0.0-98.0-8.0"}}, {"uniqueid": "MTK1165:33CID571050DUS9VHE36WDA08A23LW", "current_trial": 143, "dateTime": 1513265353739, "trialdata": {"rt": -1, "stimulus": "<p id=\"stim\">1</p>", "key_press": -1, "trial_type": "single-stim", "trial_index": 143, "time_elapsed": 721229, "internal_node_id": "0.0-98.0-9.0"}}, {"uniqueid": "MTK1165:33CID571050DUS9VHE36WDA08A23LW", "current_trial": 144, "dateTime": 1513265355241, "trialdata": {"rt": -1, "stimulus": "<p id=\"stim\">+</p>", "key_press": -1, "type": "FIXATION", "trial_type": "single-stim", "trial_index": 144, "time_elapsed": 722731, "internal_node_id": "0.0-99.0-0.0"}}, {"uniqueid": "MTK1165:33CID571050DUS9VHE36WDA08A23LW", "current_trial": 145, "dateTime": 1513265356844, "trialdata": {"rt": -1, "stimulus": "<p id=\"stim\">NIGHTGOWN</p>", "key_press": -1, "type": "PRES_VIS", "word": "nightgown", "wordID": 952, "conditions": [24, 1600, "v", 24000], "trial": 4, "serialpos": 0, "trial_type": "single-stim", "trial_index": 145, "time_elapsed": 724334, "internal_node_id": "0.0-100.0"}}, {"uniqueid": "MTK1165:33CID571050DUS9VHE36WDA08A23LW", "current_trial": 146, "dateTime": 1513265359527, "trialdata": {"rt": -1, "stimulus": "<p id=\"stim\">PORK</p>", "key_press": -1, "type": "PRES_VIS", "word": "pork", "wordID": 1107, "conditions": [24, 1600, "v", 24000], "trial": 4, "serialpos": 1, "trial_type": "single-stim", "trial_index": 146, "time_elapsed": 727017, "internal_node_id": "0.0-101.0"}}, {"uniqueid": "MTK1165:33CID571050DUS9VHE36WDA08A23LW", "current_trial": 147, "dateTime": 1513265362073, "trialdata": {"rt": -1, "stimulus": "<p id=\"stim\">OUTLAW</p>", "key_press": -1, "type": "PRES_VIS", "word": "outlaw", "wordID": 988, "conditions": [24, 1600, "v", 24000], "trial": 4, "serialpos": 2, "trial_type": "single-stim", "trial_index": 147, "time_elapsed": 729563, "internal_node_id": "0.0-102.0"}}, {"uniqueid": "MTK1165:33CID571050DUS9VHE36WDA08A23LW", "current_trial": 148, "dateTime": 1513265364540, "trialdata": {"rt": -1, "stimulus": "<p id=\"stim\">BRIEFCASE</p>", "key_press": -1, "type": "PRES_VIS", "word": "briefcase", "wordID": 174, "conditions": [24, 1600, "v", 24000], "trial": 4, "serialpos": 3, "trial_type": "single-stim", "trial_index": 148, "time_elapsed": 732030, "internal_node_id": "0.0-103.0"}}, {"uniqueid": "MTK1165:33CID571050DUS9VHE36WDA08A23LW", "current_trial": 149, "dateTime": 1513265367296, "trialdata": {"rt": -1, "stimulus": "<p id=\"stim\">FOREHEAD</p>", "key_press": -1, "type": "PRES_VIS", "word": "forehead", "wordID": 591, "conditions": [24, 1600, "v", 24000], "trial": 4, "serialpos": 4, "trial_type": "single-stim", "trial_index": 149, "time_elapsed": 734786, "internal_node_id": "0.0-104.0"}}, {"uniqueid": "MTK1165:33CID571050DUS9VHE36WDA08A23LW", "current_trial": 150, "dateTime": 1513265369971, "trialdata": {"rt": -1, "stimulus": "<p id=\"stim\">AUTHOR</p>", "key_press": -1, "type": "PRES_VIS", "word": "author", "wordID": 60, "conditions": [24, 1600, "v", 24000], "trial": 4, "serialpos": 5, "trial_type": "single-stim", "trial_index": 150, "time_elapsed": 737461, "internal_node_id": "0.0-105.0"}}, {"uniqueid": "MTK1165:33CID571050DUS9VHE36WDA08A23LW", "current_trial": 151, "dateTime": 1513265372464, "trialdata": {"rt": -1, "stimulus": "<p id=\"stim\">COUCH</p>", "key_press": -1, "type": "PRES_VIS", "word": "couch", "wordID": 385, "conditions": [24, 1600, "v", 24000], "trial": 4, "serialpos": 6, "trial_type": "single-stim", "trial_index": 151, "time_elapsed": 739954, "internal_node_id": "0.0-106.0"}}, {"uniqueid": "MTK1165:33CID571050DUS9VHE36WDA08A23LW", "current_trial": 152, "dateTime": 1513265375215, "trialdata": {"rt": -1, "stimulus": "<p id=\"stim\">HELMET</p>", "key_press": -1, "type": "PRES_VIS", "word": "helmet", "wordID": 701, "conditions": [24, 1600, "v", 24000], "trial": 4, "serialpos": 7, "trial_type": "single-stim", "trial_index": 152, "time_elapsed": 742705, "internal_node_id": "0.0-107.0"}}, {"uniqueid": "MTK1165:33CID571050DUS9VHE36WDA08A23LW", "current_trial": 153, "dateTime": 1513265377827, "trialdata": {"rt": -1, "stimulus": "<p id=\"stim\">CUSTARD</p>", "key_press": -1, "type": "PRES_VIS", "word": "custard", "wordID": 428, "conditions": [24, 1600, "v", 24000], "trial": 4, "serialpos": 8, "trial_type": "single-stim", "trial_index": 153, "time_elapsed": 745317, "internal_node_id": "0.0-108.0"}}, {"uniqueid": "MTK1165:33CID571050DUS9VHE36WDA08A23LW", "current_trial": 154, "dateTime": 1513265380243, "trialdata": {"rt": -1, "stimulus": "<p id=\"stim\">PASTA</p>", "key_press": -1, "type": "PRES_VIS", "word": "pasta", "wordID": 1020, "conditions": [24, 1600, "v", 24000], "trial": 4, "serialpos": 9, "trial_type": "single-stim", "trial_index": 154, "time_elapsed": 747733, "internal_node_id": "0.0-109.0"}}, {"uniqueid": "MTK1165:33CID571050DUS9VHE36WDA08A23LW", "current_trial": 155, "dateTime": 1513265382816, "trialdata": {"rt": -1, "stimulus": "<p id=\"stim\">CHEST</p>", "key_press": -1, "type": "PRES_VIS", "word": "chest", "wordID": 294, "conditions": [24, 1600, "v", 24000], "trial": 4, "serialpos": 10, "trial_type": "single-stim", "trial_index": 155, "time_elapsed": 750306, "internal_node_id": "0.0-110.0"}}, {"uniqueid": "MTK1165:33CID571050DUS9VHE36WDA08A23LW", "current_trial": 156, "dateTime": 1513265385263, "trialdata": {"rt": -1, "stimulus": "<p id=\"stim\">SCULPTURE</p>", "key_press": -1, "type": "PRES_VIS", "word": "sculpture", "wordID": 1257, "conditions": [24, 1600, "v", 24000], "trial": 4, "serialpos": 11, "trial_type": "single-stim", "trial_index": 156, "time_elapsed": 752753, "internal_node_id": "0.0-111.0"}}, {"uniqueid": "MTK1165:33CID571050DUS9VHE36WDA08A23LW", "current_trial": 157, "dateTime": 1513265387773, "trialdata": {"rt": -1, "stimulus": "<p id=\"stim\">HOSTESS</p>", "key_press": -1, "type": "PRES_VIS", "word": "hostess", "wordID": 722, "conditions": [24, 1600, "v", 24000], "trial": 4, "serialpos": 12, "trial_type": "single-stim", "trial_index": 157, "time_elapsed": 755263, "internal_node_id": "0.0-112.0"}}, {"uniqueid": "MTK1165:33CID571050DUS9VHE36WDA08A23LW", "current_trial": 158, "dateTime": 1513265390519, "trialdata": {"rt": -1, "stimulus": "<p id=\"stim\">COBRA</p>", "key_press": -1, "type": "PRES_VIS", "word": "cobra", "wordID": 335, "conditions": [24, 1600, "v", 24000], "trial": 4, "serialpos": 13, "trial_type": "single-stim", "trial_index": 158, "time_elapsed": 758009, "internal_node_id": "0.0-113.0"}}, {"uniqueid": "MTK1165:33CID571050DUS9VHE36WDA08A23LW", "current_trial": 159, "dateTime": 1513265393042, "trialdata": {"rt": -1, "stimulus": "<p id=\"stim\">GYMNAST</p>", "key_press": -1, "type": "PRES_VIS", "word": "gymnast", "wordID": 674, "conditions": [24, 1600, "v", 24000], "trial": 4, "serialpos": 14, "trial_type": "single-stim", "trial_index": 159, "time_elapsed": 760532, "internal_node_id": "0.0-114.0"}}, {"uniqueid": "MTK1165:33CID571050DUS9VHE36WDA08A23LW", "current_trial": 160, "dateTime": 1513265395799, "trialdata": {"rt": -1, "stimulus": "<p id=\"stim\">FLESH</p>", "key_press": -1, "type": "PRES_VIS", "word": "flesh", "wordID": 578, "conditions": [24, 1600, "v", 24000], "trial": 4, "serialpos": 15, "trial_type": "single-stim", "trial_index": 160, "time_elapsed": 763289, "internal_node_id": "0.0-115.0"}}, {"uniqueid": "MTK1165:33CID571050DUS9VHE36WDA08A23LW", "current_trial": 161, "dateTime": 1513265398533, "trialdata": {"rt": -1, "stimulus": "<p id=\"stim\">PATIENT</p>", "key_press": -1, "type": "PRES_VIS", "word": "patient", "wordID": 1023, "conditions": [24, 1600, "v", 24000], "trial": 4, "serialpos": 16, "trial_type": "single-stim", "trial_index": 161, "time_elapsed": 766023, "internal_node_id": "0.0-116.0"}}, {"uniqueid": "MTK1165:33CID571050DUS9VHE36WDA08A23LW", "current_trial": 162, "dateTime": 1513265401309, "trialdata": {"rt": -1, "stimulus": "<p id=\"stim\">POCKET</p>", "key_press": -1, "type": "PRES_VIS", "word": "pocket", "wordID": 1092, "conditions": [24, 1600, "v", 24000], "trial": 4, "serialpos": 17, "trial_type": "single-stim", "trial_index": 162, "time_elapsed": 768799, "internal_node_id": "0.0-117.0"}}, {"uniqueid": "MTK1165:33CID571050DUS9VHE36WDA08A23LW", "current_trial": 163, "dateTime": 1513265403818, "trialdata": {"rt": -1, "stimulus": "<p id=\"stim\">DRIVER</p>", "key_press": -1, "type": "PRES_VIS", "word": "driver", "wordID": 498, "conditions": [24, 1600, "v", 24000], "trial": 4, "serialpos": 18, "trial_type": "single-stim", "trial_index": 163, "time_elapsed": 771308, "internal_node_id": "0.0-118.0"}}, {"uniqueid": "MTK1165:33CID571050DUS9VHE36WDA08A23LW", "current_trial": 164, "dateTime": 1513265406363, "trialdata": {"rt": -1, "stimulus": "<p id=\"stim\">PIMPLE</p>", "key_press": -1, "type": "PRES_VIS", "word": "pimple", "wordID": 1070, "conditions": [24, 1600, "v", 24000], "trial": 4, "serialpos": 19, "trial_type": "single-stim", "trial_index": 164, "time_elapsed": 773853, "internal_node_id": "0.0-119.0"}}, {"uniqueid": "MTK1165:33CID571050DUS9VHE36WDA08A23LW", "current_trial": 165, "dateTime": 1513265409135, "trialdata": {"rt": -1, "stimulus": "<p id=\"stim\">GARDEN</p>", "key_press": -1, "type": "PRES_VIS", "word": "garden", "wordID": 622, "conditions": [24, 1600, "v", 24000], "trial": 4, "serialpos": 20, "trial_type": "single-stim", "trial_index": 165, "time_elapsed": 776625, "internal_node_id": "0.0-120.0"}}, {"uniqueid": "MTK1165:33CID571050DUS9VHE36WDA08A23LW", "current_trial": 166, "dateTime": 1513265411577, "trialdata": {"rt": -1, "stimulus": "<p id=\"stim\">ORCHID</p>", "key_press": -1, "type": "PRES_VIS", "word": "orchid", "wordID": 981, "conditions": [24, 1600, "v", 24000], "trial": 4, "serialpos": 21, "trial_type": "single-stim", "trial_index": 166, "time_elapsed": 779067, "internal_node_id": "0.0-121.0"}}, {"uniqueid": "MTK1165:33CID571050DUS9VHE36WDA08A23LW", "current_trial": 167, "dateTime": 1513265414251, "trialdata": {"rt": -1, "stimulus": "<p id=\"stim\">OUTDOORS</p>", "key_press": -1, "type": "PRES_VIS", "word": "outdoors", "wordID": 986, "conditions": [24, 1600, "v", 24000], "trial": 4, "serialpos": 22, "trial_type": "single-stim", "trial_index": 167, "time_elapsed": 781741, "internal_node_id": "0.0-122.0"}}, {"uniqueid": "MTK1165:33CID571050DUS9VHE36WDA08A23LW", "current_trial": 168, "dateTime": 1513265416709, "trialdata": {"rt": -1, "stimulus": "<p id=\"stim\">DANCER</p>", "key_press": -1, "type": "PRES_VIS", "word": "dancer", "wordID": 436, "conditions": [24, 1600, "v", 24000], "trial": 4, "serialpos": 23, "trial_type": "single-stim", "trial_index": 168, "time_elapsed": 784199, "internal_node_id": "0.0-123.0"}}, {"uniqueid": "MTK1165:33CID571050DUS9VHE36WDA08A23LW", "current_trial": 169, "dateTime": 1513265419044, "trialdata": {"rt": -1, "stimulus": "", "key_press": -1, "type": "PRE_RECALL_DELAY", "trial_type": "single-stim", "trial_index": 169, "time_elapsed": 786534, "internal_node_id": "0.0-124.0-0.0"}}, {"uniqueid": "MTK1165:33CID571050DUS9VHE36WDA08A23LW", "current_trial": 170, "dateTime": 1513265419547, "trialdata": {"rt": -1000, "stimulus": "/static/audio/400Hz.wav", "key_press": -1, "type": "PRE_RECALL_ALERT", "trial_type": "single-audio", "trial_index": 170, "time_elapsed": 787037, "internal_node_id": "0.0-125.0"}}, {"uniqueid": "MTK1165:33CID571050DUS9VHE36WDA08A23LW", "current_trial": 171, "dateTime": 1513265479563, "trialdata": {"rt": [2298, 4140, 6420, 9853, 12107], "recwords": ["couch", "helmet", "custard", "pasta", "pimple"], "type": "FREE_RECALL", "conditions": [24, 1600, "v", 24000], "trial": 4, "trial_type": "free-recall", "trial_index": 171, "time_elapsed": 847044, "internal_node_id": "0.0-126.0-0.0"}}, {"uniqueid": "MTK1165:33CID571050DUS9VHE36WDA08A23LW", "current_trial": 172, "dateTime": 1513265489737, "trialdata": {"rt": 8173, "key_press": 13, "type": "INSTRUCTIONS", "trial_type": "text", "trial_index": 172, "time_elapsed": 857227, "internal_node_id": "0.0-127.0"}}, {"uniqueid": "MTK1165:33CID571050DUS9VHE36WDA08A23LW", "current_trial": 173, "dateTime": 1513265515745, "trialdata": {"rt": [1986, 4380, 9270, 13306, 14677, 16394, 20006, 21650, 23173], "responses": ["11", "7", "23", "21", "12", "11", "22", "18", "12"], "num1": [1, 4, 8, 4, 2, 3, 8, 5, 7, 1], "num2": [3, 2, 7, 9, 9, 4, 8, 5, 2, 5], "num3": [7, 1, 8, 8, 1, 4, 6, 8, 3, 9], "type": "DISTRACTOR", "conditions": [12, 1600, "v", 24000], "trial": 5, "trial_type": "math-distractor", "trial_index": 173, "time_elapsed": 883235, "internal_node_id": "0.0-128.0"}}, {"uniqueid": "MTK1165:33CID571050DUS9VHE36WDA08A23LW", "current_trial": 174, "dateTime": 1513265518748, "trialdata": {"rt": -1, "stimulus": "<p id=\"stim\">10</p>", "key_press": -1, "trial_type": "single-stim", "trial_index": 174, "time_elapsed": 886238, "internal_node_id": "0.0-129.0-0.0"}}, {"uniqueid": "MTK1165:33CID571050DUS9VHE36WDA08A23LW", "current_trial": 175, "dateTime": 1513265519750, "trialdata": {"rt": -1, "stimulus": "<p id=\"stim\">9</p>", "key_press": -1, "trial_type": "single-stim", "trial_index": 175, "time_elapsed": 887240, "internal_node_id": "0.0-129.0-1.0"}}, {"uniqueid": "MTK1165:33CID571050DUS9VHE36WDA08A23LW", "current_trial": 176, "dateTime": 1513265520752, "trialdata": {"rt": -1, "stimulus": "<p id=\"stim\">8</p>", "key_press": -1, "trial_type": "single-stim", "trial_index": 176, "time_elapsed": 888242, "internal_node_id": "0.0-129.0-2.0"}}, {"uniqueid": "MTK1165:33CID571050DUS9VHE36WDA08A23LW", "current_trial": 177, "dateTime": 1513265521755, "trialdata": {"rt": -1, "stimulus": "<p id=\"stim\">7</p>", "key_press": -1, "trial_type": "single-stim", "trial_index": 177, "time_elapsed": 889244, "internal_node_id": "0.0-129.0-3.0"}}, {"uniqueid": "MTK1165:33CID571050DUS9VHE36WDA08A23LW", "current_trial": 178, "dateTime": 1513265522761, "trialdata": {"rt": -1, "stimulus": "<p id=\"stim\">6</p>", "key_press": -1, "trial_type": "single-stim", "trial_index": 178, "time_elapsed": 890247, "internal_node_id": "0.0-129.0-4.0"}}, {"uniqueid": "MTK1165:33CID571050DUS9VHE36WDA08A23LW", "current_trial": 179, "dateTime": 1513265523763, "trialdata": {"rt": -1, "stimulus": "<p id=\"stim\">5</p>", "key_press": -1, "trial_type": "single-stim", "trial_index": 179, "time_elapsed": 891253, "internal_node_id": "0.0-129.0-5.0"}}, {"uniqueid": "MTK1165:33CID571050DUS9VHE36WDA08A23LW", "current_trial": 180, "dateTime": 1513265524765, "trialdata": {"rt": -1, "stimulus": "<p id=\"stim\">4</p>", "key_press": -1, "trial_type": "single-stim", "trial_index": 180, "time_elapsed": 892255, "internal_node_id": "0.0-129.0-6.0"}}, {"uniqueid": "MTK1165:33CID571050DUS9VHE36WDA08A23LW", "current_trial": 181, "dateTime": 1513265525767, "trialdata": {"rt": -1, "stimulus": "<p id=\"stim\">3</p>", "key_press": -1, "trial_type": "single-stim", "trial_index": 181, "time_elapsed": 893257, "internal_node_id": "0.0-129.0-7.0"}}, {"uniqueid": "MTK1165:33CID571050DUS9VHE36WDA08A23LW", "current_trial": 182, "dateTime": 1513265526769, "trialdata": {"rt": -1, "stimulus": "<p id=\"stim\">2</p>", "key_press": -1, "trial_type": "single-stim", "trial_index": 182, "time_elapsed": 894259, "internal_node_id": "0.0-129.0-8.0"}}, {"uniqueid": "MTK1165:33CID571050DUS9VHE36WDA08A23LW", "current_trial": 183, "dateTime": 1513265527772, "trialdata": {"rt": -1, "stimulus": "<p id=\"stim\">1</p>", "key_press": -1, "trial_type": "single-stim", "trial_index": 183, "time_elapsed": 895262, "internal_node_id": "0.0-129.0-9.0"}}, {"uniqueid": "MTK1165:33CID571050DUS9VHE36WDA08A23LW", "current_trial": 184, "dateTime": 1513265529274, "trialdata": {"rt": -1, "stimulus": "<p id=\"stim\">+</p>", "key_press": -1, "type": "FIXATION", "trial_type": "single-stim", "trial_index": 184, "time_elapsed": 896764, "internal_node_id": "0.0-130.0-0.0"}}, {"uniqueid": "MTK1165:33CID571050DUS9VHE36WDA08A23LW", "current_trial": 185, "dateTime": 1513265530877, "trialdata": {"rt": -1, "stimulus": "<p id=\"stim\">LAKE</p>", "key_press": -1, "type": "PRES_VIS", "word": "lake", "wordID": 795, "conditions": [12, 1600, "v", 24000], "trial": 5, "serialpos": 0, "trial_type": "single-stim", "trial_index": 185, "time_elapsed": 898366, "internal_node_id": "0.0-131.0"}}, {"uniqueid": "MTK1165:33CID571050DUS9VHE36WDA08A23LW", "current_trial": 186, "dateTime": 1513265533493, "trialdata": {"rt": -1, "stimulus": "<p id=\"stim\">BEAVER</p>", "key_press": -1, "type": "PRES_VIS", "word": "beaver", "wordID": 108, "conditions": [12, 1600, "v", 24000], "trial": 5, "serialpos": 1, "trial_type": "single-stim", "trial_index": 186, "time_elapsed": 900983, "internal_node_id": "0.0-132.0"}}, {"uniqueid": "MTK1165:33CID571050DUS9VHE36WDA08A23LW", "current_trial": 187, "dateTime": 1513265536049, "trialdata": {"rt": -1, "stimulus": "<p id=\"stim\">JELLY</p>", "key_press": -1, "type": "PRES_VIS", "word": "jelly", "wordID": 754, "conditions": [12, 1600, "v", 24000], "trial": 5, "serialpos": 2, "trial_type": "single-stim", "trial_index": 187, "time_elapsed": 903539, "internal_node_id": "0.0-133.0"}}, {"uniqueid": "MTK1165:33CID571050DUS9VHE36WDA08A23LW", "current_trial": 188, "dateTime": 1513265538779, "trialdata": {"rt": -1, "stimulus": "<p id=\"stim\">EGYPT</p>", "key_press": -1, "type": "PRES_VIS", "word": "egypt", "wordID": 518, "conditions": [12, 1600, "v", 24000], "trial": 5, "serialpos": 3, "trial_type": "single-stim", "trial_index": 188, "time_elapsed": 906269, "internal_node_id": "0.0-134.0"}}, {"uniqueid": "MTK1165:33CID571050DUS9VHE36WDA08A23LW", "current_trial": 189, "dateTime": 1513265541538, "trialdata": {"rt": -1, "stimulus": "<p id=\"stim\">SWIMMER</p>", "key_press": -1, "type": "PRES_VIS", "word": "swimmer", "wordID": 1419, "conditions": [12, 1600, "v", 24000], "trial": 5, "serialpos": 4, "trial_type": "single-stim", "trial_index": 189, "time_elapsed": 909028, "internal_node_id": "0.0-135.0"}}, {"uniqueid": "MTK1165:33CID571050DUS9VHE36WDA08A23LW", "current_trial": 190, "dateTime": 1513265544256, "trialdata": {"rt": -1, "stimulus": "<p id=\"stim\">GLOBE</p>", "key_press": -1, "type": "PRES_VIS", "word": "globe", "wordID": 640, "conditions": [12, 1600, "v", 24000], "trial": 5, "serialpos": 5, "trial_type": "single-stim", "trial_index": 190, "time_elapsed": 911746, "internal_node_id": "0.0-136.0"}}, {"uniqueid": "MTK1165:33CID571050DUS9VHE36WDA08A23LW", "current_trial": 191, "dateTime": 1513265547007, "trialdata": {"rt": -1, "stimulus": "<p id=\"stim\">WORLD</p>", "key_press": -1, "type": "PRES_VIS", "word": "world", "wordID": 1621, "conditions": [12, 1600, "v", 24000], "trial": 5, "serialpos": 6, "trial_type": "single-stim", "trial_index": 191, "time_elapsed": 914497, "internal_node_id": "0.0-137.0"}}, {"uniqueid": "MTK1165:33CID571050DUS9VHE36WDA08A23LW", "current_trial": 192, "dateTime": 1513265549694, "trialdata": {"rt": -1, "stimulus": "<p id=\"stim\">DONOR</p>", "key_press": -1, "type": "PRES_VIS", "word": "donor", "wordID": 484, "conditions": [12, 1600, "v", 24000], "trial": 5, "serialpos": 7, "trial_type": "single-stim", "trial_index": 192, "time_elapsed": 917184, "internal_node_id": "0.0-138.0"}}, {"uniqueid": "MTK1165:33CID571050DUS9VHE36WDA08A23LW", "current_trial": 193, "dateTime": 1513265552433, "trialdata": {"rt": -1, "stimulus": "<p id=\"stim\">SEAFOOD</p>", "key_press": -1, "type": "PRES_VIS", "word": "seafood", "wordID": 1259, "conditions": [12, 1600, "v", 24000], "trial": 5, "serialpos": 8, "trial_type": "single-stim", "trial_index": 193, "time_elapsed": 919923, "internal_node_id": "0.0-139.0"}}, {"uniqueid": "MTK1165:33CID571050DUS9VHE36WDA08A23LW", "current_trial": 194, "dateTime": 1513265554972, "trialdata": {"rt": -1, "stimulus": "<p id=\"stim\">WIFE</p>", "key_press": -1, "type": "PRES_VIS", "word": "wife", "wordID": 1608, "conditions": [12, 1600, "v", 24000], "trial": 5, "serialpos": 9, "trial_type": "single-stim", "trial_index": 194, "time_elapsed": 922462, "internal_node_id": "0.0-140.0"}}, {"uniqueid": "MTK1165:33CID571050DUS9VHE36WDA08A23LW", "current_trial": 195, "dateTime": 1513265557618, "trialdata": {"rt": -1, "stimulus": "<p id=\"stim\">LAVA</p>", "key_press": -1, "type": "PRES_VIS", "word": "lava", "wordID": 803, "conditions": [12, 1600, "v", 24000], "trial": 5, "serialpos": 10, "trial_type": "single-stim", "trial_index": 195, "time_elapsed": 925107, "internal_node_id": "0.0-141.0"}}, {"uniqueid": "MTK1165:33CID571050DUS9VHE36WDA08A23LW", "current_trial": 196, "dateTime": 1513265560161, "trialdata": {"rt": -1, "stimulus": "<p id=\"stim\">DIVER</p>", "key_press": -1, "type": "PRES_VIS", "word": "diver", "wordID": 475, "conditions": [12, 1600, "v", 24000], "trial": 5, "serialpos": 11, "trial_type": "single-stim", "trial_index": 196, "time_elapsed": 927651, "internal_node_id": "0.0-142.0"}}, {"uniqueid": "MTK1165:33CID571050DUS9VHE36WDA08A23LW", "current_trial": 197, "dateTime": 1513265562444, "trialdata": {"rt": -1, "stimulus": "", "key_press": -1, "type": "PRE_RECALL_DELAY", "trial_type": "single-stim", "trial_index": 197, "time_elapsed": 929934, "internal_node_id": "0.0-143.0-0.0"}}, {"uniqueid": "MTK1165:33CID571050DUS9VHE36WDA08A23LW", "current_trial": 198, "dateTime": 1513265562940, "trialdata": {"rt": -1000, "stimulus": "/static/audio/400Hz.wav", "key_press": -1, "type": "PRE_RECALL_ALERT", "trial_type": "single-audio", "trial_index": 198, "time_elapsed": 930430, "internal_node_id": "0.0-144.0"}}, {"uniqueid": "MTK1165:33CID571050DUS9VHE36WDA08A23LW", "current_trial": 199, "dateTime": 1513265622964, "trialdata": {"rt": [5427, 6496, 9037, 11404, 18061, 21171, 32483], "recwords": ["lake", "diver", "beaver", "jelly", "seafood", "lava", "wife"], "type": "FREE_RECALL", "conditions": [12, 1600, "v", 24000], "trial": 5, "trial_type": "free-recall", "trial_index": 199, "time_elapsed": 990445, "internal_node_id": "0.0-145.0-0.0"}}, {"uniqueid": "MTK1165:33CID571050DUS9VHE36WDA08A23LW", "current_trial": 200, "dateTime": 1513265628892, "trialdata": {"rt": 3926, "key_press": 13, "type": "INSTRUCTIONS", "trial_type": "text", "trial_index": 200, "time_elapsed": 996382, "internal_node_id": "0.0-146.0"}}, {"uniqueid": "MTK1165:33CID571050DUS9VHE36WDA08A23LW", "current_trial": 201, "dateTime": 1513265642900, "trialdata": {"rt": [3732, 7346, 9446, 11403], "responses": ["17", "15", "9", "10"], "num1": [9, 6, 2, 7, 9], "num2": [6, 4, 4, 2, 9], "num3": [2, 5, 3, 1, 8], "type": "DISTRACTOR", "conditions": [12, 800, "v", 12000], "trial": 6, "trial_type": "math-distractor", "trial_index": 201, "time_elapsed": 1010390, "internal_node_id": "0.0-147.0"}}, {"uniqueid": "MTK1165:33CID571050DUS9VHE36WDA08A23LW", "current_trial": 202, "dateTime": 1513265645904, "trialdata": {"rt": -1, "stimulus": "<p id=\"stim\">10</p>", "key_press": -1, "trial_type": "single-stim", "trial_index": 202, "time_elapsed": 1013393, "internal_node_id": "0.0-148.0-0.0"}}, {"uniqueid": "MTK1165:33CID571050DUS9VHE36WDA08A23LW", "current_trial": 203, "dateTime": 1513265646907, "trialdata": {"rt": -1, "stimulus": "<p id=\"stim\">9</p>", "key_press": -1, "trial_type": "single-stim", "trial_index": 203, "time_elapsed": 1014396, "internal_node_id": "0.0-148.0-1.0"}}, {"uniqueid": "MTK1165:33CID571050DUS9VHE36WDA08A23LW", "current_trial": 204, "dateTime": 1513265647910, "trialdata": {"rt": -1, "stimulus": "<p id=\"stim\">8</p>", "key_press": -1, "trial_type": "single-stim", "trial_index": 204, "time_elapsed": 1015400, "internal_node_id": "0.0-148.0-2.0"}}, {"uniqueid": "MTK1165:33CID571050DUS9VHE36WDA08A23LW", "current_trial": 205, "dateTime": 1513265648912, "trialdata": {"rt": -1, "stimulus": "<p id=\"stim\">7</p>", "key_press": -1, "trial_type": "single-stim", "trial_index": 205, "time_elapsed": 1016402, "internal_node_id": "0.0-148.0-3.0"}}, {"uniqueid": "MTK1165:33CID571050DUS9VHE36WDA08A23LW", "current_trial": 206, "dateTime": 1513265649915, "trialdata": {"rt": -1, "stimulus": "<p id=\"stim\">6</p>", "key_press": -1, "trial_type": "single-stim", "trial_index": 206, "time_elapsed": 1017405, "internal_node_id": "0.0-148.0-4.0"}}, {"uniqueid": "MTK1165:33CID571050DUS9VHE36WDA08A23LW", "current_trial": 207, "dateTime": 1513265650917, "trialdata": {"rt": -1, "stimulus": "<p id=\"stim\">5</p>", "key_press": -1, "trial_type": "single-stim", "trial_index": 207, "time_elapsed": 1018407, "internal_node_id": "0.0-148.0-5.0"}}, {"uniqueid": "MTK1165:33CID571050DUS9VHE36WDA08A23LW", "current_trial": 208, "dateTime": 1513265651921, "trialdata": {"rt": -1, "stimulus": "<p id=\"stim\">4</p>", "key_press": -1, "trial_type": "single-stim", "trial_index": 208, "time_elapsed": 1019411, "internal_node_id": "0.0-148.0-6.0"}}, {"uniqueid": "MTK1165:33CID571050DUS9VHE36WDA08A23LW", "current_trial": 209, "dateTime": 1513265652924, "trialdata": {"rt": -1, "stimulus": "<p id=\"stim\">3</p>", "key_press": -1, "trial_type": "single-stim", "trial_index": 209, "time_elapsed": 1020413, "internal_node_id": "0.0-148.0-7.0"}}, {"uniqueid": "MTK1165:33CID571050DUS9VHE36WDA08A23LW", "current_trial": 210, "dateTime": 1513265653926, "trialdata": {"rt": -1, "stimulus": "<p id=\"stim\">2</p>", "key_press": -1, "trial_type": "single-stim", "trial_index": 210, "time_elapsed": 1021416, "internal_node_id": "0.0-148.0-8.0"}}, {"uniqueid": "MTK1165:33CID571050DUS9VHE36WDA08A23LW", "current_trial": 211, "dateTime": 1513265654929, "trialdata": {"rt": -1, "stimulus": "<p id=\"stim\">1</p>", "key_press": -1, "trial_type": "single-stim", "trial_index": 211, "time_elapsed": 1022418, "internal_node_id": "0.0-148.0-9.0"}}, {"uniqueid": "MTK1165:33CID571050DUS9VHE36WDA08A23LW", "current_trial": 212, "dateTime": 1513265656431, "trialdata": {"rt": -1, "stimulus": "<p id=\"stim\">+</p>", "key_press": -1, "type": "FIXATION", "trial_type": "single-stim", "trial_index": 212, "time_elapsed": 1023920, "internal_node_id": "0.0-149.0-0.0"}}, {"uniqueid": "MTK1165:33CID571050DUS9VHE36WDA08A23LW", "current_trial": 213, "dateTime": 1513265657235, "trialdata": {"rt": -1, "stimulus": "<p id=\"stim\">MILK</p>", "key_press": -1, "type": "PRES_VIS", "word": "milk", "wordID": 894, "conditions": [12, 800, "v", 12000], "trial": 6, "serialpos": 0, "trial_type": "single-stim", "trial_index": 213, "time_elapsed": 1024725, "internal_node_id": "0.0-150.0"}}, {"uniqueid": "MTK1165:33CID571050DUS9VHE36WDA08A23LW", "current_trial": 214, "dateTime": 1513265658971, "trialdata": {"rt": -1, "stimulus": "<p id=\"stim\">STOMACH</p>", "key_press": -1, "type": "PRES_VIS", "word": "stomach", "wordID": 1383, "conditions": [12, 800, "v", 12000], "trial": 6, "serialpos": 1, "trial_type": "single-stim", "trial_index": 214, "time_elapsed": 1026461, "internal_node_id": "0.0-151.0"}}, {"uniqueid": "MTK1165:33CID571050DUS9VHE36WDA08A23LW", "current_trial": 215, "dateTime": 1513265660878, "trialdata": {"rt": -1, "stimulus": "<p id=\"stim\">PEANUT</p>", "key_press": -1, "type": "PRES_VIS", "word": "peanut", "wordID": 1031, "conditions": [12, 800, "v", 12000], "trial": 6, "serialpos": 2, "trial_type": "single-stim", "trial_index": 215, "time_elapsed": 1028368, "internal_node_id": "0.0-152.0"}}, {"uniqueid": "MTK1165:33CID571050DUS9VHE36WDA08A23LW", "current_trial": 216, "dateTime": 1513265662655, "trialdata": {"rt": -1, "stimulus": "<p id=\"stim\">DORM</p>", "key_press": -1, "type": "PRES_VIS", "word": "dorm", "wordID": 487, "conditions": [12, 800, "v", 12000], "trial": 6, "serialpos": 3, "trial_type": "single-stim", "trial_index": 216, "time_elapsed": 1030144, "internal_node_id": "0.0-153.0"}}, {"uniqueid": "MTK1165:33CID571050DUS9VHE36WDA08A23LW", "current_trial": 217, "dateTime": 1513265664605, "trialdata": {"rt": -1, "stimulus": "<p id=\"stim\">PIGEON</p>", "key_press": -1, "type": "PRES_VIS", "word": "pigeon", "wordID": 1064, "conditions": [12, 800, "v", 12000], "trial": 6, "serialpos": 4, "trial_type": "single-stim", "trial_index": 217, "time_elapsed": 1032095, "internal_node_id": "0.0-154.0"}}, {"uniqueid": "MTK1165:33CID571050DUS9VHE36WDA08A23LW", "current_trial": 218, "dateTime": 1513265666229, "trialdata": {"rt": -1, "stimulus": "<p id=\"stim\">POLICE</p>", "key_press": -1, "type": "PRES_VIS", "word": "police", "wordID": 1097, "conditions": [12, 800, "v", 12000], "trial": 6, "serialpos": 5, "trial_type": "single-stim", "trial_index": 218, "time_elapsed": 1033718, "internal_node_id": "0.0-155.0"}}, {"uniqueid": "MTK1165:33CID571050DUS9VHE36WDA08A23LW", "current_trial": 219, "dateTime": 1513265668003, "trialdata": {"rt": -1, "stimulus": "<p id=\"stim\">HUSBAND</p>", "key_press": -1, "type": "PRES_VIS", "word": "husband", "wordID": 727, "conditions": [12, 800, "v", 12000], "trial": 6, "serialpos": 6, "trial_type": "single-stim", "trial_index": 219, "time_elapsed": 1035493, "internal_node_id": "0.0-156.0"}}, {"uniqueid": "MTK1165:33CID571050DUS9VHE36WDA08A23LW", "current_trial": 220, "dateTime": 1513265669947, "trialdata": {"rt": -1, "stimulus": "<p id=\"stim\">LUGGAGE</p>", "key_press": -1, "type": "PRES_VIS", "word": "luggage", "wordID": 846, "conditions": [12, 800, "v", 12000], "trial": 6, "serialpos": 7, "trial_type": "single-stim", "trial_index": 220, "time_elapsed": 1037437, "internal_node_id": "0.0-157.0"}}, {"uniqueid": "MTK1165:33CID571050DUS9VHE36WDA08A23LW", "current_trial": 221, "dateTime": 1513265671795, "trialdata": {"rt": -1, "stimulus": "<p id=\"stim\">COUNTY</p>", "key_press": -1, "type": "PRES_VIS", "word": "county", "wordID": 388, "conditions": [12, 800, "v", 12000], "trial": 6, "serialpos": 8, "trial_type": "single-stim", "trial_index": 221, "time_elapsed": 1039285, "internal_node_id": "0.0-158.0"}}, {"uniqueid": "MTK1165:33CID571050DUS9VHE36WDA08A23LW", "current_trial": 222, "dateTime": 1513265673497, "trialdata": {"rt": -1, "stimulus": "<p id=\"stim\">COOK</p>", "key_press": -1, "type": "PRES_VIS", "word": "cook", "wordID": 371, "conditions": [12, 800, "v", 12000], "trial": 6, "serialpos": 9, "trial_type": "single-stim", "trial_index": 222, "time_elapsed": 1040987, "internal_node_id": "0.0-159.0"}}, {"uniqueid": "MTK1165:33CID571050DUS9VHE36WDA08A23LW", "current_trial": 223, "dateTime": 1513265675485, "trialdata": {"rt": -1, "stimulus": "<p id=\"stim\">KITCHEN</p>", "key_press": -1, "type": "PRES_VIS", "word": "kitchen", "wordID": 777, "conditions": [12, 800, "v", 12000], "trial": 6, "serialpos": 10, "trial_type": "single-stim", "trial_index": 223, "time_elapsed": 1042975, "internal_node_id": "0.0-160.0"}}, {"uniqueid": "MTK1165:33CID571050DUS9VHE36WDA08A23LW", "current_trial": 224, "dateTime": 1513265677302, "trialdata": {"rt": -1, "stimulus": "<p id=\"stim\">SPOUSE</p>", "key_press": -1, "type": "PRES_VIS", "word": "spouse", "wordID": 1357, "conditions": [12, 800, "v", 12000], "trial": 6, "serialpos": 11, "trial_type": "single-stim", "trial_index": 224, "time_elapsed": 1044792, "internal_node_id": "0.0-161.0"}}, {"uniqueid": "MTK1165:33CID571050DUS9VHE36WDA08A23LW", "current_trial": 225, "dateTime": 1513265679611, "trialdata": {"rt": -1, "stimulus": "", "key_press": -1, "type": "PRE_RECALL_DELAY", "trial_type": "single-stim", "trial_index": 225, "time_elapsed": 1047101, "internal_node_id": "0.0-162.0-0.0"}}, {"uniqueid": "MTK1165:33CID571050DUS9VHE36WDA08A23LW", "current_trial": 226, "dateTime": 1513265680120, "trialdata": {"rt": -1000, "stimulus": "/static/audio/400Hz.wav", "key_press": -1, "type": "PRE_RECALL_ALERT", "trial_type": "single-audio", "trial_index": 226, "time_elapsed": 1047610, "internal_node_id": "0.0-163.0"}}, {"uniqueid": "MTK1165:33CID571050DUS9VHE36WDA08A23LW", "current_trial": 227, "dateTime": 1513265740133, "trialdata": {"rt": [20862, 23460, 26283, 34087, 36670, 38198], "recwords": ["kitchen", "luggage", "county", "milk", "stomach", "peanut"], "type": "FREE_RECALL", "conditions": [12, 800, "v", 12000], "trial": 6, "trial_type": "free-recall", "trial_index": 227, "time_elapsed": 1107615, "internal_node_id": "0.0-164.0-0.0"}}, {"uniqueid": "MTK1165:33CID571050DUS9VHE36WDA08A23LW", "current_trial": 228, "dateTime": 1513265757480, "trialdata": {"rt": 15343, "key_press": 13, "type": "INSTRUCTIONS", "trial_type": "text", "trial_index": 228, "time_elapsed": 1124970, "internal_node_id": "0.0-165.0"}}, {"uniqueid": "MTK1165:33CID571050DUS9VHE36WDA08A23LW", "current_trial": 229, "dateTime": 1513265771488, "trialdata": {"rt": [1727, 4525, 7352, 9865], "responses": ["10", "15", "12", "22"], "num1": [1, 8, 2, 5, 9], "num2": [4, 3, 4, 8, 3], "num3": [5, 4, 6, 8, 3], "type": "DISTRACTOR", "conditions": [12, 800, "a", 12000], "trial": 7, "trial_type": "math-distractor", "trial_index": 229, "time_elapsed": 1138978, "internal_node_id": "0.0-166.0"}}, {"uniqueid": "MTK1165:33CID571050DUS9VHE36WDA08A23LW", "current_trial": 230, "dateTime": 1513265774490, "trialdata": {"rt": -1, "stimulus": "<p id=\"stim\">10</p>", "key_press": -1, "trial_type": "single-stim", "trial_index": 230, "time_elapsed": 1141980, "internal_node_id": "0.0-167.0-0.0"}}, {"uniqueid": "MTK1165:33CID571050DUS9VHE36WDA08A23LW", "current_trial": 231, "dateTime": 1513265775493, "trialdata": {"rt": -1, "stimulus": "<p id=\"stim\">9</p>", "key_press": -1, "trial_type": "single-stim", "trial_index": 231, "time_elapsed": 1142983, "internal_node_id": "0.0-167.0-1.0"}}, {"uniqueid": "MTK1165:33CID571050DUS9VHE36WDA08A23LW", "current_trial": 232, "dateTime": 1513265776495, "trialdata": {"rt": -1, "stimulus": "<p id=\"stim\">8</p>", "key_press": -1, "trial_type": "single-stim", "trial_index": 232, "time_elapsed": 1143985, "internal_node_id": "0.0-167.0-2.0"}}, {"uniqueid": "MTK1165:33CID571050DUS9VHE36WDA08A23LW", "current_trial": 233, "dateTime": 1513265777498, "trialdata": {"rt": -1, "stimulus": "<p id=\"stim\">7</p>", "key_press": -1, "trial_type": "single-stim", "trial_index": 233, "time_elapsed": 1144988, "internal_node_id": "0.0-167.0-3.0"}}, {"uniqueid": "MTK1165:33CID571050DUS9VHE36WDA08A23LW", "current_trial": 234, "dateTime": 1513265778500, "trialdata": {"rt": -1, "stimulus": "<p id=\"stim\">6</p>", "key_press": -1, "trial_type": "single-stim", "trial_index": 234, "time_elapsed": 1145990, "internal_node_id": "0.0-167.0-4.0"}}, {"uniqueid": "MTK1165:33CID571050DUS9VHE36WDA08A23LW", "current_trial": 235, "dateTime": 1513265779503, "trialdata": {"rt": -1, "stimulus": "<p id=\"stim\">5</p>", "key_press": -1, "trial_type": "single-stim", "trial_index": 235, "time_elapsed": 1146993, "internal_node_id": "0.0-167.0-5.0"}}, {"uniqueid": "MTK1165:33CID571050DUS9VHE36WDA08A23LW", "current_trial": 236, "dateTime": 1513265780505, "trialdata": {"rt": -1, "stimulus": "<p id=\"stim\">4</p>", "key_press": -1, "trial_type": "single-stim", "trial_index": 236, "time_elapsed": 1147995, "internal_node_id": "0.0-167.0-6.0"}}, {"uniqueid": "MTK1165:33CID571050DUS9VHE36WDA08A23LW", "current_trial": 237, "dateTime": 1513265781508, "trialdata": {"rt": -1, "stimulus": "<p id=\"stim\">3</p>", "key_press": -1, "trial_type": "single-stim", "trial_index": 237, "time_elapsed": 1148998, "internal_node_id": "0.0-167.0-7.0"}}, {"uniqueid": "MTK1165:33CID571050DUS9VHE36WDA08A23LW", "current_trial": 238, "dateTime": 1513265782511, "trialdata": {"rt": -1, "stimulus": "<p id=\"stim\">2</p>", "key_press": -1, "trial_type": "single-stim", "trial_index": 238, "time_elapsed": 1150001, "internal_node_id": "0.0-167.0-8.0"}}, {"uniqueid": "MTK1165:33CID571050DUS9VHE36WDA08A23LW", "current_trial": 239, "dateTime": 1513265783514, "trialdata": {"rt": -1, "stimulus": "<p id=\"stim\">1</p>", "key_press": -1, "trial_type": "single-stim", "trial_index": 239, "time_elapsed": 1151004, "internal_node_id": "0.0-167.0-9.0"}}, {"uniqueid": "MTK1165:33CID571050DUS9VHE36WDA08A23LW", "current_trial": 240, "dateTime": 1513265785016, "trialdata": {"rt": -1, "stimulus": "<p id=\"stim\">+</p>", "key_press": -1, "type": "FIXATION", "trial_type": "single-stim", "trial_index": 240, "time_elapsed": 1152506, "internal_node_id": "0.0-168.0-0.0"}}, {"uniqueid": "MTK1165:33CID571050DUS9VHE36WDA08A23LW", "current_trial": 241, "dateTime": 1513265786930, "trialdata": {"rt": -1000, "stimulus": "/static/audio/wordpool/OUTFIT.wav", "key_press": -1, "type": "PRES_AUD", "word": "outfit", "wordID": 987, "conditions": [12, 800, "a", 12000], "trial": 7, "serialpos": 0, "trial_type": "single-audio", "trial_index": 241, "time_elapsed": 1154420, "internal_node_id": "0.0-169.0"}}, {"uniqueid": "MTK1165:33CID571050DUS9VHE36WDA08A23LW", "current_trial": 242, "dateTime": 1513265788930, "trialdata": {"rt": -1000, "stimulus": "/static/audio/wordpool/NAPKIN.wav", "key_press": -1, "type": "PRES_AUD", "word": "napkin", "wordID": 936, "conditions": [12, 800, "a", 12000], "trial": 7, "serialpos": 1, "trial_type": "single-audio", "trial_index": 242, "time_elapsed": 1156420, "internal_node_id": "0.0-170.0"}}, {"uniqueid": "MTK1165:33CID571050DUS9VHE36WDA08A23LW", "current_trial": 243, "dateTime": 1513265790757, "trialdata": {"rt": -1000, "stimulus": "/static/audio/wordpool/DRESS.wav", "key_press": -1, "type": "PRES_AUD", "word": "dress", "wordID": 494, "conditions": [12, 800, "a", 12000], "trial": 7, "serialpos": 2, "trial_type": "single-audio", "trial_index": 243, "time_elapsed": 1158247, "internal_node_id": "0.0-171.0"}}, {"uniqueid": "MTK1165:33CID571050DUS9VHE36WDA08A23LW", "current_trial": 244, "dateTime": 1513265792712, "trialdata": {"rt": -1000, "stimulus": "/static/audio/wordpool/TROMBONE.wav", "key_press": -1, "type": "PRES_AUD", "word": "trombone", "wordID": 1507, "conditions": [12, 800, "a", 12000], "trial": 7, "serialpos": 3, "trial_type": "single-audio", "trial_index": 244, "time_elapsed": 1160202, "internal_node_id": "0.0-172.0"}}, {"uniqueid": "MTK1165:33CID571050DUS9VHE36WDA08A23LW", "current_trial": 245, "dateTime": 1513265794545, "trialdata": {"rt": -1000, "stimulus": "/static/audio/wordpool/WINDOW.wav", "key_press": -1, "type": "PRES_AUD", "word": "window", "wordID": 1610, "conditions": [12, 800, "a", 12000], "trial": 7, "serialpos": 4, "trial_type": "single-audio", "trial_index": 245, "time_elapsed": 1162035, "internal_node_id": "0.0-173.0"}}, {"uniqueid": "MTK1165:33CID571050DUS9VHE36WDA08A23LW", "current_trial": 246, "dateTime": 1513265796532, "trialdata": {"rt": -1000, "stimulus": "/static/audio/wordpool/LEG.wav", "key_press": -1, "type": "PRES_AUD", "word": "leg", "wordID": 808, "conditions": [12, 800, "a", 12000], "trial": 7, "serialpos": 5, "trial_type": "single-audio", "trial_index": 246, "time_elapsed": 1164022, "internal_node_id": "0.0-174.0"}}, {"uniqueid": "MTK1165:33CID571050DUS9VHE36WDA08A23LW", "current_trial": 247, "dateTime": 1513265798435, "trialdata": {"rt": -1000, "stimulus": "/static/audio/wordpool/WRIST.wav", "key_press": -1, "type": "PRES_AUD", "word": "wrist", "wordID": 1625, "conditions": [12, 800, "a", 12000], "trial": 7, "serialpos": 6, "trial_type": "single-audio", "trial_index": 247, "time_elapsed": 1165925, "internal_node_id": "0.0-175.0"}}, {"uniqueid": "MTK1165:33CID571050DUS9VHE36WDA08A23LW", "current_trial": 248, "dateTime": 1513265800192, "trialdata": {"rt": -1000, "stimulus": "/static/audio/wordpool/SHOULDER.wav", "key_press": -1, "type": "PRES_AUD", "word": "shoulder", "wordID": 1293, "conditions": [12, 800, "a", 12000], "trial": 7, "serialpos": 7, "trial_type": "single-audio", "trial_index": 248, "time_elapsed": 1167682, "internal_node_id": "0.0-176.0"}}, {"uniqueid": "MTK1165:33CID571050DUS9VHE36WDA08A23LW", "current_trial": 249, "dateTime": 1513265801947, "trialdata": {"rt": -1000, "stimulus": "/static/audio/wordpool/TOURIST.wav", "key_press": -1, "type": "PRES_AUD", "word": "tourist", "wordID": 1487, "conditions": [12, 800, "a", 12000], "trial": 7, "serialpos": 8, "trial_type": "single-audio", "trial_index": 249, "time_elapsed": 1169437, "internal_node_id": "0.0-177.0"}}, {"uniqueid": "MTK1165:33CID571050DUS9VHE36WDA08A23LW", "current_trial": 250, "dateTime": 1513265803917, "trialdata": {"rt": -1000, "stimulus": "/static/audio/wordpool/TUBA.wav", "key_press": -1, "type": "PRES_AUD", "word": "tuba", "wordID": 1514, "conditions": [12, 800, "a", 12000], "trial": 7, "serialpos": 9, "trial_type": "single-audio", "trial_index": 250, "time_elapsed": 1171407, "internal_node_id": "0.0-178.0"}}, {"uniqueid": "MTK1165:33CID571050DUS9VHE36WDA08A23LW", "current_trial": 251, "dateTime": 1513265805632, "trialdata": {"rt": -1000, "stimulus": "/static/audio/wordpool/LABEL.wav", "key_press": -1, "type": "PRES_AUD", "word": "label", "wordID": 789, "conditions": [12, 800, "a", 12000], "trial": 7, "serialpos": 10, "trial_type": "single-audio", "trial_index": 251, "time_elapsed": 1173122, "internal_node_id": "0.0-179.0"}}, {"uniqueid": "MTK1165:33CID571050DUS9VHE36WDA08A23LW", "current_trial": 252, "dateTime": 1513265807442, "trialdata": {"rt": -1000, "stimulus": "/static/audio/wordpool/NECKLACE.wav", "key_press": -1, "type": "PRES_AUD", "word": "necklace", "wordID": 939, "conditions": [12, 800, "a", 12000], "trial": 7, "serialpos": 11, "trial_type": "single-audio", "trial_index": 252, "time_elapsed": 1174932, "internal_node_id": "0.0-180.0"}}, {"uniqueid": "MTK1165:33CID571050DUS9VHE36WDA08A23LW", "current_trial": 253, "dateTime": 1513265808795, "trialdata": {"rt": -1, "stimulus": "", "key_press": -1, "type": "PRE_RECALL_DELAY", "trial_type": "single-stim", "trial_index": 253, "time_elapsed": 1176285, "internal_node_id": "0.0-181.0-0.0"}}, {"uniqueid": "MTK1165:33CID571050DUS9VHE36WDA08A23LW", "current_trial": 254, "dateTime": 1513265809300, "trialdata": {"rt": -1000, "stimulus": "/static/audio/400Hz.wav", "key_press": -1, "type": "PRE_RECALL_ALERT", "trial_type": "single-audio", "trial_index": 254, "time_elapsed": 1176790, "internal_node_id": "0.0-182.0"}}, {"uniqueid": "MTK1165:33CID571050DUS9VHE36WDA08A23LW", "current_trial": 255, "dateTime": 1513265869317, "trialdata": {"rt": [3055, 5835, 8962, 22992, 29555, 35379], "recwords": ["tourist", "tuba", "necklace", "napkin", "window", "shoulder"], "type": "FREE_RECALL", "conditions": [12, 800, "a", 12000], "trial": 7, "trial_type": "free-recall", "trial_index": 255, "time_elapsed": 1236794, "internal_node_id": "0.0-183.0-0.0"}}, {"uniqueid": "MTK1165:33CID571050DUS9VHE36WDA08A23LW", "current_trial": 256, "dateTime": 1513265873879, "trialdata": {"rt": 2560, "key_press": 13, "type": "INSTRUCTIONS", "trial_type": "text", "trial_index": 256, "time_elapsed": 1241369, "internal_node_id": "0.0-184.0"}}, {"uniqueid": "MTK1165:33CID571050DUS9VHE36WDA08A23LW", "current_trial": 257, "dateTime": 1513265887887, "trialdata": {"rt": [1430, 3725, 7575, 9238, 11920], "responses": ["11", "18", "19", "8", "15"], "num1": [7, 7, 6, 3, 4, 6], "num2": [3, 7, 7, 3, 8, 5], "num3": [1, 4, 6, 2, 3, 8], "type": "DISTRACTOR", "conditions": [24, 1600, "v", 12000], "trial": 8, "trial_type": "math-distractor", "trial_index": 257, "time_elapsed": 1255377, "internal_node_id": "0.0-185.0"}}, {"uniqueid": "MTK1165:33CID571050DUS9VHE36WDA08A23LW", "current_trial": 258, "dateTime": 1513265890892, "trialdata": {"rt": -1, "stimulus": "<p id=\"stim\">10</p>", "key_press": -1, "trial_type": "single-stim", "trial_index": 258, "time_elapsed": 1258382, "internal_node_id": "0.0-186.0-0.0"}}, {"uniqueid": "MTK1165:33CID571050DUS9VHE36WDA08A23LW", "current_trial": 259, "dateTime": 1513265891894, "trialdata": {"rt": -1, "stimulus": "<p id=\"stim\">9</p>", "key_press": -1, "trial_type": "single-stim", "trial_index": 259, "time_elapsed": 1259384, "internal_node_id": "0.0-186.0-1.0"}}, {"uniqueid": "MTK1165:33CID571050DUS9VHE36WDA08A23LW", "current_trial": 260, "dateTime": 1513265892897, "trialdata": {"rt": -1, "stimulus": "<p id=\"stim\">8</p>", "key_press": -1, "trial_type": "single-stim", "trial_index": 260, "time_elapsed": 1260387, "internal_node_id": "0.0-186.0-2.0"}}, {"uniqueid": "MTK1165:33CID571050DUS9VHE36WDA08A23LW", "current_trial": 261, "dateTime": 1513265893899, "trialdata": {"rt": -1, "stimulus": "<p id=\"stim\">7</p>", "key_press": -1, "trial_type": "single-stim", "trial_index": 261, "time_elapsed": 1261389, "internal_node_id": "0.0-186.0-3.0"}}, {"uniqueid": "MTK1165:33CID571050DUS9VHE36WDA08A23LW", "current_trial": 262, "dateTime": 1513265894902, "trialdata": {"rt": -1, "stimulus": "<p id=\"stim\">6</p>", "key_press": -1, "trial_type": "single-stim", "trial_index": 262, "time_elapsed": 1262392, "internal_node_id": "0.0-186.0-4.0"}}, {"uniqueid": "MTK1165:33CID571050DUS9VHE36WDA08A23LW", "current_trial": 263, "dateTime": 1513265895904, "trialdata": {"rt": -1, "stimulus": "<p id=\"stim\">5</p>", "key_press": -1, "trial_type": "single-stim", "trial_index": 263, "time_elapsed": 1263394, "internal_node_id": "0.0-186.0-5.0"}}, {"uniqueid": "MTK1165:33CID571050DUS9VHE36WDA08A23LW", "current_trial": 264, "dateTime": 1513265896907, "trialdata": {"rt": -1, "stimulus": "<p id=\"stim\">4</p>", "key_press": -1, "trial_type": "single-stim", "trial_index": 264, "time_elapsed": 1264397, "internal_node_id": "0.0-186.0-6.0"}}, {"uniqueid": "MTK1165:33CID571050DUS9VHE36WDA08A23LW", "current_trial": 265, "dateTime": 1513265897909, "trialdata": {"rt": -1, "stimulus": "<p id=\"stim\">3</p>", "key_press": -1, "trial_type": "single-stim", "trial_index": 265, "time_elapsed": 1265399, "internal_node_id": "0.0-186.0-7.0"}}, {"uniqueid": "MTK1165:33CID571050DUS9VHE36WDA08A23LW", "current_trial": 266, "dateTime": 1513265898912, "trialdata": {"rt": -1, "stimulus": "<p id=\"stim\">2</p>", "key_press": -1, "trial_type": "single-stim", "trial_index": 266, "time_elapsed": 1266402, "internal_node_id": "0.0-186.0-8.0"}}, {"uniqueid": "MTK1165:33CID571050DUS9VHE36WDA08A23LW", "current_trial": 267, "dateTime": 1513265899914, "trialdata": {"rt": -1, "stimulus": "<p id=\"stim\">1</p>", "key_press": -1, "trial_type": "single-stim", "trial_index": 267, "time_elapsed": 1267404, "internal_node_id": "0.0-186.0-9.0"}}, {"uniqueid": "MTK1165:33CID571050DUS9VHE36WDA08A23LW", "current_trial": 268, "dateTime": 1513265901417, "trialdata": {"rt": -1, "stimulus": "<p id=\"stim\">+</p>", "key_press": -1, "type": "FIXATION", "trial_type": "single-stim", "trial_index": 268, "time_elapsed": 1268907, "internal_node_id": "0.0-187.0-0.0"}}, {"uniqueid": "MTK1165:33CID571050DUS9VHE36WDA08A23LW", "current_trial": 269, "dateTime": 1513265903027, "trialdata": {"rt": -1, "stimulus": "<p id=\"stim\">MOTOR</p>", "key_press": -1, "type": "PRES_VIS", "word": "motor", "wordID": 921, "conditions": [24, 1600, "v", 12000], "trial": 8, "serialpos": 0, "trial_type": "single-stim", "trial_index": 269, "time_elapsed": 1270517, "internal_node_id": "0.0-188.0"}}, {"uniqueid": "MTK1165:33CID571050DUS9VHE36WDA08A23LW", "current_trial": 270, "dateTime": 1513265905522, "trialdata": {"rt": -1, "stimulus": "<p id=\"stim\">STICKER</p>", "key_press": -1, "type": "PRES_VIS", "word": "sticker", "wordID": 1381, "conditions": [24, 1600, "v", 12000], "trial": 8, "serialpos": 1, "trial_type": "single-stim", "trial_index": 270, "time_elapsed": 1273012, "internal_node_id": "0.0-189.0"}}, {"uniqueid": "MTK1165:33CID571050DUS9VHE36WDA08A23LW", "current_trial": 271, "dateTime": 1513265908122, "trialdata": {"rt": -1, "stimulus": "<p id=\"stim\">CUPBOARD</p>", "key_press": -1, "type": "PRES_VIS", "word": "cupboard", "wordID": 424, "conditions": [24, 1600, "v", 12000], "trial": 8, "serialpos": 2, "trial_type": "single-stim", "trial_index": 271, "time_elapsed": 1275612, "internal_node_id": "0.0-190.0"}}, {"uniqueid": "MTK1165:33CID571050DUS9VHE36WDA08A23LW", "current_trial": 272, "dateTime": 1513265910794, "trialdata": {"rt": -1, "stimulus": "<p id=\"stim\">WRENCH</p>", "key_press": -1, "type": "PRES_VIS", "word": "wrench", "wordID": 1624, "conditions": [24, 1600, "v", 12000], "trial": 8, "serialpos": 3, "trial_type": "single-stim", "trial_index": 272, "time_elapsed": 1278284, "internal_node_id": "0.0-191.0"}}, {"uniqueid": "MTK1165:33CID571050DUS9VHE36WDA08A23LW", "current_trial": 273, "dateTime": 1513265913369, "trialdata": {"rt": -1, "stimulus": "<p id=\"stim\">BADGE</p>", "key_press": -1, "type": "PRES_VIS", "word": "badge", "wordID": 67, "conditions": [24, 1600, "v", 12000], "trial": 8, "serialpos": 4, "trial_type": "single-stim", "trial_index": 273, "time_elapsed": 1280859, "internal_node_id": "0.0-192.0"}}, {"uniqueid": "MTK1165:33CID571050DUS9VHE36WDA08A23LW", "current_trial": 274, "dateTime": 1513265915967, "trialdata": {"rt": -1, "stimulus": "<p id=\"stim\">CROSS</p>", "key_press": -1, "type": "PRES_VIS", "word": "cross", "wordID": 412, "conditions": [24, 1600, "v", 12000], "trial": 8, "serialpos": 5, "trial_type": "single-stim", "trial_index": 274, "time_elapsed": 1283457, "internal_node_id": "0.0-193.0"}}, {"uniqueid": "MTK1165:33CID571050DUS9VHE36WDA08A23LW", "current_trial": 275, "dateTime": 1513265918457, "trialdata": {"rt": -1, "stimulus": "<p id=\"stim\">VELVET</p>", "key_press": -1, "type": "PRES_VIS", "word": "velvet", "wordID": 1554, "conditions": [24, 1600, "v", 12000], "trial": 8, "serialpos": 6, "trial_type": "single-stim", "trial_index": 275, "time_elapsed": 1285947, "internal_node_id": "0.0-194.0"}}, {"uniqueid": "MTK1165:33CID571050DUS9VHE36WDA08A23LW", "current_trial": 276, "dateTime": 1513265920874, "trialdata": {"rt": -1, "stimulus": "<p id=\"stim\">DOLPHIN</p>", "key_press": -1, "type": "PRES_VIS", "word": "dolphin", "wordID": 482, "conditions": [24, 1600, "v", 12000], "trial": 8, "serialpos": 7, "trial_type": "single-stim", "trial_index": 276, "time_elapsed": 1288364, "internal_node_id": "0.0-195.0"}}, {"uniqueid": "MTK1165:33CID571050DUS9VHE36WDA08A23LW", "current_trial": 277, "dateTime": 1513265