{"assignmentId": "3RU7GD8VPP075U98ZLXEL2RW9YNSPW", "workerId": "MTK1968", "questiondata": {"origin": "United States", "strat-rehearsal": "98", "marital": "Married/Domestic Partnership", "education": "High school diploma", "ethnicity": "Not Hispanic", "color_depth": 24, "distracted": "No", "wrote-notes": "No", "strat-other": "", "screen_width": 1366, "avail_screen_width": 1366, "avail_screen_height": 728, "strat-image": "37", "language": "English", "gender": "Female", "age": "50", "gender_other": "", "race": ["White"], "strat-categorize": "5", "pixel_depth": 24, "strat-spatial": "1", "strat-story": "6", "race_other": "", "screen_height": 768}, "bonus": 0, "hitId": "3JYPJ2TAYIFWE56S3ZSDPJCX2X4PF6", "counterbalance": 843, "useragent": "Mozilla/5.0 (Windows NT 10.0; Win64; x64) AppleWebKit/537.36 (KHTML, like Gecko) Chrome/63.0.3239.132 Safari/537.36", "eventdata": [{"eventtype": "initialized", "interval": 0, "value": null, "timestamp": 1516640309725}, {"eventtype": "window_resize", "interval": 0, "value": [1366, 721], "timestamp": 1516640309725}, {"eventtype": "focus", "interval": 45354, "value": "off", "timestamp": 1516640355079}, {"eventtype": "focus", "interval": 357819, "value": "on", "timestamp": 1516640712898}, {"eventtype": "focus", "interval": 607339, "value": "off", "timestamp": 1516641320237}, {"eventtype": "focus", "interval": 3482, "value": "on", "timestamp": 1516641323719}, {"eventtype": "focus", "interval": 3, "value": "on", "timestamp": 1516641323722}, {"eventtype": "window_resize", "interval": 321825, "value": [1707, 901], "timestamp": 1516641645547}, {"eventtype": "focus", "interval": 510, "value": "off", "timestamp": 1516641646057}, {"eventtype": "focus", "interval": 4078, "value": "on", "timestamp": 1516641650135}, {"eventtype": "focus", "interval": 404005, "value": "off", "timestamp": 1516642054140}, {"eventtype": "focus", "interval": 23693, "value": "on", "timestamp": 1516642077833}, {"eventtype": "focus", "interval": 1545563, "value": "off", "timestamp": 1516643623396}, {"eventtype": "focus", "interval": 3068, "value": "on", "timestamp": 1516643626464}], "data": [{"current_trial": 0, "trialdata": {"rt": 350389, "trial_type": "text", "internal_node_id": "0.0-0.0", "time_elapsed": 350394, "key_press": 32, "type": "INSTRUCTIONS", "trial_index": 0}, "uniqueid": "MTK1968:3RU7GD8VPP075U98ZLXEL2RW9YNSPW", "dateTime": 1516640714957}, {"current_trial": 1, "trialdata": {"rt": 44996, "trial_type": "text", "internal_node_id": "0.0-1.0", "time_elapsed": 395396, "key_press": 32, "type": "INSTRUCTIONS", "trial_index": 1}, "uniqueid": "MTK1968:3RU7GD8VPP075U98ZLXEL2RW9YNSPW", "dateTime": 1516640759957}, {"current_trial": 2, "trialdata": {"rt": [7129], "trial_type": "audio-test", "responses": ["ocean"], "internal_node_id": "0.0-2.0", "time_elapsed": 402601, "type": "AUDIO_TEST", "trial_index": 2}, "uniqueid": "MTK1968:3RU7GD8VPP075U98ZLXEL2RW9YNSPW", "dateTime": 1516640767162}, {"current_trial": 3, "trialdata": {"rt": [10256], "trial_type": "audio-test", "responses": ["crystal"], "internal_node_id": "0.0-3.0", "time_elapsed": 412868, "type": "AUDIO_TEST", "trial_index": 3}, "uniqueid": "MTK1968:3RU7GD8VPP075U98ZLXEL2RW9YNSPW", "dateTime": 1516640777429}, {"current_trial": 4, "trialdata": {"rt": [11146], "trial_type": "audio-test", "responses": ["spice"], "internal_node_id": "0.0-4.0", "time_elapsed": 424023, "type": "AUDIO_TEST", "trial_index": 4}, "uniqueid": "MTK1968:3RU7GD8VPP075U98ZLXEL2RW9YNSPW", "dateTime": 1516640788584}, {"current_trial": 5, "trialdata": {"rt": 27592, "trial_type": "survey-text", "responses": "{\"Q0\":\"9:30 p.m.\",\"Q1\":\"5:05 a.m.\",\"Q2\":\"5\"}", "internal_node_id": "0.0-5.0", "time_elapsed": 452378, "type": "SLEEP_SURVEY", "trial_index": 5}, "uniqueid": "MTK1968:3RU7GD8VPP075U98ZLXEL2RW9YNSPW", "dateTime": 1516640816939}, {"current_trial": 6, "trialdata": {"rt": 88134, "trial_type": "text", "internal_node_id": "0.0-6.0", "time_elapsed": 541519, "key_press": 13, "type": "INSTRUCTIONS", "trial_index": 6}, "uniqueid": "MTK1968:3RU7GD8VPP075U98ZLXEL2RW9YNSPW", "dateTime": 1516640906080}, {"current_trial": 7, "trialdata": {"rt": 31801, "trial_type": "text", "internal_node_id": "0.0-7.0", "time_elapsed": 573839, "key_press": 13, "type": "INSTRUCTIONS", "trial_index": 7}, "uniqueid": "MTK1968:3RU7GD8VPP075U98ZLXEL2RW9YNSPW", "dateTime": 1516640938400}, {"current_trial": 8, "trialdata": {"rt": 13477, "trial_type": "text", "internal_node_id": "0.0-8.0", "time_elapsed": 587834, "key_press": 13, "type": "INSTRUCTIONS", "trial_index": 8}, "uniqueid": "MTK1968:3RU7GD8VPP075U98ZLXEL2RW9YNSPW", "dateTime": 1516640952395}, {"current_trial": 9, "trialdata": {"rt": [4175, 6764, 8642, 13069, 16029], "trial_type": "math-distractor", "key_times": [3272, 3738, 4175, 6344, 6544, 6764, 8203, 8642, 11103, 12203, 12474, 12703, 13069, 15461, 15697, 16029, 17832], "responses": ["18", "22", "8", "24", "19"], "num2": [3, 4, 5, 8, 6, 5], "num3": [7, 9, 1, 8, 6, 7], "conditions": [18, 1200, "a", 18000], "internal_node_id": "0.0-9.0", "key_presses": [49, 56, 13, 50, 50, 13, 56, 13, 52, 8, 50, 52, 13, 49, 57, 13, 51], "trial": 0, "time_elapsed": 606904, "type": "DISTRACTOR", "trial_index": 9, "num1": [8, 8, 2, 8, 7, 8]}, "uniqueid": "MTK1968:3RU7GD8VPP075U98ZLXEL2RW9YNSPW", "dateTime": 1516640971465}, {"current_trial": 10, "trialdata": {"rt": -1, "trial_type": "single-stim", "stimulus": "<p id=\"stim\">10</p>", "internal_node_id": "0.0-10.0-0.0", "time_elapsed": 609935, "key_press": -1, "trial_index": 10}, "uniqueid": "MTK1968:3RU7GD8VPP075U98ZLXEL2RW9YNSPW", "dateTime": 1516640974497}, {"current_trial": 11, "trialdata": {"rt": -1, "trial_type": "single-stim", "stimulus": "<p id=\"stim\">9</p>", "internal_node_id": "0.0-10.0-1.0", "time_elapsed": 610938, "key_press": -1, "trial_index": 11}, "uniqueid": "MTK1968:3RU7GD8VPP075U98ZLXEL2RW9YNSPW", "dateTime": 1516640975500}, {"current_trial": 12, "trialdata": {"rt": -1, "trial_type": "single-stim", "stimulus": "<p id=\"stim\">8</p>", "internal_node_id": "0.0-10.0-2.0", "time_elapsed": 611960, "key_press": -1, "trial_index": 12}, "uniqueid": "MTK1968:3RU7GD8VPP075U98ZLXEL2RW9YNSPW", "dateTime": 1516640976521}, {"current_trial": 13, "trialdata": {"rt": -1, "trial_type": "single-stim", "stimulus": "<p id=\"stim\">7</p>", "internal_node_id": "0.0-10.0-3.0", "time_elapsed": 612962, "key_press": -1, "trial_index": 13}, "uniqueid": "MTK1968:3RU7GD8VPP075U98ZLXEL2RW9YNSPW", "dateTime": 1516640977524}, {"current_trial": 14, "trialdata": {"rt": -1, "trial_type": "single-stim", "stimulus": "<p id=\"stim\">6</p>", "internal_node_id": "0.0-10.0-4.0", "time_elapsed": 613965, "key_press": -1, "trial_index": 14}, "uniqueid": "MTK1968:3RU7GD8VPP075U98ZLXEL2RW9YNSPW", "dateTime": 1516640978526}, {"current_trial": 15, "trialdata": {"rt": -1, "trial_type": "single-stim", "stimulus": "<p id=\"stim\">5</p>", "internal_node_id": "0.0-10.0-5.0", "time_elapsed": 614994, "key_press": -1, "trial_index": 15}, "uniqueid": "MTK1968:3RU7GD8VPP075U98ZLXEL2RW9YNSPW", "dateTime": 1516640979555}, {"current_trial": 16, "trialdata": {"rt": -1, "trial_type": "single-stim", "stimulus": "<p id=\"stim\">4</p>", "internal_node_id": "0.0-10.0-6.0", "time_elapsed": 616000, "key_press": -1, "trial_index": 16}, "uniqueid": "MTK1968:3RU7GD8VPP075U98ZLXEL2RW9YNSPW", "dateTime": 1516640980561}, {"current_trial": 17, "trialdata": {"rt": -1, "trial_type": "single-stim", "stimulus": "<p id=\"stim\">3</p>", "internal_node_id": "0.0-10.0-7.0", "time_elapsed": 617009, "key_press": -1, "trial_index": 17}, "uniqueid": "MTK1968:3RU7GD8VPP075U98ZLXEL2RW9YNSPW", "dateTime": 1516640981570}, {"current_trial": 18, "trialdata": {"rt": -1, "trial_type": "single-stim", "stimulus": "<p id=\"stim\">2</p>", "internal_node_id": "0.0-10.0-8.0", "time_elapsed": 618049, "key_press": -1, "trial_index": 18}, "uniqueid": "MTK1968:3RU7GD8VPP075U98ZLXEL2RW9YNSPW", "dateTime": 1516640982610}, {"current_trial": 19, "trialdata": {"rt": -1, "trial_type": "single-stim", "stimulus": "<p id=\"stim\">1</p>", "internal_node_id": "0.0-10.0-9.0", "time_elapsed": 619051, "key_press": -1, "trial_index": 19}, "uniqueid": "MTK1968:3RU7GD8VPP075U98ZLXEL2RW9YNSPW", "dateTime": 1516640983612}, {"current_trial": 20, "trialdata": {"rt": -1, "trial_type": "single-stim", "stimulus": "<p id=\"stim\">+</p>", "internal_node_id": "0.0-11.0-0.0", "time_elapsed": 620562, "key_press": -1, "type": "FIXATION", "trial_index": 20}, "uniqueid": "MTK1968:3RU7GD8VPP075U98ZLXEL2RW9YNSPW", "dateTime": 1516640985124}, {"current_trial": 21, "trialdata": {"rt": -1000, "trial_type": "single-audio", "word": "gazelle", "stimulus": "/static/audio/wordpool/GAZELLE.wav", "conditions": [18, 1200, "a", 18000], "internal_node_id": "0.0-12.0", "trial": 0, "time_elapsed": 622860, "serialpos": 0, "key_press": -1, "wordID": 627, "type": "PRES_AUD", "trial_index": 21}, "uniqueid": "MTK1968:3RU7GD8VPP075U98ZLXEL2RW9YNSPW", "dateTime": 1516640987422}, {"current_trial": 22, "trialdata": {"rt": -1000, "trial_type": "single-audio", "word": "scallop", "stimulus": "/static/audio/wordpool/SCALLOP.wav", "conditions": [18, 1200, "a", 18000], "internal_node_id": "0.0-13.0", "trial": 0, "time_elapsed": 625223, "serialpos": 1, "key_press": -1, "wordID": 1241, "type": "PRES_AUD", "trial_index": 22}, "uniqueid": "MTK1968:3RU7GD8VPP075U98ZLXEL2RW9YNSPW", "dateTime": 1516640989784}, {"current_trial": 23, "trialdata": {"rt": -1000, "trial_type": "single-audio", "word": "taxi", "stimulus": "/static/audio/wordpool/TAXI.wav", "conditions": [18, 1200, "a", 18000], "internal_node_id": "0.0-14.0", "trial": 0, "time_elapsed": 627526, "serialpos": 2, "key_press": -1, "wordID": 1437, "type": "PRES_AUD", "trial_index": 23}, "uniqueid": "MTK1968:3RU7GD8VPP075U98ZLXEL2RW9YNSPW", "dateTime": 1516640992087}, {"current_trial": 24, "trialdata": {"rt": -1000, "trial_type": "single-audio", "word": "breast", "stimulus": "/static/audio/wordpool/BREAST.wav", "conditions": [18, 1200, "a", 18000], "internal_node_id": "0.0-15.0", "trial": 0, "time_elapsed": 629891, "serialpos": 3, "key_press": -1, "wordID": 170, "type": "PRES_AUD", "trial_index": 24}, "uniqueid": "MTK1968:3RU7GD8VPP075U98ZLXEL2RW9YNSPW", "dateTime": 1516640994452}, {"current_trial": 25, "trialdata": {"rt": -1000, "trial_type": "single-audio", "word": "crutch", "stimulus": "/static/audio/wordpool/CRUTCH.wav", "conditions": [18, 1200, "a", 18000], "internal_node_id": "0.0-16.0", "trial": 0, "time_elapsed": 632056, "serialpos": 4, "key_press": -1, "wordID": 416, "type": "PRES_AUD", "trial_index": 25}, "uniqueid": "MTK1968:3RU7GD8VPP075U98ZLXEL2RW9YNSPW", "dateTime": 1516640996618}, {"current_trial": 26, "trialdata": {"rt": -1000, "trial_type": "single-audio", "word": "pimple", "stimulus": "/static/audio/wordpool/PIMPLE.wav", "conditions": [18, 1200, "a", 18000], "internal_node_id": "0.0-17.0", "trial": 0, "time_elapsed": 634254, "serialpos": 5, "key_press": -1, "wordID": 1070, "type": "PRES_AUD", "trial_index": 26}, "uniqueid": "MTK1968:3RU7GD8VPP075U98ZLXEL2RW9YNSPW", "dateTime": 1516640998815}, {"current_trial": 27, "trialdata": {"rt": -1000, "trial_type": "single-audio", "word": "gift", "stimulus": "/static/audio/wordpool/GIFT.wav", "conditions": [18, 1200, "a", 18000], "internal_node_id": "0.0-18.0", "trial": 0, "time_elapsed": 636445, "serialpos": 6, "key_press": -1, "wordID": 634, "type": "PRES_AUD", "trial_index": 27}, "uniqueid": "MTK1968:3RU7GD8VPP075U98ZLXEL2RW9YNSPW", "dateTime": 1516641001006}, {"current_trial": 28, "trialdata": {"rt": -1000, "trial_type": "single-audio", "word": "chemist", "stimulus": "/static/audio/wordpool/CHEMIST.wav", "conditions": [18, 1200, "a", 18000], "internal_node_id": "0.0-19.0", "trial": 0, "time_elapsed": 638811, "serialpos": 7, "key_press": -1, "wordID": 291, "type": "PRES_AUD", "trial_index": 28}, "uniqueid": "MTK1968:3RU7GD8VPP075U98ZLXEL2RW9YNSPW", "dateTime": 1516641003372}, {"current_trial": 29, "trialdata": {"rt": -1000, "trial_type": "single-audio", "word": "bunny", "stimulus": "/static/audio/wordpool/BUNNY.wav", "conditions": [18, 1200, "a", 18000], "internal_node_id": "0.0-20.0", "trial": 0, "time_elapsed": 640933, "serialpos": 8, "key_press": -1, "wordID": 197, "type": "PRES_AUD", "trial_index": 29}, "uniqueid": "MTK1968:3RU7GD8VPP075U98ZLXEL2RW9YNSPW", "dateTime": 1516641005494}, {"current_trial": 30, "trialdata": {"rt": -1000, "trial_type": "single-audio", "word": "crib", "stimulus": "/static/audio/wordpool/CRIB.wav", "conditions": [18, 1200, "a", 18000], "internal_node_id": "0.0-21.0", "trial": 0, "time_elapsed": 643271, "serialpos": 9, "key_press": -1, "wordID": 406, "type": "PRES_AUD", "trial_index": 30}, "uniqueid": "MTK1968:3RU7GD8VPP075U98ZLXEL2RW9YNSPW", "dateTime": 1516641007832}, {"current_trial": 31, "trialdata": {"rt": -1000, "trial_type": "single-audio", "word": "sausage", "stimulus": "/static/audio/wordpool/SAUSAGE.wav", "conditions": [18, 1200, "a", 18000], "internal_node_id": "0.0-22.0", "trial": 0, "time_elapsed": 645415, "serialpos": 10, "key_press": -1, "wordID": 1237, "type": "PRES_AUD", "trial_index": 31}, "uniqueid": "MTK1968:3RU7GD8VPP075U98ZLXEL2RW9YNSPW", "dateTime": 1516641009976}, {"current_trial": 32, "trialdata": {"rt": -1000, "trial_type": "single-audio", "word": "clamp", "stimulus": "/static/audio/wordpool/CLAMP.wav", "conditions": [18, 1200, "a", 18000], "internal_node_id": "0.0-23.0", "trial": 0, "time_elapsed": 647770, "serialpos": 11, "key_press": -1, "wordID": 315, "type": "PRES_AUD", "trial_index": 32}, "uniqueid": "MTK1968:3RU7GD8VPP075U98ZLXEL2RW9YNSPW", "dateTime": 1516641012331}, {"current_trial": 33, "trialdata": {"rt": -1000, "trial_type": "single-audio", "word": "gangster", "stimulus": "/static/audio/wordpool/GANGSTER.wav", "conditions": [18, 1200, "a", 18000], "internal_node_id": "0.0-24.0", "trial": 0, "time_elapsed": 650004, "serialpos": 12, "key_press": -1, "wordID": 619, "type": "PRES_AUD", "trial_index": 33}, "uniqueid": "MTK1968:3RU7GD8VPP075U98ZLXEL2RW9YNSPW", "dateTime": 1516641014566}, {"current_trial": 34, "trialdata": {"rt": -1000, "trial_type": "single-audio", "word": "critic", "stimulus": "/static/audio/wordpool/CRITIC.wav", "conditions": [18, 1200, "a", 18000], "internal_node_id": "0.0-25.0", "trial": 0, "time_elapsed": 652060, "serialpos": 13, "key_press": -1, "wordID": 409, "type": "PRES_AUD", "trial_index": 34}, "uniqueid": "MTK1968:3RU7GD8VPP075U98ZLXEL2RW9YNSPW", "dateTime": 1516641016622}, {"current_trial": 35, "trialdata": {"rt": -1000, "trial_type": "single-audio", "word": "label", "stimulus": "/static/audio/wordpool/LABEL.wav", "conditions": [18, 1200, "a", 18000], "internal_node_id": "0.0-26.0", "trial": 0, "time_elapsed": 654283, "serialpos": 14, "key_press": -1, "wordID": 789, "type": "PRES_AUD", "trial_index": 35}, "uniqueid": "MTK1968:3RU7GD8VPP075U98ZLXEL2RW9YNSPW", "dateTime": 1516641018844}, {"current_trial": 36, "trialdata": {"rt": -1000, "trial_type": "single-audio", "word": "wife", "stimulus": "/static/audio/wordpool/WIFE.wav", "conditions": [18, 1200, "a", 18000], "internal_node_id": "0.0-27.0", "trial": 0, "time_elapsed": 656663, "serialpos": 15, "key_press": -1, "wordID": 1608, "type": "PRES_AUD", "trial_index": 36}, "uniqueid": "MTK1968:3RU7GD8VPP075U98ZLXEL2RW9YNSPW", "dateTime": 1516641021224}, {"current_trial": 37, "trialdata": {"rt": -1000, "trial_type": "single-audio", "word": "neutron", "stimulus": "/static/audio/wordpool/NEUTRON.wav", "conditions": [18, 1200, "a", 18000], "internal_node_id": "0.0-28.0", "trial": 0, "time_elapsed": 659024, "serialpos": 16, "key_press": -1, "wordID": 946, "type": "PRES_AUD", "trial_index": 37}, "uniqueid": "MTK1968:3RU7GD8VPP075U98ZLXEL2RW9YNSPW", "dateTime": 1516641023585}, {"current_trial": 38, "trialdata": {"rt": -1000, "trial_type": "single-audio", "word": "stone", "stimulus": "/static/audio/wordpool/STONE.wav", "conditions": [18, 1200, "a", 18000], "internal_node_id": "0.0-29.0", "trial": 0, "time_elapsed": 661299, "serialpos": 17, "key_press": -1, "wordID": 1384, "type": "PRES_AUD", "trial_index": 38}, "uniqueid": "MTK1968:3RU7GD8VPP075U98ZLXEL2RW9YNSPW", "dateTime": 1516641025860}, {"current_trial": 39, "trialdata": {"rt": -1, "trial_type": "single-stim", "stimulus": "", "internal_node_id": "0.0-30.0-0.0", "time_elapsed": 662626, "key_press": -1, "type": "PRE_RECALL_DELAY", "trial_index": 39}, "uniqueid": "MTK1968:3RU7GD8VPP075U98ZLXEL2RW9YNSPW", "dateTime": 1516641027187}, {"current_trial": 40, "trialdata": {"rt": -1000, "trial_type": "single-audio", "stimulus": "/static/audio/400Hz.wav", "internal_node_id": "0.0-31.0", "time_elapsed": 663129, "key_press": -1, "type": "PRE_RECALL_ALERT", "trial_index": 40}, "uniqueid": "MTK1968:3RU7GD8VPP075U98ZLXEL2RW9YNSPW", "dateTime": 1516641027691}, {"current_trial": 41, "trialdata": {"rt": [7718, 11573, 14644, 17235, 24653, 39978], "recwords": ["gallop", "trip", "gangster", "hip", "breath", ""], "key_times": [2030, 2206, 2451, 2600, 2916, 3130, 4003, 4228, 4783, 4938, 6005, 6427, 6887, 7109, 7718, 9502, 9761, 9932, 11100, 11573, 12010, 12229, 12382, 12873, 13392, 13640, 13821, 13983, 14644, 15934, 16199, 16791, 17235, 22934, 23264, 23371, 23562, 23732, 23918, 24653, 39978], "trial_type": "free-recall", "conditions": [18, 1200, "a", 18000], "internal_node_id": "0.0-32.0-0.0", "key_presses": [71, 65, 76, 76, 79, 85, 8, 8, 85, 80, 8, 8, 79, 80, 13, 84, 82, 73, 80, 13, 71, 65, 78, 71, 83, 84, 69, 82, 13, 72, 73, 80, 13, 66, 82, 69, 65, 84, 72, 13, 13], "trial": 0, "time_elapsed": 723165, "type": "FREE_RECALL", "trial_index": 41}, "uniqueid": "MTK1968:3RU7GD8VPP075U98ZLXEL2RW9YNSPW", "dateTime": 1516641087735}, {"current_trial": 42, "trialdata": {"rt": 1860, "trial_type": "text", "internal_node_id": "0.0-33.0", "time_elapsed": 727049, "key_press": 13, "type": "INSTRUCTIONS", "trial_index": 42}, "uniqueid": "MTK1968:3RU7GD8VPP075U98ZLXEL2RW9YNSPW", "dateTime": 1516641091610}, {"current_trial": 43, "trialdata": {"rt": [4069, 7492, 10273, 12526, 14741], "trial_type": "math-distractor", "key_times": [3020, 3393, 4069, 6850, 7096, 7492, 9841, 10273, 11872, 12198, 12526, 14201, 14423, 14741, 17121, 17796], "responses": ["25", "12", "8", "15", "11"], "num2": [9, 8, 6, 2, 5, 6], "num3": [9, 3, 1, 5, 3, 9], "conditions": [18, 1200, "a", 18000], "internal_node_id": "0.0-34.0", "key_presses": [50, 53, 13, 49, 50, 13, 56, 13, 49, 53, 13, 49, 49, 13, 49, 55], "trial": 1, "time_elapsed": 747076, "type": "DISTRACTOR", "trial_index": 43, "num1": [7, 1, 1, 8, 3, 2]}, "uniqueid": "MTK1968:3RU7GD8VPP075U98ZLXEL2RW9YNSPW", "dateTime": 1516641111637}, {"current_trial": 44, "trialdata": {"rt": -1, "trial_type": "single-stim", "stimulus": "<p id=\"stim\">10</p>", "internal_node_id": "0.0-35.0-0.0", "time_elapsed": 750080, "key_press": -1, "trial_index": 44}, "uniqueid": "MTK1968:3RU7GD8VPP075U98ZLXEL2RW9YNSPW", "dateTime": 1516641114641}, {"current_trial": 45, "trialdata": {"rt": -1, "trial_type": "single-stim", "stimulus": "<p id=\"stim\">9</p>", "internal_node_id": "0.0-35.0-1.0", "time_elapsed": 751082, "key_press": -1, "trial_index": 45}, "uniqueid": "MTK1968:3RU7GD8VPP075U98ZLXEL2RW9YNSPW", "dateTime": 1516641115643}, {"current_trial": 46, "trialdata": {"rt": -1, "trial_type": "single-stim", "stimulus": "<p id=\"stim\">8</p>", "internal_node_id": "0.0-35.0-2.0", "time_elapsed": 752097, "key_press": -1, "trial_index": 46}, "uniqueid": "MTK1968:3RU7GD8VPP075U98ZLXEL2RW9YNSPW", "dateTime": 1516641116658}, {"current_trial": 47, "trialdata": {"rt": -1, "trial_type": "single-stim", "stimulus": "<p id=\"stim\">7</p>", "internal_node_id": "0.0-35.0-3.0", "time_elapsed": 753116, "key_press": -1, "trial_index": 47}, "uniqueid": "MTK1968:3RU7GD8VPP075U98ZLXEL2RW9YNSPW", "dateTime": 1516641117677}, {"current_trial": 48, "trialdata": {"rt": -1, "trial_type": "single-stim", "stimulus": "<p id=\"stim\">6</p>", "internal_node_id": "0.0-35.0-4.0", "time_elapsed": 754118, "key_press": -1, "trial_index": 48}, "uniqueid": "MTK1968:3RU7GD8VPP075U98ZLXEL2RW9YNSPW", "dateTime": 1516641118680}, {"current_trial": 49, "trialdata": {"rt": -1, "trial_type": "single-stim", "stimulus": "<p id=\"stim\">5</p>", "internal_node_id": "0.0-35.0-5.0", "time_elapsed": 755121, "key_press": -1, "trial_index": 49}, "uniqueid": "MTK1968:3RU7GD8VPP075U98ZLXEL2RW9YNSPW", "dateTime": 1516641119682}, {"current_trial": 50, "trialdata": {"rt": -1, "trial_type": "single-stim", "stimulus": "<p id=\"stim\">4</p>", "internal_node_id": "0.0-35.0-6.0", "time_elapsed": 756146, "key_press": -1, "trial_index": 50}, "uniqueid": "MTK1968:3RU7GD8VPP075U98ZLXEL2RW9YNSPW", "dateTime": 1516641120708}, {"current_trial": 51, "trialdata": {"rt": -1, "trial_type": "single-stim", "stimulus": "<p id=\"stim\">3</p>", "internal_node_id": "0.0-35.0-7.0", "time_elapsed": 757149, "key_press": -1, "trial_index": 51}, "uniqueid": "MTK1968:3RU7GD8VPP075U98ZLXEL2RW9YNSPW", "dateTime": 1516641121710}, {"current_trial": 52, "trialdata": {"rt": -1, "trial_type": "single-stim", "stimulus": "<p id=\"stim\">2</p>", "internal_node_id": "0.0-35.0-8.0", "time_elapsed": 758151, "key_press": -1, "trial_index": 52}, "uniqueid": "MTK1968:3RU7GD8VPP075U98ZLXEL2RW9YNSPW", "dateTime": 1516641122712}, {"current_trial": 53, "trialdata": {"rt": -1, "trial_type": "single-stim", "stimulus": "<p id=\"stim\">1</p>", "internal_node_id": "0.0-35.0-9.0", "time_elapsed": 759154, "key_press": -1, "trial_index": 53}, "uniqueid": "MTK1968:3RU7GD8VPP075U98ZLXEL2RW9YNSPW", "dateTime": 1516641123715}, {"current_trial": 54, "trialdata": {"rt": -1, "trial_type": "single-stim", "stimulus": "<p id=\"stim\">+</p>", "internal_node_id": "0.0-36.0-0.0", "time_elapsed": 760656, "key_press": -1, "type": "FIXATION", "trial_index": 54}, "uniqueid": "MTK1968:3RU7GD8VPP075U98ZLXEL2RW9YNSPW", "dateTime": 1516641125217}, {"current_trial": 55, "trialdata": {"rt": -1000, "trial_type": "single-audio", "word": "scissors", "stimulus": "/static/audio/wordpool/SCISSORS.wav", "conditions": [18, 1200, "a", 18000], "internal_node_id": "0.0-37.0", "trial": 1, "time_elapsed": 762971, "serialpos": 0, "key_press": -1, "wordID": 1249, "type": "PRES_AUD", "trial_index": 55}, "uniqueid": "MTK1968:3RU7GD8VPP075U98ZLXEL2RW9YNSPW", "dateTime": 1516641127532}, {"current_trial": 56, "trialdata": {"rt": -1000, "trial_type": "single-audio", "word": "marine", "stimulus": "/static/audio/wordpool/MARINE.wav", "conditions": [18, 1200, "a", 18000], "internal_node_id": "0.0-38.0", "trial": 1, "time_elapsed": 765045, "serialpos": 1, "key_press": -1, "wordID": 868, "type": "PRES_AUD", "trial_index": 56}, "uniqueid": "MTK1968:3RU7GD8VPP075U98ZLXEL2RW9YNSPW", "dateTime": 1516641129606}, {"current_trial": 57, "trialdata": {"rt": -1000, "trial_type": "single-audio", "word": "mailbox", "stimulus": "/static/audio/wordpool/MAILBOX.wav", "conditions": [18, 1200, "a", 18000], "internal_node_id": "0.0-39.0", "trial": 1, "time_elapsed": 767342, "serialpos": 2, "key_press": -1, "wordID": 856, "type": "PRES_AUD", "trial_index": 57}, "uniqueid": "MTK1968:3RU7GD8VPP075U98ZLXEL2RW9YNSPW", "dateTime": 1516641131904}, {"current_trial": 58, "trialdata": {"rt": -1000, "trial_type": "single-audio", "word": "quarter", "stimulus": "/static/audio/wordpool/QUARTER.wav", "conditions": [18, 1200, "a", 18000], "internal_node_id": "0.0-40.0", "trial": 1, "time_elapsed": 769544, "serialpos": 3, "key_press": -1, "wordID": 1147, "type": "PRES_AUD", "trial_index": 58}, "uniqueid": "MTK1968:3RU7GD8VPP075U98ZLXEL2RW9YNSPW", "dateTime": 1516641134105}, {"current_trial": 59, "trialdata": {"rt": -1000, "trial_type": "single-audio", "word": "palace", "stimulus": "/static/audio/wordpool/PALACE.wav", "conditions": [18, 1200, "a", 18000], "internal_node_id": "0.0-41.0", "trial": 1, "time_elapsed": 771633, "serialpos": 4, "key_press": -1, "wordID": 1005, "type": "PRES_AUD", "trial_index": 59}, "uniqueid": "MTK1968:3RU7GD8VPP075U98ZLXEL2RW9YNSPW", "dateTime": 1516641136194}, {"current_trial": 60, "trialdata": {"rt": -1000, "trial_type": "single-audio", "word": "braces", "stimulus": "/static/audio/wordpool/BRACES.wav", "conditions": [18, 1200, "a", 18000], "internal_node_id": "0.0-42.0", "trial": 1, "time_elapsed": 773800, "serialpos": 5, "key_press": -1, "wordID": 163, "type": "PRES_AUD", "trial_index": 60}, "uniqueid": "MTK1968:3RU7GD8VPP075U98ZLXEL2RW9YNSPW", "dateTime": 1516641138361}, {"current_trial": 61, "trialdata": {"rt": -1000, "trial_type": "single-audio", "word": "item", "stimulus": "/static/audio/wordpool/ITEM.wav", "conditions": [18, 1200, "a", 18000], "internal_node_id": "0.0-43.0", "trial": 1, "time_elapsed": 775997, "serialpos": 6, "key_press": -1, "wordID": 745, "type": "PRES_AUD", "trial_index": 61}, "uniqueid": "MTK1968:3RU7GD8VPP075U98ZLXEL2RW9YNSPW", "dateTime": 1516641140559}, {"current_trial": 62, "trialdata": {"rt": -1000, "trial_type": "single-audio", "word": "mop", "stimulus": "/static/audio/wordpool/MOP.wav", "conditions": [18, 1200, "a", 18000], "internal_node_id": "0.0-44.0", "trial": 1, "time_elapsed": 778201, "serialpos": 7, "key_press": -1, "wordID": 915, "type": "PRES_AUD", "trial_index": 62}, "uniqueid": "MTK1968:3RU7GD8VPP075U98ZLXEL2RW9YNSPW", "dateTime": 1516641142762}, {"current_trial": 63, "trialdata": {"rt": -1000, "trial_type": "single-audio", "word": "knapsack", "stimulus": "/static/audio/wordpool/KNAPSACK.wav", "conditions": [18, 1200, "a", 18000], "internal_node_id": "0.0-45.0", "trial": 1, "time_elapsed": 780314, "serialpos": 8, "key_press": -1, "wordID": 782, "type": "PRES_AUD", "trial_index": 63}, "uniqueid": "MTK1968:3RU7GD8VPP075U98ZLXEL2RW9YNSPW", "dateTime": 1516641144876}, {"current_trial": 64, "trialdata": {"rt": -1000, "trial_type": "single-audio", "word": "catcher", "stimulus": "/static/audio/wordpool/CATCHER.wav", "conditions": [18, 1200, "a", 18000], "internal_node_id": "0.0-46.0", "trial": 1, "time_elapsed": 782721, "serialpos": 9, "key_press": -1, "wordID": 257, "type": "PRES_AUD", "trial_index": 64}, "uniqueid": "MTK1968:3RU7GD8VPP075U98ZLXEL2RW9YNSPW", "dateTime": 1516641147283}, {"current_trial": 65, "trialdata": {"rt": -1000, "trial_type": "single-audio", "word": "slug", "stimulus": "/static/audio/wordpool/SLUG.wav", "conditions": [18, 1200, "a", 18000], "internal_node_id": "0.0-47.0", "trial": 1, "time_elapsed": 784962, "serialpos": 10, "key_press": -1, "wordID": 1328, "type": "PRES_AUD", "trial_index": 65}, "uniqueid": "MTK1968:3RU7GD8VPP075U98ZLXEL2RW9YNSPW", "dateTime": 1516641149523}, {"current_trial": 66, "trialdata": {"rt": -1000, "trial_type": "single-audio", "word": "fruit", "stimulus": "/static/audio/wordpool/FRUIT.wav", "conditions": [18, 1200, "a", 18000], "internal_node_id": "0.0-48.0", "trial": 1, "time_elapsed": 787066, "serialpos": 11, "key_press": -1, "wordID": 609, "type": "PRES_AUD", "trial_index": 66}, "uniqueid": "MTK1968:3RU7GD8VPP075U98ZLXEL2RW9YNSPW", "dateTime": 1516641151627}, {"current_trial": 67, "trialdata": {"rt": -1000, "trial_type": "single-audio", "word": "goblin", "stimulus": "/static/audio/wordpool/GOBLIN.wav", "conditions": [18, 1200, "a", 18000], "internal_node_id": "0.0-49.0", "trial": 1, "time_elapsed": 789329, "serialpos": 12, "key_press": -1, "wordID": 644, "type": "PRES_AUD", "trial_index": 67}, "uniqueid": "MTK1968:3RU7GD8VPP075U98ZLXEL2RW9YNSPW", "dateTime": 1516641153890}, {"current_trial": 68, "trialdata": {"rt": -1000, "trial_type": "single-audio", "word": "statue", "stimulus": "/static/audio/wordpool/STATUE.wav", "conditions": [18, 1200, "a", 18000], "internal_node_id": "0.0-50.0", "trial": 1, "time_elapsed": 791727, "serialpos": 13, "key_press": -1, "wordID": 1373, "type": "PRES_AUD", "trial_index": 68}, "uniqueid": "MTK1968:3RU7GD8VPP075U98ZLXEL2RW9YNSPW", "dateTime": 1516641156326}, {"current_trial": 69, "trialdata": {"rt": -1000, "trial_type": "single-audio", "word": "fireman", "stimulus": "/static/audio/wordpool/FIREMAN.wav", "conditions": [18, 1200, "a", 18000], "internal_node_id": "0.0-51.0", "trial": 1, "time_elapsed": 794110, "serialpos": 14, "key_press": -1, "wordID": 568, "type": "PRES_AUD", "trial_index": 69}, "uniqueid": "MTK1968:3RU7GD8VPP075U98ZLXEL2RW9YNSPW", "dateTime": 1516641158671}, {"current_trial": 70, "trialdata": {"rt": -1000, "trial_type": "single-audio", "word": "lagoon", "stimulus": "/static/audio/wordpool/LAGOON.wav", "conditions": [18, 1200, "a", 18000], "internal_node_id": "0.0-52.0", "trial": 1, "time_elapsed": 796401, "serialpos": 15, "key_press": -1, "wordID": 794, "type": "PRES_AUD", "trial_index": 70}, "uniqueid": "MTK1968:3RU7GD8VPP075U98ZLXEL2RW9YNSPW", "dateTime": 1516641160963}, {"current_trial": 71, "trialdata": {"rt": -1000, "trial_type": "single-audio", "word": "match", "stimulus": "/static/audio/wordpool/MATCH.wav", "conditions": [18, 1200, "a", 18000], "internal_node_id": "0.0-53.0", "trial": 1, "time_elapsed": 798730, "serialpos": 16, "key_press": -1, "wordID": 877, "type": "PRES_AUD", "trial_index": 71}, "uniqueid": "MTK1968:3RU7GD8VPP075U98ZLXEL2RW9YNSPW", "dateTime": 1516641163291}, {"current_trial": 72, "trialdata": {"rt": -1000, "trial_type": "single-audio", "word": "parsley", "stimulus": "/static/audio/wordpool/PARSLEY.wav", "conditions": [18, 1200, "a", 18000], "internal_node_id": "0.0-54.0", "trial": 1, "time_elapsed": 801031, "serialpos": 17, "key_press": -1, "wordID": 1015, "type": "PRES_AUD", "trial_index": 72}, "uniqueid": "MTK1968:3RU7GD8VPP075U98ZLXEL2RW9YNSPW", "dateTime": 1516641165593}, {"current_trial": 73, "trialdata": {"rt": -1, "trial_type": "single-stim", "stimulus": "", "internal_node_id": "0.0-55.0-0.0", "time_elapsed": 802444, "key_press": -1, "type": "PRE_RECALL_DELAY", "trial_index": 73}, "uniqueid": "MTK1968:3RU7GD8VPP075U98ZLXEL2RW9YNSPW", "dateTime": 1516641167005}, {"current_trial": 74, "trialdata": {"rt": -1000, "trial_type": "single-audio", "stimulus": "/static/audio/400Hz.wav", "internal_node_id": "0.0-56.0", "time_elapsed": 802948, "key_press": -1, "type": "PRE_RECALL_ALERT", "trial_index": 74}, "uniqueid": "MTK1968:3RU7GD8VPP075U98ZLXEL2RW9YNSPW", "dateTime": 1516641167509}, {"current_trial": 75, "trialdata": {"rt": [4118, 6326, 8399, 12108, 14652, 20241], "recwords": ["parlsey", "lagoon", "fireman", "marine", "scissors", "match"], "key_times": [1359, 1578, 1805, 2060, 2355, 3108, 3655, 4118, 4748, 4970, 5335, 5577, 5777, 5998, 6326, 6573, 6741, 6966, 7509, 7732, 7895, 8067, 8399, 10587, 10762, 10949, 11201, 11455, 11669, 12108, 12795, 13144, 13389, 13546, 13711, 13959, 14203, 14383, 14652, 19208, 19328, 19487, 19792, 19926, 20241], "trial_type": "free-recall", "conditions": [18, 1200, "a", 18000], "internal_node_id": "0.0-57.0-0.0", "key_presses": [80, 65, 82, 76, 83, 69, 89, 13, 76, 65, 71, 79, 79, 78, 13, 70, 73, 82, 69, 77, 65, 78, 13, 77, 65, 82, 73, 78, 69, 13, 83, 67, 73, 83, 83, 79, 82, 83, 13, 77, 65, 84, 67, 72, 13], "trial": 1, "time_elapsed": 862954, "type": "FREE_RECALL", "trial_index": 75}, "uniqueid": "MTK1968:3RU7GD8VPP075U98ZLXEL2RW9YNSPW", "dateTime": 1516641227561}, {"current_trial": 76, "trialdata": {"rt": 2733, "trial_type": "text", "internal_node_id": "0.0-58.0", "time_elapsed": 867737, "key_press": 32, "type": "INSTRUCTIONS", "trial_index": 76}, "uniqueid": "MTK1968:3RU7GD8VPP075U98ZLXEL2RW9YNSPW", "dateTime": 1516641232298}, {"current_trial": 77, "trialdata": {"rt": [3083, 5729, 8269, 11961, 14068, 16378, 18765, 20801, 23043], "trial_type": "math-distractor", "key_times": [2093, 2417, 3083, 4698, 5395, 5729, 7537, 7850, 8269, 11301, 11665, 11961, 13524, 13729, 14068, 15822, 16047, 16378, 18119, 18328, 18765, 20299, 20512, 20801, 22433, 22701, 23043], "responses": ["14", "18", "14", "15", "10", "11", "21", "15", "16"], "num2": [1, 4, 2, 6, 2, 4, 9, 8, 6, 1], "num3": [7, 5, 6, 6, 4, 4, 3, 6, 8, 7], "conditions": [24, 800, "a", 24000], "internal_node_id": "0.0-59.0", "key_presses": [49, 52, 13, 49, 56, 13, 49, 52, 13, 49, 53, 13, 49, 48, 13, 49, 49, 13, 50, 49, 13, 49, 53, 13, 49, 54, 13], "trial": 2, "time_elapsed": 892747, "type": "DISTRACTOR", "trial_index": 77, "num1": [6, 9, 6, 3, 4, 3, 9, 1, 2, 6]}, "uniqueid": "MTK1968:3RU7GD8VPP075U98ZLXEL2RW9YNSPW", "dateTime": 1516641257308}, {"current_trial": 78, "trialdata": {"rt": -1, "trial_type": "single-stim", "stimulus": "<p id=\"stim\">10</p>", "internal_node_id": "0.0-60.0-0.0", "time_elapsed": 895810, "key_press": -1, "trial_index": 78}, "uniqueid": "MTK1968:3RU7GD8VPP075U98ZLXEL2RW9YNSPW", "dateTime": 1516641260371}, {"current_trial": 79, "trialdata": {"rt": -1, "trial_type": "single-stim", "stimulus": "<p id=\"stim\">9</p>", "internal_node_id": "0.0-60.0-1.0", "time_elapsed": 896813, "key_press": -1, "trial_index": 79}, "uniqueid": "MTK1968:3RU7GD8VPP075U98ZLXEL2RW9YNSPW", "dateTime": 1516641261374}, {"current_trial": 80, "trialdata": {"rt": -1, "trial_type": "single-stim", "stimulus": "<p id=\"stim\">8</p>", "internal_node_id": "0.0-60.0-2.0", "time_elapsed": 897816, "key_press": -1, "trial_index": 80}, "uniqueid": "MTK1968:3RU7GD8VPP075U98ZLXEL2RW9YNSPW", "dateTime": 1516641262379}, {"current_trial": 81, "trialdata": {"rt": -1, "trial_type": "single-stim", "stimulus": "<p id=\"stim\">7</p>", "internal_node_id": "0.0-60.0-3.0", "time_elapsed": 898852, "key_press": -1, "trial_index": 81}, "uniqueid": "MTK1968:3RU7GD8VPP075U98ZLXEL2RW9YNSPW", "dateTime": 1516641263413}, {"current_trial": 82, "trialdata": {"rt": -1, "trial_type": "single-stim", "stimulus": "<p id=\"stim\">6</p>", "internal_node_id": "0.0-60.0-4.0", "time_elapsed": 899854, "key_press": -1, "trial_index": 82}, "uniqueid": "MTK1968:3RU7GD8VPP075U98ZLXEL2RW9YNSPW", "dateTime": 1516641264415}, {"current_trial": 83, "trialdata": {"rt": -1, "trial_type": "single-stim", "stimulus": "<p id=\"stim\">5</p>", "internal_node_id": "0.0-60.0-5.0", "time_elapsed": 900856, "key_press": -1, "trial_index": 83}, "uniqueid": "MTK1968:3RU7GD8VPP075U98ZLXEL2RW9YNSPW", "dateTime": 1516641265417}, {"current_trial": 84, "trialdata": {"rt": -1, "trial_type": "single-stim", "stimulus": "<p id=\"stim\">4</p>", "internal_node_id": "0.0-60.0-6.0", "time_elapsed": 901858, "key_press": -1, "trial_index": 84}, "uniqueid": "MTK1968:3RU7GD8VPP075U98ZLXEL2RW9YNSPW", "dateTime": 1516641266419}, {"current_trial": 85, "trialdata": {"rt": -1, "trial_type": "single-stim", "stimulus": "<p id=\"stim\">3</p>", "internal_node_id": "0.0-60.0-7.0", "time_elapsed": 902875, "key_press": -1, "trial_index": 85}, "uniqueid": "MTK1968:3RU7GD8VPP075U98ZLXEL2RW9YNSPW", "dateTime": 1516641267436}, {"current_trial": 86, "trialdata": {"rt": -1, "trial_type": "single-stim", "stimulus": "<p id=\"stim\">2</p>", "internal_node_id": "0.0-60.0-8.0", "time_elapsed": 903903, "key_press": -1, "trial_index": 86}, "uniqueid": "MTK1968:3RU7GD8VPP075U98ZLXEL2RW9YNSPW", "dateTime": 1516641268464}, {"current_trial": 87, "trialdata": {"rt": -1, "trial_type": "single-stim", "stimulus": "<p id=\"stim\">1</p>", "internal_node_id": "0.0-60.0-9.0", "time_elapsed": 904909, "key_press": -1, "trial_index": 87}, "uniqueid": "MTK1968:3RU7GD8VPP075U98ZLXEL2RW9YNSPW", "dateTime": 1516641269471}, {"current_trial": 88, "trialdata": {"rt": -1, "trial_type": "single-stim", "stimulus": "<p id=\"stim\">+</p>", "internal_node_id": "0.0-61.0-0.0", "time_elapsed": 906411, "key_press": -1, "type": "FIXATION", "trial_index": 88}, "uniqueid": "MTK1968:3RU7GD8VPP075U98ZLXEL2RW9YNSPW", "dateTime": 1516641270973}, {"current_trial": 89, "trialdata": {"rt": -1000, "trial_type": "single-audio", "word": "spider", "stimulus": "/static/audio/wordpool/SPIDER.wav", "conditions": [24, 800, "a", 24000], "internal_node_id": "0.0-62.0", "trial": 2, "time_elapsed": 908214, "serialpos": 0, "key_press": -1, "wordID": 1350, "type": "PRES_AUD", "trial_index": 89}, "uniqueid": "MTK1968:3RU7GD8VPP075U98ZLXEL2RW9YNSPW", "dateTime": 1516641272775}, {"current_trial": 90, "trialdata": {"rt": -1000, "trial_type": "single-audio", "word": "snake", "stimulus": "/static/audio/wordpool/SNAKE.wav", "conditions": [24, 800, "a", 24000], "internal_node_id": "0.0-63.0", "trial": 2, "time_elapsed": 910162, "serialpos": 1, "key_press": -1, "wordID": 1332, "type": "PRES_AUD", "trial_index": 90}, "uniqueid": "MTK1968:3RU7GD8VPP075U98ZLXEL2RW9YNSPW", "dateTime": 1516641274723}, {"current_trial": 91, "trialdata": {"rt": -1000, "trial_type": "single-audio", "word": "camel", "stimulus": "/static/audio/wordpool/CAMEL.wav", "conditions": [24, 800, "a", 24000], "internal_node_id": "0.0-64.0", "trial": 2, "time_elapsed": 911847, "serialpos": 2, "key_press": -1, "wordID": 222, "type": "PRES_AUD", "trial_index": 91}, "uniqueid": "MTK1968:3RU7GD8VPP075U98ZLXEL2RW9YNSPW", "dateTime": 1516641276408}, {"current_trial": 92, "trialdata": {"rt": -1000, "trial_type": "single-audio", "word": "waiter", "stimulus": "/static/audio/wordpool/WAITER.wav", "conditions": [24, 800, "a", 24000], "internal_node_id": "0.0-65.0", "trial": 2, "time_elapsed": 913838, "serialpos": 3, "key_press": -1, "wordID": 1579, "type": "PRES_AUD", "trial_index": 92}, "uniqueid": "MTK1968:3RU7GD8VPP075U98ZLXEL2RW9YNSPW", "dateTime": 1516641278399}, {"current_trial": 93, "trialdata": {"rt": -1000, "trial_type": "single-audio", "word": "skirt", "stimulus": "/static/audio/wordpool/SKIRT.wav", "conditions": [24, 800, "a", 24000], "internal_node_id": "0.0-66.0", "trial": 2, "time_elapsed": 915695, "serialpos": 4, "key_press": -1, "wordID": 1318, "type": "PRES_AUD", "trial_index": 93}, "uniqueid": "MTK1968:3RU7GD8VPP075U98ZLXEL2RW9YNSPW", "dateTime": 1516641280257}, {"current_trial": 94, "trialdata": {"rt": -1000, "trial_type": "single-audio", "word": "cocktail", "stimulus": "/static/audio/wordpool/COCKTAIL.wav", "conditions": [24, 800, "a", 24000], "internal_node_id": "0.0-67.0", "trial": 2, "time_elapsed": 917342, "serialpos": 5, "key_press": -1, "wordID": 337, "type": "PRES_AUD", "trial_index": 94}, "uniqueid": "MTK1968:3RU7GD8VPP075U98ZLXEL2RW9YNSPW", "dateTime": 1516641281903}, {"current_trial": 95, "trialdata": {"rt": -1000, "trial_type": "single-audio", "word": "rod", "stimulus": "/static/audio/wordpool/ROD.wav", "conditions": [24, 800, "a", 24000], "internal_node_id": "0.0-68.0", "trial": 2, "time_elapsed": 919312, "serialpos": 6, "key_press": -1, "wordID": 1202, "type": "PRES_AUD", "trial_index": 95}, "uniqueid": "MTK1968:3RU7GD8VPP075U98ZLXEL2RW9YNSPW", "dateTime": 1516641283873}, {"current_trial": 96, "trialdata": {"rt": -1000, "trial_type": "single-audio", "word": "loft", "stimulus": "/static/audio/wordpool/LOFT.wav", "conditions": [24, 800, "a", 24000], "internal_node_id": "0.0-69.0", "trial": 2, "time_elapsed": 921031, "serialpos": 7, "key_press": -1, "wordID": 839, "type": "PRES_AUD", "trial_index": 96}, "uniqueid": "MTK1968:3RU7GD8VPP075U98ZLXEL2RW9YNSPW", "dateTime": 1516641285592}, {"current_trial": 97, "trialdata": {"rt": -1000, "trial_type": "single-audio", "word": "treat", "stimulus": "/static/audio/wordpool/TREAT.wav", "conditions": [24, 800, "a", 24000], "internal_node_id": "0.0-70.0", "trial": 2, "time_elapsed": 922915, "serialpos": 8, "key_press": -1, "wordID": 1500, "type": "PRES_AUD", "trial_index": 97}, "uniqueid": "MTK1968:3RU7GD8VPP075U98ZLXEL2RW9YNSPW", "dateTime": 1516641287476}, {"current_trial": 98, "trialdata": {"rt": -1000, "trial_type": "single-audio", "word": "diner", "stimulus": "/static/audio/wordpool/DINER.wav", "conditions": [24, 800, "a", 24000], "internal_node_id": "0.0-71.0", "trial": 2, "time_elapsed": 924563, "serialpos": 9, "key_press": -1, "wordID": 466, "type": "PRES_AUD", "trial_index": 98}, "uniqueid": "MTK1968:3RU7GD8VPP075U98ZLXEL2RW9YNSPW", "dateTime": 1516641289124}, {"current_trial": 99, "trialdata": {"rt": -1000, "trial_type": "single-audio", "word": "survey", "stimulus": "/static/audio/wordpool/SURVEY.wav", "conditions": [24, 800, "a", 24000], "internal_node_id": "0.0-72.0", "trial": 2, "time_elapsed": 926407, "serialpos": 10, "key_press": -1, "wordID": 1413, "type": "PRES_AUD", "trial_index": 99}, "uniqueid": "MTK1968:3RU7GD8VPP075U98ZLXEL2RW9YNSPW", "dateTime": 1516641290969}, {"current_trial": 100, "trialdata": {"rt": -1000, "trial_type": "single-audio", "word": "shoulder", "stimulus": "/static/audio/wordpool/SHOULDER.wav", "conditions": [24, 800, "a", 24000], "internal_node_id": "0.0-73.0", "trial": 2, "time_elapsed": 928299, "serialpos": 11, "key_press": -1, "wordID": 1293, "type": "PRES_AUD", "trial_index": 100}, "uniqueid": "MTK1968:3RU7GD8VPP075U98ZLXEL2RW9YNSPW", "dateTime": 1516641292860}, {"current_trial": 101, "trialdata": {"rt": -1000, "trial_type": "single-audio", "word": "hedge", "stimulus": "/static/audio/wordpool/HEDGE.wav", "conditions": [24, 800, "a", 24000], "internal_node_id": "0.0-74.0", "trial": 2, "time_elapsed": 930072, "serialpos": 12, "key_press": -1, "wordID": 698, "type": "PRES_AUD", "trial_index": 101}, "uniqueid": "MTK1968:3RU7GD8VPP075U98ZLXEL2RW9YNSPW", "dateTime": 1516641294633}, {"current_trial": 102, "trialdata": {"rt": -1000, "trial_type": "single-audio", "word": "flower", "stimulus": "/static/audio/wordpool/FLOWER.wav", "conditions": [24, 800, "a", 24000], "internal_node_id": "0.0-75.0", "trial": 2, "time_elapsed": 932027, "serialpos": 13, "key_press": -1, "wordID": 583, "type": "PRES_AUD", "trial_index": 102}, "uniqueid": "MTK1968:3RU7GD8VPP075U98ZLXEL2RW9YNSPW", "dateTime": 1516641296588}, {"current_trial": 103, "trialdata": {"rt": -1000, "trial_type": "single-audio", "word": "elbow", "stimulus": "/static/audio/wordpool/ELBOW.wav", "conditions": [24, 800, "a", 24000], "internal_node_id": "0.0-76.0", "trial": 2, "time_elapsed": 933993, "serialpos": 14, "key_press": -1, "wordID": 519, "type": "PRES_AUD", "trial_index": 103}, "uniqueid": "MTK1968:3RU7GD8VPP075U98ZLXEL2RW9YNSPW", "dateTime": 1516641298556}, {"current_trial": 104, "trialdata": {"rt": -1000, "trial_type": "single-audio", "word": "sibling", "stimulus": "/static/audio/wordpool/SIBLING.wav", "conditions": [24, 800, "a", 24000], "internal_node_id": "0.0-77.0", "trial": 2, "time_elapsed": 935764, "serialpos": 15, "key_press": -1, "wordID": 1300, "type": "PRES_AUD", "trial_index": 104}, "uniqueid": "MTK1968:3RU7GD8VPP075U98ZLXEL2RW9YNSPW", "dateTime": 1516641300325}, {"current_trial": 105, "trialdata": {"rt": -1000, "trial_type": "single-audio", "word": "hawk", "stimulus": "/static/audio/wordpool/HAWK.wav", "conditions": [24, 800, "a", 24000], "internal_node_id": "0.0-78.0", "trial": 2, "time_elapsed": 937449, "serialpos": 16, "key_press": -1, "wordID": 691, "type": "PRES_AUD", "trial_index": 105}, "uniqueid": "MTK1968:3RU7GD8VPP075U98ZLXEL2RW9YNSPW", "dateTime": 1516641302010}, {"current_trial": 106, "trialdata": {"rt": -1000, "trial_type": "single-audio", "word": "scarecrow", "stimulus": "/static/audio/wordpool/SCARECROW.wav", "conditions": [24, 800, "a", 24000], "internal_node_id": "0.0-79.0", "trial": 2, "time_elapsed": 939214, "serialpos": 17, "key_press": -1, "wordID": 1244, "type": "PRES_AUD", "trial_index": 106}, "uniqueid": "MTK1968:3RU7GD8VPP075U98ZLXEL2RW9YNSPW", "dateTime": 1516641303775}, {"current_trial": 107, "trialdata": {"rt": -1000, "trial_type": "single-audio", "word": "costume", "stimulus": "/static/audio/wordpool/COSTUME.wav", "conditions": [24, 800, "a", 24000], "internal_node_id": "0.0-80.0", "trial": 2, "time_elapsed": 941081, "serialpos": 18, "key_press": -1, "wordID": 382, "type": "PRES_AUD", "trial_index": 107}, "uniqueid": "MTK1968:3RU7GD8VPP075U98ZLXEL2RW9YNSPW", "dateTime": 1516641305642}, {"current_trial": 108, "trialdata": {"rt": -1000, "trial_type": "single-audio", "word": "lightning", "stimulus": "/static/audio/wordpool/LIGHTNING.wav", "conditions": [24, 800, "a", 24000], "internal_node_id": "0.0-81.0", "trial": 2, "time_elapsed": 942944, "serialpos": 19, "key_press": -1, "wordID": 819, "type": "PRES_AUD", "trial_index": 108}, "uniqueid": "MTK1968:3RU7GD8VPP075U98ZLXEL2RW9YNSPW", "dateTime": 1516641307505}, {"current_trial": 109, "trialdata": {"rt": -1000, "trial_type": "single-audio", "word": "stomach", "stimulus": "/static/audio/wordpool/STOMACH.wav", "conditions": [24, 800, "a", 24000], "internal_node_id": "0.0-82.0", "trial": 2, "time_elapsed": 944889, "serialpos": 20, "key_press": -1, "wordID": 1383, "type": "PRES_AUD", "trial_index": 109}, "uniqueid": "MTK1968:3RU7GD8VPP075U98ZLXEL2RW9YNSPW", "dateTime": 1516641309450}, {"current_trial": 110, "trialdata": {"rt": -1000, "trial_type": "single-audio", "word": "curtain", "stimulus": "/static/audio/wordpool/CURTAIN.wav", "conditions": [24, 800, "a", 24000], "internal_node_id": "0.0-83.0", "trial": 2, "time_elapsed": 946553, "serialpos": 21, "key_press": -1, "wordID": 426, "type": "PRES_AUD", "trial_index": 110}, "uniqueid": "MTK1968:3RU7GD8VPP075U98ZLXEL2RW9YNSPW", "dateTime": 1516641311114}, {"current_trial": 111, "trialdata": {"rt": -1000, "trial_type": "single-audio", "word": "apron", "stimulus": "/static/audio/wordpool/APRON.wav", "conditions": [24, 800, "a", 24000], "internal_node_id": "0.0-84.0", "trial": 2, "time_elapsed": 948555, "serialpos": 22, "key_press": -1, "wordID": 34, "type": "PRES_AUD", "trial_index": 111}, "uniqueid": "MTK1968:3RU7GD8VPP075U98ZLXEL2RW9YNSPW", "dateTime": 1516641313116}, {"current_trial": 112, "trialdata": {"rt": -1000, "trial_type": "single-audio", "word": "cousin", "stimulus": "/static/audio/wordpool/COUSIN.wav", "conditions": [24, 800, "a", 24000], "internal_node_id": "0.0-85.0", "trial": 2, "time_elapsed": 950239, "serialpos": 23, "key_press": -1, "wordID": 391, "type": "PRES_AUD", "trial_index": 112}, "uniqueid": "MTK1968:3RU7GD8VPP075U98ZLXEL2RW9YNSPW", "dateTime": 1516641314800}, {"current_trial": 113, "trialdata": {"rt": -1, "trial_type": "single-stim", "stimulus": "", "internal_node_id": "0.0-86.0-0.0", "time_elapsed": 951552, "key_press": -1, "type": "PRE_RECALL_DELAY", "trial_index": 113}, "uniqueid": "MTK1968:3RU7GD8VPP075U98ZLXEL2RW9YNSPW", "dateTime": 1516641316113}, {"current_trial": 114, "trialdata": {"rt": -1000, "trial_type": "single-audio", "stimulus": "/static/audio/400Hz.wav", "internal_node_id": "0.0-87.0", "time_elapsed": 952054, "key_press": -1, "type": "PRE_RECALL_ALERT", "trial_index": 114}, "uniqueid": "MTK1968:3RU7GD8VPP075U98ZLXEL2RW9YNSPW", "dateTime": 1516641316615}, {"current_trial": 115, "trialdata": {"rt": [8579, 10845, 13825, 20539, 23415, 33617], "recwords": ["cousin", "apron", "spider", "flower", "shirt", "hedge"], "key_times": [1380, 1518, 1653, 1815, 1968, 2642, 2931, 3143, 3618, 8579, 9414, 9642, 9842, 10059, 10419, 10845, 11904, 12089, 12270, 12463, 12850, 13294, 13470, 13568, 13825, 18477, 18714, 19135, 19520, 19804, 19986, 20121, 20304, 20539, 22366, 22636, 22882, 23016, 23240, 23415, 32416, 32641, 32889, 33141, 33301, 33617], "trial_type": "free-recall", "conditions": [24, 800, "a", 24000], "internal_node_id": "0.0-88.0-0.0", "key_presses": [67, 79, 85, 83, 79, 8, 73, 78, 9, 13, 65, 80, 82, 79, 78, 13, 83, 80, 73, 68, 82, 8, 69, 82, 13, 70, 79, 8, 76, 79, 87, 69, 82, 13, 83, 72, 73, 82, 84, 13, 72, 69, 68, 71, 69, 13], "trial": 2, "time_elapsed": 1012069, "type": "FREE_RECALL", "trial_index": 115}, "uniqueid": "MTK1968:3RU7GD8VPP075U98ZLXEL2RW9YNSPW", "dateTime": 1516641376635}, {"current_trial": 116, "trialdata": {"rt": 36611, "trial_type": "text", "internal_node_id": "0.0-89.0", "time_elapsed": 1050688, "key_press": 13, "type": "INSTRUCTIONS", "trial_index": 116}, "uniqueid": "MTK1968:3RU7GD8VPP075U98ZLXEL2RW9YNSPW", "dateTime": 1516641415250}, {"current_trial": 117, "trialdata": {"rt": [4679, 6696, 8967, 10930, 13545, 16403, 19132, 21805], "trial_type": "math-distractor", "key_times": [4046, 4341, 4679, 6070, 6349, 6696, 8409, 8697, 8967, 10488, 10748, 10930, 12929, 13164, 13545, 15727, 16119, 16403, 18370, 18852, 19132, 21352, 21461, 21805, 23829, 23997], "responses": ["13", "19", "14", "22", "18", "16", "16", "21"], "num2": [8, 4, 6, 9, 6, 2, 5, 8, 8], "num3": [3, 8, 7, 8, 3, 5, 4, 7, 8], "conditions": [24, 1600, "a", 24000], "internal_node_id": "0.0-90.0", "key_presses": [49, 51, 13, 49, 57, 13, 49, 52, 13, 50, 50, 13, 49, 56, 13, 49, 54, 13, 49, 54, 13, 50, 49, 13, 50, 50], "trial": 3, "time_elapsed": 1076704, "type": "DISTRACTOR", "trial_index": 117, "num1": [2, 7, 1, 4, 9, 9, 7, 6, 6]}, "uniqueid": "MTK1968:3RU7GD8VPP075U98ZLXEL2RW9YNSPW", "dateTime": 1516641441266}, {"current_trial": 118, "trialdata": {"rt": -1, "trial_type": "single-stim", "stimulus": "<p id=\"stim\">10</p>", "internal_node_id": "0.0-91.0-0.0", "time_elapsed": 1079708, "key_press": -1, "trial_index": 118}, "uniqueid": "MTK1968:3RU7GD8VPP075U98ZLXEL2RW9YNSPW", "dateTime": 1516641444269}, {"current_trial": 119, "trialdata": {"rt": -1, "trial_type": "single-stim", "stimulus": "<p id=\"stim\">9</p>", "internal_node_id": "0.0-91.0-1.0", "time_elapsed": 1080720, "key_press": -1, "trial_index": 119}, "uniqueid": "MTK1968:3RU7GD8VPP075U98ZLXEL2RW9YNSPW", "dateTime": 1516641445281}, {"current_trial": 120, "trialdata": {"rt": -1, "trial_type": "single-stim", "stimulus": "<p id=\"stim\">8</p>", "internal_node_id": "0.0-91.0-2.0", "time_elapsed": 1081724, "key_press": -1, "trial_index": 120}, "uniqueid": "MTK1968:3RU7GD8VPP075U98ZLXEL2RW9YNSPW", "dateTime": 1516641446285}, {"current_trial": 121, "trialdata": {"rt": -1, "trial_type": "single-stim", "stimulus": "<p id=\"stim\">7</p>", "internal_node_id": "0.0-91.0-3.0", "time_elapsed": 1082726, "key_press": -1, "trial_index": 121}, "uniqueid": "MTK1968:3RU7GD8VPP075U98ZLXEL2RW9YNSPW", "dateTime": 1516641447288}, {"current_trial": 122, "trialdata": {"rt": -1, "trial_type": "single-stim", "stimulus": "<p id=\"stim\">6</p>", "internal_node_id": "0.0-91.0-4.0", "time_elapsed": 1083733, "key_press": -1, "trial_index": 122}, "uniqueid": "MTK1968:3RU7GD8VPP075U98ZLXEL2RW9YNSPW", "dateTime": 1516641448295}, {"current_trial": 123, "trialdata": {"rt": -1, "trial_type": "single-stim", "stimulus": "<p id=\"stim\">5</p>", "internal_node_id": "0.0-91.0-5.0", "time_elapsed": 1084736, "key_press": -1, "trial_index": 123}, "uniqueid": "MTK1968:3RU7GD8VPP075U98ZLXEL2RW9YNSPW", "dateTime": 1516641449298}, {"current_trial": 124, "trialdata": {"rt": -1, "trial_type": "single-stim", "stimulus": "<p id=\"stim\">4</p>", "internal_node_id": "0.0-91.0-6.0", "time_elapsed": 1085747, "key_press": -1, "trial_index": 124}, "uniqueid": "MTK1968:3RU7GD8VPP075U98ZLXEL2RW9YNSPW", "dateTime": 1516641450309}, {"current_trial": 125, "trialdata": {"rt": -1, "trial_type": "single-stim", "stimulus": "<p id=\"stim\">3</p>", "internal_node_id": "0.0-91.0-7.0", "time_elapsed": 1086749, "key_press": -1, "trial_index": 125}, "uniqueid": "MTK1968:3RU7GD8VPP075U98ZLXEL2RW9YNSPW", "dateTime": 1516641451310}, {"current_trial": 126, "trialdata": {"rt": -1, "trial_type": "single-stim", "stimulus": "<p id=\"stim\">2</p>", "internal_node_id": "0.0-91.0-8.0", "time_elapsed": 1087773, "key_press": -1, "trial_index": 126}, "uniqueid": "MTK1968:3RU7GD8VPP075U98ZLXEL2RW9YNSPW", "dateTime": 1516641452335}, {"current_trial": 127, "trialdata": {"rt": -1, "trial_type": "single-stim", "stimulus": "<p id=\"stim\">1</p>", "internal_node_id": "0.0-91.0-9.0", "time_elapsed": 1088776, "key_press": -1, "trial_index": 127}, "uniqueid": "MTK1968:3RU7GD8VPP075U98ZLXEL2RW9YNSPW", "dateTime": 1516641453338}, {"current_trial": 128, "trialdata": {"rt": -1, "trial_type": "single-stim", "stimulus": "<p id=\"stim\">+</p>", "internal_node_id": "0.0-92.0-0.0", "time_elapsed": 1090297, "key_press": -1, "type": "FIXATION", "trial_index": 128}, "uniqueid": "MTK1968:3RU7GD8VPP075U98ZLXEL2RW9YNSPW", "dateTime": 1516641454858}, {"current_trial": 129, "trialdata": {"rt": -1000, "trial_type": "single-audio", "word": "mammal", "stimulus": "/static/audio/wordpool/MAMMAL.wav", "conditions": [24, 1600, "a", 24000], "internal_node_id": "0.0-93.0", "trial": 3, "time_elapsed": 1092932, "serialpos": 0, "key_press": -1, "wordID": 860, "type": "PRES_AUD", "trial_index": 129}, "uniqueid": "MTK1968:3RU7GD8VPP075U98ZLXEL2RW9YNSPW", "dateTime": 1516641457493}, {"current_trial": 130, "trialdata": {"rt": -1000, "trial_type": "single-audio", "word": "rabbit", "stimulus": "/static/audio/wordpool/RABBIT.wav", "conditions": [24, 1600, "a", 24000], "internal_node_id": "0.0-94.0", "trial": 3, "time_elapsed": 1095433, "serialpos": 1, "key_press": -1, "wordID": 1151, "type": "PRES_AUD", "trial_index": 130}, "uniqueid": "MTK1968:3RU7GD8VPP075U98ZLXEL2RW9YNSPW", "dateTime": 1516641459994}, {"current_trial": 131, "trialdata": {"rt": -1000, "trial_type": "single-audio", "word": "sculpture", "stimulus": "/static/audio/wordpool/SCULPTURE.wav", "conditions": [24, 1600, "a", 24000], "internal_node_id": "0.0-95.0", "trial": 3, "time_elapsed": 1097948, "serialpos": 2, "key_press": -1, "wordID": 1257, "type": "PRES_AUD", "trial_index": 131}, "uniqueid": "MTK1968:3RU7GD8VPP075U98ZLXEL2RW9YNSPW", "dateTime": 1516641462510}, {"current_trial": 132, "trialdata": {"rt": -1000, "trial_type": "single-audio", "word": "spool", "stimulus": "/static/audio/wordpool/SPOOL.wav", "conditions": [24, 1600, "a", 24000], "internal_node_id": "0.0-96.0", "trial": 3, "time_elapsed": 1100399, "serialpos": 3, "key_press": -1, "wordID": 1355, "type": "PRES_AUD", "trial_index": 132}, "uniqueid": "MTK1968:3RU7GD8VPP075U98ZLXEL2RW9YNSPW", "dateTime": 1516641464960}, {"current_trial": 133, "trialdata": {"rt": -1000, "trial_type": "single-audio", "word": "salad", "stimulus": "/static/audio/wordpool/SALAD.wav", "conditions": [24, 1600, "a", 24000], "internal_node_id": "0.0-97.0", "trial": 3, "time_elapsed": 1103116, "serialpos": 4, "key_press": -1, "wordID": 1223, "type": "PRES_AUD", "trial_index": 133}, "uniqueid": "MTK1968:3RU7GD8VPP075U98ZLXEL2RW9YNSPW", "dateTime": 1516641467677}, {"current_trial": 134, "trialdata": {"rt": -1000, "trial_type": "single-audio", "word": "cabbage", "stimulus": "/static/audio/wordpool/CABBAGE.wav", "conditions": [24, 1600, "a", 24000], "internal_node_id": "0.0-98.0", "trial": 3, "time_elapsed": 1105826, "serialpos": 5, "key_press": -1, "wordID": 209, "type": "PRES_AUD", "trial_index": 134}, "uniqueid": "MTK1968:3RU7GD8VPP075U98ZLXEL2RW9YNSPW", "dateTime": 1516641470423}, {"current_trial": 135, "trialdata": {"rt": -1000, "trial_type": "single-audio", "word": "beaver", "stimulus": "/static/audio/wordpool/BEAVER.wav", "conditions": [24, 1600, "a", 24000], "internal_node_id": "0.0-99.0", "trial": 3, "time_elapsed": 1108456, "serialpos": 6, "key_press": -1, "wordID": 108, "type": "PRES_AUD", "trial_index": 135}, "uniqueid": "MTK1968:3RU7GD8VPP075U98ZLXEL2RW9YNSPW", "dateTime": 1516641473017}, {"current_trial": 136, "trialdata": {"rt": -1000, "trial_type": "single-audio", "word": "coin", "stimulus": "/static/audio/wordpool/COIN.wav", "conditions": [24, 1600, "a", 24000], "internal_node_id": "0.0-100.0", "trial": 3, "time_elapsed": 1111275, "serialpos": 7, "key_press": -1, "wordID": 342, "type": "PRES_AUD", "trial_index": 136}, "uniqueid": "MTK1968:3RU7GD8VPP075U98ZLXEL2RW9YNSPW", "dateTime": 1516641475836}, {"current_trial": 137, "trialdata": {"rt": -1000, "trial_type": "single-audio", "word": "cocoon", "stimulus": "/static/audio/wordpool/COCOON.wav", "conditions": [24, 1600, "a", 24000], "internal_node_id": "0.0-101.0", "trial": 3, "time_elapsed": 1113839, "serialpos": 8, "key_press": -1, "wordID": 338, "type": "PRES_AUD", "trial_index": 137}, "uniqueid": "MTK1968:3RU7GD8VPP075U98ZLXEL2RW9YNSPW", "dateTime": 1516641478400}, {"current_trial": 138, "trialdata": {"rt": -1000, "trial_type": "single-audio", "word": "cloud", "stimulus": "/static/audio/wordpool/CLOUD.wav", "conditions": [24, 1600, "a", 24000], "internal_node_id": "0.0-102.0", "trial": 3, "time_elapsed": 1116270, "serialpos": 9, "key_press": -1, "wordID": 327, "type": "PRES_AUD", "trial_index": 138}, "uniqueid": "MTK1968:3RU7GD8VPP075U98ZLXEL2RW9YNSPW", "dateTime": 1516641480831}, {"current_trial": 139, "trialdata": {"rt": -1000, "trial_type": "single-audio", "word": "salt", "stimulus": "/static/audio/wordpool/SALT.wav", "conditions": [24, 1600, "a", 24000], "internal_node_id": "0.0-103.0", "trial": 3, "time_elapsed": 1118900, "serialpos": 10, "key_press": -1, "wordID": 1228, "type": "PRES_AUD", "trial_index": 139}, "uniqueid": "MTK1968:3RU7GD8VPP075U98ZLXEL2RW9YNSPW", "dateTime": 1516641483461}, {"current_trial": 140, "trialdata": {"rt": -1000, "trial_type": "single-audio", "word": "candy", "stimulus": "/static/audio/wordpool/CANDY.wav", "conditions": [24, 1600, "a", 24000], "internal_node_id": "0.0-104.0", "trial": 3, "time_elapsed": 1121537, "serialpos": 11, "key_press": -1, "wordID": 229, "type": "PRES_AUD", "trial_index": 140}, "uniqueid": "MTK1968:3RU7GD8VPP075U98ZLXEL2RW9YNSPW", "dateTime": 1516641486098}, {"current_trial": 141, "trialdata": {"rt": -1000, "trial_type": "single-audio", "word": "shrub", "stimulus": "/static/audio/wordpool/SHRUB.wav", "conditions": [24, 1600, "a", 24000], "internal_node_id": "0.0-105.0", "trial": 3, "time_elapsed": 1124232, "serialpos": 12, "key_press": -1, "wordID": 1298, "type": "PRES_AUD", "trial_index": 141}, "uniqueid": "MTK1968:3RU7GD8VPP075U98ZLXEL2RW9YNSPW", "dateTime": 1516641488793}, {"current_trial": 142, "trialdata": {"rt": -1000, "trial_type": "single-audio", "word": "bug", "stimulus": "/static/audio/wordpool/BUG.wav", "conditions": [24, 1600, "a", 24000], "internal_node_id": "0.0-106.0", "trial": 3, "time_elapsed": 1126814, "serialpos": 13, "key_press": -1, "wordID": 186, "type": "PRES_AUD", "trial_index": 142}, "uniqueid": "MTK1968:3RU7GD8VPP075U98ZLXEL2RW9YNSPW", "dateTime": 1516641491375}, {"current_trial": 143, "trialdata": {"rt": -1000, "trial_type": "single-audio", "word": "champagne", "stimulus": "/static/audio/wordpool/CHAMPAGNE.wav", "conditions": [24, 1600, "a", 24000], "internal_node_id": "0.0-107.0", "trial": 3, "time_elapsed": 1129581, "serialpos": 14, "key_press": -1, "wordID": 277, "type": "PRES_AUD", "trial_index": 143}, "uniqueid": "MTK1968:3RU7GD8VPP075U98ZLXEL2RW9YNSPW", "dateTime": 1516641494142}, {"current_trial": 144, "trialdata": {"rt": -1000, "trial_type": "single-audio", "word": "baby", "stimulus": "/static/audio/wordpool/BABY.wav", "conditions": [24, 1600, "a", 24000], "internal_node_id": "0.0-108.0", "trial": 3, "time_elapsed": 1132119, "serialpos": 15, "key_press": -1, "wordID": 63, "type": "PRES_AUD", "trial_index": 144}, "uniqueid": "MTK1968:3RU7GD8VPP075U98ZLXEL2RW9YNSPW", "dateTime": 1516641496681}, {"current_trial": 145, "trialdata": {"rt": -1000, "trial_type": "single-audio", "word": "infant", "stimulus": "/static/audio/wordpool/INFANT.wav", "conditions": [24, 1600, "a", 24000], "internal_node_id": "0.0-109.0", "trial": 3, "time_elapsed": 1134692, "serialpos": 16, "key_press": -1, "wordID": 736, "type": "PRES_AUD", "trial_index": 145}, "uniqueid": "MTK1968:3RU7GD8VPP075U98ZLXEL2RW9YNSPW", "dateTime": 1516641499254}, {"current_trial": 146, "trialdata": {"rt": -1000, "trial_type": "single-audio", "word": "plate", "stimulus": "/static/audio/wordpool/PLATE.wav", "conditions": [24, 1600, "a", 24000], "internal_node_id": "0.0-110.0", "trial": 3, "time_elapsed": 1137413, "serialpos": 17, "key_press": -1, "wordID": 1085, "type": "PRES_AUD", "trial_index": 146}, "uniqueid": "MTK1968:3RU7GD8VPP075U98ZLXEL2RW9YNSPW", "dateTime": 1516641501974}, {"current_trial": 147, "trialdata": {"rt": -1000, "trial_type": "single-audio", "word": "hiker", "stimulus": "/static/audio/wordpool/HIKER.wav", "conditions": [24, 1600, "a", 24000], "internal_node_id": "0.0-111.0", "trial": 3, "time_elapsed": 1140137, "serialpos": 18, "key_press": -1, "wordID": 707, "type": "PRES_AUD", "trial_index": 147}, "uniqueid": "MTK1968:3RU7GD8VPP075U98ZLXEL2RW9YNSPW", "dateTime": 1516641504698}, {"current_trial": 148, "trialdata": {"rt": -1000, "trial_type": "single-audio", "word": "ulcer", "stimulus": "/static/audio/wordpool/ULCER.wav", "conditions": [24, 1600, "a", 24000], "internal_node_id": "0.0-112.0", "trial": 3, "time_elapsed": 1142583, "serialpos": 19, "key_press": -1, "wordID": 1532, "type": "PRES_AUD", "trial_index": 148}, "uniqueid": "MTK1968:3RU7GD8VPP075U98ZLXEL2RW9YNSPW", "dateTime": 1516641507144}, {"current_trial": 149, "trialdata": {"rt": -1000, "trial_type": "single-audio", "word": "lily", "stimulus": "/static/audio/wordpool/LILY.wav", "conditions": [24, 1600, "a", 24000], "internal_node_id": "0.0-113.0", "trial": 3, "time_elapsed": 1145163, "serialpos": 20, "key_press": -1, "wordID": 820, "type": "PRES_AUD", "trial_index": 149}, "uniqueid": "MTK1968:3RU7GD8VPP075U98ZLXEL2RW9YNSPW", "dateTime": 1516641509724}, {"current_trial": 150, "trialdata": {"rt": -1000, "trial_type": "single-audio", "word": "scalpel", "stimulus": "/static/audio/wordpool/SCALPEL.wav", "conditions": [24, 1600, "a", 24000], "internal_node_id": "0.0-114.0", "trial": 3, "time_elapsed": 1147596, "serialpos": 21, "key_press": -1, "wordID": 1242, "type": "PRES_AUD", "trial_index": 150}, "uniqueid": "MTK1968:3RU7GD8VPP075U98ZLXEL2RW9YNSPW", "dateTime": 1516641512157}, {"current_trial": 151, "trialdata": {"rt": -1000, "trial_type": "single-audio", "word": "child", "stimulus": "/static/audio/wordpool/CHILD.wav", "conditions": [24, 1600, "a", 24000], "internal_node_id": "0.0-115.0", "trial": 3, "time_elapsed": 1150331, "serialpos": 22, "key_press": -1, "wordID": 298, "type": "PRES_AUD", "trial_index": 151}, "uniqueid": "MTK1968:3RU7GD8VPP075U98ZLXEL2RW9YNSPW", "dateTime": 1516641514892}, {"current_trial": 152, "trialdata": {"rt": -1000, "trial_type": "single-audio", "word": "college", "stimulus": "/static/audio/wordpool/COLLEGE.wav", "conditions": [24, 1600, "a", 24000], "internal_node_id": "0.0-116.0", "trial": 3, "time_elapsed": 1152753, "serialpos": 23, "key_press": -1, "wordID": 345, "type": "PRES_AUD", "trial_index": 152}, "uniqueid": "MTK1968:3RU7GD8VPP075U98ZLXEL2RW9YNSPW", "dateTime": 1516641517314}, {"current_trial": 153, "trialdata": {"rt": -1, "trial_type": "single-stim", "stimulus": "", "internal_node_id": "0.0-117.0-0.0", "time_elapsed": 1154151, "key_press": -1, "type": "PRE_RECALL_DELAY", "trial_index": 153}, "uniqueid": "MTK1968:3RU7GD8VPP075U98ZLXEL2RW9YNSPW", "dateTime": 1516641518712}, {"current_trial": 154, "trialdata": {"rt": -1000, "trial_type": "single-audio", "stimulus": "/static/audio/400Hz.wav", "internal_node_id": "0.0-118.0", "time_elapsed": 1154654, "key_press": -1, "type": "PRE_RECALL_ALERT", "trial_index": 154}, "uniqueid": "MTK1968:3RU7GD8VPP075U98ZLXEL2RW9YNSPW", "dateTime": 1516641519215}, {"current_trial": 155, "trialdata": {"rt": [3390, 5434, 7329, 11000, 13904, 32335, 34928], "recwords": ["college", "scapel", "rabbit", "cocoon", "baby", "came", "camel"], "key_times": [1355, 1523, 1772, 1964, 2218, 2493, 2862, 3390, 3799, 4101, 4365, 4616, 4886, 5057, 5434, 5826, 6257, 6518, 6695, 6803, 7021, 7329, 8173, 8341, 8910, 9099, 9238, 9734, 9913, 10203, 10415, 10638, 11000, 12961, 13147, 13262, 13486, 13904, 29472, 30981, 31602, 31783, 31955, 32131, 32335, 33615, 33792, 34060, 34194, 34565, 34928], "trial_type": "free-recall", "conditions": [24, 1600, "a", 24000], "internal_node_id": "0.0-119.0-0.0", "key_presses": [67, 79, 76, 76, 69, 71, 69, 13, 83, 67, 65, 80, 69, 76, 13, 82, 65, 66, 66, 73, 84, 13, 67, 79, 67, 67, 79, 8, 8, 79, 79, 78, 13, 66, 65, 66, 89, 13, 67, 8, 67, 65, 77, 69, 13, 67, 65, 77, 69, 76, 13], "trial": 3, "time_elapsed": 1214686, "type": "FREE_RECALL", "trial_index": 155}, "uniqueid": "MTK1968:3RU7GD8VPP075U98ZLXEL2RW9YNSPW", "dateTime": 1516641579254}, {"current_trial": 156, "trialdata": {"rt": 1336, "trial_type": "text", "internal_node_id": "0.0-120.0", "time_elapsed": 1218042, "key_press": 32, "type": "INSTRUCTIONS", "trial_index": 156}, "uniqueid": "MTK1968:3RU7GD8VPP075U98ZLXEL2RW9YNSPW", "dateTime": 1516641582603}, {"current_trial": 157, "trialdata": {"rt": [1662, 4155, 6197, 8838, 10913], "trial_type": "math-distractor", "key_times": [1236, 1399, 1662, 3169, 3848, 4155, 5722, 5878, 6197, 8038, 8339, 8838, 10354, 10601, 10913], "responses": ["12", "14", "19", "18", "18"], "num2": [5, 4, 2, 7, 9, 6], "num3": [2, 2, 8, 8, 1, 8], "conditions": [12, 1600, "a", 12000], "internal_node_id": "0.0-121.0", "key_presses": [49, 50, 13, 49, 52, 13, 49, 57, 13, 49, 56, 13, 49, 56, 13], "trial": 4, "time_elapsed": 1232101, "type": "DISTRACTOR", "trial_index": 157, "num1": [5, 8, 9, 3, 8, 5]}, "uniqueid": "MTK1968:3RU7GD8VPP075U98ZLXEL2RW9YNSPW", "dateTime": 1516641596662}, {"current_trial": 158, "trialdata": {"rt": -1, "trial_type": "single-stim", "stimulus": "<p id=\"stim\">10</p>", "internal_node_id": "0.0-122.0-0.0", "time_elapsed": 1235106, "key_press": -1, "trial_index": 158}, "uniqueid": "MTK1968:3RU7GD8VPP075U98ZLXEL2RW9YNSPW", "dateTime": 1516641599667}, {"current_trial": 159, "trialdata": {"rt": -1, "trial_type": "single-stim", "stimulus": "<p id=\"stim\">9</p>", "internal_node_id": "0.0-122.0-1.0", "time_elapsed": 1236133, "key_press": -1, "trial_index": 159}, "uniqueid": "MTK1968:3RU7GD8VPP075U98ZLXEL2RW9YNSPW", "dateTime": 1516641600694}, {"current_trial": 160, "trialdata": {"rt": -1, "trial_type": "single-stim", "stimulus": "<p id=\"stim\">8</p>", "internal_node_id": "0.0-122.0-2.0", "time_elapsed": 1237136, "key_press": -1, "trial_index": 160}, "uniqueid": "MTK1968:3RU7GD8VPP075U98ZLXEL2RW9YNSPW", "dateTime": 1516641601697}, {"current_trial": 161, "trialdata": {"rt": -1, "trial_type": "single-stim", "stimulus": "<p id=\"stim\">7</p>", "internal_node_id": "0.0-122.0-3.0", "time_elapsed": 1238147, "key_press": -1, "trial_index": 161}, "uniqueid": "MTK1968:3RU7GD8VPP075U98ZLXEL2RW9YNSPW", "dateTime": 1516641602708}, {"current_trial": 162, "trialdata": {"rt": -1, "trial_type": "single-stim", "stimulus": "<p id=\"stim\">6</p>", "internal_node_id": "0.0-122.0-4.0", "time_elapsed": 1239170, "key_press": -1, "trial_index": 162}, "uniqueid": "MTK1968:3RU7GD8VPP075U98ZLXEL2RW9YNSPW", "dateTime": 1516641603732}, {"current_trial": 163, "trialdata": {"rt": -1, "trial_type": "single-stim", "stimulus": "<p id=\"stim\">5</p>", "internal_node_id": "0.0-122.0-5.0", "time_elapsed": 1240177, "key_press": -1, "trial_index": 163}, "uniqueid": "MTK1968:3RU7GD8VPP075U98ZLXEL2RW9YNSPW", "dateTime": 1516641604739}, {"current_trial": 164, "trialdata": {"rt": -1, "trial_type": "single-stim", "stimulus": "<p id=\"stim\">4</p>", "internal_node_id": "0.0-122.0-6.0", "time_elapsed": 1241181, "key_press": -1, "trial_index": 164}, "uniqueid": "MTK1968:3RU7GD8VPP075U98ZLXEL2RW9YNSPW", "dateTime": 1516641605742}, {"current_trial": 165, "trialdata": {"rt": -1, "trial_type": "single-stim", "stimulus": "<p id=\"stim\">3</p>", "internal_node_id": "0.0-122.0-7.0", "time_elapsed": 1242190, "key_press": -1, "trial_index": 165}, "uniqueid": "MTK1968:3RU7GD8VPP075U98ZLXEL2RW9YNSPW", "dateTime": 1516641606752}, {"current_trial": 166, "trialdata": {"rt": -1, "trial_type": "single-stim", "stimulus": "<p id=\"stim\">2</p>", "internal_node_id": "0.0-122.0-8.0", "time_elapsed": 1243193, "key_press": -1, "trial_index": 166}, "uniqueid": "MTK1968:3RU7GD8VPP075U98ZLXEL2RW9YNSPW", "dateTime": 1516641607755}, {"current_trial": 167, "trialdata": {"rt": -1, "trial_type": "single-stim", "stimulus": "<p id=\"stim\">1</p>", "internal_node_id": "0.0-122.0-9.0", "time_elapsed": 1244196, "key_press": -1, "trial_index": 167}, "uniqueid": "MTK1968:3RU7GD8VPP075U98ZLXEL2RW9YNSPW", "dateTime": 1516641608757}, {"current_trial": 168, "trialdata": {"rt": -1, "trial_type": "single-stim", "stimulus": "<p id=\"stim\">+</p>", "internal_node_id": "0.0-123.0-0.0", "time_elapsed": 1245698, "key_press": -1, "type": "FIXATION", "trial_index": 168}, "uniqueid": "MTK1968:3RU7GD8VPP075U98ZLXEL2RW9YNSPW", "dateTime": 1516641610259}, {"current_trial": 169, "trialdata": {"rt": -1000, "trial_type": "single-audio", "word": "brandy", "stimulus": "/static/audio/wordpool/BRANDY.wav", "conditions": [12, 1600, "a", 12000], "internal_node_id": "0.0-124.0", "trial": 4, "time_elapsed": 1248383, "serialpos": 0, "key_press": -1, "wordID": 168, "type": "PRES_AUD", "trial_index": 169}, "uniqueid": "MTK1968:3RU7GD8VPP075U98ZLXEL2RW9YNSPW", "dateTime": 1516641612944}, {"current_trial": 170, "trialdata": {"rt": -1000, "trial_type": "single-audio", "word": "banquet", "stimulus": "/static/audio/wordpool/BANQUET.wav", "conditions": [12, 1600, "a", 12000], "internal_node_id": "0.0-125.0", "trial": 4, "time_elapsed": 1250948, "serialpos": 1, "key_press": -1, "wordID": 85, "type": "PRES_AUD", "trial_index": 170}, "uniqueid": "MTK1968:3RU7GD8VPP075U98ZLXEL2RW9YNSPW", "dateTime": 1516641615509}, {"current_trial": 171, "trialdata": {"rt": -1000, "trial_type": "single-audio", "word": "trout", "stimulus": "/static/audio/wordpool/TROUT.wav", "conditions": [12, 1600, "a", 12000], "internal_node_id": "0.0-126.0", "trial": 4, "time_elapsed": 1253706, "serialpos": 2, "key_press": -1, "wordID": 1510, "type": "PRES_AUD", "trial_index": 171}, "uniqueid": "MTK1968:3RU7GD8VPP075U98ZLXEL2RW9YNSPW", "dateTime": 1516641618267}, {"current_trial": 172, "trialdata": {"rt": -1000, "trial_type": "single-audio", "word": "kidney", "stimulus": "/static/audio/wordpool/KIDNEY.wav", "conditions": [12, 1600, "a", 12000], "internal_node_id": "0.0-127.0", "trial": 4, "time_elapsed": 1256416, "serialpos": 3, "key_press": -1, "wordID": 775, "type": "PRES_AUD", "trial_index": 172}, "uniqueid": "MTK1968:3RU7GD8VPP075U98ZLXEL2RW9YNSPW", "dateTime": 1516641620977}, {"current_trial": 173, "trialdata": {"rt": -1000, "trial_type": "single-audio", "word": "marrow", "stimulus": "/static/audio/wordpool/MARROW.wav", "conditions": [12, 1600, "a", 12000], "internal_node_id": "0.0-128.0", "trial": 4, "time_elapsed": 1259070, "serialpos": 4, "key_press": -1, "wordID": 871, "type": "PRES_AUD", "trial_index": 173}, "uniqueid": "MTK1968:3RU7GD8VPP075U98ZLXEL2RW9YNSPW", "dateTime": 1516641623631}, {"current_trial": 174, "trialdata": {"rt": -1000, "trial_type": "single-audio", "word": "barrel", "stimulus": "/static/audio/wordpool/BARREL.wav", "conditions": [12, 1600, "a", 12000], "internal_node_id": "0.0-129.0", "trial": 4, "time_elapsed": 1261844, "serialpos": 5, "key_press": -1, "wordID": 90, "type": "PRES_AUD", "trial_index": 174}, "uniqueid": "MTK1968:3RU7GD8VPP075U98ZLXEL2RW9YNSPW", "dateTime": 1516641626405}, {"current_trial": 175, "trialdata": {"rt": -1000, "trial_type": "single-audio", "word": "pigeon", "stimulus": "/static/audio/wordpool/PIGEON.wav", "conditions": [12, 1600, "a", 12000], "internal_node_id": "0.0-130.0", "trial": 4, "time_elapsed": 1264295, "serialpos": 6, "key_press": -1, "wordID": 1064, "type": "PRES_AUD", "trial_index": 175}, "uniqueid": "MTK1968:3RU7GD8VPP075U98ZLXEL2RW9YNSPW", "dateTime": 1516641628857}, {"current_trial": 176, "trialdata": {"rt": -1000, "trial_type": "single-audio", "word": "racket", "stimulus": "/static/audio/wordpool/RACKET.wav", "conditions": [12, 1600, "a", 12000], "internal_node_id": "0.0-131.0", "trial": 4, "time_elapsed": 1267078, "serialpos": 7, "key_press": -1, "wordID": 1154, "type": "PRES_AUD", "trial_index": 176}, "uniqueid": "MTK1968:3RU7GD8VPP075U98ZLXEL2RW9YNSPW", "dateTime": 1516641631639}, {"current_trial": 177, "trialdata": {"rt": -1000, "trial_type": "single-audio", "word": "sparrow", "stimulus": "/static/audio/wordpool/SPARROW.wav", "conditions": [12, 1600, "a", 12000], "internal_node_id": "0.0-132.0", "trial": 4, "time_elapsed": 1269809, "serialpos": 8, "key_press": -1, "wordID": 1346, "type": "PRES_AUD", "trial_index": 177}, "uniqueid": "MTK1968:3RU7GD8VPP075U98ZLXEL2RW9YNSPW", "dateTime": 1516641634370}, {"current_trial": 178, "trialdata": {"rt": -1000, "trial_type": "single-audio", "word": "airport", "stimulus": "/static/audio/wordpool/AIRPORT.wav", "conditions": [12, 1600, "a", 12000], "internal_node_id": "0.0-133.0", "trial": 4, "time_elapsed": 1272401, "serialpos": 9, "key_press": -1, "wordID": 12, "type": "PRES_AUD", "trial_index": 178}, "uniqueid": "MTK1968:3RU7GD8VPP075U98ZLXEL2RW9YNSPW", "dateTime": 1516641636964}, {"current_trial": 179, "trialdata": {"rt": -1000, "trial_type": "single-audio", "word": "dolphin", "stimulus": "/static/audio/wordpool/DOLPHIN.wav", "conditions": [12, 1600, "a", 12000], "internal_node_id": "0.0-134.0", "trial": 4, "time_elapsed": 1274961, "serialpos": 10, "key_press": -1, "wordID": 482, "type": "PRES_AUD", "trial_index": 179}, "uniqueid": "MTK1968:3RU7GD8VPP075U98ZLXEL2RW9YNSPW", "dateTime": 1516641639522}, {"current_trial": 180, "trialdata": {"rt": -1000, "trial_type": "single-audio", "word": "salmon", "stimulus": "/static/audio/wordpool/SALMON.wav", "conditions": [12, 1600, "a", 12000], "internal_node_id": "0.0-135.0", "trial": 4, "time_elapsed": 1277640, "serialpos": 11, "key_press": -1, "wordID": 1226, "type": "PRES_AUD", "trial_index": 180}, "uniqueid": "MTK1968:3RU7GD8VPP075U98ZLXEL2RW9YNSPW", "dateTime": 1516641642201}, {"current_trial": 181, "trialdata": {"rt": -1, "trial_type": "single-stim", "stimulus": "", "internal_node_id": "0.0-136.0-0.0", "time_elapsed": 1278942, "key_press": -1, "type": "PRE_RECALL_DELAY", "trial_index": 181}, "uniqueid": "MTK1968:3RU7GD8VPP075U98ZLXEL2RW9YNSPW", "dateTime": 1516641643503}, {"current_trial": 182, "trialdata": {"rt": -1000, "trial_type": "single-audio", "stimulus": "/static/audio/400Hz.wav", "internal_node_id": "0.0-137.0", "time_elapsed": 1279445, "key_press": -1, "type": "PRE_RECALL_ALERT", "trial_index": 182}, "uniqueid": "MTK1968:3RU7GD8VPP075U98ZLXEL2RW9YNSPW", "dateTime": 1516641644006}, {"current_trial": 183, "trialdata": {"rt": [8354, 10944, 14045, 16902, 23484], "recwords": ["salmon", "dolphin", "marrow", "barrel", "airport"], "key_times": [1112, 1300, 1303, 1470, 1473, 1473, 1811, 6787, 7140, 7454, 7619, 8354, 8922, 9417, 9718, 10035, 10266, 10455, 10632, 10944, 11695, 11916, 12180, 12870, 13055, 13283, 13386, 13639, 14045, 14525, 14738, 14926, 15133, 15291, 15458, 16902, 21602, 21878, 22100, 22336, 22539, 22804, 23223, 23484], "trial_type": "free-recall", "conditions": [12, 1600, "a", 12000], "internal_node_id": "0.0-138.0-0.0", "key_presses": [17, 83, 17, 65, 17, 17, 91, 76, 77, 79, 78, 13, 68, 79, 76, 80, 72, 73, 78, 13, 77, 65, 79, 8, 82, 82, 79, 87, 13, 66, 65, 82, 82, 69, 76, 13, 65, 73, 82, 80, 79, 82, 84, 13], "trial": 4, "time_elapsed": 1339449, "type": "FREE_RECALL", "trial_index": 183}, "uniqueid": "MTK1968:3RU7GD8VPP075U98ZLXEL2RW9YNSPW", "dateTime": 1516641704022}, {"current_trial": 184, "trialdata": {"rt": 930, "trial_type": "text", "internal_node_id": "0.0-139.0", "time_elapsed": 1342393, "key_press": 32, "type": "INSTRUCTIONS", "trial_index": 184}, "uniqueid": "MTK1968:3RU7GD8VPP075U98ZLXEL2RW9YNSPW", "dateTime": 1516641706954}, {"current_trial": 185, "trialdata": {"rt": [2956, 5290, 9309, 11632], "trial_type": "math-distractor", "key_times": [2365, 2528, 2956, 4665, 4978, 5290, 7243, 7715, 8623, 8929, 9309, 11081, 11328, 11632], "responses": ["19", "17", "24", "12"], "num2": [3, 9, 8, 3, 6], "num3": [7, 3, 9, 5, 6], "conditions": [24, 800, "a", 12000], "internal_node_id": "0.0-140.0", "key_presses": [49, 57, 13, 49, 55, 13, 50, 53, 8, 52, 13, 49, 50, 13], "trial": 5, "time_elapsed": 1356427, "type": "DISTRACTOR", "trial_index": 185, "num1": [9, 5, 7, 4, 8]}, "uniqueid": "MTK1968:3RU7GD8VPP075U98ZLXEL2RW9YNSPW", "dateTime": 1516641720988}, {"current_trial": 186, "trialdata": {"rt": -1, "trial_type": "single-stim", "stimulus": "<p id=\"stim\">10</p>", "internal_node_id": "0.0-141.0-0.0", "time_elapsed": 1359434, "key_press": -1, "trial_index": 186}, "uniqueid": "MTK1968:3RU7GD8VPP075U98ZLXEL2RW9YNSPW", "dateTime": 1516641723995}, {"current_trial": 187, "trialdata": {"rt": -1, "trial_type": "single-stim", "stimulus": "<p id=\"stim\">9</p>", "internal_node_id": "0.0-141.0-1.0", "time_elapsed": 1360440, "key_press": -1, "trial_index": 187}, "uniqueid": "MTK1968:3RU7GD8VPP075U98ZLXEL2RW9YNSPW", "dateTime": 1516641725001}, {"current_trial": 188, "trialdata": {"rt": -1, "trial_type": "single-stim", "stimulus": "<p id=\"stim\">8</p>", "internal_node_id": "0.0-141.0-2.0", "time_elapsed": 1361453, "key_press": -1, "trial_index": 188}, "uniqueid": "MTK1968:3RU7GD8VPP075U98ZLXEL2RW9YNSPW", "dateTime": 1516641726014}, {"current_trial": 189, "trialdata": {"rt": -1, "trial_type": "single-stim", "stimulus": "<p id=\"stim\">7</p>", "internal_node_id": "0.0-141.0-3.0", "time_elapsed": 1362460, "key_press": -1, "trial_index": 189}, "uniqueid": "MTK1968:3RU7GD8VPP075U98ZLXEL2RW9YNSPW", "dateTime": 1516641727021}, {"current_trial": 190, "trialdata": {"rt": -1, "trial_type": "single-stim", "stimulus": "<p id=\"stim\">6</p>", "internal_node_id": "0.0-141.0-4.0", "time_elapsed": 1363462, "key_press": -1, "trial_index": 190}, "uniqueid": "MTK1968:3RU7GD8VPP075U98ZLXEL2RW9YNSPW", "dateTime": 1516641728023}, {"current_trial": 191, "trialdata": {"rt": -1, "trial_type": "single-stim", "stimulus": "<p id=\"stim\">5</p>", "internal_node_id": "0.0-141.0-5.0", "time_elapsed": 1364465, "key_press": -1, "trial_index": 191}, "uniqueid": "MTK1968:3RU7GD8VPP075U98ZLXEL2RW9YNSPW", "dateTime": 1516641729026}, {"current_trial": 192, "trialdata": {"rt": -1, "trial_type": "single-stim", "stimulus": "<p id=\"stim\">4</p>", "internal_node_id": "0.0-141.0-6.0", "time_elapsed": 1365481, "key_press": -1, "trial_index": 192}, "uniqueid": "MTK1968:3RU7GD8VPP075U98ZLXEL2RW9YNSPW", "dateTime": 1516641730042}, {"current_trial": 193, "trialdata": {"rt": -1, "trial_type": "single-stim", "stimulus": "<p id=\"stim\">3</p>", "internal_node_id": "0.0-141.0-7.0", "time_elapsed": 1366484, "key_press": -1, "trial_index": 193}, "uniqueid": "MTK1968:3RU7GD8VPP075U98ZLXEL2RW9YNSPW", "dateTime": 1516641731045}, {"current_trial": 194, "trialdata": {"rt": -1, "trial_type": "single-stim", "stimulus": "<p id=\"stim\">2</p>", "internal_node_id": "0.0-141.0-8.0", "time_elapsed": 1367486, "key_press": -1, "trial_index": 194}, "uniqueid": "MTK1968:3RU7GD8VPP075U98ZLXEL2RW9YNSPW", "dateTime": 1516641732047}, {"current_trial": 195, "trialdata": {"rt": -1, "trial_type": "single-stim", "stimulus": "<p id=\"stim\">1</p>", "internal_node_id": "0.0-141.0-9.0", "time_elapsed": 1368525, "key_press": -1, "trial_index": 195}, "uniqueid": "MTK1968:3RU7GD8VPP075U98ZLXEL2RW9YNSPW", "dateTime": 1516641733086}, {"current_trial": 196, "trialdata": {"rt": -1, "trial_type": "single-stim", "stimulus": "<p id=\"stim\">+</p>", "internal_node_id": "0.0-142.0-0.0", "time_elapsed": 1370029, "key_press": -1, "type": "FIXATION", "trial_index": 196}, "uniqueid": "MTK1968:3RU7GD8VPP075U98ZLXEL2RW9YNSPW", "dateTime": 1516641734590}, {"current_trial": 197, "trialdata": {"rt": -1000, "trial_type": "single-audio", "word": "perfume", "stimulus": "/static/audio/wordpool/PERFUME.wav", "conditions": [24, 800, "a", 12000], "internal_node_id": "0.0-143.0", "trial": 5, "time_elapsed": 1371988, "serialpos": 0, "key_press": -1, "wordID": 1048, "type": "PRES_AUD", "trial_index": 197}, "uniqueid": "MTK1968:3RU7GD8VPP075U98ZLXEL2RW9YNSPW", "dateTime": 1516641736550}, {"current_trial": 198, "trialdata": {"rt": -1000, "trial_type": "single-audio", "word": "country", "stimulus": "/static/audio/wordpool/COUNTRY.wav", "conditions": [24, 800, "a", 12000], "internal_node_id": "0.0-144.0", "trial": 5, "time_elapsed": 1373818, "serialpos": 1, "key_press": -1, "wordID": 387, "type": "PRES_AUD", "trial_index": 198}, "uniqueid": "MTK1968:3RU7GD8VPP075U98ZLXEL2RW9YNSPW", "dateTime": 1516641738379}, {"current_trial": 199, "trialdata": {"rt": -1000, "trial_type": "single-audio", "word": "swamp", "stimulus": "/static/audio/wordpool/SWAMP.wav", "conditions": [24, 800, "a", 12000], "internal_node_id": "0.0-145.0", "trial": 5, "time_elapsed": 1375545, "serialpos": 2, "key_press": -1, "wordID": 1415, "type": "PRES_AUD", "trial_index": 199}, "uniqueid": "MTK1968:3RU7GD8VPP075U98ZLXEL2RW9YNSPW", "dateTime": 1516641740106}, {"current_trial": 200, "trialdata": {"rt": -1000, "trial_type": "single-audio", "word": "dresser", "stimulus": "/static/audio/wordpool/DRESSER.wav", "conditions": [24, 800, "a", 12000], "internal_node_id": "0.0-146.0", "trial": 5, "time_elapsed": 1377304, "serialpos": 3, "key_press": -1, "wordID": 495, "type": "PRES_AUD", "trial_index": 200}, "uniqueid": "MTK1968:3RU7GD8VPP075U98ZLXEL2RW9YNSPW", "dateTime": 1516641741865}, {"current_trial": 201, "trialdata": {"rt": -1000, "trial_type": "single-audio", "word": "outfit", "stimulus": "/static/audio/wordpool/OUTFIT.wav", "conditions": [24, 800, "a", 12000], "internal_node_id": "0.0-147.0", "trial": 5, "time_elapsed": 1379289, "serialpos": 4, "key_press": -1, "wordID": 987, "type": "PRES_AUD", "trial_index": 201}, "uniqueid": "MTK1968:3RU7GD8VPP075U98ZLXEL2RW9YNSPW", "dateTime": 1516641743851}, {"current_trial": 202, "trialdata": {"rt": -1000, "trial_type": "single-audio", "word": "carriage", "stimulus": "/static/audio/wordpool/CARRIAGE.wav", "conditions": [24, 800, "a", 12000], "internal_node_id": "0.0-148.0", "trial": 5, "time_elapsed": 1381088, "serialpos": 5, "key_press": -1, "wordID": 247, "type": "PRES_AUD", "trial_index": 202}, "uniqueid": "MTK1968:3RU7GD8VPP075U98ZLXEL2RW9YNSPW", "dateTime": 1516641745649}, {"current_trial": 203, "trialdata": {"rt": -1000, "trial_type": "single-audio", "word": "sunrise", "stimulus": "/static/audio/wordpool/SUNRISE.wav", "conditions": [24, 800, "a", 12000], "internal_node_id": "0.0-149.0", "trial": 5, "time_elapsed": 1382717, "serialpos": 6, "key_press": -1, "wordID": 1406, "type": "PRES_AUD", "trial_index": 203}, "uniqueid": "MTK1968:3RU7GD8VPP075U98ZLXEL2RW9YNSPW", "dateTime": 1516641747278}, {"current_trial": 204, "trialdata": {"rt": -1000, "trial_type": "single-audio", "word": "fragrance", "stimulus": "/static/audio/wordpool/FRAGRANCE.wav", "conditions": [24, 800, "a", 12000], "internal_node_id": "0.0-150.0", "trial": 5, "time_elapsed": 1384344, "serialpos": 7, "key_press": -1, "wordID": 598, "type": "PRES_AUD", "trial_index": 204}, "uniqueid": "MTK1968:3RU7GD8VPP075U98ZLXEL2RW9YNSPW", "dateTime": 1516641748905}, {"current_trial": 205, "trialdata": {"rt": -1000, "trial_type": "single-audio", "word": "pork", "stimulus": "/static/audio/wordpool/PORK.wav", "conditions": [24, 800, "a", 12000], "internal_node_id": "0.0-151.0", "trial": 5, "time_elapsed": 1386343, "serialpos": 8, "key_press": -1, "wordID": 1107, "type": "PRES_AUD", "trial_index": 205}, "uniqueid": "MTK1968:3RU7GD8VPP075U98ZLXEL2RW9YNSPW", "dateTime": 1516641750904}, {"current_trial": 206, "trialdata": {"rt": -1000, "trial_type": "single-audio", "word": "turkey", "stimulus": "/static/audio/wordpool/TURKEY.wav", "conditions": [24, 800, "a", 12000], "internal_node_id": "0.0-152.0", "trial": 5, "time_elapsed": 1387979, "serialpos": 9, "key_press": -1, "wordID": 1519, "type": "PRES_AUD", "trial_index": 206}, "uniqueid": "MTK1968:3RU7GD8VPP075U98ZLXEL2RW9YNSPW", "dateTime": 1516641752540}, {"current_trial": 207, "trialdata": {"rt": -1000, "trial_type": "single-audio", "word": "wardrobe", "stimulus": "/static/audio/wordpool/WARDROBE.wav", "conditions": [24, 800, "a", 12000], "internal_node_id": "0.0-153.0", "trial": 5, "time_elapsed": 1389871, "serialpos": 10, "key_press": -1, "wordID": 1586, "type": "PRES_AUD", "trial_index": 207}, "uniqueid": "MTK1968:3RU7GD8VPP075U98ZLXEL2RW9YNSPW", "dateTime": 1516641754432}, {"current_trial": 208, "trialdata": {"rt": -1000, "trial_type": "single-audio", "word": "market", "stimulus": "/static/audio/wordpool/MARKET.wav", "conditions": [24, 800, "a", 12000], "internal_node_id": "0.0-154.0", "trial": 5, "time_elapsed": 1391830, "serialpos": 11, "key_press": -1, "wordID": 870, "type": "PRES_AUD", "trial_index": 208}, "uniqueid": "MTK1968:3RU7GD8VPP075U98ZLXEL2RW9YNSPW", "dateTime": 1516641756391}, {"current_trial": 209, "trialdata": {"rt": -1000, "trial_type": "single-audio", "word": "county", "stimulus": "/static/audio/wordpool/COUNTY.wav", "conditions": [24, 800, "a", 12000], "internal_node_id": "0.0-155.0", "trial": 5, "time_elapsed": 1393558, "serialpos": 12, "key_press": -1, "wordID": 388, "type": "PRES_AUD", "trial_index": 209}, "uniqueid": "MTK1968:3RU7GD8VPP075U98ZLXEL2RW9YNSPW", "dateTime": 1516641758120}, {"current_trial": 210, "trialdata": {"rt": -1000, "trial_type": "single-audio", "word": "sheriff", "stimulus": "/static/audio/wordpool/SHERIFF.wav", "conditions": [24, 800, "a", 12000], "internal_node_id": "0.0-156.0", "trial": 5, "time_elapsed": 1395238, "serialpos": 13, "key_press": -1, "wordID": 1283, "type": "PRES_AUD", "trial_index": 210}, "uniqueid": "MTK1968:3RU7GD8VPP075U98ZLXEL2RW9YNSPW", "dateTime": 1516641759799}, {"current_trial": 211, "trialdata": {"rt": -1000, "trial_type": "single-audio", "word": "female", "stimulus": "/static/audio/wordpool/FEMALE.wav", "conditions": [24, 800, "a", 12000], "internal_node_id": "0.0-157.0", "trial": 5, "time_elapsed": 1397228, "serialpos": 14, "key_press": -1, "wordID": 558, "type": "PRES_AUD", "trial_index": 211}, "uniqueid": "MTK1968:3RU7GD8VPP075U98ZLXEL2RW9YNSPW", "dateTime": 1516641761789}, {"current_trial": 212, "trialdata": {"rt": -1000, "trial_type": "single-audio", "word": "ozone", "stimulus": "/static/audio/wordpool/OZONE.wav", "conditions": [24, 800, "a", 12000], "internal_node_id": "0.0-158.0", "trial": 5, "time_elapsed": 1398862, "serialpos": 15, "key_press": -1, "wordID": 995, "type": "PRES_AUD", "trial_index": 212}, "uniqueid": "MTK1968:3RU7GD8VPP075U98ZLXEL2RW9YNSPW", "dateTime": 1516641763423}, {"current_trial": 213, "trialdata": {"rt": -1000, "trial_type": "single-audio", "word": "rust", "stimulus": "/static/audio/wordpool/RUST.wav", "conditions": [24, 800, "a", 12000], "internal_node_id": "0.0-159.0", "trial": 5, "time_elapsed": 1400767, "serialpos": 16, "key_press": -1, "wordID": 1218, "type": "PRES_AUD", "trial_index": 213}, "uniqueid": "MTK1968:3RU7GD8VPP075U98ZLXEL2RW9YNSPW", "dateTime": 1516641765330}, {"current_trial": 214, "trialdata": {"rt": -1000, "trial_type": "single-audio", "word": "beef", "stimulus": "/static/audio/wordpool/BEEF.wav", "conditions": [24, 800, "a", 12000], "internal_node_id": "0.0-160.0", "trial": 5, "time_elapsed": 1402633, "serialpos": 17, "key_press": -1, "wordID": 112, "type": "PRES_AUD", "trial_index": 214}, "uniqueid": "MTK1968:3RU7GD8VPP075U98ZLXEL2RW9YNSPW", "dateTime": 1516641767194}, {"current_trial": 215, "trialdata": {"rt": -1000, "trial_type": "single-audio", "word": "plaza", "stimulus": "/static/audio/wordpool/PLAZA.wav", "conditions": [24, 800, "a", 12000], "internal_node_id": "0.0-161.0", "trial": 5, "time_elapsed": 1404325, "serialpos": 18, "key_press": -1, "wordID": 1087, "type": "PRES_AUD", "trial_index": 215}, "uniqueid": "MTK1968:3RU7GD8VPP075U98ZLXEL2RW9YNSPW", "dateTime": 1516641768887}, {"current_trial": 216, "trialdata": {"rt": -1000, "trial_type": "single-audio", "word": "heart", "stimulus": "/static/audio/wordpool/HEART.wav", "conditions": [24, 800, "a", 12000], "internal_node_id": "0.0-162.0", "trial": 5, "time_elapsed": 1406299, "serialpos": 19, "key_press": -1, "wordID": 696, "type": "PRES_AUD", "trial_index": 216}, "uniqueid": "MTK1968:3RU7GD8VPP075U98ZLXEL2RW9YNSPW", "dateTime": 1516641770861}, {"current_trial": 217, "trialdata": {"rt": -1000, "trial_type": "single-audio", "word": "blueprint", "stimulus": "/static/audio/wordpool/BLUEPRINT.wav", "conditions": [24, 800, "a", 12000], "internal_node_id": "0.0-163.0", "trial": 5, "time_elapsed": 1408166, "serialpos": 20, "key_press": -1, "wordID": 141, "type": "PRES_AUD", "trial_index": 217}, "uniqueid": "MTK1968:3RU7GD8VPP075U98ZLXEL2RW9YNSPW", "dateTime": 1516641772728}, {"current_trial": 218, "trialdata": {"rt": -1000, "trial_type": "single-audio", "word": "valley", "stimulus": "/static/audio/wordpool/VALLEY.wav", "conditions": [24, 800, "a", 12000], "internal_node_id": "0.0-164.0", "trial": 5, "time_elapsed": 1410075, "serialpos": 21, "key_press": -1, "wordID": 1544, "type": "PRES_AUD", "trial_index": 218}, "uniqueid": "MTK1968:3RU7GD8VPP075U98ZLXEL2RW9YNSPW", "dateTime": 1516641774636}, {"current_trial": 219, "trialdata": {"rt": -1000, "trial_type": "single-audio", "word": "patient", "stimulus": "/static/audio/wordpool/PATIENT.wav", "conditions": [24, 800, "a", 12000], "internal_node_id": "0.0-165.0", "trial": 5, "time_elapsed": 1411937, "serialpos": 22, "key_press": -1, "wordID": 1023, "type": "PRES_AUD", "trial_index": 219}, "uniqueid": "MTK1968:3RU7GD8VPP075U98ZLXEL2RW9YNSPW", "dateTime": 1516641776498}, {"current_trial": 220, "trialdata": {"rt": -1000, "trial_type": "single-audio", "word": "cattle", "stimulus": "/static/audio/wordpool/CATTLE.wav", "conditions": [24, 800, "a", 12000], "internal_node_id": "0.0-166.0", "trial": 5, "time_elapsed": 1413816, "serialpos": 23, "key_press": -1, "wordID": 260, "type": "PRES_AUD", "trial_index": 220}, "uniqueid": "MTK1968:3RU7GD8VPP075U98ZLXEL2RW9YNSPW", "dateTime": 1516641778377}, {"current_trial": 221, "trialdata": {"rt": -1, "trial_type": "single-stim", "stimulus": "", "internal_node_id": "0.0-167.0-0.0", "time_elapsed": 1415156, "key_press": -1, "type": "PRE_RECALL_DELAY", "trial_index": 221}, "uniqueid": "MTK1968:3RU7GD8VPP075U98ZLXEL2RW9YNSPW", "dateTime": 1516641779718}, {"current_trial": 222, "trialdata": {"rt": -1000, "trial_type": "single-audio", "stimulus": "/static/audio/400Hz.wav", "internal_node_id": "0.0-168.0", "time_elapsed": 1415659, "key_press": -1, "type": "PRE_RECALL_ALERT", "trial_index": 222}, "uniqueid": "MTK1968:3RU7GD8VPP075U98ZLXEL2RW9YNSPW", "dateTime": 1516641780220}, {"current_trial": 223, "trialdata": {"rt": [2452, 6442, 10564, 29331], "recwords": ["cattle", "patient", "blueprint", "female"], "key_times": [865, 1193, 1489, 1663, 1955, 2096, 2452, 2951, 3311, 3847, 4051, 4203, 4451, 4713, 5138, 5311, 5600, 5799, 6442, 8273, 8503, 8758, 9074, 9495, 9713, 9830, 10029, 10291, 10564, 27795, 28016, 28450, 28658, 28827, 29007, 29331], "trial_type": "free-recall", "conditions": [24, 800, "a", 12000], "internal_node_id": "0.0-169.0-0.0", "key_presses": [67, 65, 84, 84, 76, 69, 13, 80, 84, 8, 65, 84, 73, 79, 8, 69, 78, 84, 13, 66, 76, 85, 69, 80, 82, 73, 78, 84, 13, 70, 69, 77, 65, 76, 69, 13], "trial": 5, "time_elapsed": 1475668, "type": "FREE_RECALL", "trial_index": 223}, "uniqueid": "MTK1968:3RU7GD8VPP075U98ZLXEL2RW9YNSPW", "dateTime": 1516641840236}, {"current_trial": 224, "trialdata": {"rt": 1311, "trial_type": "text", "internal_node_id": "0.0-170.0", "time_elapsed": 1478989, "key_press": 32, "type": "INSTRUCTIONS", "trial_index": 224}, "uniqueid": "MTK1968:3RU7GD8VPP075U98ZLXEL2RW9YNSPW", "dateTime": 1516641843551}, {"current_trial": 225, "trialdata": {"rt": [2902, 5362, 7738, 10086], "trial_type": "math-distractor", "key_times": [2100, 2584, 2902, 5060, 5362, 7138, 7463, 7738, 9505, 10086], "responses": ["16", "8", "16", "5"], "num2": [9, 6, 5, 3, 9], "num3": [4, 1, 3, 1, 8], "conditions": [24, 800, "a", 12000], "internal_node_id": "0.0-171.0", "key_presses": [49, 54, 13, 56, 13, 49, 54, 13, 53, 13], "trial": 6, "time_elapsed": 1492997, "type": "DISTRACTOR", "trial_index": 225, "num1": [3, 1, 8, 1, 4]}, "uniqueid": "MTK1968:3RU7GD8VPP075U98ZLXEL2RW9YNSPW", "dateTime": 1516641857558}, {"current_trial": 226, "trialdata": {"rt": -1, "trial_type": "single-stim", "stimulus": "<p id=\"stim\">10</p>", "internal_node_id": "0.0-172.0-0.0", "time_elapsed": 1496025, "key_press": -1, "trial_index": 226}, "uniqueid": "MTK1968:3RU7GD8VPP075U98ZLXEL2RW9YNSPW", "dateTime": 1516641860586}, {"current_trial": 227, "trialdata": {"rt": -1, "trial_type": "single-stim", "stimulus": "<p id=\"stim\">9</p>", "internal_node_id": "0.0-172.0-1.0", "time_elapsed": 1497027, "key_press": -1, "trial_index": 227}, "uniqueid": "MTK1968:3RU7GD8VPP075U98ZLXEL2RW9YNSPW", "dateTime": 1516641861588}, {"current_trial": 228, "trialdata": {"rt": -1, "trial_type": "single-stim", "stimulus": "<p id=\"stim\">8</p>", "internal_node_id": "0.0-172.0-2.0", "time_elapsed": 1498079, "key_press": -1, "trial_index": 228}, "uniqueid": "MTK1968:3RU7GD8VPP075U98ZLXEL2RW9YNSPW", "dateTime": 1516641862640}, {"current_trial": 229, "trialdata": {"rt": -1, "trial_type": "single-stim", "stimulus": "<p id=\"stim\">7</p>", "internal_node_id": "0.0-172.0-3.0", "time_elapsed": 1499109, "key_press": -1, "trial_index": 229}, "uniqueid": "MTK1968:3RU7GD8VPP075U98ZLXEL2RW9YNSPW", "dateTime": 1516641863672}, {"current_trial": 230, "trialdata": {"rt": -1, "trial_type": "single-stim", "stimulus": "<p id=\"stim\">6</p>", "internal_node_id": "0.0-172.0-4.0", "time_elapsed": 1500114, "key_press": -1, "trial_index": 230}, "uniqueid": "MTK1968:3RU7GD8VPP075U98ZLXEL2RW9YNSPW", "dateTime": 1516641864675}, {"current_trial": 231, "trialdata": {"rt": -1, "trial_type": "single-stim", "stimulus": "<p id=\"stim\">5</p>", "internal_node_id": "0.0-172.0-5.0", "time_elapsed": 1501116, "key_press": -1, "trial_index": 231}, "uniqueid": "MTK1968:3RU7GD8VPP075U98ZLXEL2RW9YNSPW", "dateTime": 1516641865678}, {"current_trial": 232, "trialdata": {"rt": -1, "trial_type": "single-stim", "stimulus": "<p id=\"stim\">4</p>", "internal_node_id": "0.0-172.0-6.0", "time_elapsed": 1502133, "key_press": -1, "trial_index": 232}, "uniqueid": "MTK1968:3RU7GD8VPP075U98ZLXEL2RW9YNSPW", "dateTime": 1516641866694}, {"current_trial": 233, "trialdata": {"rt": -1, "trial_type": "single-stim", "stimulus": "<p id=\"stim\">3</p>", "internal_node_id": "0.0-172.0-7.0", "time_elapsed": 1503143, "key_press": -1, "trial_index": 233}, "uniqueid": "MTK1968:3RU7GD8VPP075U98ZLXEL2RW9YNSPW", "dateTime": 1516641867704}, {"current_trial": 234, "trialdata": {"rt": -1, "trial_type": "single-stim", "stimulus": "<p id=\"stim\">2</p>", "internal_node_id": "0.0-172.0-8.0", "time_elapsed": 1504173, "key_press": -1, "trial_index": 234}, "uniqueid": "MTK1968:3RU7GD8VPP075U98ZLXEL2RW9YNSPW", "dateTime": 1516641868734}, {"current_trial": 235, "trialdata": {"rt": -1, "trial_type": "single-stim", "stimulus": "<p id=\"stim\">1</p>", "internal_node_id": "0.0-172.0-9.0", "time_elapsed": 1505177, "key_press": -1, "trial_index": 235}, "uniqueid": "MTK1968:3RU7GD8VPP075U98ZLXEL2RW9YNSPW", "dateTime": 1516641869738}, {"current_trial": 236, "trialdata": {"rt": -1, "trial_type": "single-stim", "stimulus": "<p id=\"stim\">+</p>", "internal_node_id": "0.0-173.0-0.0", "time_elapsed": 1506679, "key_press": -1, "type": "FIXATION", "trial_index": 236}, "uniqueid": "MTK1968:3RU7GD8VPP075U98ZLXEL2RW9YNSPW", "dateTime": 1516641871240}, {"current_trial": 237, "trialdata": {"rt": -1000, "trial_type": "single-audio", "word": "burglar", "stimulus": "/static/audio/wordpool/BURGLAR.wav", "conditions": [24, 800, "a", 12000], "internal_node_id": "0.0-174.0", "trial": 6, "time_elapsed": 1508517, "serialpos": 0, "key_press": -1, "wordID": 199, "type": "PRES_AUD", "trial_index": 237}, "uniqueid": "MTK1968:3RU7GD8VPP075U98ZLXEL2RW9YNSPW", "dateTime": 1516641873078}, {"current_trial": 238, "trialdata": {"rt": -1000, "trial_type": "single-audio", "word": "creature", "stimulus": "/static/audio/wordpool/CREATURE.wav", "conditions": [24, 800, "a", 12000], "internal_node_id": "0.0-175.0", "trial": 6, "time_elapsed": 1510467, "serialpos": 1, "key_press": -1, "wordID": 402, "type": "PRES_AUD", "trial_index": 238}, "uniqueid": "MTK1968:3RU7GD8VPP075U98ZLXEL2RW9YNSPW", "dateTime": 1516641875028}, {"current_trial": 239, "trialdata": {"rt": -1000, "trial_type": "single-audio", "word": "denim", "stimulus": "/static/audio/wordpool/DENIM.wav", "conditions": [24, 800, "a", 12000], "internal_node_id": "0.0-176.0", "trial": 6, "time_elapsed": 1512313, "serialpos": 2, "key_press": -1, "wordID": 445, "type": "PRES_AUD", "trial_index": 239}, "uniqueid": "MTK1968:3RU7GD8VPP075U98ZLXEL2RW9YNSPW", "dateTime": 1516641876875}, {"current_trial": 240, "trialdata": {"rt": -1000, "trial_type": "single-audio", "word": "plaid", "stimulus": "/static/audio/wordpool/PLAID.wav", "conditions": [24, 800, "a", 12000], "internal_node_id": "0.0-177.0", "trial": 6, "time_elapsed": 1514023, "serialpos": 3, "key_press": -1, "wordID": 1079, "type": "PRES_AUD", "trial_index": 240}, "uniqueid": "MTK1968:3RU7GD8VPP075U98ZLXEL2RW9YNSPW", "dateTime": 1516641878584}, {"current_trial": 241, "trialdata": {"rt": -1000, "trial_type": "single-audio", "word": "partner", "stimulus": "/static/audio/wordpool/PARTNER.wav", "conditions": [24, 800, "a", 12000], "internal_node_id": "0.0-178.0", "trial": 6, "time_elapsed": 1515799, "serialpos": 4, "key_press": -1, "wordID": 1016, "type": "PRES_AUD", "trial_index": 241}, "uniqueid": "MTK1968:3RU7GD8VPP075U98ZLXEL2RW9YNSPW", "dateTime": 1516641880362}, {"current_trial": 242, "trialdata": {"rt": -1000, "trial_type": "single-audio", "word": "captive", "stimulus": "/static/audio/wordpool/CAPTIVE.wav", "conditions": [24, 800, "a", 12000], "internal_node_id": "0.0-179.0", "trial": 6, "time_elapsed": 1517759, "serialpos": 5, "key_press": -1, "wordID": 239, "type": "PRES_AUD", "trial_index": 242}, "uniqueid": "MTK1968:3RU7GD8VPP075U98ZLXEL2RW9YNSPW", "dateTime": 1516641882320}, {"current_trial": 243, "trialdata": {"rt": -1000, "trial_type": "single-audio", "word": "puppy", "stimulus": "/static/audio/wordpool/PUPPY.wav", "conditions": [24, 800, "a", 12000], "internal_node_id": "0.0-180.0", "trial": 6, "time_elapsed": 1519646, "serialpos": 6, "key_press": -1, "wordID": 1143, "type": "PRES_AUD", "trial_index": 243}, "uniqueid": "MTK1968:3RU7GD8VPP075U98ZLXEL2RW9YNSPW", "dateTime": 1516641884207}, {"current_trial": 244, "trialdata": {"rt": -1000, "trial_type": "single-audio", "word": "turtle", "stimulus": "/static/audio/wordpool/TURTLE.wav", "conditions": [24, 800, "a", 12000], "internal_node_id": "0.0-181.0", "trial": 6, "time_elapsed": 1521624, "serialpos": 7, "key_press": -1, "wordID": 1521, "type": "PRES_AUD", "trial_index": 244}, "uniqueid": "MTK1968:3RU7GD8VPP075U98ZLXEL2RW9YNSPW", "dateTime": 1516641886185}, {"current_trial": 245, "trialdata": {"rt": -1000, "trial_type": "single-audio", "word": "suspect", "stimulus": "/static/audio/wordpool/SUSPECT.wav", "conditions": [24, 800, "a", 12000], "internal_node_id": "0.0-182.0", "trial": 6, "time_elapsed": 1523278, "serialpos": 8, "key_press": -1, "wordID": 1414, "type": "PRES_AUD", "trial_index": 245}, "uniqueid": "MTK1968:3RU7GD8VPP075U98ZLXEL2RW9YNSPW", "dateTime": 1516641887839}, {"current_trial": 246, "trialdata": {"rt": -1000, "trial_type": "single-audio", "word": "servant", "stimulus": "/static/audio/wordpool/SERVANT.wav", "conditions": [24, 800, "a", 12000], "internal_node_id": "0.0-183.0", "trial": 6, "time_elapsed": 1525132, "serialpos": 9, "key_press": -1, "wordID": 1270, "type": "PRES_AUD", "trial_index": 246}, "uniqueid": "MTK1968:3RU7GD8VPP075U98ZLXEL2RW9YNSPW", "dateTime": 1516641889693}, {"current_trial": 247, "trialdata": {"rt": -1000, "trial_type": "single-audio", "word": "rebel", "stimulus": "/static/audio/wordpool/REBEL.wav", "conditions": [24, 800, "a", 12000], "internal_node_id": "0.0-184.0", "trial": 6, "time_elapsed": 1526899, "serialpos": 10, "key_press": -1, "wordID": 1171, "type": "PRES_AUD", "trial_index": 247}, "uniqueid": "MTK1968:3RU7GD8VPP075U98ZLXEL2RW9YNSPW", "dateTime": 1516641891460}, {"current_trial": 248, "trialdata": {"rt": -1000, "trial_type": "single-audio", "word": "hornet", "stimulus": "/static/audio/wordpool/HORNET.wav", "conditions": [24, 800, "a", 12000], "internal_node_id": "0.0-185.0", "trial": 6, "time_elapsed": 1528851, "serialpos": 11, "key_press": -1, "wordID": 717, "type": "PRES_AUD", "trial_index": 248}, "uniqueid": "MTK1968:3RU7GD8VPP075U98ZLXEL2RW9YNSPW", "dateTime": 1516641893412}, {"current_trial": 249, "trialdata": {"rt": -1000, "trial_type": "single-audio", "word": "necklace", "stimulus": "/static/audio/wordpool/NECKLACE.wav", "conditions": [24, 800, "a", 12000], "internal_node_id": "0.0-186.0", "trial": 6, "time_elapsed": 1530515, "serialpos": 12, "key_press": -1, "wordID": 939, "type": "PRES_AUD", "trial_index": 249}, "uniqueid": "MTK1968:3RU7GD8VPP075U98ZLXEL2RW9YNSPW", "dateTime": 1516641895077}, {"current_trial": 250, "trialdata": {"rt": -1000, "trial_type": "single-audio", "word": "handbag", "stimulus": "/static/audio/wordpool/HANDBAG.wav", "conditions": [24, 800, "a", 12000], "internal_node_id": "0.0-187.0", "trial": 6, "time_elapsed": 1532156, "serialpos": 13, "key_press": -1, "wordID": 683, "type": "PRES_AUD", "trial_index": 250}, "uniqueid": "MTK1968:3RU7GD8VPP075U98ZLXEL2RW9YNSPW", "dateTime": 1516641896717}, {"current_trial": 251, "trialdata": {"rt": -1000, "trial_type": "single-audi