{"assignmentId": "34BBWHLWHBI8VP3D6VHV9UT5SFQIWQ", "workerId": "MTK1760", "questiondata": {"avail_screen_height": 1476, "color_depth": 24, "screen_width": 2732, "pixel_depth": 24, "avail_screen_width": 2732, "screen_height": 1536}, "bonus": 0, "hitId": "3UYRNV2KIT6NW5KSF69FB2QGECD8NU", "counterbalance": 1097, "useragent": "Mozilla/5.0 (Windows NT 10.0; Win64; x64; rv:57.0) Gecko/20100101 Firefox/57.0", "eventdata": [{"eventtype": "initialized", "interval": 0, "value": null, "timestamp": 1516295879266}, {"eventtype": "window_resize", "interval": 0, "value": [2732, 1354], "timestamp": 1516295879266}, {"eventtype": "window_resize", "interval": 14231, "value": [2444, 796], "timestamp": 1516295893497}, {"eventtype": "window_resize", "interval": 10650, "value": [2444, 1178], "timestamp": 1516295904147}, {"eventtype": "window_resize", "interval": 3371, "value": [4073, 1963], "timestamp": 1516295907518}, {"eventtype": "window_resize", "interval": 2006, "value": [2444, 1178], "timestamp": 1516295909524}, {"eventtype": "focus", "interval": 3715, "value": "off", "timestamp": 1516295913239}, {"eventtype": "window_resize", "interval": 219, "value": [2732, 1354], "timestamp": 1516295913458}, {"eventtype": "focus", "interval": 24254, "value": "on", "timestamp": 1516295937712}, {"eventtype": "window_resize", "interval": 69111, "value": [2049, 1016], "timestamp": 1516296006823}, {"eventtype": "window_resize", "interval": 2024, "value": [1708, 846], "timestamp": 1516296008847}], "data": [{"current_trial": 0, "trialdata": {"rt": 33134, "trial_type": "text", "internal_node_id": "0.0-0.0", "time_elapsed": 33138, "key_press": 13, "type": "INSTRUCTIONS", "trial_index": 0}, "uniqueid": "MTK1760:34BBWHLWHBI8VP3D6VHV9UT5SFQIWQ", "dateTime": 1516295940186}, {"current_trial": 1, "trialdata": {"rt": 13641, "trial_type": "text", "internal_node_id": "0.0-1.0", "time_elapsed": 46783, "key_press": 13, "type": "INSTRUCTIONS", "trial_index": 1}, "uniqueid": "MTK1760:34BBWHLWHBI8VP3D6VHV9UT5SFQIWQ", "dateTime": 1516295953831}, {"current_trial": 2, "trialdata": {"rt": [12095], "trial_type": "audio-test", "responses": ["ocean"], "internal_node_id": "0.0-2.0", "time_elapsed": 59318, "type": "AUDIO_TEST", "trial_index": 2}, "uniqueid": "MTK1760:34BBWHLWHBI8VP3D6VHV9UT5SFQIWQ", "dateTime": 1516295966365}, {"current_trial": 3, "trialdata": {"rt": [11903], "trial_type": "audio-test", "responses": ["crystal"], "internal_node_id": "0.0-3.0", "time_elapsed": 71268, "type": "AUDIO_TEST", "trial_index": 3}, "uniqueid": "MTK1760:34BBWHLWHBI8VP3D6VHV9UT5SFQIWQ", "dateTime": 1516295978315}, {"current_trial": 4, "trialdata": {"rt": [9314], "trial_type": "audio-test", "responses": ["spice"], "internal_node_id": "0.0-4.0", "time_elapsed": 80627, "type": "AUDIO_TEST", "trial_index": 4}, "uniqueid": "MTK1760:34BBWHLWHBI8VP3D6VHV9UT5SFQIWQ", "dateTime": 1516295987674}, {"current_trial": 5, "trialdata": {"rt": 41371, "trial_type": "survey-text", "responses": "{\"Q0\":\"12:30am\",\"Q1\":\"6am\",\"Q2\":\"4\"}", "internal_node_id": "0.0-5.0", "time_elapsed": 122759, "type": "SLEEP_SURVEY", "trial_index": 5}, "uniqueid": "MTK1760:34BBWHLWHBI8VP3D6VHV9UT5SFQIWQ", "dateTime": 1516296029806}, {"current_trial": 6, "trialdata": {"rt": 47337, "trial_type": "text", "internal_node_id": "0.0-6.0", "time_elapsed": 171224, "key_press": 32, "type": "INSTRUCTIONS", "trial_index": 6}, "uniqueid": "MTK1760:34BBWHLWHBI8VP3D6VHV9UT5SFQIWQ", "dateTime": 1516296078272}, {"current_trial": 7, "trialdata": {"rt": 15211, "trial_type": "text", "internal_node_id": "0.0-7.0", "time_elapsed": 187125, "key_press": 32, "type": "INSTRUCTIONS", "trial_index": 7}, "uniqueid": "MTK1760:34BBWHLWHBI8VP3D6VHV9UT5SFQIWQ", "dateTime": 1516296094173}, {"current_trial": 8, "trialdata": {"rt": 7091, "trial_type": "text", "internal_node_id": "0.0-8.0", "time_elapsed": 194863, "key_press": 32, "type": "INSTRUCTIONS", "trial_index": 8}, "uniqueid": "MTK1760:34BBWHLWHBI8VP3D6VHV9UT5SFQIWQ", "dateTime": 1516296101910}, {"current_trial": 9, "trialdata": {"rt": [5929, 10021, 13142, 15805], "trial_type": "math-distractor", "key_times": [4914, 5088, 5929, 8920, 9057, 10021, 11947, 12241, 13142, 14579, 14826, 15805, 17618, 17918], "responses": ["16", "15", "10", "10"], "num2": [4, 7, 1, 8, 2], "num3": [3, 4, 2, 1, 8], "conditions": [18, 1200, "a", 18000], "internal_node_id": "0.0-9.0", "key_presses": [49, 54, 13, 49, 53, 13, 49, 48, 13, 49, 48, 13, 49, 49], "trial": 0, "time_elapsed": 213922, "type": "DISTRACTOR", "trial_index": 9, "num1": [9, 4, 7, 1, 1]}, "uniqueid": "MTK1760:34BBWHLWHBI8VP3D6VHV9UT5SFQIWQ", "dateTime": 1516296120969}, {"current_trial": 10, "trialdata": {"rt": -1, "trial_type": "single-stim", "stimulus": "<p id=\"stim\">10</p>", "internal_node_id": "0.0-10.0-0.0", "time_elapsed": 217125, "key_press": -1, "trial_index": 10}, "uniqueid": "MTK1760:34BBWHLWHBI8VP3D6VHV9UT5SFQIWQ", "dateTime": 1516296124173}, {"current_trial": 11, "trialdata": {"rt": -1, "trial_type": "single-stim", "stimulus": "<p id=\"stim\">9</p>", "internal_node_id": "0.0-10.0-1.0", "time_elapsed": 218271, "key_press": -1, "trial_index": 11}, "uniqueid": "MTK1760:34BBWHLWHBI8VP3D6VHV9UT5SFQIWQ", "dateTime": 1516296125318}, {"current_trial": 12, "trialdata": {"rt": -1, "trial_type": "single-stim", "stimulus": "<p id=\"stim\">8</p>", "internal_node_id": "0.0-10.0-2.0", "time_elapsed": 219373, "key_press": -1, "trial_index": 12}, "uniqueid": "MTK1760:34BBWHLWHBI8VP3D6VHV9UT5SFQIWQ", "dateTime": 1516296126420}, {"current_trial": 13, "trialdata": {"rt": -1, "trial_type": "single-stim", "stimulus": "<p id=\"stim\">7</p>", "internal_node_id": "0.0-10.0-3.0", "time_elapsed": 220487, "key_press": -1, "trial_index": 13}, "uniqueid": "MTK1760:34BBWHLWHBI8VP3D6VHV9UT5SFQIWQ", "dateTime": 1516296127543}, {"current_trial": 14, "trialdata": {"rt": -1, "trial_type": "single-stim", "stimulus": "<p id=\"stim\">6</p>", "internal_node_id": "0.0-10.0-4.0", "time_elapsed": 221711, "key_press": -1, "trial_index": 14}, "uniqueid": "MTK1760:34BBWHLWHBI8VP3D6VHV9UT5SFQIWQ", "dateTime": 1516296128759}, {"current_trial": 15, "trialdata": {"rt": -1, "trial_type": "single-stim", "stimulus": "<p id=\"stim\">5</p>", "internal_node_id": "0.0-10.0-5.0", "time_elapsed": 222719, "key_press": -1, "trial_index": 15}, "uniqueid": "MTK1760:34BBWHLWHBI8VP3D6VHV9UT5SFQIWQ", "dateTime": 1516296129766}, {"current_trial": 16, "trialdata": {"rt": -1, "trial_type": "single-stim", "stimulus": "<p id=\"stim\">4</p>", "internal_node_id": "0.0-10.0-6.0", "time_elapsed": 223831, "key_press": -1, "trial_index": 16}, "uniqueid": "MTK1760:34BBWHLWHBI8VP3D6VHV9UT5SFQIWQ", "dateTime": 1516296130879}, {"current_trial": 17, "trialdata": {"rt": -1, "trial_type": "single-stim", "stimulus": "<p id=\"stim\">3</p>", "internal_node_id": "0.0-10.0-7.0", "time_elapsed": 225056, "key_press": -1, "trial_index": 17}, "uniqueid": "MTK1760:34BBWHLWHBI8VP3D6VHV9UT5SFQIWQ", "dateTime": 1516296132104}, {"current_trial": 18, "trialdata": {"rt": -1, "trial_type": "single-stim", "stimulus": "<p id=\"stim\">2</p>", "internal_node_id": "0.0-10.0-8.0", "time_elapsed": 226442, "key_press": -1, "trial_index": 18}, "uniqueid": "MTK1760:34BBWHLWHBI8VP3D6VHV9UT5SFQIWQ", "dateTime": 1516296133489}, {"current_trial": 19, "trialdata": {"rt": -1, "trial_type": "single-stim", "stimulus": "<p id=\"stim\">1</p>", "internal_node_id": "0.0-10.0-9.0", "time_elapsed": 227451, "key_press": -1, "trial_index": 19}, "uniqueid": "MTK1760:34BBWHLWHBI8VP3D6VHV9UT5SFQIWQ", "dateTime": 1516296134498}, {"current_trial": 20, "trialdata": {"rt": -1, "trial_type": "single-stim", "stimulus": "<p id=\"stim\">+</p>", "internal_node_id": "0.0-11.0-0.0", "time_elapsed": 229005, "key_press": -1, "type": "FIXATION", "trial_index": 20}, "uniqueid": "MTK1760:34BBWHLWHBI8VP3D6VHV9UT5SFQIWQ", "dateTime": 1516296136052}, {"current_trial": 21, "trialdata": {"rt": -1000, "trial_type": "single-audio", "word": "soda", "stimulus": "/static/audio/wordpool/SODA.wav", "conditions": [18, 1200, "a", 18000], "internal_node_id": "0.0-12.0", "trial": 0, "time_elapsed": 231435, "serialpos": 0, "key_press": -1, "wordID": 1340, "type": "PRES_AUD", "trial_index": 21}, "uniqueid": "MTK1760:34BBWHLWHBI8VP3D6VHV9UT5SFQIWQ", "dateTime": 1516296138482}, {"current_trial": 22, "trialdata": {"rt": -1000, "trial_type": "single-audio", "word": "expert", "stimulus": "/static/audio/wordpool/EXPERT.wav", "conditions": [18, 1200, "a", 18000], "internal_node_id": "0.0-13.0", "trial": 0, "time_elapsed": 233714, "serialpos": 1, "key_press": -1, "wordID": 542, "type": "PRES_AUD", "trial_index": 22}, "uniqueid": "MTK1760:34BBWHLWHBI8VP3D6VHV9UT5SFQIWQ", "dateTime": 1516296140762}, {"current_trial": 23, "trialdata": {"rt": -1000, "trial_type": "single-audio", "word": "virus", "stimulus": "/static/audio/wordpool/VIRUS.wav", "conditions": [18, 1200, "a", 18000], "internal_node_id": "0.0-14.0", "trial": 0, "time_elapsed": 235846, "serialpos": 2, "key_press": -1, "wordID": 1571, "type": "PRES_AUD", "trial_index": 23}, "uniqueid": "MTK1760:34BBWHLWHBI8VP3D6VHV9UT5SFQIWQ", "dateTime": 1516296142895}, {"current_trial": 24, "trialdata": {"rt": -1000, "trial_type": "single-audio", "word": "cocktail", "stimulus": "/static/audio/wordpool/COCKTAIL.wav", "conditions": [18, 1200, "a", 18000], "internal_node_id": "0.0-15.0", "trial": 0, "time_elapsed": 238029, "serialpos": 3, "key_press": -1, "wordID": 337, "type": "PRES_AUD", "trial_index": 24}, "uniqueid": "MTK1760:34BBWHLWHBI8VP3D6VHV9UT5SFQIWQ", "dateTime": 1516296145077}, {"current_trial": 25, "trialdata": {"rt": -1000, "trial_type": "single-audio", "word": "mustard", "stimulus": "/static/audio/wordpool/MUSTARD.wav", "conditions": [18, 1200, "a", 18000], "internal_node_id": "0.0-16.0", "trial": 0, "time_elapsed": 240366, "serialpos": 4, "key_press": -1, "wordID": 934, "type": "PRES_AUD", "trial_index": 25}, "uniqueid": "MTK1760:34BBWHLWHBI8VP3D6VHV9UT5SFQIWQ", "dateTime": 1516296147414}, {"current_trial": 26, "trialdata": {"rt": -1000, "trial_type": "single-audio", "word": "balloon", "stimulus": "/static/audio/wordpool/BALLOON.wav", "conditions": [18, 1200, "a", 18000], "internal_node_id": "0.0-17.0", "trial": 0, "time_elapsed": 242882, "serialpos": 5, "key_press": -1, "wordID": 74, "type": "PRES_AUD", "trial_index": 26}, "uniqueid": "MTK1760:34BBWHLWHBI8VP3D6VHV9UT5SFQIWQ", "dateTime": 1516296149929}, {"current_trial": 27, "trialdata": {"rt": -1000, "trial_type": "single-audio", "word": "canal", "stimulus": "/static/audio/wordpool/CANAL.wav", "conditions": [18, 1200, "a", 18000], "internal_node_id": "0.0-18.0", "trial": 0, "time_elapsed": 245216, "serialpos": 6, "key_press": -1, "wordID": 225, "type": "PRES_AUD", "trial_index": 27}, "uniqueid": "MTK1760:34BBWHLWHBI8VP3D6VHV9UT5SFQIWQ", "dateTime": 1516296152263}, {"current_trial": 28, "trialdata": {"rt": -1000, "trial_type": "single-audio", "word": "wagon", "stimulus": "/static/audio/wordpool/WAGON.wav", "conditions": [18, 1200, "a", 18000], "internal_node_id": "0.0-19.0", "trial": 0, "time_elapsed": 247406, "serialpos": 7, "key_press": -1, "wordID": 1577, "type": "PRES_AUD", "trial_index": 28}, "uniqueid": "MTK1760:34BBWHLWHBI8VP3D6VHV9UT5SFQIWQ", "dateTime": 1516296154454}, {"current_trial": 29, "trialdata": {"rt": -1000, "trial_type": "single-audio", "word": "burglar", "stimulus": "/static/audio/wordpool/BURGLAR.wav", "conditions": [18, 1200, "a", 18000], "internal_node_id": "0.0-20.0", "trial": 0, "time_elapsed": 249584, "serialpos": 8, "key_press": -1, "wordID": 199, "type": "PRES_AUD", "trial_index": 29}, "uniqueid": "MTK1760:34BBWHLWHBI8VP3D6VHV9UT5SFQIWQ", "dateTime": 1516296156631}, {"current_trial": 30, "trialdata": {"rt": -1000, "trial_type": "single-audio", "word": "picture", "stimulus": "/static/audio/wordpool/PICTURE.wav", "conditions": [18, 1200, "a", 18000], "internal_node_id": "0.0-21.0", "trial": 0, "time_elapsed": 251649, "serialpos": 9, "key_press": -1, "wordID": 1060, "type": "PRES_AUD", "trial_index": 30}, "uniqueid": "MTK1760:34BBWHLWHBI8VP3D6VHV9UT5SFQIWQ", "dateTime": 1516296158696}, {"current_trial": 31, "trialdata": {"rt": -1000, "trial_type": "single-audio", "word": "freckle", "stimulus": "/static/audio/wordpool/FRECKLE.wav", "conditions": [18, 1200, "a", 18000], "internal_node_id": "0.0-22.0", "trial": 0, "time_elapsed": 253882, "serialpos": 10, "key_press": -1, "wordID": 601, "type": "PRES_AUD", "trial_index": 31}, "uniqueid": "MTK1760:34BBWHLWHBI8VP3D6VHV9UT5SFQIWQ", "dateTime": 1516296160929}, {"current_trial": 32, "trialdata": {"rt": -1000, "trial_type": "single-audio", "word": "mask", "stimulus": "/static/audio/wordpool/MASK.wav", "conditions": [18, 1200, "a", 18000], "internal_node_id": "0.0-23.0", "trial": 0, "time_elapsed": 256068, "serialpos": 11, "key_press": -1, "wordID": 875, "type": "PRES_AUD", "trial_index": 32}, "uniqueid": "MTK1760:34BBWHLWHBI8VP3D6VHV9UT5SFQIWQ", "dateTime": 1516296163115}, {"current_trial": 33, "trialdata": {"rt": -1000, "trial_type": "single-audio", "word": "chauffeur", "stimulus": "/static/audio/wordpool/CHAUFFEUR.wav", "conditions": [18, 1200, "a", 18000], "internal_node_id": "0.0-24.0", "trial": 0, "time_elapsed": 258395, "serialpos": 12, "key_press": -1, "wordID": 282, "type": "PRES_AUD", "trial_index": 33}, "uniqueid": "MTK1760:34BBWHLWHBI8VP3D6VHV9UT5SFQIWQ", "dateTime": 1516296165442}, {"current_trial": 34, "trialdata": {"rt": -1000, "trial_type": "single-audio", "word": "judge", "stimulus": "/static/audio/wordpool/JUDGE.wav", "conditions": [18, 1200, "a", 18000], "internal_node_id": "0.0-25.0", "trial": 0, "time_elapsed": 260767, "serialpos": 13, "key_press": -1, "wordID": 760, "type": "PRES_AUD", "trial_index": 34}, "uniqueid": "MTK1760:34BBWHLWHBI8VP3D6VHV9UT5SFQIWQ", "dateTime": 1516296167815}, {"current_trial": 35, "trialdata": {"rt": -1000, "trial_type": "single-audio", "word": "switch", "stimulus": "/static/audio/wordpool/SWITCH.wav", "conditions": [18, 1200, "a", 18000], "internal_node_id": "0.0-26.0", "trial": 0, "time_elapsed": 262987, "serialpos": 14, "key_press": -1, "wordID": 1421, "type": "PRES_AUD", "trial_index": 35}, "uniqueid": "MTK1760:34BBWHLWHBI8VP3D6VHV9UT5SFQIWQ", "dateTime": 1516296170035}, {"current_trial": 36, "trialdata": {"rt": -1000, "trial_type": "single-audio", "word": "airplane", "stimulus": "/static/audio/wordpool/AIRPLANE.wav", "conditions": [18, 1200, "a", 18000], "internal_node_id": "0.0-27.0", "trial": 0, "time_elapsed": 265252, "serialpos": 15, "key_press": -1, "wordID": 11, "type": "PRES_AUD", "trial_index": 36}, "uniqueid": "MTK1760:34BBWHLWHBI8VP3D6VHV9UT5SFQIWQ", "dateTime": 1516296172300}, {"current_trial": 37, "trialdata": {"rt": -1000, "trial_type": "single-audio", "word": "poet", "stimulus": "/static/audio/wordpool/POET.wav", "conditions": [18, 1200, "a", 18000], "internal_node_id": "0.0-28.0", "trial": 0, "time_elapsed": 267639, "serialpos": 16, "key_press": -1, "wordID": 1094, "type": "PRES_AUD", "trial_index": 37}, "uniqueid": "MTK1760:34BBWHLWHBI8VP3D6VHV9UT5SFQIWQ", "dateTime": 1516296174687}, {"current_trial": 38, "trialdata": {"rt": -1000, "trial_type": "single-audio", "word": "sphinx", "stimulus": "/static/audio/wordpool/SPHINX.wav", "conditions": [18, 1200, "a", 18000], "internal_node_id": "0.0-29.0", "trial": 0, "time_elapsed": 269951, "serialpos": 17, "key_press": -1, "wordID": 1348, "type": "PRES_AUD", "trial_index": 38}, "uniqueid": "MTK1760:34BBWHLWHBI8VP3D6VHV9UT5SFQIWQ", "dateTime": 1516296176998}, {"current_trial": 39, "trialdata": {"rt": -1, "trial_type": "single-stim", "stimulus": "", "internal_node_id": "0.0-30.0-0.0", "time_elapsed": 271255, "key_press": -1, "type": "PRE_RECALL_DELAY", "trial_index": 39}, "uniqueid": "MTK1760:34BBWHLWHBI8VP3D6VHV9UT5SFQIWQ", "dateTime": 1516296178302}, {"current_trial": 40, "trialdata": {"rt": -1000, "trial_type": "single-audio", "stimulus": "/static/audio/400Hz.wav", "internal_node_id": "0.0-31.0", "time_elapsed": 271766, "key_press": -1, "type": "PRE_RECALL_ALERT", "trial_index": 40}, "uniqueid": "MTK1760:34BBWHLWHBI8VP3D6VHV9UT5SFQIWQ", "dateTime": 1516296178813}, {"current_trial": 41, "trialdata": {"rt": [4165, 6821, 10935, 13418, 16891, 21085, 24347, 26568, 29087, 32251, 34618, 37885, 40760, 43434, 50180, 54997, 59421], "recwords": ["soda", "cocktail", "freckle", "picture", "burglar", "balloon", "sphynx", "poet", "switch", "wagon", "expert", "mustard", "canal", "virus", "airplane", "mask", "chauffer"], "key_times": [3080, 3196, 3301, 3538, 4165, 5069, 5237, 5564, 5588, 5876, 6082, 6258, 6333, 6821, 8805, 9036, 9214, 9528, 9676, 9889, 10121, 10935, 12130, 12222, 12380, 12619, 12738, 12907, 13008, 13418, 14360, 14510, 14897, 15017, 15159, 15857, 15950, 16891, 19432, 19494, 19667, 19834, 20052, 20268, 20612, 21085, 22040, 22321, 22428, 22614, 22911, 23571, 24347, 25361, 25469, 25646, 25848, 26568, 27544, 27695, 28015, 28055, 28366, 28483, 29087, 30538, 30753, 30999, 31186, 31272, 32251, 33313, 33494, 33776, 33885, 34014, 34298, 34618, 35241, 35567, 35652, 35805, 36075, 36268, 36745, 37180, 37367, 37885, 39083, 39176, 39251, 39527, 39811, 40760, 41926, 42079, 42310, 42532, 42760, 43434, 48068, 48303, 48445, 48742, 48900, 49060, 49183, 49354, 50180, 50944, 51042, 51229, 51395, 54997, 57038, 57246, 57351, 57620, 58284, 58396, 58466, 58692, 59421], "trial_type": "free-recall", "conditions": [18, 1200, "a", 18000], "internal_node_id": "0.0-32.0-0.0", "key_presses": [83, 79, 68, 65, 13, 67, 79, 67, 75, 84, 65, 73, 76, 13, 70, 82, 69, 67, 75, 76, 69, 13, 80, 73, 67, 84, 85, 82, 69, 13, 66, 85, 82, 71, 76, 65, 82, 13, 66, 65, 76, 76, 79, 79, 78, 13, 83, 80, 72, 89, 78, 88, 13, 80, 79, 69, 84, 13, 83, 87, 73, 84, 67, 72, 13, 87, 65, 71, 79, 78, 13, 69, 88, 80, 69, 82, 84, 13, 77, 85, 83, 84, 65, 82, 83, 8, 68, 13, 67, 65, 78, 65, 76, 13, 86, 73, 82, 85, 83, 13, 65, 73, 82, 80, 76, 65, 78, 69, 13, 77, 65, 83, 75, 13, 67, 72, 65, 85, 70, 70, 69, 82, 13], "trial": 0, "time_elapsed": 331781, "type": "FREE_RECALL", "trial_index": 41}, "uniqueid": "MTK1760:34BBWHLWHBI8VP3D6VHV9UT5SFQIWQ", "dateTime": 1516296238840}, {"current_trial": 42, "trialdata": {"rt": 1533, "trial_type": "text", "internal_node_id": "0.0-33.0", "time_elapsed": 335449, "key_press": 32, "type": "INSTRUCTIONS", "trial_index": 42}, "uniqueid": "MTK1760:34BBWHLWHBI8VP3D6VHV9UT5SFQIWQ", "dateTime": 1516296242497}, {"current_trial": 43, "trialdata": {"rt": [5365, 9152, 12364, 15888], "trial_type": "math-distractor", "key_times": [2749, 5365, 8157, 8274, 9152, 11393, 11569, 12364, 14929, 15125, 15888], "responses": ["9", "15", "16", "15"], "num2": [1, 1, 3, 8, 2], "num3": [3, 7, 4, 4, 6], "conditions": [18, 1200, "a", 18000], "internal_node_id": "0.0-34.0", "key_presses": [57, 13, 49, 53, 13, 49, 54, 13, 49, 53, 13], "trial": 1, "time_elapsed": 355531, "type": "DISTRACTOR", "trial_index": 43, "num1": [5, 7, 9, 3, 5]}, "uniqueid": "MTK1760:34BBWHLWHBI8VP3D6VHV9UT5SFQIWQ", "dateTime": 1516296262578}, {"current_trial": 44, "trialdata": {"rt": -1, "trial_type": "single-stim", "stimulus": "<p id=\"stim\">10</p>", "internal_node_id": "0.0-35.0-0.0", "time_elapsed": 358790, "key_press": -1, "trial_index": 44}, "uniqueid": "MTK1760:34BBWHLWHBI8VP3D6VHV9UT5SFQIWQ", "dateTime": 1516296265837}, {"current_trial": 45, "trialdata": {"rt": -1, "trial_type": "single-stim", "stimulus": "<p id=\"stim\">9</p>", "internal_node_id": "0.0-35.0-1.0", "time_elapsed": 359863, "key_press": -1, "trial_index": 45}, "uniqueid": "MTK1760:34BBWHLWHBI8VP3D6VHV9UT5SFQIWQ", "dateTime": 1516296266911}, {"current_trial": 46, "trialdata": {"rt": -1, "trial_type": "single-stim", "stimulus": "<p id=\"stim\">8</p>", "internal_node_id": "0.0-35.0-2.0", "time_elapsed": 361078, "key_press": -1, "trial_index": 46}, "uniqueid": "MTK1760:34BBWHLWHBI8VP3D6VHV9UT5SFQIWQ", "dateTime": 1516296268126}, {"current_trial": 47, "trialdata": {"rt": -1, "trial_type": "single-stim", "stimulus": "<p id=\"stim\">7</p>", "internal_node_id": "0.0-35.0-3.0", "time_elapsed": 362167, "key_press": -1, "trial_index": 47}, "uniqueid": "MTK1760:34BBWHLWHBI8VP3D6VHV9UT5SFQIWQ", "dateTime": 1516296269216}, {"current_trial": 48, "trialdata": {"rt": -1, "trial_type": "single-stim", "stimulus": "<p id=\"stim\">6</p>", "internal_node_id": "0.0-35.0-4.0", "time_elapsed": 363262, "key_press": -1, "trial_index": 48}, "uniqueid": "MTK1760:34BBWHLWHBI8VP3D6VHV9UT5SFQIWQ", "dateTime": 1516296270309}, {"current_trial": 49, "trialdata": {"rt": -1, "trial_type": "single-stim", "stimulus": "<p id=\"stim\">5</p>", "internal_node_id": "0.0-35.0-5.0", "time_elapsed": 364411, "key_press": -1, "trial_index": 49}, "uniqueid": "MTK1760:34BBWHLWHBI8VP3D6VHV9UT5SFQIWQ", "dateTime": 1516296271459}, {"current_trial": 50, "trialdata": {"rt": -1, "trial_type": "single-stim", "stimulus": "<p id=\"stim\">4</p>", "internal_node_id": "0.0-35.0-6.0", "time_elapsed": 365601, "key_press": -1, "trial_index": 50}, "uniqueid": "MTK1760:34BBWHLWHBI8VP3D6VHV9UT5SFQIWQ", "dateTime": 1516296272649}, {"current_trial": 51, "trialdata": {"rt": -1, "trial_type": "single-stim", "stimulus": "<p id=\"stim\">3</p>", "internal_node_id": "0.0-35.0-7.0", "time_elapsed": 366605, "key_press": -1, "trial_index": 51}, "uniqueid": "MTK1760:34BBWHLWHBI8VP3D6VHV9UT5SFQIWQ", "dateTime": 1516296273654}, {"current_trial": 52, "trialdata": {"rt": -1, "trial_type": "single-stim", "stimulus": "<p id=\"stim\">2</p>", "internal_node_id": "0.0-35.0-8.0", "time_elapsed": 367646, "key_press": -1, "trial_index": 52}, "uniqueid": "MTK1760:34BBWHLWHBI8VP3D6VHV9UT5SFQIWQ", "dateTime": 1516296274694}, {"current_trial": 53, "trialdata": {"rt": -1, "trial_type": "single-stim", "stimulus": "<p id=\"stim\">1</p>", "internal_node_id": "0.0-35.0-9.0", "time_elapsed": 368830, "key_press": -1, "trial_index": 53}, "uniqueid": "MTK1760:34BBWHLWHBI8VP3D6VHV9UT5SFQIWQ", "dateTime": 1516296275877}, {"current_trial": 54, "trialdata": {"rt": -1, "trial_type": "single-stim", "stimulus": "<p id=\"stim\">+</p>", "internal_node_id": "0.0-36.0-0.0", "time_elapsed": 370342, "key_press": -1, "type": "FIXATION", "trial_index": 54}, "uniqueid": "MTK1760:34BBWHLWHBI8VP3D6VHV9UT5SFQIWQ", "dateTime": 1516296277389}, {"current_trial": 55, "trialdata": {"rt": -1000, "trial_type": "single-audio", "word": "rug", "stimulus": "/static/audio/wordpool/RUG.wav", "conditions": [18, 1200, "a", 18000], "internal_node_id": "0.0-37.0", "trial": 1, "time_elapsed": 372623, "serialpos": 0, "key_press": -1, "wordID": 1214, "type": "PRES_AUD", "trial_index": 55}, "uniqueid": "MTK1760:34BBWHLWHBI8VP3D6VHV9UT5SFQIWQ", "dateTime": 1516296279670}, {"current_trial": 56, "trialdata": {"rt": -1000, "trial_type": "single-audio", "word": "flute", "stimulus": "/static/audio/wordpool/FLUTE.wav", "conditions": [18, 1200, "a", 18000], "internal_node_id": "0.0-38.0", "trial": 1, "time_elapsed": 374834, "serialpos": 1, "key_press": -1, "wordID": 584, "type": "PRES_AUD", "trial_index": 56}, "uniqueid": "MTK1760:34BBWHLWHBI8VP3D6VHV9UT5SFQIWQ", "dateTime": 1516296281882}, {"current_trial": 57, "trialdata": {"rt": -1000, "trial_type": "single-audio", "word": "pigment", "stimulus": "/static/audio/wordpool/PIGMENT.wav", "conditions": [18, 1200, "a", 18000], "internal_node_id": "0.0-39.0", "trial": 1, "time_elapsed": 377202, "serialpos": 2, "key_press": -1, "wordID": 1065, "type": "PRES_AUD", "trial_index": 57}, "uniqueid": "MTK1760:34BBWHLWHBI8VP3D6VHV9UT5SFQIWQ", "dateTime": 1516296284250}, {"current_trial": 58, "trialdata": {"rt": -1000, "trial_type": "single-audio", "word": "actress", "stimulus": "/static/audio/wordpool/ACTRESS.wav", "conditions": [18, 1200, "a", 18000], "internal_node_id": "0.0-40.0", "trial": 1, "time_elapsed": 379488, "serialpos": 3, "key_press": -1, "wordID": 5, "type": "PRES_AUD", "trial_index": 58}, "uniqueid": "MTK1760:34BBWHLWHBI8VP3D6VHV9UT5SFQIWQ", "dateTime": 1516296286536}, {"current_trial": 59, "trialdata": {"rt": -1000, "trial_type": "single-audio", "word": "missile", "stimulus": "/static/audio/wordpool/MISSILE.wav", "conditions": [18, 1200, "a", 18000], "internal_node_id": "0.0-41.0", "trial": 1, "time_elapsed": 381836, "serialpos": 4, "key_press": -1, "wordID": 899, "type": "PRES_AUD", "trial_index": 59}, "uniqueid": "MTK1760:34BBWHLWHBI8VP3D6VHV9UT5SFQIWQ", "dateTime": 1516296288883}, {"current_trial": 60, "trialdata": {"rt": -1000, "trial_type": "single-audio", "word": "penguin", "stimulus": "/static/audio/wordpool/PENGUIN.wav", "conditions": [18, 1200, "a", 18000], "internal_node_id": "0.0-42.0", "trial": 1, "time_elapsed": 384270, "serialpos": 5, "key_press": -1, "wordID": 1043, "type": "PRES_AUD", "trial_index": 60}, "uniqueid": "MTK1760:34BBWHLWHBI8VP3D6VHV9UT5SFQIWQ", "dateTime": 1516296291318}, {"current_trial": 61, "trialdata": {"rt": -1000, "trial_type": "single-audio", "word": "fleet", "stimulus": "/static/audio/wordpool/FLEET.wav", "conditions": [18, 1200, "a", 18000], "internal_node_id": "0.0-43.0", "trial": 1, "time_elapsed": 386584, "serialpos": 6, "key_press": -1, "wordID": 577, "type": "PRES_AUD", "trial_index": 61}, "uniqueid": "MTK1760:34BBWHLWHBI8VP3D6VHV9UT5SFQIWQ", "dateTime": 1516296293632}, {"current_trial": 62, "trialdata": {"rt": -1000, "trial_type": "single-audio", "word": "journal", "stimulus": "/static/audio/wordpool/JOURNAL.wav", "conditions": [18, 1200, "a", 18000], "internal_node_id": "0.0-44.0", "trial": 1, "time_elapsed": 388891, "serialpos": 7, "key_press": -1, "wordID": 759, "type": "PRES_AUD", "trial_index": 62}, "uniqueid": "MTK1760:34BBWHLWHBI8VP3D6VHV9UT5SFQIWQ", "dateTime": 1516296295940}, {"current_trial": 63, "trialdata": {"rt": -1000, "trial_type": "single-audio", "word": "cross", "stimulus": "/static/audio/wordpool/CROSS.wav", "conditions": [18, 1200, "a", 18000], "internal_node_id": "0.0-45.0", "trial": 1, "time_elapsed": 390958, "serialpos": 8, "key_press": -1, "wordID": 412, "type": "PRES_AUD", "trial_index": 63}, "uniqueid": "MTK1760:34BBWHLWHBI8VP3D6VHV9UT5SFQIWQ", "dateTime": 1516296298006}, {"current_trial": 64, "trialdata": {"rt": -1000, "trial_type": "single-audio", "word": "onion", "stimulus": "/static/audio/wordpool/ONION.wav", "conditions": [18, 1200, "a", 18000], "internal_node_id": "0.0-46.0", "trial": 1, "time_elapsed": 393221, "serialpos": 9, "key_press": -1, "wordID": 976, "type": "PRES_AUD", "trial_index": 64}, "uniqueid": "MTK1760:34BBWHLWHBI8VP3D6VHV9UT5SFQIWQ", "dateTime": 1516296300269}, {"current_trial": 65, "trialdata": {"rt": -1000, "trial_type": "single-audio", "word": "sticker", "stimulus": "/static/audio/wordpool/STICKER.wav", "conditions": [18, 1200, "a", 18000], "internal_node_id": "0.0-47.0", "trial": 1, "time_elapsed": 395475, "serialpos": 10, "key_press": -1, "wordID": 1381, "type": "PRES_AUD", "trial_index": 65}, "uniqueid": "MTK1760:34BBWHLWHBI8VP3D6VHV9UT5SFQIWQ", "dateTime": 1516296302522}, {"current_trial": 66, "trialdata": {"rt": -1000, "trial_type": "single-audio", "word": "queen", "stimulus": "/static/audio/wordpool/QUEEN.wav", "conditions": [18, 1200, "a", 18000], "internal_node_id": "0.0-48.0", "trial": 1, "time_elapsed": 397611, "serialpos": 11, "key_press": -1, "wordID": 1148, "type": "PRES_AUD", "trial_index": 66}, "uniqueid": "MTK1760:34BBWHLWHBI8VP3D6VHV9UT5SFQIWQ", "dateTime": 1516296304658}, {"current_trial": 67, "trialdata": {"rt": -1000, "trial_type": "single-audio", "word": "cobra", "stimulus": "/static/audio/wordpool/COBRA.wav", "conditions": [18, 1200, "a", 18000], "internal_node_id": "0.0-49.0", "trial": 1, "time_elapsed": 399812, "serialpos": 12, "key_press": -1, "wordID": 335, "type": "PRES_AUD", "trial_index": 67}, "uniqueid": "MTK1760:34BBWHLWHBI8VP3D6VHV9UT5SFQIWQ", "dateTime": 1516296306859}, {"current_trial": 68, "trialdata": {"rt": -1000, "trial_type": "single-audio", "word": "spider", "stimulus": "/static/audio/wordpool/SPIDER.wav", "conditions": [18, 1200, "a", 18000], "internal_node_id": "0.0-50.0", "trial": 1, "time_elapsed": 402018, "serialpos": 13, "key_press": -1, "wordID": 1350, "type": "PRES_AUD", "trial_index": 68}, "uniqueid": "MTK1760:34BBWHLWHBI8VP3D6VHV9UT5SFQIWQ", "dateTime": 1516296309067}, {"current_trial": 69, "trialdata": {"rt": -1000, "trial_type": "single-audio", "word": "jello", "stimulus": "/static/audio/wordpool/JELLO.wav", "conditions": [18, 1200, "a", 18000], "internal_node_id": "0.0-51.0", "trial": 1, "time_elapsed": 404473, "serialpos": 14, "key_press": -1, "wordID": 753, "type": "PRES_AUD", "trial_index": 69}, "uniqueid": "MTK1760:34BBWHLWHBI8VP3D6VHV9UT5SFQIWQ", "dateTime": 1516296311521}, {"current_trial": 70, "trialdata": {"rt": -1000, "trial_type": "single-audio", "word": "rebel", "stimulus": "/static/audio/wordpool/REBEL.wav", "conditions": [18, 1200, "a", 18000], "internal_node_id": "0.0-52.0", "trial": 1, "time_elapsed": 406691, "serialpos": 15, "key_press": -1, "wordID": 1171, "type": "PRES_AUD", "trial_index": 70}, "uniqueid": "MTK1760:34BBWHLWHBI8VP3D6VHV9UT5SFQIWQ", "dateTime": 1516296313738}, {"current_trial": 71, "trialdata": {"rt": -1000, "trial_type": "single-audio", "word": "coin", "stimulus": "/static/audio/wordpool/COIN.wav", "conditions": [18, 1200, "a", 18000], "internal_node_id": "0.0-53.0", "trial": 1, "time_elapsed": 408980, "serialpos": 16, "key_press": -1, "wordID": 342, "type": "PRES_AUD", "trial_index": 71}, "uniqueid": "MTK1760:34BBWHLWHBI8VP3D6VHV9UT5SFQIWQ", "dateTime": 1516296316027}, {"current_trial": 72, "trialdata": {"rt": -1000, "trial_type": "single-audio", "word": "office", "stimulus": "/static/audio/wordpool/OFFICE.wav", "conditions": [18, 1200, "a", 18000], "internal_node_id": "0.0-54.0", "trial": 1, "time_elapsed": 411232, "serialpos": 17, "key_press": -1, "wordID": 971, "type": "PRES_AUD", "trial_index": 72}, "uniqueid": "MTK1760:34BBWHLWHBI8VP3D6VHV9UT5SFQIWQ", "dateTime": 1516296318280}, {"current_trial": 73, "trialdata": {"rt": -1, "trial_type": "single-stim", "stimulus": "", "internal_node_id": "0.0-55.0-0.0", "time_elapsed": 412629, "key_press": -1, "type": "PRE_RECALL_DELAY", "trial_index": 73}, "uniqueid": "MTK1760:34BBWHLWHBI8VP3D6VHV9UT5SFQIWQ", "dateTime": 1516296319676}, {"current_trial": 74, "trialdata": {"rt": -1000, "trial_type": "single-audio", "stimulus": "/static/audio/400Hz.wav", "internal_node_id": "0.0-56.0", "time_elapsed": 413144, "key_press": -1, "type": "PRE_RECALL_ALERT", "trial_index": 74}, "uniqueid": "MTK1760:34BBWHLWHBI8VP3D6VHV9UT5SFQIWQ", "dateTime": 1516296320191}, {"current_trial": 75, "trialdata": {"rt": [4321, 6807, 9161, 11763, 14994, 19078, 24072, 27307, 30341, 37283, 45654, 51536], "recwords": ["office", "rebel", "sticker", "jello", "cobra", "actress", "missile", "journal", "rug", "jello", "fleet", "onion"], "key_times": [2950, 3193, 3446, 3532, 3834, 3837, 4321, 5076, 5183, 5380, 5586, 5805, 6807, 7610, 7928, 8030, 8306, 8427, 8589, 8691, 9161, 9720, 9864, 10214, 10530, 10729, 11763, 13693, 13869, 13954, 14214, 14344, 14994, 17081, 17503, 17613, 17874, 18023, 18342, 18517, 19078, 21847, 21893, 22186, 22499, 22718, 22944, 23210, 23324, 23580, 24072, 25911, 26041, 26244, 26362, 26643, 26654, 26729, 27307, 29056, 29119, 30108, 30341, 33871, 34872, 35052, 35303, 35610, 36724, 37018, 37283, 44748, 44873, 45045, 45303, 45395, 45654, 50013, 50156, 50212, 50389, 50444, 51536, 59317, 59551, 59694, 60045], "trial_type": "free-recall", "conditions": [18, 1200, "a", 18000], "internal_node_id": "0.0-57.0-0.0", "key_presses": [79, 70, 70, 73, 67, 69, 13, 82, 69, 66, 69, 76, 13, 83, 84, 73, 67, 75, 69, 82, 13, 74, 69, 76, 76, 79, 13, 67, 79, 66, 82, 65, 13, 65, 67, 84, 82, 69, 83, 83, 13, 77, 73, 76, 8, 83, 83, 73, 76, 69, 13, 74, 79, 85, 82, 78, 65, 76, 13, 82, 85, 71, 13, 74, 69, 76, 76, 80, 8, 79, 13, 70, 76, 69, 69, 84, 13, 79, 78, 73, 79, 78, 13, 67, 82, 79, 83], "trial": 1, "time_elapsed": 473235, "type": "FREE_RECALL", "trial_index": 75}, "uniqueid": "MTK1760:34BBWHLWHBI8VP3D6VHV9UT5SFQIWQ", "dateTime": 1516296380294}, {"current_trial": 76, "trialdata": {"rt": 2658, "trial_type": "text", "internal_node_id": "0.0-58.0", "time_elapsed": 478159, "key_press": 32, "type": "INSTRUCTIONS", "trial_index": 76}, "uniqueid": "MTK1760:34BBWHLWHBI8VP3D6VHV9UT5SFQIWQ", "dateTime": 1516296385207}, {"current_trial": 77, "trialdata": {"rt": [4055, 6856, 9094, 11470, 14252, 16668, 19082], "trial_type": "math-distractor", "key_times": [2532, 2949, 4055, 6211, 6318, 6856, 8649, 8827, 9094, 11024, 11291, 11470, 13701, 13850, 14252, 16199, 16361, 16668, 19025, 19082], "responses": ["16", "19", "13", "14", "21", "12", "9"], "num2": [6, 8, 7, 7, 9, 4, 1, 8], "num3": [3, 3, 4, 5, 3, 3, 1, 1], "conditions": [12, 1600, "a", 24000], "internal_node_id": "0.0-59.0", "key_presses": [49, 54, 13, 49, 57, 13, 49, 51, 13, 49, 52, 13, 50, 49, 13, 49, 50, 13, 57, 13], "trial": 2, "time_elapsed": 503185, "type": "DISTRACTOR", "trial_index": 77, "num1": [7, 8, 2, 2, 9, 5, 7, 1]}, "uniqueid": "MTK1760:34BBWHLWHBI8VP3D6VHV9UT5SFQIWQ", "dateTime": 1516296410233}, {"current_trial": 78, "trialdata": {"rt": -1, "trial_type": "single-stim", "stimulus": "<p id=\"stim\">10</p>", "internal_node_id": "0.0-60.0-0.0", "time_elapsed": 506503, "key_press": -1, "trial_index": 78}, "uniqueid": "MTK1760:34BBWHLWHBI8VP3D6VHV9UT5SFQIWQ", "dateTime": 1516296413552}, {"current_trial": 79, "trialdata": {"rt": -1, "trial_type": "single-stim", "stimulus": "<p id=\"stim\">9</p>", "internal_node_id": "0.0-60.0-1.0", "time_elapsed": 507514, "key_press": -1, "trial_index": 79}, "uniqueid": "MTK1760:34BBWHLWHBI8VP3D6VHV9UT5SFQIWQ", "dateTime": 1516296414562}, {"current_trial": 80, "trialdata": {"rt": -1, "trial_type": "single-stim", "stimulus": "<p id=\"stim\">8</p>", "internal_node_id": "0.0-60.0-2.0", "time_elapsed": 508534, "key_press": -1, "trial_index": 80}, "uniqueid": "MTK1760:34BBWHLWHBI8VP3D6VHV9UT5SFQIWQ", "dateTime": 1516296415581}, {"current_trial": 81, "trialdata": {"rt": -1, "trial_type": "single-stim", "stimulus": "<p id=\"stim\">7</p>", "internal_node_id": "0.0-60.0-3.0", "time_elapsed": 509699, "key_press": -1, "trial_index": 81}, "uniqueid": "MTK1760:34BBWHLWHBI8VP3D6VHV9UT5SFQIWQ", "dateTime": 1516296416746}, {"current_trial": 82, "trialdata": {"rt": -1, "trial_type": "single-stim", "stimulus": "<p id=\"stim\">6</p>", "internal_node_id": "0.0-60.0-4.0", "time_elapsed": 510797, "key_press": -1, "trial_index": 82}, "uniqueid": "MTK1760:34BBWHLWHBI8VP3D6VHV9UT5SFQIWQ", "dateTime": 1516296417844}, {"current_trial": 83, "trialdata": {"rt": -1, "trial_type": "single-stim", "stimulus": "<p id=\"stim\">5</p>", "internal_node_id": "0.0-60.0-5.0", "time_elapsed": 511832, "key_press": -1, "trial_index": 83}, "uniqueid": "MTK1760:34BBWHLWHBI8VP3D6VHV9UT5SFQIWQ", "dateTime": 1516296418879}, {"current_trial": 84, "trialdata": {"rt": -1, "trial_type": "single-stim", "stimulus": "<p id=\"stim\">4</p>", "internal_node_id": "0.0-60.0-6.0", "time_elapsed": 512903, "key_press": -1, "trial_index": 84}, "uniqueid": "MTK1760:34BBWHLWHBI8VP3D6VHV9UT5SFQIWQ", "dateTime": 1516296419951}, {"current_trial": 85, "trialdata": {"rt": -1, "trial_type": "single-stim", "stimulus": "<p id=\"stim\">3</p>", "internal_node_id": "0.0-60.0-7.0", "time_elapsed": 513921, "key_press": -1, "trial_index": 85}, "uniqueid": "MTK1760:34BBWHLWHBI8VP3D6VHV9UT5SFQIWQ", "dateTime": 1516296420975}, {"current_trial": 86, "trialdata": {"rt": -1, "trial_type": "single-stim", "stimulus": "<p id=\"stim\">2</p>", "internal_node_id": "0.0-60.0-8.0", "time_elapsed": 514946, "key_press": -1, "trial_index": 86}, "uniqueid": "MTK1760:34BBWHLWHBI8VP3D6VHV9UT5SFQIWQ", "dateTime": 1516296421993}, {"current_trial": 87, "trialdata": {"rt": -1, "trial_type": "single-stim", "stimulus": "<p id=\"stim\">1</p>", "internal_node_id": "0.0-60.0-9.0", "time_elapsed": 515950, "key_press": -1, "trial_index": 87}, "uniqueid": "MTK1760:34BBWHLWHBI8VP3D6VHV9UT5SFQIWQ", "dateTime": 1516296422997}, {"current_trial": 88, "trialdata": {"rt": -1, "trial_type": "single-stim", "stimulus": "<p id=\"stim\">+</p>", "internal_node_id": "0.0-61.0-0.0", "time_elapsed": 517541, "key_press": -1, "type": "FIXATION", "trial_index": 88}, "uniqueid": "MTK1760:34BBWHLWHBI8VP3D6VHV9UT5SFQIWQ", "dateTime": 1516296424589}, {"current_trial": 89, "trialdata": {"rt": -1000, "trial_type": "single-audio", "word": "lizard", "stimulus": "/static/audio/wordpool/LIZARD.wav", "conditions": [12, 1600, "a", 24000], "internal_node_id": "0.0-62.0", "trial": 2, "time_elapsed": 520295, "serialpos": 0, "key_press": -1, "wordID": 833, "type": "PRES_AUD", "trial_index": 89}, "uniqueid": "MTK1760:34BBWHLWHBI8VP3D6VHV9UT5SFQIWQ", "dateTime": 1516296427342}, {"current_trial": 90, "trialdata": {"rt": -1000, "trial_type": "single-audio", "word": "piston", "stimulus": "/static/audio/wordpool/PISTON.wav", "conditions": [12, 1600, "a", 24000], "internal_node_id": "0.0-63.0", "trial": 2, "time_elapsed": 523053, "serialpos": 1, "key_press": -1, "wordID": 1075, "type": "PRES_AUD", "trial_index": 90}, "uniqueid": "MTK1760:34BBWHLWHBI8VP3D6VHV9UT5SFQIWQ", "dateTime": 1516296430100}, {"current_trial": 91, "trialdata": {"rt": -1000, "trial_type": "single-audio", "word": "valve", "stimulus": "/static/audio/wordpool/VALVE.wav", "conditions": [12, 1600, "a", 24000], "internal_node_id": "0.0-64.0", "trial": 2, "time_elapsed": 525766, "serialpos": 2, "key_press": -1, "wordID": 1545, "type": "PRES_AUD", "trial_index": 91}, "uniqueid": "MTK1760:34BBWHLWHBI8VP3D6VHV9UT5SFQIWQ", "dateTime": 1516296432813}, {"current_trial": 92, "trialdata": {"rt": -1000, "trial_type": "single-audio", "word": "ankle", "stimulus": "/static/audio/wordpool/ANKLE.wav", "conditions": [12, 1600, "a", 24000], "internal_node_id": "0.0-65.0", "trial": 2, "time_elapsed": 528450, "serialpos": 3, "key_press": -1, "wordID": 23, "type": "PRES_AUD", "trial_index": 92}, "uniqueid": "MTK1760:34BBWHLWHBI8VP3D6VHV9UT5SFQIWQ", "dateTime": 1516296435498}, {"current_trial": 93, "trialdata": {"rt": -1000, "trial_type": "single-audio", "word": "crayon", "stimulus": "/static/audio/wordpool/CRAYON.wav", "conditions": [12, 1600, "a", 24000], "internal_node_id": "0.0-66.0", "trial": 2, "time_elapsed": 531009, "serialpos": 4, "key_press": -1, "wordID": 400, "type": "PRES_AUD", "trial_index": 93}, "uniqueid": "MTK1760:34BBWHLWHBI8VP3D6VHV9UT5SFQIWQ", "dateTime": 1516296438057}, {"current_trial": 94, "trialdata": {"rt": -1000, "trial_type": "single-audio", "word": "police", "stimulus": "/static/audio/wordpool/POLICE.wav", "conditions": [12, 1600, "a", 24000], "internal_node_id": "0.0-67.0", "trial": 2, "time_elapsed": 533537, "serialpos": 5, "key_press": -1, "wordID": 1097, "type": "PRES_AUD", "trial_index": 94}, "uniqueid": "MTK1760:34BBWHLWHBI8VP3D6VHV9UT5SFQIWQ", "dateTime": 1516296440588}, {"current_trial": 95, "trialdata": {"rt": -1000, "trial_type": "single-audio", "word": "toaster", "stimulus": "/static/audio/wordpool/TOASTER.wav", "conditions": [12, 1600, "a", 24000], "internal_node_id": "0.0-68.0", "trial": 2, "time_elapsed": 536024, "serialpos": 6, "key_press": -1, "wordID": 1471, "type": "PRES_AUD", "trial_index": 95}, "uniqueid": "MTK1760:34BBWHLWHBI8VP3D6VHV9UT5SFQIWQ", "dateTime": 1516296443073}, {"current_trial": 96, "trialdata": {"rt": -1000, "trial_type": "single-audio", "word": "football", "stimulus": "/static/audio/wordpool/FOOTBALL.wav", "conditions": [12, 1600, "a", 24000], "internal_node_id": "0.0-69.0", "trial": 2, "time_elapsed": 538613, "serialpos": 7, "key_press": -1, "wordID": 590, "type": "PRES_AUD", "trial_index": 96}, "uniqueid": "MTK1760:34BBWHLWHBI8VP3D6VHV9UT5SFQIWQ", "dateTime": 1516296445661}, {"current_trial": 97, "trialdata": {"rt": -1000, "trial_type": "single-audio", "word": "cricket", "stimulus": "/static/audio/wordpool/CRICKET.wav", "conditions": [12, 1600, "a", 24000], "internal_node_id": "0.0-70.0", "trial": 2, "time_elapsed": 541415, "serialpos": 8, "key_press": -1, "wordID": 407, "type": "PRES_AUD", "trial_index": 97}, "uniqueid": "MTK1760:34BBWHLWHBI8VP3D6VHV9UT5SFQIWQ", "dateTime": 1516296448463}, {"current_trial": 98, "trialdata": {"rt": -1000, "trial_type": "single-audio", "word": "goblin", "stimulus": "/static/audio/wordpool/GOBLIN.wav", "conditions": [12, 1600, "a", 24000], "internal_node_id": "0.0-71.0", "trial": 2, "time_elapsed": 544116, "serialpos": 9, "key_press": -1, "wordID": 644, "type": "PRES_AUD", "trial_index": 98}, "uniqueid": "MTK1760:34BBWHLWHBI8VP3D6VHV9UT5SFQIWQ", "dateTime": 1516296451163}, {"current_trial": 99, "trialdata": {"rt": -1000, "trial_type": "single-audio", "word": "mammal", "stimulus": "/static/audio/wordpool/MAMMAL.wav", "conditions": [12, 1600, "a", 24000], "internal_node_id": "0.0-72.0", "trial": 2, "time_elapsed": 546783, "serialpos": 10, "key_press": -1, "wordID": 860, "type": "PRES_AUD", "trial_index": 99}, "uniqueid": "MTK1760:34BBWHLWHBI8VP3D6VHV9UT5SFQIWQ", "dateTime": 1516296453831}, {"current_trial": 100, "trialdata": {"rt": -1000, "trial_type": "single-audio", "word": "climber", "stimulus": "/static/audio/wordpool/CLIMBER.wav", "conditions": [12, 1600, "a", 24000], "internal_node_id": "0.0-73.0", "trial": 2, "time_elapsed": 549276, "serialpos": 11, "key_press": -1, "wordID": 322, "type": "PRES_AUD", "trial_index": 100}, "uniqueid": "MTK1760:34BBWHLWHBI8VP3D6VHV9UT5SFQIWQ", "dateTime": 1516296456323}, {"current_trial": 101, "trialdata": {"rt": -1, "trial_type": "single-stim", "stimulus": "", "internal_node_id": "0.0-74.0-0.0", "time_elapsed": 550520, "key_press": -1, "type": "PRE_RECALL_DELAY", "trial_index": 101}, "uniqueid": "MTK1760:34BBWHLWHBI8VP3D6VHV9UT5SFQIWQ", "dateTime": 1516296457567}, {"current_trial": 102, "trialdata": {"rt": -1000, "trial_type": "single-audio", "stimulus": "/static/audio/400Hz.wav", "internal_node_id": "0.0-75.0", "time_elapsed": 551176, "key_press": -1, "type": "PRE_RECALL_ALERT", "trial_index": 102}, "uniqueid": "MTK1760:34BBWHLWHBI8VP3D6VHV9UT5SFQIWQ", "dateTime": 1516296458224}, {"current_trial": 103, "trialdata": {"rt": [3820, 5840, 8481, 10758, 13607, 23601, 31654, 40932, 49184, 58559], "recwords": ["climber", "mammal", "football", "police", "lizard", "cricket", "football", "ankle", "toaster", "goblet"], "key_times": [2247, 2421, 2527, 2809, 3024, 3238, 3289, 3820, 4408, 4549, 4835, 5027, 5180, 5385, 5840, 6647, 6724, 6957, 7145, 7614, 7730, 8002, 8156, 8481, 9213, 9409, 9780, 9883, 10207, 10345, 10758, 11437, 11643, 11934, 12538, 12705, 13134, 13607, 21765, 22268, 22539, 22633, 22779, 22901, 23119, 23601, 29937, 30145, 30323, 30563, 30782, 30918, 31067, 31347, 31654, 38757, 39096, 39541, 39975, 40113, 40396, 40431, 40932, 47625, 47755, 47959, 48119, 48292, 48423, 48679, 49184, 57036, 57174, 57801, 57931, 58124, 58247, 58559], "trial_type": "free-recall", "conditions": [12, 1600, "a", 24000], "internal_node_id": "0.0-76.0-0.0", "key_presses": [67, 76, 73, 77, 66, 69, 82, 13, 77, 65, 77, 77, 65, 76, 13, 70, 79, 79, 84, 66, 65, 76, 76, 13, 80, 79, 76, 73, 67, 69, 13, 76, 73, 90, 65, 82, 68, 13, 67, 82, 73, 67, 75, 69, 84, 13, 70, 79, 79, 84, 66, 65, 76, 76, 13, 65, 75, 8, 78, 75, 76, 69, 13, 84, 79, 65, 83, 84, 69, 82, 13, 71, 79, 66, 76, 69, 84, 13], "trial": 2, "time_elapsed": 611201, "type": "FREE_RECALL", "trial_index": 103}, "uniqueid": "MTK1760:34BBWHLWHBI8VP3D6VHV9UT5SFQIWQ", "dateTime": 1516296518258}, {"current_trial": 104, "trialdata": {"rt": 1249, "trial_type": "text", "internal_node_id": "0.0-77.0", "time_elapsed": 614468, "key_press": 32, "type": "INSTRUCTIONS", "trial_index": 104}, "uniqueid": "MTK1760:34BBWHLWHBI8VP3D6VHV9UT5SFQIWQ", "dateTime": 1516296521516}, {"current_trial": 105, "trialdata": {"rt": [3354, 6376, 10000], "trial_type": "math-distractor", "key_times": [2472, 2877, 3354, 5814, 6108, 6376, 9661, 9799, 10000, 11752, 11788], "responses": ["16", "14", "24"], "num2": [8, 6, 9, 8], "num3": [3, 5, 7, 6], "conditions": [24, 800, "a", 12000], "internal_node_id": "0.0-78.0", "key_presses": [49, 54, 13, 49, 52, 13, 50, 52, 13, 49, 53], "trial": 3, "time_elapsed": 628568, "type": "DISTRACTOR", "trial_index": 105, "num1": [5, 2, 8, 1]}, "uniqueid": "MTK1760:34BBWHLWHBI8VP3D6VHV9UT5SFQIWQ", "dateTime": 1516296535617}, {"current_trial": 106, "trialdata": {"rt": -1, "trial_type": "single-stim", "stimulus": "<p id=\"stim\">10</p>", "internal_node_id": "0.0-79.0-0.0", "time_elapsed": 631690, "key_press": -1, "trial_index": 106}, "uniqueid": "MTK1760:34BBWHLWHBI8VP3D6VHV9UT5SFQIWQ", "dateTime": 1516296538738}, {"current_trial": 107, "trialdata": {"rt": -1, "trial_type": "single-stim", "stimulus": "<p id=\"stim\">9</p>", "internal_node_id": "0.0-79.0-1.0", "time_elapsed": 632805, "key_press": -1, "trial_index": 107}, "uniqueid": "MTK1760:34BBWHLWHBI8VP3D6VHV9UT5SFQIWQ", "dateTime": 1516296539854}, {"current_trial": 108, "trialdata": {"rt": -1, "trial_type": "single-stim", "stimulus": "<p id=\"stim\">8</p>", "internal_node_id": "0.0-79.0-2.0", "time_elapsed": 633994, "key_press": -1, "trial_index": 108}, "uniqueid": "MTK1760:34BBWHLWHBI8VP3D6VHV9UT5SFQIWQ", "dateTime": 1516296541042}, {"current_trial": 109, "trialdata": {"rt": -1, "trial_type": "single-stim", "stimulus": "<p id=\"stim\">7</p>", "internal_node_id": "0.0-79.0-3.0", "time_elapsed": 635047, "key_press": -1, "trial_index": 109}, "uniqueid": "MTK1760:34BBWHLWHBI8VP3D6VHV9UT5SFQIWQ", "dateTime": 1516296542095}, {"current_trial": 110, "trialdata": {"rt": -1, "trial_type": "single-stim", "stimulus": "<p id=\"stim\">6</p>", "internal_node_id": "0.0-79.0-4.0", "time_elapsed": 636142, "key_press": -1, "trial_index": 110}, "uniqueid": "MTK1760:34BBWHLWHBI8VP3D6VHV9UT5SFQIWQ", "dateTime": 1516296543189}, {"current_trial": 111, "trialdata": {"rt": -1, "trial_type": "single-stim", "stimulus": "<p id=\"stim\">5</p>", "internal_node_id": "0.0-79.0-5.0", "time_elapsed": 637171, "key_press": -1, "trial_index": 111}, "uniqueid": "MTK1760:34BBWHLWHBI8VP3D6VHV9UT5SFQIWQ", "dateTime": 1516296544219}, {"current_trial": 112, "trialdata": {"rt": -1, "trial_type": "single-stim", "stimulus": "<p id=\"stim\">4</p>", "internal_node_id": "0.0-79.0-6.0", "time_elapsed": 638347, "key_press": -1, "trial_index": 112}, "uniqueid": "MTK1760:34BBWHLWHBI8VP3D6VHV9UT5SFQIWQ", "dateTime": 1516296545394}, {"current_trial": 113, "trialdata": {"rt": -1, "trial_type": "single-stim", "stimulus": "<p id=\"stim\">3</p>", "internal_node_id": "0.0-79.0-7.0", "time_elapsed": 639524, "key_press": -1, "trial_index": 113}, "uniqueid": "MTK1760:34BBWHLWHBI8VP3D6VHV9UT5SFQIWQ", "dateTime": 1516296546571}, {"current_trial": 114, "trialdata": {"rt": -1, "trial_type": "single-stim", "stimulus": "<p id=\"stim\">2</p>", "internal_node_id": "0.0-79.0-8.0", "time_elapsed": 640555, "key_press": -1, "trial_index": 114}, "uniqueid": "MTK1760:34BBWHLWHBI8VP3D6VHV9UT5SFQIWQ", "dateTime": 1516296547603}, {"current_trial": 115, "trialdata": {"rt": -1, "trial_type": "single-stim", "stimulus": "<p id=\"stim\">1</p>", "internal_node_id": "0.0-79.0-9.0", "time_elapsed": 641559, "key_press": -1, "trial_index": 115}, "uniqueid": "MTK1760:34BBWHLWHBI8VP3D6VHV9UT5SFQIWQ", "dateTime": 1516296548606}, {"current_trial": 116, "trialdata": {"rt": -1, "trial_type": "single-stim", "stimulus": "<p id=\"stim\">+</p>", "internal_node_id": "0.0-80.0-0.0", "time_elapsed": 643063, "key_press": -1, "type": "FIXATION", "trial_index": 116}, "uniqueid": "MTK1760:34BBWHLWHBI8VP3D6VHV9UT5SFQIWQ", "dateTime": 1516296550110}, {"current_trial": 117, "trialdata": {"rt": -1000, "trial_type": "single-audio", "word": "plaza", "stimulus": "/static/audio/wordpool/PLAZA.wav", "conditions": [24, 800, "a", 12000], "internal_node_id": "0.0-81.0", "trial": 3, "time_elapsed": 644958, "serialpos": 0, "key_press": -1, "wordID": 1087, "type": "PRES_AUD", "trial_index": 117}, "uniqueid": "MTK1760:34BBWHLWHBI8VP3D6VHV9UT5SFQIWQ", "dateTime": 1516296552005}, {"current_trial": 118, "trialdata": {"rt": -1000, "trial_type": "single-audio", "word": "catcher", "stimulus": "/static/audio/wordpool/CATCHER.wav", "conditions": [24, 800, "a", 12000], "internal_node_id": "0.0-82.0", "trial": 3, "time_elapsed": 646909, "serialpos": 1, "key_press": -1, "wordID": 257, "type": "PRES_AUD", "trial_index": 118}, "uniqueid": "MTK1760:34BBWHLWHBI8VP3D6VHV9UT5SFQIWQ", "dateTime": 1516296553956}, {"current_trial": 119, "trialdata": {"rt": -1000, "trial_type": "single-audio", "word": "cattle", "stimulus": "/static/audio/wordpool/CATTLE.wav", "conditions": [24, 800, "a", 12000], "internal_node_id": "0.0-83.0", "trial": 3, "time_elapsed": 648744, "serialpos": 2, "key_press": -1, "wordID": 260, "type": "PRES_AUD", "trial_index": 119}, "uniqueid": "MTK1760:34BBWHLWHBI8VP3D6VHV9UT5SFQIWQ", "dateTime": 1516296555791}, {"current_trial": 120, "trialdata": {"rt": -1000, "trial_type": "single-audio", "word": "swimmer", "stimulus": "/static/audio/wordpool/SWIMMER.wav", "conditions": [24, 800, "a", 12000], "internal_node_id": "0.0-84.0", "trial": 3, "time_elapsed": 650354, "serialpos": 3, "key_press": -1, "wordID": 1419, "type": "PRES_AUD", "trial_index": 120}, "uniqueid": "MTK1760:34BBWHLWHBI8VP3D6VHV9UT5SFQIWQ", "dateTime": 1516296557401}, {"current_trial": 121, "trialdata": {"rt": -1000, "trial_type": "single-audio", "word": "grave", "stimulus": "/static/audio/wordpool/GRAVE.wav", "conditions": [24, 800, "a", 12000], "internal_node_id": "0.0-85.0", "trial": 3, "time_elapsed": 652285, "serialpos": 4, "key_press": -1, "wordID": 657, "type": "PRES_AUD", "trial_index": 121}, "uniqueid": "MTK1760:34BBWHLWHBI8VP3D6VHV9UT5SFQIWQ", "dateTime": 1516296559332}, {"current_trial": 122, "trialdata": {"rt": -1000, "trial_type": "single-audio", "word": "window", "stimulus": "/static/audio/wordpool/WINDOW.wav", "conditions": [24, 800, "a", 12000], "internal_node_id": "0.0-86.0", "trial": 3, "time_elapsed": 654264, "serialpos": 5, "key_press": -1, "wordID": 1610, "type": "PRES_AUD", "trial_index": 122}, "uniqueid": "MTK1760:34BBWHLWHBI8VP3D6VHV9UT5SFQIWQ", "dateTime": 1516296561311}, {"current_trial": 123, "trialdata": {"rt": -1000, "trial_type": "single-audio", "word": "finger", "stimulus": "/static/audio/wordpool/FINGER.wav", "conditions": [24, 800, "a", 12000], "internal_node_id": "0.0-87.0", "trial": 3, "time_elapsed": 656001, "serialpos": 6, "key_press": -1, "wordID": 566, "type": "PRES_AUD", "trial_index": 123}, "uniqueid": "MTK1760:34BBWHLWHBI8VP3D6VHV9UT5SFQIWQ", "dateTime": 1516296563048}, {"current_trial": 124, "trialdata": {"rt": -1000, "trial_type": "single-audio", "word": "bison", "stimulus": "/static/audio/wordpool/BISON.wav", "conditions": [24, 800, "a", 12000], "internal_node_id": "0.0-88.0", "trial": 3, "time_elapsed": 657631, "serialpos": 7, "key_press": -1, "wordID": 130, "type": "PRES_AUD", "trial_index": 124}, "uniqueid": "MTK1760:34BBWHLWHBI8VP3D6VHV9UT5SFQIWQ", "dateTime": 1516296564678}, {"current_trial": 125, "trialdata": {"rt": -1000, "trial_type": "single-audio", "word": "denim", "stimulus": "/static/audio/wordpool/DENIM.wav", "conditions": [24, 800, "a", 12000], "internal_node_id": "0.0-89.0", "trial": 3, "time_elapsed": 659473, "serialpos": 8, "key_press": -1, "wordID": 445, "type": "PRES_AUD", "trial_index": 125}, "uniqueid": "MTK1760:34BBWHLWHBI8VP3D6VHV9UT5SFQIWQ", "dateTime": 1516296566521}, {"current_trial": 126, "trialdata": {"rt": -1000, "trial_type": "single-audio", "word": "lunch", "stimulus": "/static/audio/wordpool/LUNCH.wav", "conditions": [24, 800, "a", 12000], "internal_node_id": "0.0-90.0", "trial": 3, "time_elapsed": 661089, "serialpos": 9, "key_press": -1, "wordID": 848, "type": "PRES_AUD", "trial_index": 126}, "uniqueid": "MTK1760:34BBWHLWHBI8VP3D6VHV9UT5SFQIWQ", "dateTime": 1516296568136}, {"current_trial": 127, "trialdata": {"rt": -1000, "trial_type": "single-audio", "word": "supper", "stimulus": "/static/audio/wordpool/SUPPER.wav", "conditions": [24, 800, "a", 12000], "internal_node_id": "0.0-91.0", "trial": 3, "time_elapsed": 662819, "serialpos": 10, "key_press": -1, "wordID": 1410, "type": "PRES_AUD", "trial_index": 127}, "uniqueid": "MTK1760:34BBWHLWHBI8VP3D6VHV9UT5SFQIWQ", "dateTime": 1516296569866}, {"current_trial": 128, "trialdata": {"rt": -1000, "trial_type": "single-audio", "word": "actor", "stimulus": "/static/audio/wordpool/ACTOR.wav", "conditions": [24, 800, "a", 12000], "internal_node_id": "0.0-92.0", "trial": 3, "time_elapsed": 664532, "serialpos": 11, "key_press": -1, "wordID": 4, "type": "PRES_AUD", "trial_index": 128}, "uniqueid": "MTK1760:34BBWHLWHBI8VP3D6VHV9UT5SFQIWQ", "dateTime": 1516296571579}, {"current_trial": 129, "trialdata": {"rt": -1000, "trial_type": "single-audio", "word": "cupboard", "stimulus": "/static/audio/wordpool/CUPBOARD.wav", "conditions": [24, 800, "a", 12000], "internal_node_id": "0.0-93.0", "trial": 3, "time_elapsed": 666578, "serialpos": 12, "key_press": -1, "wordID": 424, "type": "PRES_AUD", "trial_index": 129}, "uniqueid": "MTK1760:34BBWHLWHBI8VP3D6VHV9UT5SFQIWQ", "dateTime": 1516296573625}, {"current_trial": 130, "trialdata": {"rt": -1000, "trial_type": "single-audio", "word": "valley", "stimulus": "/static/audio/wordpool/VALLEY.wav", "conditions": [24, 800, "a", 12000], "internal_node_id": "0.0-94.0", "trial": 3, "time_elapsed": 668508, "serialpos": 13, "key_press": -1, "wordID": 1544, "type": "PRES_AUD", "trial_index": 130}, "uniqueid": "MTK1760:34BBWHLWHBI8VP3D6VHV9UT5SFQIWQ", "dateTime": 1516296575556}, {"current_trial": 131, "trialdata": {"rt": -1000, "trial_type": "single-audio", "word": "venus", "stimulus": "/static/audio/wordpool/VENUS.wav", "conditions": [24, 800, "a", 12000], "internal_node_id": "0.0-95.0", "trial": 3, "time_elapsed": 670169, "serialpos": 14, "key_press": -1, "wordID": 1556, "type": "PRES_AUD", "trial_index": 131}, "uniqueid": "MTK1760:34BBWHLWHBI8VP3D6VHV9UT5SFQIWQ", "dateTime": 1516296577216}, {"current_trial": 132, "trialdata": {"rt": -1000, "trial_type": "single-audio", "word": "blackboard", "stimulus": "/static/audio/wordpool/BLACKBOARD.wav", "conditions": [24, 800, "a", 12000], "internal_node_id": "0.0-96.0", "trial": 3, "time_elapsed": 672063, "serialpos": 15, "key_press": -1, "wordID": 132, "type": "PRES_AUD", "trial_index": 132}, "uniqueid": "MTK1760:34BBWHLWHBI8VP3D6VHV9UT5SFQIWQ", "dateTime": 1516296579110}, {"current_trial": 133, "trialdata": {"rt": -1000, "trial_type": "single-audio", "word": "napkin", "stimulus": "/static/audio/wordpool/NAPKIN.wav", "conditions": [24, 800, "a", 12000], "internal_node_id": "0.0-97.0", "trial": 3, "time_elapsed": 673686, "serialpos": 16, "key_press": -1, "wordID": 936, "type": "PRES_AUD", "trial_index": 133}, "uniqueid": "MTK1760:34BBWHLWHBI8VP3D6VHV9UT5SFQIWQ", "dateTime": 1516296580734}, {"current_trial": 134, "trialdata": {"rt": -1000, "trial_type": "single-audio", "word": "fragrance", "stimulus": "/static/audio/wordpool/FRAGRANCE.wav", "conditions": [24, 800, "a", 12000], "internal_node_id": "0.0-98.0", "trial": 3, "time_elapsed": 675752, "serialpos": 17, "key_press": -1, "wordID": 598, "type": "PRES_AUD", "trial_index": 134}, "uniqueid": "MTK1760:34BBWHLWHBI8VP3D6VHV9UT5SFQIWQ", "dateTime": 1516296582799}, {"current_trial": 135, "trialdata": {"rt": -1000, "trial_type": "single-audio", "word": "perfume", "stimulus": "/static/audio/wordpool/PERFUME.wav", "conditions": [24, 800, "a", 12000], "internal_node_id": "0.0-99.0", "trial": 3, "time_elapsed": 677627, "serialpos": 18, "key_press": -1, "wordID": 1048, "type": "PRES_AUD", "trial_index": 135}, "uniqueid": "MTK1760:34BBWHLWHBI8VP3D6VHV9UT5SFQIWQ", "dateTime": 1516296584675}, {"current_trial": 136, "trialdata": {"rt": -1000, "trial_type": "single-audio", "word": "canyon", "stimulus": "/static/audio/wordpool/CANYON.wav", "conditions": [24, 800, "a", 12000], "internal_node_id": "0.0-100.0", "trial": 3, "time_elapsed": 679582, "serialpos": 19, "key_press": -1, "wordID": 234, "type": "PRES_AUD", "trial_index": 136}, "uniqueid": "MTK1760:34BBWHLWHBI8VP3D6VHV9UT5SFQIWQ", "dateTime": 1516296586630}, {"current_trial": 137, "trialdata": {"rt": -1000, "trial_type": "single-audio", "word": "zipper", "stimulus": "/static/audio/wordpool/ZIPPER.wav", "conditions": [24, 800, "a", 12000], "internal_node_id": "0.0-101.0", "trial": 3, "time_elapsed": 681505, "serialpos": 20, "key_press": -1, "wordID": 1635, "type": "PRES_AUD", "trial_index": 137}, "uniqueid": "MTK1760:34BBWHLWHBI8VP3D6VHV9UT5SFQIWQ", "dateTime": 1516296588552}, {"current_trial": 138, "trialdata": {"rt": -1000, "trial_type": "single-audio", "word": "japan", "stimulus": "/static/audio/wordpool/JAPAN.wav", "conditions": [24, 800, "a", 12000], "internal_node_id": "0.0-102.0", "trial": 3, "time_elapsed": 683581, "serialpos": 21, "key_press": -1, "wordID": 748, "type": "PRES_AUD", "trial_index": 138}, "uniqueid": "MTK1760:34BBWHLWHBI8VP3D6VHV9UT5SFQIWQ", "dateTime": 1516296590629}, {"current_trial": 139, "trialdata": {"rt": -1000, "trial_type": "single-audio", "word": "scalpel", "stimulus": "/static/audio/wordpool/SCALPEL.wav", "conditions": [24, 800, "a", 12000], "internal_node_id": "0.0-103.0", "trial": 3, "time_elapsed": 685803, "serialpos": 22, "key_press": -1, "wordID": 1242, "type": "PRES_AUD", "trial_index": 139}, "uniqueid": "MTK1760:34BBWHLWHBI8VP3D6VHV9UT5SFQIWQ", "dateTime": 1516296592851}, {"current_trial": 140, "trialdata": {"rt": -1000, "trial_type": "single-audio", "word": "mars", "stimulus": "/static/audio/wordpool/MARS.wav", "conditions": [24, 800, "a", 12000], "internal_node_id": "0.0-104.0", "trial": 3, "time_elapsed": 687497, "serialpos": 23, "key_press": -1, "wordID": 872, "type": "PRES_AUD", "trial_index": 140}, "uniqueid": "MTK1760:34BBWHLWHBI8VP3D6VHV9UT5SFQIWQ", "dateTime": 1516296594545}, {"current_trial": 141, "trialdata": {"rt": -1, "trial_type": "single-stim", "stimulus": "", "internal_node_id": "0.0-105.0-0.0", "time_elapsed": 688787, "key_press": -1, "type": "PRE_RECALL_DELAY", "trial_index": 141}, "uniqueid": "MTK1760:34BBWHLWHBI8VP3D6VHV9UT5SFQIWQ", "dateTime": 1516296595835}, {"current_trial": 142, "trialdata": {"rt": -1000, "trial_type": "single-audio", "stimulus": "/static/audio/400Hz.wav", "internal_node_id": "0.0-106.0", "time_elapsed": 689436, "key_press": -1, "type": "PRE_RECALL_ALERT", "trial_index": 142}, "uniqueid": "MTK1760:34BBWHLWHBI8VP3D6VHV9UT5SFQIWQ", "dateTime": 1516296596485}, {"current_trial": 143, "trialdata": {"rt": [3828, 5539, 8964, 14428, 18660, 23476, 27989, 34165, 36030, 45379, 48200, 54176, 56011], "recwords": ["mars", "venus", "scalpel", "window", "catcher", "plaza", "zipper", "lunch", "supper", "fragrance", "perfume", "denim", "zipper"], "key_times": [2855, 2961, 3090, 3386, 3828, 4480, 4562, 4770, 5059, 5249, 5539, 7035, 7295, 7581, 7634, 7886, 8035, 8524, 8964, 12910, 13017, 13175, 13457, 13511, 13671, 14428, 16984, 17098, 17756, 17791, 17978, 18064, 18156, 18660, 20715, 21036, 21517, 21565, 21844, 23476, 26999, 27154, 27212, 27428, 27550, 27668, 27989, 32995, 33240, 33506, 33792, 33793, 34165, 34858, 35004, 35194, 35396, 35537, 35625, 36030, 42737, 42928, 43072, 43368, 43849, 44130, 44159, 44300, 44401, 45379, 46531, 46616, 46718, 47273, 47459, 47782, 47910, 48200, 51624, 52244, 52543, 52652, 52794, 53501, 53872, 54176, 54971, 55133, 55270, 55443, 55555, 55627, 56011], "trial_type": "free-recall", "conditions": [24, 800, "a", 12000], "internal_node_id": "0.0-107.0-0.0", "key_presses": [77, 65, 82, 83, 13, 86, 69, 78, 85, 83, 13, 83, 67, 65, 76, 80, 69, 76, 13, 87, 73, 78, 68, 79, 87, 13, 67, 65, 84, 67, 72, 69, 82, 13, 80, 76, 65, 90, 65, 13, 90, 73, 80, 80, 69, 82, 13, 76, 85, 78, 67, 72, 13, 83, 85, 80, 80, 69, 82, 13, 70, 82, 65, 71, 82, 65, 78, 67, 69, 13, 80, 69, 82, 70, 85, 77, 69, 13, 68, 69, 78, 73, 78, 8, 77, 13, 90, 73, 80, 80, 69, 82, 13], "trial": 3, "time_elapsed": 749470, "type": "FREE_RECALL", "trial_index": 143}, "uniqueid": "MTK1760:34BBWHLWHBI8VP3D6VHV9UT5SFQIWQ", "dateTime": 1516296656526}, {"current_trial": 144, "trialdata": {"rt": 2750, "trial_type": "text", "internal_node_id": "0.0-108.0", "time_elapsed": 754241, "key_press": 32, "type": "INSTRUCTIONS", "trial_index": 144}, "uniqueid": "MTK1760:34BBWHLWHBI8VP3D6VHV9UT5SFQIWQ", "dateTime": 1516296661290}, {"current_trial": 145, "trialdata": {"rt": [2329, 4371, 8905, 10970, 13434, 15617, 19242], "trial_type": "math-distractor", "key_times": [1852, 1982, 2329, 3789, 4195, 4371, 8168, 8670, 8905, 10412, 10669, 10970, 12909, 13218, 13434, 15106, 15482, 15617, 18648, 18982, 19242, 21385, 21622, 22879, 23595], "responses": ["13", "11", "19", "15", "13", "13", "17"], "num2": [7, 4, 7, 6, 7, 6, 7, 5], "num3": [3, 2, 8, 6, 4, 4, 1, 4], "conditions": [24, 1600, "a", 24000], "internal_node_id": "0.0-109.0", "key_presses": [49, 51, 13, 49, 49, 13, 49, 57, 13, 49, 53, 13, 49, 51, 13, 49, 51, 13, 49, 55, 13, 49, 53, 8, 55], "trial": 4, "time_elapsed": 780260, "type": "DISTRACTOR", "trial_index": 145, "num1": [5, 5, 4, 3, 2, 3, 9, 8]}, "uniqueid": "MTK1760:34BBWHLWHBI8VP3D6VHV9UT5SFQIWQ", "dateTime": 1516296687308}, {"current_trial": 146, "trialdata": {"rt": -1, "trial_type": "single-stim", "stimulus": "<p id=\"stim\">10</p>", "internal_node_id": "0.0-110.0-0.0", "time_elapsed": 783422, "key_press": -1, "trial_index": 146}, "uniqueid": "MTK1760:34BBWHLWHBI8VP3D6VHV9UT5SFQIWQ", "dateTime": 1516296690470}, {"current_trial": 147, "trialdata": {"rt": -1, "trial_type": "single-stim", "stimulus": "<p id=\"stim\">9</p>", "internal_node_id": "0.0-110.0-1.0", "time_elapsed": 784539, "key_press": -1, "trial_index": 147}, "uniqueid": "MTK1760:34BBWHLWHBI8VP3D6VHV9UT5SFQIWQ", "dateTime": 1516296691590}, {"current_trial": 148, "trialdata": {"rt": -1, "trial_type": "single-stim", "stimulus": "<p id=\"stim\">8</p>", "internal_node_id": "0.0-110.0-2.0", "time_elapsed": 785548, "key_press": -1, "trial_index": 148}, "uniqueid": "MTK1760:34BBWHLWHBI8VP3D6VHV9UT5SFQIWQ", "dateTime": 1516296692596}, {"current_trial": 149, "trialdata": {"rt": -1, "trial_type": "single-stim", "stimulus": "<p id=\"stim\">7</p>", "internal_node_id": "0.0-110.0-3.0", "time_elapsed": 786554, "key_press": -1, "trial_index": 149}, "uniqueid": "MTK1760:34BBWHLWHBI8VP3D6VHV9UT5SFQIWQ", "dateTime": 1516296693602}, {"current_trial": 150, "trialdata": {"rt": -1, "trial_type": "single-stim", "stimulus": "<p id=\"stim\">6</p>", "internal_node_id": "0.0-110.0-4.0", "time_elapsed": 787700, "key_press": -1, "trial_index": 150}, "uniqueid": "MTK1760:34BBWHLWHBI8VP3D6VHV9UT5SFQIWQ", "dateTime": 1516296694747}, {"current_trial": 151, "trialdata": {"rt": -1, "trial_type": "single-stim", "stimulus": "<p id=\"stim\">5</p>", "internal_node_id": "0.0-110.0-5.0", "time_elapsed": 788791, "key_press": -1, "trial_index": 151}, "uniqueid": "MTK1760:34BBWHLWHBI8VP3D6VHV9UT5SFQIWQ", "dateTime": 1516296695839}, {"current_trial": 152, "trialdata": {"rt": -1, "trial_type": "single-stim", "stimulus": "<p id=\"stim\">4</p>", "internal_node_id": "0.0-110.0-6.0", "time_elapsed": 789806, "key_press": -1, "trial_index": 152}, "uniqueid": "MTK1760:34BBWHLWHBI8VP3D6VHV9UT5SFQIWQ", "dateTime": 1516296696853}, {"current_trial": 153, "trialdata": {"rt": -1, "trial_type": "single-stim", "stimulus": "<p id=\"stim\">3</p>", "internal_node_id": "0.0-110.0-7.0", "time_elapsed": 790821, "key_press": -1, "trial_index": 153}, "uniqueid": "MTK1760:34BBWHLWHBI8VP3D6VHV9UT5SFQIWQ", "dateTime": 1516296697868}, {"current_trial": 154, "trialdata": {"rt": -1, "trial_type": "single-stim", "stimulus": "<p id=\"stim\">2</p>", "internal_node_id": "0.0-110.0-8.0", "time_elapsed": 791862, "key_press": -1, "trial_index": 154}, "uniqueid": "MTK1760:34BBWHLWHBI8VP3D6VHV9UT5SFQIWQ", "dateTime": 1516296698909}, {"current_trial": 155, "trialdata": {"rt": -1, "trial_type": "single-stim", "stimulus": "<p id=\"stim\">1</p>", "internal_node_id": "0.0-110.0-9.0", "time_elapsed": 792979, "key_press": -1, "trial_index": 155}, "uniqueid": "MTK1760:34BBWHLWHBI8VP3D6VHV9UT5SFQIWQ", "dateTime": 1516296700027}, {"current_trial": 156, "trialdata": {"rt": -1, "trial_type": "single-stim", "stimulus": "<p id=\"stim\">+</p>", "internal_node_id": "0.0-111.0-0.0", "time_elapsed": 794484, "key_press": -1, "type": "FIXATION", "trial_index": 156}, "uniqueid": "MTK1760:34BBWHLWHBI8VP3D6VHV9UT5SFQIWQ", "dateTime": 1516296701532}, {"current_trial": 157, "trialdata": {"rt": -1000, "trial_type": "single-audio", "word": "diner", "stimulus": "/static/audio/wordpool/DINER.wav", "conditions": [24, 1600, "a", 24000], "internal_node_id": "0.0-112.0", "trial": 4, "time_elapsed": 797247, "serialpos": 0, "key_press": -1, "wordID": 466, "type": "PRES_AUD", "trial_index": 157}, "uniqueid": "MTK1760:34BBWHLWHBI8VP3D6VHV9UT5SFQIWQ", "dateTime": 1516296704294}, {"current_trial": 158, "trialdata": {"rt": -1000, "trial_type": "single-audio", "word": "softball", "stimulus": "/static/audio/wordpool/SOFTBALL.wav", "conditions": [24, 1600, "a", 24000], "internal_node_id": "0.0-113.0", "trial": 4, "time_elapsed": 799913, "serialpos": 1, "key_press": -1, "wordID": 1342, "type": "PRES_AUD", "trial_index": 158}, "uniqueid": "MTK1760:34BBWHLWHBI8VP3D6VHV9UT5SFQIWQ", "dateTime": 1516296706961}, {"current_trial": 159, "trialdata": {"rt": -1000, "trial_type": "single-audio", "word": "banquet", "stimulus": "/static/audio/wordpool/BANQUET.wav", "conditions": [24, 1600, "a", 24000], "internal_node_id": "0.0-114.0", "trial": 4, "time_elapsed": 802820, "serialpos": 2, "key_press": -1, "wordID": 85, "type": "PRES_AUD", "trial_index": 159}, "uniqueid": "MTK1760:34BBWHLWHBI8VP3D6VHV9UT5SFQIWQ", "dateTime": 1516296709867}, {"current_trial": 160, "trialdata": {"rt": -1000, "trial_type": "single-audio", "word": "robot", "stimulus": "/static/audio/wordpool/ROBOT.wav", "conditions": [24, 1600, "a", 24000], "internal_node_id": "0.0-115.0", "trial": 4, "time_elapsed": 805583, "serialpos": 3, "key_press": -1, "wordID": 1199, "type": "PRES_AUD", "trial_index": 160}, "uniqueid": "MTK1760:34BBWHLWHBI8VP3D6VHV9UT5SFQIWQ", "dateTime": 1516296712631}, {"current_trial": 161, "trialdata": {"rt": -1000, "trial_type": "single-audio", "word": "lake", "stimulus": "/static/audio/wordpool/LAKE.wav", "conditions": [24, 1600, "a", 24000], "internal_node_id": "0.0-116.0", "trial": 4, "time_elapsed": 808345, "serialpos": 4, "key_press": -1, "wordID": 795, "type": "PRES_AUD", "trial_index": 161}, "uniqueid": "MTK1760:34BBWHLWHBI8VP3D6VHV9UT5SFQIWQ", "dateTime": 1516296715392}, {"current_trial": 162, "trialdata": {"rt": -1000, "trial_type": "single-audio", "word": "lava", "stimulus": "/static/audio/wordpool/LAVA.wav", "conditions": [24, 1600, "a", 24000], "internal_node_id": "0.0-117.0", "trial": 4, "time_elapsed": 811010, "serialpos": 5, "key_press": -1, "wordID": 803, "type": "PRES_AUD", "trial_index": 162}, "uniqueid": "MTK1760:34BBWHLWHBI8VP3D6VHV9UT5SFQIWQ", "dateTime": 1516296718057}, {"current_trial": 163, "trialdata": {"rt": -1000, "trial_type": "single-audio", "word": "pork", "stimulus": "/static/audio/wordpool/PORK.wav", "conditions": [24, 1600, "a", 24000], "internal_node_id": "0.0-118.0", "trial": 4, "time_elapsed": 813770, "serialpos": 6, "key_press": -1, "wordID": 1107, "type": "PRES_AUD", "trial_index": 163}, "uniqueid": "MTK1760:34BBWHLWHBI8VP3D6VHV9UT5SFQIWQ", "dateTime": 1516296720817}, {"current_trial": 164, "trialdata": {"rt": -1000, "trial_type": "single-audio", "word": "hornet", "stimulus": "/static/audio/wordpool/HORNET.wav", "conditions": [24, 1600, "a", 24000], "internal_node_id": "0.0-119.0", "trial": 4, "time_elapsed": 816530, "serialpos": 7, "key_press": -1, "wordID": 717, "type": "PRES_AUD", "trial_index": 164}, "uniqueid": "MTK1760:34BBWHLWHBI8VP3D6VHV9UT5SFQIWQ", "dateTime": 1516296723578}, {"current_trial": 165, "trialdata": {"rt": -1000, "trial_type": "single-audio", "word": "survey", "stimulus": "/static/audio/wordpool/SURVEY.wav", "conditions": [24, 1600, "a", 24000], "internal_node_id": "0.0-120.0", "trial": 4, "time_elapsed": 819166, "serialpos": 8, "key_press": -1, "wordID": 1413, "type": "PRES_AUD", "trial_index": 165}, "uniqueid": "MTK1760:34BBWHLWHBI8VP3D6VHV9UT5SFQIWQ", "dateTime": 1516296726213}, {"current_trial": 166, "trialdata": {"rt": -1000, "trial_type": "single-audio", "word": "report", "stimulus": "/static/audio/wordpool/REPORT.wav", "conditions": [24, 1600, "a", 24000], "internal_node_id": "0.0-121.0", "trial": 4, "time_elapsed": 821731, "serialpos": 9, "key_press": -1, "wordID": 1183, "type": "PRES_AUD", "trial_index": 166}, "uniqueid": "MTK1760:34BBWHLWHBI8VP3D6VHV9UT5SFQIWQ", "dateTime": 1516296728778}, {"current_trial": 167, "trialdata": {"rt": -1000, "trial_type": "single-audio", "word": "turtle", "stimulus": "/static/audio/wordpool/TURTLE.wav", "conditions": [24, 1600, "a", 24000], "internal_node_id": "0.0-122.0", "trial": 4, "time_elapsed": 824822, "serialpos": 10, "key_press": -1, "wordID": 1521, "type": "PRES_AUD", "trial_index": 167}, "uniqueid": "MTK1760:34BBWHLWHBI8VP3D6VHV9UT5SFQIWQ", "dateTime": 1516296731870}, {"current_trial": 168, "trialdata": {"rt": -1000, "trial_type": "single-audio", "word": "beef", "stimulus": "/static/audio/wordpool/BEEF.wav", "conditions": [24, 1600, "a", 24000], "internal_node_id": "0.0-123.0", "trial": 4, "time_elapsed": 827621, "serialpos": 11, "key_press": -1, "wordID": 112, "type": "PRES_AUD", "trial_index": 168}, "uniqueid": "MTK1760:34BBWHLWHBI8VP3D6VHV9UT5SFQIWQ", "dateTime": 1516296734668}, {"current_trial": 169, "trialdata": {"rt": -1000, "trial_type": "single-audio", "word": "parsley", "stimulus": "/static/audio/wordpool/PARSLEY.wav", "conditions": [24, 1600, "a", 24000], "internal_node_id": "0.0-124.0", "trial": 4, "time_elapsed": 830042, "serialpos": 12, "key_press": -1, "wordID": 1015, "type": "PRES_AUD", "trial_index": 169}, "uniqueid": "MTK1760:34BBWHLWHBI8VP3D6VHV9UT5SFQIWQ", "dateTime": 1516296737089}, {"current_trial": 170, "trialdata": {"rt": -1000, "trial_type": "single-audio", "word": "cod", "stimulus": "/static/audio/wordpool/COD.wav", "conditions": [24, 1600, "a", 24000], "internal_node_id": "0.0-125.0", "trial": 4, "time_elapsed": 832578, "serialpos": 13, "key_press": -1, "wordID": 339, "type": "PRES_AUD", "trial_index": 170}, "uniqueid": "MTK1760:34BBWHLWHBI8VP3D6VHV9UT5SFQIWQ", "dateTime": 1516296739626}, {"current_trial": 171, "trialdata": {"rt": -1000, "trial_type": "single-audio", "word": "mop", "stimulus": "/static/audio/wordpool/MOP.wav", "conditions": [24, 1600, "a", 24000], "internal_node_id": "0.0-126.0", "trial": 4, "time_elapsed": 835174, "serialpos": 14, "key_press": -1, "wordID": 915, "type": "PRES_AUD", "trial_index": 171}, "uniqueid": "MTK1760:34BBWHLWHBI8VP3D6VHV9UT5SFQIWQ", "dateTime": 1516296742222}, {"current_trial": 172, "trialdata": {"rt": -1000, "trial_type": "single-audio", "word": "record", "stimulus": "/static/audio/wordpool/RECORD.wav", "conditions": [24, 1600, "a", 24000], "internal_node_id": "0.0-127.0", "trial": 4, "time_elapsed": 837930, "serialpos": 15, "key_press": -1, "wordID": 1175, "type": "PRES_AUD", "trial_index": 172}, "uniqueid": "MTK1760:34BBWHLWHBI8VP3D6VHV9UT5SFQIWQ", "dateTime": 1516296744977}, {"current_trial": 173, "trialdata": {"rt": -1000, "trial_type": "single-audio", "word": "lagoon", "stimulus": "/static/audio/wordpool/LAGOON.wav", "conditions": [24, 1600, "a", 24000], "internal_node_id": "0.0-128.0", "trial": 4, "time_elapsed": 840591, "serialpos": 16, "key_press": -1, "wordID": 794, "type": "PRES_AUD", "trial_index": 173}, "uniqueid": "MTK1760:34BBWHLWHBI8VP3D6VHV9UT5SFQIWQ", "dateTime": 1516296747639}, {"current_trial": 174, "trialdata": {"rt": -1000, "trial_type": "single-audio", "word": "marsh", "stimulus": "/static/audio/wordpool/MARSH.wav", "conditions": [24, 1600, "a", 24000], "internal_node_id": "0.0-129.0", "trial": 4, "time_elapsed": 843209, "serialpos": 17, "key_press": -1, "wordID": 873, "type": "PRES_AUD", "trial_index": 174}, "uniqueid": "MTK1760:34BBWHLWHBI8VP3D6VHV9UT5SFQIWQ", "dateTime": 1516296750256}, {"current_trial": 175, "trialdata": {"rt": -1000, "trial_type": "single-audio", "word": "tourist", "stimulus": "/static/audio/wordpool/TOURIST.wav", "conditions": [24, 1600, "a", 24000], "internal_node_id": "0.0-130.0", "trial": 4, "time_elapsed": 845933, "serialpos": 18, "key_press": -1, "wordID": 1487, "type": "PRES_AUD", "trial_index": 175}, "uniqueid": "MTK1760:34BBWHLWHBI8VP3D6VHV9UT5SFQIWQ", "dateTime": 1516296752981}, {"current_trial": 176, "trialdata": {"rt": -1000, "trial_type": "single-audio", "word": "liver", "stimulus": "/static/audio/wordpool/LIVER.wav", "conditions": [24, 1600, "a", 24000], "internal_node_id": "0.0-131.0", "trial": 4, "time_elapsed": 848494, "serialpos": 19, "key_press": -1, "wordID": 832, "type": "PRES_AUD", "trial_index": 176}, "uniqueid": "MTK1760:34BBWHLWHBI8VP3D6VHV9UT5SFQIWQ", "dateTime": 1516296755543}, {"current_trial": 177, "trialdata": {"rt": -1000, "trial_type": "single-audio", "word": "crab", "stimulus": "/static/audio/wordpool/CRAB.wav", "conditions": [24, 1600, "a", 24000], "internal_node_id": "0.0-132.0", "trial": 4, "time_elapsed": 851464, "serialpos": 20, "key_press": -1, "wordID": 396, "type": "PRES_AUD", "trial_index": 177}, "uniqueid": "MTK1760:34BBWHLWHBI8VP3D6VHV9UT5SFQIWQ", "dateTime": 1516296758512}, {"current_trial": 178, "trialdata": {"rt": -1000, "trial_type": "single-audio", "word": "europe", "stimulus": "/static/audio/wordpool/EUROPE.wav", "conditions": [24, 1600, "a", 24000], "internal_node_id": "0.0-133.0", "trial": 4, "time_elapsed": 854240, "serialpos": 21, "key_press": -1, "wordID": 540, "type": "PRES_AUD", "trial_index": 178}, "uniqueid": "MTK1760:34BBWHLWHBI8VP3D6VHV9UT5SFQIWQ", "dateTime": 1516296761289}, {"current_trial": 179, "trialdata": {"rt": -1000, "trial_type": "single-audio", "word": "country", "stimulus": "/static/audio/wordpool/COUNTRY.wav", "conditions": [24, 1600, "a", 24000], "internal_node_id": "0.0-134.0", "trial": 4, "time_elapsed": 856661, "serialpos": 22, "key_press": -1, "wordID": 387, "type": "PRES_AUD", "trial_index": 179}, "uniqueid": "MTK1760:34BBWHLWHBI8VP3D6VHV9UT5SFQIWQ", "dateTime": 1516296763709}, {"current_trial": 180, "trialdata": {"rt": -1000, "trial_type": "single-audio", "word": "kidney", "stimulus": "/static/audio/wordpool/KIDNEY.wav", "conditions": [24, 1600, "a", 24000], "internal_node_id": "0.0-135.0", "trial": 4, "time_elapsed": 859461, "serialpos": 23, "key_press": -1, "wordID": 775, "type": "PRES_AUD", "trial_index": 180}, "uniqueid": "MTK1760:34BBWHLWHBI8VP3D6VHV9UT5SFQIWQ", "dateTime": 1516296766508}, {"current_trial": 181, "trialdata": {"rt": -1, "trial_type": "single-stim", "stimulus": "", "internal_node_id": "0.0-136.0-0.0", "time_elapsed": 860783, "key_press": -1, "type": "PRE_RECALL_DELAY", "trial_index": 181}, "uniqueid": "MTK1760:34BBWHLWHBI8VP3D6VHV9UT5SFQIWQ", "dateTime": 1516296767830}, {"current_trial": 182, "trialdata": {"rt": -1000, "trial_type": "single-audio", "stimulus": "/static/audio/400Hz.wav", "internal_node_id": "0.0-137.0", "time_elapsed": 861393, "key_press": -1, "type": "PRE_RECALL_ALERT", "trial_index": 182}, "uniqueid": "MTK1760:34BBWHLWHBI8VP3D6VHV9UT5SFQIWQ", "dateTime": 1516296768440}, {"current_trial": 183, "trialdata": {"rt": [3395, 5817, 8052, 9588, 11211, 19399, 22642, 27397, 28851, 36275, 39230, 47704, 57487], "recwords": ["europe", "country", "kidney", "liver", "cod", "crab", "monk", "survey", "report", "lake", "lagoon", "turtle", "lava"], "key_times": [1460, 1907, 2097, 2285, 2442, 2731, 3395, 4021, 4127, 4277, 4525, 4640, 5005, 5386, 5817, 6799, 7031, 7149, 7330, 7453, 7656, 8052, 8600, 8768, 8914, 9195, 9229, 9588, 10243, 10429, 10708, 11211, 18309, 18520, 18692, 18962, 19399, 21864, 21914, 22116, 22256, 22642, 26203, 26363, 26525, 26760, 27050, 27051, 27397, 27710, 27900, 28154, 28461, 28564, 28651, 28851, 34781, 35249, 35417, 35418, 36275, 38056, 38183, 38503, 38547, 38751, 38862, 39230, 46027, 46316, 46441, 47113, 47211, 47413, 47704, 54336, 54722, 55894, 56129, 57487], "trial_type": "free-recall", "conditions": [24, 1600, "a", 24000], "internal_node_id": "0.0-138.0-0.0", "key_presses": [69, 85, 82, 79, 80, 69, 13, 67, 79, 85, 78, 84, 82, 89, 13, 75, 73, 68, 78, 69, 89, 13, 76, 73, 86, 69, 82, 13, 67, 79, 68, 13, 67, 82, 65, 66, 13, 77, 79, 78, 75, 13, 83, 85, 82, 86, 69, 89, 13, 82, 69, 80, 79, 82, 84, 13, 76, 65, 75, 69, 13, 76, 65, 71, 79, 79, 78, 13, 84, 85, 82, 84, 76, 69, 13, 76, 65, 86, 65, 13], "trial": 4, "time_elapsed": 921417, "type": "FREE_RECALL", "trial_index": 183}, "uniqueid": "MTK1760:34BBWHLWHBI8VP3D6VHV9UT5SFQIWQ", "dateTime": 1516296828474}, {"current_trial": 184, "trialdata": {"rt": 4419, "trial_type": "text", "internal_node_id": "0.0-139.0", "time_elapsed": 927852, "key_press": 32, "type": "INSTRUCTIONS", "trial_index": 184}, "uniqueid": "MTK1760:34BBWHLWHBI8VP3D6VHV9UT5SFQIWQ", "dateTime": 1516296834901}, {"current_trial": 185, "trialdata": {"rt": [4518, 7135, 12134], "trial_type": "math-distractor", "key_times": [3510, 3853, 4518, 6610, 6858, 7135, 11341, 11631, 12134], "responses": ["25", "15", "20"], "num2": [9, 8, 6, 2], "num3": [8, 2, 7, 5], "conditions": [12, 800, "a", 12000], "internal_node_id": "0.0-140.0", "key_presses": [50, 53, 13, 49, 53, 13, 50, 48, 13], "trial": 5, "time_elapsed": 942051, "type": "DISTRACTOR", "trial_index": 185, "num1": [8, 5, 8, 2]}, "uniqueid": "MTK1760:34BBWHLWHBI8VP3D6VHV9UT5SFQIWQ", "dateTime": 1516296849099}, {"current_trial": 186, "trialdata": {"rt": -1, "trial_type": "single-stim", "stimulus": "<p id=\"stim\">10</p>", "internal_node_id": "0.0-141.0-0.0", "time_elapsed": 945074, "key_press": -1, "trial_index": 186}, "uniqueid": "MTK1760:34BBWHLWHBI8VP3D6VHV9UT5SFQIWQ", "dateTime": 1516296852123}, {"current_trial": 187, "trialdata": {"rt": -1, "trial_type": "single-stim", "stimulus": "<p id=\"stim\">9</p>", "internal_node_id": "0.0-141.0-1.0", "time_elapsed": 946082, "key_press": -1, "trial_index": 187}, "uniqueid": "MTK1760:34BBWHLWHBI8VP3D6VHV9UT5SFQIWQ", "dateTime": 1516296853130}, {"current_trial": 188, "trialdata": {"rt": -1, "trial_type": "single-stim", "stimulus": "<p id=\"stim\">8</p>", "internal_node_id": "0.0-141.0-2.0", "time_elapsed": 947141, "key_press": -1, "trial_index": 188}, "uniqueid": "MTK1760:34BBWHLWHBI8VP3D6VHV9UT5SFQIWQ", "dateTime": 1516296854190}, {"current_trial": 189, "trialdata": {"rt": -1, "trial_type": "single-stim", "stimulus": "<p id=\"stim\">7</p>", "internal_node_id": "0.0-141.0-3.0", "time_elapsed": 948240, "key_press": -1, "trial_index": 189}, "uniqueid": "MTK1760:34BBWHLWHBI8VP3D6VHV9UT5SFQIWQ", "dateTime": 1516296855287}, {"current_trial": 190, "trialdata": {"rt": -1, "trial_type": "single-stim", "stimulus": "<p id=\"stim\">6</p>", "internal_node_id": "0.0-141.0-4.0", "time_elapsed": 949399, "key_press": -1, "trial_index": 190}, "uniqueid": "MTK1760:34BBWHLWHBI8VP3D6VHV9UT5SFQIWQ", "dateTime": 1516296856446}, {"current_trial": 191, "trialdata": {"rt": -1, "trial_type": "single-stim", "stimulus": "<p id=\"stim\">5</p>", "internal_node_id": "0.0-141.0-5.0", "time_elapsed": 950459, "key_press": -1, "trial_index": 191}, "uniqueid": "MTK1760:34BBWHLWHBI8VP3D6VHV9UT5SFQIWQ", "dateTime": 1516296857507}, {"current_trial": 192, "trialdata": {"rt": -1, "trial_type": "single-stim", "stimulus": "<p id=\"stim\">4</p>", "internal_node_id": "0.0-141.0-6.0", "time_elapsed": 951630, "key_press": -1, "trial_index": 192}, "uniqueid": "MTK1760:34BBWHLWHBI8VP3D6VHV9UT5SFQIWQ", "dateTime": 1516296858678}, {"current_trial": 193, "trialdata": {"rt": -1, "trial_type": "single-stim", "stimulus": "<p id=\"stim\">3</p>", "internal_node_id": "0.0-141.0-7.0", "time_elapsed": 952742, "key_press": -1, "trial_index": 193}, "uniqueid": "MTK1760:34BBWHLWHBI8VP3D6VHV9UT5SFQIWQ", "dateTime": 1516296859789}, {"current_trial": 194, "trialdata": {"rt": -1, "trial_type": "single-stim", "stimulus": "<p id=\"stim\">2</p>", "internal_node_id": "0.0-141.0-8.0", "time_elapsed": 953847, "key_press": -1, "trial_index": 194}, "uniqueid": "MTK1760:34BBWHLWHBI8VP3D6VHV9UT5SFQIWQ", "dateTime": 1516296860894}, {"current_trial": 195, "trialdata": {"rt": -1, "trial_type": "single-stim", "stimulus": "<p id=\"stim\">1</p>", "internal_node_id": "0.0-141.0-9.0", "time_elapsed": 954988, "key_press": -1, "trial_index": 195}, "uniqueid": "MTK1760:34BBWHLWHBI8VP3D6VHV9UT5SFQIWQ", "dateTime": 1516296862037}, {"current_trial": 196, "trialdata": {"rt": -1, "trial_type": "single-stim", "stimulus": "<p id=\"stim\">+</p>", "internal_node_id": "0.0-142.0-0.0", "time_elapsed": 956506, "key_press": -1, "type": "FIXATION", "trial_index": 196}, "uniqueid": "MTK1760:34BBWHLWHBI8VP3D6VHV9UT5SFQIWQ", "dateTime": 1516296863553}, {"current_trial": 197, "trialdata": {"rt": -1000, "trial_type": "single-audio", "word": "bathtub", "stimulus": "/static/audio/wordpool/BATHTUB.wav", "conditions": [12, 800, "a", 12000], "internal_node_id": "0.0-143.0", "trial": 5, "time_elapsed": 958375, "serialpos": 0, "key_press": -1, "wordID": 99, "type": "PRES_AUD", "trial_index": 197}, "uniqueid": "MTK1760:34BBWHLWHBI8VP3D6VHV9UT5SFQIWQ", "dateTime": 1516296865422}, {"current_trial": 198, "trialdata": {"rt": -1000, "trial_type": "single-audio", "word": "suitcase", "stimulus": "/static/audio/wordpool/SUITCASE.wav", "conditions": [12, 800, "a", 12000], "internal_node_id": "0.0-144.0", "trial": 5, "time_elapsed": 960122, "serialpos": 1, "key_press": -1, "wordID": 1402, "type": "PRES_AUD", "trial_index": 198}, "uniqueid": "MTK1760:34BBWHLWHBI8VP3D6VHV9UT5SFQIWQ", "dateTime": 1516296867169}, {"current_trial": 199, "trialdata": {"rt": -1000, "trial_type": "single-audio", "word": "yarn", "stimulus": "/static/audio/wordpool/YARN.wav", "conditions": [12, 800, "a", 12000], "internal_node_id": "0.0-145.0", "trial": 5, "time_elapsed": 962023, "serialpos": 2, "key_press": -1, "wordID": 1630, "type": "PRES_AUD", "trial_index": 199}, "uniqueid": "MTK1760:34BBWHLWHBI8VP3D6VHV9UT5SFQIWQ", "dateTime": 1516296869071}, {"current_trial": 200, "trialdata": {"rt": -1000, "trial_type": "single-audio", "word": "trench", "stimulus": "/static/audio/wordpool/TRENCH.wav", "conditions": [12, 800, "a", 12000], "internal_node_id": "0.0-146.0", "trial": 5, "time_elapsed": 963889, "serialpos": 3, "key_press": -1, "wordID": 1502, "type": "PRES_AUD", "trial_index": 200}, "uniqueid": "MTK1760:34BBWHLWHBI8VP3D6VHV9UT5SFQIWQ", "dateTime": 1516296870936}, {"current_trial": 201, "trialdata": {"rt": -1000, "trial_type": "single-audio", "word": "briefcase", "stimulus": "/static/audio/wordpool/BRIEFCASE.wav", "conditions": [12, 800, "a", 12000], "internal_node_id": "0.0-147.0", "trial": 5, "time_elapsed": 965846, "serialpos": 4, "key_press": -1, "wordID": 174, "type": "PRES_AUD", "trial_index": 201}, "uniqueid": "MTK1760:34BBWHLWHBI8VP3D6VHV9UT5SFQIWQ", "dateTime": 1516296872894}, {"current_trial": 202, "trialdata": {"rt": -1000, "trial_type": "single-audio", "word": "bank", "stimulus": "/static/audio/wordpool/BANK.wav", "conditions": [12, 800, "a", 12000], "internal_node_id": "0.0-148.0", "trial": 5, "time_elapsed": 967561, "serialpos": 5, "key_press": -1, "wordID": 82, "type": "PRES_AUD", "trial_index": 202}, "uniqueid": "MTK1760:34BBWHLWHBI8VP3D6VHV9UT5SFQIWQ", "dateTime": 1516296874609}, {"current_trial": 203, "trialdata": {"rt": -1000, "trial_type": "single-audio", "word": "banker", "stimulus": "/static/audio/wordpool/BANKER.wav", "conditions": [12, 800, "a", 12000], "internal_node_id": "0.0-149.0", "trial": 5, "time_elapsed": 969477, "serialpos": 6, "key_press": -1, "wordID": 83, "type": "PRES_AUD", "trial_index": 203}, "uniqueid": "MTK1760:34BBWHLWHBI8VP3D6VHV9UT5SFQIWQ", "dateTime": 1516296876524}, {"current_trial": 204, "trialdata": {"rt": -1000, "trial_type": "single-audio", "word": "flask", "stimulus": "/static/audio/wordpool/FLASK.wav", "conditions": [12, 800, "a", 12000], "internal_node_id": "0.0-150.0", "trial": 5, "time_elapsed": 971261, "serialpos": 7, "key_press": -1, "wordID": 575, "type": "PRES_AUD", "trial_index": 204}, "uniqueid": "MTK1760:34BBWHLWHBI8VP3D6VHV9UT5SFQIWQ", "dateTime": 1516296878308}, {"current_trial": 205, "trialdata": {"rt": -1000, "trial_type": "single-audio", "word": "pilot", "stimulus": "/static/audio/wordpool/PILOT.wav", "conditions": [12, 800, "a", 12000], "internal_node_id": "0.0-151.0", "trial": 5, "time_elapsed": 972906, "serialpos": 8, "key_press": -1, "wordID": 1069, "type": "PRES_AUD", "trial_index": 205}, "uniqueid": "MTK1760:34BBWHLWHBI8VP3D6VHV9UT5SFQIWQ", "dateTime": 1516296879953}, {"current_trial": 206, "trialdata": {"rt": -1000, "trial_type": "single-audio", "word": "contract", "stimulus": "/static/audio/wordpool/CONTRACT.wav", "conditions": [12, 800, "a", 12000], "internal_node_id": "0.0-152.0", "trial": 5, "time_elapsed": 974582, "serialpos": 9, "key_press": -1, "wordID": 367, "type": "PRES_AUD", "trial_index": 206}, "uniqueid": "MTK1760:34BBWHLWHBI8VP3D6VHV9UT5SFQIWQ", "dateTime": 1516296881630}, {"current_trial": 207, "trialdata": {"rt": -1000, "trial_type": "single-audio", "word": "ozone", "stimulus": "/static/audio/wordpool/OZONE.wav", "conditions": [12, 800, "a", 12000], "internal_node_id": "0.0-153.0", "trial": 5, "time_elapsed": 976583, "serialpos": 10, "key_press": -1, "wordID": 995, "type": "PRES_AUD", "trial_index": 207}, "uniqueid": "MTK1760:34BBWHLWHBI8VP3D6VHV9UT5SFQIWQ", "dateTime": 1516296883630}, {"current_trial": 208, "trialdata": {"rt": -1000, "trial_type": "single-audio", "word": "twister", "stimulus": "/static/audio/wordpool/TWISTER.wav", "conditions": [12, 800, "a", 12000], "internal_node_id": "0.0-154.0", "trial": 5, "time_elapsed": 978412, "serialpos": 11, "key_press": -1, "wordID": 1529, "type": "PRES_AUD", "trial_index": 208}, "uniqueid": "MTK1760:34BBWHLWHBI8VP3D6VHV9UT5SFQIWQ", "dateTime": 1516296885459}, {"current_trial": 209, "trialdata": {"rt": -1, "trial_type": "single-stim", "stimulus": "", "internal_node_id": "0.0-155.0-0.0", "time_elapsed": 979765, "key_press": -1, "type": "PRE_RECALL_DELAY", "trial_index": 209}, "uniqueid": "MTK1760:34BBWHLWHBI8VP3D6VHV9UT5SFQIWQ", "dateTime": 1516296886813}, {"current_trial": 210, "trialdata": {"rt": -1000, "trial_type": "single-audio", "stimulus": "/static/audio/400Hz.wav", "internal_node_id": "0.0-156.0", "time_elapsed": 980337, "key_press": -1, "type": "PRE_RECALL_ALERT", "trial_index": 210}, "uniqueid": "MTK1760:34BBWHLWHBI8VP3D6VHV9UT5SFQIWQ", "dateTime": 1516296887385}, {"current_trial": 211, "trialdata": {"rt": [5518, 9686, 12865, 16153, 20245, 22968, 24447, 32684, 38661, 48484, 54959], "recwords": ["pilot", "ozone", "twister", "suitcase", "breifcase", "bank", "banker", "bathtub", "pilot", "yarn", "contract"], "key_times": [2956, 3904, 4308, 4611, 4818, 5096, 5154, 5518, 8351, 8708, 8865, 9006, 9220, 9686, 11334, 11504, 11758, 11912, 12103, 12236, 12428, 12865, 14709, 14712, 14733, 15023, 15338, 15467, 15684, 15882, 16153, 16608, 16899, 17759, 17900, 18116, 18814, 18937, 19151, 19251, 20245, 22169, 22275, 22377, 22464, 22968, 23391, 23503, 23652, 23736, 24052, 24076, 24447, 29453, 29672, 29883, 30004, 30843, 30911, 31187, 32684, 37386, 37757, 37988, 38332, 38391, 38661, 46945, 47195, 47259, 47480, 48484, 53511, 53650, 53738, 53770, 54073, 54169, 54431, 54654, 54959], "trial_type": "free-recall", "conditions": [12, 800, "a", 12000], "internal_node_id": "0.0-157.0-0.0", "key_presses": [84, 8, 80, 73, 76, 79, 84, 13, 79, 90, 79, 78, 69, 13, 84, 87, 73, 83, 84, 69, 82, 13, 83, 85, 73, 84, 67, 65, 83, 69, 13, 66, 82, 69, 73, 70, 67, 65, 83, 69, 13, 66, 65, 78, 75, 13, 66, 65, 78, 75, 69, 82, 13, 66, 65, 84, 72, 84, 85, 66, 13, 80, 73, 76, 79, 84, 13, 89, 65, 82, 78, 13, 67, 79, 78, 84, 82, 65, 67, 84, 13], "trial": 5, "time_elapsed": 1040352, "type": "FREE_RECALL", "trial_index": 211}, "uniqueid": "MTK1760:34BBWHLWHBI8VP3D6VHV9UT5SFQIWQ", "dateTime": 1516296947410}, {"current_trial": 212, "trialdata": {"rt": 1187, "trial_type": "text", "internal_node_id": "0.0-158.0", "time_elapsed": 1043553, "key_press": 32, "type": "INSTRUCTIONS", "trial_index": 212}, "uniqueid": "MTK1760:34BBWHLWHBI8VP3D6VHV9UT5SFQIWQ", "dateTime": 1516296950602}, {"current_trial": 213, "trialdata": {"rt": [2279, 4579, 6346, 8939, 12009, 16069, 18687, 20700, 23150], "trial_type": "math-distractor", "key_times": [1788, 1938, 2279, 3835, 4151, 4579, 5836, 6048, 6346, 8109, 8388, 8939, 11560, 11741, 12009, 15676, 15989, 16069, 17718, 18394, 18687, 20269, 20398, 20700, 22518, 22844, 23150], "responses": ["15", "14", "14", "13", "23", "22", "18", "14", "15"], "num2": [7, 3, 6, 1, 7, 5, 4, 4, 4, 7], "num3": [6, 4, 2, 9, 7, 8, 7, 4, 6, 4], "conditions": [12, 800, "a", 24000], "internal_node_id": "0.0-159.0", "key_presses": [49, 53, 13, 49, 52, 13, 49, 52, 13, 49, 51, 13, 50, 51, 13, 50, 50, 13, 49, 56, 13, 49, 52, 13, 49, 53, 13], "trial": 6, "time_elapsed": 1069762, "type": "DISTRACTOR", "trial_index": 213, "num1": [2, 7, 6, 3, 9, 9, 7, 6, 5, 7]}, "uniqueid": "MTK1760:34BBWHLWHBI8VP3D6VHV9UT5SFQIWQ", "dateTime": 1516296976811}, {"current_trial": 214, "trialdata": {"rt": -1, "trial_type": "single-stim", "stimulus": "<p id=\"stim\">10</p>", "internal_node_id": "0.0-160.0-0.0", "time_elapsed": 1072791, "key_press": -1, "trial_index": 214}, "uniqueid": "MTK1760:34BBWHLWHBI8VP3D6VHV9UT5SFQIWQ", "dateTime": 1516296979839}, {"current_trial": 215, "trialdata": {"rt": -1, "trial_type": "single-stim", "stimulus": "<p id=\"stim\">9</p>", "internal_node_id": "0.0-160.0-1.0", "time_elapsed": 1073875, "key_press": -1, "trial_index": 215}, "uniqueid": "MTK1760:34BBWHLWHBI8VP3D6VHV9UT5SFQIWQ", "dateTime": 1516296980923}, {"current_trial": 216, "trialdata": {"rt": -1, "trial_type": "single-stim", "stimulus": "<p id=\"stim\">8</p>", "internal_node_id": "0.0-160.0-2.0", "time_elapsed": 1074951, "key_press": -1, "trial_index": 216}, "uniqueid": "MTK1760:34BBWHLWHBI8VP3D6VHV9UT5SFQIWQ", "dateTime": 1516296981999}, {"current_trial": 217, "trialdata": {"rt": -1, "trial_type": "single-stim", "stimulus": "<p id=\"stim\">7</p>", "internal_node_id": "0.0-160.0-3.0", "time_elapsed": 1076112, "key_press": -1, "trial_index": 217}, "uniqueid": "MTK1760:34BBWHLWHBI8VP3D6VHV9UT5SFQIWQ", "dateTime": 1516296983160}, {"current_trial": 218, "trialdata": {"rt": -1, "trial_type": "single-stim", "stimulus": "<p id=\"stim\">6</p>", "internal_node_id": "0.0-160.0-4.0", "time_elapsed": 1077282, "key_press": -1, "trial_index": 218}, "uniqueid": "MTK1760:34BBWHLWHBI8VP3D6VHV9UT5SFQIWQ", "dateTime": 1516296984335}, {"current_trial": 219, "trialdata": {"rt": -1, "trial_type": "single-stim", "stimulus": "<p id=\"stim\">5</p>", "internal_node_id": "0.0-160.0-5.0", "time_elapsed": 1078414, "key_press": -1, "trial_index": 219}, "uniqueid": "MTK1760:34BBWHLWHBI8VP3D6VHV9UT5SFQIWQ", "dateTime": 1516296985462}, {"current_trial": 220, "trialdata": {"rt": -1, "trial_type": "single-stim", "stimulus": "<p id=\"stim\">4</p>", "internal_node_id": "0.0-160.0-6.0", "time_elapsed": 1079620, "key_press": -1, "trial_index": 220}, "uniqueid": "MTK1760:34BBWHLWHBI8VP3D6VHV9UT5SFQIWQ", "dateTime": 1516296986669}, {"current_trial": 221, "trialdata": {"rt": -1, "trial_type": "single-stim", "stimulus": "<p id=\"stim\">3</p>", "internal_node_id": "0.0-160.0-7.0", "time_elapsed": 1080657, "key_press": -1, "trial_index": 221}, "uniqueid": "MTK1760:34BBWHLWHBI8VP3D6VHV9UT5SFQIWQ", "dateTime": 1516296987706}, {"current_trial": 222, "trialdata": {"rt": -1, "trial_type": "single-stim", "stimulus": "<p id=\"stim\">2</p>", "internal_node_id": "0.0-160.0-8.0", "time_elapsed": 1081689, "key_press": -1, "trial_index": 222}, "uniqueid": "MTK1760:34BBWHLWHBI8VP3D6VHV9UT5SFQIWQ", "dateTime": 1516296988737}, {"current_trial": 223, "trialdata": {"rt": -1, "trial_type": "single-stim", "stimulus": "<p id=\"stim\">1</p>", "internal_node_id": "0.0-160.0-9.0", "time_elapsed": 1082692, "key_press": -1, "trial_index": 223}, "uniqueid": "MTK1760:34BBWHLWHBI8VP3D6VHV9UT5SFQIWQ", "dateTime": 1516296989740}, {"current_trial": 224, "trialdata": {"rt": -1, "trial_type": "single-stim", "stimulus": "<p id=\"stim\">+</p>", "internal_node_id": "0.0-161.0-0.0", "time_elapsed": 1084196, "key_press": -1, "type": "FIXATION", "trial_index": 224}, "uniqueid": "MTK1760:34BBWHLWHBI8VP3D6VHV9UT5SFQIWQ", "dateTime": 1516296991243}, {"current_trial": 225, "trialdata": {"rt": -1000, "trial_type": "single-audio", "word": "blouse", "stimulus": "/static/audio/wordpool/BLOUSE.wav", "conditions": [12, 800, "a", 24000], "internal_node_id": "0.0-162.0", "trial": 6, "time_elapsed": 1085917, "serialpos": 0, "key_press": -1, "wordID": 138, "type": "PRES_AUD", "trial_index": 225}, "uniqueid": "MTK1760:34BBWHLWHBI8VP3D6VHV9UT5SFQIWQ", "dateTime": 1516296992965}, {"current_trial": 226, "trialdata": {"rt": -1000, "trial_type": "single-audio", "word": "rod", "stimulus": "/static/audio/wordpool/ROD.wav", "conditions": [12, 800, "a", 24000], "internal_node_id": "0.0-163.0", "trial": 6, "time_elapsed": 1087883, "serialpos": 1, "key_press": -1, "wordID": 1202, "type": "PRES_AUD", "trial_index": 226}, "uniqueid": "MTK1760:34BBWHLWHBI8VP3D6VHV9UT5SFQIWQ", "dateTime": 1516296994931}, {"current_trial": 227, "trialdata": {"rt": -1000, "trial_type": "single-audio", "word": "servant", "stimulus": "/static/audio/wordpool/SERVANT.wav", "conditions": [12, 800, "a", 24000], "internal_node_id": "0.0-164.0", "trial": 6, "time_elapsed": 1089763, "serialpos": 2, "key_press": -1, "wordID": 1270, "type": "PRES_AUD", "trial_index": 227}, "uniqueid": "MTK1760:34BBWHLWHBI8VP3D6VHV9UT5SFQIWQ", "dateTime": 1516296996811}, {"current_trial": 228, "trialdata": {"rt": -1000, "trial_type": "single-audio", "word": "dorm", "stimulus": "/static/audio/wordpool/DORM.wav", "conditions": [12, 800, "a", 24000], "internal_node_id": "0.0-165.0", "trial": 6, "time_elapsed": 1091423, "serialpos": 3, "key_press": -1, "wordID": 487, "type": "PRES_AUD", "trial_index": 228}, "uniqueid": "MTK1760:34BBWHLWHBI8VP3D6VHV9UT5SFQIWQ", "dateTime": 1516296998470}, {"current_trial": 229, "trialdata": {"rt": -1000, "trial_type": "single-audio", "word": "college", "stimulus": "/static/audio/wordpool/COLLEGE.wav", "conditions": [12, 800, "a", 24000], "internal_node_id": "0.0-166.0", "trial": 6, "time_elapsed": 1093354, "serialpos": 4, "key_press": -1, "wordID": 345, "type": "PRES_AUD", "trial_index": 229}, "uniqueid": "MTK1760:34BBWHLWHBI8VP3D6VHV9UT5SFQIWQ", "dateTime": 1516297000402}, {"current_trial": 230, "trialdata": {"rt": -1000, "trial_type": "single-audio", "word": "rooster", "stimulus": "/static/audio/wordpool/ROOSTER.wav", "conditions": [12, 800, "a", 24000], "internal_node_id": "0.0-167.0", "trial": 6, "time_elapsed": 1095086, "serialpos": 5, "key_press": -1, "wordID": 1208, "type": "PRES_AUD", "trial_index": 230}, "uniqueid": "MTK1760:34BBWHLWHBI8VP3D6VHV9UT5SFQIWQ", "dateTime": 1516297002135}, {"current_trial": 231, "trialdata": {"rt": -1000, "trial_type": "single-audio", "word": "bureau", "stimulus": "/static/audio/wordpool/BUREAU.wav", "conditions": [12, 800, "a", 24000], "internal_node_id": "0.0-168.0", "trial": 6, "time_elapsed": 1097078, "serialpos": 6, "key_press": -1, "wordID": 198, "type": "PRES_AUD", "trial_index": 231}, "uniqueid": "MTK1760:34BBWHLWHBI8VP3D6VHV9UT5SFQIWQ", "dateTime": 1516297004125}, {"current_trial": 232, "trialdata": {"rt": -1000, "trial_type": "single-audio", "word": "wife", "stimulus": "/static/audio/wordpool/WIFE.wav", "conditions": [12, 800, "a", 24000], "internal_node_id": "0.0-169.0", "trial": 6, "time_elapsed": 1099026, "serialpos": 7, "key_press": -1, "wordID": 1608, "type": "PRES_AUD", "trial_index": 232}, "uniqueid": "MTK1760:34BBWHLWHBI8VP3D6VHV9UT5SFQIWQ", "dateTime": 1516297006073}, {"current_trial": 233, "trialdata": {"rt": -1000, "trial_type": "single-audio", "word": "flower", "stimulus": "/static/audio/wordpool/FLOWER.wav", "conditions": [12, 800, "a", 24000], "internal_node_id": "0.0-170.0", "trial": 6, "time_elapsed": 1100968, "serialpos": 8, "key_press": -1, "wordID": 583, "type": "PRES_AUD", "trial_index": 233}, "uniqueid": "MTK1760:34BBWHLWHBI8VP3D6VHV9UT5SFQIWQ", "dateTime": 1516297008015}, {"current_trial": 234, "trialdata": {"rt": -1000, "trial_type": "single-audio", "word": "orchid", "stimulus": "/static/audio/wordpool/ORCHID.wav", "conditions": [12, 800, "a", 24000], "internal_node_id": "0.0-171.0", "trial": 6, "time_elapsed": 1102631, "serialpos": 9, "key_press": -1, "wordID": 981, "type": "PRES_AUD", "trial_index": 234}, "uniqueid": "MTK1760:34BBWHLWHBI8VP3D6VHV9UT5SFQIWQ", "dateTime": 1516297009680}, {"current_trial": 235, "trialdata": {"rt": -1000, "trial_type": "single-audio", "word": "asia", "stimulus": "/static/audio/wordpool/ASIA.wav", "conditions": [12, 800, "a", 24000], "internal_node_id": "0.0-172.0", "trial": 6, "time_elapsed": 1104516, "serialpos": 10, "key_press": -1, "wordID": 45, "type": "PRES_AUD", "trial_index": 235}, "uniqueid": "MTK1760:34BBWHLWHBI8VP3D6VHV9UT5SFQIWQ", "dateTime": 1516297011563}, {"current_trial": 236, "trialdata": {"rt": -1000, "trial_type": "single-audio", "word": "spool", "stimulus": "/static/audio/wordpool/SPOOL.wav", "conditions": [12, 800, "a", 24000], "internal_node_id": "0.0-173.0", "trial": 6, "time_elapsed": 1106379, "serialpos": 11, "key_press": -1, "wordID": 1355, "type": "PRES_AUD", "trial_index": 236}, "uniqueid": "MTK1760:34BBWHLWHBI8VP3D6VHV9UT5SFQIWQ", "dateTime": 1516297013427}, {"current_trial": 237, "trialdata": {"rt": -1, "trial_type": "single-stim", "stimulus": "", "internal_node_id": "0.0-174.0-0.0", "time_elapsed": 1107976, "key_press": -1, "type": "PRE_RECALL_DELAY", "trial_index": 237}, "uniqueid": "MTK1760:34BBWHLWHBI8VP3D6VHV9UT5SFQIWQ", "dateTime": 1516297015024}, {"current_trial": 238, "trialdata": {"rt": -1000, "trial_type": "single-audio", "stimulus": "/static/audio/400Hz.wav", "internal_node_id": "0.0-175.0", "time_elapsed": 1108529, "key_press": -1, "type": "PRE_RECALL_ALERT", "trial_index": 238}, "uniqueid": "MTK1760:34BBWHLWHBI8VP3D6VHV9UT5SFQIWQ", "dateTime": 1516297015576}, {"current_trial": 239, "trialdata": {"rt": [3651, 5596, 7681, 9692, 11396, 12788, 24498, 34144, 42708, 47002], "recwords": ["asia", "orchid", "flower", "school", "college", "dorm", "rooster", "servant", "bra", "blouse"], "key_times": [2582, 3043, 3116, 3347, 3651, 4371, 4488, 4821, 4913, 5081, 5315, 5596, 6578, 6679, 6886, 7019, 7248, 7345, 7681, 8434, 8634, 8795, 8901, 9070, 9285, 9692, 9980, 10071, 10312, 10464, 11003, 11004, 11006, 11396, 12038, 12130, 12334, 12440, 12788, 23400, 23632, 23694, 23807, 23930, 24074, 24204, 24498, 32993, 33138, 33342, 33578, 33721, 33793, 33872, 34144, 42059, 42358, 42484, 42708, 44585, 44693, 44863, 45574, 45738, 46046, 46422, 46423, 46575, 46695, 47002], "trial_type": "free-recall", "conditions": [12, 800, "a", 24000], "internal_node_id": "0.0-176.0-0.0", "key_presses": [65, 83, 73, 65, 13, 79, 82, 67, 72, 73, 68, 13, 70, 76, 79, 87, 69, 82, 13, 83, 67, 72, 79, 79, 76, 13, 67, 79, 76, 76, 69, 71, 69, 13, 68, 79, 82, 77, 13, 82, 79, 79, 83, 84, 69, 82, 13, 83, 69, 82, 86, 65, 78, 84, 13, 66, 82, 65, 13, 66, 79, 76, 8, 8, 76, 79, 85, 83, 69, 13], "trial": 6, "time_elapsed": 1168627, "type": "FREE_RECALL", "trial_index": 239}, "uniqueid": "MTK1760:34BBWHLWHBI8VP3D6VHV9UT5SFQIWQ", "dateTime": 1516297075691}, {"current_trial": 240, "trialdata": {"rt": 1389, "trial_type": "text", "internal_node_id": "0.0-177.0", "time_elapsed": 1172187, "key_press": 32, "type": "INSTRUCTIONS", "trial_index": 240}, "uniqueid": "MTK1760:34BBWHLWHBI8VP3D6VHV9UT5SFQIWQ", "dateTime": 1516297079236}, {"current_trial": 241, "trialdata": {"rt": [3441, 6371, 9039, 14796, 18056, 20534, 22983], "trial_type": "math-distractor", "key_times": [2259, 2545, 3441, 5719, 6149, 6371, 8364, 8848, 9039, 11370, 11593, 12280, 13036, 13336, 14796, 17114, 17402, 18056, 19851, 20090, 20534, 22377, 22673, 22983], "responses": ["20", "17", "22", "17", "13", "15", "14"], "num2": [8, 4, 6, 5, 1, 5, 4, 4], "num3": [3, 6, 7, 3, 6, 7, 6, 9], "conditions": [24, 1600, "a", 24000], "internal_node_id": "0.0-178.0", "key_presses": [50, 48, 13, 49, 55, 13, 50, 50, 13, 49, 53, 8, 55, 16, 13, 49, 51, 13, 49, 53, 13, 49, 52, 13], "trial": 7, "time_elapsed": 1198639, "type": "DISTRACTOR", "trial_index": 241, "num1": [9, 7, 9, 9, 6, 3, 4, 8]}, "uniqueid": "MTK1760:34BBWHLWHBI8VP3D6VHV9UT5SFQIWQ", "dateTime": 1516297105688}, {"current_trial": 242, "trialdata": {"rt": -1, "trial_type": "single-stim", "stimulus": "<p id=\"stim\">10</p>", "internal_node_id": "0.0-179.0-0.0", "time_elapsed": 1201656, "key_press": -1, "trial_index": 242}, "uniq