{"condition": 0, "counterbalance": 109, "assignmentId": "3OONKJ5DKDQQ38G59ZY46DC6R5BOBC", "workerId": "MTK1142", "hitId": "3EFNPKWBMSVYACMF2JCL99MSQY603H", "currenttrial": 626, "bonus": 0, "data": [{"uniqueid": "MTK1142:3OONKJ5DKDQQ38G59ZY46DC6R5BOBC", "current_trial": 0, "dateTime": 1513194515670, "trialdata": {"rt": 2347, "key_press": 13, "type": "INSTRUCTIONS", "trial_type": "text", "trial_index": 0, "time_elapsed": 2349, "internal_node_id": "0.0-0.0"}}, {"uniqueid": "MTK1142:3OONKJ5DKDQQ38G59ZY46DC6R5BOBC", "current_trial": 1, "dateTime": 1513194553550, "trialdata": {"rt": 37878, "key_press": 32, "type": "INSTRUCTIONS", "trial_type": "text", "trial_index": 1, "time_elapsed": 40229, "internal_node_id": "0.0-1.0"}}, {"uniqueid": "MTK1142:3OONKJ5DKDQQ38G59ZY46DC6R5BOBC", "current_trial": 2, "dateTime": 1513194564332, "trialdata": {"rt": [10776], "responses": ["ocean"], "type": "AUDIO_TEST", "trial_type": "audio-test", "trial_index": 2, "time_elapsed": 51011, "internal_node_id": "0.0-2.0"}}, {"uniqueid": "MTK1142:3OONKJ5DKDQQ38G59ZY46DC6R5BOBC", "current_trial": 3, "dateTime": 1513194570803, "trialdata": {"rt": [6468], "responses": ["crystal"], "type": "AUDIO_TEST", "trial_type": "audio-test", "trial_index": 3, "time_elapsed": 57482, "internal_node_id": "0.0-3.0"}}, {"uniqueid": "MTK1142:3OONKJ5DKDQQ38G59ZY46DC6R5BOBC", "current_trial": 4, "dateTime": 1513194575492, "trialdata": {"rt": [4685], "responses": ["spice"], "type": "AUDIO_TEST", "trial_type": "audio-test", "trial_index": 4, "time_elapsed": 62171, "internal_node_id": "0.0-4.0"}}, {"uniqueid": "MTK1142:3OONKJ5DKDQQ38G59ZY46DC6R5BOBC", "current_trial": 5, "dateTime": 1513194599797, "trialdata": {"rt": 23552, "responses": "{\"Q0\":\"1:00 AM\",\"Q1\":\"8:00 AM\",\"Q2\":\"4\"}", "type": "SLEEP_SURVEY", "trial_type": "survey-text", "trial_index": 5, "time_elapsed": 86476, "internal_node_id": "0.0-5.0"}}, {"uniqueid": "MTK1142:3OONKJ5DKDQQ38G59ZY46DC6R5BOBC", "current_trial": 6, "dateTime": 1513194641484, "trialdata": {"rt": 40685, "key_press": 32, "type": "INSTRUCTIONS", "trial_type": "text", "trial_index": 6, "time_elapsed": 128163, "internal_node_id": "0.0-6.0"}}, {"uniqueid": "MTK1142:3OONKJ5DKDQQ38G59ZY46DC6R5BOBC", "current_trial": 7, "dateTime": 1513194658580, "trialdata": {"rt": 16595, "key_press": 32, "type": "INSTRUCTIONS", "trial_type": "text", "trial_index": 7, "time_elapsed": 145259, "internal_node_id": "0.0-7.0"}}, {"uniqueid": "MTK1142:3OONKJ5DKDQQ38G59ZY46DC6R5BOBC", "current_trial": 8, "dateTime": 1513194695949, "trialdata": {"rt": 36868, "key_press": 13, "type": "INSTRUCTIONS", "trial_type": "text", "trial_index": 8, "time_elapsed": 182628, "internal_node_id": "0.0-8.0"}}, {"uniqueid": "MTK1142:3OONKJ5DKDQQ38G59ZY46DC6R5BOBC", "current_trial": 9, "dateTime": 1513194714954, "trialdata": {"rt": [2753, 5026, 8306, 13307, 15433, 17505], "responses": ["14", "10", "14", "23", "15", "12"], "num1": [5, 3, 2, 8, 3, 7, 8], "num2": [8, 5, 5, 6, 5, 2, 3], "num3": [1, 2, 7, 9, 7, 3, 8], "type": "DISTRACTOR", "conditions": [18, 1200, "v", 18000], "trial": 0, "trial_type": "math-distractor", "trial_index": 9, "time_elapsed": 201633, "internal_node_id": "0.0-9.0"}}, {"uniqueid": "MTK1142:3OONKJ5DKDQQ38G59ZY46DC6R5BOBC", "current_trial": 10, "dateTime": 1513194717957, "trialdata": {"rt": -1, "stimulus": "<p id=\"stim\">10</p>", "key_press": -1, "trial_type": "single-stim", "trial_index": 10, "time_elapsed": 204636, "internal_node_id": "0.0-10.0-0.0"}}, {"uniqueid": "MTK1142:3OONKJ5DKDQQ38G59ZY46DC6R5BOBC", "current_trial": 11, "dateTime": 1513194718959, "trialdata": {"rt": -1, "stimulus": "<p id=\"stim\">9</p>", "key_press": -1, "trial_type": "single-stim", "trial_index": 11, "time_elapsed": 205638, "internal_node_id": "0.0-10.0-1.0"}}, {"uniqueid": "MTK1142:3OONKJ5DKDQQ38G59ZY46DC6R5BOBC", "current_trial": 12, "dateTime": 1513194719961, "trialdata": {"rt": -1, "stimulus": "<p id=\"stim\">8</p>", "key_press": -1, "trial_type": "single-stim", "trial_index": 12, "time_elapsed": 206640, "internal_node_id": "0.0-10.0-2.0"}}, {"uniqueid": "MTK1142:3OONKJ5DKDQQ38G59ZY46DC6R5BOBC", "current_trial": 13, "dateTime": 1513194720961, "trialdata": {"rt": -1, "stimulus": "<p id=\"stim\">7</p>", "key_press": -1, "trial_type": "single-stim", "trial_index": 13, "time_elapsed": 207640, "internal_node_id": "0.0-10.0-3.0"}}, {"uniqueid": "MTK1142:3OONKJ5DKDQQ38G59ZY46DC6R5BOBC", "current_trial": 14, "dateTime": 1513194721963, "trialdata": {"rt": -1, "stimulus": "<p id=\"stim\">6</p>", "key_press": -1, "trial_type": "single-stim", "trial_index": 14, "time_elapsed": 208642, "internal_node_id": "0.0-10.0-4.0"}}, {"uniqueid": "MTK1142:3OONKJ5DKDQQ38G59ZY46DC6R5BOBC", "current_trial": 15, "dateTime": 1513194722964, "trialdata": {"rt": -1, "stimulus": "<p id=\"stim\">5</p>", "key_press": -1, "trial_type": "single-stim", "trial_index": 15, "time_elapsed": 209643, "internal_node_id": "0.0-10.0-5.0"}}, {"uniqueid": "MTK1142:3OONKJ5DKDQQ38G59ZY46DC6R5BOBC", "current_trial": 16, "dateTime": 1513194723964, "trialdata": {"rt": -1, "stimulus": "<p id=\"stim\">4</p>", "key_press": -1, "trial_type": "single-stim", "trial_index": 16, "time_elapsed": 210643, "internal_node_id": "0.0-10.0-6.0"}}, {"uniqueid": "MTK1142:3OONKJ5DKDQQ38G59ZY46DC6R5BOBC", "current_trial": 17, "dateTime": 1513194724966, "trialdata": {"rt": -1, "stimulus": "<p id=\"stim\">3</p>", "key_press": -1, "trial_type": "single-stim", "trial_index": 17, "time_elapsed": 211645, "internal_node_id": "0.0-10.0-7.0"}}, {"uniqueid": "MTK1142:3OONKJ5DKDQQ38G59ZY46DC6R5BOBC", "current_trial": 18, "dateTime": 1513194725967, "trialdata": {"rt": -1, "stimulus": "<p id=\"stim\">2</p>", "key_press": -1, "trial_type": "single-stim", "trial_index": 18, "time_elapsed": 212646, "internal_node_id": "0.0-10.0-8.0"}}, {"uniqueid": "MTK1142:3OONKJ5DKDQQ38G59ZY46DC6R5BOBC", "current_trial": 19, "dateTime": 1513194726968, "trialdata": {"rt": -1, "stimulus": "<p id=\"stim\">1</p>", "key_press": -1, "trial_type": "single-stim", "trial_index": 19, "time_elapsed": 213646, "internal_node_id": "0.0-10.0-9.0"}}, {"uniqueid": "MTK1142:3OONKJ5DKDQQ38G59ZY46DC6R5BOBC", "current_trial": 20, "dateTime": 1513194728469, "trialdata": {"rt": -1, "stimulus": "<p id=\"stim\">+</p>", "key_press": -1, "type": "FIXATION", "trial_type": "single-stim", "trial_index": 20, "time_elapsed": 215148, "internal_node_id": "0.0-11.0-0.0"}}, {"uniqueid": "MTK1142:3OONKJ5DKDQQ38G59ZY46DC6R5BOBC", "current_trial": 21, "dateTime": 1513194729670, "trialdata": {"rt": -1, "stimulus": "<p id=\"stim\">BRICK</p>", "key_press": -1, "type": "PRES_VIS", "word": "brick", "wordID": 171, "conditions": [18, 1200, "v", 18000], "trial": 0, "serialpos": 0, "trial_type": "single-stim", "trial_index": 21, "time_elapsed": 216349, "internal_node_id": "0.0-12.0"}}, {"uniqueid": "MTK1142:3OONKJ5DKDQQ38G59ZY46DC6R5BOBC", "current_trial": 22, "dateTime": 1513194732010, "trialdata": {"rt": -1, "stimulus": "<p id=\"stim\">ATOM</p>", "key_press": -1, "type": "PRES_VIS", "word": "atom", "wordID": 54, "conditions": [18, 1200, "v", 18000], "trial": 0, "serialpos": 1, "trial_type": "single-stim", "trial_index": 22, "time_elapsed": 218689, "internal_node_id": "0.0-13.0"}}, {"uniqueid": "MTK1142:3OONKJ5DKDQQ38G59ZY46DC6R5BOBC", "current_trial": 23, "dateTime": 1513194734067, "trialdata": {"rt": -1, "stimulus": "<p id=\"stim\">GOBLIN</p>", "key_press": -1, "type": "PRES_VIS", "word": "goblin", "wordID": 644, "conditions": [18, 1200, "v", 18000], "trial": 0, "serialpos": 2, "trial_type": "single-stim", "trial_index": 23, "time_elapsed": 220746, "internal_node_id": "0.0-14.0"}}, {"uniqueid": "MTK1142:3OONKJ5DKDQQ38G59ZY46DC6R5BOBC", "current_trial": 24, "dateTime": 1513194736199, "trialdata": {"rt": -1, "stimulus": "<p id=\"stim\">TROUT</p>", "key_press": -1, "type": "PRES_VIS", "word": "trout", "wordID": 1510, "conditions": [18, 1200, "v", 18000], "trial": 0, "serialpos": 3, "trial_type": "single-stim", "trial_index": 24, "time_elapsed": 222878, "internal_node_id": "0.0-15.0"}}, {"uniqueid": "MTK1142:3OONKJ5DKDQQ38G59ZY46DC6R5BOBC", "current_trial": 25, "dateTime": 1513194738272, "trialdata": {"rt": -1, "stimulus": "<p id=\"stim\">SUSPECT</p>", "key_press": -1, "type": "PRES_VIS", "word": "suspect", "wordID": 1414, "conditions": [18, 1200, "v", 18000], "trial": 0, "serialpos": 4, "trial_type": "single-stim", "trial_index": 25, "time_elapsed": 224951, "internal_node_id": "0.0-16.0"}}, {"uniqueid": "MTK1142:3OONKJ5DKDQQ38G59ZY46DC6R5BOBC", "current_trial": 26, "dateTime": 1513194740400, "trialdata": {"rt": -1, "stimulus": "<p id=\"stim\">DONOR</p>", "key_press": -1, "type": "PRES_VIS", "word": "donor", "wordID": 484, "conditions": [18, 1200, "v", 18000], "trial": 0, "serialpos": 5, "trial_type": "single-stim", "trial_index": 26, "time_elapsed": 227079, "internal_node_id": "0.0-17.0"}}, {"uniqueid": "MTK1142:3OONKJ5DKDQQ38G59ZY46DC6R5BOBC", "current_trial": 27, "dateTime": 1513194742652, "trialdata": {"rt": -1, "stimulus": "<p id=\"stim\">BEAKER</p>", "key_press": -1, "type": "PRES_VIS", "word": "beaker", "wordID": 103, "conditions": [18, 1200, "v", 18000], "trial": 0, "serialpos": 6, "trial_type": "single-stim", "trial_index": 27, "time_elapsed": 229331, "internal_node_id": "0.0-18.0"}}, {"uniqueid": "MTK1142:3OONKJ5DKDQQ38G59ZY46DC6R5BOBC", "current_trial": 28, "dateTime": 1513194744821, "trialdata": {"rt": -1, "stimulus": "<p id=\"stim\">HIGHWAY</p>", "key_press": -1, "type": "PRES_VIS", "word": "highway", "wordID": 706, "conditions": [18, 1200, "v", 18000], "trial": 0, "serialpos": 7, "trial_type": "single-stim", "trial_index": 28, "time_elapsed": 231500, "internal_node_id": "0.0-19.0"}}, {"uniqueid": "MTK1142:3OONKJ5DKDQQ38G59ZY46DC6R5BOBC", "current_trial": 29, "dateTime": 1513194746824, "trialdata": {"rt": -1, "stimulus": "<p id=\"stim\">FEMALE</p>", "key_press": -1, "type": "PRES_VIS", "word": "female", "wordID": 558, "conditions": [18, 1200, "v", 18000], "trial": 0, "serialpos": 8, "trial_type": "single-stim", "trial_index": 29, "time_elapsed": 233503, "internal_node_id": "0.0-20.0"}}, {"uniqueid": "MTK1142:3OONKJ5DKDQQ38G59ZY46DC6R5BOBC", "current_trial": 30, "dateTime": 1513194749191, "trialdata": {"rt": -1, "stimulus": "<p id=\"stim\">CUSTARD</p>", "key_press": -1, "type": "PRES_VIS", "word": "custard", "wordID": 428, "conditions": [18, 1200, "v", 18000], "trial": 0, "serialpos": 9, "trial_type": "single-stim", "trial_index": 30, "time_elapsed": 235870, "internal_node_id": "0.0-21.0"}}, {"uniqueid": "MTK1142:3OONKJ5DKDQQ38G59ZY46DC6R5BOBC", "current_trial": 31, "dateTime": 1513194751410, "trialdata": {"rt": -1, "stimulus": "<p id=\"stim\">BLACKBOARD</p>", "key_press": -1, "type": "PRES_VIS", "word": "blackboard", "wordID": 132, "conditions": [18, 1200, "v", 18000], "trial": 0, "serialpos": 10, "trial_type": "single-stim", "trial_index": 31, "time_elapsed": 238089, "internal_node_id": "0.0-22.0"}}, {"uniqueid": "MTK1142:3OONKJ5DKDQQ38G59ZY46DC6R5BOBC", "current_trial": 32, "dateTime": 1513194753704, "trialdata": {"rt": -1, "stimulus": "<p id=\"stim\">TWEEZERS</p>", "key_press": -1, "type": "PRES_VIS", "word": "tweezers", "wordID": 1525, "conditions": [18, 1200, "v", 18000], "trial": 0, "serialpos": 11, "trial_type": "single-stim", "trial_index": 32, "time_elapsed": 240383, "internal_node_id": "0.0-23.0"}}, {"uniqueid": "MTK1142:3OONKJ5DKDQQ38G59ZY46DC6R5BOBC", "current_trial": 33, "dateTime": 1513194756050, "trialdata": {"rt": -1, "stimulus": "<p id=\"stim\">STONE</p>", "key_press": -1, "type": "PRES_VIS", "word": "stone", "wordID": 1384, "conditions": [18, 1200, "v", 18000], "trial": 0, "serialpos": 12, "trial_type": "single-stim", "trial_index": 33, "time_elapsed": 242729, "internal_node_id": "0.0-24.0"}}, {"uniqueid": "MTK1142:3OONKJ5DKDQQ38G59ZY46DC6R5BOBC", "current_trial": 34, "dateTime": 1513194758385, "trialdata": {"rt": -1, "stimulus": "<p id=\"stim\">CRATER</p>", "key_press": -1, "type": "PRES_VIS", "word": "crater", "wordID": 399, "conditions": [18, 1200, "v", 18000], "trial": 0, "serialpos": 13, "trial_type": "single-stim", "trial_index": 34, "time_elapsed": 245064, "internal_node_id": "0.0-25.0"}}, {"uniqueid": "MTK1142:3OONKJ5DKDQQ38G59ZY46DC6R5BOBC", "current_trial": 35, "dateTime": 1513194760478, "trialdata": {"rt": -1, "stimulus": "<p id=\"stim\">CHILD</p>", "key_press": -1, "type": "PRES_VIS", "word": "child", "wordID": 298, "conditions": [18, 1200, "v", 18000], "trial": 0, "serialpos": 14, "trial_type": "single-stim", "trial_index": 35, "time_elapsed": 247157, "internal_node_id": "0.0-26.0"}}, {"uniqueid": "MTK1142:3OONKJ5DKDQQ38G59ZY46DC6R5BOBC", "current_trial": 36, "dateTime": 1513194762672, "trialdata": {"rt": -1, "stimulus": "<p id=\"stim\">NAPKIN</p>", "key_press": -1, "type": "PRES_VIS", "word": "napkin", "wordID": 936, "conditions": [18, 1200, "v", 18000], "trial": 0, "serialpos": 15, "trial_type": "single-stim", "trial_index": 36, "time_elapsed": 249351, "internal_node_id": "0.0-27.0"}}, {"uniqueid": "MTK1142:3OONKJ5DKDQQ38G59ZY46DC6R5BOBC", "current_trial": 37, "dateTime": 1513194764858, "trialdata": {"rt": -1, "stimulus": "<p id=\"stim\">TRACTOR</p>", "key_press": -1, "type": "PRES_VIS", "word": "tractor", "wordID": 1492, "conditions": [18, 1200, "v", 18000], "trial": 0, "serialpos": 16, "trial_type": "single-stim", "trial_index": 37, "time_elapsed": 251537, "internal_node_id": "0.0-28.0"}}, {"uniqueid": "MTK1142:3OONKJ5DKDQQ38G59ZY46DC6R5BOBC", "current_trial": 38, "dateTime": 1513194766945, "trialdata": {"rt": -1, "stimulus": "<p id=\"stim\">CROSS</p>", "key_press": -1, "type": "PRES_VIS", "word": "cross", "wordID": 412, "conditions": [18, 1200, "v", 18000], "trial": 0, "serialpos": 17, "trial_type": "single-stim", "trial_index": 38, "time_elapsed": 253624, "internal_node_id": "0.0-29.0"}}, {"uniqueid": "MTK1142:3OONKJ5DKDQQ38G59ZY46DC6R5BOBC", "current_trial": 39, "dateTime": 1513194769270, "trialdata": {"rt": -1, "stimulus": "", "key_press": -1, "type": "PRE_RECALL_DELAY", "trial_type": "single-stim", "trial_index": 39, "time_elapsed": 255949, "internal_node_id": "0.0-30.0-0.0"}}, {"uniqueid": "MTK1142:3OONKJ5DKDQQ38G59ZY46DC6R5BOBC", "current_trial": 40, "dateTime": 1513194769771, "trialdata": {"rt": -1000, "stimulus": "/static/audio/400Hz.wav", "key_press": -1, "type": "PRE_RECALL_ALERT", "trial_type": "single-audio", "trial_index": 40, "time_elapsed": 256450, "internal_node_id": "0.0-31.0"}}, {"uniqueid": "MTK1142:3OONKJ5DKDQQ38G59ZY46DC6R5BOBC", "current_trial": 41, "dateTime": 1513194829775, "trialdata": {"rt": [3496, 5153, 6465, 8441, 10576, 12840, 14648, 17615, 19279, 22225, 23888, 28328, 31473, 32912, 35072, 37272, 39552, 42944, 46456, 53439, 57777], "recwords": ["brick", "tractor", "female", "atom", "donor", "suspect", "beaker", "highway", "custard", "blackboard", "child", "tweezers", "stone", "female", "trout", "goblin", "cross", "donor", "crater", "napkin", ""], "type": "FREE_RECALL", "conditions": [18, 1200, "v", 18000], "trial": 0, "trial_type": "free-recall", "trial_index": 41, "time_elapsed": 316453, "internal_node_id": "0.0-32.0-0.0"}}, {"uniqueid": "MTK1142:3OONKJ5DKDQQ38G59ZY46DC6R5BOBC", "current_trial": 42, "dateTime": 1513194832909, "trialdata": {"rt": 1132, "key_press": 32, "type": "INSTRUCTIONS", "trial_type": "text", "trial_index": 42, "time_elapsed": 319587, "internal_node_id": "0.0-33.0"}}, {"uniqueid": "MTK1142:3OONKJ5DKDQQ38G59ZY46DC6R5BOBC", "current_trial": 43, "dateTime": 1513194852910, "trialdata": {"rt": [3040, 10575, 12801, 14895, 16463, 17958], "responses": ["21", "21", "15", "13", "11", "6"], "num1": [8, 7, 1, 2, 9, 1, 9], "num2": [5, 8, 8, 8, 1, 1, 8], "num3": [8, 6, 6, 3, 1, 4, 4], "type": "DISTRACTOR", "conditions": [18, 1200, "a", 18000], "trial": 1, "trial_type": "math-distractor", "trial_index": 43, "time_elapsed": 339589, "internal_node_id": "0.0-34.0"}}, {"uniqueid": "MTK1142:3OONKJ5DKDQQ38G59ZY46DC6R5BOBC", "current_trial": 44, "dateTime": 1513194855913, "trialdata": {"rt": -1, "stimulus": "<p id=\"stim\">10</p>", "key_press": -1, "trial_type": "single-stim", "trial_index": 44, "time_elapsed": 342592, "internal_node_id": "0.0-35.0-0.0"}}, {"uniqueid": "MTK1142:3OONKJ5DKDQQ38G59ZY46DC6R5BOBC", "current_trial": 45, "dateTime": 1513194856915, "trialdata": {"rt": -1, "stimulus": "<p id=\"stim\">9</p>", "key_press": -1, "trial_type": "single-stim", "trial_index": 45, "time_elapsed": 343594, "internal_node_id": "0.0-35.0-1.0"}}, {"uniqueid": "MTK1142:3OONKJ5DKDQQ38G59ZY46DC6R5BOBC", "current_trial": 46, "dateTime": 1513194857915, "trialdata": {"rt": -1, "stimulus": "<p id=\"stim\">8</p>", "key_press": -1, "trial_type": "single-stim", "trial_index": 46, "time_elapsed": 344594, "internal_node_id": "0.0-35.0-2.0"}}, {"uniqueid": "MTK1142:3OONKJ5DKDQQ38G59ZY46DC6R5BOBC", "current_trial": 47, "dateTime": 1513194858917, "trialdata": {"rt": -1, "stimulus": "<p id=\"stim\">7</p>", "key_press": -1, "trial_type": "single-stim", "trial_index": 47, "time_elapsed": 345596, "internal_node_id": "0.0-35.0-3.0"}}, {"uniqueid": "MTK1142:3OONKJ5DKDQQ38G59ZY46DC6R5BOBC", "current_trial": 48, "dateTime": 1513194859918, "trialdata": {"rt": -1, "stimulus": "<p id=\"stim\">6</p>", "key_press": -1, "trial_type": "single-stim", "trial_index": 48, "time_elapsed": 346597, "internal_node_id": "0.0-35.0-4.0"}}, {"uniqueid": "MTK1142:3OONKJ5DKDQQ38G59ZY46DC6R5BOBC", "current_trial": 49, "dateTime": 1513194860919, "trialdata": {"rt": -1, "stimulus": "<p id=\"stim\">5</p>", "key_press": -1, "trial_type": "single-stim", "trial_index": 49, "time_elapsed": 347598, "internal_node_id": "0.0-35.0-5.0"}}, {"uniqueid": "MTK1142:3OONKJ5DKDQQ38G59ZY46DC6R5BOBC", "current_trial": 50, "dateTime": 1513194861919, "trialdata": {"rt": -1, "stimulus": "<p id=\"stim\">4</p>", "key_press": -1, "trial_type": "single-stim", "trial_index": 50, "time_elapsed": 348598, "internal_node_id": "0.0-35.0-6.0"}}, {"uniqueid": "MTK1142:3OONKJ5DKDQQ38G59ZY46DC6R5BOBC", "current_trial": 51, "dateTime": 1513194862920, "trialdata": {"rt": -1, "stimulus": "<p id=\"stim\">3</p>", "key_press": -1, "trial_type": "single-stim", "trial_index": 51, "time_elapsed": 349599, "internal_node_id": "0.0-35.0-7.0"}}, {"uniqueid": "MTK1142:3OONKJ5DKDQQ38G59ZY46DC6R5BOBC", "current_trial": 52, "dateTime": 1513194863921, "trialdata": {"rt": -1, "stimulus": "<p id=\"stim\">2</p>", "key_press": -1, "trial_type": "single-stim", "trial_index": 52, "time_elapsed": 350600, "internal_node_id": "0.0-35.0-8.0"}}, {"uniqueid": "MTK1142:3OONKJ5DKDQQ38G59ZY46DC6R5BOBC", "current_trial": 53, "dateTime": 1513194864922, "trialdata": {"rt": -1, "stimulus": "<p id=\"stim\">1</p>", "key_press": -1, "trial_type": "single-stim", "trial_index": 53, "time_elapsed": 351601, "internal_node_id": "0.0-35.0-9.0"}}, {"uniqueid": "MTK1142:3OONKJ5DKDQQ38G59ZY46DC6R5BOBC", "current_trial": 54, "dateTime": 1513194866424, "trialdata": {"rt": -1, "stimulus": "<p id=\"stim\">+</p>", "key_press": -1, "type": "FIXATION", "trial_type": "single-stim", "trial_index": 54, "time_elapsed": 353103, "internal_node_id": "0.0-36.0-0.0"}}, {"uniqueid": "MTK1142:3OONKJ5DKDQQ38G59ZY46DC6R5BOBC", "current_trial": 55, "dateTime": 1513194868519, "trialdata": {"rt": -1000, "stimulus": "/static/audio/wordpool/LONDON.wav", "key_press": -1, "type": "PRES_AUD", "word": "london", "wordID": 842, "conditions": [18, 1200, "a", 18000], "trial": 1, "serialpos": 0, "trial_type": "single-audio", "trial_index": 55, "time_elapsed": 355198, "internal_node_id": "0.0-37.0"}}, {"uniqueid": "MTK1142:3OONKJ5DKDQQ38G59ZY46DC6R5BOBC", "current_trial": 56, "dateTime": 1513194870659, "trialdata": {"rt": -1000, "stimulus": "/static/audio/wordpool/LIGHTNING.wav", "key_press": -1, "type": "PRES_AUD", "word": "lightning", "wordID": 819, "conditions": [18, 1200, "a", 18000], "trial": 1, "serialpos": 1, "trial_type": "single-audio", "trial_index": 56, "time_elapsed": 357338, "internal_node_id": "0.0-38.0"}}, {"uniqueid": "MTK1142:3OONKJ5DKDQQ38G59ZY46DC6R5BOBC", "current_trial": 57, "dateTime": 1513194872953, "trialdata": {"rt": -1000, "stimulus": "/static/audio/wordpool/TOURIST.wav", "key_press": -1, "type": "PRES_AUD", "word": "tourist", "wordID": 1487, "conditions": [18, 1200, "a", 18000], "trial": 1, "serialpos": 2, "trial_type": "single-audio", "trial_index": 57, "time_elapsed": 359632, "internal_node_id": "0.0-39.0"}}, {"uniqueid": "MTK1142:3OONKJ5DKDQQ38G59ZY46DC6R5BOBC", "current_trial": 58, "dateTime": 1513194875346, "trialdata": {"rt": -1000, "stimulus": "/static/audio/wordpool/COMPASS.wav", "key_press": -1, "type": "PRES_AUD", "word": "compass", "wordID": 357, "conditions": [18, 1200, "a", 18000], "trial": 1, "serialpos": 3, "trial_type": "single-audio", "trial_index": 58, "time_elapsed": 362025, "internal_node_id": "0.0-40.0"}}, {"uniqueid": "MTK1142:3OONKJ5DKDQQ38G59ZY46DC6R5BOBC", "current_trial": 59, "dateTime": 1513194877453, "trialdata": {"rt": -1000, "stimulus": "/static/audio/wordpool/PIZZA.wav", "key_press": -1, "type": "PRES_AUD", "word": "pizza", "wordID": 1078, "conditions": [18, 1200, "a", 18000], "trial": 1, "serialpos": 4, "trial_type": "single-audio", "trial_index": 59, "time_elapsed": 364132, "internal_node_id": "0.0-41.0"}}, {"uniqueid": "MTK1142:3OONKJ5DKDQQ38G59ZY46DC6R5BOBC", "current_trial": 60, "dateTime": 1513194879531, "trialdata": {"rt": -1000, "stimulus": "/static/audio/wordpool/SPHINX.wav", "key_press": -1, "type": "PRES_AUD", "word": "sphinx", "wordID": 1348, "conditions": [18, 1200, "a", 18000], "trial": 1, "serialpos": 5, "trial_type": "single-audio", "trial_index": 60, "time_elapsed": 366210, "internal_node_id": "0.0-42.0"}}, {"uniqueid": "MTK1142:3OONKJ5DKDQQ38G59ZY46DC6R5BOBC", "current_trial": 61, "dateTime": 1513194881930, "trialdata": {"rt": -1000, "stimulus": "/static/audio/wordpool/CRICKET.wav", "key_press": -1, "type": "PRES_AUD", "word": "cricket", "wordID": 407, "conditions": [18, 1200, "a", 18000], "trial": 1, "serialpos": 6, "trial_type": "single-audio", "trial_index": 61, "time_elapsed": 368609, "internal_node_id": "0.0-43.0"}}, {"uniqueid": "MTK1142:3OONKJ5DKDQQ38G59ZY46DC6R5BOBC", "current_trial": 62, "dateTime": 1513194884141, "trialdata": {"rt": -1000, "stimulus": "/static/audio/wordpool/ROBBER.wav", "key_press": -1, "type": "PRES_AUD", "word": "robber", "wordID": 1196, "conditions": [18, 1200, "a", 18000], "trial": 1, "serialpos": 7, "trial_type": "single-audio", "trial_index": 62, "time_elapsed": 370820, "internal_node_id": "0.0-44.0"}}, {"uniqueid": "MTK1142:3OONKJ5DKDQQ38G59ZY46DC6R5BOBC", "current_trial": 63, "dateTime": 1513194886289, "trialdata": {"rt": -1000, "stimulus": "/static/audio/wordpool/TOMBSTONE.wav", "key_press": -1, "type": "PRES_AUD", "word": "tombstone", "wordID": 1477, "conditions": [18, 1200, "a", 18000], "trial": 1, "serialpos": 8, "trial_type": "single-audio", "trial_index": 63, "time_elapsed": 372968, "internal_node_id": "0.0-45.0"}}, {"uniqueid": "MTK1142:3OONKJ5DKDQQ38G59ZY46DC6R5BOBC", "current_trial": 64, "dateTime": 1513194888474, "trialdata": {"rt": -1000, "stimulus": "/static/audio/wordpool/SNAIL.wav", "key_press": -1, "type": "PRES_AUD", "word": "snail", "wordID": 1331, "conditions": [18, 1200, "a", 18000], "trial": 1, "serialpos": 9, "trial_type": "single-audio", "trial_index": 64, "time_elapsed": 375153, "internal_node_id": "0.0-46.0"}}, {"uniqueid": "MTK1142:3OONKJ5DKDQQ38G59ZY46DC6R5BOBC", "current_trial": 65, "dateTime": 1513194890832, "trialdata": {"rt": -1000, "stimulus": "/static/audio/wordpool/LAVA.wav", "key_press": -1, "type": "PRES_AUD", "word": "lava", "wordID": 803, "conditions": [18, 1200, "a", 18000], "trial": 1, "serialpos": 10, "trial_type": "single-audio", "trial_index": 65, "time_elapsed": 377511, "internal_node_id": "0.0-47.0"}}, {"uniqueid": "MTK1142:3OONKJ5DKDQQ38G59ZY46DC6R5BOBC", "current_trial": 66, "dateTime": 1513194892994, "trialdata": {"rt": -1000, "stimulus": "/static/audio/wordpool/FUNGUS.wav", "key_press": -1, "type": "PRES_AUD", "word": "fungus", "wordID": 613, "conditions": [18, 1200, "a", 18000], "trial": 1, "serialpos": 11, "trial_type": "single-audio", "trial_index": 66, "time_elapsed": 379673, "internal_node_id": "0.0-48.0"}}, {"uniqueid": "MTK1142:3OONKJ5DKDQQ38G59ZY46DC6R5BOBC", "current_trial": 67, "dateTime": 1513194895343, "trialdata": {"rt": -1000, "stimulus": "/static/audio/wordpool/PENGUIN.wav", "key_press": -1, "type": "PRES_AUD", "word": "penguin", "wordID": 1043, "conditions": [18, 1200, "a", 18000], "trial": 1, "serialpos": 12, "trial_type": "single-audio", "trial_index": 67, "time_elapsed": 382022, "internal_node_id": "0.0-49.0"}}, {"uniqueid": "MTK1142:3OONKJ5DKDQQ38G59ZY46DC6R5BOBC", "current_trial": 68, "dateTime": 1513194897582, "trialdata": {"rt": -1000, "stimulus": "/static/audio/wordpool/BOUQUET.wav", "key_press": -1, "type": "PRES_AUD", "word": "bouquet", "wordID": 156, "conditions": [18, 1200, "a", 18000], "trial": 1, "serialpos": 13, "trial_type": "single-audio", "trial_index": 68, "time_elapsed": 384259, "internal_node_id": "0.0-50.0"}}, {"uniqueid": "MTK1142:3OONKJ5DKDQQ38G59ZY46DC6R5BOBC", "current_trial": 69, "dateTime": 1513194899836, "trialdata": {"rt": -1000, "stimulus": "/static/audio/wordpool/COOKBOOK.wav", "key_press": -1, "type": "PRES_AUD", "word": "cookbook", "wordID": 372, "conditions": [18, 1200, "a", 18000], "trial": 1, "serialpos": 14, "trial_type": "single-audio", "trial_index": 69, "time_elapsed": 386515, "internal_node_id": "0.0-51.0"}}, {"uniqueid": "MTK1142:3OONKJ5DKDQQ38G59ZY46DC6R5BOBC", "current_trial": 70, "dateTime": 1513194901922, "trialdata": {"rt": -1000, "stimulus": "/static/audio/wordpool/BLUEPRINT.wav", "key_press": -1, "type": "PRES_AUD", "word": "blueprint", "wordID": 141, "conditions": [18, 1200, "a", 18000], "trial": 1, "serialpos": 15, "trial_type": "single-audio", "trial_index": 70, "time_elapsed": 388601, "internal_node_id": "0.0-52.0"}}, {"uniqueid": "MTK1142:3OONKJ5DKDQQ38G59ZY46DC6R5BOBC", "current_trial": 71, "dateTime": 1513194904036, "trialdata": {"rt": -1000, "stimulus": "/static/audio/wordpool/HEART.wav", "key_press": -1, "type": "PRES_AUD", "word": "heart", "wordID": 696, "conditions": [18, 1200, "a", 18000], "trial": 1, "serialpos": 16, "trial_type": "single-audio", "trial_index": 71, "time_elapsed": 390715, "internal_node_id": "0.0-53.0"}}, {"uniqueid": "MTK1142:3OONKJ5DKDQQ38G59ZY46DC6R5BOBC", "current_trial": 72, "dateTime": 1513194906210, "trialdata": {"rt": -1000, "stimulus": "/static/audio/wordpool/DANCER.wav", "key_press": -1, "type": "PRES_AUD", "word": "dancer", "wordID": 436, "conditions": [18, 1200, "a", 18000], "trial": 1, "serialpos": 17, "trial_type": "single-audio", "trial_index": 72, "time_elapsed": 392888, "internal_node_id": "0.0-54.0"}}, {"uniqueid": "MTK1142:3OONKJ5DKDQQ38G59ZY46DC6R5BOBC", "current_trial": 73, "dateTime": 1513194907454, "trialdata": {"rt": -1, "stimulus": "", "key_press": -1, "type": "PRE_RECALL_DELAY", "trial_type": "single-stim", "trial_index": 73, "time_elapsed": 394133, "internal_node_id": "0.0-55.0-0.0"}}, {"uniqueid": "MTK1142:3OONKJ5DKDQQ38G59ZY46DC6R5BOBC", "current_trial": 74, "dateTime": 1513194907955, "trialdata": {"rt": -1000, "stimulus": "/static/audio/400Hz.wav", "key_press": -1, "type": "PRE_RECALL_ALERT", "trial_type": "single-audio", "trial_index": 74, "time_elapsed": 394633, "internal_node_id": "0.0-56.0"}}, {"uniqueid": "MTK1142:3OONKJ5DKDQQ38G59ZY46DC6R5BOBC", "current_trial": 75, "dateTime": 1513194967959, "trialdata": {"rt": [3343, 5191, 7375, 14583, 16375, 17263, 18919, 21087, 23303, 26607, 31119, 33800, 36687, 41182], "recwords": ["lightning", "tourist", "compass", "bouquet", "cookbook", "heart", "dancer", "pizza", "cricket", "tombstone", "snail", "lava", "fungus", "penguin"], "type": "FREE_RECALL", "conditions": [18, 1200, "a", 18000], "trial": 1, "trial_type": "free-recall", "trial_index": 75, "time_elapsed": 454637, "internal_node_id": "0.0-57.0-0.0"}}, {"uniqueid": "MTK1142:3OONKJ5DKDQQ38G59ZY46DC6R5BOBC", "current_trial": 76, "dateTime": 1513194973149, "trialdata": {"rt": 3187, "key_press": 32, "type": "INSTRUCTIONS", "trial_type": "text", "trial_index": 76, "time_elapsed": 459826, "internal_node_id": "0.0-58.0"}}, {"uniqueid": "MTK1142:3OONKJ5DKDQQ38G59ZY46DC6R5BOBC", "current_trial": 77, "dateTime": 1513194998152, "trialdata": {"rt": [2404, 3940, 5532, 7044, 9796, 11773, 14412, 16061, 20173, 23565], "responses": ["18", "6", "14", "12", "12", "18", "15", "10", "14", "19"], "num1": [5, 1, 5, 8, 5, 8, 9, 1, 3, 4, 8], "num2": [5, 4, 5, 2, 4, 5, 4, 7, 5, 6, 1], "num3": [8, 1, 4, 2, 3, 5, 2, 2, 6, 9, 2], "type": "DISTRACTOR", "conditions": [24, 800, "a", 24000], "trial": 2, "trial_type": "math-distractor", "trial_index": 77, "time_elapsed": 484831, "internal_node_id": "0.0-59.0"}}, {"uniqueid": "MTK1142:3OONKJ5DKDQQ38G59ZY46DC6R5BOBC", "current_trial": 78, "dateTime": 1513195001154, "trialdata": {"rt": -1, "stimulus": "<p id=\"stim\">10</p>", "key_press": -1, "trial_type": "single-stim", "trial_index": 78, "time_elapsed": 487833, "internal_node_id": "0.0-60.0-0.0"}}, {"uniqueid": "MTK1142:3OONKJ5DKDQQ38G59ZY46DC6R5BOBC", "current_trial": 79, "dateTime": 1513195002155, "trialdata": {"rt": -1, "stimulus": "<p id=\"stim\">9</p>", "key_press": -1, "trial_type": "single-stim", "trial_index": 79, "time_elapsed": 488834, "internal_node_id": "0.0-60.0-1.0"}}, {"uniqueid": "MTK1142:3OONKJ5DKDQQ38G59ZY46DC6R5BOBC", "current_trial": 80, "dateTime": 1513195003156, "trialdata": {"rt": -1, "stimulus": "<p id=\"stim\">8</p>", "key_press": -1, "trial_type": "single-stim", "trial_index": 80, "time_elapsed": 489835, "internal_node_id": "0.0-60.0-2.0"}}, {"uniqueid": "MTK1142:3OONKJ5DKDQQ38G59ZY46DC6R5BOBC", "current_trial": 81, "dateTime": 1513195004157, "trialdata": {"rt": -1, "stimulus": "<p id=\"stim\">7</p>", "key_press": -1, "trial_type": "single-stim", "trial_index": 81, "time_elapsed": 490836, "internal_node_id": "0.0-60.0-3.0"}}, {"uniqueid": "MTK1142:3OONKJ5DKDQQ38G59ZY46DC6R5BOBC", "current_trial": 82, "dateTime": 1513195005159, "trialdata": {"rt": -1, "stimulus": "<p id=\"stim\">6</p>", "key_press": -1, "trial_type": "single-stim", "trial_index": 82, "time_elapsed": 491838, "internal_node_id": "0.0-60.0-4.0"}}, {"uniqueid": "MTK1142:3OONKJ5DKDQQ38G59ZY46DC6R5BOBC", "current_trial": 83, "dateTime": 1513195006162, "trialdata": {"rt": -1, "stimulus": "<p id=\"stim\">5</p>", "key_press": -1, "trial_type": "single-stim", "trial_index": 83, "time_elapsed": 492841, "internal_node_id": "0.0-60.0-5.0"}}, {"uniqueid": "MTK1142:3OONKJ5DKDQQ38G59ZY46DC6R5BOBC", "current_trial": 84, "dateTime": 1513195007163, "trialdata": {"rt": -1, "stimulus": "<p id=\"stim\">4</p>", "key_press": -1, "trial_type": "single-stim", "trial_index": 84, "time_elapsed": 493842, "internal_node_id": "0.0-60.0-6.0"}}, {"uniqueid": "MTK1142:3OONKJ5DKDQQ38G59ZY46DC6R5BOBC", "current_trial": 85, "dateTime": 1513195008165, "trialdata": {"rt": -1, "stimulus": "<p id=\"stim\">3</p>", "key_press": -1, "trial_type": "single-stim", "trial_index": 85, "time_elapsed": 494844, "internal_node_id": "0.0-60.0-7.0"}}, {"uniqueid": "MTK1142:3OONKJ5DKDQQ38G59ZY46DC6R5BOBC", "current_trial": 86, "dateTime": 1513195009166, "trialdata": {"rt": -1, "stimulus": "<p id=\"stim\">2</p>", "key_press": -1, "trial_type": "single-stim", "trial_index": 86, "time_elapsed": 495845, "internal_node_id": "0.0-60.0-8.0"}}, {"uniqueid": "MTK1142:3OONKJ5DKDQQ38G59ZY46DC6R5BOBC", "current_trial": 87, "dateTime": 1513195010167, "trialdata": {"rt": -1, "stimulus": "<p id=\"stim\">1</p>", "key_press": -1, "trial_type": "single-stim", "trial_index": 87, "time_elapsed": 496846, "internal_node_id": "0.0-60.0-9.0"}}, {"uniqueid": "MTK1142:3OONKJ5DKDQQ38G59ZY46DC6R5BOBC", "current_trial": 88, "dateTime": 1513195011669, "trialdata": {"rt": -1, "stimulus": "<p id=\"stim\">+</p>", "key_press": -1, "type": "FIXATION", "trial_type": "single-stim", "trial_index": 88, "time_elapsed": 498347, "internal_node_id": "0.0-61.0-0.0"}}, {"uniqueid": "MTK1142:3OONKJ5DKDQQ38G59ZY46DC6R5BOBC", "current_trial": 89, "dateTime": 1513195013583, "trialdata": {"rt": -1000, "stimulus": "/static/audio/wordpool/VIRUS.wav", "key_press": -1, "type": "PRES_AUD", "word": "virus", "wordID": 1571, "conditions": [24, 800, "a", 24000], "trial": 2, "serialpos": 0, "trial_type": "single-audio", "trial_index": 89, "time_elapsed": 500262, "internal_node_id": "0.0-62.0"}}, {"uniqueid": "MTK1142:3OONKJ5DKDQQ38G59ZY46DC6R5BOBC", "current_trial": 90, "dateTime": 1513195015277, "trialdata": {"rt": -1000, "stimulus": "/static/audio/wordpool/CONVICT.wav", "key_press": -1, "type": "PRES_AUD", "word": "convict", "wordID": 370, "conditions": [24, 800, "a", 24000], "trial": 2, "serialpos": 1, "trial_type": "single-audio", "trial_index": 90, "time_elapsed": 501956, "internal_node_id": "0.0-63.0"}}, {"uniqueid": "MTK1142:3OONKJ5DKDQQ38G59ZY46DC6R5BOBC", "current_trial": 91, "dateTime": 1513195017147, "trialdata": {"rt": -1000, "stimulus": "/static/audio/wordpool/BIKE.wav", "key_press": -1, "type": "PRES_AUD", "word": "bike", "wordID": 124, "conditions": [24, 800, "a", 24000], "trial": 2, "serialpos": 2, "trial_type": "single-audio", "trial_index": 91, "time_elapsed": 503826, "internal_node_id": "0.0-64.0"}}, {"uniqueid": "MTK1142:3OONKJ5DKDQQ38G59ZY46DC6R5BOBC", "current_trial": 92, "dateTime": 1513195018886, "trialdata": {"rt": -1000, "stimulus": "/static/audio/wordpool/SUNRISE.wav", "key_press": -1, "type": "PRES_AUD", "word": "sunrise", "wordID": 1406, "conditions": [24, 800, "a", 24000], "trial": 2, "serialpos": 3, "trial_type": "single-audio", "trial_index": 92, "time_elapsed": 505565, "internal_node_id": "0.0-65.0"}}, {"uniqueid": "MTK1142:3OONKJ5DKDQQ38G59ZY46DC6R5BOBC", "current_trial": 93, "dateTime": 1513195020735, "trialdata": {"rt": -1000, "stimulus": "/static/audio/wordpool/SUNSET.wav", "key_press": -1, "type": "PRES_AUD", "word": "sunset", "wordID": 1407, "conditions": [24, 800, "a", 24000], "trial": 2, "serialpos": 4, "trial_type": "single-audio", "trial_index": 93, "time_elapsed": 507414, "internal_node_id": "0.0-66.0"}}, {"uniqueid": "MTK1142:3OONKJ5DKDQQ38G59ZY46DC6R5BOBC", "current_trial": 94, "dateTime": 1513195022343, "trialdata": {"rt": -1000, "stimulus": "/static/audio/wordpool/COWBOY.wav", "key_press": -1, "type": "PRES_AUD", "word": "cowboy", "wordID": 394, "conditions": [24, 800, "a", 24000], "trial": 2, "serialpos": 5, "trial_type": "single-audio", "trial_index": 94, "time_elapsed": 509022, "internal_node_id": "0.0-67.0"}}, {"uniqueid": "MTK1142:3OONKJ5DKDQQ38G59ZY46DC6R5BOBC", "current_trial": 95, "dateTime": 1513195024106, "trialdata": {"rt": -1000, "stimulus": "/static/audio/wordpool/HUSBAND.wav", "key_press": -1, "type": "PRES_AUD", "word": "husband", "wordID": 727, "conditions": [24, 800, "a", 24000], "trial": 2, "serialpos": 6, "trial_type": "single-audio", "trial_index": 95, "time_elapsed": 510785, "internal_node_id": "0.0-68.0"}}, {"uniqueid": "MTK1142:3OONKJ5DKDQQ38G59ZY46DC6R5BOBC", "current_trial": 96, "dateTime": 1513195026034, "trialdata": {"rt": -1000, "stimulus": "/static/audio/wordpool/BURGLAR.wav", "key_press": -1, "type": "PRES_AUD", "word": "burglar", "wordID": 199, "conditions": [24, 800, "a", 24000], "trial": 2, "serialpos": 7, "trial_type": "single-audio", "trial_index": 96, "time_elapsed": 512713, "internal_node_id": "0.0-69.0"}}, {"uniqueid": "MTK1142:3OONKJ5DKDQQ38G59ZY46DC6R5BOBC", "current_trial": 97, "dateTime": 1513195027811, "trialdata": {"rt": -1000, "stimulus": "/static/audio/wordpool/GRILL.wav", "key_press": -1, "type": "PRES_AUD", "word": "grill", "wordID": 660, "conditions": [24, 800, "a", 24000], "trial": 2, "serialpos": 8, "trial_type": "single-audio", "trial_index": 97, "time_elapsed": 514490, "internal_node_id": "0.0-70.0"}}, {"uniqueid": "MTK1142:3OONKJ5DKDQQ38G59ZY46DC6R5BOBC", "current_trial": 98, "dateTime": 1513195029574, "trialdata": {"rt": -1000, "stimulus": "/static/audio/wordpool/PEPPER.wav", "key_press": -1, "type": "PRES_AUD", "word": "pepper", "wordID": 1046, "conditions": [24, 800, "a", 24000], "trial": 2, "serialpos": 9, "trial_type": "single-audio", "trial_index": 98, "time_elapsed": 516253, "internal_node_id": "0.0-71.0"}}, {"uniqueid": "MTK1142:3OONKJ5DKDQQ38G59ZY46DC6R5BOBC", "current_trial": 99, "dateTime": 1513195031365, "trialdata": {"rt": -1000, "stimulus": "/static/audio/wordpool/STICKER.wav", "key_press": -1, "type": "PRES_AUD", "word": "sticker", "wordID": 1381, "conditions": [24, 800, "a", 24000], "trial": 2, "serialpos": 10, "trial_type": "single-audio", "trial_index": 99, "time_elapsed": 518044, "internal_node_id": "0.0-72.0"}}, {"uniqueid": "MTK1142:3OONKJ5DKDQQ38G59ZY46DC6R5BOBC", "current_trial": 100, "dateTime": 1513195032992, "trialdata": {"rt": -1000, "stimulus": "/static/audio/wordpool/SISTER.wav", "key_press": -1, "type": "PRES_AUD", "word": "sister", "wordID": 1311, "conditions": [24, 800, "a", 24000], "trial": 2, "serialpos": 11, "trial_type": "single-audio", "trial_index": 100, "time_elapsed": 519671, "internal_node_id": "0.0-73.0"}}, {"uniqueid": "MTK1142:3OONKJ5DKDQQ38G59ZY46DC6R5BOBC", "current_trial": 101, "dateTime": 1513195034652, "trialdata": {"rt": -1000, "stimulus": "/static/audio/wordpool/CASHIER.wav", "key_press": -1, "type": "PRES_AUD", "word": "cashier", "wordID": 253, "conditions": [24, 800, "a", 24000], "trial": 2, "serialpos": 12, "trial_type": "single-audio", "trial_index": 101, "time_elapsed": 521331, "internal_node_id": "0.0-74.0"}}, {"uniqueid": "MTK1142:3OONKJ5DKDQQ38G59ZY46DC6R5BOBC", "current_trial": 102, "dateTime": 1513195036588, "trialdata": {"rt": -1000, "stimulus": "/static/audio/wordpool/CIGAR.wav", "key_press": -1, "type": "PRES_AUD", "word": "cigar", "wordID": 307, "conditions": [24, 800, "a", 24000], "trial": 2, "serialpos": 13, "trial_type": "single-audio", "trial_index": 102, "time_elapsed": 523267, "internal_node_id": "0.0-75.0"}}, {"uniqueid": "MTK1142:3OONKJ5DKDQQ38G59ZY46DC6R5BOBC", "current_trial": 103, "dateTime": 1513195038462, "trialdata": {"rt": -1000, "stimulus": "/static/audio/wordpool/CYCLONE.wav", "key_press": -1, "type": "PRES_AUD", "word": "cyclone", "wordID": 430, "conditions": [24, 800, "a", 24000], "trial": 2, "serialpos": 14, "trial_type": "single-audio", "trial_index": 103, "time_elapsed": 525141, "internal_node_id": "0.0-76.0"}}, {"uniqueid": "MTK1142:3OONKJ5DKDQQ38G59ZY46DC6R5BOBC", "current_trial": 104, "dateTime": 1513195040225, "trialdata": {"rt": -1000, "stimulus": "/static/audio/wordpool/CASHEW.wav", "key_press": -1, "type": "PRES_AUD", "word": "cashew", "wordID": 252, "conditions": [24, 800, "a", 24000], "trial": 2, "serialpos": 15, "trial_type": "single-audio", "trial_index": 104, "time_elapsed": 526904, "internal_node_id": "0.0-77.0"}}, {"uniqueid": "MTK1142:3OONKJ5DKDQQ38G59ZY46DC6R5BOBC", "current_trial": 105, "dateTime": 1513195041991, "trialdata": {"rt": -1000, "stimulus": "/static/audio/wordpool/WAITRESS.wav", "key_press": -1, "type": "PRES_AUD", "word": "waitress", "wordID": 1580, "conditions": [24, 800, "a", 24000], "trial": 2, "serialpos": 16, "trial_type": "single-audio", "trial_index": 105, "time_elapsed": 528670, "internal_node_id": "0.0-78.0"}}, {"uniqueid": "MTK1142:3OONKJ5DKDQQ38G59ZY46DC6R5BOBC", "current_trial": 106, "dateTime": 1513195043661, "trialdata": {"rt": -1000, "stimulus": "/static/audio/wordpool/CLOTHES.wav", "key_press": -1, "type": "PRES_AUD", "word": "clothes", "wordID": 326, "conditions": [24, 800, "a", 24000], "trial": 2, "serialpos": 17, "trial_type": "single-audio", "trial_index": 106, "time_elapsed": 530340, "internal_node_id": "0.0-79.0"}}, {"uniqueid": "MTK1142:3OONKJ5DKDQQ38G59ZY46DC6R5BOBC", "current_trial": 107, "dateTime": 1513195045583, "trialdata": {"rt": -1000, "stimulus": "/static/audio/wordpool/PIGEON.wav", "key_press": -1, "type": "PRES_AUD", "word": "pigeon", "wordID": 1064, "conditions": [24, 800, "a", 24000], "trial": 2, "serialpos": 18, "trial_type": "single-audio", "trial_index": 107, "time_elapsed": 532262, "internal_node_id": "0.0-80.0"}}, {"uniqueid": "MTK1142:3OONKJ5DKDQQ38G59ZY46DC6R5BOBC", "current_trial": 108, "dateTime": 1513195047566, "trialdata": {"rt": -1000, "stimulus": "/static/audio/wordpool/LEG.wav", "key_press": -1, "type": "PRES_AUD", "word": "leg", "wordID": 808, "conditions": [24, 800, "a", 24000], "trial": 2, "serialpos": 19, "trial_type": "single-audio", "trial_index": 108, "time_elapsed": 534245, "internal_node_id": "0.0-81.0"}}, {"uniqueid": "MTK1142:3OONKJ5DKDQQ38G59ZY46DC6R5BOBC", "current_trial": 109, "dateTime": 1513195049508, "trialdata": {"rt": -1000, "stimulus": "/static/audio/wordpool/SHOULDER.wav", "key_press": -1, "type": "PRES_AUD", "word": "shoulder", "wordID": 1293, "conditions": [24, 800, "a", 24000], "trial": 2, "serialpos": 20, "trial_type": "single-audio", "trial_index": 109, "time_elapsed": 536187, "internal_node_id": "0.0-82.0"}}, {"uniqueid": "MTK1142:3OONKJ5DKDQQ38G59ZY46DC6R5BOBC", "current_trial": 110, "dateTime": 1513195051490, "trialdata": {"rt": -1000, "stimulus": "/static/audio/wordpool/CAMEL.wav", "key_press": -1, "type": "PRES_AUD", "word": "camel", "wordID": 222, "conditions": [24, 800, "a", 24000], "trial": 2, "serialpos": 21, "trial_type": "single-audio", "trial_index": 110, "time_elapsed": 538169, "internal_node_id": "0.0-83.0"}}, {"uniqueid": "MTK1142:3OONKJ5DKDQQ38G59ZY46DC6R5BOBC", "current_trial": 111, "dateTime": 1513195053334, "trialdata": {"rt": -1000, "stimulus": "/static/audio/wordpool/TERMITE.wav", "key_press": -1, "type": "PRES_AUD", "word": "termite", "wordID": 1450, "conditions": [24, 800, "a", 24000], "trial": 2, "serialpos": 22, "trial_type": "single-audio", "trial_index": 111, "time_elapsed": 540013, "internal_node_id": "0.0-84.0"}}, {"uniqueid": "MTK1142:3OONKJ5DKDQQ38G59ZY46DC6R5BOBC", "current_trial": 112, "dateTime": 1513195055079, "trialdata": {"rt": -1000, "stimulus": "/static/audio/wordpool/BALLOON.wav", "key_press": -1, "type": "PRES_AUD", "word": "balloon", "wordID": 74, "conditions": [24, 800, "a", 24000], "trial": 2, "serialpos": 23, "trial_type": "single-audio", "trial_index": 112, "time_elapsed": 541758, "internal_node_id": "0.0-85.0"}}, {"uniqueid": "MTK1142:3OONKJ5DKDQQ38G59ZY46DC6R5BOBC", "current_trial": 113, "dateTime": 1513195056347, "trialdata": {"rt": -1, "stimulus": "", "key_press": -1, "type": "PRE_RECALL_DELAY", "trial_type": "single-stim", "trial_index": 113, "time_elapsed": 543026, "internal_node_id": "0.0-86.0-0.0"}}, {"uniqueid": "MTK1142:3OONKJ5DKDQQ38G59ZY46DC6R5BOBC", "current_trial": 114, "dateTime": 1513195056849, "trialdata": {"rt": -1000, "stimulus": "/static/audio/400Hz.wav", "key_press": -1, "type": "PRE_RECALL_ALERT", "trial_type": "single-audio", "trial_index": 114, "time_elapsed": 543527, "internal_node_id": "0.0-87.0"}}, {"uniqueid": "MTK1142:3OONKJ5DKDQQ38G59ZY46DC6R5BOBC", "current_trial": 115, "dateTime": 1513195116851, "trialdata": {"rt": [3602, 7162, 8282, 12106, 15099, 17665, 21034, 23778, 25114, 27275, 28372, 32250, 38322, 41691, 48115, 51002, 54265, 56634], "recwords": ["virus", "balloon", "termite", "camel", "cyclone", "cashew", "burgler", "convict", "bike", "sunrise", "sunset", "couboy", "pigen", "waitress", "husband", "pepper", "sticker", "grill"], "type": "FREE_RECALL", "conditions": [24, 800, "a", 24000], "trial": 2, "trial_type": "free-recall", "trial_index": 115, "time_elapsed": 603529, "internal_node_id": "0.0-88.0-0.0"}}, {"uniqueid": "MTK1142:3OONKJ5DKDQQ38G59ZY46DC6R5BOBC", "current_trial": 116, "dateTime": 1513195119706, "trialdata": {"rt": 853, "key_press": 32, "type": "INSTRUCTIONS", "trial_type": "text", "trial_index": 116, "time_elapsed": 606385, "internal_node_id": "0.0-89.0"}}, {"uniqueid": "MTK1142:3OONKJ5DKDQQ38G59ZY46DC6R5BOBC", "current_trial": 117, "dateTime": 1513195133710, "trialdata": {"rt": [3688, 5807, 9527], "responses": ["24", "10", "22"], "num1": [9, 2, 7, 7], "num2": [9, 7, 8, 9], "num3": [6, 1, 7, 8], "type": "DISTRACTOR", "conditions": [12, 1600, "a", 12000], "trial": 3, "trial_type": "math-distractor", "trial_index": 117, "time_elapsed": 620389, "internal_node_id": "0.0-90.0"}}, {"uniqueid": "MTK1142:3OONKJ5DKDQQ38G59ZY46DC6R5BOBC", "current_trial": 118, "dateTime": 1513195136711, "trialdata": {"rt": -1, "stimulus": "<p id=\"stim\">10</p>", "key_press": -1, "trial_type": "single-stim", "trial_index": 118, "time_elapsed": 623390, "internal_node_id": "0.0-91.0-0.0"}}, {"uniqueid": "MTK1142:3OONKJ5DKDQQ38G59ZY46DC6R5BOBC", "current_trial": 119, "dateTime": 1513195137713, "trialdata": {"rt": -1, "stimulus": "<p id=\"stim\">9</p>", "key_press": -1, "trial_type": "single-stim", "trial_index": 119, "time_elapsed": 624392, "internal_node_id": "0.0-91.0-1.0"}}, {"uniqueid": "MTK1142:3OONKJ5DKDQQ38G59ZY46DC6R5BOBC", "current_trial": 120, "dateTime": 1513195138713, "trialdata": {"rt": -1, "stimulus": "<p id=\"stim\">8</p>", "key_press": -1, "trial_type": "single-stim", "trial_index": 120, "time_elapsed": 625392, "internal_node_id": "0.0-91.0-2.0"}}, {"uniqueid": "MTK1142:3OONKJ5DKDQQ38G59ZY46DC6R5BOBC", "current_trial": 121, "dateTime": 1513195139714, "trialdata": {"rt": -1, "stimulus": "<p id=\"stim\">7</p>", "key_press": -1, "trial_type": "single-stim", "trial_index": 121, "time_elapsed": 626393, "internal_node_id": "0.0-91.0-3.0"}}, {"uniqueid": "MTK1142:3OONKJ5DKDQQ38G59ZY46DC6R5BOBC", "current_trial": 122, "dateTime": 1513195140717, "trialdata": {"rt": -1, "stimulus": "<p id=\"stim\">6</p>", "key_press": -1, "trial_type": "single-stim", "trial_index": 122, "time_elapsed": 627396, "internal_node_id": "0.0-91.0-4.0"}}, {"uniqueid": "MTK1142:3OONKJ5DKDQQ38G59ZY46DC6R5BOBC", "current_trial": 123, "dateTime": 1513195141718, "trialdata": {"rt": -1, "stimulus": "<p id=\"stim\">5</p>", "key_press": -1, "trial_type": "single-stim", "trial_index": 123, "time_elapsed": 628396, "internal_node_id": "0.0-91.0-5.0"}}, {"uniqueid": "MTK1142:3OONKJ5DKDQQ38G59ZY46DC6R5BOBC", "current_trial": 124, "dateTime": 1513195142719, "trialdata": {"rt": -1, "stimulus": "<p id=\"stim\">4</p>", "key_press": -1, "trial_type": "single-stim", "trial_index": 124, "time_elapsed": 629398, "internal_node_id": "0.0-91.0-6.0"}}, {"uniqueid": "MTK1142:3OONKJ5DKDQQ38G59ZY46DC6R5BOBC", "current_trial": 125, "dateTime": 1513195143720, "trialdata": {"rt": -1, "stimulus": "<p id=\"stim\">3</p>", "key_press": -1, "trial_type": "single-stim", "trial_index": 125, "time_elapsed": 630399, "internal_node_id": "0.0-91.0-7.0"}}, {"uniqueid": "MTK1142:3OONKJ5DKDQQ38G59ZY46DC6R5BOBC", "current_trial": 126, "dateTime": 1513195144724, "trialdata": {"rt": -1, "stimulus": "<p id=\"stim\">2</p>", "key_press": -1, "trial_type": "single-stim", "trial_index": 126, "time_elapsed": 631403, "internal_node_id": "0.0-91.0-8.0"}}, {"uniqueid": "MTK1142:3OONKJ5DKDQQ38G59ZY46DC6R5BOBC", "current_trial": 127, "dateTime": 1513195145725, "trialdata": {"rt": -1, "stimulus": "<p id=\"stim\">1</p>", "key_press": -1, "trial_type": "single-stim", "trial_index": 127, "time_elapsed": 632404, "internal_node_id": "0.0-91.0-9.0"}}, {"uniqueid": "MTK1142:3OONKJ5DKDQQ38G59ZY46DC6R5BOBC", "current_trial": 128, "dateTime": 1513195147227, "trialdata": {"rt": -1, "stimulus": "<p id=\"stim\">+</p>", "key_press": -1, "type": "FIXATION", "trial_type": "single-stim", "trial_index": 128, "time_elapsed": 633906, "internal_node_id": "0.0-92.0-0.0"}}, {"uniqueid": "MTK1142:3OONKJ5DKDQQ38G59ZY46DC6R5BOBC", "current_trial": 129, "dateTime": 1513195149983, "trialdata": {"rt": -1000, "stimulus": "/static/audio/wordpool/FIREPLACE.wav", "key_press": -1, "type": "PRES_AUD", "word": "fireplace", "wordID": 569, "conditions": [12, 1600, "a", 12000], "trial": 3, "serialpos": 0, "trial_type": "single-audio", "trial_index": 129, "time_elapsed": 636662, "internal_node_id": "0.0-93.0"}}, {"uniqueid": "MTK1142:3OONKJ5DKDQQ38G59ZY46DC6R5BOBC", "current_trial": 130, "dateTime": 1513195152764, "trialdata": {"rt": -1000, "stimulus": "/static/audio/wordpool/FOREST.wav", "key_press": -1, "type": "PRES_AUD", "word": "forest", "wordID": 592, "conditions": [12, 1600, "a", 12000], "trial": 3, "serialpos": 1, "trial_type": "single-audio", "trial_index": 130, "time_elapsed": 639443, "internal_node_id": "0.0-94.0"}}, {"uniqueid": "MTK1142:3OONKJ5DKDQQ38G59ZY46DC6R5BOBC", "current_trial": 131, "dateTime": 1513195155543, "trialdata": {"rt": -1000, "stimulus": "/static/audio/wordpool/PACKAGE.wav", "key_press": -1, "type": "PRES_AUD", "word": "package", "wordID": 996, "conditions": [12, 1600, "a", 12000], "trial": 3, "serialpos": 2, "trial_type": "single-audio", "trial_index": 131, "time_elapsed": 642222, "internal_node_id": "0.0-95.0"}}, {"uniqueid": "MTK1142:3OONKJ5DKDQQ38G59ZY46DC6R5BOBC", "current_trial": 132, "dateTime": 1513195157999, "trialdata": {"rt": -1000, "stimulus": "/static/audio/wordpool/GLOVE.wav", "key_press": -1, "type": "PRES_AUD", "word": "glove", "wordID": 641, "conditions": [12, 1600, "a", 12000], "trial": 3, "serialpos": 3, "trial_type": "single-audio", "trial_index": 132, "time_elapsed": 644678, "internal_node_id": "0.0-96.0"}}, {"uniqueid": "MTK1142:3OONKJ5DKDQQ38G59ZY46DC6R5BOBC", "current_trial": 133, "dateTime": 1513195160557, "trialdata": {"rt": -1000, "stimulus": "/static/audio/wordpool/CLIMBER.wav", "key_press": -1, "type": "PRES_AUD", "word": "climber", "wordID": 322, "conditions": [12, 1600, "a", 12000], "trial": 3, "serialpos": 4, "trial_type": "single-audio", "trial_index": 133, "time_elapsed": 647236, "internal_node_id": "0.0-97.0"}}, {"uniqueid": "MTK1142:3OONKJ5DKDQQ38G59ZY46DC6R5BOBC", "current_trial": 134, "dateTime": 1513195163281, "trialdata": {"rt": -1000, "stimulus": "/static/audio/wordpool/CANYON.wav", "key_press": -1, "type": "PRES_AUD", "word": "canyon", "wordID": 234, "conditions": [12, 1600, "a", 12000], "trial": 3, "serialpos": 5, "trial_type": "single-audio", "trial_index": 134, "time_elapsed": 649960, "internal_node_id": "0.0-98.0"}}, {"uniqueid": "MTK1142:3OONKJ5DKDQQ38G59ZY46DC6R5BOBC", "current_trial": 135, "dateTime": 1513195165759, "trialdata": {"rt": -1000, "stimulus": "/static/audio/wordpool/VALVE.wav", "key_press": -1, "type": "PRES_AUD", "word": "valve", "wordID": 1545, "conditions": [12, 1600, "a", 12000], "trial": 3, "serialpos": 6, "trial_type": "single-audio", "trial_index": 135, "time_elapsed": 652438, "internal_node_id": "0.0-99.0"}}, {"uniqueid": "MTK1142:3OONKJ5DKDQQ38G59ZY46DC6R5BOBC", "current_trial": 136, "dateTime": 1513195168469, "trialdata": {"rt": -1000, "stimulus": "/static/audio/wordpool/HIKER.wav", "key_press": -1, "type": "PRES_AUD", "word": "hiker", "wordID": 707, "conditions": [12, 1600, "a", 12000], "trial": 3, "serialpos": 7, "trial_type": "single-audio", "trial_index": 136, "time_elapsed": 655148, "internal_node_id": "0.0-100.0"}}, {"uniqueid": "MTK1142:3OONKJ5DKDQQ38G59ZY46DC6R5BOBC", "current_trial": 137, "dateTime": 1513195171209, "trialdata": {"rt": -1000, "stimulus": "/static/audio/wordpool/SWIMMER.wav", "key_press": -1, "type": "PRES_AUD", "word": "swimmer", "wordID": 1419, "conditions": [12, 1600, "a", 12000], "trial": 3, "serialpos": 8, "trial_type": "single-audio", "trial_index": 137, "time_elapsed": 657888, "internal_node_id": "0.0-101.0"}}, {"uniqueid": "MTK1142:3OONKJ5DKDQQ38G59ZY46DC6R5BOBC", "current_trial": 138, "dateTime": 1513195173701, "trialdata": {"rt": -1000, "stimulus": "/static/audio/wordpool/GYMNAST.wav", "key_press": -1, "type": "PRES_AUD", "word": "gymnast", "wordID": 674, "conditions": [12, 1600, "a", 12000], "trial": 3, "serialpos": 9, "trial_type": "single-audio", "trial_index": 138, "time_elapsed": 660380, "internal_node_id": "0.0-102.0"}}, {"uniqueid": "MTK1142:3OONKJ5DKDQQ38G59ZY46DC6R5BOBC", "current_trial": 139, "dateTime": 1513195176132, "trialdata": {"rt": -1000, "stimulus": "/static/audio/wordpool/DOLPHIN.wav", "key_press": -1, "type": "PRES_AUD", "word": "dolphin", "wordID": 482, "conditions": [12, 1600, "a", 12000], "trial": 3, "serialpos": 10, "trial_type": "single-audio", "trial_index": 139, "time_elapsed": 662811, "internal_node_id": "0.0-103.0"}}, {"uniqueid": "MTK1142:3OONKJ5DKDQQ38G59ZY46DC6R5BOBC", "current_trial": 140, "dateTime": 1513195178810, "trialdata": {"rt": -1000, "stimulus": "/static/audio/wordpool/CANAL.wav", "key_press": -1, "type": "PRES_AUD", "word": "canal", "wordID": 225, "conditions": [12, 1600, "a", 12000], "trial": 3, "serialpos": 11, "trial_type": "single-audio", "trial_index": 140, "time_elapsed": 665489, "internal_node_id": "0.0-104.0"}}, {"uniqueid": "MTK1142:3OONKJ5DKDQQ38G59ZY46DC6R5BOBC", "current_trial": 141, "dateTime": 1513195180037, "trialdata": {"rt": -1, "stimulus": "", "key_press": -1, "type": "PRE_RECALL_DELAY", "trial_type": "single-stim", "trial_index": 141, "time_elapsed": 666716, "internal_node_id": "0.0-105.0-0.0"}}, {"uniqueid": "MTK1142:3OONKJ5DKDQQ38G59ZY46DC6R5BOBC", "current_trial": 142, "dateTime": 1513195180538, "trialdata": {"rt": -1000, "stimulus": "/static/audio/400Hz.wav", "key_press": -1, "type": "PRE_RECALL_ALERT", "trial_type": "single-audio", "trial_index": 142, "time_elapsed": 667217, "internal_node_id": "0.0-106.0"}}, {"uniqueid": "MTK1142:3OONKJ5DKDQQ38G59ZY46DC6R5BOBC", "current_trial": 143, "dateTime": 1513195240542, "trialdata": {"rt": [3208, 4905, 7930, 10401, 13376, 15936, 19072, 21248, 22176, 50120], "recwords": ["fireplace", "forest", "package", "glove", "hicker", "swimmer", "gymnast", "dolphin", "canal", "canyon"], "type": "FREE_RECALL", "conditions": [12, 1600, "a", 12000], "trial": 3, "trial_type": "free-recall", "trial_index": 143, "time_elapsed": 727219, "internal_node_id": "0.0-107.0-0.0"}}, {"uniqueid": "MTK1142:3OONKJ5DKDQQ38G59ZY46DC6R5BOBC", "current_trial": 144, "dateTime": 1513195243347, "trialdata": {"rt": 804, "key_press": 32, "type": "INSTRUCTIONS", "trial_type": "text", "trial_index": 144, "time_elapsed": 730026, "internal_node_id": "0.0-108.0"}}, {"uniqueid": "MTK1142:3OONKJ5DKDQQ38G59ZY46DC6R5BOBC", "current_trial": 145, "dateTime": 1513195269351, "trialdata": {"rt": [3581, 4918, 9007, 12837, 14893, 16973, 19022, 20638, 22534], "responses": ["25", "5", "14", "19", "13", "12", "11", "8", "12"], "num1": [7, 3, 3, 6, 2, 1, 2, 6, 3, 2], "num2": [9, 1, 6, 8, 8, 3, 6, 1, 6, 3], "num3": [9, 1, 5, 5, 3, 8, 3, 1, 3, 1], "type": "DISTRACTOR", "conditions": [12, 800, "a", 24000], "trial": 4, "trial_type": "math-distractor", "trial_index": 145, "time_elapsed": 756030, "internal_node_id": "0.0-109.0"}}, {"uniqueid": "MTK1142:3OONKJ5DKDQQ38G59ZY46DC6R5BOBC", "current_trial": 146, "dateTime": 1513195272354, "trialdata": {"rt": -1, "stimulus": "<p id=\"stim\">10</p>", "key_press": -1, "trial_type": "single-stim", "trial_index": 146, "time_elapsed": 759033, "internal_node_id": "0.0-110.0-0.0"}}, {"uniqueid": "MTK1142:3OONKJ5DKDQQ38G59ZY46DC6R5BOBC", "current_trial": 147, "dateTime": 1513195273355, "trialdata": {"rt": -1, "stimulus": "<p id=\"stim\">9</p>", "key_press": -1, "trial_type": "single-stim", "trial_index": 147, "time_elapsed": 760034, "internal_node_id": "0.0-110.0-1.0"}}, {"uniqueid": "MTK1142:3OONKJ5DKDQQ38G59ZY46DC6R5BOBC", "current_trial": 148, "dateTime": 1513195274356, "trialdata": {"rt": -1, "stimulus": "<p id=\"stim\">8</p>", "key_press": -1, "trial_type": "single-stim", "trial_index": 148, "time_elapsed": 761035, "internal_node_id": "0.0-110.0-2.0"}}, {"uniqueid": "MTK1142:3OONKJ5DKDQQ38G59ZY46DC6R5BOBC", "current_trial": 149, "dateTime": 1513195275358, "trialdata": {"rt": -1, "stimulus": "<p id=\"stim\">7</p>", "key_press": -1, "trial_type": "single-stim", "trial_index": 149, "time_elapsed": 762037, "internal_node_id": "0.0-110.0-3.0"}}, {"uniqueid": "MTK1142:3OONKJ5DKDQQ38G59ZY46DC6R5BOBC", "current_trial": 150, "dateTime": 1513195276360, "trialdata": {"rt": -1, "stimulus": "<p id=\"stim\">6</p>", "key_press": -1, "trial_type": "single-stim", "trial_index": 150, "time_elapsed": 763039, "internal_node_id": "0.0-110.0-4.0"}}, {"uniqueid": "MTK1142:3OONKJ5DKDQQ38G59ZY46DC6R5BOBC", "current_trial": 151, "dateTime": 1513195277360, "trialdata": {"rt": -1, "stimulus": "<p id=\"stim\">5</p>", "key_press": -1, "trial_type": "single-stim", "trial_index": 151, "time_elapsed": 764039, "internal_node_id": "0.0-110.0-5.0"}}, {"uniqueid": "MTK1142:3OONKJ5DKDQQ38G59ZY46DC6R5BOBC", "current_trial": 152, "dateTime": 1513195278361, "trialdata": {"rt": -1, "stimulus": "<p id=\"stim\">4</p>", "key_press": -1, "trial_type": "single-stim", "trial_index": 152, "time_elapsed": 765040, "internal_node_id": "0.0-110.0-6.0"}}, {"uniqueid": "MTK1142:3OONKJ5DKDQQ38G59ZY46DC6R5BOBC", "current_trial": 153, "dateTime": 1513195279363, "trialdata": {"rt": -1, "stimulus": "<p id=\"stim\">3</p>", "key_press": -1, "trial_type": "single-stim", "trial_index": 153, "time_elapsed": 766042, "internal_node_id": "0.0-110.0-7.0"}}, {"uniqueid": "MTK1142:3OONKJ5DKDQQ38G59ZY46DC6R5BOBC", "current_trial": 154, "dateTime": 1513195280363, "trialdata": {"rt": -1, "stimulus": "<p id=\"stim\">2</p>", "key_press": -1, "trial_type": "single-stim", "trial_index": 154, "time_elapsed": 767042, "internal_node_id": "0.0-110.0-8.0"}}, {"uniqueid": "MTK1142:3OONKJ5DKDQQ38G59ZY46DC6R5BOBC", "current_trial": 155, "dateTime": 1513195281365, "trialdata": {"rt": -1, "stimulus": "<p id=\"stim\">1</p>", "key_press": -1, "trial_type": "single-stim", "trial_index": 155, "time_elapsed": 768044, "internal_node_id": "0.0-110.0-9.0"}}, {"uniqueid": "MTK1142:3OONKJ5DKDQQ38G59ZY46DC6R5BOBC", "current_trial": 156, "dateTime": 1513195282867, "trialdata": {"rt": -1, "stimulus": "<p id=\"stim\">+</p>", "key_press": -1, "type": "FIXATION", "trial_type": "single-stim", "trial_index": 156, "time_elapsed": 769546, "internal_node_id": "0.0-111.0-0.0"}}, {"uniqueid": "MTK1142:3OONKJ5DKDQQ38G59ZY46DC6R5BOBC", "current_trial": 157, "dateTime": 1513195284610, "trialdata": {"rt": -1000, "stimulus": "/static/audio/wordpool/PIMPLE.wav", "key_press": -1, "type": "PRES_AUD", "word": "pimple", "wordID": 1070, "conditions": [12, 800, "a", 24000], "trial": 4, "serialpos": 0, "trial_type": "single-audio", "trial_index": 157, "time_elapsed": 771289, "internal_node_id": "0.0-112.0"}}, {"uniqueid": "MTK1142:3OONKJ5DKDQQ38G59ZY46DC6R5BOBC", "current_trial": 158, "dateTime": 1513195286493, "trialdata": {"rt": -1000, "stimulus": "/static/audio/wordpool/PORK.wav", "key_press": -1, "type": "PRES_AUD", "word": "pork", "wordID": 1107, "conditions": [12, 800, "a", 24000], "trial": 4, "serialpos": 1, "trial_type": "single-audio", "trial_index": 158, "time_elapsed": 773172, "internal_node_id": "0.0-113.0"}}, {"uniqueid": "MTK1142:3OONKJ5DKDQQ38G59ZY46DC6R5BOBC", "current_trial": 159, "dateTime": 1513195288312, "trialdata": {"rt": -1000, "stimulus": "/static/audio/wordpool/COD.wav", "key_press": -1, "type": "PRES_AUD", "word": "cod", "wordID": 339, "conditions": [12, 800, "a", 24000], "trial": 4, "serialpos": 2, "trial_type": "single-audio", "trial_index": 159, "time_elapsed": 774991, "internal_node_id": "0.0-114.0"}}, {"uniqueid": "MTK1142:3OONKJ5DKDQQ38G59ZY46DC6R5BOBC", "current_trial": 160, "dateTime": 1513195290246, "trialdata": {"rt": -1000, "stimulus": "/static/audio/wordpool/CHAPEL.wav", "key_press": -1, "type": "PRES_AUD", "word": "chapel", "wordID": 279, "conditions": [12, 800, "a", 24000], "trial": 4, "serialpos": 3, "trial_type": "single-audio", "trial_index": 160, "time_elapsed": 776925, "internal_node_id": "0.0-115.0"}}, {"uniqueid": "MTK1142:3OONKJ5DKDQQ38G59ZY46DC6R5BOBC", "current_trial": 161, "dateTime": 1513195292024, "trialdata": {"rt": -1000, "stimulus": "/static/audio/wordpool/COCOON.wav", "key_press": -1, "type": "PRES_AUD", "word": "cocoon", "wordID": 338, "conditions": [12, 800, "a", 24000], "trial": 4, "serialpos": 4, "trial_type": "single-audio", "trial_index": 161, "time_elapsed": 778703, "internal_node_id": "0.0-116.0"}}, {"uniqueid": "MTK1142:3OONKJ5DKDQQ38G59ZY46DC6R5BOBC", "current_trial": 162, "dateTime": 1513195294015, "trialdata": {"rt": -1000, "stimulus": "/static/audio/wordpool/SALMON.wav", "key_press": -1, "type": "PRES_AUD", "word": "salmon", "wordID": 1226, "conditions": [12, 800, "a", 24000], "trial": 4, "serialpos": 5, "trial_type": "single-audio", "trial_index": 162, "time_elapsed": 780694, "internal_node_id": "0.0-117.0"}}, {"uniqueid": "MTK1142:3OONKJ5DKDQQ38G59ZY46DC6R5BOBC", "current_trial": 163, "dateTime": 1513195296001, "trialdata": {"rt": -1000, "stimulus": "/static/audio/wordpool/AWARD.wav", "key_press": -1, "type": "PRES_AUD", "word": "award", "wordID": 62, "conditions": [12, 800, "a", 24000], "trial": 4, "serialpos": 6, "trial_type": "single-audio", "trial_index": 163, "time_elapsed": 782680, "internal_node_id": "0.0-118.0"}}, {"uniqueid": "MTK1142:3OONKJ5DKDQQ38G59ZY46DC6R5BOBC", "current_trial": 164, "dateTime": 1513195297771, "trialdata": {"rt": -1000, "stimulus": "/static/audio/wordpool/CUPBOARD.wav", "key_press": -1, "type": "PRES_AUD", "word": "cupboard", "wordID": 424, "conditions": [12, 800, "a", 24000], "trial": 4, "serialpos": 7, "trial_type": "single-audio", "trial_index": 164, "time_elapsed": 784450, "internal_node_id": "0.0-119.0"}}, {"uniqueid": "MTK1142:3OONKJ5DKDQQ38G59ZY46DC6R5BOBC", "current_trial": 165, "dateTime": 1513195299385, "trialdata": {"rt": -1000, "stimulus": "/static/audio/wordpool/KITCHEN.wav", "key_press": -1, "type": "PRES_AUD", "word": "kitchen", "wordID": 777, "conditions": [12, 800, "a", 24000], "trial": 4, "serialpos": 8, "trial_type": "single-audio", "trial_index": 165, "time_elapsed": 786064, "internal_node_id": "0.0-120.0"}}, {"uniqueid": "MTK1142:3OONKJ5DKDQQ38G59ZY46DC6R5BOBC", "current_trial": 166, "dateTime": 1513195301072, "trialdata": {"rt": -1000, "stimulus": "/static/audio/wordpool/RATTLE.wav", "key_press": -1, "type": "PRES_AUD", "word": "rattle", "wordID": 1169, "conditions": [12, 800, "a", 24000], "trial": 4, "serialpos": 9, "trial_type": "single-audio", "trial_index": 166, "time_elapsed": 787751, "internal_node_id": "0.0-121.0"}}, {"uniqueid": "MTK1142:3OONKJ5DKDQQ38G59ZY46DC6R5BOBC", "current_trial": 167, "dateTime": 1513195302875, "trialdata": {"rt": -1000, "stimulus": "/static/audio/wordpool/CRAB.wav", "key_press": -1, "type": "PRES_AUD", "word": "crab", "wordID": 396, "conditions": [12, 800, "a", 24000], "trial": 4, "serialpos": 10, "trial_type": "single-audio", "trial_index": 167, "time_elapsed": 789554, "internal_node_id": "0.0-122.0"}}, {"uniqueid": "MTK1142:3OONKJ5DKDQQ38G59ZY46DC6R5BOBC", "current_trial": 168, "dateTime": 1513195304576, "trialdata": {"rt": -1000, "stimulus": "/static/audio/wordpool/CONTRACT.wav", "key_press": -1, "type": "PRES_AUD", "word": "contract", "wordID": 367, "conditions": [12, 800, "a", 24000], "trial": 4, "serialpos": 11, "trial_type": "single-audio", "trial_index": 168, "time_elapsed": 791255, "internal_node_id": "0.0-123.0"}}, {"uniqueid": "MTK1142:3OONKJ5DKDQQ38G59ZY46DC6R5BOBC", "current_trial": 169, "dateTime": 1513195305866, "trialdata": {"rt": -1, "stimulus": "", "key_press": -1, "type": "PRE_RECALL_DELAY", "trial_type": "single-stim", "trial_index": 169, "time_elapsed": 792545, "internal_node_id": "0.0-124.0-0.0"}}, {"uniqueid": "MTK1142:3OONKJ5DKDQQ38G59ZY46DC6R5BOBC", "current_trial": 170, "dateTime": 1513195306368, "trialdata": {"rt": -1000, "stimulus": "/static/audio/400Hz.wav", "key_press": -1, "type": "PRE_RECALL_ALERT", "trial_type": "single-audio", "trial_index": 170, "time_elapsed": 793047, "internal_node_id": "0.0-125.0"}}, {"uniqueid": "MTK1142:3OONKJ5DKDQQ38G59ZY46DC6R5BOBC", "current_trial": 171, "dateTime": 1513195366370, "trialdata": {"rt": [3723, 4555, 7659, 10138, 12764, 15844, 16875, 19732, 21194, 23986, 26443, 31275], "recwords": ["contract", "crab", "rattle", "kitchen", "pimple", "pork", "card", "caccoon", "chapel", "salmon", "award", "cuppard"], "type": "FREE_RECALL", "conditions": [12, 800, "a", 24000], "trial": 4, "trial_type": "free-recall", "trial_index": 171, "time_elapsed": 853048, "internal_node_id": "0.0-126.0-0.0"}}, {"uniqueid": "MTK1142:3OONKJ5DKDQQ38G59ZY46DC6R5BOBC", "current_trial": 172, "dateTime": 1513195371357, "trialdata": {"rt": 2985, "key_press": 32, "type": "INSTRUCTIONS", "trial_type": "text", "trial_index": 172, "time_elapsed": 858036, "internal_node_id": "0.0-127.0"}}, {"uniqueid": "MTK1142:3OONKJ5DKDQQ38G59ZY46DC6R5BOBC", "current_trial": 173, "dateTime": 1513195397360, "trialdata": {"rt": [3237, 6644, 10700, 12965, 14558, 16692, 19037, 23405], "responses": ["12", "12", "18", "15", "8", "19", "13", "19"], "num1": [5, 4, 4, 8, 1, 8, 6, 2, 6], "num2": [1, 4, 8, 4, 6, 8, 6, 9, 6], "num3": [6, 4, 6, 3, 1, 3, 1, 8, 5], "type": "DISTRACTOR", "conditions": [24, 1600, "a", 24000], "trial": 5, "trial_type": "math-distractor", "trial_index": 173, "time_elapsed": 884039, "internal_node_id": "0.0-128.0"}}, {"uniqueid": "MTK1142:3OONKJ5DKDQQ38G59ZY46DC6R5BOBC", "current_trial": 174, "dateTime": 1513195400362, "trialdata": {"rt": -1, "stimulus": "<p id=\"stim\">10</p>", "key_press": -1, "trial_type": "single-stim", "trial_index": 174, "time_elapsed": 887040, "internal_node_id": "0.0-129.0-0.0"}}, {"uniqueid": "MTK1142:3OONKJ5DKDQQ38G59ZY46DC6R5BOBC", "current_trial": 175, "dateTime": 1513195401362, "trialdata": {"rt": -1, "stimulus": "<p id=\"stim\">9</p>", "key_press": -1, "trial_type": "single-stim", "trial_index": 175, "time_elapsed": 888041, "internal_node_id": "0.0-129.0-1.0"}}, {"uniqueid": "MTK1142:3OONKJ5DKDQQ38G59ZY46DC6R5BOBC", "current_trial": 176, "dateTime": 1513195402363, "trialdata": {"rt": -1, "stimulus": "<p id=\"stim\">8</p>", "key_press": -1, "trial_type": "single-stim", "trial_index": 176, "time_elapsed": 889042, "internal_node_id": "0.0-129.0-2.0"}}, {"uniqueid": "MTK1142:3OONKJ5DKDQQ38G59ZY46DC6R5BOBC", "current_trial": 177, "dateTime": 1513195403366, "trialdata": {"rt": -1, "stimulus": "<p id=\"stim\">7</p>", "key_press": -1, "trial_type": "single-stim", "trial_index": 177, "time_elapsed": 890045, "internal_node_id": "0.0-129.0-3.0"}}, {"uniqueid": "MTK1142:3OONKJ5DKDQQ38G59ZY46DC6R5BOBC", "current_trial": 178, "dateTime": 1513195404367, "trialdata": {"rt": -1, "stimulus": "<p id=\"stim\">6</p>", "key_press": -1, "trial_type": "single-stim", "trial_index": 178, "time_elapsed": 891046, "internal_node_id": "0.0-129.0-4.0"}}, {"uniqueid": "MTK1142:3OONKJ5DKDQQ38G59ZY46DC6R5BOBC", "current_trial": 179, "dateTime": 1513195405368, "trialdata": {"rt": -1, "stimulus": "<p id=\"stim\">5</p>", "key_press": -1, "trial_type": "single-stim", "trial_index": 179, "time_elapsed": 892047, "internal_node_id": "0.0-129.0-5.0"}}, {"uniqueid": "MTK1142:3OONKJ5DKDQQ38G59ZY46DC6R5BOBC", "current_trial": 180, "dateTime": 1513195406370, "trialdata": {"rt": -1, "stimulus": "<p id=\"stim\">4</p>", "key_press": -1, "trial_type": "single-stim", "trial_index": 180, "time_elapsed": 893049, "internal_node_id": "0.0-129.0-6.0"}}, {"uniqueid": "MTK1142:3OONKJ5DKDQQ38G59ZY46DC6R5BOBC", "current_trial": 181, "dateTime": 1513195407372, "trialdata": {"rt": -1, "stimulus": "<p id=\"stim\">3</p>", "key_press": -1, "trial_type": "single-stim", "trial_index": 181, "time_elapsed": 894051, "internal_node_id": "0.0-129.0-7.0"}}, {"uniqueid": "MTK1142:3OONKJ5DKDQQ38G59ZY46DC6R5BOBC", "current_trial": 182, "dateTime": 1513195408374, "trialdata": {"rt": -1, "stimulus": "<p id=\"stim\">2</p>", "key_press": -1, "trial_type": "single-stim", "trial_index": 182, "time_elapsed": 895053, "internal_node_id": "0.0-129.0-8.0"}}, {"uniqueid": "MTK1142:3OONKJ5DKDQQ38G59ZY46DC6R5BOBC", "current_trial": 183, "dateTime": 1513195409375, "trialdata": {"rt": -1, "stimulus": "<p id=\"stim\">1</p>", "key_press": -1, "trial_type": "single-stim", "trial_index": 183, "time_elapsed": 896054, "internal_node_id": "0.0-129.0-9.0"}}, {"uniqueid": "MTK1142:3OONKJ5DKDQQ38G59ZY46DC6R5BOBC", "current_trial": 184, "dateTime": 1513195410877, "trialdata": {"rt": -1, "stimulus": "<p id=\"stim\">+</p>", "key_press": -1, "type": "FIXATION", "trial_type": "single-stim", "trial_index": 184, "time_elapsed": 897556, "internal_node_id": "0.0-130.0-0.0"}}, {"uniqueid": "MTK1142:3OONKJ5DKDQQ38G59ZY46DC6R5BOBC", "current_trial": 185, "dateTime": 1513195413557, "trialdata": {"rt": -1000, "stimulus": "/static/audio/wordpool/BUTCHER.wav", "key_press": -1, "type": "PRES_AUD", "word": "butcher", "wordID": 202, "conditions": [24, 1600, "a", 24000], "trial": 5, "serialpos": 0, "trial_type": "single-audio", "trial_index": 185, "time_elapsed": 900236, "internal_node_id": "0.0-131.0"}}, {"uniqueid": "MTK1142:3OONKJ5DKDQQ38G59ZY46DC6R5BOBC", "current_trial": 186, "dateTime": 1513195416209, "trialdata": {"rt": -1000, "stimulus": "/static/audio/wordpool/INMATE.wav", "key_press": -1, "type": "PRES_AUD", "word": "inmate", "wordID": 737, "conditions": [24, 1600, "a", 24000], "trial": 5, "serialpos": 1, "trial_type": "single-audio", "trial_index": 186, "time_elapsed": 902888, "internal_node_id": "0.0-132.0"}}, {"uniqueid": "MTK1142:3OONKJ5DKDQQ38G59ZY46DC6R5BOBC", "current_trial": 187, "dateTime": 1513195418804, "trialdata": {"rt": -1000, "stimulus": "/static/audio/wordpool/WITNESS.wav", "key_press": -1, "type": "PRES_AUD", "word": "witness", "wordID": 1617, "conditions": [24, 1600, "a", 24000], "trial": 5, "serialpos": 2, "trial_type": "single-audio", "trial_index": 187, "time_elapsed": 905483, "internal_node_id": "0.0-133.0"}}, {"uniqueid": "MTK1142:3OONKJ5DKDQQ38G59ZY46DC6R5BOBC", "current_trial": 188, "dateTime": 1513195421562, "trialdata": {"rt": -1000, "stimulus": "/static/audio/wordpool/POLICE.wav", "key_press": -1, "type": "PRES_AUD", "word": "police", "wordID": 1097, "conditions": [24, 1600, "a", 24000], "trial": 5, "serialpos": 3, "trial_type": "single-audio", "trial_index": 188, "time_elapsed": 908241, "internal_node_id": "0.0-134.0"}}, {"uniqueid": "MTK1142:3OONKJ5DKDQQ38G59ZY46DC6R5BOBC", "current_trial": 189, "dateTime": 1513195424198, "trialdata": {"rt": -1000, "stimulus": "/static/audio/wordpool/PATROL.wav", "key_press": -1, "type": "PRES_AUD", "word": "patrol", "wordID": 1026, "conditions": [24, 1600, "a", 24000], "trial": 5, "serialpos": 4, "trial_type": "single-audio", "trial_index": 189, "time_elapsed": 910877, "internal_node_id": "0.0-135.0"}}, {"uniqueid": "MTK1142:3OONKJ5DKDQQ38G59ZY46DC6R5BOBC", "current_trial": 190, "dateTime": 1513195426856, "trialdata": {"rt": -1000, "stimulus": "/static/audio/wordpool/GARLIC.wav", "key_press": -1, "type": "PRES_AUD", "word": "garlic", "wordID": 623, "conditions": [24, 1600, "a", 24000], "trial": 5, "serialpos": 5, "trial_type": "single-audio", "trial_index": 190, "time_elapsed": 913535, "internal_node_id": "0.0-136.0"}}, {"uniqueid": "MTK1142:3OONKJ5DKDQQ38G59ZY46DC6R5BOBC", "current_trial": 191, "dateTime": 1513195429526, "trialdata": {"rt": -1000, "stimulus": "/static/audio/wordpool/REBEL.wav", "key_press": -1, "type": "PRES_AUD", "word": "rebel", "wordID": 1171, "conditions": [24, 1600, "a", 24000], "trial": 5, "serialpos": 6, "trial_type": "single-audio", "trial_index": 191, "time_elapsed": 916205, "internal_node_id": "0.0-137.0"}}, {"uniqueid": "MTK1142:3OONKJ5DKDQQ38G59ZY46DC6R5BOBC", "current_trial": 192, "dateTime": 1513195431933, "trialdata": {"rt": -1000, "stimulus": "/static/audio/wordpool/FRAGRANCE.wav", "key_press": -1, "type": "PRES_AUD", "word": "fragrance", "wordID": 598, "conditions": [24, 1600, "a", 24000], "trial": 5, "serialpos": 7, "trial_type": "single-audio", "trial_index": 192, "time_elapsed": 918612, "internal_node_id": "0.0-138.0"}}, {"uniqueid": "MTK1142:3OONKJ5DKDQQ38G59ZY46DC6R5BOBC", "current_trial": 193, "dateTime": 1513195434412, "trialdata": {"rt": -1000, "stimulus": "/static/audio/wordpool/HUMAN.wav", "key_press": -1, "type": "PRES_AUD", "word": "human", "wordID": 725, "conditions": [24, 1600, "a", 24000], "trial": 5, "serialpos": 8, "trial_type": "single-audio", "trial_index": 193, "time_elapsed": 921090, "internal_node_id": "0.0-139.0"}}, {"uniqueid": "MTK1142:3OONKJ5DKDQQ38G59ZY46DC6R5BOBC", "current_trial": 194, "dateTime": 1513195436870, "trialdata": {"rt": -1000, "stimulus": "/static/audio/wordpool/RADISH.wav", "key_press": -1, "type": "PRES_AUD", "word": "radish", "wordID": 1157, "conditions": [24, 1600, "a", 24000], "trial": 5, "serialpos": 9, "trial_type": "single-audio", "trial_index": 194, "time_elapsed": 923549, "internal_node_id": "0.0-140.0"}}, {"uniqueid": "MTK1142:3OONKJ5DKDQQ38G59ZY46DC6R5BOBC", "current_trial": 195, "dateTime": 1513195439382, "trialdata": {"rt": -1000, "stimulus": "/static/audio/wordpool/PERFUME.wav", "key_press": -1, "type": "PRES_AUD", "word": "perfume", "wordID": 1048, "conditions": [24, 1600, "a", 24000], "trial": 5, "serialpos": 10, "trial_type": "single-audio", "trial_index": 195, "time_elapsed": 926060, "internal_node_id": "0.0-141.0"}}, {"uniqueid": "MTK1142:3OONKJ5DKDQQ38G59ZY46DC6R5BOBC", "current_trial": 196, "dateTime": 1513195442151, "trialdata": {"rt": -1000, "stimulus": "/static/audio/wordpool/ZIPPER.wav", "key_press": -1, "type": "PRES_AUD", "word": "zipper", "wordID": 1635, "conditions": [24, 1600, "a", 24000], "trial": 5, "serialpos": 11, "trial_type": "single-audio", "trial_index": 196, "time_elapsed": 928830, "internal_node_id": "0.0-142.0"}}, {"uniqueid": "MTK1142:3OONKJ5DKDQQ38G59ZY46DC6R5BOBC", "current_trial": 197, "dateTime": 1513195444572, "trialdata": {"rt": -1000, "stimulus": "/static/audio/wordpool/LEOPARD.wav", "key_press": -1, "type": "PRES_AUD", "word": "leopard", "wordID": 811, "conditions": [24, 1600, "a", 24000], "trial": 5, "serialpos": 12, "trial_type": "single-audio", "trial_index": 197, "time_elapsed": 931251, "internal_node_id": "0.0-143.0"}}, {"uniqueid": "MTK1142:3OONKJ5DKDQQ38G59ZY46DC6R5BOBC", "current_trial": 198, "dateTime": 1513195447305, "trialdata": {"rt": -1000, "stimulus": "/static/audio/wordpool/KNIFE.wav", "key_press": -1, "type": "PRES_AUD", "word": "knife", "wordID": 784, "conditions": [24, 1600, "a", 24000], "trial": 5, "serialpos": 13, "trial_type": "single-audio", "trial_index": 198, "time_elapsed": 933984, "internal_node_id": "0.0-144.0"}}, {"uniqueid": "MTK1142:3OONKJ5DKDQQ38G59ZY46DC6R5BOBC", "current_trial": 199, "dateTime": 1513195449912, "trialdata": {"rt": -1000, "stimulus": "/static/audio/wordpool/MARROW.wav", "key_press": -1, "type": "PRES_AUD", "word": "marrow", "wordID": 871, "conditions": [24, 1600, "a", 24000], "trial": 5, "serialpos": 14, "trial_type": "single-audio", "trial_index": 199, "time_elapsed": 936591, "internal_node_id": "0.0-145.0"}}, {"uniqueid": "MTK1142:3OONKJ5DKDQQ38G59ZY46DC6R5BOBC", "current_trial": 200, "dateTime": 1513195452708, "trialdata": {"rt": -1000, "stimulus": "/static/audio/wordpool/SKILLET.wav", "key_press": -1, "type": "PRES_AUD", "word": "skillet", "wordID": 1316, "conditions": [24, 1600, "a", 24000], "trial": 5, "serialpos": 15, "trial_type": "single-audio", "trial_index": 200, "time_elapsed": 939387, "internal_node_id": "0.0-146.0"}}, {"uniqueid": "MTK1142:3OONKJ5DKDQQ38G59ZY46DC6R5BOBC", "current_trial": 201, "dateTime": 1513195455436, "trialdata": {"rt": -1000, "stimulus": "/static/audio/wordpool/BLENDER.wav", "key_press": -1, "type": "PRES_AUD", "word": "blender", "wordID": 135, "conditions": [24, 1600, "a", 24000], "trial": 5, "serialpos": 16, "trial_type": "single-audio", "trial_index": 201, "time_elapsed": 942115, "internal_node_id": "0.0-147.0"}}, {"uniqueid": "MTK1142:3OONKJ5DKDQQ38G59ZY46DC6R5BOBC", "current_trial": 202, "dateTime": 1513195457924, "trialdata": {"rt": -1000, "stimulus": "/static/audio/wordpool/NEUTRON.wav", "key_press": -1, "type": "PRES_AUD", "word": "neutron", "wordID": 946, "conditions": [24, 1600, "a", 24000], "trial": 5, "serialpos": 17, "trial_type": "single-audio", "trial_index": 202, "time_elapsed": 944603, "internal_node_id": "0.0-148.0"}}, {"uniqueid": "MTK1142:3OONKJ5DKDQQ38G59ZY46DC6R5BOBC", "current_trial": 203, "dateTime": 1513195460670, "trialdata": {"rt": -1000, "stimulus": "/static/audio/wordpool/MISTER.wav", "key_press": -1, "type": "PRES_AUD", "word": "mister", "wordID": 900, "conditions": [24, 1600, "a", 24000], "trial": 5, "serialpos": 18, "trial_type": "single-audio", "trial_index": 203, "time_elapsed": 947349, "internal_node_id": "0.0-149.0"}}, {"uniqueid": "MTK1142:3OONKJ5DKDQQ38G59ZY46DC6R5BOBC", "current_trial": 204, "dateTime": 1513195463172, "trialdata": {"rt": -1000, "stimulus": "/static/audio/wordpool/CARROT.wav", "key_press": -1, "type": "PRES_AUD", "word": "carrot", "wordID": 248, "conditions": [24, 1600, "a", 24000], "trial": 5, "serialpos": 19, "trial_type": "single-audio", "trial_index": 204, "time_elapsed": 949851, "internal_node_id": "0.0-150.0"}}, {"uniqueid": "MTK1142:3OONKJ5DKDQQ38G59ZY46DC6R5BOBC", "current_trial": 205, "dateTime": 1513195465639, "trialdata": {"rt": -1000, "stimulus": "/static/audio/wordpool/MESSAGE.wav", "key_press": -1, "type": "PRES_AUD", "word": "message", "wordID": 887, "conditions": [24, 1600, "a", 24000], "trial": 5, "serialpos": 20, "trial_type": "single-audio", "trial_index": 205, "time_elapsed": 952318, "internal_node_id": "0.0-151.0"}}, {"uniqueid": "MTK1142:3OONKJ5DKDQQ38G59ZY46DC6R5BOBC", "current_trial": 206, "dateTime": 1513195468191, "trialdata": {"rt": -1000, "stimulus": "/static/audio/wordpool/ZEBRA.wav", "key_press": -1, "type": "PRES_AUD", "word": "zebra", "wordID": 1634, "conditions": [24, 1600, "a", 24000], "trial": 5, "serialpos": 21, "trial_type": "single-audio", "trial_index": 206, "time_elapsed": 954870, "internal_node_id": "0.0-152.0"}}, {"uniqueid": "MTK1142:3OONKJ5DKDQQ38G59ZY46DC6R5BOBC", "current_trial": 207, "dateTime": 1513195470920, "trialdata": {"rt": -1000, "stimulus": "/static/audio/wordpool/ISLAND.wav", "key_press": -1, "type": "PRES_AUD", "word": "island", "wordID": 744, "conditions": [24, 1600, "a", 24000], "trial": 5, "serialpos": 22, "trial_type": "single-audio", "trial_index": 207, "time_elapsed": 957598, "internal_node_id": "0.0-153.0"}}, {"uniqueid": "MTK1142:3OONKJ5DKDQQ38G59ZY46DC6R5BOBC", "current_trial": 208, "dateTime": 1513195473694, "trialdata": {"rt": -1000, "stimulus": "/static/audio/wordpool/SAUSAGE.wav", "key_press": -1, "type": "PRES_AUD", "word": "sausage", "wordID": 1237, "conditions": [24, 1600, "a", 24000], "trial": 5, "serialpos": 23, "trial_type": "single-audio", "trial_index": 208, "time_elapsed": 960373, "internal_node_id": "0.0-154.0"}}, {"uniqueid": "MTK1142:3OONKJ5DKDQQ38G59ZY46DC6R5BOBC", "current_trial": 209, "dateTime": 1513195474971, "trialdata": {"rt": -1, "stimulus": "", "key_press": -1, "type": "PRE_RECALL_DELAY", "trial_type": "single-stim", "trial_index": 209, "time_elapsed": 961650, "internal_node_id": "0.0-155.0-0.0"}}, {"uniqueid": "MTK1142:3OONKJ5DKDQQ38G59ZY46DC6R5BOBC", "current_trial": 210, "dateTime": 1513195475472, "trialdata": {"rt": -1000, "stimulus": "/static/audio/400Hz.wav", "key_press": -1, "type": "PRE_RECALL_ALERT", "trial_type": "single-audio", "trial_index": 210, "time_elapsed": 962151, "internal_node_id": "0.0-156.0"}}, {"uniqueid": "MTK1142:3OONKJ5DKDQQ38G59ZY46DC6R5BOBC", "current_trial": 211, "dateTime": 1513195535476, "trialdata": {"rt": [3355, 4402, 5754, 8906, 12202, 16386, 18946, 21665, 24947, 27874, 33635, 36507, 39794, 40850, 42794, 45753, 47146, 48410, 52242, 54506, 57154], "recwords": ["butcher", "police", "patrol", "witness", "garlic", "fragarence", "human", "raddish", "perfume", "zipper", "marrow", "skillet", "mister", "carrot", "message", "zebra", "sausage", "island", "knife", "inmate", "rebel"], "type": "FREE_RECALL", "conditions": [24, 1600, "a", 24000], "trial": 5, "trial_type": "free-recall", "trial_index": 211, "time_elapsed": 1022154, "internal_node_id": "0.0-157.0-0.0"}}, {"uniqueid": "MTK1142:3OONKJ5DKDQQ38G59ZY46DC6R5BOBC", "current_trial": 212, "dateTime": 1513195538035, "trialdata": {"rt": 557, "key_press": 32, "type": "INSTRUCTIONS", "trial_type": "text", "trial_index": 212, "time_elapsed": 1024714, "internal_node_id": "0.0-158.0"}}, {"uniqueid": "MTK1142:3OONKJ5DKDQQ38G59ZY46DC6R5BOBC", "current_trial": 213, "dateTime": 1513195564037, "trialdata": {"rt": [1945, 5055, 7487, 9223, 14150, 15950, 17391, 19438, 21263, 23199], "responses": ["18", "19", "16", "18", "18", "9", "9", "12", "18", "13"], "num1": [5, 7, 9, 9, 9, 5, 7, 3, 8, 8, 9], "num2": [8, 3, 1, 1, 4, 3, 1, 6, 9, 2, 7], "num3": [5, 9, 6, 8, 5, 1, 1, 3, 1, 3, 9], "type": "DISTRACTOR", "conditions": [12, 800, "v", 24000], "trial": 6, "trial_type": "math-distractor", "trial_index": 213, "time_elapsed": 1050716, "internal_node_id": "0.0-159.0"}}, {"uniqueid": "MTK1142:3OONKJ5DKDQQ38G59ZY46DC6R5BOBC", "current_trial": 214, "dateTime": 1513195567039, "trialdata": {"rt": -1, "stimulus": "<p id=\"stim\">10</p>", "key_press": -1, "trial_type": "single-stim", "trial_index": 214, "time_elapsed": 1053718, "internal_node_id": "0.0-160.0-0.0"}}, {"uniqueid": "MTK1142:3OONKJ5DKDQQ38G59ZY46DC6R5BOBC", "current_trial": 215, "dateTime": 1513195568040, "trialdata": {"rt": -1, "stimulus": "<p id=\"stim\">9</p>", "key_press": -1, "trial_type": "single-stim", "trial_index": 215, "time_elapsed": 1054719, "internal_node_id": "0.0-160.0-1.0"}}, {"uniqueid": "MTK1142:3OONKJ5DKDQQ38G59ZY46DC6R5BOBC", "current_trial": 216, "dateTime": 1513195569042, "trialdata": {"rt": -1, "stimulus": "<p id=\"stim\">8</p>", "key_press": -1, "trial_type": "single-stim", "trial_index": 216, "time_elapsed": 1055721, "internal_node_id": "0.0-160.0-2.0"}}, {"uniqueid": "MTK1142:3OONKJ5DKDQQ38G59ZY46DC6R5BOBC", "current_trial": 217, "dateTime": 1513195570043, "trialdata": {"rt": -1, "stimulus": "<p id=\"stim\">7</p>", "key_press": -1, "trial_type": "single-stim", "trial_index": 217, "time_elapsed": 1056722, "internal_node_id": "0.0-160.0-3.0"}}, {"uniqueid": "MTK1142:3OONKJ5DKDQQ38G59ZY46DC6R5BOBC", "current_trial": 218, "dateTime": 1513195571045, "trialdata": {"rt": -1, "stimulus": "<p id=\"stim\">6</p>", "key_press": -1, "trial_type": "single-stim", "trial_index": 218, "time_elapsed": 1057723, "internal_node_id": "0.0-160.0-4.0"}}, {"uniqueid": "MTK1142:3OONKJ5DKDQQ38G59ZY46DC6R5BOBC", "current_trial": 219, "dateTime": 1513195572046, "trialdata": {"rt": -1, "stimulus": "<p id=\"stim\">5</p>", "key_press": -1, "trial_type": "single-stim", "trial_index": 219, "time_elapsed": 1058725, "internal_node_id": "0.0-160.0-5.0"}}, {"uniqueid": "MTK1142:3OONKJ5DKDQQ38G59ZY46DC6R5BOBC", "current_trial": 220, "dateTime": 1513195573047, "trialdata": {"rt": -1, "stimulus": "<p id=\"stim\">4</p>", "key_press": -1, "trial_type": "single-stim", "trial_index": 220, "time_elapsed": 1059726, "internal_node_id": "0.0-160.0-6.0"}}, {"uniqueid": "MTK1142:3OONKJ5DKDQQ38G59ZY46DC6R5BOBC", "current_trial": 221, "dateTime": 1513195574049, "trialdata": {"rt": -1, "stimulus": "<p id=\"stim\">3</p>", "key_press": -1, "trial_type": "single-stim", "trial_index": 221, "time_elapsed": 1060727, "internal_node_id": "0.0-160.0-7.0"}}, {"uniqueid": "MTK1142:3OONKJ5DKDQQ38G59ZY46DC6R5BOBC", "current_trial": 222, "dateTime": 1513195575049, "trialdata": {"rt": -1, "stimulus": "<p id=\"stim\">2</p>", "key_press": -1, "trial_type": "single-stim", "trial_index": 222, "time_elapsed": 1061728, "internal_node_id": "0.0-160.0-8.0"}}, {"uniqueid": "MTK1142:3OONKJ5DKDQQ38G59ZY46DC6R5BOBC", "current_trial": 223, "dateTime": 1513195576050, "trialdata": {"rt": -1, "stimulus": "<p id=\"stim\">1</p>", "key_press": -1, "trial_type": "single-stim", "trial_index": 223, "time_elapsed": 1062729, "internal_node_id": "0.0-160.0-9.0"}}, {"uniqueid": "MTK1142:3OONKJ5DKDQQ38G59ZY46DC6R5BOBC", "current_trial": 224, "dateTime": 1513195577552, "trialdata": {"rt": -1, "stimulus": "<p id=\"stim\">+</p>", "key_press": -1, "type": "FIXATION", "trial_type": "single-stim", "trial_index": 224, "time_elapsed": 1064231, "internal_node_id": "0.0-161.0-0.0"}}, {"uniqueid": "MTK1142:3OONKJ5DKDQQ38G59ZY46DC6R5BOBC", "current_trial": 225, "dateTime": 1513195578353, "trialdata": {"rt": -1, "stimulus": "<p id=\"stim\">ROBOT</p>", "key_press": -1, "type": "PRES_VIS", "word": "robot", "wordID": 1199, "conditions": [12, 800, "v", 24000], "trial": 6, "serialpos": 0, "trial_type": "single-stim", "trial_index": 225, "time_elapsed": 1065032, "internal_node_id": "0.0-162.0"}}, {"uniqueid": "MTK1142:3OONKJ5DKDQQ38G59ZY46DC6R5BOBC", "current_trial": 226, "dateTime": 1513195580232, "trialdata": {"rt": -1, "stimulus": "<p id=\"stim\">RAZOR</p>", "key_press": -1, "type": "PRES_VIS", "word": "razor", "wordID": 1170, "conditions": [12, 800, "v", 24000], "trial": 6, "serialpos": 1, "trial_type": "single-stim", "trial_index": 226, "time_elapsed": 1066911, "internal_node_id": "0.0-163.0"}}, {"uniqueid": "MTK1142:3OONKJ5DKDQQ38G59ZY46DC6R5BOBC", "current_trial": 227, "dateTime": 1513195582224, "trialdata": {"rt": -1, "stimulus": "<p id=\"stim\">GARDEN</p>", "key_press": -1, "type": "PRES_VIS", "word": "garden", "wordID": 622, "conditions": [12, 800, "v", 24000], "trial": 6, "serialpos": 2, "trial_type": "single-stim", "trial_index": 227, "time_elapsed": 1068903, "internal_node_id": "0.0-164.0"}}, {"uniqueid": "MTK1142:3OONKJ5DKDQQ38G59ZY46DC6R5BOBC", "current_trial": 228, "dateTime": 1513195583964, "trialdata": {"rt": -1, "stimulus": "<p id=\"stim\">TRANSPLANT</p>", "key_press": -1, "type": "PRES_VIS", "word": "transplant", "wordID": 1495, "conditions": [12, 800, "v", 24000], "trial": 6, "serialpos": 3, "trial_type": "single-stim", "trial_index": 228, "time_elapsed": 1070642, "internal_node_id": "0.0-165.0"}}, {"uniqueid": "MTK1142:3OONKJ5DKDQQ38G59ZY46DC6R5BOBC", "current_trial": 229, "dateTime": 1513195585939, "trialdata": {"rt": -1, "stimulus": "<p id=\"stim\">SUPPER</p>", "key_press": -1, "type": "PRES_VIS", "word": "supper", "wordID": 1410, "conditions": [12, 800, "v", 24000], "trial": 6, "serialpos": 4, "trial_type": "single-stim", "trial_index": 229, "time_elapsed": 1072618, "internal_node_id": "0.0-166.0"}}, {"uniqueid": "MTK1142:3OONKJ5DKDQQ38G59ZY46DC6R5BOBC", "current_trial": 230, "dateTime": 1513195587618, "trialdata": {"rt": -1, "stimulus": "<p id=\"stim\">SLIME</p>", "key_press": -1, "type": "PRES_VIS", "word": "slime", "wordID": 1326, "conditions": [12, 800, "v", 24000], "trial": 6, "serialpos": 5, "trial_type": "single-stim", "trial_index": 230, "time_elapsed": 1074297, "internal_node_id": "0.0-167.0"}}, {"uniqueid": "MTK1142:3OONKJ5DKDQQ38G59ZY46DC6R5BOBC", "current_trial": 231, "dateTime": 1513195589530, "trialdata": {"rt": -1, "stimulus": "<p id=\"stim\">COCKTAIL</p>", "key_press": -1, "type": "PRES_VIS", "word": "cocktail", "wordID": 337, "conditions": [12, 800, "v", 24000], "trial": 6, "serialpos": 6, "trial_type": "single-stim", "trial_index": 231, "time_elapsed": 1076209, "internal_node_id": "0.0-168.0"}}, {"uniqueid": "MTK1142:3OONKJ5DKDQQ38G59ZY46DC6R5BOBC", "current_trial": 232, "dateTime": 1513195591469, "trialdata": {"rt": -1, "stimulus": "<p id=\"stim\">ORCHID</p>", "key_press": -1, "type": "PRES_VIS", "word": "orchid", "wordID": 981, "conditions": [12, 800, "v", 24000], "trial": 6, "serialpos": 7, "trial_type": "single-stim", "trial_index": 232, "time_elapsed": 1078148, "internal_node_id": "0.0-169.0"}}, {"uniqueid": "MTK1142:3OONKJ5DKDQQ38G59ZY46DC6R5BOBC", "current_trial": 233, "dateTime": 1513195593108, "trialdata": {"rt": -1, "stimulus": "<p id=\"stim\">BLADE</p>", "key_press": -1, "type": "PRES_VIS", "word": "blade", "wordID": 133, "conditions": [12, 800, "v", 24000], "trial": 6, "serialpos": 8, "trial_type": "single-stim", "trial_index": 233, "time_elapsed": 1079787, "internal_node_id": "0.0-170.0"}}, {"uniqueid": "MTK1142:3OONKJ5DKDQQ38G59ZY46DC6R5BOBC", "current_trial": 234, "dateTime": 1513195595057, "trialdata": {"rt": -1, "stimulus": "<p id=\"stim\">TWIG</p>", "key_press": -1, "type": "PRES_VIS", "word": "twig", "wordID": 1526, "conditions": [12, 800, "v", 24000], "trial": 6, "serialpos": 9, "trial_type": "single-stim", "trial_index": 234, "time_elapsed": 1081736, "internal_node_id": "0.0-171.0"}}, {"uniqueid": "MTK1142:3OONKJ5DKDQQ38G59ZY46DC6R5BOBC", "current_trial": 235, "dateTime": 1513195597000, "trialdata": {"rt": -1, "stimulus": "<p id=\"stim\">APPLE</p>", "key_press": -1, "type": "PRES_VIS", "word": "apple", "wordID": 32, "conditions": [12, 800, "v", 24000], "trial": 6, "serialpos": 10, "trial_type": "single-stim", "trial_index": 235, "time_elapsed": 1083679, "internal_node_id": "0.0-172.0"}}, {"uniqueid": "MTK1142:3OONKJ5DKDQQ38G59ZY46DC6R5BOBC", "current_trial": 236, "dateTime": 1513195598821, "trialdata": {"rt": -1, "stimulus": "<p id=\"stim\">ONION</p>", "key_press": -1, "type": "PRES_VIS", "word": "onion", "wordID": 976, "conditions": [12, 800, "v", 24000], "trial": 6, "serialpos": 11, "trial_type": "single-stim", "trial_index": 236, "time_elapsed": 1085500, "internal_node_id": "0.0-173.0"}}, {"uniqueid": "MTK1142:3OONKJ5DKDQQ38G59ZY46DC6R5BOBC", "current_trial": 237, "dateTime": 1513195601254, "trialdata": {"rt": -1, "stimulus": "", "key_press": -1, "type": "PRE_RECALL_DELAY", "trial_type": "single-stim", "trial_index": 237, "time_elapsed": 1087933, "internal_node_id": "0.0-174.0-0.0"}}, {"uniqueid": "MTK1142:3OONKJ5DKDQQ38G59ZY46DC6R5BOBC", "current_trial": 238, "dateTime": 1513195601756, "trialdata": {"rt": -1000, "stimulus": "/static/audio/400Hz.wav", "key_press": -1, "type": "PRE_RECALL_ALERT", "trial_type": "single-audio", "trial_index": 238, "time_elapsed": 1088435, "internal_node_id": "0.0-175.0"}}, {"uniqueid": "MTK1142:3OONKJ5DKDQQ38G59ZY46DC6R5BOBC", "current_trial": 239, "dateTime": 1513195661761, "trialdata": {"rt": [3773, 4686, 8814, 10870, 18191, 21421, 22581, 23406, 27222, 32598, 37229], "recwords": ["onion", "apple", "twig", "blade", "orcard", "slime", "razor", "robot", "garden", "supper", "stamp"], "type": "FREE_RECALL", "conditions": [12, 800, "v", 24000], "trial": 6, "trial_type": "free-recall", "trial_index": 239, "time_elapsed": 1148438, "internal_node_id": "0.0-176.0-0.0"}}, {"uniqueid": "MTK1142:3OONKJ5DKDQQ38G59ZY46DC6R5BOBC", "current_trial": 240, "dateTime": 1513195665756, "trialdata": {"rt": 1993, "key_press": 32, "type": "INSTRUCTIONS", "trial_type": "text", "trial_index": 240, "time_elapsed": 1152435, "internal_node_id": "0.0-177.0"}}, {"uniqueid": "MTK1142:3OONKJ5DKDQQ38G59ZY46DC6R5BOBC", "current_trial": 241, "dateTime": 1513195679759, "trialdata": {"rt": [4650, 8054, 10734], "responses": ["26", "15", "18"], "num1": [9, 9, 7, 8], "num2": [9, 4, 4, 2], "num3": [8, 2, 7, 7], "type": "DISTRACTOR", "conditions": [12, 800, "v", 12000], "trial": 7, "trial_type": "math-distractor", "trial_index": 241, "time_elapsed": 1166438, "internal_node_id": "0.0-178.0"}}, {"uniqueid": "MTK1142:3OONKJ5DKDQQ38G59ZY46DC6R5BOBC", "current_trial": 242, "dateTime": 1513195682762, "trialdata": {"rt": -1, "stimulus": "<p id=\"stim\">10</p>", "key_press": -1, "trial_type": "single-stim", "trial_index": 242, "time_elapsed": 1169440, "internal_node_id": "0.0-179.0-0.0"}}, {"uniqueid": "MTK1142:3OONKJ5DKDQQ38G59ZY46DC6R5BOBC", "current_trial": 243, "dateTime": 1513195683763, "trialdata": {"rt": -1, "stimulus": "<p id=\"stim\">9</p>", "key_press": -1, "trial_type": "single-stim", "trial_index": 243, "time_elapsed": 1170442, "internal_node_id": "0.0-179.0-1.0"}}, {"uniqueid": "MTK1142:3OONKJ5DKDQQ38G59ZY46DC6R5BOBC", "current_trial": 244, "dateTime": 1513195684764, "trialdata": {"rt": -1, "stimulus": "<p id=\"stim\">8</p>", "key_press": -1, "trial_type": "single-stim", "trial_index": 244, "time_elapsed": 1171443, "internal_node_id": "0.0-179.0-2.0"}}, {"uniqueid": "MTK1142:3OONKJ5DKDQQ38G59ZY46DC6R5BOBC", "current_trial": 245, "dateTime": 1513195685766, "trialdata": {"rt": -1, "stimulus": "<p id=\"stim\">7</p>", "key_press": -1, "trial_type": "single-stim", "trial_index": 245, "time_elapsed": 1172445, "internal_node_id": "0.0-179.0-3.0"}}, {"uniqueid": "MTK1142:3OONKJ5DKDQQ38G59ZY46DC6R5BOBC", "current_trial": 246, "dateTime": 1513195686767, "trialdata": {"rt": -1, "stimulus": "<p id=\"stim\">6</p>", "key_press": -1, "trial_type": "single-stim", "trial_index": 246, "time_elapsed": 1173446, "internal_node_id": "0.0-179.0-4.0"}}, {"uniqueid": "MTK1142:3OONKJ5DKDQQ38G59ZY46DC6R5BOBC", "current_trial": 247, "dateTime": 1513195687769, "trialdata": {"rt": -1, "stimulus": "<p id=\"stim\">5</p>", "key_press": -1, "trial_type": "single-stim", "trial_index": 247, "time_elapsed": 1174448, "internal_node_id": "0.0-179.0-5.0"}}, {"uniqueid": "MTK1142:3OONKJ5DKDQQ38G59ZY46DC6R5BOBC", "current_trial": 248, "dateTime": 1513195688770, "trialdata": {"rt": -1, "stimulus": "<p id=\"stim\">4</p>", "key_press": -1, "trial_type": "single-stim", "trial_index": 248, "time_elapsed": 1175448, "internal_node_id": "0.0-179.0-6.0"}}, {"uniqueid": "MTK1142:3OONKJ5DKDQQ38G59ZY46DC6R5BOBC", "current_trial": 249, "dateTime": 1513195689772, "trialdata": {"rt": -1, "stimulus": "<p id=\"stim\">3</p>", "key_press": -1, "trial_type": "single-stim", "trial_index": 249, "time_elapsed": 1176451, "internal_node_id": "0.0-179.0-7.0"}}, {"uniqueid": "MTK1142:3OONKJ5DKDQQ38G59ZY46DC6R5BOBC", "current_trial": 250, "dateTime": 1513195690773, "trialdata": {"rt": -1, "stimulus": "<p id=\"stim\">2</p>", "key_press": -1, "trial_type": "single-stim", "trial_index": 250, "time_elapsed": 1177452, "internal_node_id": "0.0-179.0-8.0"}}, {"uniqueid": "MTK1142:3OONKJ5DKDQQ38G59ZY46DC6R5BOBC", "current_trial": 251, "dateTime": 1513195691774, "trialdata": {"rt": -1, "stimulus": "<p id=\"stim\">1</p>", "key_press": -1, "trial_type": "single-stim", "trial_index": 251, "time_elapsed": 1178453, "internal_node_id": "0.0-179.0-9.0"}}, {"uniqueid": "MTK1142:3OONKJ5DKDQQ38G59ZY46DC6R5BOBC", "current_trial": 252, "dateTime": 1513195693276, "trialdata": {"rt": -1, "stimulus": "<p id=\"stim\">+</p>", "key_press": -1, "type": "FIXATION", "trial_type": "single-stim", "trial_index": 252, "time_elapsed": 1179955, "internal_node_id": "0.0-180.0-0.0"}}, {"uniqueid": "MTK1142:3OONKJ5DKDQQ38G59ZY46DC6R5BOBC", "current_trial": 253, "dateTime": 1513195694077, "trialdata": {"rt": -1, "stimulus": "<p id=\"stim\">STUDENT</p>", "key_press": -1, "type": "PRES_VIS", "word": "student", "wordID": 1394, "conditions": [12, 800, "v", 12000], "trial": 7, "serialpos": 0, "trial_type": "single-stim", "trial_index": 253, "time_elapsed": 1180755, "internal_node_id": "0.0-181.0"}}, {"uniqueid": "MTK1142:3OONKJ5DKDQQ38G59ZY46DC6R5BOBC", "current_trial": 254, "dateTime": 1513195696010, "trialdata": {"rt": -1, "stimulus": "<p id=\"stim\">BRIEFCASE</p>", "key_press": -1, "type": "PRES_VIS", "word": "briefcase", "wordID": 174, "conditions": [12, 800, "v", 12000], "trial": 7, "serialpos": 1, "trial_type": "single-stim", "trial_index": 254, "time_elapsed": 1182689, "internal_node_id": "0.0-182.0"}}, {"uniqueid": "MTK1142:3OONKJ5DKDQQ38G59ZY46DC6R5BOBC", "current_trial": 255, "dateTime": 1513195697993, "trialdata": {"rt": -1, "stimulus": "<p id=\"stim\">MAILBOX</p>", "key_press": -1, "type": "PRES_VIS", "word": "mailbox", "wordID": 856, "conditions": [12, 800, "v", 12000], "trial": 7, "serialpos": 2, "trial_type": "single-stim", "trial_index": 255, "time_elapsed": 1184672, "internal_node_id": "0.0-183.0"}}, {"uniqueid": "MTK1142:3OONKJ5DKDQQ38G59ZY46DC6R5BOBC", "current_trial": 256, "dateTime": 1513195699924, "trialdata": {"rt": -1, "stimulus": "<p id=\"stim\">JAPAN</p>", "key_press": -1, "type": "PRES_VIS", "word": "japan", "wordID": 748, "conditions": [12, 800, "v", 12000], "trial": 7, "serialpos": 3, "trial_type": "single-stim", "trial_index": 256, "time_elapsed": 1186603, "internal_node_id": "0.0-184.0"}}, {"uniqueid": "MTK1142:3OONKJ5DKDQQ38G59ZY46DC6R5BOBC", "current_trial": 257, "dateTime": 1513195701917, "trialdata": {"rt": -1, "stimulus": "<p id=\"stim\">PISTOL</p>", "key_press": -1, "type": "PRES_VIS", "word": "pistol", "wordID": 1074, "conditions": [12, 800, "v", 12000], "trial": 7, "serialpos": 4, "trial_type": "single-stim", "trial_index": 257, "time_elapsed": 1188596, "internal_node_id": "0.0-185.0"}}, {"uniqueid": "MTK1142:3OONKJ5DKDQQ38G59ZY46DC6R5BOBC", "current_trial": 258, "dateTime": 1513195703770, "trialdata": {"rt": -1, "stimulus": "<p id=\"stim\">CAPTIVE</p>", "key_press": -1, "type": "PRES_VIS", "word": "captive", "wordID": 239, "conditions": [12, 800, "v", 12000], "trial": 7, "serialpos": 5, "trial_type": "single-stim", "trial_index": 258, "time_elapsed": 1190449, "internal_node_id": "0.0-186.0"}}, {"uniqueid": "MTK1142:3OONKJ5DKDQQ38G59ZY46DC6R5BOBC", "current_trial": 259, "dateTime": 1513195705428, "trialdata": {"rt": -1, "stimulus": "<p id=\"stim\">PALACE</p>", "key_press": -1, "type": "PRES_VIS", "word": "palace", "wordID": 1005, "conditions": [12, 800, "v", 12000], "trial": 7, "serialpos": 6, "trial_type": "single-stim", "trial_index": 259, "time_elapsed": 1192106, "internal_node_id": "0.0-187.0"}}, {"uniqueid": "MTK1142:3OONKJ5DKDQQ38G59ZY46DC6R5BOBC", "current_trial": 260, "dateTime": 1513195707147, "trialdata": {"rt": -1, "stimulus": "<p id=\"stim\">DRAGON</p>", "key_press": -1, "type": "PRES_VIS", "word": "dragon", "wordID": 491, "conditions": [12, 800, "v", 12000], "trial": 7, "serialpos": 7, "trial_type": "single-stim", "trial_index": 260, "time_elapsed": 1193826, "internal_node_id": "0.0-188.0"}}, {"uniqueid": "MTK1142:3OONKJ5DKDQQ38G59ZY46DC6R5BOBC", "current_trial": 261, "dateTime": 1513195708881, "trialdata": {"rt": -1, "stimulus": "<p id=\"stim\">HEADBAND</p>", "key_press": -1, "type": "PRES_VIS", "word": "headband", "wordID": 695, "conditions": [12, 800, "v", 12000], "trial": 7, "serialpos": 8, "trial_type": "single-stim", "trial_index": 261, "time_elapsed": 1195560, "internal_node_id": "0.0-189.0"}}, {"uniqueid": "MTK1142:3OONKJ5DKDQQ38G59ZY46DC6R5BOBC", "current_trial": 262, "dateTime": 1513195710617, "trialdata": {"rt": -1, "stimulus": "<p id=\"stim\">SHIRT</p>", "key_press": -1, "type": "PRES_VIS", "word": "shirt", "wordID": 1286, "conditions": [12, 800, "v", 12000], "trial": 7, "serialpos": 9, "trial_type": "single-stim", "trial_index": 262, "time_elapsed": 1197295, "internal_node_id": "0.0-190.0"}}, {"uniqueid": "MTK1142:3OONKJ5DKDQQ38G59ZY46DC6R5BOBC", "current_trial": 263, "dateTime": 1513195712492, "trialdata": {"rt": -1, "stimulus": "<p id=\"stim\">REPORT</p>", "key_press": -1, "type": "PRES_VIS", "word": "report", "wordID": 1183, "conditions": [12, 800, "v", 12000], "trial": 7, "serialpos": 10, "trial_type": "single-stim", "trial_index": 263, "time_elapsed": 1199170, "internal_node_id": "0.0-191.0"}}, {"uniqueid": "MTK1142:3OONKJ5DKDQQ38G59ZY46DC6R5BOBC", "current_trial": 264, "dateTime": 1513195714222, "trialdata": {"rt": -1, "stimulus": "<p id=\"stim\">COLLEGE</p>", "key_press": -1, "type": "PRES_VIS", "word": "college", "wordID": 345, "conditions": [12, 800, "v", 12000], "trial": 7, "serialpos": 11, "trial_type": "single-stim", "trial_index": 264, "time_elapsed": 1200901, "internal_node_id": "0.0-192.0"}}, {"uniqueid": "MTK1142:3OONKJ5DKDQQ38G59ZY46DC6R5BOBC", "current_trial": 265, "dateTime": 1513195716444, "trialdata": {"rt": -1, "stimulus": "", "key_press": -1, "type": "PRE_RECALL_DELAY", "trial_type": "single-stim", "trial_index": 265, "time_elapsed": 1203121, "internal_node_id": "0.0-193.0-0.0"}}, {"uniqueid": "MTK1142:3OONKJ5DKDQQ38G59ZY46DC6R5BOBC", "current_trial": 266, "dateTime": 1513195716945, "trialdata": {"rt": -1000, "stimulus": "/static/audio/400Hz.wav", "key_press": -1, "type": "PRE_RECALL_ALERT", "trial_type": "single-audio", "trial_index": 266, "time_elapsed": 1203624, "internal_node_id": "0.0-194.0"}}, {"uniqueid": "MTK1142:3OONKJ5DKDQQ38G59ZY46DC6R5BOBC", "current_trial": 267, "dateTime": 1513195776949, "trialdata": {"rt": [5108, 7802, 9489, 12026, 15434, 20226, 25571, 27906, 33010, 37433], "recwords": ["student", "mailbox", "headboard", "pistol", "captive", "dragon", "shirt", "college", "palace", "japan"], "type": "FREE_RECALL", "conditions": [12, 800, "v", 12000], "trial": 7, "trial_type": "free-recall", "trial_index": 267, "time_elapsed": 1263625, "internal_node_id": "0.0-195.0-0.0"}}, {"uniqueid": "MTK1142:3OONKJ5DKDQQ38G59ZY46DC6R5BOBC", "current_trial": 268, "dateTime": 1513195779469, "trialdata": {"rt": 518, "key_press": 32, "type": "INSTRUCTIONS", "trial_type": "text", "trial_index": 268, "time_elapsed": 1266148, "internal_node_id": "0.0-196.0"}}, {"uniqueid": "MTK1142:3OONKJ5DKDQQ38G59ZY46DC6R5BOBC", "current_trial": 269, "date