{"condition": 0, "counterbalance": 1385, "assignmentId": "30LB5CDZNDH1IPR2DSCW2UNRKZHZ0R", "workerId": "MTK1002", "hitId": "31HLTCK4BL2FXPZJ0V7UDW1RNXEGVI", "currenttrial": 626, "bonus": 0, "data": [{"uniqueid": "MTK1002:30LB5CDZNDH1IPR2DSCW2UNRKZHZ0R", "current_trial": 0, "dateTime": 1512960823003, "trialdata": {"rt": 2138, "key_press": 70, "type": "INSTRUCTIONS", "trial_type": "text", "trial_index": 0, "time_elapsed": 2140, "internal_node_id": "0.0-0.0"}}, {"uniqueid": "MTK1002:30LB5CDZNDH1IPR2DSCW2UNRKZHZ0R", "current_trial": 1, "dateTime": 1512960843165, "trialdata": {"rt": 20161, "key_press": 70, "type": "INSTRUCTIONS", "trial_type": "text", "trial_index": 1, "time_elapsed": 22303, "internal_node_id": "0.0-1.0"}}, {"uniqueid": "MTK1002:30LB5CDZNDH1IPR2DSCW2UNRKZHZ0R", "current_trial": 2, "dateTime": 1512960861734, "trialdata": {"rt": [18562], "responses": ["ocean"], "type": "AUDIO_TEST", "trial_type": "audio-test", "trial_index": 2, "time_elapsed": 40872, "internal_node_id": "0.0-2.0"}}, {"uniqueid": "MTK1002:30LB5CDZNDH1IPR2DSCW2UNRKZHZ0R", "current_trial": 3, "dateTime": 1512960870570, "trialdata": {"rt": [8832], "responses": ["crystal"], "type": "AUDIO_TEST", "trial_type": "audio-test", "trial_index": 3, "time_elapsed": 49707, "internal_node_id": "0.0-3.0"}}, {"uniqueid": "MTK1002:30LB5CDZNDH1IPR2DSCW2UNRKZHZ0R", "current_trial": 4, "dateTime": 1512960883681, "trialdata": {"rt": [13108], "responses": ["spice"], "type": "AUDIO_TEST", "trial_type": "audio-test", "trial_index": 4, "time_elapsed": 62819, "internal_node_id": "0.0-4.0"}}, {"uniqueid": "MTK1002:30LB5CDZNDH1IPR2DSCW2UNRKZHZ0R", "current_trial": 5, "dateTime": 1512960901572, "trialdata": {"rt": 17139, "responses": "{\"Q0\":\"3am\",\"Q1\":\"11am\",\"Q2\":\"5\"}", "type": "SLEEP_SURVEY", "trial_type": "survey-text", "trial_index": 5, "time_elapsed": 80709, "internal_node_id": "0.0-5.0"}}, {"uniqueid": "MTK1002:30LB5CDZNDH1IPR2DSCW2UNRKZHZ0R", "current_trial": 6, "dateTime": 1512960954685, "trialdata": {"rt": 52112, "key_press": 74, "type": "INSTRUCTIONS", "trial_type": "text", "trial_index": 6, "time_elapsed": 133822, "internal_node_id": "0.0-6.0"}}, {"uniqueid": "MTK1002:30LB5CDZNDH1IPR2DSCW2UNRKZHZ0R", "current_trial": 7, "dateTime": 1512960977926, "trialdata": {"rt": 22740, "key_press": 74, "type": "INSTRUCTIONS", "trial_type": "text", "trial_index": 7, "time_elapsed": 157064, "internal_node_id": "0.0-7.0"}}, {"uniqueid": "MTK1002:30LB5CDZNDH1IPR2DSCW2UNRKZHZ0R", "current_trial": 8, "dateTime": 1512960988203, "trialdata": {"rt": 9775, "key_press": 75, "type": "INSTRUCTIONS", "trial_type": "text", "trial_index": 8, "time_elapsed": 167341, "internal_node_id": "0.0-8.0"}}, {"uniqueid": "MTK1002:30LB5CDZNDH1IPR2DSCW2UNRKZHZ0R", "current_trial": 9, "dateTime": 1512961007208, "trialdata": {"rt": [6561, 11096, 16128], "responses": ["18", "20", "16"], "num1": [5, 8, 6, 2], "num2": [4, 7, 4, 7], "num3": [9, 5, 6, 7], "type": "DISTRACTOR", "conditions": [18, 1200, "a", 18000], "trial": 0, "trial_type": "math-distractor", "trial_index": 9, "time_elapsed": 186346, "internal_node_id": "0.0-9.0"}}, {"uniqueid": "MTK1002:30LB5CDZNDH1IPR2DSCW2UNRKZHZ0R", "current_trial": 10, "dateTime": 1512961010211, "trialdata": {"rt": -1, "stimulus": "<p id=\"stim\">10</p>", "key_press": -1, "trial_type": "single-stim", "trial_index": 10, "time_elapsed": 189349, "internal_node_id": "0.0-10.0-0.0"}}, {"uniqueid": "MTK1002:30LB5CDZNDH1IPR2DSCW2UNRKZHZ0R", "current_trial": 11, "dateTime": 1512961011214, "trialdata": {"rt": -1, "stimulus": "<p id=\"stim\">9</p>", "key_press": -1, "trial_type": "single-stim", "trial_index": 11, "time_elapsed": 190351, "internal_node_id": "0.0-10.0-1.0"}}, {"uniqueid": "MTK1002:30LB5CDZNDH1IPR2DSCW2UNRKZHZ0R", "current_trial": 12, "dateTime": 1512961012215, "trialdata": {"rt": -1, "stimulus": "<p id=\"stim\">8</p>", "key_press": -1, "trial_type": "single-stim", "trial_index": 12, "time_elapsed": 191353, "internal_node_id": "0.0-10.0-2.0"}}, {"uniqueid": "MTK1002:30LB5CDZNDH1IPR2DSCW2UNRKZHZ0R", "current_trial": 13, "dateTime": 1512961013216, "trialdata": {"rt": -1, "stimulus": "<p id=\"stim\">7</p>", "key_press": -1, "trial_type": "single-stim", "trial_index": 13, "time_elapsed": 192354, "internal_node_id": "0.0-10.0-3.0"}}, {"uniqueid": "MTK1002:30LB5CDZNDH1IPR2DSCW2UNRKZHZ0R", "current_trial": 14, "dateTime": 1512961014218, "trialdata": {"rt": -1, "stimulus": "<p id=\"stim\">6</p>", "key_press": -1, "trial_type": "single-stim", "trial_index": 14, "time_elapsed": 193356, "internal_node_id": "0.0-10.0-4.0"}}, {"uniqueid": "MTK1002:30LB5CDZNDH1IPR2DSCW2UNRKZHZ0R", "current_trial": 15, "dateTime": 1512961015218, "trialdata": {"rt": -1, "stimulus": "<p id=\"stim\">5</p>", "key_press": -1, "trial_type": "single-stim", "trial_index": 15, "time_elapsed": 194356, "internal_node_id": "0.0-10.0-5.0"}}, {"uniqueid": "MTK1002:30LB5CDZNDH1IPR2DSCW2UNRKZHZ0R", "current_trial": 16, "dateTime": 1512961016220, "trialdata": {"rt": -1, "stimulus": "<p id=\"stim\">4</p>", "key_press": -1, "trial_type": "single-stim", "trial_index": 16, "time_elapsed": 195358, "internal_node_id": "0.0-10.0-6.0"}}, {"uniqueid": "MTK1002:30LB5CDZNDH1IPR2DSCW2UNRKZHZ0R", "current_trial": 17, "dateTime": 1512961017222, "trialdata": {"rt": -1, "stimulus": "<p id=\"stim\">3</p>", "key_press": -1, "trial_type": "single-stim", "trial_index": 17, "time_elapsed": 196360, "internal_node_id": "0.0-10.0-7.0"}}, {"uniqueid": "MTK1002:30LB5CDZNDH1IPR2DSCW2UNRKZHZ0R", "current_trial": 18, "dateTime": 1512961018223, "trialdata": {"rt": -1, "stimulus": "<p id=\"stim\">2</p>", "key_press": -1, "trial_type": "single-stim", "trial_index": 18, "time_elapsed": 197361, "internal_node_id": "0.0-10.0-8.0"}}, {"uniqueid": "MTK1002:30LB5CDZNDH1IPR2DSCW2UNRKZHZ0R", "current_trial": 19, "dateTime": 1512961019225, "trialdata": {"rt": -1, "stimulus": "<p id=\"stim\">1</p>", "key_press": -1, "trial_type": "single-stim", "trial_index": 19, "time_elapsed": 198363, "internal_node_id": "0.0-10.0-9.0"}}, {"uniqueid": "MTK1002:30LB5CDZNDH1IPR2DSCW2UNRKZHZ0R", "current_trial": 20, "dateTime": 1512961020727, "trialdata": {"rt": -1, "stimulus": "<p id=\"stim\">+</p>", "key_press": -1, "type": "FIXATION", "trial_type": "single-stim", "trial_index": 20, "time_elapsed": 199865, "internal_node_id": "0.0-11.0-0.0"}}, {"uniqueid": "MTK1002:30LB5CDZNDH1IPR2DSCW2UNRKZHZ0R", "current_trial": 21, "dateTime": 1512961023014, "trialdata": {"rt": -1000, "stimulus": "/static/audio/wordpool/HEDGE.wav", "key_press": -1, "type": "PRES_AUD", "word": "hedge", "wordID": 698, "conditions": [18, 1200, "a", 18000], "trial": 0, "serialpos": 0, "trial_type": "single-audio", "trial_index": 21, "time_elapsed": 202152, "internal_node_id": "0.0-12.0"}}, {"uniqueid": "MTK1002:30LB5CDZNDH1IPR2DSCW2UNRKZHZ0R", "current_trial": 22, "dateTime": 1512961025211, "trialdata": {"rt": -1000, "stimulus": "/static/audio/wordpool/PUPPY.wav", "key_press": -1, "type": "PRES_AUD", "word": "puppy", "wordID": 1143, "conditions": [18, 1200, "a", 18000], "trial": 0, "serialpos": 1, "trial_type": "single-audio", "trial_index": 22, "time_elapsed": 204349, "internal_node_id": "0.0-13.0"}}, {"uniqueid": "MTK1002:30LB5CDZNDH1IPR2DSCW2UNRKZHZ0R", "current_trial": 23, "dateTime": 1512961027289, "trialdata": {"rt": -1000, "stimulus": "/static/audio/wordpool/PARENT.wav", "key_press": -1, "type": "PRES_AUD", "word": "parent", "wordID": 1012, "conditions": [18, 1200, "a", 18000], "trial": 0, "serialpos": 2, "trial_type": "single-audio", "trial_index": 23, "time_elapsed": 206427, "internal_node_id": "0.0-14.0"}}, {"uniqueid": "MTK1002:30LB5CDZNDH1IPR2DSCW2UNRKZHZ0R", "current_trial": 24, "dateTime": 1512961029508, "trialdata": {"rt": -1000, "stimulus": "/static/audio/wordpool/LAGOON.wav", "key_press": -1, "type": "PRES_AUD", "word": "lagoon", "wordID": 794, "conditions": [18, 1200, "a", 18000], "trial": 0, "serialpos": 3, "trial_type": "single-audio", "trial_index": 24, "time_elapsed": 208646, "internal_node_id": "0.0-15.0"}}, {"uniqueid": "MTK1002:30LB5CDZNDH1IPR2DSCW2UNRKZHZ0R", "current_trial": 25, "dateTime": 1512961031725, "trialdata": {"rt": -1000, "stimulus": "/static/audio/wordpool/BEEF.wav", "key_press": -1, "type": "PRES_AUD", "word": "beef", "wordID": 112, "conditions": [18, 1200, "a", 18000], "trial": 0, "serialpos": 4, "trial_type": "single-audio", "trial_index": 25, "time_elapsed": 210863, "internal_node_id": "0.0-16.0"}}, {"uniqueid": "MTK1002:30LB5CDZNDH1IPR2DSCW2UNRKZHZ0R", "current_trial": 26, "dateTime": 1512961033882, "trialdata": {"rt": -1000, "stimulus": "/static/audio/wordpool/OUTDOORS.wav", "key_press": -1, "type": "PRES_AUD", "word": "outdoors", "wordID": 986, "conditions": [18, 1200, "a", 18000], "trial": 0, "serialpos": 5, "trial_type": "single-audio", "trial_index": 26, "time_elapsed": 213020, "internal_node_id": "0.0-17.0"}}, {"uniqueid": "MTK1002:30LB5CDZNDH1IPR2DSCW2UNRKZHZ0R", "current_trial": 27, "dateTime": 1512961036120, "trialdata": {"rt": -1000, "stimulus": "/static/audio/wordpool/DRILL.wav", "key_press": -1, "type": "PRES_AUD", "word": "drill", "wordID": 496, "conditions": [18, 1200, "a", 18000], "trial": 0, "serialpos": 6, "trial_type": "single-audio", "trial_index": 27, "time_elapsed": 215258, "internal_node_id": "0.0-18.0"}}, {"uniqueid": "MTK1002:30LB5CDZNDH1IPR2DSCW2UNRKZHZ0R", "current_trial": 28, "dateTime": 1512961038375, "trialdata": {"rt": -1000, "stimulus": "/static/audio/wordpool/PADDLE.wav", "key_press": -1, "type": "PRES_AUD", "word": "paddle", "wordID": 999, "conditions": [18, 1200, "a", 18000], "trial": 0, "serialpos": 7, "trial_type": "single-audio", "trial_index": 28, "time_elapsed": 217513, "internal_node_id": "0.0-19.0"}}, {"uniqueid": "MTK1002:30LB5CDZNDH1IPR2DSCW2UNRKZHZ0R", "current_trial": 29, "dateTime": 1512961040550, "trialdata": {"rt": -1000, "stimulus": "/static/audio/wordpool/CHAMPAGNE.wav", "key_press": -1, "type": "PRES_AUD", "word": "champagne", "wordID": 277, "conditions": [18, 1200, "a", 18000], "trial": 0, "serialpos": 8, "trial_type": "single-audio", "trial_index": 29, "time_elapsed": 219687, "internal_node_id": "0.0-20.0"}}, {"uniqueid": "MTK1002:30LB5CDZNDH1IPR2DSCW2UNRKZHZ0R", "current_trial": 30, "dateTime": 1512961042600, "trialdata": {"rt": -1000, "stimulus": "/static/audio/wordpool/SLOPE.wav", "key_press": -1, "type": "PRES_AUD", "word": "slope", "wordID": 1327, "conditions": [18, 1200, "a", 18000], "trial": 0, "serialpos": 9, "trial_type": "single-audio", "trial_index": 30, "time_elapsed": 221738, "internal_node_id": "0.0-21.0"}}, {"uniqueid": "MTK1002:30LB5CDZNDH1IPR2DSCW2UNRKZHZ0R", "current_trial": 31, "dateTime": 1512961044790, "trialdata": {"rt": -1000, "stimulus": "/static/audio/wordpool/COMET.wav", "key_press": -1, "type": "PRES_AUD", "word": "comet", "wordID": 352, "conditions": [18, 1200, "a", 18000], "trial": 0, "serialpos": 10, "trial_type": "single-audio", "trial_index": 31, "time_elapsed": 223928, "internal_node_id": "0.0-22.0"}}, {"uniqueid": "MTK1002:30LB5CDZNDH1IPR2DSCW2UNRKZHZ0R", "current_trial": 32, "dateTime": 1512961046985, "trialdata": {"rt": -1000, "stimulus": "/static/audio/wordpool/BOYFRIEND.wav", "key_press": -1, "type": "PRES_AUD", "word": "boyfriend", "wordID": 161, "conditions": [18, 1200, "a", 18000], "trial": 0, "serialpos": 11, "trial_type": "single-audio", "trial_index": 32, "time_elapsed": 226123, "internal_node_id": "0.0-23.0"}}, {"uniqueid": "MTK1002:30LB5CDZNDH1IPR2DSCW2UNRKZHZ0R", "current_trial": 33, "dateTime": 1512961049183, "trialdata": {"rt": -1000, "stimulus": "/static/audio/wordpool/CITRUS.wav", "key_press": -1, "type": "PRES_AUD", "word": "citrus", "wordID": 312, "conditions": [18, 1200, "a", 18000], "trial": 0, "serialpos": 12, "trial_type": "single-audio", "trial_index": 33, "time_elapsed": 228321, "internal_node_id": "0.0-24.0"}}, {"uniqueid": "MTK1002:30LB5CDZNDH1IPR2DSCW2UNRKZHZ0R", "current_trial": 34, "dateTime": 1512961051253, "trialdata": {"rt": -1000, "stimulus": "/static/audio/wordpool/SUSPECT.wav", "key_press": -1, "type": "PRES_AUD", "word": "suspect", "wordID": 1414, "conditions": [18, 1200, "a", 18000], "trial": 0, "serialpos": 13, "trial_type": "single-audio", "trial_index": 34, "time_elapsed": 230391, "internal_node_id": "0.0-25.0"}}, {"uniqueid": "MTK1002:30LB5CDZNDH1IPR2DSCW2UNRKZHZ0R", "current_trial": 35, "dateTime": 1512961053542, "trialdata": {"rt": -1000, "stimulus": "/static/audio/wordpool/WRENCH.wav", "key_press": -1, "type": "PRES_AUD", "word": "wrench", "wordID": 1624, "conditions": [18, 1200, "a", 18000], "trial": 0, "serialpos": 14, "trial_type": "single-audio", "trial_index": 35, "time_elapsed": 232680, "internal_node_id": "0.0-26.0"}}, {"uniqueid": "MTK1002:30LB5CDZNDH1IPR2DSCW2UNRKZHZ0R", "current_trial": 36, "dateTime": 1512961055835, "trialdata": {"rt": -1000, "stimulus": "/static/audio/wordpool/PICTURE.wav", "key_press": -1, "type": "PRES_AUD", "word": "picture", "wordID": 1060, "conditions": [18, 1200, "a", 18000], "trial": 0, "serialpos": 15, "trial_type": "single-audio", "trial_index": 36, "time_elapsed": 234973, "internal_node_id": "0.0-27.0"}}, {"uniqueid": "MTK1002:30LB5CDZNDH1IPR2DSCW2UNRKZHZ0R", "current_trial": 37, "dateTime": 1512961058156, "trialdata": {"rt": -1000, "stimulus": "/static/audio/wordpool/PREACHER.wav", "key_press": -1, "type": "PRES_AUD", "word": "preacher", "wordID": 1118, "conditions": [18, 1200, "a", 18000], "trial": 0, "serialpos": 16, "trial_type": "single-audio", "trial_index": 37, "time_elapsed": 237294, "internal_node_id": "0.0-28.0"}}, {"uniqueid": "MTK1002:30LB5CDZNDH1IPR2DSCW2UNRKZHZ0R", "current_trial": 38, "dateTime": 1512961060551, "trialdata": {"rt": -1000, "stimulus": "/static/audio/wordpool/SAUSAGE.wav", "key_press": -1, "type": "PRES_AUD", "word": "sausage", "wordID": 1237, "conditions": [18, 1200, "a", 18000], "trial": 0, "serialpos": 17, "trial_type": "single-audio", "trial_index": 38, "time_elapsed": 239689, "internal_node_id": "0.0-29.0"}}, {"uniqueid": "MTK1002:30LB5CDZNDH1IPR2DSCW2UNRKZHZ0R", "current_trial": 39, "dateTime": 1512961061930, "trialdata": {"rt": -1, "stimulus": "", "key_press": -1, "type": "PRE_RECALL_DELAY", "trial_type": "single-stim", "trial_index": 39, "time_elapsed": 241068, "internal_node_id": "0.0-30.0-0.0"}}, {"uniqueid": "MTK1002:30LB5CDZNDH1IPR2DSCW2UNRKZHZ0R", "current_trial": 40, "dateTime": 1512961062431, "trialdata": {"rt": -1000, "stimulus": "/static/audio/400Hz.wav", "key_press": -1, "type": "PRE_RECALL_ALERT", "trial_type": "single-audio", "trial_index": 40, "time_elapsed": 241569, "internal_node_id": "0.0-31.0"}}, {"uniqueid": "MTK1002:30LB5CDZNDH1IPR2DSCW2UNRKZHZ0R", "current_trial": 41, "dateTime": 1512961122435, "trialdata": {"rt": [5033, 7847, 10051, 12016, 15826, 18578, 26855], "recwords": ["sausage", "lagoon", "boyfriend", "puppey", "parent", "drill", "wrench"], "type": "FREE_RECALL", "conditions": [18, 1200, "a", 18000], "trial": 0, "trial_type": "free-recall", "trial_index": 41, "time_elapsed": 301571, "internal_node_id": "0.0-32.0-0.0"}}, {"uniqueid": "MTK1002:30LB5CDZNDH1IPR2DSCW2UNRKZHZ0R", "current_trial": 42, "dateTime": 1512961139987, "trialdata": {"rt": 15551, "key_press": 74, "type": "INSTRUCTIONS", "trial_type": "text", "trial_index": 42, "time_elapsed": 319125, "internal_node_id": "0.0-33.0"}}, {"uniqueid": "MTK1002:30LB5CDZNDH1IPR2DSCW2UNRKZHZ0R", "current_trial": 43, "dateTime": 1512961159990, "trialdata": {"rt": [4920, 7887, 10159, 12023, 14949, 17149], "responses": ["10", "17", "16", "16", "10", "16"], "num1": [4, 5, 6, 4, 4, 6, 1], "num2": [3, 6, 6, 6, 2, 1, 9], "num3": [3, 6, 4, 6, 4, 9, 8], "type": "DISTRACTOR", "conditions": [18, 1200, "v", 18000], "trial": 1, "trial_type": "math-distractor", "trial_index": 43, "time_elapsed": 339128, "internal_node_id": "0.0-34.0"}}, {"uniqueid": "MTK1002:30LB5CDZNDH1IPR2DSCW2UNRKZHZ0R", "current_trial": 44, "dateTime": 1512961162992, "trialdata": {"rt": -1, "stimulus": "<p id=\"stim\">10</p>", "key_press": -1, "trial_type": "single-stim", "trial_index": 44, "time_elapsed": 342130, "internal_node_id": "0.0-35.0-0.0"}}, {"uniqueid": "MTK1002:30LB5CDZNDH1IPR2DSCW2UNRKZHZ0R", "current_trial": 45, "dateTime": 1512961163993, "trialdata": {"rt": -1, "stimulus": "<p id=\"stim\">9</p>", "key_press": -1, "trial_type": "single-stim", "trial_index": 45, "time_elapsed": 343131, "internal_node_id": "0.0-35.0-1.0"}}, {"uniqueid": "MTK1002:30LB5CDZNDH1IPR2DSCW2UNRKZHZ0R", "current_trial": 46, "dateTime": 1512961164994, "trialdata": {"rt": -1, "stimulus": "<p id=\"stim\">8</p>", "key_press": -1, "trial_type": "single-stim", "trial_index": 46, "time_elapsed": 344132, "internal_node_id": "0.0-35.0-2.0"}}, {"uniqueid": "MTK1002:30LB5CDZNDH1IPR2DSCW2UNRKZHZ0R", "current_trial": 47, "dateTime": 1512961165995, "trialdata": {"rt": -1, "stimulus": "<p id=\"stim\">7</p>", "key_press": -1, "trial_type": "single-stim", "trial_index": 47, "time_elapsed": 345133, "internal_node_id": "0.0-35.0-3.0"}}, {"uniqueid": "MTK1002:30LB5CDZNDH1IPR2DSCW2UNRKZHZ0R", "current_trial": 48, "dateTime": 1512961166995, "trialdata": {"rt": -1, "stimulus": "<p id=\"stim\">6</p>", "key_press": -1, "trial_type": "single-stim", "trial_index": 48, "time_elapsed": 346133, "internal_node_id": "0.0-35.0-4.0"}}, {"uniqueid": "MTK1002:30LB5CDZNDH1IPR2DSCW2UNRKZHZ0R", "current_trial": 49, "dateTime": 1512961167997, "trialdata": {"rt": -1, "stimulus": "<p id=\"stim\">5</p>", "key_press": -1, "trial_type": "single-stim", "trial_index": 49, "time_elapsed": 347135, "internal_node_id": "0.0-35.0-5.0"}}, {"uniqueid": "MTK1002:30LB5CDZNDH1IPR2DSCW2UNRKZHZ0R", "current_trial": 50, "dateTime": 1512961168998, "trialdata": {"rt": -1, "stimulus": "<p id=\"stim\">4</p>", "key_press": -1, "trial_type": "single-stim", "trial_index": 50, "time_elapsed": 348136, "internal_node_id": "0.0-35.0-6.0"}}, {"uniqueid": "MTK1002:30LB5CDZNDH1IPR2DSCW2UNRKZHZ0R", "current_trial": 51, "dateTime": 1512961169999, "trialdata": {"rt": -1, "stimulus": "<p id=\"stim\">3</p>", "key_press": -1, "trial_type": "single-stim", "trial_index": 51, "time_elapsed": 349137, "internal_node_id": "0.0-35.0-7.0"}}, {"uniqueid": "MTK1002:30LB5CDZNDH1IPR2DSCW2UNRKZHZ0R", "current_trial": 52, "dateTime": 1512961171001, "trialdata": {"rt": -1, "stimulus": "<p id=\"stim\">2</p>", "key_press": -1, "trial_type": "single-stim", "trial_index": 52, "time_elapsed": 350139, "internal_node_id": "0.0-35.0-8.0"}}, {"uniqueid": "MTK1002:30LB5CDZNDH1IPR2DSCW2UNRKZHZ0R", "current_trial": 53, "dateTime": 1512961172003, "trialdata": {"rt": -1, "stimulus": "<p id=\"stim\">1</p>", "key_press": -1, "trial_type": "single-stim", "trial_index": 53, "time_elapsed": 351141, "internal_node_id": "0.0-35.0-9.0"}}, {"uniqueid": "MTK1002:30LB5CDZNDH1IPR2DSCW2UNRKZHZ0R", "current_trial": 54, "dateTime": 1512961173504, "trialdata": {"rt": -1, "stimulus": "<p id=\"stim\">+</p>", "key_press": -1, "type": "FIXATION", "trial_type": "single-stim", "trial_index": 54, "time_elapsed": 352642, "internal_node_id": "0.0-36.0-0.0"}}, {"uniqueid": "MTK1002:30LB5CDZNDH1IPR2DSCW2UNRKZHZ0R", "current_trial": 55, "dateTime": 1512961174706, "trialdata": {"rt": -1, "stimulus": "<p id=\"stim\">SNACK</p>", "key_press": -1, "type": "PRES_VIS", "word": "snack", "wordID": 1330, "conditions": [18, 1200, "v", 18000], "trial": 1, "serialpos": 0, "trial_type": "single-stim", "trial_index": 55, "time_elapsed": 353844, "internal_node_id": "0.0-37.0"}}, {"uniqueid": "MTK1002:30LB5CDZNDH1IPR2DSCW2UNRKZHZ0R", "current_trial": 56, "dateTime": 1512961177100, "trialdata": {"rt": -1, "stimulus": "<p id=\"stim\">HELMET</p>", "key_press": -1, "type": "PRES_VIS", "word": "helmet", "wordID": 701, "conditions": [18, 1200, "v", 18000], "trial": 1, "serialpos": 1, "trial_type": "single-stim", "trial_index": 56, "time_elapsed": 356238, "internal_node_id": "0.0-38.0"}}, {"uniqueid": "MTK1002:30LB5CDZNDH1IPR2DSCW2UNRKZHZ0R", "current_trial": 57, "dateTime": 1512961179421, "trialdata": {"rt": -1, "stimulus": "<p id=\"stim\">TWIG</p>", "key_press": -1, "type": "PRES_VIS", "word": "twig", "wordID": 1526, "conditions": [18, 1200, "v", 18000], "trial": 1, "serialpos": 2, "trial_type": "single-stim", "trial_index": 57, "time_elapsed": 358559, "internal_node_id": "0.0-39.0"}}, {"uniqueid": "MTK1002:30LB5CDZNDH1IPR2DSCW2UNRKZHZ0R", "current_trial": 58, "dateTime": 1512961181466, "trialdata": {"rt": -1, "stimulus": "<p id=\"stim\">DRUG</p>", "key_press": -1, "type": "PRES_VIS", "word": "drug", "wordID": 500, "conditions": [18, 1200, "v", 18000], "trial": 1, "serialpos": 3, "trial_type": "single-stim", "trial_index": 58, "time_elapsed": 360604, "internal_node_id": "0.0-40.0"}}, {"uniqueid": "MTK1002:30LB5CDZNDH1IPR2DSCW2UNRKZHZ0R", "current_trial": 59, "dateTime": 1512961183518, "trialdata": {"rt": -1, "stimulus": "<p id=\"stim\">DINER</p>", "key_press": -1, "type": "PRES_VIS", "word": "diner", "wordID": 466, "conditions": [18, 1200, "v", 18000], "trial": 1, "serialpos": 4, "trial_type": "single-stim", "trial_index": 59, "time_elapsed": 362656, "internal_node_id": "0.0-41.0"}}, {"uniqueid": "MTK1002:30LB5CDZNDH1IPR2DSCW2UNRKZHZ0R", "current_trial": 60, "dateTime": 1512961185570, "trialdata": {"rt": -1, "stimulus": "<p id=\"stim\">DORM</p>", "key_press": -1, "type": "PRES_VIS", "word": "dorm", "wordID": 487, "conditions": [18, 1200, "v", 18000], "trial": 1, "serialpos": 5, "trial_type": "single-stim", "trial_index": 60, "time_elapsed": 364708, "internal_node_id": "0.0-42.0"}}, {"uniqueid": "MTK1002:30LB5CDZNDH1IPR2DSCW2UNRKZHZ0R", "current_trial": 61, "dateTime": 1512961187625, "trialdata": {"rt": -1, "stimulus": "<p id=\"stim\">WORKER</p>", "key_press": -1, "type": "PRES_VIS", "word": "worker", "wordID": 1620, "conditions": [18, 1200, "v", 18000], "trial": 1, "serialpos": 6, "trial_type": "single-stim", "trial_index": 61, "time_elapsed": 366763, "internal_node_id": "0.0-43.0"}}, {"uniqueid": "MTK1002:30LB5CDZNDH1IPR2DSCW2UNRKZHZ0R", "current_trial": 62, "dateTime": 1512961189989, "trialdata": {"rt": -1, "stimulus": "<p id=\"stim\">BATHTUB</p>", "key_press": -1, "type": "PRES_VIS", "word": "bathtub", "wordID": 99, "conditions": [18, 1200, "v", 18000], "trial": 1, "serialpos": 7, "trial_type": "single-stim", "trial_index": 62, "time_elapsed": 369127, "internal_node_id": "0.0-44.0"}}, {"uniqueid": "MTK1002:30LB5CDZNDH1IPR2DSCW2UNRKZHZ0R", "current_trial": 63, "dateTime": 1512961192222, "trialdata": {"rt": -1, "stimulus": "<p id=\"stim\">PIGMENT</p>", "key_press": -1, "type": "PRES_VIS", "word": "pigment", "wordID": 1065, "conditions": [18, 1200, "v", 18000], "trial": 1, "serialpos": 8, "trial_type": "single-stim", "trial_index": 63, "time_elapsed": 371360, "internal_node_id": "0.0-45.0"}}, {"uniqueid": "MTK1002:30LB5CDZNDH1IPR2DSCW2UNRKZHZ0R", "current_trial": 64, "dateTime": 1512961194336, "trialdata": {"rt": -1, "stimulus": "<p id=\"stim\">BARREL</p>", "key_press": -1, "type": "PRES_VIS", "word": "barrel", "wordID": 90, "conditions": [18, 1200, "v", 18000], "trial": 1, "serialpos": 9, "trial_type": "single-stim", "trial_index": 64, "time_elapsed": 373474, "internal_node_id": "0.0-46.0"}}, {"uniqueid": "MTK1002:30LB5CDZNDH1IPR2DSCW2UNRKZHZ0R", "current_trial": 65, "dateTime": 1512961196453, "trialdata": {"rt": -1, "stimulus": "<p id=\"stim\">WASP</p>", "key_press": -1, "type": "PRES_VIS", "word": "wasp", "wordID": 1592, "conditions": [18, 1200, "v", 18000], "trial": 1, "serialpos": 10, "trial_type": "single-stim", "trial_index": 65, "time_elapsed": 375591, "internal_node_id": "0.0-47.0"}}, {"uniqueid": "MTK1002:30LB5CDZNDH1IPR2DSCW2UNRKZHZ0R", "current_trial": 66, "dateTime": 1512961198616, "trialdata": {"rt": -1, "stimulus": "<p id=\"stim\">GUARD</p>", "key_press": -1, "type": "PRES_VIS", "word": "guard", "wordID": 666, "conditions": [18, 1200, "v", 18000], "trial": 1, "serialpos": 11, "trial_type": "single-stim", "trial_index": 66, "time_elapsed": 377754, "internal_node_id": "0.0-48.0"}}, {"uniqueid": "MTK1002:30LB5CDZNDH1IPR2DSCW2UNRKZHZ0R", "current_trial": 67, "dateTime": 1512961200992, "trialdata": {"rt": -1, "stimulus": "<p id=\"stim\">CIGAR</p>", "key_press": -1, "type": "PRES_VIS", "word": "cigar", "wordID": 307, "conditions": [18, 1200, "v", 18000], "trial": 1, "serialpos": 12, "trial_type": "single-stim", "trial_index": 67, "time_elapsed": 380130, "internal_node_id": "0.0-49.0"}}, {"uniqueid": "MTK1002:30LB5CDZNDH1IPR2DSCW2UNRKZHZ0R", "current_trial": 68, "dateTime": 1512961203029, "trialdata": {"rt": -1, "stimulus": "<p id=\"stim\">FLEET</p>", "key_press": -1, "type": "PRES_VIS", "word": "fleet", "wordID": 577, "conditions": [18, 1200, "v", 18000], "trial": 1, "serialpos": 13, "trial_type": "single-stim", "trial_index": 68, "time_elapsed": 382166, "internal_node_id": "0.0-50.0"}}, {"uniqueid": "MTK1002:30LB5CDZNDH1IPR2DSCW2UNRKZHZ0R", "current_trial": 69, "dateTime": 1512961205114, "trialdata": {"rt": -1, "stimulus": "<p id=\"stim\">ULCER</p>", "key_press": -1, "type": "PRES_VIS", "word": "ulcer", "wordID": 1532, "conditions": [18, 1200, "v", 18000], "trial": 1, "serialpos": 14, "trial_type": "single-stim", "trial_index": 69, "time_elapsed": 384252, "internal_node_id": "0.0-51.0"}}, {"uniqueid": "MTK1002:30LB5CDZNDH1IPR2DSCW2UNRKZHZ0R", "current_trial": 70, "dateTime": 1512961207510, "trialdata": {"rt": -1, "stimulus": "<p id=\"stim\">CYCLONE</p>", "key_press": -1, "type": "PRES_VIS", "word": "cyclone", "wordID": 430, "conditions": [18, 1200, "v", 18000], "trial": 1, "serialpos": 15, "trial_type": "single-stim", "trial_index": 70, "time_elapsed": 386648, "internal_node_id": "0.0-52.0"}}, {"uniqueid": "MTK1002:30LB5CDZNDH1IPR2DSCW2UNRKZHZ0R", "current_trial": 71, "dateTime": 1512961209883, "trialdata": {"rt": -1, "stimulus": "<p id=\"stim\">WAITRESS</p>", "key_press": -1, "type": "PRES_VIS", "word": "waitress", "wordID": 1580, "conditions": [18, 1200, "v", 18000], "trial": 1, "serialpos": 16, "trial_type": "single-stim", "trial_index": 71, "time_elapsed": 389021, "internal_node_id": "0.0-53.0"}}, {"uniqueid": "MTK1002:30LB5CDZNDH1IPR2DSCW2UNRKZHZ0R", "current_trial": 72, "dateTime": 1512961212029, "trialdata": {"rt": -1, "stimulus": "<p id=\"stim\">POSTAGE</p>", "key_press": -1, "type": "PRES_VIS", "word": "postage", "wordID": 1112, "conditions": [18, 1200, "v", 18000], "trial": 1, "serialpos": 17, "trial_type": "single-stim", "trial_index": 72, "time_elapsed": 391167, "internal_node_id": "0.0-54.0"}}, {"uniqueid": "MTK1002:30LB5CDZNDH1IPR2DSCW2UNRKZHZ0R", "current_trial": 73, "dateTime": 1512961214476, "trialdata": {"rt": -1, "stimulus": "", "key_press": -1, "type": "PRE_RECALL_DELAY", "trial_type": "single-stim", "trial_index": 73, "time_elapsed": 393614, "internal_node_id": "0.0-55.0-0.0"}}, {"uniqueid": "MTK1002:30LB5CDZNDH1IPR2DSCW2UNRKZHZ0R", "current_trial": 74, "dateTime": 1512961214979, "trialdata": {"rt": -1000, "stimulus": "/static/audio/400Hz.wav", "key_press": -1, "type": "PRE_RECALL_ALERT", "trial_type": "single-audio", "trial_index": 74, "time_elapsed": 394117, "internal_node_id": "0.0-56.0"}}, {"uniqueid": "MTK1002:30LB5CDZNDH1IPR2DSCW2UNRKZHZ0R", "current_trial": 75, "dateTime": 1512961274982, "trialdata": {"rt": [5061, 8394, 10466, 14431, 22719, 49424], "recwords": ["waitress", "cyclone", "drug", "worker", "ulcer", "dog"], "type": "FREE_RECALL", "conditions": [18, 1200, "v", 18000], "trial": 1, "trial_type": "free-recall", "trial_index": 75, "time_elapsed": 454118, "internal_node_id": "0.0-57.0-0.0"}}, {"uniqueid": "MTK1002:30LB5CDZNDH1IPR2DSCW2UNRKZHZ0R", "current_trial": 76, "dateTime": 1512961282022, "trialdata": {"rt": 5036, "key_press": 72, "type": "INSTRUCTIONS", "trial_type": "text", "trial_index": 76, "time_elapsed": 461157, "internal_node_id": "0.0-58.0"}}, {"uniqueid": "MTK1002:30LB5CDZNDH1IPR2DSCW2UNRKZHZ0R", "current_trial": 77, "dateTime": 1512961295024, "trialdata": {"rt": [3125, 4603, 8219, 10008], "responses": ["17", "21", "16", "14"], "num1": [5, 7, 5, 2, 3], "num2": [6, 7, 2, 5, 3], "num3": [6, 7, 9, 7, 7], "type": "DISTRACTOR", "conditions": [24, 1600, "v", 12000], "trial": 2, "trial_type": "math-distractor", "trial_index": 77, "time_elapsed": 474162, "internal_node_id": "0.0-59.0"}}, {"uniqueid": "MTK1002:30LB5CDZNDH1IPR2DSCW2UNRKZHZ0R", "current_trial": 78, "dateTime": 1512961298027, "trialdata": {"rt": -1, "stimulus": "<p id=\"stim\">10</p>", "key_press": -1, "trial_type": "single-stim", "trial_index": 78, "time_elapsed": 477165, "internal_node_id": "0.0-60.0-0.0"}}, {"uniqueid": "MTK1002:30LB5CDZNDH1IPR2DSCW2UNRKZHZ0R", "current_trial": 79, "dateTime": 1512961299028, "trialdata": {"rt": -1, "stimulus": "<p id=\"stim\">9</p>", "key_press": -1, "trial_type": "single-stim", "trial_index": 79, "time_elapsed": 478166, "internal_node_id": "0.0-60.0-1.0"}}, {"uniqueid": "MTK1002:30LB5CDZNDH1IPR2DSCW2UNRKZHZ0R", "current_trial": 80, "dateTime": 1512961300029, "trialdata": {"rt": -1, "stimulus": "<p id=\"stim\">8</p>", "key_press": -1, "trial_type": "single-stim", "trial_index": 80, "time_elapsed": 479167, "internal_node_id": "0.0-60.0-2.0"}}, {"uniqueid": "MTK1002:30LB5CDZNDH1IPR2DSCW2UNRKZHZ0R", "current_trial": 81, "dateTime": 1512961301031, "trialdata": {"rt": -1, "stimulus": "<p id=\"stim\">7</p>", "key_press": -1, "trial_type": "single-stim", "trial_index": 81, "time_elapsed": 480169, "internal_node_id": "0.0-60.0-3.0"}}, {"uniqueid": "MTK1002:30LB5CDZNDH1IPR2DSCW2UNRKZHZ0R", "current_trial": 82, "dateTime": 1512961302032, "trialdata": {"rt": -1, "stimulus": "<p id=\"stim\">6</p>", "key_press": -1, "trial_type": "single-stim", "trial_index": 82, "time_elapsed": 481170, "internal_node_id": "0.0-60.0-4.0"}}, {"uniqueid": "MTK1002:30LB5CDZNDH1IPR2DSCW2UNRKZHZ0R", "current_trial": 83, "dateTime": 1512961303033, "trialdata": {"rt": -1, "stimulus": "<p id=\"stim\">5</p>", "key_press": -1, "trial_type": "single-stim", "trial_index": 83, "time_elapsed": 482171, "internal_node_id": "0.0-60.0-5.0"}}, {"uniqueid": "MTK1002:30LB5CDZNDH1IPR2DSCW2UNRKZHZ0R", "current_trial": 84, "dateTime": 1512961304034, "trialdata": {"rt": -1, "stimulus": "<p id=\"stim\">4</p>", "key_press": -1, "trial_type": "single-stim", "trial_index": 84, "time_elapsed": 483172, "internal_node_id": "0.0-60.0-6.0"}}, {"uniqueid": "MTK1002:30LB5CDZNDH1IPR2DSCW2UNRKZHZ0R", "current_trial": 85, "dateTime": 1512961305036, "trialdata": {"rt": -1, "stimulus": "<p id=\"stim\">3</p>", "key_press": -1, "trial_type": "single-stim", "trial_index": 85, "time_elapsed": 484174, "internal_node_id": "0.0-60.0-7.0"}}, {"uniqueid": "MTK1002:30LB5CDZNDH1IPR2DSCW2UNRKZHZ0R", "current_trial": 86, "dateTime": 1512961306037, "trialdata": {"rt": -1, "stimulus": "<p id=\"stim\">2</p>", "key_press": -1, "trial_type": "single-stim", "trial_index": 86, "time_elapsed": 485175, "internal_node_id": "0.0-60.0-8.0"}}, {"uniqueid": "MTK1002:30LB5CDZNDH1IPR2DSCW2UNRKZHZ0R", "current_trial": 87, "dateTime": 1512961307040, "trialdata": {"rt": -1, "stimulus": "<p id=\"stim\">1</p>", "key_press": -1, "trial_type": "single-stim", "trial_index": 87, "time_elapsed": 486178, "internal_node_id": "0.0-60.0-9.0"}}, {"uniqueid": "MTK1002:30LB5CDZNDH1IPR2DSCW2UNRKZHZ0R", "current_trial": 88, "dateTime": 1512961308541, "trialdata": {"rt": -1, "stimulus": "<p id=\"stim\">+</p>", "key_press": -1, "type": "FIXATION", "trial_type": "single-stim", "trial_index": 88, "time_elapsed": 487679, "internal_node_id": "0.0-61.0-0.0"}}, {"uniqueid": "MTK1002:30LB5CDZNDH1IPR2DSCW2UNRKZHZ0R", "current_trial": 89, "dateTime": 1512961310142, "trialdata": {"rt": -1, "stimulus": "<p id=\"stim\">FLASHLIGHT</p>", "key_press": -1, "type": "PRES_VIS", "word": "flashlight", "wordID": 574, "conditions": [24, 1600, "v", 12000], "trial": 2, "serialpos": 0, "trial_type": "single-stim", "trial_index": 89, "time_elapsed": 489280, "internal_node_id": "0.0-62.0"}}, {"uniqueid": "MTK1002:30LB5CDZNDH1IPR2DSCW2UNRKZHZ0R", "current_trial": 90, "dateTime": 1512961312741, "trialdata": {"rt": -1, "stimulus": "<p id=\"stim\">COMPASS</p>", "key_press": -1, "type": "PRES_VIS", "word": "compass", "wordID": 357, "conditions": [24, 1600, "v", 12000], "trial": 2, "serialpos": 1, "trial_type": "single-stim", "trial_index": 90, "time_elapsed": 491879, "internal_node_id": "0.0-63.0"}}, {"uniqueid": "MTK1002:30LB5CDZNDH1IPR2DSCW2UNRKZHZ0R", "current_trial": 91, "dateTime": 1512961315274, "trialdata": {"rt": -1, "stimulus": "<p id=\"stim\">CHILD</p>", "key_press": -1, "type": "PRES_VIS", "word": "child", "wordID": 298, "conditions": [24, 1600, "v", 12000], "trial": 2, "serialpos": 2, "trial_type": "single-stim", "trial_index": 91, "time_elapsed": 494412, "internal_node_id": "0.0-64.0"}}, {"uniqueid": "MTK1002:30LB5CDZNDH1IPR2DSCW2UNRKZHZ0R", "current_trial": 92, "dateTime": 1512961317741, "trialdata": {"rt": -1, "stimulus": "<p id=\"stim\">JOURNAL</p>", "key_press": -1, "type": "PRES_VIS", "word": "journal", "wordID": 759, "conditions": [24, 1600, "v", 12000], "trial": 2, "serialpos": 3, "trial_type": "single-stim", "trial_index": 92, "time_elapsed": 496879, "internal_node_id": "0.0-65.0"}}, {"uniqueid": "MTK1002:30LB5CDZNDH1IPR2DSCW2UNRKZHZ0R", "current_trial": 93, "dateTime": 1512961320488, "trialdata": {"rt": -1, "stimulus": "<p id=\"stim\">GARLIC</p>", "key_press": -1, "type": "PRES_VIS", "word": "garlic", "wordID": 623, "conditions": [24, 1600, "v", 12000], "trial": 2, "serialpos": 4, "trial_type": "single-stim", "trial_index": 93, "time_elapsed": 499626, "internal_node_id": "0.0-66.0"}}, {"uniqueid": "MTK1002:30LB5CDZNDH1IPR2DSCW2UNRKZHZ0R", "current_trial": 94, "dateTime": 1512961323171, "trialdata": {"rt": -1, "stimulus": "<p id=\"stim\">BABY</p>", "key_press": -1, "type": "PRES_VIS", "word": "baby", "wordID": 63, "conditions": [24, 1600, "v", 12000], "trial": 2, "serialpos": 5, "trial_type": "single-stim", "trial_index": 94, "time_elapsed": 502309, "internal_node_id": "0.0-67.0"}}, {"uniqueid": "MTK1002:30LB5CDZNDH1IPR2DSCW2UNRKZHZ0R", "current_trial": 95, "dateTime": 1512961325798, "trialdata": {"rt": -1, "stimulus": "<p id=\"stim\">POET</p>", "key_press": -1, "type": "PRES_VIS", "word": "poet", "wordID": 1094, "conditions": [24, 1600, "v", 12000], "trial": 2, "serialpos": 6, "trial_type": "single-stim", "trial_index": 95, "time_elapsed": 504936, "internal_node_id": "0.0-68.0"}}, {"uniqueid": "MTK1002:30LB5CDZNDH1IPR2DSCW2UNRKZHZ0R", "current_trial": 96, "dateTime": 1512961328382, "trialdata": {"rt": -1, "stimulus": "<p id=\"stim\">FLAG</p>", "key_press": -1, "type": "PRES_VIS", "word": "flag", "wordID": 572, "conditions": [24, 1600, "v", 12000], "trial": 2, "serialpos": 7, "trial_type": "single-stim", "trial_index": 96, "time_elapsed": 507520, "internal_node_id": "0.0-69.0"}}, {"uniqueid": "MTK1002:30LB5CDZNDH1IPR2DSCW2UNRKZHZ0R", "current_trial": 97, "dateTime": 1512961330937, "trialdata": {"rt": -1, "stimulus": "<p id=\"stim\">SLIME</p>", "key_press": -1, "type": "PRES_VIS", "word": "slime", "wordID": 1326, "conditions": [24, 1600, "v", 12000], "trial": 2, "serialpos": 8, "trial_type": "single-stim", "trial_index": 97, "time_elapsed": 510075, "internal_node_id": "0.0-70.0"}}, {"uniqueid": "MTK1002:30LB5CDZNDH1IPR2DSCW2UNRKZHZ0R", "current_trial": 98, "dateTime": 1512961333550, "trialdata": {"rt": -1, "stimulus": "<p id=\"stim\">MONSTER</p>", "key_press": -1, "type": "PRES_VIS", "word": "monster", "wordID": 911, "conditions": [24, 1600, "v", 12000], "trial": 2, "serialpos": 9, "trial_type": "single-stim", "trial_index": 98, "time_elapsed": 512688, "internal_node_id": "0.0-71.0"}}, {"uniqueid": "MTK1002:30LB5CDZNDH1IPR2DSCW2UNRKZHZ0R", "current_trial": 99, "dateTime": 1512961336320, "trialdata": {"rt": -1, "stimulus": "<p id=\"stim\">FLASK</p>", "key_press": -1, "type": "PRES_VIS", "word": "flask", "wordID": 575, "conditions": [24, 1600, "v", 12000], "trial": 2, "serialpos": 10, "trial_type": "single-stim", "trial_index": 99, "time_elapsed": 515458, "internal_node_id": "0.0-72.0"}}, {"uniqueid": "MTK1002:30LB5CDZNDH1IPR2DSCW2UNRKZHZ0R", "current_trial": 100, "dateTime": 1512961338845, "trialdata": {"rt": -1, "stimulus": "<p id=\"stim\">BEAKER</p>", "key_press": -1, "type": "PRES_VIS", "word": "beaker", "wordID": 103, "conditions": [24, 1600, "v", 12000], "trial": 2, "serialpos": 11, "trial_type": "single-stim", "trial_index": 100, "time_elapsed": 517983, "internal_node_id": "0.0-73.0"}}, {"uniqueid": "MTK1002:30LB5CDZNDH1IPR2DSCW2UNRKZHZ0R", "current_trial": 101, "dateTime": 1512961341371, "trialdata": {"rt": -1, "stimulus": "<p id=\"stim\">HERO</p>", "key_press": -1, "type": "PRES_VIS", "word": "hero", "wordID": 705, "conditions": [24, 1600, "v", 12000], "trial": 2, "serialpos": 12, "trial_type": "single-stim", "trial_index": 101, "time_elapsed": 520509, "internal_node_id": "0.0-74.0"}}, {"uniqueid": "MTK1002:30LB5CDZNDH1IPR2DSCW2UNRKZHZ0R", "current_trial": 102, "dateTime": 1512961344009, "trialdata": {"rt": -1, "stimulus": "<p id=\"stim\">THIEF</p>", "key_press": -1, "type": "PRES_VIS", "word": "thief", "wordID": 1455, "conditions": [24, 1600, "v", 12000], "trial": 2, "serialpos": 13, "trial_type": "single-stim", "trial_index": 102, "time_elapsed": 523147, "internal_node_id": "0.0-75.0"}}, {"uniqueid": "MTK1002:30LB5CDZNDH1IPR2DSCW2UNRKZHZ0R", "current_trial": 103, "dateTime": 1512961346587, "trialdata": {"rt": -1, "stimulus": "<p id=\"stim\">PARROT</p>", "key_press": -1, "type": "PRES_VIS", "word": "parrot", "wordID": 1014, "conditions": [24, 1600, "v", 12000], "trial": 2, "serialpos": 14, "trial_type": "single-stim", "trial_index": 103, "time_elapsed": 525725, "internal_node_id": "0.0-76.0"}}, {"uniqueid": "MTK1002:30LB5CDZNDH1IPR2DSCW2UNRKZHZ0R", "current_trial": 104, "dateTime": 1512961349340, "trialdata": {"rt": -1, "stimulus": "<p id=\"stim\">ROOSTER</p>", "key_press": -1, "type": "PRES_VIS", "word": "rooster", "wordID": 1208, "conditions": [24, 1600, "v", 12000], "trial": 2, "serialpos": 15, "trial_type": "single-stim", "trial_index": 104, "time_elapsed": 528478, "internal_node_id": "0.0-77.0"}}, {"uniqueid": "MTK1002:30LB5CDZNDH1IPR2DSCW2UNRKZHZ0R", "current_trial": 105, "dateTime": 1512961351940, "trialdata": {"rt": -1, "stimulus": "<p id=\"stim\">POCKET</p>", "key_press": -1, "type": "PRES_VIS", "word": "pocket", "wordID": 1092, "conditions": [24, 1600, "v", 12000], "trial": 2, "serialpos": 16, "trial_type": "single-stim", "trial_index": 105, "time_elapsed": 531078, "internal_node_id": "0.0-78.0"}}, {"uniqueid": "MTK1002:30LB5CDZNDH1IPR2DSCW2UNRKZHZ0R", "current_trial": 106, "dateTime": 1512961354653, "trialdata": {"rt": -1, "stimulus": "<p id=\"stim\">GANGSTER</p>", "key_press": -1, "type": "PRES_VIS", "word": "gangster", "wordID": 619, "conditions": [24, 1600, "v", 12000], "trial": 2, "serialpos": 17, "trial_type": "single-stim", "trial_index": 106, "time_elapsed": 533791, "internal_node_id": "0.0-79.0"}}, {"uniqueid": "MTK1002:30LB5CDZNDH1IPR2DSCW2UNRKZHZ0R", "current_trial": 107, "dateTime": 1512961357177, "trialdata": {"rt": -1, "stimulus": "<p id=\"stim\">TEACHER</p>", "key_press": -1, "type": "PRES_VIS", "word": "teacher", "wordID": 1439, "conditions": [24, 1600, "v", 12000], "trial": 2, "serialpos": 18, "trial_type": "single-stim", "trial_index": 107, "time_elapsed": 536315, "internal_node_id": "0.0-80.0"}}, {"uniqueid": "MTK1002:30LB5CDZNDH1IPR2DSCW2UNRKZHZ0R", "current_trial": 108, "dateTime": 1512961359934, "trialdata": {"rt": -1, "stimulus": "<p id=\"stim\">FIDDLE</p>", "key_press": -1, "type": "PRES_VIS", "word": "fiddle", "wordID": 560, "conditions": [24, 1600, "v", 12000], "trial": 2, "serialpos": 19, "trial_type": "single-stim", "trial_index": 108, "time_elapsed": 539072, "internal_node_id": "0.0-81.0"}}, {"uniqueid": "MTK1002:30LB5CDZNDH1IPR2DSCW2UNRKZHZ0R", "current_trial": 109, "dateTime": 1512961362409, "trialdata": {"rt": -1, "stimulus": "<p id=\"stim\">DASHBOARD</p>", "key_press": -1, "type": "PRES_VIS", "word": "dashboard", "wordID": 440, "conditions": [24, 1600, "v", 12000], "trial": 2, "serialpos": 20, "trial_type": "single-stim", "trial_index": 109, "time_elapsed": 541547, "internal_node_id": "0.0-82.0"}}, {"uniqueid": "MTK1002:30LB5CDZNDH1IPR2DSCW2UNRKZHZ0R", "current_trial": 110, "dateTime": 1512961365011, "trialdata": {"rt": -1, "stimulus": "<p id=\"stim\">ROBBER</p>", "key_press": -1, "type": "PRES_VIS", "word": "robber", "wordID": 1196, "conditions": [24, 1600, "v", 12000], "trial": 2, "serialpos": 21, "trial_type": "single-stim", "trial_index": 110, "time_elapsed": 544149, "internal_node_id": "0.0-83.0"}}, {"uniqueid": "MTK1002:30LB5CDZNDH1IPR2DSCW2UNRKZHZ0R", "current_trial": 111, "dateTime": 1512961367581, "trialdata": {"rt": -1, "stimulus": "<p id=\"stim\">DRESS</p>", "key_press": -1, "type": "PRES_VIS", "word": "dress", "wordID": 494, "conditions": [24, 1600, "v", 12000], "trial": 2, "serialpos": 22, "trial_type": "single-stim", "trial_index": 111, "time_elapsed": 546719, "internal_node_id": "0.0-84.0"}}, {"uniqueid": "MTK1002:30LB5CDZNDH1IPR2DSCW2UNRKZHZ0R", "current_trial": 112, "dateTime": 1512961370200, "trialdata": {"rt": -1, "stimulus": "<p id=\"stim\">LADY</p>", "key_press": -1, "type": "PRES_VIS", "word": "lady", "wordID": 793, "conditions": [24, 1600, "v", 12000], "trial": 2, "serialpos": 23, "trial_type": "single-stim", "trial_index": 112, "time_elapsed": 549338, "internal_node_id": "0.0-85.0"}}, {"uniqueid": "MTK1002:30LB5CDZNDH1IPR2DSCW2UNRKZHZ0R", "current_trial": 113, "dateTime": 1512961372606, "trialdata": {"rt": -1, "stimulus": "", "key_press": -1, "type": "PRE_RECALL_DELAY", "trial_type": "single-stim", "trial_index": 113, "time_elapsed": 551744, "internal_node_id": "0.0-86.0-0.0"}}, {"uniqueid": "MTK1002:30LB5CDZNDH1IPR2DSCW2UNRKZHZ0R", "current_trial": 114, "dateTime": 1512961373108, "trialdata": {"rt": -1000, "stimulus": "/static/audio/400Hz.wav", "key_press": -1, "type": "PRE_RECALL_ALERT", "trial_type": "single-audio", "trial_index": 114, "time_elapsed": 552245, "internal_node_id": "0.0-87.0"}}, {"uniqueid": "MTK1002:30LB5CDZNDH1IPR2DSCW2UNRKZHZ0R", "current_trial": 115, "dateTime": 1512961433111, "trialdata": {"rt": [41762, 43313, 45658, 48939, 50806, 52180, 56443, 58066], "recwords": ["flag", "slime", "compass", "monster", "flask", "child", "journal", "beaker"], "type": "FREE_RECALL", "conditions": [24, 1600, "v", 12000], "trial": 2, "trial_type": "free-recall", "trial_index": 115, "time_elapsed": 612247, "internal_node_id": "0.0-88.0-0.0"}}, {"uniqueid": "MTK1002:30LB5CDZNDH1IPR2DSCW2UNRKZHZ0R", "current_trial": 116, "dateTime": 1512961437875, "trialdata": {"rt": 2762, "key_press": 74, "type": "INSTRUCTIONS", "trial_type": "text", "trial_index": 116, "time_elapsed": 617013, "internal_node_id": "0.0-89.0"}}, {"uniqueid": "MTK1002:30LB5CDZNDH1IPR2DSCW2UNRKZHZ0R", "current_trial": 117, "dateTime": 1512961463877, "trialdata": {"rt": [2776, 5092, 6506, 8554, 10395, 12719, 15465, 17052, 18983, 20686, 22773], "responses": ["14", "17", "14", "16", "13", "19", "22", "12", "16", "16", "27"], "num1": [4, 8, 2, 2, 4, 3, 6, 1, 3, 1, 9, 1], "num2": [6, 1, 8, 7, 2, 9, 7, 7, 5, 6, 9, 4], "num3": [4, 8, 4, 7, 7, 7, 9, 4, 8, 9, 9, 8], "type": "DISTRACTOR", "conditions": [24, 800, "a", 24000], "trial": 3, "trial_type": "math-distractor", "trial_index": 117, "time_elapsed": 643015, "internal_node_id": "0.0-90.0"}}, {"uniqueid": "MTK1002:30LB5CDZNDH1IPR2DSCW2UNRKZHZ0R", "current_trial": 118, "dateTime": 1512961466879, "trialdata": {"rt": -1, "stimulus": "<p id=\"stim\">10</p>", "key_press": -1, "trial_type": "single-stim", "trial_index": 118, "time_elapsed": 646017, "internal_node_id": "0.0-91.0-0.0"}}, {"uniqueid": "MTK1002:30LB5CDZNDH1IPR2DSCW2UNRKZHZ0R", "current_trial": 119, "dateTime": 1512961467880, "trialdata": {"rt": -1, "stimulus": "<p id=\"stim\">9</p>", "key_press": -1, "trial_type": "single-stim", "trial_index": 119, "time_elapsed": 647018, "internal_node_id": "0.0-91.0-1.0"}}, {"uniqueid": "MTK1002:30LB5CDZNDH1IPR2DSCW2UNRKZHZ0R", "current_trial": 120, "dateTime": 1512961468881, "trialdata": {"rt": -1, "stimulus": "<p id=\"stim\">8</p>", "key_press": -1, "trial_type": "single-stim", "trial_index": 120, "time_elapsed": 648019, "internal_node_id": "0.0-91.0-2.0"}}, {"uniqueid": "MTK1002:30LB5CDZNDH1IPR2DSCW2UNRKZHZ0R", "current_trial": 121, "dateTime": 1512961469882, "trialdata": {"rt": -1, "stimulus": "<p id=\"stim\">7</p>", "key_press": -1, "trial_type": "single-stim", "trial_index": 121, "time_elapsed": 649020, "internal_node_id": "0.0-91.0-3.0"}}, {"uniqueid": "MTK1002:30LB5CDZNDH1IPR2DSCW2UNRKZHZ0R", "current_trial": 122, "dateTime": 1512961470883, "trialdata": {"rt": -1, "stimulus": "<p id=\"stim\">6</p>", "key_press": -1, "trial_type": "single-stim", "trial_index": 122, "time_elapsed": 650021, "internal_node_id": "0.0-91.0-4.0"}}, {"uniqueid": "MTK1002:30LB5CDZNDH1IPR2DSCW2UNRKZHZ0R", "current_trial": 123, "dateTime": 1512961471885, "trialdata": {"rt": -1, "stimulus": "<p id=\"stim\">5</p>", "key_press": -1, "trial_type": "single-stim", "trial_index": 123, "time_elapsed": 651023, "internal_node_id": "0.0-91.0-5.0"}}, {"uniqueid": "MTK1002:30LB5CDZNDH1IPR2DSCW2UNRKZHZ0R", "current_trial": 124, "dateTime": 1512961472885, "trialdata": {"rt": -1, "stimulus": "<p id=\"stim\">4</p>", "key_press": -1, "trial_type": "single-stim", "trial_index": 124, "time_elapsed": 652023, "internal_node_id": "0.0-91.0-6.0"}}, {"uniqueid": "MTK1002:30LB5CDZNDH1IPR2DSCW2UNRKZHZ0R", "current_trial": 125, "dateTime": 1512961473887, "trialdata": {"rt": -1, "stimulus": "<p id=\"stim\">3</p>", "key_press": -1, "trial_type": "single-stim", "trial_index": 125, "time_elapsed": 653025, "internal_node_id": "0.0-91.0-7.0"}}, {"uniqueid": "MTK1002:30LB5CDZNDH1IPR2DSCW2UNRKZHZ0R", "current_trial": 126, "dateTime": 1512961474888, "trialdata": {"rt": -1, "stimulus": "<p id=\"stim\">2</p>", "key_press": -1, "trial_type": "single-stim", "trial_index": 126, "time_elapsed": 654026, "internal_node_id": "0.0-91.0-8.0"}}, {"uniqueid": "MTK1002:30LB5CDZNDH1IPR2DSCW2UNRKZHZ0R", "current_trial": 127, "dateTime": 1512961475889, "trialdata": {"rt": -1, "stimulus": "<p id=\"stim\">1</p>", "key_press": -1, "trial_type": "single-stim", "trial_index": 127, "time_elapsed": 655027, "internal_node_id": "0.0-91.0-9.0"}}, {"uniqueid": "MTK1002:30LB5CDZNDH1IPR2DSCW2UNRKZHZ0R", "current_trial": 128, "dateTime": 1512961477391, "trialdata": {"rt": -1, "stimulus": "<p id=\"stim\">+</p>", "key_press": -1, "type": "FIXATION", "trial_type": "single-stim", "trial_index": 128, "time_elapsed": 656529, "internal_node_id": "0.0-92.0-0.0"}}, {"uniqueid": "MTK1002:30LB5CDZNDH1IPR2DSCW2UNRKZHZ0R", "current_trial": 129, "dateTime": 1512961479368, "trialdata": {"rt": -1000, "stimulus": "/static/audio/wordpool/COLLEGE.wav", "key_press": -1, "type": "PRES_AUD", "word": "college", "wordID": 345, "conditions": [24, 800, "a", 24000], "trial": 3, "serialpos": 0, "trial_type": "single-audio", "trial_index": 129, "time_elapsed": 658506, "internal_node_id": "0.0-93.0"}}, {"uniqueid": "MTK1002:30LB5CDZNDH1IPR2DSCW2UNRKZHZ0R", "current_trial": 130, "dateTime": 1512961481353, "trialdata": {"rt": -1000, "stimulus": "/static/audio/wordpool/STUDENT.wav", "key_press": -1, "type": "PRES_AUD", "word": "student", "wordID": 1394, "conditions": [24, 800, "a", 24000], "trial": 3, "serialpos": 1, "trial_type": "single-audio", "trial_index": 130, "time_elapsed": 660491, "internal_node_id": "0.0-94.0"}}, {"uniqueid": "MTK1002:30LB5CDZNDH1IPR2DSCW2UNRKZHZ0R", "current_trial": 131, "dateTime": 1512961483240, "trialdata": {"rt": -1000, "stimulus": "/static/audio/wordpool/TRENCH.wav", "key_press": -1, "type": "PRES_AUD", "word": "trench", "wordID": 1502, "conditions": [24, 800, "a", 24000], "trial": 3, "serialpos": 2, "trial_type": "single-audio", "trial_index": 131, "time_elapsed": 662378, "internal_node_id": "0.0-95.0"}}, {"uniqueid": "MTK1002:30LB5CDZNDH1IPR2DSCW2UNRKZHZ0R", "current_trial": 132, "dateTime": 1512961485098, "trialdata": {"rt": -1000, "stimulus": "/static/audio/wordpool/CHURCH.wav", "key_press": -1, "type": "PRES_AUD", "word": "church", "wordID": 306, "conditions": [24, 800, "a", 24000], "trial": 3, "serialpos": 3, "trial_type": "single-audio", "trial_index": 132, "time_elapsed": 664236, "internal_node_id": "0.0-96.0"}}, {"uniqueid": "MTK1002:30LB5CDZNDH1IPR2DSCW2UNRKZHZ0R", "current_trial": 133, "dateTime": 1512961486752, "trialdata": {"rt": -1000, "stimulus": "/static/audio/wordpool/POLICE.wav", "key_press": -1, "type": "PRES_AUD", "word": "police", "wordID": 1097, "conditions": [24, 800, "a", 24000], "trial": 3, "serialpos": 4, "trial_type": "single-audio", "trial_index": 133, "time_elapsed": 665890, "internal_node_id": "0.0-97.0"}}, {"uniqueid": "MTK1002:30LB5CDZNDH1IPR2DSCW2UNRKZHZ0R", "current_trial": 134, "dateTime": 1512961488725, "trialdata": {"rt": -1000, "stimulus": "/static/audio/wordpool/SCARF.wav", "key_press": -1, "type": "PRES_AUD", "word": "scarf", "wordID": 1245, "conditions": [24, 800, "a", 24000], "trial": 3, "serialpos": 5, "trial_type": "single-audio", "trial_index": 134, "time_elapsed": 667863, "internal_node_id": "0.0-98.0"}}, {"uniqueid": "MTK1002:30LB5CDZNDH1IPR2DSCW2UNRKZHZ0R", "current_trial": 135, "dateTime": 1512961490477, "trialdata": {"rt": -1000, "stimulus": "/static/audio/wordpool/FIREPLACE.wav", "key_press": -1, "type": "PRES_AUD", "word": "fireplace", "wordID": 569, "conditions": [24, 800, "a", 24000], "trial": 3, "serialpos": 6, "trial_type": "single-audio", "trial_index": 135, "time_elapsed": 669615, "internal_node_id": "0.0-99.0"}}, {"uniqueid": "MTK1002:30LB5CDZNDH1IPR2DSCW2UNRKZHZ0R", "current_trial": 136, "dateTime": 1512961492183, "trialdata": {"rt": -1000, "stimulus": "/static/audio/wordpool/PASTRY.wav", "key_press": -1, "type": "PRES_AUD", "word": "pastry", "wordID": 1021, "conditions": [24, 800, "a", 24000], "trial": 3, "serialpos": 7, "trial_type": "single-audio", "trial_index": 136, "time_elapsed": 671321, "internal_node_id": "0.0-100.0"}}, {"uniqueid": "MTK1002:30LB5CDZNDH1IPR2DSCW2UNRKZHZ0R", "current_trial": 137, "dateTime": 1512961493827, "trialdata": {"rt": -1000, "stimulus": "/static/audio/wordpool/JELLO.wav", "key_press": -1, "type": "PRES_AUD", "word": "jello", "wordID": 753, "conditions": [24, 800, "a", 24000], "trial": 3, "serialpos": 8, "trial_type": "single-audio", "trial_index": 137, "time_elapsed": 672965, "internal_node_id": "0.0-101.0"}}, {"uniqueid": "MTK1002:30LB5CDZNDH1IPR2DSCW2UNRKZHZ0R", "current_trial": 138, "dateTime": 1512961495619, "trialdata": {"rt": -1000, "stimulus": "/static/audio/wordpool/KITCHEN.wav", "key_press": -1, "type": "PRES_AUD", "word": "kitchen", "wordID": 777, "conditions": [24, 800, "a", 24000], "trial": 3, "serialpos": 9, "trial_type": "single-audio", "trial_index": 138, "time_elapsed": 674757, "internal_node_id": "0.0-102.0"}}, {"uniqueid": "MTK1002:30LB5CDZNDH1IPR2DSCW2UNRKZHZ0R", "current_trial": 139, "dateTime": 1512961497308, "trialdata": {"rt": -1000, "stimulus": "/static/audio/wordpool/PRINCESS.wav", "key_press": -1, "type": "PRES_AUD", "word": "princess", "wordID": 1124, "conditions": [24, 800, "a", 24000], "trial": 3, "serialpos": 10, "trial_type": "single-audio", "trial_index": 139, "time_elapsed": 676446, "internal_node_id": "0.0-103.0"}}, {"uniqueid": "MTK1002:30LB5CDZNDH1IPR2DSCW2UNRKZHZ0R", "current_trial": 140, "dateTime": 1512961499291, "trialdata": {"rt": -1000, "stimulus": "/static/audio/wordpool/GARDEN.wav", "key_press": -1, "type": "PRES_AUD", "word": "garden", "wordID": 622, "conditions": [24, 800, "a", 24000], "trial": 3, "serialpos": 11, "trial_type": "single-audio", "trial_index": 140, "time_elapsed": 678429, "internal_node_id": "0.0-104.0"}}, {"uniqueid": "MTK1002:30LB5CDZNDH1IPR2DSCW2UNRKZHZ0R", "current_trial": 141, "dateTime": 1512961501291, "trialdata": {"rt": -1000, "stimulus": "/static/audio/wordpool/WIDOW.wav", "key_press": -1, "type": "PRES_AUD", "word": "widow", "wordID": 1607, "conditions": [24, 800, "a", 24000], "trial": 3, "serialpos": 12, "trial_type": "single-audio", "trial_index": 141, "time_elapsed": 680428, "internal_node_id": "0.0-105.0"}}, {"uniqueid": "MTK1002:30LB5CDZNDH1IPR2DSCW2UNRKZHZ0R", "current_trial": 142, "dateTime": 1512961503081, "trialdata": {"rt": -1000, "stimulus": "/static/audio/wordpool/OUTFIT.wav", "key_press": -1, "type": "PRES_AUD", "word": "outfit", "wordID": 987, "conditions": [24, 800, "a", 24000], "trial": 3, "serialpos": 13, "trial_type": "single-audio", "trial_index": 142, "time_elapsed": 682219, "internal_node_id": "0.0-106.0"}}, {"uniqueid": "MTK1002:30LB5CDZNDH1IPR2DSCW2UNRKZHZ0R", "current_trial": 143, "dateTime": 1512961504781, "trialdata": {"rt": -1000, "stimulus": "/static/audio/wordpool/DRINK.wav", "key_press": -1, "type": "PRES_AUD", "word": "drink", "wordID": 497, "conditions": [24, 800, "a", 24000], "trial": 3, "serialpos": 14, "trial_type": "single-audio", "trial_index": 143, "time_elapsed": 683919, "internal_node_id": "0.0-107.0"}}, {"uniqueid": "MTK1002:30LB5CDZNDH1IPR2DSCW2UNRKZHZ0R", "current_trial": 144, "dateTime": 1512961506440, "trialdata": {"rt": -1000, "stimulus": "/static/audio/wordpool/SODA.wav", "key_press": -1, "type": "PRES_AUD", "word": "soda", "wordID": 1340, "conditions": [24, 800, "a", 24000], "trial": 3, "serialpos": 15, "trial_type": "single-audio", "trial_index": 144, "time_elapsed": 685578, "internal_node_id": "0.0-108.0"}}, {"uniqueid": "MTK1002:30LB5CDZNDH1IPR2DSCW2UNRKZHZ0R", "current_trial": 145, "dateTime": 1512961508208, "trialdata": {"rt": -1000, "stimulus": "/static/audio/wordpool/UNCLE.wav", "key_press": -1, "type": "PRES_AUD", "word": "uncle", "wordID": 1535, "conditions": [24, 800, "a", 24000], "trial": 3, "serialpos": 16, "trial_type": "single-audio", "trial_index": 145, "time_elapsed": 687346, "internal_node_id": "0.0-109.0"}}, {"uniqueid": "MTK1002:30LB5CDZNDH1IPR2DSCW2UNRKZHZ0R", "current_trial": 146, "dateTime": 1512961509941, "trialdata": {"rt": -1000, "stimulus": "/static/audio/wordpool/COD.wav", "key_press": -1, "type": "PRES_AUD", "word": "cod", "wordID": 339, "conditions": [24, 800, "a", 24000], "trial": 3, "serialpos": 17, "trial_type": "single-audio", "trial_index": 146, "time_elapsed": 689079, "internal_node_id": "0.0-110.0"}}, {"uniqueid": "MTK1002:30LB5CDZNDH1IPR2DSCW2UNRKZHZ0R", "current_trial": 147, "dateTime": 1512961511939, "trialdata": {"rt": -1000, "stimulus": "/static/audio/wordpool/MASK.wav", "key_press": -1, "type": "PRES_AUD", "word": "mask", "wordID": 875, "conditions": [24, 800, "a", 24000], "trial": 3, "serialpos": 18, "trial_type": "single-audio", "trial_index": 147, "time_elapsed": 691077, "internal_node_id": "0.0-111.0"}}, {"uniqueid": "MTK1002:30LB5CDZNDH1IPR2DSCW2UNRKZHZ0R", "current_trial": 148, "dateTime": 1512961513665, "trialdata": {"rt": -1000, "stimulus": "/static/audio/wordpool/RABBIT.wav", "key_press": -1, "type": "PRES_AUD", "word": "rabbit", "wordID": 1151, "conditions": [24, 800, "a", 24000], "trial": 3, "serialpos": 19, "trial_type": "single-audio", "trial_index": 148, "time_elapsed": 692803, "internal_node_id": "0.0-112.0"}}, {"uniqueid": "MTK1002:30LB5CDZNDH1IPR2DSCW2UNRKZHZ0R", "current_trial": 149, "dateTime": 1512961515541, "trialdata": {"rt": -1000, "stimulus": "/static/audio/wordpool/TABLET.wav", "key_press": -1, "type": "PRES_AUD", "word": "tablet", "wordID": 1426, "conditions": [24, 800, "a", 24000], "trial": 3, "serialpos": 20, "trial_type": "single-audio", "trial_index": 149, "time_elapsed": 694679, "internal_node_id": "0.0-113.0"}}, {"uniqueid": "MTK1002:30LB5CDZNDH1IPR2DSCW2UNRKZHZ0R", "current_trial": 150, "dateTime": 1512961517230, "trialdata": {"rt": -1000, "stimulus": "/static/audio/wordpool/PEANUT.wav", "key_press": -1, "type": "PRES_AUD", "word": "peanut", "wordID": 1031, "conditions": [24, 800, "a", 24000], "trial": 3, "serialpos": 21, "trial_type": "single-audio", "trial_index": 150, "time_elapsed": 696368, "internal_node_id": "0.0-114.0"}}, {"uniqueid": "MTK1002:30LB5CDZNDH1IPR2DSCW2UNRKZHZ0R", "current_trial": 151, "dateTime": 1512961519186, "trialdata": {"rt": -1000, "stimulus": "/static/audio/wordpool/PORK.wav", "key_press": -1, "type": "PRES_AUD", "word": "pork", "wordID": 1107, "conditions": [24, 800, "a", 24000], "trial": 3, "serialpos": 22, "trial_type": "single-audio", "trial_index": 151, "time_elapsed": 698324, "internal_node_id": "0.0-115.0"}}, {"uniqueid": "MTK1002:30LB5CDZNDH1IPR2DSCW2UNRKZHZ0R", "current_trial": 152, "dateTime": 1512961521010, "trialdata": {"rt": -1000, "stimulus": "/static/audio/wordpool/BRIEFCASE.wav", "key_press": -1, "type": "PRES_AUD", "word": "briefcase", "wordID": 174, "conditions": [24, 800, "a", 24000], "trial": 3, "serialpos": 23, "trial_type": "single-audio", "trial_index": 152, "time_elapsed": 700148, "internal_node_id": "0.0-116.0"}}, {"uniqueid": "MTK1002:30LB5CDZNDH1IPR2DSCW2UNRKZHZ0R", "current_trial": 153, "dateTime": 1512961522400, "trialdata": {"rt": -1, "stimulus": "", "key_press": -1, "type": "PRE_RECALL_DELAY", "trial_type": "single-stim", "trial_index": 153, "time_elapsed": 701538, "internal_node_id": "0.0-117.0-0.0"}}, {"uniqueid": "MTK1002:30LB5CDZNDH1IPR2DSCW2UNRKZHZ0R", "current_trial": 154, "dateTime": 1512961522902, "trialdata": {"rt": -1000, "stimulus": "/static/audio/400Hz.wav", "key_press": -1, "type": "PRE_RECALL_ALERT", "trial_type": "single-audio", "trial_index": 154, "time_elapsed": 702040, "internal_node_id": "0.0-118.0"}}, {"uniqueid": "MTK1002:30LB5CDZNDH1IPR2DSCW2UNRKZHZ0R", "current_trial": 155, "dateTime": 1512961582906, "trialdata": {"rt": [3628, 7005, 9071, 11053, 13708, 16335, 18710, 21997, 23850, 26935, 29077, 30164], "recwords": ["college", "student", "trench", "police", "church", "fireplace", "jello", "rabbit", "pork", "kitchen", "drink", "soda"], "type": "FREE_RECALL", "conditions": [24, 800, "a", 24000], "trial": 3, "trial_type": "free-recall", "trial_index": 155, "time_elapsed": 762042, "internal_node_id": "0.0-119.0-0.0"}}, {"uniqueid": "MTK1002:30LB5CDZNDH1IPR2DSCW2UNRKZHZ0R", "current_trial": 156, "dateTime": 1512961608644, "trialdata": {"rt": 23737, "key_press": 74, "type": "INSTRUCTIONS", "trial_type": "text", "trial_index": 156, "time_elapsed": 787782, "internal_node_id": "0.0-120.0"}}, {"uniqueid": "MTK1002:30LB5CDZNDH1IPR2DSCW2UNRKZHZ0R", "current_trial": 157, "dateTime": 1512961622646, "trialdata": {"rt": [1986, 3879, 7061, 9634, 11611], "responses": ["16", "13", "16", "15", "6"], "num1": [5, 8, 6, 1, 3, 3], "num2": [3, 1, 5, 5, 1, 5], "num3": [8, 4, 5, 9, 2, 8], "type": "DISTRACTOR", "conditions": [12, 1600, "v", 12000], "trial": 4, "trial_type": "math-distractor", "trial_index": 157, "time_elapsed": 801784, "internal_node_id": "0.0-121.0"}}, {"uniqueid": "MTK1002:30LB5CDZNDH1IPR2DSCW2UNRKZHZ0R", "current_trial": 158, "dateTime": 1512961625648, "trialdata": {"rt": -1, "stimulus": "<p id=\"stim\">10</p>", "key_press": -1, "trial_type": "single-stim", "trial_index": 158, "time_elapsed": 804786, "internal_node_id": "0.0-122.0-0.0"}}, {"uniqueid": "MTK1002:30LB5CDZNDH1IPR2DSCW2UNRKZHZ0R", "current_trial": 159, "dateTime": 1512961626649, "trialdata": {"rt": -1, "stimulus": "<p id=\"stim\">9</p>", "key_press": -1, "trial_type": "single-stim", "trial_index": 159, "time_elapsed": 805787, "internal_node_id": "0.0-122.0-1.0"}}, {"uniqueid": "MTK1002:30LB5CDZNDH1IPR2DSCW2UNRKZHZ0R", "current_trial": 160, "dateTime": 1512961627650, "trialdata": {"rt": -1, "stimulus": "<p id=\"stim\">8</p>", "key_press": -1, "trial_type": "single-stim", "trial_index": 160, "time_elapsed": 806788, "internal_node_id": "0.0-122.0-2.0"}}, {"uniqueid": "MTK1002:30LB5CDZNDH1IPR2DSCW2UNRKZHZ0R", "current_trial": 161, "dateTime": 1512961628651, "trialdata": {"rt": -1, "stimulus": "<p id=\"stim\">7</p>", "key_press": -1, "trial_type": "single-stim", "trial_index": 161, "time_elapsed": 807789, "internal_node_id": "0.0-122.0-3.0"}}, {"uniqueid": "MTK1002:30LB5CDZNDH1IPR2DSCW2UNRKZHZ0R", "current_trial": 162, "dateTime": 1512961629653, "trialdata": {"rt": -1, "stimulus": "<p id=\"stim\">6</p>", "key_press": -1, "trial_type": "single-stim", "trial_index": 162, "time_elapsed": 808791, "internal_node_id": "0.0-122.0-4.0"}}, {"uniqueid": "MTK1002:30LB5CDZNDH1IPR2DSCW2UNRKZHZ0R", "current_trial": 163, "dateTime": 1512961630655, "trialdata": {"rt": -1, "stimulus": "<p id=\"stim\">5</p>", "key_press": -1, "trial_type": "single-stim", "trial_index": 163, "time_elapsed": 809793, "internal_node_id": "0.0-122.0-5.0"}}, {"uniqueid": "MTK1002:30LB5CDZNDH1IPR2DSCW2UNRKZHZ0R", "current_trial": 164, "dateTime": 1512961631656, "trialdata": {"rt": -1, "stimulus": "<p id=\"stim\">4</p>", "key_press": -1, "trial_type": "single-stim", "trial_index": 164, "time_elapsed": 810794, "internal_node_id": "0.0-122.0-6.0"}}, {"uniqueid": "MTK1002:30LB5CDZNDH1IPR2DSCW2UNRKZHZ0R", "current_trial": 165, "dateTime": 1512961632657, "trialdata": {"rt": -1, "stimulus": "<p id=\"stim\">3</p>", "key_press": -1, "trial_type": "single-stim", "trial_index": 165, "time_elapsed": 811795, "internal_node_id": "0.0-122.0-7.0"}}, {"uniqueid": "MTK1002:30LB5CDZNDH1IPR2DSCW2UNRKZHZ0R", "current_trial": 166, "dateTime": 1512961633659, "trialdata": {"rt": -1, "stimulus": "<p id=\"stim\">2</p>", "key_press": -1, "trial_type": "single-stim", "trial_index": 166, "time_elapsed": 812797, "internal_node_id": "0.0-122.0-8.0"}}, {"uniqueid": "MTK1002:30LB5CDZNDH1IPR2DSCW2UNRKZHZ0R", "current_trial": 167, "dateTime": 1512961634660, "trialdata": {"rt": -1, "stimulus": "<p id=\"stim\">1</p>", "key_press": -1, "trial_type": "single-stim", "trial_index": 167, "time_elapsed": 813798, "internal_node_id": "0.0-122.0-9.0"}}, {"uniqueid": "MTK1002:30LB5CDZNDH1IPR2DSCW2UNRKZHZ0R", "current_trial": 168, "dateTime": 1512961636161, "trialdata": {"rt": -1, "stimulus": "<p id=\"stim\">+</p>", "key_press": -1, "type": "FIXATION", "trial_type": "single-stim", "trial_index": 168, "time_elapsed": 815299, "internal_node_id": "0.0-123.0-0.0"}}, {"uniqueid": "MTK1002:30LB5CDZNDH1IPR2DSCW2UNRKZHZ0R", "current_trial": 169, "dateTime": 1512961637763, "trialdata": {"rt": -1, "stimulus": "<p id=\"stim\">CANYON</p>", "key_press": -1, "type": "PRES_VIS", "word": "canyon", "wordID": 234, "conditions": [12, 1600, "v", 12000], "trial": 4, "serialpos": 0, "trial_type": "single-stim", "trial_index": 169, "time_elapsed": 816900, "internal_node_id": "0.0-124.0"}}, {"uniqueid": "MTK1002:30LB5CDZNDH1IPR2DSCW2UNRKZHZ0R", "current_trial": 170, "dateTime": 1512961640531, "trialdata": {"rt": -1, "stimulus": "<p id=\"stim\">CRICKET</p>", "key_press": -1, "type": "PRES_VIS", "word": "cricket", "wordID": 407, "conditions": [12, 1600, "v", 12000], "trial": 4, "serialpos": 1, "trial_type": "single-stim", "trial_index": 170, "time_elapsed": 819669, "internal_node_id": "0.0-125.0"}}, {"uniqueid": "MTK1002:30LB5CDZNDH1IPR2DSCW2UNRKZHZ0R", "current_trial": 171, "dateTime": 1512961643312, "trialdata": {"rt": -1, "stimulus": "<p id=\"stim\">ACTOR</p>", "key_press": -1, "type": "PRES_VIS", "word": "actor", "wordID": 4, "conditions": [12, 1600, "v", 12000], "trial": 4, "serialpos": 2, "trial_type": "single-stim", "trial_index": 171, "time_elapsed": 822450, "internal_node_id": "0.0-126.0"}}, {"uniqueid": "MTK1002:30LB5CDZNDH1IPR2DSCW2UNRKZHZ0R", "current_trial": 172, "dateTime": 1512961645829, "trialdata": {"rt": -1, "stimulus": "<p id=\"stim\">BINDER</p>", "key_press": -1, "type": "PRES_VIS", "word": "binder", "wordID": 126, "conditions": [12, 1600, "v", 12000], "trial": 4, "serialpos": 3, "trial_type": "single-stim", "trial_index": 172, "time_elapsed": 824967, "internal_node_id": "0.0-127.0"}}, {"uniqueid": "MTK1002:30LB5CDZNDH1IPR2DSCW2UNRKZHZ0R", "current_trial": 173, "dateTime": 1512961648353, "trialdata": {"rt": -1, "stimulus": "<p id=\"stim\">PEBBLE</p>", "key_press": -1, "type": "PRES_VIS", "word": "pebble", "wordID": 1034, "conditions": [12, 1600, "v", 12000], "trial": 4, "serialpos": 4, "trial_type": "single-stim", "trial_index": 173, "time_elapsed": 827491, "internal_node_id": "0.0-128.0"}}, {"uniqueid": "MTK1002:30LB5CDZNDH1IPR2DSCW2UNRKZHZ0R", "current_trial": 174, "dateTime": 1512961650897, "trialdata": {"rt": -1, "stimulus": "<p id=\"stim\">CONVICT</p>", "key_press": -1, "type": "PRES_VIS", "word": "convict", "wordID": 370, "conditions": [12, 1600, "v", 12000], "trial": 4, "serialpos": 5, "trial_type": "single-stim", "trial_index": 174, "time_elapsed": 830035, "internal_node_id": "0.0-129.0"}}, {"uniqueid": "MTK1002:30LB5CDZNDH1IPR2DSCW2UNRKZHZ0R", "current_trial": 175, "dateTime": 1512961653450, "trialdata": {"rt": -1, "stimulus": "<p id=\"stim\">BRICK</p>", "key_press": -1, "type": "PRES_VIS", "word": "brick", "wordID": 171, "conditions": [12, 1600, "v", 12000], "trial": 4, "serialpos": 6, "trial_type": "single-stim", "trial_index": 175, "time_elapsed": 832588, "internal_node_id": "0.0-130.0"}}, {"uniqueid": "MTK1002:30LB5CDZNDH1IPR2DSCW2UNRKZHZ0R", "current_trial": 176, "dateTime": 1512961655934, "trialdata": {"rt": -1, "stimulus": "<p id=\"stim\">TILE</p>", "key_press": -1, "type": "PRES_VIS", "word": "tile", "wordID": 1467, "conditions": [12, 1600, "v", 12000], "trial": 4, "serialpos": 7, "trial_type": "single-stim", "trial_index": 176, "time_elapsed": 835072, "internal_node_id": "0.0-131.0"}}, {"uniqueid": "MTK1002:30LB5CDZNDH1IPR2DSCW2UNRKZHZ0R", "current_trial": 177, "dateTime": 1512961658435, "trialdata": {"rt": -1, "stimulus": "<p id=\"stim\">CHEMIST</p>", "key_press": -1, "type": "PRES_VIS", "word": "chemist", "wordID": 291, "conditions": [12, 1600, "v", 12000], "trial": 4, "serialpos": 8, "trial_type": "single-stim", "trial_index": 177, "time_elapsed": 837573, "internal_node_id": "0.0-132.0"}}, {"uniqueid": "MTK1002:30LB5CDZNDH1IPR2DSCW2UNRKZHZ0R", "current_trial": 178, "dateTime": 1512961661061, "trialdata": {"rt": -1, "stimulus": "<p id=\"stim\">AGENT</p>", "key_press": -1, "type": "PRES_VIS", "word": "agent", "wordID": 9, "conditions": [12, 1600, "v", 12000], "trial": 4, "serialpos": 9, "trial_type": "single-stim", "trial_index": 178, "time_elapsed": 840199, "internal_node_id": "0.0-133.0"}}, {"uniqueid": "MTK1002:30LB5CDZNDH1IPR2DSCW2UNRKZHZ0R", "current_trial": 179, "dateTime": 1512961663487, "trialdata": {"rt": -1, "stimulus": "<p id=\"stim\">STATUE</p>", "key_press": -1, "type": "PRES_VIS", "word": "statue", "wordID": 1373, "conditions": [12, 1600, "v", 12000], "trial": 4, "serialpos": 10, "trial_type": "single-stim", "trial_index": 179, "time_elapsed": 842625, "internal_node_id": "0.0-134.0"}}, {"uniqueid": "MTK1002:30LB5CDZNDH1IPR2DSCW2UNRKZHZ0R", "current_trial": 180, "dateTime": 1512961665940, "trialdata": {"rt": -1, "stimulus": "<p id=\"stim\">VALLEY</p>", "key_press": -1, "type": "PRES_VIS", "word": "valley", "wordID": 1544, "conditions": [12, 1600, "v", 12000], "trial": 4, "serialpos": 11, "trial_type": "single-stim", "trial_index": 180, "time_elapsed": 845078, "internal_node_id": "0.0-135.0"}}, {"uniqueid": "MTK1002:30LB5CDZNDH1IPR2DSCW2UNRKZHZ0R", "current_trial": 181, "dateTime": 1512961668093, "trialdata": {"rt": -1, "stimulus": "", "key_press": -1, "type": "PRE_RECALL_DELAY", "trial_type": "single-stim", "trial_index": 181, "time_elapsed": 847231, "internal_node_id": "0.0-136.0-0.0"}}, {"uniqueid": "MTK1002:30LB5CDZNDH1IPR2DSCW2UNRKZHZ0R", "current_trial": 182, "dateTime": 1512961668594, "trialdata": {"rt": -1000, "stimulus": "/static/audio/400Hz.wav", "key_press": -1, "type": "PRE_RECALL_ALERT", "trial_type": "single-audio", "trial_index": 182, "time_elapsed": 847732, "internal_node_id": "0.0-137.0"}}, {"uniqueid": "MTK1002:30LB5CDZNDH1IPR2DSCW2UNRKZHZ0R", "current_trial": 183, "dateTime": 1512961728597, "trialdata": {"rt": [5324, 7391, 9479, 14427, 18181, 20386, 24633, 27337, 28713], "recwords": ["statue", "chemist", "pebble", "convict", "cricket", "canyon", "actor", "binder", "tile"], "type": "FREE_RECALL", "conditions": [12, 1600, "v", 12000], "trial": 4, "trial_type": "free-recall", "trial_index": 183, "time_elapsed": 907733, "internal_node_id": "0.0-138.0-0.0"}}, {"uniqueid": "MTK1002:30LB5CDZNDH1IPR2DSCW2UNRKZHZ0R", "current_trial": 184, "dateTime": 1512961760686, "trialdata": {"rt": 30087, "key_press": 74, "type": "INSTRUCTIONS", "trial_type": "text", "trial_index": 184, "time_elapsed": 939823, "internal_node_id": "0.0-139.0"}}, {"uniqueid": "MTK1002:30LB5CDZNDH1IPR2DSCW2UNRKZHZ0R", "current_trial": 185, "dateTime": 1512961786690, "trialdata": {"rt": [2471, 5547, 7518, 9210, 11082, 13530, 15622, 17698, 18984, 21376, 23832], "responses": ["14", "14", "21", "21", "14", "15", "19", "11", "11", "21", "20"], "num1": [8, 2, 9, 9, 9, 5, 3, 3, 4, 5, 8, 7], "num2": [5, 3, 3, 8, 2, 9, 8, 4, 6, 7, 5, 6], "num3": [1, 9, 9, 4, 3, 1, 8, 4, 1, 9, 7, 5], "type": "DISTRACTOR", "conditions": [24, 800, "v", 24000], "trial": 5, "trial_type": "math-distractor", "trial_index": 185, "time_elapsed": 965828, "internal_node_id": "0.0-140.0"}}, {"uniqueid": "MTK1002:30LB5CDZNDH1IPR2DSCW2UNRKZHZ0R", "current_trial": 186, "dateTime": 1512961789693, "trialdata": {"rt": -1, "stimulus": "<p id=\"stim\">10</p>", "key_press": -1, "trial_type": "single-stim", "trial_index": 186, "time_elapsed": 968830, "internal_node_id": "0.0-141.0-0.0"}}, {"uniqueid": "MTK1002:30LB5CDZNDH1IPR2DSCW2UNRKZHZ0R", "current_trial": 187, "dateTime": 1512961790694, "trialdata": {"rt": -1, "stimulus": "<p id=\"stim\">9</p>", "key_press": -1, "trial_type": "single-stim", "trial_index": 187, "time_elapsed": 969832, "internal_node_id": "0.0-141.0-1.0"}}, {"uniqueid": "MTK1002:30LB5CDZNDH1IPR2DSCW2UNRKZHZ0R", "current_trial": 188, "dateTime": 1512961791695, "trialdata": {"rt": -1, "stimulus": "<p id=\"stim\">8</p>", "key_press": -1, "trial_type": "single-stim", "trial_index": 188, "time_elapsed": 970833, "internal_node_id": "0.0-141.0-2.0"}}, {"uniqueid": "MTK1002:30LB5CDZNDH1IPR2DSCW2UNRKZHZ0R", "current_trial": 189, "dateTime": 1512961792696, "trialdata": {"rt": -1, "stimulus": "<p id=\"stim\">7</p>", "key_press": -1, "trial_type": "single-stim", "trial_index": 189, "time_elapsed": 971834, "internal_node_id": "0.0-141.0-3.0"}}, {"uniqueid": "MTK1002:30LB5CDZNDH1IPR2DSCW2UNRKZHZ0R", "current_trial": 190, "dateTime": 1512961793697, "trialdata": {"rt": -1, "stimulus": "<p id=\"stim\">6</p>", "key_press": -1, "trial_type": "single-stim", "trial_index": 190, "time_elapsed": 972835, "internal_node_id": "0.0-141.0-4.0"}}, {"uniqueid": "MTK1002:30LB5CDZNDH1IPR2DSCW2UNRKZHZ0R", "current_trial": 191, "dateTime": 1512961794698, "trialdata": {"rt": -1, "stimulus": "<p id=\"stim\">5</p>", "key_press": -1, "trial_type": "single-stim", "trial_index": 191, "time_elapsed": 973836, "internal_node_id": "0.0-141.0-5.0"}}, {"uniqueid": "MTK1002:30LB5CDZNDH1IPR2DSCW2UNRKZHZ0R", "current_trial": 192, "dateTime": 1512961795699, "trialdata": {"rt": -1, "stimulus": "<p id=\"stim\">4</p>", "key_press": -1, "trial_type": "single-stim", "trial_index": 192, "time_elapsed": 974837, "internal_node_id": "0.0-141.0-6.0"}}, {"uniqueid": "MTK1002:30LB5CDZNDH1IPR2DSCW2UNRKZHZ0R", "current_trial": 193, "dateTime": 1512961796701, "trialdata": {"rt": -1, "stimulus": "<p id=\"stim\">3</p>", "key_press": -1, "trial_type": "single-stim", "trial_index": 193, "time_elapsed": 975839, "internal_node_id": "0.0-141.0-7.0"}}, {"uniqueid": "MTK1002:30LB5CDZNDH1IPR2DSCW2UNRKZHZ0R", "current_trial": 194, "dateTime": 1512961797702, "trialdata": {"rt": -1, "stimulus": "<p id=\"stim\">2</p>", "key_press": -1, "trial_type": "single-stim", "trial_index": 194, "time_elapsed": 976840, "internal_node_id": "0.0-141.0-8.0"}}, {"uniqueid": "MTK1002:30LB5CDZNDH1IPR2DSCW2UNRKZHZ0R", "current_trial": 195, "dateTime": 1512961798704, "trialdata": {"rt": -1, "stimulus": "<p id=\"stim\">1</p>", "key_press": -1, "trial_type": "single-stim", "trial_index": 195, "time_elapsed": 977842, "internal_node_id": "0.0-141.0-9.0"}}, {"uniqueid": "MTK1002:30LB5CDZNDH1IPR2DSCW2UNRKZHZ0R", "current_trial": 196, "dateTime": 1512961800205, "trialdata": {"rt": -1, "stimulus": "<p id=\"stim\">+</p>", "key_press": -1, "type": "FIXATION", "trial_type": "single-stim", "trial_index": 196, "time_elapsed": 979343, "internal_node_id": "0.0-142.0-0.0"}}, {"uniqueid": "MTK1002:30LB5CDZNDH1IPR2DSCW2UNRKZHZ0R", "current_trial": 197, "dateTime": 1512961801006, "trialdata": {"rt": -1, "stimulus": "<p id=\"stim\">ORANGE</p>", "key_press": -1, "type": "PRES_VIS", "word": "orange", "wordID": 979, "conditions": [24, 800, "v", 24000], "trial": 5, "serialpos": 0, "trial_type": "single-stim", "trial_index": 197, "time_elapsed": 980144, "internal_node_id": "0.0-143.0"}}, {"uniqueid": "MTK1002:30LB5CDZNDH1IPR2DSCW2UNRKZHZ0R", "current_trial": 198, "dateTime": 1512961802795, "trialdata": {"rt": -1, "stimulus": "<p id=\"stim\">CAFE</p>", "key_press": -1, "type": "PRES_VIS", "word": "cafe", "wordID": 215, "conditions": [24, 800, "v", 24000], "trial": 5, "serialpos": 1, "trial_type": "single-stim", "trial_index": 198, "time_elapsed": 981933, "internal_node_id": "0.0-144.0"}}, {"uniqueid": "MTK1002:30LB5CDZNDH1IPR2DSCW2UNRKZHZ0R", "current_trial": 199, "dateTime": 1512961804615, "trialdata": {"rt": -1, "stimulus": "<p id=\"stim\">ANKLE</p>", "key_press": -1, "type": "PRES_VIS", "word": "ankle", "wordID": 23, "conditions": [24, 800, "v", 24000], "trial": 5, "serialpos": 2, "trial_type": "single-stim", "trial_index": 199, "time_elapsed": 983753, "internal_node_id": "0.0-145.0"}}, {"uniqueid": "MTK1002:30LB5CDZNDH1IPR2DSCW2UNRKZHZ0R", "current_trial": 200, "dateTime": 1512961806486, "trialdata": {"rt": -1, "stimulus": "<p id=\"stim\">TRIBE</p>", "key_press": -1, "type": "PRES_VIS", "word": "tribe", "wordID": 1504, "conditions": [24, 800, "v", 24000], "trial": 5, "serialpos": 3, "trial_type": "single-stim", "trial_index": 200, "time_elapsed": 985624, "internal_node_id": "0.0-146.0"}}, {"uniqueid": "MTK1002:30LB5CDZNDH1IPR2DSCW2UNRKZHZ0R", "current_trial": 201, "dateTime": 1512961808468, "trialdata": {"rt": -1, "stimulus": "<p id=\"stim\">ATLAS</p>", "key_press": -1, "type": "PRES_VIS", "word": "atlas", "wordID": 52, "conditions": [24, 800, "v", 24000], "trial": 5, "serialpos": 4, "trial_type": "single-stim", "trial_index": 201, "time_elapsed": 987606, "internal_node_id": "0.0-147.0"}}, {"uniqueid": "MTK1002:30LB5CDZNDH1IPR2DSCW2UNRKZHZ0R", "current_trial": 202, "dateTime": 1512961810353, "trialdata": {"rt": -1, "stimulus": "<p id=\"stim\">ELBOW</p>", "key_press": -1, "type": "PRES_VIS", "word": "elbow", "wordID": 519, "conditions": [24, 800, "v", 24000], "trial": 5, "serialpos": 5, "trial_type": "single-stim", "trial_index": 202, "time_elapsed": 989491, "internal_node_id": "0.0-148.0"}}, {"uniqueid": "MTK1002:30LB5CDZNDH1IPR2DSCW2UNRKZHZ0R", "current_trial": 203, "dateTime": 1512961812085, "trialdata": {"rt": -1, "stimulus": "<p id=\"stim\">MUSTARD</p>", "key_press": -1, "type": "PRES_VIS", "word": "mustard", "wordID": 934, "conditions": [24, 800, "v", 24000], "trial": 5, "serialpos": 6, "trial_type": "single-stim", "trial_index": 203, "time_elapsed": 991223, "internal_node_id": "0.0-149.0"}}, {"uniqueid": "MTK1002:30LB5CDZNDH1IPR2DSCW2UNRKZHZ0R", "current_trial": 204, "dateTime": 1512961813746, "trialdata": {"rt": -1, "stimulus": "<p id=\"stim\">RELISH</p>", "key_press": -1, "type": "PRES_VIS", "word": "relish", "wordID": 1182, "conditions": [24, 800, "v", 24000], "trial": 5, "serialpos": 7, "trial_type": "single-stim", "trial_index": 204, "time_elapsed": 992884, "internal_node_id": "0.0-150.0"}}, {"uniqueid": "MTK1002:30LB5CDZNDH1IPR2DSCW2UNRKZHZ0R", "current_trial": 205, "dateTime": 1512961815592, "trialdata": {"rt": -1, "stimulus": "<p id=\"stim\">SCALLOP</p>", "key_press": -1, "type": "PRES_VIS", "word": "scallop", "wordID": 1241, "conditions": [24, 800, "v", 24000], "trial": 5, "serialpos": 8, "trial_type": "single-stim", "trial_index": 205, "time_elapsed": 994730, "internal_node_id": "0.0-151.0"}}, {"uniqueid": "MTK1002:30LB5CDZNDH1IPR2DSCW2UNRKZHZ0R", "current_trial": 206, "dateTime": 1512961817442, "trialdata": {"rt": -1, "stimulus": "<p id=\"stim\">OYSTER</p>", "key_press": -1, "type": "PRES_VIS", "word": "oyster", "wordID": 994, "conditions": [24, 800, "v", 24000], "trial": 5, "serialpos": 9, "trial_type": "single-stim", "trial_index": 206, "time_elapsed": 996580, "internal_node_id": "0.0-152.0"}}, {"uniqueid": "MTK1002:30LB5CDZNDH1IPR2DSCW2UNRKZHZ0R", "current_trial": 207, "dateTime": 1512961819274, "trialdata": {"rt": -1, "stimulus": "<p id=\"stim\">SURVEY</p>", "key_press": -1, "type": "PRES_VIS", "word": "survey", "wordID": 1413, "conditions": [24, 800, "v", 24000], "trial": 5, "serialpos": 10, "trial_type": "single-stim", "trial_index": 207, "time_elapsed": 998412, "internal_node_id": "0.0-153.0"}}, {"uniqueid": "MTK1002:30LB5CDZNDH1IPR2DSCW2UNRKZHZ0R", "current_trial": 208, "dateTime": 1512961821076, "trialdata": {"rt": -1, "stimulus": "<p id=\"stim\">NIGHTGOWN</p>", "key_press": -1, "type": "PRES_VIS", "word": "nightgown", "wordID": 952, "conditions": [24, 800, "v", 24000], "trial": 5, "serialpos": 11, "trial_type": "single-stim", "trial_index": 208, "time_elapsed": 1000214, "internal_node_id": "0.0-154.0"}}, {"uniqueid": "MTK1002:30LB5CDZNDH1IPR2DSCW2UNRKZHZ0R", "current_trial": 209, "dateTime": 1512961823027, "trialdata": {"rt": -1, "stimulus": "<p id=\"stim\">FOREST</p>", "key_press": -1, "type": "PRES_VIS", "word": "forest", "wordID": 592, "conditions": [24, 800, "v", 24000], "trial": 5, "serialpos": 12, "trial_type": "single-stim", "trial_index": 209, "time_elapsed": 1002165, "internal_node_id": "0.0-155.0"}}, {"uniqueid": "MTK1002:30LB5CDZNDH1IPR2DSCW2UNRKZHZ0R", "current_trial": 210, "dateTime": 1512961824727, "trialdata": {"rt": -1, "stimulus": "<p id=\"stim\">CRAB</p>", "key_press": -1, "type": "PRES_VIS", "word": "crab", "wordID": 396, "conditions": [24, 800, "v", 24000], "trial": 5, "serialpos": 13, "trial_type": "single-stim", "trial_index": 210, "time_elapsed": 1003865, "internal_node_id": "0.0-156.0"}}, {"uniqueid": "MTK1002:30LB5CDZNDH1IPR2DSCW2UNRKZHZ0R", "current_trial": 211, "dateTime": 1512961826692, "trialdata": {"rt": -1, "stimulus": "<p id=\"stim\">CREATURE</p>", "key_press": -1, "type": "PRES_VIS", "word": "creature", "wordID": 402, "conditions": [24, 800, "v", 24000], "trial": 5, "serialpos": 14, "trial_type": "single-stim", "trial_index": 211, "time_elapsed": 1005830, "internal_node_id": "0.0-157.0"}}, {"uniqueid": "MTK1002:30LB5CDZNDH1IPR2DSCW2UNRKZHZ0R", "current_trial": 212, "dateTime": 1512961828302, "trialdata": {"rt": -1, "stimulus": "<p id=\"stim\">KNIFE</p>", "key_press": -1, "type": "PRES_VIS", "word": "knife", "wordID": 784, "conditions": [24, 800, "v", 24000], "trial": 5, "serialpos": 15, "trial_type": "single-stim", "trial_index": 212, "time_elapsed": 1007440, "internal_node_id": "0.0-158.0"}}, {"uniqueid": "MTK1002:30LB5CDZNDH1IPR2DSCW2UNRKZHZ0R", "current_trial": 213, "dateTime": 1512961829936, "trialdata": {"rt": -1, "stimulus": "<p id=\"stim\">PISTOL</p>", "key_press": -1, "type": "PRES_VIS", "word": "pistol", "wordID": 1074, "conditions": [24, 800, "v", 24000], "trial": 5, "serialpos": 16, "trial_type": "single-stim", "trial_index": 213, "time_elapsed": 1009074, "internal_node_id": "0.0-159.0"}}, {"uniqueid": "MTK1002:30LB5CDZNDH1IPR2DSCW2UNRKZHZ0R", "current_trial": 214, "dateTime": 1512961831560, "trialdata": {"rt": -1, "stimulus": "<p id=\"stim\">VENUS</p>", "key_press": -1, "type": "PRES_VIS", "word": "venus", "wordID": 1556, "conditions": [24, 800, "v", 24000], "trial": 5, "serialpos": 17, "trial_type": "single-stim", "trial_index": 214, "time_elapsed": 1010698, "internal_node_id": "0.0-160.0"}}, {"uniqueid": "MTK1002:30LB5CDZNDH1IPR2DSCW2UNRKZHZ0R", "current_trial": 215, "dateTime": 1512961833258, "trialdata": {"rt": -1, "stimulus": "<p id=\"stim\">TERMITE</p>", "key_press": -1, "type": "PRES_VIS", "word": "termite", "wordID": 1450, "conditions": [24, 800, "v", 24000], "trial": 5, "serialpos": 18, "trial_type": "single-stim", "trial_index": 215, "time_elapsed": 1012396, "internal_node_id": "0.0-161.0"}}, {"uniqueid": "MTK1002:30LB5CDZNDH1IPR2DSCW2UNRKZHZ0R", "current_trial": 216, "dateTime": 1512961834916, "trialdata": {"rt": -1, "stimulus": "<p id=\"stim\">PISTON</p>", "key_press": -1, "type": "PRES_VIS", "word": "piston", "wordID": 1075, "conditions": [24, 800, "v", 24000], "trial": 5, "serialpos": 19, "trial_type": "single-stim", "trial_index": 216, "time_elapsed": 1014054, "internal_node_id": "0.0-162.0"}}, {"uniqueid": "MTK1002:30LB5CDZNDH1IPR2DSCW2UNRKZHZ0R", "current_trial": 217, "dateTime": 1512961836830, "trialdata": {"rt": -1, "stimulus": "<p id=\"stim\">NEUTRON</p>", "key_press": -1, "type": "PRES_VIS", "word": "neutron", "wordID": 946, "conditions": [24, 800, "v", 24000], "trial": 5, "serialpos": 20, "trial_type": "single-stim", "trial_index": 217, "time_elapsed": 1015968, "internal_node_id": "0.0-163.0"}}, {"uniqueid": "MTK1002:30LB5CDZNDH1IPR2DSCW2UNRKZHZ0R", "current_trial": 218, "dateTime": 1512961838682, "trialdata": {"rt": -1, "stimulus": "<p id=\"stim\">FUNGUS</p>", "key_press": -1, "type": "PRES_VIS", "word": "fungus", "wordID": 613, "conditions": [24, 800, "v", 24000], "trial": 5, "serialpos": 21, "trial_type": "single-stim", "trial_index": 218, "time_elapsed": 1017820, "internal_node_id": "0.0-164.0"}}, {"uniqueid": "MTK1002:30LB5CDZNDH1IPR2DSCW2UNRKZHZ0R", "current_trial": 219, "dateTime": 1512961840547, "trialdata": {"rt": -1, "stimulus": "<p id=\"stim\">CLAM</p>", "key_press": -1, "type": "PRES_VIS", "word": "clam", "wordID": 314, "conditions": [24, 800, "v", 24000], "trial": 5, "serialpos": 22, "trial_type": "single-stim", "trial_index": 219, "time_elapsed": 1019685, "internal_node_id": "0.0-165.0"}}, {"uniqueid": "MTK1002:30LB5CDZNDH1IPR2DSCW2UNRKZHZ0R", "current_trial": 220, "dateTime": 1512961842471, "trialdata": {"rt": -1, "stimulus": "<p id=\"stim\">INMATE</p>", "key_press": -1, "type": "PRES_VIS", "word": "inmate", "wordID": 737, "conditions": [24, 800, "v", 24000], "trial": 5, "serialpos": 23, "trial_type": "single-stim", "trial_index": 220, "time_elapsed": 1021609, "internal_node_id": "0.0-166.0"}}, {"uniqueid": "MTK1002:30LB5CDZNDH1IPR2DSCW2UNRKZHZ0R", "current_trial": 221, "dateTime": 1512961844884, "trialdata": {"rt": -1, "stimulus": "", "key_press": -1, "type": "PRE_RECALL_DELAY", "trial_type": "single-stim", "trial_index": 221, "time_elapsed": 1024022, "internal_node_id": "0.0-167.0-0.0"}}, {"uniqueid": "MTK1002:30LB5CDZNDH1IPR2DSCW2UNRKZHZ0R", "current_trial": 222, "dateTime": 1512961845385, "trialdata": {"rt": -1000, "stimulus": "/static/audio/400Hz.wav", "key_press": -1, "type": "PRE_RECALL_ALERT", "trial_type": "single-audio", "trial_index": 222, "time_elapsed": 1024523, "internal_node_id": "0.0-168.0"}}, {"uniqueid": "MTK1002:30LB5CDZNDH1IPR2DSCW2UNRKZHZ0R", "current_trial": 223, "dateTime": 1512961905389, "trialdata": {"rt": [5259, 7405, 10246, 11430, 14687, 17101, 19363, 22056, 26073, 28129, 31701, 32959, 43230], "recwords": ["fungus", "orange", "crab", "cafe", "creature", "mustard", "relish", "scallop", "oyster", "knife", "pistol", "atlas", "piston"], "type": "FREE_RECALL", "conditions": [24, 800, "v", 24000], "trial": 5, "trial_type": "free-recall", "trial_index": 223, "time_elapsed": 1084525, "internal_node_id": "0.0-169.0-0.0"}}, {"uniqueid": "MTK1002:30LB5CDZNDH1IPR2DSCW2UNRKZHZ0R", "current_trial": 224, "dateTime": 1512961909727, "trialdata": {"rt": 2337, "key_press": 74, "type": "INSTRUCTIONS", "trial_type": "text", "trial_index": 224, "time_elapsed": 1088865, "internal_node_id": "0.0-170.0"}}, {"uniqueid": "MTK1002:30LB5CDZNDH1IPR2DSCW2UNRKZHZ0R", "current_trial": 225, "dateTime": 1512961923732, "trialdata": {"rt": [2137, 4170, 5801, 7869, 9758, 11792], "responses": ["17", "20", "19", "6", "9", "15"], "num1": [6, 7, 3, 2, 4, 7, 7], "num2": [5, 8, 9, 3, 3, 5, 6], "num3": [6, 6, 7, 1, 2, 3, 5], "type": "DISTRACTOR", "conditions": [24, 1600, "a", 12000], "trial": 6, "trial_type": "math-distractor", "trial_index": 225, "time_elapsed": 1102870, "internal_node_id": "0.0-171.0"}}, {"uniqueid": "MTK1002:30LB5CDZNDH1IPR2DSCW2UNRKZHZ0R", "current_trial": 226, "dateTime": 1512961926735, "trialdata": {"rt": -1, "stimulus": "<p id=\"stim\">10</p>", "key_press": -1, "trial_type": "single-stim", "trial_index": 226, "time_elapsed": 1105873, "internal_node_id": "0.0-172.0-0.0"}}, {"uniqueid": "MTK1002:30LB5CDZNDH1IPR2DSCW2UNRKZHZ0R", "current_trial": 227, "dateTime": 1512961927737, "trialdata": {"rt": -1, "stimulus": "<p id=\"stim\">9</p>", "key_press": -1, "trial_type": "single-stim", "trial_index": 227, "time_elapsed": 1106875, "internal_node_id": "0.0-172.0-1.0"}}, {"uniqueid": "MTK1002:30LB5CDZNDH1IPR2DSCW2UNRKZHZ0R", "current_trial": 228, "dateTime": 1512961928738, "trialdata": {"rt": -1, "stimulus": "<p id=\"stim\">8</p>", "key_press": -1, "trial_type": "single-stim", "trial_index": 228, "time_elapsed": 1107876, "internal_node_id": "0.0-172.0-2.0"}}, {"uniqueid": "MTK1002:30LB5CDZNDH1IPR2DSCW2UNRKZHZ0R", "current_trial": 229, "dateTime": 1512961929739, "trialdata": {"rt": -1, "stimulus": "<p id=\"stim\">7</p>", "key_press": -1, "trial_type": "single-stim", "trial_index": 229, "time_elapsed": 1108877, "internal_node_id": "0.0-172.0-3.0"}}, {"uniqueid": "MTK1002:30LB5CDZNDH1IPR2DSCW2UNRKZHZ0R", "current_trial": 230, "dateTime": 1512961930741, "trialdata": {"rt": -1, "stimulus": "<p id=\"stim\">6</p>", "key_press": -1, "trial_type": "single-stim", "trial_index": 230, "time_elapsed": 1109879, "internal_node_id": "0.0-172.0-4.0"}}, {"uniqueid": "MTK1002:30LB5CDZNDH1IPR2DSCW2UNRKZHZ0R", "current_trial": 231, "dateTime": 1512961931742, "trialdata": {"rt": -1, "stimulus": "<p id=\"stim\">5</p>", "key_press": -1, "trial_type": "single-stim", "trial_index": 231, "time_elapsed": 1110880, "internal_node_id": "0.0-172.0-5.0"}}, {"uniqueid": "MTK1002:30LB5CDZNDH1IPR2DSCW2UNRKZHZ0R", "current_trial": 232, "dateTime": 1512961932743, "trialdata": {"rt": -1, "stimulus": "<p id=\"stim\">4</p>", "key_press": -1, "trial_type": "single-stim", "trial_index": 232, "time_elapsed": 1111881, "internal_node_id": "0.0-172.0-6.0"}}, {"uniqueid": "MTK1002:30LB5CDZNDH1IPR2DSCW2UNRKZHZ0R", "current_trial": 233, "dateTime": 1512961933744, "trialdata": {"rt": -1, "stimulus": "<p id=\"stim\">3</p>", "key_press": -1, "trial_type": "single-stim", "trial_index": 233, "time_elapsed": 1112882, "internal_node_id": "0.0-172.0-7.0"}}, {"uniqueid": "MTK1002:30LB5CDZNDH1IPR2DSCW2UNRKZHZ0R", "current_trial": 234, "dateTime": 1512961934745, "trialdata": {"rt": -1, "stimulus": "<p id=\"stim\">2</p>", "key_press": -1, "trial_type": "single-stim", "trial_index": 234, "time_elapsed": 1113883, "internal_node_id": "0.0-172.0-8.0"}}, {"uniqueid": "MTK1002:30LB5CDZNDH1IPR2DSCW2UNRKZHZ0R", "current_trial": 235, "dateTime": 1512961935746, "trialdata": {"rt": -1, "stimulus": "<p id=\"stim\">1</p>", "key_press": -1, "trial_type": "single-stim", "trial_index": 235, "time_elapsed": 1114884, "internal_node_id": "0.0-172.0-9.0"}}, {"uniqueid": "MTK1002:30LB5CDZNDH1IPR2DSCW2UNRKZHZ0R", "current_trial": 236, "dateTime": 1512961937247, "trialdata": {"rt": -1, "stimulus": "<p id=\"stim\">+</p>", "key_press": -1, "type": "FIXATION", "trial_type": "single-stim", "trial_index": 236, "time_elapsed": 1116385, "internal_node_id": "0.0-173.0-0.0"}}, {"uniqueid": "MTK1002:30LB5CDZNDH1IPR2DSCW2UNRKZHZ0R", "current_trial": 237, "dateTime": 1512961939965, "trialdata": {"rt": -1000, "stimulus": "/static/audio/wordpool/BALLOON.wav", "key_press": -1, "type": "PRES_AUD", "word": "balloon", "wordID": 74, "conditions": [24, 1600, "a", 12000], "trial": 6, "serialpos": 0, "trial_type": "single-audio", "trial_index": 237, "time_elapsed": 1119103, "internal_node_id": "0.0-174.0"}}, {"uniqueid": "MTK1002:30LB5CDZNDH1IPR2DSCW2UNRKZHZ0R", "current_trial": 238, "dateTime": 1512961942463, "trialdata": {"rt": -1000, "stimulus": "/static/audio/wordpool/FLOWER.wav", "key_press": -1, "type": "PRES_AUD", "word": "flower", "wordID": 583, "conditions": [24, 1600, "a", 12000], "trial": 6, "serialpos": 1, "trial_type": "single-audio", "trial_index": 238, "time_elapsed": 1121601, "internal_node_id": "0.0-175.0"}}, {"uniqueid": "MTK1002:30LB5CDZNDH1IPR2DSCW2UNRKZHZ0R", "current_trial": 239, "dateTime": 1512961945026, "trialdata": {"rt": -1000, "stimulus": "/static/audio/wordpool/MAPLE.wav", "key_press": -1, "type": "PRES_AUD", "word": "maple", "wordID": 865, "conditions": [24, 1600, "a", 12000], "trial": 6, "serialpos": 2, "trial_type": "single-audio", "trial_index": 239, "time_elapsed": 1124164, "internal_node_id": "0.0-176.0"}}, {"uniqueid": "MTK1002:30LB5CDZNDH1IPR2DSCW2UNRKZHZ0R", "current_trial": 240, "dateTime": 1512961947460, "trialdata": {"rt": -1000, "stimulus": "/static/audio/wordpool/HOSTESS.wav", "key_press": -1, "type": "PRES_AUD", "word": "hostess", "wordID": 722, "conditions": [24, 1600, "a", 12000], "trial": 6, "serialpos": 3, "trial_type": "single-audio", "trial_index": 240, "time_elapsed": 1126598, "internal_node_id": "0.0-177.0"}}, {"uniqueid": "MTK1002:30LB5CDZNDH1IPR2DSCW2UNRKZHZ0R", "current_trial": 241, "dateTime": 1512961949960, "trialdata": {"rt": -1000, "stimulus": "/static/audio/wordpool/SPOUSE.wav", "key_press": -1, "type": "PRES_AUD", "word": "spouse", "wordID": 1357, "conditions": [24, 1600, "a", 12000], "trial": 6, "serialpos": 4, "trial_type": "single-audio", "trial_index": 241, "time_elapsed": 1129098, "internal_node_id": "0.0-178.0"}}, {"uniqueid": "MTK1002:30LB5CDZNDH1IPR2DSCW2UNRKZHZ0R", "current_trial": 242, "dateTime": 1512961952585, "trialdata": {"rt": -1000, "stimulus": "/static/audio/wordpool/PIGEON.wav", "key_press": -1, "type": "PRES_AUD", "word": "pigeon", "wordID": 1064, "conditions": [24, 1600, "a", 12000], "trial": 6, "serialpos": 5, "trial_type": "single-audio", "trial_index": 242, "time_elapsed": 1131723, "internal_node_id": "0.0-179.0"}}, {"uniqueid": "MTK1002:30LB5CDZNDH1IPR2DSCW2UNRKZHZ0R", "current_trial": 243, "dateTime": 1512961955099, "trialdata": {"rt": -1000, "stimulus": "/static/audio/wordpool/FOX.wav", "key_press": -1, "type": "PRES_AUD", "word": "fox", "wordID": 597, "conditions": [24, 1600, "a", 12000], "trial": 6, "serialpos": 6, "trial_type": "single-audio", "trial_index": 243, "time_elapsed": 1134237, "internal_node_id": "0.0-180.0"}}, {"uniqueid": "MTK1002:30LB5CDZNDH1IPR2DSCW2UNRKZHZ0R", "current_trial": 244, "dateTime": 1512961957524, "trialdata": {"rt": -1000, "stimulus": "/static/audio/wordpool/FOOT.wav", "key_press": -1, "type": "PRES_AUD", "word": "foot", "wordID": 589, "conditions": [24, 1600, "a", 12000], "trial": 6, "serialpos": 7, "trial_type": "single-audio", "trial_index": 244, "time_elapsed": 1136662, "internal_node_id": "0.0-181.0"}}, {"uniqueid": "MTK1002:30LB5CDZNDH1IPR2DSCW2UNRKZHZ0R", "current_trial": 245, "dateTime": 1512961960121, "trialdata": {"rt": -1000, "stimulus": "/static/audio/wordpool/DAISY.wav", "key_press": -1, "type": "PRES_AUD", "word": "daisy", "wordID": 434, "conditions": [24, 1600, "a", 12000], "trial": 6, "serialpos": 8, "trial_type": "single-audio", "trial_index": 245, "time_elapsed": 1139259, "internal_node_id": "0.0-182.0"}}, {"uniqueid": "MTK1002:30LB5CDZNDH1IPR2DSCW2UNRKZHZ0R", "current_trial": 246, "dateTime": 1512961962607, "trialdata": {"rt": -1000, "stimulus": "/static/audio/wordpool/SUPPER.wav", "key_press": -1, "type": "PRES_AUD", "word": "supper", "wordID": 1410, "conditions": [24, 1600, "a", 12000], "trial": 6, "serialpos": 9, "trial_type": "single-audio", "trial_index": 246, "time_elapsed": 1141745, "internal_node_id": "0.0-183.0"}}, {"uniqueid": "MTK1002:30LB5CDZNDH1IPR2DSCW2UNRKZHZ0R", "current_trial": 247, "dateTime": 1512961965037, "trialdata": {"rt": -1000, "stimulus": "/static/audio/wordpool/MUFFIN.wav", "key_press": -1, "type": "PRES_AUD", "word": "muffin", "wordID": 928, "conditions": [24, 1600, "a", 12000], "trial": 6, "serialpos": 10, "trial_type": "single-audio", "trial_index": 247, "time_elapsed": 1144175, "internal_node_id": "0.0-184.0"}}, {"uniqueid": "MTK1002:30LB5CDZNDH1IPR2DSCW2UNRKZHZ0R", "current_trial": 248, "dateTime": 1512961967537, "trialdata": {"rt": -1000, "stimulus": "/static/audio/wordpool/WHISTLE.wav", "key_press": -1, "type": "PRES_AUD", "word": "whistle", "wordID": 1605, "conditions": [24, 1600, "a", 12000], "trial": 6, "serialpos": 11, "trial_type": "single-audio", "trial_index": 248, "time_elapsed": 1146675, "internal_node_id": "0.0-185.0"}}, {"uniqueid": "MTK1002:30LB5CDZNDH1IPR2DSCW2UNRKZHZ0R", "current_trial": 249, "dateTime": 1512961970012, "trialdata": {"rt": -1000, "stimulus": "/static/audio/wordpool/COBRA.wav", "key_press": -1, "type": "PRES_AUD", "word": "cobra", "wordID": 335, "conditions": [24, 1600, "a", 12000], "trial": 6, "serialpos": 12, "trial_type": "single-audio", "trial_index": 249, "time_elapsed": 1149150, "internal_node_id": "0.0-186.0"}}, {"uniqueid": "MTK1002:30LB5CDZNDH1IPR2DSCW2UNRKZHZ0R", "current_trial": 250, "dateTime": 1512961972722, "trialdata": {"rt": -1000, "stimulus": "/static/audio/wordpool/GIRL.wav", "key_press": -1, "type": "PRES_AUD", "word": "girl", "wordID": 636, "conditions": [24, 1600, "a", 12000], "trial": 6, "serialpos": 13, "trial_type": "single-audio", "trial_index": 250, "time_elapsed": 1151860, "internal_node_id": "0.0-187.0"}}, {"uniqueid": "MTK1002:30LB5CDZNDH1IPR2DSCW2UNRKZHZ0R", "current_trial": 251, "dateTime": 1512961975492, "trialdata": {"rt": -1000, "stimulus": "/static/audio/wordpool/SLUG.wav", "key_press": -1, "type": "PRES_AUD", "word": "slug", "wordID": 1328, "conditions": [24, 1600, "a", 12000], "trial": 6, "serialpos": 14, "trial_type": "single-audio", "trial_index": 251, "time_elapsed": 1154630, "internal_node_id": "0.0-188.0"}}, {"uniqueid": "MTK1002:30LB5CDZNDH1IPR2DSCW2UNRKZHZ0R", "current_trial": 252, "dateTime": 1512961978067, "trialdata": {"rt": -1000, "stimulus": "/static/audio/wordpool/POSSUM.wav", "key_press": -1, "type": "PRES_AUD", "word": "possum", "wordID": 1111, "conditions": [24, 1600, "a", 12000], "trial": 6, "serialpos": 15, "trial_type": "single-audio", "trial_index": 252, "time_elapsed": 1157205, "internal_node_id": "0.0-189.0"}}, {"uniqueid": "MTK1002:30LB5CDZNDH1IPR2DSCW2UNRKZHZ0R", "current_trial": 253, "dateTime": 1512961980769, "trialdata": {"rt": -1000, "stimulus": "/static/audio/wordpool/LACE.wav", "key_press": -1, "type": "PRES_AUD", "word": "lace", "wordID": 791, "conditions": [24, 1600, "a", 12000], "trial": 6, "serialpos": 16, "trial_type": "single-audio", "trial_index": 253, "time_elapsed": 1159907, "internal_node_id": "0.0-190.0"}}, {"uniqueid": "MTK1002:30LB5CDZNDH1IPR2DSCW2UNRKZHZ0R", "current_trial": 254, "dateTime": 1512961983198, "trialdata": {"rt": -1000, "stimulus": "/static/audio/wordpool/LIPSTICK.wav", "key_press": -1, "type": "PRES_AUD", "word": "lipstick", "wordID": 828, "conditions": [24, 1600, "a", 12000], "trial": 6, "serialpos": 17, "trial_type": "single-audio", "trial_index": 254, "time_elapsed": 1162336, "internal_node_id": "0.0-191.0"}}, {"uniqueid": "MTK1002:30LB5CDZNDH1IPR2DSCW2UNRKZHZ0R", "current_trial": 255, "dateTime": 1512961985623, "trialdata": {"rt": -1000, "stimulus": "/static/audio/wordpool/HUSBAND.wav", "key_press": -1, "type": "PRES_AUD", "word": "husband", "wordID": 727, "conditions": [24, 1600, "a", 12000], "trial": 6, "serialpos": 18, "trial_type": "single-audio", "trial_index": 255, "time_elapsed": 1164761, "internal_node_id": "0.0-192.0"}}, {"uniqueid": "MTK1002:30LB5CDZNDH1IPR2DSCW2UNRKZHZ0R", "current_trial": 256, "dateTime": 1512961988245, "trialdata": {"rt": -1000, "stimulus": "/static/audio/wordpool/CUSTARD.wav", "key_press": -1, "type": "PRES_AUD", "word": "custard", "wordID": 428, "conditions": [24, 1600, "a", 12000], "trial": 6, "serialpos": 19, "trial_type": "single-audio", "trial_index": 256, "time_elapsed": 1167383, "internal_node_id": "0.0-193.0"}}, {"uniqueid": "MTK1002:30LB5CDZNDH1IPR2DSCW2UNRKZHZ0R", "current_trial": 257, "dateTime": 1512961990918, "trialdata": {"rt": -1000, "stimulus": "/static/audio/wordpool/PANTHER.wav", "key_press": -1, "type": "PRES_AUD", "word": "panther", "wordID": 1008, "conditions": [24, 1600, "a", 12000], "trial": 6, "serialpos": 20, "trial_type": "single-audio", "trial_index": 257, "time_elapsed": 1170056, "internal_node_id": "0.0-194.0"}}, {"uniqueid": "MTK1002:30LB5CDZNDH1IPR2DSCW2UNRKZHZ0R", "current_trial": 258, "dateTime": 1512961993690, "trialdata": {"rt": -1000, "stimulus": "/static/audio/wordpool/BLENDER.wav", "key_press": -1, "type": "PRES_AUD", "word": "blender", "wordID": 135, "conditions": [24, 1600, "a", 12000], "trial": 6, "serialpos": 21, "trial_type": "single-audio", "trial_index": 258, "time_elapsed": 1172828, "internal_node_id": "0.0-195.0"}}, {"uniqueid": "MTK1002:30LB5CDZNDH1IPR2DSCW2UNRKZHZ0R", "current_trial": 259, "dateTime": 1512961996351, "trialdata": {"rt": -1000, "stimulus": "/static/audio/wordpool/SKILLET.wav", "key_press": -1, "type": "PRES_AUD", "word": "skillet", "wordID": 1316, "conditions": [24, 1600, "a", 12000], "trial": 6, "serialpos": 22, "trial_type": "single-audio", "trial_index": 259, "time_elapsed": 1175489, "internal_node_id": "0.0-196.0"}}, {"uniqueid": "MTK1002:30LB5CDZNDH1IPR2DSCW2UNRKZHZ0R", "current_trial": 260, "dateTime": 1512961998874, "trialdata": {"rt": -1000, "stimulus": "/static/audio/wordpool/OFFICE.wav", "key_press": -1, "type": "PRES_AUD", "word": "office", "wordID": 971, "conditions": [24, 1600, "a", 12000], "trial": 6, "serialpos": 23, "trial_type": "single-audio", "trial_index": 260, "time_elapsed": 1178012, "internal_node_id": "0.0-197.0"}}, {"uniqueid": "MTK1002:30LB5CDZNDH1IPR2DSCW2UNRKZHZ0R", "current_trial": 261, "dateTime": 1512962000102, "trialdata": {"rt": -1, "stimulus": "", "key_press": -1, "type": "PRE_RECALL_DELAY", "trial_type": "single-stim", "trial_index": 261, "time_elapsed": 1179240, "internal_node_id": "0.0-198.0-0.0"}}, {"uniqueid": "MTK1002:30LB5CDZNDH1IPR2DSCW2UNRKZHZ0R", "current_trial": 262, "dateTime": 1512962000603, "trialdata": {"rt": -1000, "stimulus": "/static/audio/400Hz.wav", "key_press": -1, "type": "PRE_RECALL_ALERT", "trial_type": "single-audio", "trial_index": 262, "time_elapsed": 1179741, "internal_node_id": "0.0-199.0"}}, {"uniqueid": "MTK1002:30LB5CDZNDH1IPR2DSCW2UNRKZHZ0R", "current_trial": 263, "dateTime": 1512962060608, "trialdata": {"rt": [3631, 6040, 7601, 11137, 13584, 15613, 17743, 20695, 22680, 25864, 28372, 32421, 43139, 46779], "recwords": ["skillet", "spouse", "blender", "whistle", "pigeon", "fox", "possum", "lipstick", "girl", "cobra", "daisy", "muffin", "maple", "flower"], "type": "FREE_RECALL", "conditions": [24, 1600, "a", 12000], "trial": 6, "trial_type": "free-recall", "trial_index": 263, "time_elapsed": 1239743, "internal_node_id": "0.0-200.0-0.0"}}, {"uniqueid": "MTK1002:30LB5CDZNDH1IPR2DSCW2UNRKZHZ0R", "current_trial": 264, "dateTime": 1512962082507, "trialdata": {"rt": 19898, "key_press": 74, "type": "INSTRUCTIONS", "trial_type": "text", "trial_index": 264, "time_elapsed": 1261645, "internal_node_id": "0.0-201.0"}}, {"uniqueid": "MTK1002:30LB5CDZNDH1IPR2DSCW2UNRKZHZ0R", "current_trial": 265, "dateTime": 1512962108510, "trialdata": {"rt": [2432, 4424, 7041, 9855, 12183, 13927, 17664, 21736, 23006], "responses": ["9", "16", "22", "12", "15", "11", "19", "13", "12"], "num1": [1, 9, 8, 5, 8, 3, 9, 3, 6, 4], "num2": [1, 8, 8, 3, 3, 4, 5, 5, 4, 2], "num3": [7, 4, 6, 4, 4, 4, 5, 5, 2, 1], "type": "DISTRACTOR", "conditions": [12, 800, "a", 24000], "trial": 7, "trial_type": "math-distractor", "trial_index": 265, "time_elapsed": 1287648, "internal_node_id": "0.0-202.0"}}, {"uniqueid": "MTK1002:30LB5CDZNDH1IPR2DSCW2UNRKZHZ0R", "current_trial": 266, "dateTime": 1512962111511, "trialdata": {"rt": -1, "stimulus": "<p id=\"stim\">10</p>", "key_press": -1, "trial_type": "single-stim", "trial_index": 266, "time_elapsed": 1290649, "internal_node_id": "0.0-203.0-0.0"}}, {"uniqueid": "MTK1002:30LB5CDZNDH1IPR2DSCW2UNRKZHZ0R", "current_trial": 267, "dateTime": 1512962112512, "trialdata": {"rt": -1, "stimulus": "<p id=\"stim\">9</p>", "key_press": -1, "trial_type": "single-stim", "trial_index": 267, "time_elapsed": 1291650, "internal_node_id": "0.0-203.0-1.0"}}, {"uniqueid": "MTK1002:30LB5CDZNDH1IPR2DSCW2UNRKZHZ0R", "current_trial": 268, "dateTime": 1512962113513, "trialdata": {"rt": -1, "stimulus": "<p id=\"stim\">8</p>", "key_p