{"assignmentId": "30ZX6P7VF92IEKPCATDOXOSG0JK2JV", "workerId": "MTK1428", "questiondata": {"origin": "United States", "strat-rehearsal": "49", "marital": "Single", "education": "Bachelor's degree", "ethnicity": "Not Hispanic", "color_depth": 24, "distracted": "No", "wrote-notes": "Yes", "strat-other": "n/a", "screen_width": 1280, "avail_screen_width": 1280, "avail_screen_height": 687, "strat-image": "12", "language": "english", "gender": "Female", "age": "24", "gender_other": "", "race": ["Asian"], "strat-categorize": "57", "pixel_depth": 24, "strat-spatial": "0", "strat-story": "0", "race_other": "", "screen_height": 800}, "bonus": 0, "hitId": "36QZ6V1589KIAFJAQ5R66OIBYSRUS2", "counterbalance": 863, "useragent": "Mozilla/5.0 (Macintosh; Intel Mac OS X 10_13_2) AppleWebKit/537.36 (KHTML, like Gecko) Chrome/63.0.3239.132 Safari/537.36", "eventdata": [{"eventtype": "initialized", "interval": 0, "value": null, "timestamp": 1515880467262}, {"eventtype": "window_resize", "interval": 0, "value": [1280, 703], "timestamp": 1515880467262}, {"eventtype": "focus", "interval": 134126, "value": "off", "timestamp": 1515880601388}, {"eventtype": "focus", "interval": 21285, "value": "on", "timestamp": 1515880622673}, {"eventtype": "focus", "interval": 1233427, "value": "off", "timestamp": 1515881856100}, {"eventtype": "focus", "interval": 178479, "value": "on", "timestamp": 1515882034579}, {"eventtype": "focus", "interval": 598383, "value": "off", "timestamp": 1515882632962}, {"eventtype": "focus", "interval": 121637, "value": "on", "timestamp": 1515882754599}, {"eventtype": "focus", "interval": 271561, "value": "off", "timestamp": 1515883026160}, {"eventtype": "focus", "interval": 219446, "value": "on", "timestamp": 1515883245606}, {"eventtype": "focus", "interval": 1726, "value": "off", "timestamp": 1515883247332}, {"eventtype": "focus", "interval": 7864, "value": "on", "timestamp": 1515883255196}, {"eventtype": "window_resize", "interval": 30014, "value": [944, 590], "timestamp": 1515883285210}, {"eventtype": "window_resize", "interval": 4818, "value": [1280, 703], "timestamp": 1515883290028}], "data": [{"current_trial": 0, "trialdata": {"rt": 136237, "trial_type": "text", "internal_node_id": "0.0-0.0", "time_elapsed": 136238, "key_press": 77, "type": "INSTRUCTIONS", "trial_index": 0}, "uniqueid": "MTK1428:30ZX6P7VF92IEKPCATDOXOSG0JK2JV", "dateTime": 1515880625393}, {"current_trial": 1, "trialdata": {"rt": 13774, "trial_type": "text", "internal_node_id": "0.0-1.0", "time_elapsed": 150015, "key_press": 77, "type": "INSTRUCTIONS", "trial_index": 1}, "uniqueid": "MTK1428:30ZX6P7VF92IEKPCATDOXOSG0JK2JV", "dateTime": 1515880639169}, {"current_trial": 2, "trialdata": {"rt": [12861], "trial_type": "audio-test", "responses": ["ocean"], "internal_node_id": "0.0-2.0", "time_elapsed": 162888, "type": "AUDIO_TEST", "trial_index": 2}, "uniqueid": "MTK1428:30ZX6P7VF92IEKPCATDOXOSG0JK2JV", "dateTime": 1515880652042}, {"current_trial": 3, "trialdata": {"rt": [4233], "trial_type": "audio-test", "responses": ["crystal"], "internal_node_id": "0.0-3.0", "time_elapsed": 167125, "type": "AUDIO_TEST", "trial_index": 3}, "uniqueid": "MTK1428:30ZX6P7VF92IEKPCATDOXOSG0JK2JV", "dateTime": 1515880656279}, {"current_trial": 4, "trialdata": {"rt": [4272], "trial_type": "audio-test", "responses": ["spice"], "internal_node_id": "0.0-4.0", "time_elapsed": 171400, "type": "AUDIO_TEST", "trial_index": 4}, "uniqueid": "MTK1428:30ZX6P7VF92IEKPCATDOXOSG0JK2JV", "dateTime": 1515880660554}, {"current_trial": 5, "trialdata": {"rt": 20442, "trial_type": "survey-text", "responses": "{\"Q0\":\"11:30\",\"Q1\":\"6:00\",\"Q2\":\"4\\n4\"}", "internal_node_id": "0.0-5.0", "time_elapsed": 192594, "type": "SLEEP_SURVEY", "trial_index": 5}, "uniqueid": "MTK1428:30ZX6P7VF92IEKPCATDOXOSG0JK2JV", "dateTime": 1515880681749}, {"current_trial": 6, "trialdata": {"rt": 14148, "trial_type": "text", "internal_node_id": "0.0-6.0", "time_elapsed": 207748, "key_press": 75, "type": "INSTRUCTIONS", "trial_index": 6}, "uniqueid": "MTK1428:30ZX6P7VF92IEKPCATDOXOSG0JK2JV", "dateTime": 1515880696902}, {"current_trial": 7, "trialdata": {"rt": 12858, "trial_type": "text", "internal_node_id": "0.0-7.0", "time_elapsed": 221108, "key_press": 76, "type": "INSTRUCTIONS", "trial_index": 7}, "uniqueid": "MTK1428:30ZX6P7VF92IEKPCATDOXOSG0JK2JV", "dateTime": 1515880710262}, {"current_trial": 8, "trialdata": {"rt": 4361, "trial_type": "text", "internal_node_id": "0.0-8.0", "time_elapsed": 225972, "key_press": 76, "type": "INSTRUCTIONS", "trial_index": 8}, "uniqueid": "MTK1428:30ZX6P7VF92IEKPCATDOXOSG0JK2JV", "dateTime": 1515880715126}, {"current_trial": 9, "trialdata": {"rt": [2497, 5179, 7111, 9441, 12634, 15813], "trial_type": "math-distractor", "key_times": [2130, 2266, 2497, 4805, 4982, 5179, 6756, 6922, 7111, 9274, 9441, 12293, 12522, 12634, 15598, 15697, 15813, 17792, 17905], "responses": ["17", "26", "15", "7", "24", "12"], "num2": [7, 9, 5, 1, 8, 3, 9], "num3": [1, 9, 2, 2, 9, 5, 2], "conditions": [18, 1200, "a", 18000], "internal_node_id": "0.0-9.0", "key_presses": [49, 55, 13, 50, 54, 13, 49, 53, 13, 55, 13, 50, 52, 13, 49, 50, 13, 50, 48], "trial": 0, "time_elapsed": 244978, "type": "DISTRACTOR", "trial_index": 9, "num1": [9, 8, 8, 4, 7, 4, 9]}, "uniqueid": "MTK1428:30ZX6P7VF92IEKPCATDOXOSG0JK2JV", "dateTime": 1515880734132}, {"current_trial": 10, "trialdata": {"rt": -1, "trial_type": "single-stim", "stimulus": "<p id=\"stim\">10</p>", "internal_node_id": "0.0-10.0-0.0", "time_elapsed": 247985, "key_press": -1, "trial_index": 10}, "uniqueid": "MTK1428:30ZX6P7VF92IEKPCATDOXOSG0JK2JV", "dateTime": 1515880737139}, {"current_trial": 11, "trialdata": {"rt": -1, "trial_type": "single-stim", "stimulus": "<p id=\"stim\">9</p>", "internal_node_id": "0.0-10.0-1.0", "time_elapsed": 248989, "key_press": -1, "trial_index": 11}, "uniqueid": "MTK1428:30ZX6P7VF92IEKPCATDOXOSG0JK2JV", "dateTime": 1515880738143}, {"current_trial": 12, "trialdata": {"rt": -1, "trial_type": "single-stim", "stimulus": "<p id=\"stim\">8</p>", "internal_node_id": "0.0-10.0-2.0", "time_elapsed": 249992, "key_press": -1, "trial_index": 12}, "uniqueid": "MTK1428:30ZX6P7VF92IEKPCATDOXOSG0JK2JV", "dateTime": 1515880739146}, {"current_trial": 13, "trialdata": {"rt": -1, "trial_type": "single-stim", "stimulus": "<p id=\"stim\">7</p>", "internal_node_id": "0.0-10.0-3.0", "time_elapsed": 250997, "key_press": -1, "trial_index": 13}, "uniqueid": "MTK1428:30ZX6P7VF92IEKPCATDOXOSG0JK2JV", "dateTime": 1515880740151}, {"current_trial": 14, "trialdata": {"rt": -1, "trial_type": "single-stim", "stimulus": "<p id=\"stim\">6</p>", "internal_node_id": "0.0-10.0-4.0", "time_elapsed": 252001, "key_press": -1, "trial_index": 14}, "uniqueid": "MTK1428:30ZX6P7VF92IEKPCATDOXOSG0JK2JV", "dateTime": 1515880741155}, {"current_trial": 15, "trialdata": {"rt": -1, "trial_type": "single-stim", "stimulus": "<p id=\"stim\">5</p>", "internal_node_id": "0.0-10.0-5.0", "time_elapsed": 253005, "key_press": -1, "trial_index": 15}, "uniqueid": "MTK1428:30ZX6P7VF92IEKPCATDOXOSG0JK2JV", "dateTime": 1515880742159}, {"current_trial": 16, "trialdata": {"rt": -1, "trial_type": "single-stim", "stimulus": "<p id=\"stim\">4</p>", "internal_node_id": "0.0-10.0-6.0", "time_elapsed": 254009, "key_press": -1, "trial_index": 16}, "uniqueid": "MTK1428:30ZX6P7VF92IEKPCATDOXOSG0JK2JV", "dateTime": 1515880743163}, {"current_trial": 17, "trialdata": {"rt": -1, "trial_type": "single-stim", "stimulus": "<p id=\"stim\">3</p>", "internal_node_id": "0.0-10.0-7.0", "time_elapsed": 255013, "key_press": -1, "trial_index": 17}, "uniqueid": "MTK1428:30ZX6P7VF92IEKPCATDOXOSG0JK2JV", "dateTime": 1515880744167}, {"current_trial": 18, "trialdata": {"rt": -1, "trial_type": "single-stim", "stimulus": "<p id=\"stim\">2</p>", "internal_node_id": "0.0-10.0-8.0", "time_elapsed": 256017, "key_press": -1, "trial_index": 18}, "uniqueid": "MTK1428:30ZX6P7VF92IEKPCATDOXOSG0JK2JV", "dateTime": 1515880745171}, {"current_trial": 19, "trialdata": {"rt": -1, "trial_type": "single-stim", "stimulus": "<p id=\"stim\">1</p>", "internal_node_id": "0.0-10.0-9.0", "time_elapsed": 257021, "key_press": -1, "trial_index": 19}, "uniqueid": "MTK1428:30ZX6P7VF92IEKPCATDOXOSG0JK2JV", "dateTime": 1515880746176}, {"current_trial": 20, "trialdata": {"rt": -1, "trial_type": "single-stim", "stimulus": "<p id=\"stim\">+</p>", "internal_node_id": "0.0-11.0-0.0", "time_elapsed": 258524, "key_press": -1, "type": "FIXATION", "trial_index": 20}, "uniqueid": "MTK1428:30ZX6P7VF92IEKPCATDOXOSG0JK2JV", "dateTime": 1515880747679}, {"current_trial": 21, "trialdata": {"rt": -1000, "trial_type": "single-audio", "word": "parrot", "stimulus": "/static/audio/wordpool/PARROT.wav", "conditions": [18, 1200, "a", 18000], "internal_node_id": "0.0-12.0", "trial": 0, "time_elapsed": 260885, "serialpos": 0, "key_press": -1, "wordID": 1014, "type": "PRES_AUD", "trial_index": 21}, "uniqueid": "MTK1428:30ZX6P7VF92IEKPCATDOXOSG0JK2JV", "dateTime": 1515880750040}, {"current_trial": 22, "trialdata": {"rt": -1000, "trial_type": "single-audio", "word": "cashier", "stimulus": "/static/audio/wordpool/CASHIER.wav", "conditions": [18, 1200, "a", 18000], "internal_node_id": "0.0-13.0", "trial": 0, "time_elapsed": 263230, "serialpos": 1, "key_press": -1, "wordID": 253, "type": "PRES_AUD", "trial_index": 22}, "uniqueid": "MTK1428:30ZX6P7VF92IEKPCATDOXOSG0JK2JV", "dateTime": 1515880752384}, {"current_trial": 23, "trialdata": {"rt": -1000, "trial_type": "single-audio", "word": "softball", "stimulus": "/static/audio/wordpool/SOFTBALL.wav", "conditions": [18, 1200, "a", 18000], "internal_node_id": "0.0-14.0", "trial": 0, "time_elapsed": 265628, "serialpos": 2, "key_press": -1, "wordID": 1342, "type": "PRES_AUD", "trial_index": 23}, "uniqueid": "MTK1428:30ZX6P7VF92IEKPCATDOXOSG0JK2JV", "dateTime": 1515880754782}, {"current_trial": 24, "trialdata": {"rt": -1000, "trial_type": "single-audio", "word": "seagull", "stimulus": "/static/audio/wordpool/SEAGULL.wav", "conditions": [18, 1200, "a", 18000], "internal_node_id": "0.0-15.0", "trial": 0, "time_elapsed": 267787, "serialpos": 3, "key_press": -1, "wordID": 1260, "type": "PRES_AUD", "trial_index": 24}, "uniqueid": "MTK1428:30ZX6P7VF92IEKPCATDOXOSG0JK2JV", "dateTime": 1515880756941}, {"current_trial": 25, "trialdata": {"rt": -1000, "trial_type": "single-audio", "word": "mattress", "stimulus": "/static/audio/wordpool/MATTRESS.wav", "conditions": [18, 1200, "a", 18000], "internal_node_id": "0.0-16.0", "trial": 0, "time_elapsed": 269901, "serialpos": 4, "key_press": -1, "wordID": 878, "type": "PRES_AUD", "trial_index": 25}, "uniqueid": "MTK1428:30ZX6P7VF92IEKPCATDOXOSG0JK2JV", "dateTime": 1515880759055}, {"current_trial": 26, "trialdata": {"rt": -1000, "trial_type": "single-audio", "word": "france", "stimulus": "/static/audio/wordpool/FRANCE.wav", "conditions": [18, 1200, "a", 18000], "internal_node_id": "0.0-17.0", "trial": 0, "time_elapsed": 271950, "serialpos": 5, "key_press": -1, "wordID": 600, "type": "PRES_AUD", "trial_index": 26}, "uniqueid": "MTK1428:30ZX6P7VF92IEKPCATDOXOSG0JK2JV", "dateTime": 1515880761104}, {"current_trial": 27, "trialdata": {"rt": -1000, "trial_type": "single-audio", "word": "twig", "stimulus": "/static/audio/wordpool/TWIG.wav", "conditions": [18, 1200, "a", 18000], "internal_node_id": "0.0-18.0", "trial": 0, "time_elapsed": 274318, "serialpos": 6, "key_press": -1, "wordID": 1526, "type": "PRES_AUD", "trial_index": 27}, "uniqueid": "MTK1428:30ZX6P7VF92IEKPCATDOXOSG0JK2JV", "dateTime": 1515880763472}, {"current_trial": 28, "trialdata": {"rt": -1000, "trial_type": "single-audio", "word": "concert", "stimulus": "/static/audio/wordpool/CONCERT.wav", "conditions": [18, 1200, "a", 18000], "internal_node_id": "0.0-19.0", "trial": 0, "time_elapsed": 276681, "serialpos": 7, "key_press": -1, "wordID": 359, "type": "PRES_AUD", "trial_index": 28}, "uniqueid": "MTK1428:30ZX6P7VF92IEKPCATDOXOSG0JK2JV", "dateTime": 1515880765835}, {"current_trial": 29, "trialdata": {"rt": -1000, "trial_type": "single-audio", "word": "cottage", "stimulus": "/static/audio/wordpool/COTTAGE.wav", "conditions": [18, 1200, "a", 18000], "internal_node_id": "0.0-20.0", "trial": 0, "time_elapsed": 278742, "serialpos": 8, "key_press": -1, "wordID": 383, "type": "PRES_AUD", "trial_index": 29}, "uniqueid": "MTK1428:30ZX6P7VF92IEKPCATDOXOSG0JK2JV", "dateTime": 1515880767896}, {"current_trial": 30, "trialdata": {"rt": -1000, "trial_type": "single-audio", "word": "skirt", "stimulus": "/static/audio/wordpool/SKIRT.wav", "conditions": [18, 1200, "a", 18000], "internal_node_id": "0.0-21.0", "trial": 0, "time_elapsed": 280988, "serialpos": 9, "key_press": -1, "wordID": 1318, "type": "PRES_AUD", "trial_index": 30}, "uniqueid": "MTK1428:30ZX6P7VF92IEKPCATDOXOSG0JK2JV", "dateTime": 1515880770142}, {"current_trial": 31, "trialdata": {"rt": -1000, "trial_type": "single-audio", "word": "catcher", "stimulus": "/static/audio/wordpool/CATCHER.wav", "conditions": [18, 1200, "a", 18000], "internal_node_id": "0.0-22.0", "trial": 0, "time_elapsed": 283287, "serialpos": 10, "key_press": -1, "wordID": 257, "type": "PRES_AUD", "trial_index": 31}, "uniqueid": "MTK1428:30ZX6P7VF92IEKPCATDOXOSG0JK2JV", "dateTime": 1515880772441}, {"current_trial": 32, "trialdata": {"rt": -1000, "trial_type": "single-audio", "word": "sword", "stimulus": "/static/audio/wordpool/SWORD.wav", "conditions": [18, 1200, "a", 18000], "internal_node_id": "0.0-23.0", "trial": 0, "time_elapsed": 285580, "serialpos": 11, "key_press": -1, "wordID": 1422, "type": "PRES_AUD", "trial_index": 32}, "uniqueid": "MTK1428:30ZX6P7VF92IEKPCATDOXOSG0JK2JV", "dateTime": 1515880774734}, {"current_trial": 33, "trialdata": {"rt": -1000, "trial_type": "single-audio", "word": "dime", "stimulus": "/static/audio/wordpool/DIME.wav", "conditions": [18, 1200, "a", 18000], "internal_node_id": "0.0-24.0", "trial": 0, "time_elapsed": 287664, "serialpos": 12, "key_press": -1, "wordID": 465, "type": "PRES_AUD", "trial_index": 33}, "uniqueid": "MTK1428:30ZX6P7VF92IEKPCATDOXOSG0JK2JV", "dateTime": 1515880776818}, {"current_trial": 34, "trialdata": {"rt": -1000, "trial_type": "single-audio", "word": "human", "stimulus": "/static/audio/wordpool/HUMAN.wav", "conditions": [18, 1200, "a", 18000], "internal_node_id": "0.0-25.0", "trial": 0, "time_elapsed": 289969, "serialpos": 13, "key_press": -1, "wordID": 725, "type": "PRES_AUD", "trial_index": 34}, "uniqueid": "MTK1428:30ZX6P7VF92IEKPCATDOXOSG0JK2JV", "dateTime": 1515880779123}, {"current_trial": 35, "trialdata": {"rt": -1000, "trial_type": "single-audio", "word": "raft", "stimulus": "/static/audio/wordpool/RAFT.wav", "conditions": [18, 1200, "a", 18000], "internal_node_id": "0.0-26.0", "trial": 0, "time_elapsed": 292088, "serialpos": 14, "key_press": -1, "wordID": 1158, "type": "PRES_AUD", "trial_index": 35}, "uniqueid": "MTK1428:30ZX6P7VF92IEKPCATDOXOSG0JK2JV", "dateTime": 1515880781242}, {"current_trial": 36, "trialdata": {"rt": -1000, "trial_type": "single-audio", "word": "hamper", "stimulus": "/static/audio/wordpool/HAMPER.wav", "conditions": [18, 1200, "a", 18000], "internal_node_id": "0.0-27.0", "trial": 0, "time_elapsed": 294213, "serialpos": 15, "key_press": -1, "wordID": 681, "type": "PRES_AUD", "trial_index": 36}, "uniqueid": "MTK1428:30ZX6P7VF92IEKPCATDOXOSG0JK2JV", "dateTime": 1515880783367}, {"current_trial": 37, "trialdata": {"rt": -1000, "trial_type": "single-audio", "word": "guitar", "stimulus": "/static/audio/wordpool/GUITAR.wav", "conditions": [18, 1200, "a", 18000], "internal_node_id": "0.0-28.0", "trial": 0, "time_elapsed": 296395, "serialpos": 16, "key_press": -1, "wordID": 669, "type": "PRES_AUD", "trial_index": 37}, "uniqueid": "MTK1428:30ZX6P7VF92IEKPCATDOXOSG0JK2JV", "dateTime": 1515880785549}, {"current_trial": 38, "trialdata": {"rt": -1000, "trial_type": "single-audio", "word": "patient", "stimulus": "/static/audio/wordpool/PATIENT.wav", "conditions": [18, 1200, "a", 18000], "internal_node_id": "0.0-29.0", "trial": 0, "time_elapsed": 298630, "serialpos": 17, "key_press": -1, "wordID": 1023, "type": "PRES_AUD", "trial_index": 38}, "uniqueid": "MTK1428:30ZX6P7VF92IEKPCATDOXOSG0JK2JV", "dateTime": 1515880787784}, {"current_trial": 39, "trialdata": {"rt": -1, "trial_type": "single-stim", "stimulus": "", "internal_node_id": "0.0-30.0-0.0", "time_elapsed": 299904, "key_press": -1, "type": "PRE_RECALL_DELAY", "trial_index": 39}, "uniqueid": "MTK1428:30ZX6P7VF92IEKPCATDOXOSG0JK2JV", "dateTime": 1515880789058}, {"current_trial": 40, "trialdata": {"rt": -1000, "trial_type": "single-audio", "stimulus": "/static/audio/400Hz.wav", "internal_node_id": "0.0-31.0", "time_elapsed": 300405, "key_press": -1, "type": "PRE_RECALL_ALERT", "trial_index": 40}, "uniqueid": "MTK1428:30ZX6P7VF92IEKPCATDOXOSG0JK2JV", "dateTime": 1515880789559}, {"current_trial": 41, "trialdata": {"rt": [2168, 3973, 5090, 7405, 15033, 31832], "recwords": ["hamper", "guitar", "patient", "cashier", "kite", "nurse"], "key_times": [1195, 1300, 1401, 1540, 1848, 1999, 2168, 2639, 2945, 3164, 3358, 3434, 3603, 3707, 3833, 3973, 4214, 4342, 4464, 4608, 4693, 4752, 4915, 5090, 6690, 6862, 6944, 7031, 7094, 7198, 7334, 7405, 10476, 11900, 12099, 12244, 13010, 13176, 13464, 14728, 15033, 23671, 23827, 23936, 24151, 24557, 25057, 25143, 25226, 25309, 25394, 25477, 25562, 27717, 28671, 31191, 31279, 31379, 31564, 31732, 31832], "trial_type": "free-recall", "conditions": [18, 1200, "a", 18000], "internal_node_id": "0.0-32.0-0.0", "key_presses": [72, 65, 77, 80, 69, 82, 13, 67, 8, 71, 85, 73, 84, 65, 82, 13, 80, 65, 84, 73, 69, 78, 84, 13, 67, 65, 83, 72, 73, 69, 82, 13, 75, 8, 8, 8, 75, 73, 84, 69, 13, 78, 85, 82, 83, 8, 8, 8, 8, 8, 8, 8, 8, 79, 8, 78, 85, 82, 83, 69, 13], "trial": 0, "time_elapsed": 360412, "type": "FREE_RECALL", "trial_index": 41}, "uniqueid": "MTK1428:30ZX6P7VF92IEKPCATDOXOSG0JK2JV", "dateTime": 1515880849568}, {"current_trial": 42, "trialdata": {"rt": 2241, "trial_type": "text", "internal_node_id": "0.0-33.0", "time_elapsed": 364661, "key_press": 74, "type": "INSTRUCTIONS", "trial_index": 42}, "uniqueid": "MTK1428:30ZX6P7VF92IEKPCATDOXOSG0JK2JV", "dateTime": 1515880853815}, {"current_trial": 43, "trialdata": {"rt": [3943, 6357, 8201, 11377, 12774, 16072], "trial_type": "math-distractor", "key_times": [3696, 3770, 3943, 6099, 6219, 6357, 7983, 8051, 8201, 11117, 11262, 11377, 12496, 12636, 12774, 15581, 15913, 16072, 17977], "responses": ["15", "16", "16", "13", "18", "18"], "num2": [9, 4, 4, 2, 9, 7, 7], "num3": [1, 7, 6, 5, 8, 2, 5], "conditions": [18, 1200, "a", 18000], "internal_node_id": "0.0-34.0", "key_presses": [49, 53, 13, 49, 54, 13, 49, 54, 13, 49, 51, 13, 49, 56, 13, 49, 56, 13, 49], "trial": 1, "time_elapsed": 384666, "type": "DISTRACTOR", "trial_index": 43, "num1": [5, 5, 6, 6, 1, 9, 5]}, "uniqueid": "MTK1428:30ZX6P7VF92IEKPCATDOXOSG0JK2JV", "dateTime": 1515880873820}, {"current_trial": 44, "trialdata": {"rt": -1, "trial_type": "single-stim", "stimulus": "<p id=\"stim\">10</p>", "internal_node_id": "0.0-35.0-0.0", "time_elapsed": 387673, "key_press": -1, "trial_index": 44}, "uniqueid": "MTK1428:30ZX6P7VF92IEKPCATDOXOSG0JK2JV", "dateTime": 1515880876827}, {"current_trial": 45, "trialdata": {"rt": -1, "trial_type": "single-stim", "stimulus": "<p id=\"stim\">9</p>", "internal_node_id": "0.0-35.0-1.0", "time_elapsed": 388677, "key_press": -1, "trial_index": 45}, "uniqueid": "MTK1428:30ZX6P7VF92IEKPCATDOXOSG0JK2JV", "dateTime": 1515880877831}, {"current_trial": 46, "trialdata": {"rt": -1, "trial_type": "single-stim", "stimulus": "<p id=\"stim\">8</p>", "internal_node_id": "0.0-35.0-2.0", "time_elapsed": 389682, "key_press": -1, "trial_index": 46}, "uniqueid": "MTK1428:30ZX6P7VF92IEKPCATDOXOSG0JK2JV", "dateTime": 1515880878836}, {"current_trial": 47, "trialdata": {"rt": -1, "trial_type": "single-stim", "stimulus": "<p id=\"stim\">7</p>", "internal_node_id": "0.0-35.0-3.0", "time_elapsed": 390686, "key_press": -1, "trial_index": 47}, "uniqueid": "MTK1428:30ZX6P7VF92IEKPCATDOXOSG0JK2JV", "dateTime": 1515880879840}, {"current_trial": 48, "trialdata": {"rt": -1, "trial_type": "single-stim", "stimulus": "<p id=\"stim\">6</p>", "internal_node_id": "0.0-35.0-4.0", "time_elapsed": 391690, "key_press": -1, "trial_index": 48}, "uniqueid": "MTK1428:30ZX6P7VF92IEKPCATDOXOSG0JK2JV", "dateTime": 1515880880844}, {"current_trial": 49, "trialdata": {"rt": -1, "trial_type": "single-stim", "stimulus": "<p id=\"stim\">5</p>", "internal_node_id": "0.0-35.0-5.0", "time_elapsed": 392694, "key_press": -1, "trial_index": 49}, "uniqueid": "MTK1428:30ZX6P7VF92IEKPCATDOXOSG0JK2JV", "dateTime": 1515880881848}, {"current_trial": 50, "trialdata": {"rt": -1, "trial_type": "single-stim", "stimulus": "<p id=\"stim\">4</p>", "internal_node_id": "0.0-35.0-6.0", "time_elapsed": 393698, "key_press": -1, "trial_index": 50}, "uniqueid": "MTK1428:30ZX6P7VF92IEKPCATDOXOSG0JK2JV", "dateTime": 1515880882852}, {"current_trial": 51, "trialdata": {"rt": -1, "trial_type": "single-stim", "stimulus": "<p id=\"stim\">3</p>", "internal_node_id": "0.0-35.0-7.0", "time_elapsed": 394702, "key_press": -1, "trial_index": 51}, "uniqueid": "MTK1428:30ZX6P7VF92IEKPCATDOXOSG0JK2JV", "dateTime": 1515880883856}, {"current_trial": 52, "trialdata": {"rt": -1, "trial_type": "single-stim", "stimulus": "<p id=\"stim\">2</p>", "internal_node_id": "0.0-35.0-8.0", "time_elapsed": 395706, "key_press": -1, "trial_index": 52}, "uniqueid": "MTK1428:30ZX6P7VF92IEKPCATDOXOSG0JK2JV", "dateTime": 1515880884860}, {"current_trial": 53, "trialdata": {"rt": -1, "trial_type": "single-stim", "stimulus": "<p id=\"stim\">1</p>", "internal_node_id": "0.0-35.0-9.0", "time_elapsed": 396710, "key_press": -1, "trial_index": 53}, "uniqueid": "MTK1428:30ZX6P7VF92IEKPCATDOXOSG0JK2JV", "dateTime": 1515880885864}, {"current_trial": 54, "trialdata": {"rt": -1, "trial_type": "single-stim", "stimulus": "<p id=\"stim\">+</p>", "internal_node_id": "0.0-36.0-0.0", "time_elapsed": 398214, "key_press": -1, "type": "FIXATION", "trial_index": 54}, "uniqueid": "MTK1428:30ZX6P7VF92IEKPCATDOXOSG0JK2JV", "dateTime": 1515880887368}, {"current_trial": 55, "trialdata": {"rt": -1000, "trial_type": "single-audio", "word": "robber", "stimulus": "/static/audio/wordpool/ROBBER.wav", "conditions": [18, 1200, "a", 18000], "internal_node_id": "0.0-37.0", "trial": 1, "time_elapsed": 400434, "serialpos": 0, "key_press": -1, "wordID": 1196, "type": "PRES_AUD", "trial_index": 55}, "uniqueid": "MTK1428:30ZX6P7VF92IEKPCATDOXOSG0JK2JV", "dateTime": 1515880889588}, {"current_trial": 56, "trialdata": {"rt": -1000, "trial_type": "single-audio", "word": "iceberg", "stimulus": "/static/audio/wordpool/ICEBERG.wav", "conditions": [18, 1200, "a", 18000], "internal_node_id": "0.0-38.0", "trial": 1, "time_elapsed": 402809, "serialpos": 1, "key_press": -1, "wordID": 730, "type": "PRES_AUD", "trial_index": 56}, "uniqueid": "MTK1428:30ZX6P7VF92IEKPCATDOXOSG0JK2JV", "dateTime": 1515880891963}, {"current_trial": 57, "trialdata": {"rt": -1000, "trial_type": "single-audio", "word": "cocoon", "stimulus": "/static/audio/wordpool/COCOON.wav", "conditions": [18, 1200, "a", 18000], "internal_node_id": "0.0-39.0", "trial": 1, "time_elapsed": 404992, "serialpos": 2, "key_press": -1, "wordID": 338, "type": "PRES_AUD", "trial_index": 57}, "uniqueid": "MTK1428:30ZX6P7VF92IEKPCATDOXOSG0JK2JV", "dateTime": 1515880894146}, {"current_trial": 58, "trialdata": {"rt": -1000, "trial_type": "single-audio", "word": "rust", "stimulus": "/static/audio/wordpool/RUST.wav", "conditions": [18, 1200, "a", 18000], "internal_node_id": "0.0-40.0", "trial": 1, "time_elapsed": 407226, "serialpos": 3, "key_press": -1, "wordID": 1218, "type": "PRES_AUD", "trial_index": 58}, "uniqueid": "MTK1428:30ZX6P7VF92IEKPCATDOXOSG0JK2JV", "dateTime": 1515880896380}, {"current_trial": 59, "trialdata": {"rt": -1000, "trial_type": "single-audio", "word": "flipper", "stimulus": "/static/audio/wordpool/FLIPPER.wav", "conditions": [18, 1200, "a", 18000], "internal_node_id": "0.0-41.0", "trial": 1, "time_elapsed": 409390, "serialpos": 4, "key_press": -1, "wordID": 579, "type": "PRES_AUD", "trial_index": 59}, "uniqueid": "MTK1428:30ZX6P7VF92IEKPCATDOXOSG0JK2JV", "dateTime": 1515880898544}, {"current_trial": 60, "trialdata": {"rt": -1000, "trial_type": "single-audio", "word": "airplane", "stimulus": "/static/audio/wordpool/AIRPLANE.wav", "conditions": [18, 1200, "a", 18000], "internal_node_id": "0.0-42.0", "trial": 1, "time_elapsed": 411569, "serialpos": 5, "key_press": -1, "wordID": 11, "type": "PRES_AUD", "trial_index": 60}, "uniqueid": "MTK1428:30ZX6P7VF92IEKPCATDOXOSG0JK2JV", "dateTime": 1515880900723}, {"current_trial": 61, "trialdata": {"rt": -1000, "trial_type": "single-audio", "word": "banquet", "stimulus": "/static/audio/wordpool/BANQUET.wav", "conditions": [18, 1200, "a", 18000], "internal_node_id": "0.0-43.0", "trial": 1, "time_elapsed": 413937, "serialpos": 6, "key_press": -1, "wordID": 85, "type": "PRES_AUD", "trial_index": 61}, "uniqueid": "MTK1428:30ZX6P7VF92IEKPCATDOXOSG0JK2JV", "dateTime": 1515880903091}, {"current_trial": 62, "trialdata": {"rt": -1000, "trial_type": "single-audio", "word": "shrub", "stimulus": "/static/audio/wordpool/SHRUB.wav", "conditions": [18, 1200, "a", 18000], "internal_node_id": "0.0-44.0", "trial": 1, "time_elapsed": 415986, "serialpos": 7, "key_press": -1, "wordID": 1298, "type": "PRES_AUD", "trial_index": 62}, "uniqueid": "MTK1428:30ZX6P7VF92IEKPCATDOXOSG0JK2JV", "dateTime": 1515880905140}, {"current_trial": 63, "trialdata": {"rt": -1000, "trial_type": "single-audio", "word": "leopard", "stimulus": "/static/audio/wordpool/LEOPARD.wav", "conditions": [18, 1200, "a", 18000], "internal_node_id": "0.0-45.0", "trial": 1, "time_elapsed": 418163, "serialpos": 8, "key_press": -1, "wordID": 811, "type": "PRES_AUD", "trial_index": 63}, "uniqueid": "MTK1428:30ZX6P7VF92IEKPCATDOXOSG0JK2JV", "dateTime": 1515880907317}, {"current_trial": 64, "trialdata": {"rt": -1000, "trial_type": "single-audio", "word": "casket", "stimulus": "/static/audio/wordpool/CASKET.wav", "conditions": [18, 1200, "a", 18000], "internal_node_id": "0.0-46.0", "trial": 1, "time_elapsed": 420328, "serialpos": 9, "key_press": -1, "wordID": 254, "type": "PRES_AUD", "trial_index": 64}, "uniqueid": "MTK1428:30ZX6P7VF92IEKPCATDOXOSG0JK2JV", "dateTime": 1515880909482}, {"current_trial": 65, "trialdata": {"rt": -1000, "trial_type": "single-audio", "word": "couch", "stimulus": "/static/audio/wordpool/COUCH.wav", "conditions": [18, 1200, "a", 18000], "internal_node_id": "0.0-47.0", "trial": 1, "time_elapsed": 422457, "serialpos": 10, "key_press": -1, "wordID": 385, "type": "PRES_AUD", "trial_index": 65}, "uniqueid": "MTK1428:30ZX6P7VF92IEKPCATDOXOSG0JK2JV", "dateTime": 1515880911611}, {"current_trial": 66, "trialdata": {"rt": -1000, "trial_type": "single-audio", "word": "portrait", "stimulus": "/static/audio/wordpool/PORTRAIT.wav", "conditions": [18, 1200, "a", 18000], "internal_node_id": "0.0-48.0", "trial": 1, "time_elapsed": 424524, "serialpos": 11, "key_press": -1, "wordID": 1110, "type": "PRES_AUD", "trial_index": 66}, "uniqueid": "MTK1428:30ZX6P7VF92IEKPCATDOXOSG0JK2JV", "dateTime": 1515880913678}, {"current_trial": 67, "trialdata": {"rt": -1000, "trial_type": "single-audio", "word": "champagne", "stimulus": "/static/audio/wordpool/CHAMPAGNE.wav", "conditions": [18, 1200, "a", 18000], "internal_node_id": "0.0-49.0", "trial": 1, "time_elapsed": 426575, "serialpos": 12, "key_press": -1, "wordID": 277, "type": "PRES_AUD", "trial_index": 67}, "uniqueid": "MTK1428:30ZX6P7VF92IEKPCATDOXOSG0JK2JV", "dateTime": 1515880915729}, {"current_trial": 68, "trialdata": {"rt": -1000, "trial_type": "single-audio", "word": "tablet", "stimulus": "/static/audio/wordpool/TABLET.wav", "conditions": [18, 1200, "a", 18000], "internal_node_id": "0.0-50.0", "trial": 1, "time_elapsed": 428893, "serialpos": 13, "key_press": -1, "wordID": 1426, "type": "PRES_AUD", "trial_index": 68}, "uniqueid": "MTK1428:30ZX6P7VF92IEKPCATDOXOSG0JK2JV", "dateTime": 1515880918049}, {"current_trial": 69, "trialdata": {"rt": -1000, "trial_type": "single-audio", "word": "girl", "stimulus": "/static/audio/wordpool/GIRL.wav", "conditions": [18, 1200, "a", 18000], "internal_node_id": "0.0-51.0", "trial": 1, "time_elapsed": 431254, "serialpos": 14, "key_press": -1, "wordID": 636, "type": "PRES_AUD", "trial_index": 69}, "uniqueid": "MTK1428:30ZX6P7VF92IEKPCATDOXOSG0JK2JV", "dateTime": 1515880920408}, {"current_trial": 70, "trialdata": {"rt": -1000, "trial_type": "single-audio", "word": "bison", "stimulus": "/static/audio/wordpool/BISON.wav", "conditions": [18, 1200, "a", 18000], "internal_node_id": "0.0-52.0", "trial": 1, "time_elapsed": 433419, "serialpos": 15, "key_press": -1, "wordID": 130, "type": "PRES_AUD", "trial_index": 70}, "uniqueid": "MTK1428:30ZX6P7VF92IEKPCATDOXOSG0JK2JV", "dateTime": 1515880922573}, {"current_trial": 71, "trialdata": {"rt": -1000, "trial_type": "single-audio", "word": "basement", "stimulus": "/static/audio/wordpool/BASEMENT.wav", "conditions": [18, 1200, "a", 18000], "internal_node_id": "0.0-53.0", "trial": 1, "time_elapsed": 435764, "serialpos": 16, "key_press": -1, "wordID": 93, "type": "PRES_AUD", "trial_index": 71}, "uniqueid": "MTK1428:30ZX6P7VF92IEKPCATDOXOSG0JK2JV", "dateTime": 1515880924919}, {"current_trial": 72, "trialdata": {"rt": -1000, "trial_type": "single-audio", "word": "spoon", "stimulus": "/static/audio/wordpool/SPOON.wav", "conditions": [18, 1200, "a", 18000], "internal_node_id": "0.0-54.0", "trial": 1, "time_elapsed": 438121, "serialpos": 17, "key_press": -1, "wordID": 1356, "type": "PRES_AUD", "trial_index": 72}, "uniqueid": "MTK1428:30ZX6P7VF92IEKPCATDOXOSG0JK2JV", "dateTime": 1515880927275}, {"current_trial": 73, "trialdata": {"rt": -1, "trial_type": "single-stim", "stimulus": "", "internal_node_id": "0.0-55.0-0.0", "time_elapsed": 439387, "key_press": -1, "type": "PRE_RECALL_DELAY", "trial_index": 73}, "uniqueid": "MTK1428:30ZX6P7VF92IEKPCATDOXOSG0JK2JV", "dateTime": 1515880928541}, {"current_trial": 74, "trialdata": {"rt": -1000, "trial_type": "single-audio", "stimulus": "/static/audio/400Hz.wav", "internal_node_id": "0.0-56.0", "time_elapsed": 439888, "key_press": -1, "type": "PRE_RECALL_ALERT", "trial_index": 74}, "uniqueid": "MTK1428:30ZX6P7VF92IEKPCATDOXOSG0JK2JV", "dateTime": 1515880929042}, {"current_trial": 75, "trialdata": {"rt": [2065, 3387, 4544, 5931, 13010, 23060, 25298, 43952], "recwords": ["girl", "basement", "spoon", "iceburg", "shrub", "basement", "girl", "leapord"], "key_times": [663, 805, 895, 1058, 2065, 2474, 2546, 2611, 2805, 2881, 2983, 3047, 3243, 3387, 3824, 3924, 4000, 4154, 4347, 4544, 5019, 5151, 5334, 5438, 5549, 5651, 5755, 5931, 12434, 12509, 12614, 12714, 12839, 13010, 21290, 22092, 22192, 22388, 22483, 22613, 22668, 22883, 23060, 24833, 25002, 25050, 25182, 25298, 34297, 34480, 34595, 34757, 34829, 35285, 35439, 35573, 35768, 35852, 36019, 36613, 36954, 37286, 37452, 37679, 37857, 38033, 38137, 38403, 38622, 40915, 41082, 41226, 41384, 41546, 42887, 43007, 43083, 43204, 43383, 43952], "trial_type": "free-recall", "conditions": [18, 1200, "a", 18000], "internal_node_id": "0.0-57.0-0.0", "key_presses": [71, 73, 82, 76, 13, 66, 65, 83, 69, 77, 69, 78, 84, 13, 83, 80, 79, 79, 78, 13, 73, 67, 69, 66, 85, 82, 71, 13, 83, 72, 82, 85, 66, 13, 66, 65, 83, 69, 77, 69, 78, 84, 13, 71, 73, 82, 76, 13, 76, 69, 65, 80, 79, 8, 8, 8, 80, 79, 82, 68, 8, 8, 8, 8, 65, 80, 79, 82, 68, 8, 8, 8, 8, 8, 65, 80, 79, 82, 68, 13], "trial": 1, "time_elapsed": 499892, "type": "FREE_RECALL", "trial_index": 75}, "uniqueid": "MTK1428:30ZX6P7VF92IEKPCATDOXOSG0JK2JV", "dateTime": 1515880989048}, {"current_trial": 76, "trialdata": {"rt": 3173, "trial_type": "text", "internal_node_id": "0.0-58.0", "time_elapsed": 505073, "key_press": 78, "type": "INSTRUCTIONS", "trial_index": 76}, "uniqueid": "MTK1428:30ZX6P7VF92IEKPCATDOXOSG0JK2JV", "dateTime": 1515880994227}, {"current_trial": 77, "trialdata": {"rt": [2684, 4619, 7052, 9732, 11842], "trial_type": "math-distractor", "key_times": [2367, 2540, 2684, 4483, 4619, 6848, 6960, 7052, 9528, 9598, 9732, 11519, 11679, 11842], "responses": ["18", "9", "12", "21", "13"], "num2": [6, 4, 2, 9, 1, 6], "num3": [3, 1, 4, 7, 7, 7], "conditions": [12, 1600, "a", 12000], "internal_node_id": "0.0-59.0", "key_presses": [49, 56, 13, 57, 13, 49, 50, 13, 50, 49, 13, 49, 51, 13], "trial": 2, "time_elapsed": 518081, "type": "DISTRACTOR", "trial_index": 77, "num1": [9, 4, 6, 6, 5, 7]}, "uniqueid": "MTK1428:30ZX6P7VF92IEKPCATDOXOSG0JK2JV", "dateTime": 1515881007235}, {"current_trial": 78, "trialdata": {"rt": -1, "trial_type": "single-stim", "stimulus": "<p id=\"stim\">10</p>", "internal_node_id": "0.0-60.0-0.0", "time_elapsed": 521087, "key_press": -1, "trial_index": 78}, "uniqueid": "MTK1428:30ZX6P7VF92IEKPCATDOXOSG0JK2JV", "dateTime": 1515881010241}, {"current_trial": 79, "trialdata": {"rt": -1, "trial_type": "single-stim", "stimulus": "<p id=\"stim\">9</p>", "internal_node_id": "0.0-60.0-1.0", "time_elapsed": 522091, "key_press": -1, "trial_index": 79}, "uniqueid": "MTK1428:30ZX6P7VF92IEKPCATDOXOSG0JK2JV", "dateTime": 1515881011246}, {"current_trial": 80, "trialdata": {"rt": -1, "trial_type": "single-stim", "stimulus": "<p id=\"stim\">8</p>", "internal_node_id": "0.0-60.0-2.0", "time_elapsed": 523095, "key_press": -1, "trial_index": 80}, "uniqueid": "MTK1428:30ZX6P7VF92IEKPCATDOXOSG0JK2JV", "dateTime": 1515881012250}, {"current_trial": 81, "trialdata": {"rt": -1, "trial_type": "single-stim", "stimulus": "<p id=\"stim\">7</p>", "internal_node_id": "0.0-60.0-3.0", "time_elapsed": 524099, "key_press": -1, "trial_index": 81}, "uniqueid": "MTK1428:30ZX6P7VF92IEKPCATDOXOSG0JK2JV", "dateTime": 1515881013254}, {"current_trial": 82, "trialdata": {"rt": -1, "trial_type": "single-stim", "stimulus": "<p id=\"stim\">6</p>", "internal_node_id": "0.0-60.0-4.0", "time_elapsed": 525104, "key_press": -1, "trial_index": 82}, "uniqueid": "MTK1428:30ZX6P7VF92IEKPCATDOXOSG0JK2JV", "dateTime": 1515881014258}, {"current_trial": 83, "trialdata": {"rt": -1, "trial_type": "single-stim", "stimulus": "<p id=\"stim\">5</p>", "internal_node_id": "0.0-60.0-5.0", "time_elapsed": 526108, "key_press": -1, "trial_index": 83}, "uniqueid": "MTK1428:30ZX6P7VF92IEKPCATDOXOSG0JK2JV", "dateTime": 1515881015262}, {"current_trial": 84, "trialdata": {"rt": -1, "trial_type": "single-stim", "stimulus": "<p id=\"stim\">4</p>", "internal_node_id": "0.0-60.0-6.0", "time_elapsed": 527112, "key_press": -1, "trial_index": 84}, "uniqueid": "MTK1428:30ZX6P7VF92IEKPCATDOXOSG0JK2JV", "dateTime": 1515881016266}, {"current_trial": 85, "trialdata": {"rt": -1, "trial_type": "single-stim", "stimulus": "<p id=\"stim\">3</p>", "internal_node_id": "0.0-60.0-7.0", "time_elapsed": 528116, "key_press": -1, "trial_index": 85}, "uniqueid": "MTK1428:30ZX6P7VF92IEKPCATDOXOSG0JK2JV", "dateTime": 1515881017270}, {"current_trial": 86, "trialdata": {"rt": -1, "trial_type": "single-stim", "stimulus": "<p id=\"stim\">2</p>", "internal_node_id": "0.0-60.0-8.0", "time_elapsed": 529120, "key_press": -1, "trial_index": 86}, "uniqueid": "MTK1428:30ZX6P7VF92IEKPCATDOXOSG0JK2JV", "dateTime": 1515881018274}, {"current_trial": 87, "trialdata": {"rt": -1, "trial_type": "single-stim", "stimulus": "<p id=\"stim\">1</p>", "internal_node_id": "0.0-60.0-9.0", "time_elapsed": 530124, "key_press": -1, "trial_index": 87}, "uniqueid": "MTK1428:30ZX6P7VF92IEKPCATDOXOSG0JK2JV", "dateTime": 1515881019278}, {"current_trial": 88, "trialdata": {"rt": -1, "trial_type": "single-stim", "stimulus": "<p id=\"stim\">+</p>", "internal_node_id": "0.0-61.0-0.0", "time_elapsed": 531628, "key_press": -1, "type": "FIXATION", "trial_index": 88}, "uniqueid": "MTK1428:30ZX6P7VF92IEKPCATDOXOSG0JK2JV", "dateTime": 1515881020782}, {"current_trial": 89, "trialdata": {"rt": -1000, "trial_type": "single-audio", "word": "slug", "stimulus": "/static/audio/wordpool/SLUG.wav", "conditions": [12, 1600, "a", 12000], "internal_node_id": "0.0-62.0", "trial": 2, "time_elapsed": 534254, "serialpos": 0, "key_press": -1, "wordID": 1328, "type": "PRES_AUD", "trial_index": 89}, "uniqueid": "MTK1428:30ZX6P7VF92IEKPCATDOXOSG0JK2JV", "dateTime": 1515881023408}, {"current_trial": 90, "trialdata": {"rt": -1000, "trial_type": "single-audio", "word": "briefcase", "stimulus": "/static/audio/wordpool/BRIEFCASE.wav", "conditions": [12, 1600, "a", 12000], "internal_node_id": "0.0-63.0", "trial": 2, "time_elapsed": 536989, "serialpos": 1, "key_press": -1, "wordID": 174, "type": "PRES_AUD", "trial_index": 90}, "uniqueid": "MTK1428:30ZX6P7VF92IEKPCATDOXOSG0JK2JV", "dateTime": 1515881026143}, {"current_trial": 91, "trialdata": {"rt": -1000, "trial_type": "single-audio", "word": "flute", "stimulus": "/static/audio/wordpool/FLUTE.wav", "conditions": [12, 1600, "a", 12000], "internal_node_id": "0.0-64.0", "trial": 2, "time_elapsed": 539502, "serialpos": 2, "key_press": -1, "wordID": 584, "type": "PRES_AUD", "trial_index": 91}, "uniqueid": "MTK1428:30ZX6P7VF92IEKPCATDOXOSG0JK2JV", "dateTime": 1515881028656}, {"current_trial": 92, "trialdata": {"rt": -1000, "trial_type": "single-audio", "word": "harp", "stimulus": "/static/audio/wordpool/HARP.wav", "conditions": [12, 1600, "a", 12000], "internal_node_id": "0.0-65.0", "trial": 2, "time_elapsed": 542158, "serialpos": 3, "key_press": -1, "wordID": 688, "type": "PRES_AUD", "trial_index": 92}, "uniqueid": "MTK1428:30ZX6P7VF92IEKPCATDOXOSG0JK2JV", "dateTime": 1515881031312}, {"current_trial": 93, "trialdata": {"rt": -1000, "trial_type": "single-audio", "word": "doughnut", "stimulus": "/static/audio/wordpool/DOUGHNUT.wav", "conditions": [12, 1600, "a", 12000], "internal_node_id": "0.0-66.0", "trial": 2, "time_elapsed": 544595, "serialpos": 4, "key_press": -1, "wordID": 489, "type": "PRES_AUD", "trial_index": 93}, "uniqueid": "MTK1428:30ZX6P7VF92IEKPCATDOXOSG0JK2JV", "dateTime": 1515881033750}, {"current_trial": 94, "trialdata": {"rt": -1000, "trial_type": "single-audio", "word": "penguin", "stimulus": "/static/audio/wordpool/PENGUIN.wav", "conditions": [12, 1600, "a", 12000], "internal_node_id": "0.0-67.0", "trial": 2, "time_elapsed": 547201, "serialpos": 5, "key_press": -1, "wordID": 1043, "type": "PRES_AUD", "trial_index": 94}, "uniqueid": "MTK1428:30ZX6P7VF92IEKPCATDOXOSG0JK2JV", "dateTime": 1515881036355}, {"current_trial": 95, "trialdata": {"rt": -1000, "trial_type": "single-audio", "word": "spider", "stimulus": "/static/audio/wordpool/SPIDER.wav", "conditions": [12, 1600, "a", 12000], "internal_node_id": "0.0-68.0", "trial": 2, "time_elapsed": 549690, "serialpos": 6, "key_press": -1, "wordID": 1350, "type": "PRES_AUD", "trial_index": 95}, "uniqueid": "MTK1428:30ZX6P7VF92IEKPCATDOXOSG0JK2JV", "dateTime": 1515881038844}, {"current_trial": 96, "trialdata": {"rt": -1000, "trial_type": "single-audio", "word": "hawk", "stimulus": "/static/audio/wordpool/HAWK.wav", "conditions": [12, 1600, "a", 12000], "internal_node_id": "0.0-69.0", "trial": 2, "time_elapsed": 552477, "serialpos": 7, "key_press": -1, "wordID": 691, "type": "PRES_AUD", "trial_index": 96}, "uniqueid": "MTK1428:30ZX6P7VF92IEKPCATDOXOSG0JK2JV", "dateTime": 1515881041631}, {"current_trial": 97, "trialdata": {"rt": -1000, "trial_type": "single-audio", "word": "bunny", "stimulus": "/static/audio/wordpool/BUNNY.wav", "conditions": [12, 1600, "a", 12000], "internal_node_id": "0.0-70.0", "trial": 2, "time_elapsed": 555124, "serialpos": 8, "key_press": -1, "wordID": 197, "type": "PRES_AUD", "trial_index": 97}, "uniqueid": "MTK1428:30ZX6P7VF92IEKPCATDOXOSG0JK2JV", "dateTime": 1515881044278}, {"current_trial": 98, "trialdata": {"rt": -1000, "trial_type": "single-audio", "word": "custard", "stimulus": "/static/audio/wordpool/CUSTARD.wav", "conditions": [12, 1600, "a", 12000], "internal_node_id": "0.0-71.0", "trial": 2, "time_elapsed": 557557, "serialpos": 9, "key_press": -1, "wordID": 428, "type": "PRES_AUD", "trial_index": 98}, "uniqueid": "MTK1428:30ZX6P7VF92IEKPCATDOXOSG0JK2JV", "dateTime": 1515881046711}, {"current_trial": 99, "trialdata": {"rt": -1000, "trial_type": "single-audio", "word": "outfit", "stimulus": "/static/audio/wordpool/OUTFIT.wav", "conditions": [12, 1600, "a", 12000], "internal_node_id": "0.0-72.0", "trial": 2, "time_elapsed": 560042, "serialpos": 10, "key_press": -1, "wordID": 987, "type": "PRES_AUD", "trial_index": 99}, "uniqueid": "MTK1428:30ZX6P7VF92IEKPCATDOXOSG0JK2JV", "dateTime": 1515881049197}, {"current_trial": 100, "trialdata": {"rt": -1000, "trial_type": "single-audio", "word": "asia", "stimulus": "/static/audio/wordpool/ASIA.wav", "conditions": [12, 1600, "a", 12000], "internal_node_id": "0.0-73.0", "trial": 2, "time_elapsed": 562524, "serialpos": 11, "key_press": -1, "wordID": 45, "type": "PRES_AUD", "trial_index": 100}, "uniqueid": "MTK1428:30ZX6P7VF92IEKPCATDOXOSG0JK2JV", "dateTime": 1515881051678}, {"current_trial": 101, "trialdata": {"rt": -1, "trial_type": "single-stim", "stimulus": "", "internal_node_id": "0.0-74.0-0.0", "time_elapsed": 563867, "key_press": -1, "type": "PRE_RECALL_DELAY", "trial_index": 101}, "uniqueid": "MTK1428:30ZX6P7VF92IEKPCATDOXOSG0JK2JV", "dateTime": 1515881053021}, {"current_trial": 102, "trialdata": {"rt": -1000, "trial_type": "single-audio", "stimulus": "/static/audio/400Hz.wav", "internal_node_id": "0.0-75.0", "time_elapsed": 564368, "key_press": -1, "type": "PRE_RECALL_ALERT", "trial_index": 102}, "uniqueid": "MTK1428:30ZX6P7VF92IEKPCATDOXOSG0JK2JV", "dateTime": 1515881053522}, {"current_trial": 103, "trialdata": {"rt": [1949, 4796, 5820, 7905, 8852, 13944], "recwords": ["asia", "custard", "bunny", "briefcase", "asia", "slug"], "key_times": [1514, 1597, 1717, 1833, 1949, 2384, 2627, 2933, 3119, 3231, 3351, 3437, 3858, 3993, 4280, 4378, 4536, 4710, 4796, 5068, 5169, 5343, 5466, 5601, 5820, 6154, 6366, 6454, 6685, 6929, 7284, 7458, 7548, 7768, 7905, 8428, 8556, 8646, 8756, 8852, 13026, 13080, 13468, 13639, 13944], "trial_type": "free-recall", "conditions": [12, 1600, "a", 12000], "internal_node_id": "0.0-76.0-0.0", "key_presses": [65, 83, 73, 65, 13, 67, 83, 8, 85, 83, 82, 65, 8, 8, 84, 65, 82, 68, 13, 66, 85, 78, 78, 89, 13, 66, 82, 73, 69, 70, 67, 65, 83, 69, 13, 65, 83, 73, 65, 13, 83, 76, 85, 71, 13], "trial": 2, "time_elapsed": 624375, "type": "FREE_RECALL", "trial_index": 103}, "uniqueid": "MTK1428:30ZX6P7VF92IEKPCATDOXOSG0JK2JV", "dateTime": 1515881113530}, {"current_trial": 104, "trialdata": {"rt": 7194, "trial_type": "text", "internal_node_id": "0.0-77.0", "time_elapsed": 633573, "key_press": 75, "type": "INSTRUCTIONS", "trial_index": 104}, "uniqueid": "MTK1428:30ZX6P7VF92IEKPCATDOXOSG0JK2JV", "dateTime": 1515881122727}, {"current_trial": 105, "trialdata": {"rt": [4739, 6924, 8766, 11127], "trial_type": "math-distractor", "key_times": [4578, 4638, 4739, 6526, 6759, 6924, 8506, 8645, 8766, 10862, 10958, 11127], "responses": ["21", "25", "13", "10"], "num2": [6, 9, 3, 3, 6], "num3": [6, 9, 1, 2, 2], "conditions": [12, 1600, "a", 12000], "internal_node_id": "0.0-78.0", "key_presses": [50, 49, 13, 50, 53, 13, 49, 51, 13, 49, 48, 13], "trial": 3, "time_elapsed": 647581, "type": "DISTRACTOR", "trial_index": 105, "num1": [9, 7, 9, 5, 9]}, "uniqueid": "MTK1428:30ZX6P7VF92IEKPCATDOXOSG0JK2JV", "dateTime": 1515881136735}, {"current_trial": 106, "trialdata": {"rt": -1, "trial_type": "single-stim", "stimulus": "<p id=\"stim\">10</p>", "internal_node_id": "0.0-79.0-0.0", "time_elapsed": 650587, "key_press": -1, "trial_index": 106}, "uniqueid": "MTK1428:30ZX6P7VF92IEKPCATDOXOSG0JK2JV", "dateTime": 1515881139741}, {"current_trial": 107, "trialdata": {"rt": -1, "trial_type": "single-stim", "stimulus": "<p id=\"stim\">9</p>", "internal_node_id": "0.0-79.0-1.0", "time_elapsed": 651591, "key_press": -1, "trial_index": 107}, "uniqueid": "MTK1428:30ZX6P7VF92IEKPCATDOXOSG0JK2JV", "dateTime": 1515881140745}, {"current_trial": 108, "trialdata": {"rt": -1, "trial_type": "single-stim", "stimulus": "<p id=\"stim\">8</p>", "internal_node_id": "0.0-79.0-2.0", "time_elapsed": 652595, "key_press": -1, "trial_index": 108}, "uniqueid": "MTK1428:30ZX6P7VF92IEKPCATDOXOSG0JK2JV", "dateTime": 1515881141750}, {"current_trial": 109, "trialdata": {"rt": -1, "trial_type": "single-stim", "stimulus": "<p id=\"stim\">7</p>", "internal_node_id": "0.0-79.0-3.0", "time_elapsed": 653600, "key_press": -1, "trial_index": 109}, "uniqueid": "MTK1428:30ZX6P7VF92IEKPCATDOXOSG0JK2JV", "dateTime": 1515881142754}, {"current_trial": 110, "trialdata": {"rt": -1, "trial_type": "single-stim", "stimulus": "<p id=\"stim\">6</p>", "internal_node_id": "0.0-79.0-4.0", "time_elapsed": 654604, "key_press": -1, "trial_index": 110}, "uniqueid": "MTK1428:30ZX6P7VF92IEKPCATDOXOSG0JK2JV", "dateTime": 1515881143758}, {"current_trial": 111, "trialdata": {"rt": -1, "trial_type": "single-stim", "stimulus": "<p id=\"stim\">5</p>", "internal_node_id": "0.0-79.0-5.0", "time_elapsed": 655607, "key_press": -1, "trial_index": 111}, "uniqueid": "MTK1428:30ZX6P7VF92IEKPCATDOXOSG0JK2JV", "dateTime": 1515881144761}, {"current_trial": 112, "trialdata": {"rt": -1, "trial_type": "single-stim", "stimulus": "<p id=\"stim\">4</p>", "internal_node_id": "0.0-79.0-6.0", "time_elapsed": 656612, "key_press": -1, "trial_index": 112}, "uniqueid": "MTK1428:30ZX6P7VF92IEKPCATDOXOSG0JK2JV", "dateTime": 1515881145766}, {"current_trial": 113, "trialdata": {"rt": -1, "trial_type": "single-stim", "stimulus": "<p id=\"stim\">3</p>", "internal_node_id": "0.0-79.0-7.0", "time_elapsed": 657616, "key_press": -1, "trial_index": 113}, "uniqueid": "MTK1428:30ZX6P7VF92IEKPCATDOXOSG0JK2JV", "dateTime": 1515881146770}, {"current_trial": 114, "trialdata": {"rt": -1, "trial_type": "single-stim", "stimulus": "<p id=\"stim\">2</p>", "internal_node_id": "0.0-79.0-8.0", "time_elapsed": 658620, "key_press": -1, "trial_index": 114}, "uniqueid": "MTK1428:30ZX6P7VF92IEKPCATDOXOSG0JK2JV", "dateTime": 1515881147774}, {"current_trial": 115, "trialdata": {"rt": -1, "trial_type": "single-stim", "stimulus": "<p id=\"stim\">1</p>", "internal_node_id": "0.0-79.0-9.0", "time_elapsed": 659624, "key_press": -1, "trial_index": 115}, "uniqueid": "MTK1428:30ZX6P7VF92IEKPCATDOXOSG0JK2JV", "dateTime": 1515881148778}, {"current_trial": 116, "trialdata": {"rt": -1, "trial_type": "single-stim", "stimulus": "<p id=\"stim\">+</p>", "internal_node_id": "0.0-80.0-0.0", "time_elapsed": 661127, "key_press": -1, "type": "FIXATION", "trial_index": 116}, "uniqueid": "MTK1428:30ZX6P7VF92IEKPCATDOXOSG0JK2JV", "dateTime": 1515881150282}, {"current_trial": 117, "trialdata": {"rt": -1000, "trial_type": "single-audio", "word": "cousin", "stimulus": "/static/audio/wordpool/COUSIN.wav", "conditions": [12, 1600, "a", 12000], "internal_node_id": "0.0-81.0", "trial": 3, "time_elapsed": 663670, "serialpos": 0, "key_press": -1, "wordID": 391, "type": "PRES_AUD", "trial_index": 117}, "uniqueid": "MTK1428:30ZX6P7VF92IEKPCATDOXOSG0JK2JV", "dateTime": 1515881152824}, {"current_trial": 118, "trialdata": {"rt": -1000, "trial_type": "single-audio", "word": "parsley", "stimulus": "/static/audio/wordpool/PARSLEY.wav", "conditions": [12, 1600, "a", 12000], "internal_node_id": "0.0-82.0", "trial": 3, "time_elapsed": 666201, "serialpos": 1, "key_press": -1, "wordID": 1015, "type": "PRES_AUD", "trial_index": 118}, "uniqueid": "MTK1428:30ZX6P7VF92IEKPCATDOXOSG0JK2JV", "dateTime": 1515881155355}, {"current_trial": 119, "trialdata": {"rt": -1000, "trial_type": "single-audio", "word": "luggage", "stimulus": "/static/audio/wordpool/LUGGAGE.wav", "conditions": [12, 1600, "a", 12000], "internal_node_id": "0.0-83.0", "trial": 3, "time_elapsed": 668616, "serialpos": 2, "key_press": -1, "wordID": 846, "type": "PRES_AUD", "trial_index": 119}, "uniqueid": "MTK1428:30ZX6P7VF92IEKPCATDOXOSG0JK2JV", "dateTime": 1515881157770}, {"current_trial": 120, "trialdata": {"rt": -1000, "trial_type": "single-audio", "word": "canal", "stimulus": "/static/audio/wordpool/CANAL.wav", "conditions": [12, 1600, "a", 12000], "internal_node_id": "0.0-84.0", "trial": 3, "time_elapsed": 671100, "serialpos": 3, "key_press": -1, "wordID": 225, "type": "PRES_AUD", "trial_index": 120}, "uniqueid": "MTK1428:30ZX6P7VF92IEKPCATDOXOSG0JK2JV", "dateTime": 1515881160255}, {"current_trial": 121, "trialdata": {"rt": -1000, "trial_type": "single-audio", "word": "lightning", "stimulus": "/static/audio/wordpool/LIGHTNING.wav", "conditions": [12, 1600, "a", 12000], "internal_node_id": "0.0-85.0", "trial": 3, "time_elapsed": 673777, "serialpos": 4, "key_press": -1, "wordID": 819, "type": "PRES_AUD", "trial_index": 121}, "uniqueid": "MTK1428:30ZX6P7VF92IEKPCATDOXOSG0JK2JV", "dateTime": 1515881162931}, {"current_trial": 122, "trialdata": {"rt": -1000, "trial_type": "single-audio", "word": "bug", "stimulus": "/static/audio/wordpool/BUG.wav", "conditions": [12, 1600, "a", 12000], "internal_node_id": "0.0-86.0", "trial": 3, "time_elapsed": 676418, "serialpos": 5, "key_press": -1, "wordID": 186, "type": "PRES_AUD", "trial_index": 122}, "uniqueid": "MTK1428:30ZX6P7VF92IEKPCATDOXOSG0JK2JV", "dateTime": 1515881165572}, {"current_trial": 123, "trialdata": {"rt": -1000, "trial_type": "single-audio", "word": "antler", "stimulus": "/static/audio/wordpool/ANTLER.wav", "conditions": [12, 1600, "a", 12000], "internal_node_id": "0.0-87.0", "trial": 3, "time_elapsed": 678978, "serialpos": 6, "key_press": -1, "wordID": 28, "type": "PRES_AUD", "trial_index": 123}, "uniqueid": "MTK1428:30ZX6P7VF92IEKPCATDOXOSG0JK2JV", "dateTime": 1515881168132}, {"current_trial": 124, "trialdata": {"rt": -1000, "trial_type": "single-audio", "word": "pigment", "stimulus": "/static/audio/wordpool/PIGMENT.wav", "conditions": [12, 1600, "a", 12000], "internal_node_id": "0.0-88.0", "trial": 3, "time_elapsed": 681567, "serialpos": 7, "key_press": -1, "wordID": 1065, "type": "PRES_AUD", "trial_index": 124}, "uniqueid": "MTK1428:30ZX6P7VF92IEKPCATDOXOSG0JK2JV", "dateTime": 1515881170721}, {"current_trial": 125, "trialdata": {"rt": -1000, "trial_type": "single-audio", "word": "brother", "stimulus": "/static/audio/wordpool/BROTHER.wav", "conditions": [12, 1600, "a", 12000], "internal_node_id": "0.0-89.0", "trial": 3, "time_elapsed": 684197, "serialpos": 8, "key_press": -1, "wordID": 178, "type": "PRES_AUD", "trial_index": 125}, "uniqueid": "MTK1428:30ZX6P7VF92IEKPCATDOXOSG0JK2JV", "dateTime": 1515881173351}, {"current_trial": 126, "trialdata": {"rt": -1000, "trial_type": "single-audio", "word": "scarf", "stimulus": "/static/audio/wordpool/SCARF.wav", "conditions": [12, 1600, "a", 12000], "internal_node_id": "0.0-90.0", "trial": 3, "time_elapsed": 686647, "serialpos": 9, "key_press": -1, "wordID": 1245, "type": "PRES_AUD", "trial_index": 126}, "uniqueid": "MTK1428:30ZX6P7VF92IEKPCATDOXOSG0JK2JV", "dateTime": 1515881175801}, {"current_trial": 127, "trialdata": {"rt": -1000, "trial_type": "single-audio", "word": "shirt", "stimulus": "/static/audio/wordpool/SHIRT.wav", "conditions": [12, 1600, "a", 12000], "internal_node_id": "0.0-91.0", "trial": 3, "time_elapsed": 689114, "serialpos": 10, "key_press": -1, "wordID": 1286, "type": "PRES_AUD", "trial_index": 127}, "uniqueid": "MTK1428:30ZX6P7VF92IEKPCATDOXOSG0JK2JV", "dateTime": 1515881178268}, {"current_trial": 128, "trialdata": {"rt": -1000, "trial_type": "single-audio", "word": "thread", "stimulus": "/static/audio/wordpool/THREAD.wav", "conditions": [12, 1600, "a", 12000], "internal_node_id": "0.0-92.0", "trial": 3, "time_elapsed": 691848, "serialpos": 11, "key_press": -1, "wordID": 1459, "type": "PRES_AUD", "trial_index": 128}, "uniqueid": "MTK1428:30ZX6P7VF92IEKPCATDOXOSG0JK2JV", "dateTime": 1515881181002}, {"current_trial": 129, "trialdata": {"rt": -1, "trial_type": "single-stim", "stimulus": "", "internal_node_id": "0.0-93.0-0.0", "time_elapsed": 693056, "key_press": -1, "type": "PRE_RECALL_DELAY", "trial_index": 129}, "uniqueid": "MTK1428:30ZX6P7VF92IEKPCATDOXOSG0JK2JV", "dateTime": 1515881182210}, {"current_trial": 130, "trialdata": {"rt": -1000, "trial_type": "single-audio", "stimulus": "/static/audio/400Hz.wav", "internal_node_id": "0.0-94.0", "time_elapsed": 693557, "key_press": -1, "type": "PRE_RECALL_ALERT", "trial_index": 130}, "uniqueid": "MTK1428:30ZX6P7VF92IEKPCATDOXOSG0JK2JV", "dateTime": 1515881182711}, {"current_trial": 131, "trialdata": {"rt": [2420, 3349, 4415, 7008, 8161, 14760, 24600, 35289], "recwords": ["scarf", "shirt", "thread", "lightening", "cousin", "thread", "bug", "lightening"], "key_times": [840, 1007, 1182, 1418, 2291, 2420, 2594, 2753, 2773, 2942, 3094, 3349, 3607, 3774, 3864, 4016, 4080, 4275, 4415, 5080, 5191, 5407, 5542, 5682, 5811, 5924, 6045, 6152, 6344, 7008, 7272, 7416, 7523, 7742, 7850, 8007, 8161, 14101, 14247, 14315, 14448, 14497, 14668, 14760, 24259, 24337, 24464, 24600, 33718, 33780, 34011, 34267, 34465, 34574, 34723, 34793, 34905, 35127, 35289], "trial_type": "free-recall", "conditions": [12, 1600, "a", 12000], "internal_node_id": "0.0-95.0-0.0", "key_presses": [83, 67, 65, 82, 70, 13, 83, 72, 73, 82, 84, 13, 84, 72, 82, 69, 65, 68, 13, 76, 73, 71, 72, 84, 69, 78, 73, 78, 71, 13, 67, 79, 85, 83, 73, 78, 13, 84, 72, 82, 69, 65, 68, 13, 66, 85, 71, 13, 76, 73, 71, 72, 84, 69, 78, 73, 78, 71, 13], "trial": 3, "time_elapsed": 753565, "type": "FREE_RECALL", "trial_index": 131}, "uniqueid": "MTK1428:30ZX6P7VF92IEKPCATDOXOSG0JK2JV", "dateTime": 1515881242721}, {"current_trial": 132, "trialdata": {"rt": 19791, "trial_type": "text", "internal_node_id": "0.0-96.0", "time_elapsed": 775364, "key_press": 32, "type": "INSTRUCTIONS", "trial_index": 132}, "uniqueid": "MTK1428:30ZX6P7VF92IEKPCATDOXOSG0JK2JV", "dateTime": 1515881264518}, {"current_trial": 133, "trialdata": {"rt": [4385, 6198, 8954], "trial_type": "math-distractor", "key_times": [4080, 4297, 4385, 5964, 6111, 6198, 8782, 8806, 8954, 11357, 11933], "responses": ["15", "22", "20"], "num2": [7, 6, 7, 6], "num3": [4, 8, 9, 3], "conditions": [24, 1600, "a", 12000], "internal_node_id": "0.0-97.0", "key_presses": [49, 53, 13, 50, 50, 13, 50, 48, 13, 49, 54], "trial": 4, "time_elapsed": 789371, "type": "DISTRACTOR", "trial_index": 133, "num1": [4, 8, 4, 7]}, "uniqueid": "MTK1428:30ZX6P7VF92IEKPCATDOXOSG0JK2JV", "dateTime": 1515881278525}, {"current_trial": 134, "trialdata": {"rt": -1, "trial_type": "single-stim", "stimulus": "<p id=\"stim\">10</p>", "internal_node_id": "0.0-98.0-0.0", "time_elapsed": 792378, "key_press": -1, "trial_index": 134}, "uniqueid": "MTK1428:30ZX6P7VF92IEKPCATDOXOSG0JK2JV", "dateTime": 1515881281532}, {"current_trial": 135, "trialdata": {"rt": -1, "trial_type": "single-stim", "stimulus": "<p id=\"stim\">9</p>", "internal_node_id": "0.0-98.0-1.0", "time_elapsed": 793381, "key_press": -1, "trial_index": 135}, "uniqueid": "MTK1428:30ZX6P7VF92IEKPCATDOXOSG0JK2JV", "dateTime": 1515881282535}, {"current_trial": 136, "trialdata": {"rt": -1, "trial_type": "single-stim", "stimulus": "<p id=\"stim\">8</p>", "internal_node_id": "0.0-98.0-2.0", "time_elapsed": 794386, "key_press": -1, "trial_index": 136}, "uniqueid": "MTK1428:30ZX6P7VF92IEKPCATDOXOSG0JK2JV", "dateTime": 1515881283540}, {"current_trial": 137, "trialdata": {"rt": -1, "trial_type": "single-stim", "stimulus": "<p id=\"stim\">7</p>", "internal_node_id": "0.0-98.0-3.0", "time_elapsed": 795390, "key_press": -1, "trial_index": 137}, "uniqueid": "MTK1428:30ZX6P7VF92IEKPCATDOXOSG0JK2JV", "dateTime": 1515881284544}, {"current_trial": 138, "trialdata": {"rt": -1, "trial_type": "single-stim", "stimulus": "<p id=\"stim\">6</p>", "internal_node_id": "0.0-98.0-4.0", "time_elapsed": 796394, "key_press": -1, "trial_index": 138}, "uniqueid": "MTK1428:30ZX6P7VF92IEKPCATDOXOSG0JK2JV", "dateTime": 1515881285548}, {"current_trial": 139, "trialdata": {"rt": -1, "trial_type": "single-stim", "stimulus": "<p id=\"stim\">5</p>", "internal_node_id": "0.0-98.0-5.0", "time_elapsed": 797398, "key_press": -1, "trial_index": 139}, "uniqueid": "MTK1428:30ZX6P7VF92IEKPCATDOXOSG0JK2JV", "dateTime": 1515881286552}, {"current_trial": 140, "trialdata": {"rt": -1, "trial_type": "single-stim", "stimulus": "<p id=\"stim\">4</p>", "internal_node_id": "0.0-98.0-6.0", "time_elapsed": 798402, "key_press": -1, "trial_index": 140}, "uniqueid": "MTK1428:30ZX6P7VF92IEKPCATDOXOSG0JK2JV", "dateTime": 1515881287556}, {"current_trial": 141, "trialdata": {"rt": -1, "trial_type": "single-stim", "stimulus": "<p id=\"stim\">3</p>", "internal_node_id": "0.0-98.0-7.0", "time_elapsed": 799406, "key_press": -1, "trial_index": 141}, "uniqueid": "MTK1428:30ZX6P7VF92IEKPCATDOXOSG0JK2JV", "dateTime": 1515881288560}, {"current_trial": 142, "trialdata": {"rt": -1, "trial_type": "single-stim", "stimulus": "<p id=\"stim\">2</p>", "internal_node_id": "0.0-98.0-8.0", "time_elapsed": 800410, "key_press": -1, "trial_index": 142}, "uniqueid": "MTK1428:30ZX6P7VF92IEKPCATDOXOSG0JK2JV", "dateTime": 1515881289564}, {"current_trial": 143, "trialdata": {"rt": -1, "trial_type": "single-stim", "stimulus": "<p id=\"stim\">1</p>", "internal_node_id": "0.0-98.0-9.0", "time_elapsed": 801416, "key_press": -1, "trial_index": 143}, "uniqueid": "MTK1428:30ZX6P7VF92IEKPCATDOXOSG0JK2JV", "dateTime": 1515881290570}, {"current_trial": 144, "trialdata": {"rt": -1, "trial_type": "single-stim", "stimulus": "<p id=\"stim\">+</p>", "internal_node_id": "0.0-99.0-0.0", "time_elapsed": 802918, "key_press": -1, "type": "FIXATION", "trial_index": 144}, "uniqueid": "MTK1428:30ZX6P7VF92IEKPCATDOXOSG0JK2JV", "dateTime": 1515881292072}, {"current_trial": 145, "trialdata": {"rt": -1000, "trial_type": "single-audio", "word": "quarter", "stimulus": "/static/audio/wordpool/QUARTER.wav", "conditions": [24, 1600, "a", 12000], "internal_node_id": "0.0-100.0", "trial": 4, "time_elapsed": 805678, "serialpos": 0, "key_press": -1, "wordID": 1147, "type": "PRES_AUD", "trial_index": 145}, "uniqueid": "MTK1428:30ZX6P7VF92IEKPCATDOXOSG0JK2JV", "dateTime": 1515881294832}, {"current_trial": 146, "trialdata": {"rt": -1000, "trial_type": "single-audio", "word": "market", "stimulus": "/static/audio/wordpool/MARKET.wav", "conditions": [24, 1600, "a", 12000], "internal_node_id": "0.0-101.0", "trial": 4, "time_elapsed": 808192, "serialpos": 1, "key_press": -1, "wordID": 870, "type": "PRES_AUD", "trial_index": 146}, "uniqueid": "MTK1428:30ZX6P7VF92IEKPCATDOXOSG0JK2JV", "dateTime": 1515881297346}, {"current_trial": 147, "trialdata": {"rt": -1000, "trial_type": "single-audio", "word": "dustpan", "stimulus": "/static/audio/wordpool/DUSTPAN.wav", "conditions": [24, 1600, "a", 12000], "internal_node_id": "0.0-102.0", "trial": 4, "time_elapsed": 810973, "serialpos": 2, "key_press": -1, "wordID": 508, "type": "PRES_AUD", "trial_index": 147}, "uniqueid": "MTK1428:30ZX6P7VF92IEKPCATDOXOSG0JK2JV", "dateTime": 1515881300127}, {"current_trial": 148, "trialdata": {"rt": -1000, "trial_type": "single-audio", "word": "butcher", "stimulus": "/static/audio/wordpool/BUTCHER.wav", "conditions": [24, 1600, "a", 12000], "internal_node_id": "0.0-103.0", "trial": 4, "time_elapsed": 813478, "serialpos": 3, "key_press": -1, "wordID": 202, "type": "PRES_AUD", "trial_index": 148}, "uniqueid": "MTK1428:30ZX6P7VF92IEKPCATDOXOSG0JK2JV", "dateTime": 1515881302632}, {"current_trial": 149, "trialdata": {"rt": -1000, "trial_type": "single-audio", "word": "snake", "stimulus": "/static/audio/wordpool/SNAKE.wav", "conditions": [24, 1600, "a", 12000], "internal_node_id": "0.0-104.0", "trial": 4, "time_elapsed": 816058, "serialpos": 4, "key_press": -1, "wordID": 1332, "type": "PRES_AUD", "trial_index": 149}, "uniqueid": "MTK1428:30ZX6P7VF92IEKPCATDOXOSG0JK2JV", "dateTime": 1515881305212}, {"current_trial": 150, "trialdata": {"rt": -1000, "trial_type": "single-audio", "word": "sticker", "stimulus": "/static/audio/wordpool/STICKER.wav", "conditions": [24, 1600, "a", 12000], "internal_node_id": "0.0-105.0", "trial": 4, "time_elapsed": 818836, "serialpos": 5, "key_press": -1, "wordID": 1381, "type": "PRES_AUD", "trial_index": 150}, "uniqueid": "MTK1428:30ZX6P7VF92IEKPCATDOXOSG0JK2JV", "dateTime": 1515881307990}, {"current_trial": 151, "trialdata": {"rt": -1000, "trial_type": "single-audio", "word": "badge", "stimulus": "/static/audio/wordpool/BADGE.wav", "conditions": [24, 1600, "a", 12000], "internal_node_id": "0.0-106.0", "trial": 4, "time_elapsed": 821370, "serialpos": 6, "key_press": -1, "wordID": 67, "type": "PRES_AUD", "trial_index": 151}, "uniqueid": "MTK1428:30ZX6P7VF92IEKPCATDOXOSG0JK2JV", "dateTime": 1515881310524}, {"current_trial": 152, "trialdata": {"rt": -1000, "trial_type": "single-audio", "word": "possum", "stimulus": "/static/audio/wordpool/POSSUM.wav", "conditions": [24, 1600, "a", 12000], "internal_node_id": "0.0-107.0", "trial": 4, "time_elapsed": 824086, "serialpos": 7, "key_press": -1, "wordID": 1111, "type": "PRES_AUD", "trial_index": 152}, "uniqueid": "MTK1428:30ZX6P7VF92IEKPCATDOXOSG0JK2JV", "dateTime": 1515881313241}, {"current_trial": 153, "trialdata": {"rt": -1000, "trial_type": "single-audio", "word": "hand", "stimulus": "/static/audio/wordpool/HAND.wav", "conditions": [24, 1600, "a", 12000], "internal_node_id": "0.0-108.0", "trial": 4, "time_elapsed": 826786, "serialpos": 8, "key_press": -1, "wordID": 682, "type": "PRES_AUD", "trial_index": 153}, "uniqueid": "MTK1428:30ZX6P7VF92IEKPCATDOXOSG0JK2JV", "dateTime": 1515881315940}, {"current_trial": 154, "trialdata": {"rt": -1000, "trial_type": "single-audio", "word": "icing", "stimulus": "/static/audio/wordpool/ICING.wav", "conditions": [24, 1600, "a", 12000], "internal_node_id": "0.0-109.0", "trial": 4, "time_elapsed": 829537, "serialpos": 9, "key_press": -1, "wordID": 731, "type": "PRES_AUD", "trial_index": 154}, "uniqueid": "MTK1428:30ZX6P7VF92IEKPCATDOXOSG0JK2JV", "dateTime": 1515881318691}, {"current_trial": 155, "trialdata": {"rt": -1000, "trial_type": "single-audio", "word": "finger", "stimulus": "/static/audio/wordpool/FINGER.wav", "conditions": [24, 1600, "a", 12000], "internal_node_id": "0.0-110.0", "trial": 4, "time_elapsed": 832061, "serialpos": 10, "key_press": -1, "wordID": 566, "type": "PRES_AUD", "trial_index": 155}, "uniqueid": "MTK1428:30ZX6P7VF92IEKPCATDOXOSG0JK2JV", "dateTime": 1515881321216}, {"current_trial": 156, "trialdata": {"rt": -1000, "trial_type": "single-audio", "word": "sheriff", "stimulus": "/static/audio/wordpool/SHERIFF.wav", "conditions": [24, 1600, "a", 12000], "internal_node_id": "0.0-111.0", "trial": 4, "time_elapsed": 834532, "serialpos": 11, "key_press": -1, "wordID": 1283, "type": "PRES_AUD", "trial_index": 156}, "uniqueid": "MTK1428:30ZX6P7VF92IEKPCATDOXOSG0JK2JV", "dateTime": 1515881323686}, {"current_trial": 157, "trialdata": {"rt": -1000, "trial_type": "single-audio", "word": "typist", "stimulus": "/static/audio/wordpool/TYPIST.wav", "conditions": [24, 1600, "a", 12000], "internal_node_id": "0.0-112.0", "trial": 4, "time_elapsed": 836956, "serialpos": 12, "key_press": -1, "wordID": 1531, "type": "PRES_AUD", "trial_index": 157}, "uniqueid": "MTK1428:30ZX6P7VF92IEKPCATDOXOSG0JK2JV", "dateTime": 1515881326111}, {"current_trial": 158, "trialdata": {"rt": -1000, "trial_type": "single-audio", "word": "lunch", "stimulus": "/static/audio/wordpool/LUNCH.wav", "conditions": [24, 1600, "a", 12000], "internal_node_id": "0.0-113.0", "trial": 4, "time_elapsed": 839395, "serialpos": 13, "key_press": -1, "wordID": 848, "type": "PRES_AUD", "trial_index": 158}, "uniqueid": "MTK1428:30ZX6P7VF92IEKPCATDOXOSG0JK2JV", "dateTime": 1515881328549}, {"current_trial": 159, "trialdata": {"rt": -1000, "trial_type": "single-audio", "word": "outdoors", "stimulus": "/static/audio/wordpool/OUTDOORS.wav", "conditions": [24, 1600, "a", 12000], "internal_node_id": "0.0-114.0", "trial": 4, "time_elapsed": 841930, "serialpos": 14, "key_press": -1, "wordID": 986, "type": "PRES_AUD", "trial_index": 159}, "uniqueid": "MTK1428:30ZX6P7VF92IEKPCATDOXOSG0JK2JV", "dateTime": 1515881331084}, {"current_trial": 160, "trialdata": {"rt": -1000, "trial_type": "single-audio", "word": "apple", "stimulus": "/static/audio/wordpool/APPLE.wav", "conditions": [24, 1600, "a", 12000], "internal_node_id": "0.0-115.0", "trial": 4, "time_elapsed": 844712, "serialpos": 15, "key_press": -1, "wordID": 32, "type": "PRES_AUD", "trial_index": 160}, "uniqueid": "MTK1428:30ZX6P7VF92IEKPCATDOXOSG0JK2JV", "dateTime": 1515881333866}, {"current_trial": 161, "trialdata": {"rt": -1000, "trial_type": "single-audio", "word": "chipmunk", "stimulus": "/static/audio/wordpool/CHIPMUNK.wav", "conditions": [24, 1600, "a", 12000], "internal_node_id": "0.0-116.0", "trial": 4, "time_elapsed": 847266, "serialpos": 16, "key_press": -1, "wordID": 303, "type": "PRES_AUD", "trial_index": 161}, "uniqueid": "MTK1428:30ZX6P7VF92IEKPCATDOXOSG0JK2JV", "dateTime": 1515881336421}, {"current_trial": 162, "trialdata": {"rt": -1000, "trial_type": "single-audio", "word": "beaver", "stimulus": "/static/audio/wordpool/BEAVER.wav", "conditions": [24, 1600, "a", 12000], "internal_node_id": "0.0-117.0", "trial": 4, "time_elapsed": 849768, "serialpos": 17, "key_press": -1, "wordID": 108, "type": "PRES_AUD", "trial_index": 162}, "uniqueid": "MTK1428:30ZX6P7VF92IEKPCATDOXOSG0JK2JV", "dateTime": 1515881338922}, {"current_trial": 163, "trialdata": {"rt": -1000, "trial_type": "single-audio", "word": "dancer", "stimulus": "/static/audio/wordpool/DANCER.wav", "conditions": [24, 1600, "a", 12000], "internal_node_id": "0.0-118.0", "trial": 4, "time_elapsed": 852547, "serialpos": 18, "key_press": -1, "wordID": 436, "type": "PRES_AUD", "trial_index": 163}, "uniqueid": "MTK1428:30ZX6P7VF92IEKPCATDOXOSG0JK2JV", "dateTime": 1515881341701}, {"current_trial": 164, "trialdata": {"rt": -1000, "trial_type": "single-audio", "word": "grape", "stimulus": "/static/audio/wordpool/GRAPE.wav", "conditions": [24, 1600, "a", 12000], "internal_node_id": "0.0-119.0", "trial": 4, "time_elapsed": 855202, "serialpos": 19, "key_press": -1, "wordID": 653, "type": "PRES_AUD", "trial_index": 164}, "uniqueid": "MTK1428:30ZX6P7VF92IEKPCATDOXOSG0JK2JV", "dateTime": 1515881344356}, {"current_trial": 165, "trialdata": {"rt": -1000, "trial_type": "single-audio", "word": "fireplace", "stimulus": "/static/audio/wordpool/FIREPLACE.wav", "conditions": [24, 1600, "a", 12000], "internal_node_id": "0.0-120.0", "trial": 4, "time_elapsed": 857681, "serialpos": 20, "key_press": -1, "wordID": 569, "type": "PRES_AUD", "trial_index": 165}, "uniqueid": "MTK1428:30ZX6P7VF92IEKPCATDOXOSG0JK2JV", "dateTime": 1515881346835}, {"current_trial": 166, "trialdata": {"rt": -1000, "trial_type": "single-audio", "word": "washer", "stimulus": "/static/audio/wordpool/WASHER.wav", "conditions": [24, 1600, "a", 12000], "internal_node_id": "0.0-121.0", "trial": 4, "time_elapsed": 860090, "serialpos": 21, "key_press": -1, "wordID": 1591, "type": "PRES_AUD", "trial_index": 166}, "uniqueid": "MTK1428:30ZX6P7VF92IEKPCATDOXOSG0JK2JV", "dateTime": 1515881349244}, {"current_trial": 167, "trialdata": {"rt": -1000, "trial_type": "single-audio", "word": "motel", "stimulus": "/static/audio/wordpool/MOTEL.wav", "conditions": [24, 1600, "a", 12000], "internal_node_id": "0.0-122.0", "trial": 4, "time_elapsed": 862615, "serialpos": 22, "key_press": -1, "wordID": 918, "type": "PRES_AUD", "trial_index": 167}, "uniqueid": "MTK1428:30ZX6P7VF92IEKPCATDOXOSG0JK2JV", "dateTime": 1515881351769}, {"current_trial": 168, "trialdata": {"rt": -1000, "trial_type": "single-audio", "word": "knapsack", "stimulus": "/static/audio/wordpool/KNAPSACK.wav", "conditions": [24, 1600, "a", 12000], "internal_node_id": "0.0-123.0", "trial": 4, "time_elapsed": 865050, "serialpos": 23, "key_press": -1, "wordID": 782, "type": "PRES_AUD", "trial_index": 168}, "uniqueid": "MTK1428:30ZX6P7VF92IEKPCATDOXOSG0JK2JV", "dateTime": 1515881354204}, {"current_trial": 169, "trialdata": {"rt": -1, "trial_type": "single-stim", "stimulus": "", "internal_node_id": "0.0-124.0-0.0", "time_elapsed": 866348, "key_press": -1, "type": "PRE_RECALL_DELAY", "trial_index": 169}, "uniqueid": "MTK1428:30ZX6P7VF92IEKPCATDOXOSG0JK2JV", "dateTime": 1515881355503}, {"current_trial": 170, "trialdata": {"rt": -1000, "trial_type": "single-audio", "stimulus": "/static/audio/400Hz.wav", "internal_node_id": "0.0-125.0", "time_elapsed": 866850, "key_press": -1, "type": "PRE_RECALL_ALERT", "trial_index": 170}, "uniqueid": "MTK1428:30ZX6P7VF92IEKPCATDOXOSG0JK2JV", "dateTime": 1515881356004}, {"current_trial": 171, "trialdata": {"rt": [2229, 4192, 5654, 10310, 11444, 12411, 15369, 17821, 33646, 52152], "recwords": ["washer", "chipmunk", "possom", "dustpan", "market", "washer", "grape", "napsack", "beaver", "motel"], "key_times": [1549, 1624, 1790, 1901, 2025, 2139, 2229, 2967, 3094, 3138, 3344, 3509, 3696, 3875, 3986, 4192, 4717, 4941, 5079, 5278, 5383, 5530, 5654, 9245, 9337, 9488, 9591, 9832, 9975, 10099, 10310, 10594, 10698, 10871, 10968, 11115, 11243, 11444, 11660, 11750, 11879, 11991, 12122, 12299, 12411, 14774, 14858, 15022, 15145, 15261, 15369, 16089, 16658, 16777, 17001, 17325, 17526, 17602, 17821, 33002, 33060, 33128, 33268, 33368, 33506, 33646, 51437, 51521, 51788, 51868, 52044, 52152], "trial_type": "free-recall", "conditions": [24, 1600, "a", 12000], "internal_node_id": "0.0-126.0-0.0", "key_presses": [87, 65, 83, 72, 69, 82, 13, 67, 72, 73, 80, 77, 85, 78, 75, 13, 80, 79, 83, 83, 79, 77, 13, 68, 85, 83, 84, 80, 65, 78, 13, 77, 65, 82, 75, 69, 84, 13, 87, 65, 83, 72, 69, 82, 13, 71, 82, 65, 80, 69, 13, 78, 65, 80, 83, 65, 67, 75, 13, 66, 69, 65, 86, 69, 82, 13, 77, 79, 84, 69, 76, 13], "trial": 4, "time_elapsed": 926857, "type": "FREE_RECALL", "trial_index": 171}, "uniqueid": "MTK1428:30ZX6P7VF92IEKPCATDOXOSG0JK2JV", "dateTime": 1515881416013}, {"current_trial": 172, "trialdata": {"rt": 2401, "trial_type": "text", "internal_node_id": "0.0-127.0", "time_elapsed": 931260, "key_press": 74, "type": "INSTRUCTIONS", "trial_index": 172}, "uniqueid": "MTK1428:30ZX6P7VF92IEKPCATDOXOSG0JK2JV", "dateTime": 1515881420415}, {"current_trial": 173, "trialdata": {"rt": [1931, 3090, 5862, 7707, 10114, 12485, 14069, 16645, 18868, 20948, 23665], "trial_type": "math-distractor", "key_times": [1704, 1793, 1931, 2866, 2990, 3090, 5593, 5754, 5862, 7443, 7569, 7707, 9784, 9986, 10114, 12382, 12485, 13844, 13927, 14069, 16080, 16454, 16645, 18435, 18731, 18868, 20944, 20948, 23454, 23520, 23665], "responses": ["10", "12", "11", "13", "15", "6", "10", "19", "15", "6", "20"], "num2": [4, 5, 3, 8, 6, 1, 5, 7, 2, 3, 8, 5], "num3": [2, 2, 6, 4, 1, 2, 2, 7, 9, 1, 4, 3], "conditions": [24, 800, "a", 24000], "internal_node_id": "0.0-128.0", "key_presses": [49, 48, 13, 49, 50, 13, 49, 49, 13, 49, 51, 13, 49, 53, 13, 54, 13, 49, 48, 13, 49, 57, 13, 49, 53, 13, 54, 13, 50, 48, 13], "trial": 5, "time_elapsed": 957271, "type": "DISTRACTOR", "trial_index": 173, "num1": [4, 5, 2, 1, 8, 3, 3, 5, 4, 2, 8, 2]}, "uniqueid": "MTK1428:30ZX6P7VF92IEKPCATDOXOSG0JK2JV", "dateTime": 1515881446425}, {"current_trial": 174, "trialdata": {"rt": -1, "trial_type": "single-stim", "stimulus": "<p id=\"stim\">10</p>", "internal_node_id": "0.0-129.0-0.0", "time_elapsed": 960278, "key_press": -1, "trial_index": 174}, "uniqueid": "MTK1428:30ZX6P7VF92IEKPCATDOXOSG0JK2JV", "dateTime": 1515881449432}, {"current_trial": 175, "trialdata": {"rt": -1, "trial_type": "single-stim", "stimulus": "<p id=\"stim\">9</p>", "internal_node_id": "0.0-129.0-1.0", "time_elapsed": 961281, "key_press": -1, "trial_index": 175}, "uniqueid": "MTK1428:30ZX6P7VF92IEKPCATDOXOSG0JK2JV", "dateTime": 1515881450436}, {"current_trial": 176, "trialdata": {"rt": -1, "trial_type": "single-stim", "stimulus": "<p id=\"stim\">8</p>", "internal_node_id": "0.0-129.0-2.0", "time_elapsed": 962286, "key_press": -1, "trial_index": 176}, "uniqueid": "MTK1428:30ZX6P7VF92IEKPCATDOXOSG0JK2JV", "dateTime": 1515881451440}, {"current_trial": 177, "trialdata": {"rt": -1, "trial_type": "single-stim", "stimulus": "<p id=\"stim\">7</p>", "internal_node_id": "0.0-129.0-3.0", "time_elapsed": 963290, "key_press": -1, "trial_index": 177}, "uniqueid": "MTK1428:30ZX6P7VF92IEKPCATDOXOSG0JK2JV", "dateTime": 1515881452444}, {"current_trial": 178, "trialdata": {"rt": -1, "trial_type": "single-stim", "stimulus": "<p id=\"stim\">6</p>", "internal_node_id": "0.0-129.0-4.0", "time_elapsed": 964294, "key_press": -1, "trial_index": 178}, "uniqueid": "MTK1428:30ZX6P7VF92IEKPCATDOXOSG0JK2JV", "dateTime": 1515881453448}, {"current_trial": 179, "trialdata": {"rt": -1, "trial_type": "single-stim", "stimulus": "<p id=\"stim\">5</p>", "internal_node_id": "0.0-129.0-5.0", "time_elapsed": 965298, "key_press": -1, "trial_index": 179}, "uniqueid": "MTK1428:30ZX6P7VF92IEKPCATDOXOSG0JK2JV", "dateTime": 1515881454452}, {"current_trial": 180, "trialdata": {"rt": -1, "trial_type": "single-stim", "stimulus": "<p id=\"stim\">4</p>", "internal_node_id": "0.0-129.0-6.0", "time_elapsed": 966302, "key_press": -1, "trial_index": 180}, "uniqueid": "MTK1428:30ZX6P7VF92IEKPCATDOXOSG0JK2JV", "dateTime": 1515881455456}, {"current_trial": 181, "trialdata": {"rt": -1, "trial_type": "single-stim", "stimulus": "<p id=\"stim\">3</p>", "internal_node_id": "0.0-129.0-7.0", "time_elapsed": 967306, "key_press": -1, "trial_index": 181}, "uniqueid": "MTK1428:30ZX6P7VF92IEKPCATDOXOSG0JK2JV", "dateTime": 1515881456461}, {"current_trial": 182, "trialdata": {"rt": -1, "trial_type": "single-stim", "stimulus": "<p id=\"stim\">2</p>", "internal_node_id": "0.0-129.0-8.0", "time_elapsed": 968311, "key_press": -1, "trial_index": 182}, "uniqueid": "MTK1428:30ZX6P7VF92IEKPCATDOXOSG0JK2JV", "dateTime": 1515881457465}, {"current_trial": 183, "trialdata": {"rt": -1, "trial_type": "single-stim", "stimulus": "<p id=\"stim\">1</p>", "internal_node_id": "0.0-129.0-9.0", "time_elapsed": 969315, "key_press": -1, "trial_index": 183}, "uniqueid": "MTK1428:30ZX6P7VF92IEKPCATDOXOSG0JK2JV", "dateTime": 1515881458469}, {"current_trial": 184, "trialdata": {"rt": -1, "trial_type": "single-stim", "stimulus": "<p id=\"stim\">+</p>", "internal_node_id": "0.0-130.0-0.0", "time_elapsed": 970818, "key_press": -1, "type": "FIXATION", "trial_index": 184}, "uniqueid": "MTK1428:30ZX6P7VF92IEKPCATDOXOSG0JK2JV", "dateTime": 1515881459972}, {"current_trial": 185, "trialdata": {"rt": -1000, "trial_type": "single-audio", "word": "garlic", "stimulus": "/static/audio/wordpool/GARLIC.wav", "conditions": [24, 800, "a", 24000], "internal_node_id": "0.0-131.0", "trial": 5, "time_elapsed": 972679, "serialpos": 0, "key_press": -1, "wordID": 623, "type": "PRES_AUD", "trial_index": 185}, "uniqueid": "MTK1428:30ZX6P7VF92IEKPCATDOXOSG0JK2JV", "dateTime": 1515881461833}, {"current_trial": 186, "trialdata": {"rt": -1000, "trial_type": "single-audio", "word": "cabbage", "stimulus": "/static/audio/wordpool/CABBAGE.wav", "conditions": [24, 800, "a", 24000], "internal_node_id": "0.0-132.0", "trial": 5, "time_elapsed": 974368, "serialpos": 1, "key_press": -1, "wordID": 209, "type": "PRES_AUD", "trial_index": 186}, "uniqueid": "MTK1428:30ZX6P7VF92IEKPCATDOXOSG0JK2JV", "dateTime": 1515881463522}, {"current_trial": 187, "trialdata": {"rt": -1000, "trial_type": "single-audio", "word": "teacher", "stimulus": "/static/audio/wordpool/TEACHER.wav", "conditions": [24, 800, "a", 24000], "internal_node_id": "0.0-133.0", "trial": 5, "time_elapsed": 976327, "serialpos": 2, "key_press": -1, "wordID": 1439, "type": "PRES_AUD", "trial_index": 187}, "uniqueid": "MTK1428:30ZX6P7VF92IEKPCATDOXOSG0JK2JV", "dateTime": 1515881465482}, {"current_trial": 188, "trialdata": {"rt": -1000, "trial_type": "single-audio", "word": "item", "stimulus": "/static/audio/wordpool/ITEM.wav", "conditions": [24, 800, "a", 24000], "internal_node_id": "0.0-134.0", "trial": 5, "time_elapsed": 977992, "serialpos": 3, "key_press": -1, "wordID": 745, "type": "PRES_AUD", "trial_index": 188}, "uniqueid": "MTK1428:30ZX6P7VF92IEKPCATDOXOSG0JK2JV", "dateTime": 1515881467146}, {"current_trial": 189, "trialdata": {"rt": -1000, "trial_type": "single-audio", "word": "salad", "stimulus": "/static/audio/wordpool/SALAD.wav", "conditions": [24, 800, "a", 24000], "internal_node_id": "0.0-135.0", "trial": 5, "time_elapsed": 979750, "serialpos": 4, "key_press": -1, "wordID": 1223, "type": "PRES_AUD", "trial_index": 189}, "uniqueid": "MTK1428:30ZX6P7VF92IEKPCATDOXOSG0JK2JV", "dateTime": 1515881468904}, {"current_trial": 190, "trialdata": {"rt": -1000, "trial_type": "single-audio", "word": "church", "stimulus": "/static/audio/wordpool/CHURCH.wav", "conditions": [24, 800, "a", 24000], "internal_node_id": "0.0-136.0", "trial": 5, "time_elapsed": 981491, "serialpos": 5, "key_press": -1, "wordID": 306, "type": "PRES_AUD", "trial_index": 190}, "uniqueid": "MTK1428:30ZX6P7VF92IEKPCATDOXOSG0JK2JV", "dateTime": 1515881470645}, {"current_trial": 191, "trialdata": {"rt": -1000, "trial_type": "single-audio", "word": "cross", "stimulus": "/static/audio/wordpool/CROSS.wav", "conditions": [24, 800, "a", 24000], "internal_node_id": "0.0-137.0", "trial": 5, "time_elapsed": 983256, "serialpos": 6, "key_press": -1, "wordID": 412, "type": "PRES_AUD", "trial_index": 191}, "uniqueid": "MTK1428:30ZX6P7VF92IEKPCATDOXOSG0JK2JV", "dateTime": 1515881472410}, {"current_trial": 192, "trialdata": {"rt": -1000, "trial_type": "single-audio", "word": "hatchet", "stimulus": "/static/audio/wordpool/HATCHET.wav", "conditions": [24, 800, "a", 24000], "internal_node_id": "0.0-138.0", "trial": 5, "time_elapsed": 985189, "serialpos": 7, "key_press": -1, "wordID": 690, "type": "PRES_AUD", "trial_index": 192}, "uniqueid": "MTK1428:30ZX6P7VF92IEKPCATDOXOSG0JK2JV", "dateTime": 1515881474343}, {"current_trial": 193, "trialdata": {"rt": -1000, "trial_type": "single-audio", "word": "denim", "stimulus": "/static/audio/wordpool/DENIM.wav", "conditions": [24, 800, "a", 24000], "internal_node_id": "0.0-139.0", "trial": 5, "time_elapsed": 986902, "serialpos": 8, "key_press": -1, "wordID": 445, "type": "PRES_AUD", "trial_index": 193}, "uniqueid": "MTK1428:30ZX6P7VF92IEKPCATDOXOSG0JK2JV", "dateTime": 1515881476056}, {"current_trial": 194, "trialdata": {"rt": -1000, "trial_type": "single-audio", "word": "student", "stimulus": "/static/audio/wordpool/STUDENT.wav", "conditions": [24, 800, "a", 24000], "internal_node_id": "0.0-140.0", "trial": 5, "time_elapsed": 988719, "serialpos": 9, "key_press": -1, "wordID": 1394, "type": "PRES_AUD", "trial_index": 194}, "uniqueid": "MTK1428:30ZX6P7VF92IEKPCATDOXOSG0JK2JV", "dateTime": 1515881477873}, {"current_trial": 195, "trialdata": {"rt": -1000, "trial_type": "single-audio", "word": "cattle", "stimulus": "/static/audio/wordpool/CATTLE.wav", "conditions": [24, 800, "a", 24000], "internal_node_id": "0.0-141.0", "trial": 5, "time_elapsed": 990633, "serialpos": 10, "key_press": -1, "wordID": 260, "type": "PRES_AUD", "trial_index": 195}, "uniqueid": "MTK1428:30ZX6P7VF92IEKPCATDOXOSG0JK2JV", "dateTime": 1515881479787}, {"current_trial": 196, "trialdata": {"rt": -1000, "trial_type": "single-audio", "word": "pepper", "stimulus": "/static/audio/wordpool/PEPPER.wav", "conditions": [24, 800, "a", 24000], "internal_node_id": "0.0-142.0", "trial": 5, "time_elapsed": 992439, "serialpos": 11, "key_press": -1, "wordID": 1046, "type": "PRES_AUD", "trial_index": 196}, "uniqueid": "MTK1428:30ZX6P7VF92IEKPCATDOXOSG0JK2JV", "dateTime": 1515881481593}, {"current_trial": 197, "trialdata": {"rt": -1000, "trial_type": "single-audio", "word": "fox", "stimulus": "/static/audio/wordpool/FOX.wav", "conditions": [24, 800, "a", 24000], "internal_node_id": "0.0-143.0", "trial": 5, "time_elapsed": 994303, "serialpos": 12, "key_press": -1, "wordID": 597, "type": "PRES_AUD", "trial_index": 197}, "uniqueid": "MTK1428:30ZX6P7VF92IEKPCATDOXOSG0JK2JV", "dateTime": 1515881483457}, {"current_trial": 198, "trialdata": {"rt": -1000, "trial_type": "single-audio", "word": "actor", "stimulus": "/static/audio/wordpool/ACTOR.wav", "conditions": [24, 800, "a", 24000], "internal_node_id": "0.0-144.0", "trial": 5, "time_elapsed": 996039, "serialpos": 13, "key_press": -1, "wordID": 4, "type": "PRES_AUD", "trial_index": 198}, "uniqueid": "MTK1428:30ZX6P7VF92IEKPCATDOXOSG0JK2JV", "dateTime": 1515881485193}, {"current_trial": 199, "trialdata": {"rt": -1000, "trial_type": "single-audio", "word": "leader", "stimulus": "/static/audio/wordpool/LEADER.wav", "conditions": [24, 800, "a", 24000], "internal_node_id": "0.0-145.0", "trial": 5, "time_elapsed": 997920, "serialpos": 14, "key_press": -1, "wordID": 806, "type": "PRES_AUD", "trial_index": 199}, "uniqueid": "MTK1428:30ZX6P7VF92IEKPCATDOXOSG0JK2JV", "dateTime": 1515881487074}, {"current_trial": 200, "trialdata": {"rt": -1000, "trial_type": "single-audio", "word": "burglar", "stimulus": "/static/audio/wordpool/BURGLAR.wav", "conditions": [24, 800, "a", 24000], "internal_node_id": "0.0-146.0", "trial": 5, "time_elapsed": 999615, "serialpos": 15, "key_press": -1, "wordID": 199, "type": "PRES_AUD", "trial_index": 200}, "uniqueid": "MTK1428:30ZX6P7VF92IEKPCATDOXOSG0JK2JV", "dateTime": 1515881488769}, {"current_trial": 201, "trialdata": {"rt": -1000, "trial_type": "single-audio", "word": "actress", "stimulus": "/static/audio/wordpool/ACTRESS.wav", "conditions": [24, 800, "a", 24000], "internal_node_id": "0.0-147.0", "trial": 5, "time_elapsed": 1001316, "serialpos": 16, "key_press": -1, "wordID": 5, "type": "PRES_AUD", "trial_index": 201}, "uniqueid": "MTK1428:30ZX6P7VF92IEKPCATDOXOSG0JK2JV", "dateTime": 1515881490470}, {"current_trial": 202, "trialdata": {"rt": -1000, "trial_type": "single-audio", "word": "cupboard", "stimulus": "/static/audio/wordpool/CUPBOARD.wav", "conditions": [24, 800, "a", 24000], "internal_node_id": "0.0-148.0", "trial": 5, "time_elapsed": 1003087, "serialpos": 17, "key_press": -1, "wordID": 424, "type": "PRES_AUD", "trial_index": 202}, "uniqueid": "MTK1428:30ZX6P7VF92IEKPCATDOXOSG0JK2JV", "dateTime": 1515881492241}, {"current_trial": 203, "trialdata": {"rt": -1000, "trial_type": "single-audio", "word": "jelly", "stimulus": "/static/audio/wordpool/JELLY.wav", "conditions": [24, 800, "a", 24000], "internal_node_id": "0.0-149.0", "trial": 5, "time_elapsed": 1004753, "serialpos": 18, "key_press": -1, "wordID": 754, "type": "PRES_AUD", "trial_index": 203}, "uniqueid": "MTK1428:30ZX6P7VF92IEKPCATDOXOSG0JK2JV", "dateTime": 1515881493907}, {"current_trial": 204, "trialdata": {"rt": -1000, "trial_type": "single-audio", "word": "slime", "stimulus": "/static/audio/wordpool/SLIME.wav", "conditions": [24, 800, "a", 24000], "internal_node_id": "0.0-150.0", "trial": 5, "time_elapsed": 1006521, "serialpos": 19, "key_press": -1, "wordID": 1326, "type": "PRES_AUD", "trial_index": 204}, "uniqueid": "MTK1428:30ZX6P7VF92IEKPCATDOXOSG0JK2JV", "dateTime": 1515881495675}, {"current_trial": 205, "trialdata": {"rt": -1000, "trial_type": "single-audio", "word": "muffin", "stimulus": "/static/audio/wordpool/MUFFIN.wav", "conditions": [24, 800, "a", 24000], "internal_node_id": "0.0-151.0", "trial": 5, "time_elapsed": 1008146, "serialpos": 20, "key_press": -1, "wordID": 928, "type": "PRES_AUD", "trial_index": 205}, "uniqueid": "MTK1428:30ZX6P7VF92IEKPCATDOXOSG0JK2JV", "dateTime": 1515881497301}, {"current_trial": 206, "trialdata": {"rt": -1000, "trial_type": "single-audio", "word": "pastry", "stimulus": "/static/audio/wordpool/PASTRY.wav", "conditions": [24, 800, "a", 24000], "internal_node_id": "0.0-152.0", "trial": 5, "time_elapsed": 1009974, "serialpos": 21, "key_press": -1, "wordID": 1021, "type": "PRES_AUD", "trial_index": 206}, "uniqueid": "MTK1428:30ZX6P7VF92IEKPCATDOXOSG0JK2JV", "dateTime": 1515881499128}, {"current_trial": 207, "trialdata": {"rt": -1000, "trial_type": "single-audio", "word": "postage", "stimulus": "/static/audio/wordpool/POSTAGE.wav", "conditions": [24, 800, "a", 24000], "internal_node_id": "0.0-153.0", "trial": 5, "time_elapsed": 1011765, "serialpos": 22, "key_press": -1, "wordID": 1112, "type": "PRES_AUD", "trial_index": 207}, "uniqueid": "MTK1428:30ZX6P7VF92IEKPCATDOXOSG0JK2JV", "dateTime": 1515881500919}, {"current_trial": 208, "trialdata": {"rt": -1000, "trial_type": "single-audio", "word": "primate", "stimulus": "/static/audio/wordpool/PRIMATE.wav", "conditions": [24, 800, "a", 24000], "internal_node_id": "0.0-154.0", "trial": 5, "time_elapsed": 1013623, "serialpos": 23, "key_press": -1, "wordID": 1122, "type": "PRES_AUD", "trial_index": 208}, "uniqueid": "MTK1428:30ZX6P7VF92IEKPCATDOXOSG0JK2JV", "dateTime": 1515881502777}, {"current_trial": 209, "trialdata": {"rt": -1, "trial_type": "single-stim", "stimulus": "", "internal_node_id": "0.0-155.0-0.0", "time_elapsed": 1014929, "key_press": -1, "type": "PRE_RECALL_DELAY", "trial_index": 209}, "uniqueid": "MTK1428:30ZX6P7VF92IEKPCATDOXOSG0JK2JV", "dateTime": 1515881504084}, {"current_trial": 210, "trialdata": {"rt": -1000, "trial_type": "single-audio", "stimulus": "/static/audio/400Hz.wav", "internal_node_id": "0.0-156.0", "time_elapsed": 1015432, "key_press": -1, "type": "PRE_RECALL_ALERT", "trial_index": 210}, "uniqueid": "MTK1428:30ZX6P7VF92IEKPCATDOXOSG0JK2JV", "dateTime": 1515881504586}, {"current_trial": 211, "trialdata": {"rt": [1926, 3445, 4795, 6783, 8000, 11455, 12663, 14080, 15108, 16228, 18320, 27072, 34747, 41389], "recwords": ["primate", "postage", "muffin", "garlic", "pepper", "teacher", "student", "burglar", "church", "cross", "primate", "cupboard", "pantry", "leader"], "key_times": [554, 746, 834, 1003, 1103, 1246, 1398, 1926, 2351, 2407, 2520, 2656, 2705, 2928, 3064, 3445, 3974, 4160, 4293, 4451, 4507, 4659, 4795, 6142, 6236, 6376, 6446, 6518, 6630, 6783, 7072, 7199, 7310, 7470, 7630, 7797, 8000, 10685, 10759, 10827, 11015, 11102, 11226, 11365, 11455, 11625, 11746, 11932, 12016, 12191, 12271, 12481, 12663, 12906, 13024, 13126, 13377, 13704, 13762, 13934, 14080, 14328, 14427, 14475, 14583, 14763, 14879, 15108, 15340, 15566, 15665, 15887, 16076, 16228, 17468, 17585, 17662, 17835, 17927, 18091, 18206, 18320, 25174, 25272, 25911, 26395, 26559, 26655, 26765, 26908, 27072, 33753, 33929, 34021, 34357, 34502, 34593, 34747, 40638, 40735, 40823, 41000, 41201, 41329, 41389], "trial_type": "free-recall", "conditions": [24, 800, "a", 24000], "internal_node_id": "0.0-157.0-0.0", "key_presses": [80, 82, 73, 77, 65, 84, 69, 13, 80, 79, 83, 84, 65, 71, 69, 13, 77, 85, 70, 70, 73, 78, 13, 71, 65, 82, 76, 73, 67, 13, 80, 69, 80, 80, 69, 82, 13, 84, 69, 65, 67, 72, 69, 82, 13, 83, 84, 85, 68, 69, 78, 84, 13, 66, 85, 82, 71, 76, 65, 82, 13, 67, 72, 85, 82, 67, 72, 13, 67, 82, 79, 83, 83, 13, 80, 82, 73, 77, 65, 84, 69, 13, 67, 85, 80, 66, 79, 65, 82, 68, 13, 80, 65, 78, 84, 82, 89, 13, 76, 69, 65, 68, 69, 82, 13], "trial": 5, "time_elapsed": 1075439, "type": "FREE_RECALL", "trial_index": 211}, "uniqueid": "MTK1428:30ZX6P7VF92IEKPCATDOXOSG0JK2JV", "dateTime": 1515881564597}, {"current_trial": 212, "trialdata": {"rt": 1992, "trial_type": "text", "internal_node_id": "0.0-158.0", "time_elapsed": 1079439, "key_press": 75, "type": "INSTRUCTIONS", "trial_index": 212}, "uniqueid": "MTK1428:30ZX6P7VF92IEKPCATDOXOSG0JK2JV", "dateTime": 1515881568593}, {"current_trial": 213, "trialdata": {"rt": [2487, 3995, 5552, 7824, 9801, 11188, 12736, 14810, 16207, 17977, 20134, 21404], "trial_type": "math-distractor", "key_times": [2276, 2407, 2487, 3689, 3878, 3995, 5393, 5492, 5552, 7484, 7698, 7824, 9436, 9622, 9801, 10917, 11064, 11188, 12585, 12736, 14319, 14627, 14810, 15957, 16119, 16207, 17620, 17782, 17977, 19978, 20134, 21244, 21364, 21404, 23637, 23831], "responses": ["11", "14", "12", "14", "17", "11", "9", "16", "11", "10", "6", "12"], "num2": [6, 9, 4, 3, 8, 1, 5, 8, 4, 1, 1, 2, 8], "num3": [4, 1, 7, 7, 2, 9, 2, 2, 6, 2, 2, 9, 5], "conditions": [24, 800, "a", 24000], "internal_node_id": "0.0-159.0", "key_presses": [49, 49, 13, 49, 52, 13, 49, 50, 13, 49, 52, 13, 49, 55, 13, 49, 49, 13, 57, 13, 49, 54, 13, 49, 49, 13, 49, 48, 13, 54, 13, 49, 50, 13, 49, 55], "trial": 6, "time_elapsed": 1105446, "type": "DISTRACTOR", "trial_index": 213, "num1": [1, 4, 1, 4, 7, 1, 2, 6, 1, 7, 3, 1, 3]}, "uniqueid": "MTK1428:30ZX6P7VF92IEKPCATDOXOSG0JK2JV", "dateTime": 1515881594601}, {"current_trial": 214, "trialdata": {"rt": -1, "trial_type": "single-stim", "stimulus": "<p id=\"stim\">10</p>", "internal_node_id": "0.0-160.0-0.0", "time_elapsed": 1108453, "key_press": -1, "trial_index": 214}, "uniqueid": "MTK1428:30ZX6P7VF92IEKPCATDOXOSG0JK2JV", "dateTime": 1515881597607}, {"current_trial": 215, "trialdata": {"rt": -1, "trial_type": "single-stim", "stimulus": "<p id=\"stim\">9</p>", "internal_node_id": "0.0-160.0-1.0", "time_elapsed": 1109457, "key_press": -1, "trial_index": 215}, "uniqueid": "MTK1428:30ZX6P7VF92IEKPCATDOXOSG0JK2JV", "dateTime": 1515881598611}, {"current_trial": 216, "trialdata": {"rt": -1, "trial_type": "single-stim", "stimulus": "<p id=\"stim\">8</p>", "internal_node_id": "0.0-160.0-2.0", "time_elapsed": 1110461, "key_press": -1, "trial_index": 216}, "uniqueid": "MTK1428:30ZX6P7VF92IEKPCATDOXOSG0JK2JV", "dateTime": 1515881599615}, {"current_trial": 217, "trialdata": {"rt": -1, "trial_type": "single-stim", "stimulus": "<p id=\"stim\">7</p>", "internal_node_id": "0.0-160.0-3.0", "time_elapsed": 1111466, "key_press": -1, "trial_index": 217}, "uniqueid": "MTK1428:30ZX6P7VF92IEKPCATDOXOSG0JK2JV", "dateTime": 1515881600621}, {"current_trial": 218, "trialdata": {"rt": -1, "trial_type": "single-stim", "stimulus": "<p id=\"stim\">6</p>", "internal_node_id": "0.0-160.0-4.0", "time_elapsed": 1112469, "key_press": -1, "trial_index": 218}, "uniqueid": "MTK1428:30ZX6P7VF92IEKPCATDOXOSG0JK2JV", "dateTime": 1515881601623}, {"current_trial": 219, "trialdata": {"rt": -1, "trial_type": "single-stim", "stimulus": "<p id=\"stim\">5</p>", "internal_node_id": "0.0-160.0-5.0", "time_elapsed": 1113473, "key_press": -1, "trial_index": 219}, "uniqueid": "MTK1428:30ZX6P7VF92IEKPCATDOXOSG0JK2JV", "dateTime": 1515881602627}, {"current_trial": 220, "trialdata": {"rt": -1, "trial_type": "single-stim", "stimulus": "<p id=\"stim\">4</p>", "internal_node_id": "0.0-160.0-6.0", "time_elapsed": 1114477, "key_press": -1, "trial_index": 220}, "uniqueid": "MTK1428:30ZX6P7VF92IEKPCATDOXOSG0JK2JV", "dateTime": 1515881603631}, {"current_trial": 221, "trialdata": {"rt": -1, "trial_type": "single-stim", "stimulus": "<p id=\"stim\">3</p>", "internal_node_id": "0.0-160.0-7.0", "time_elapsed": 1115481, "key_press": -1, "trial_index": 221}, "uniqueid": "MTK1428:30ZX6P7VF92IEKPCATDOXOSG0JK2JV", "dateTime": 1515881604636}, {"current_trial": 222, "trialdata": {"rt": -1, "trial_type": "single-stim", "stimulus": "<p id=\"stim\">2</p>", "internal_node_id": "0.0-160.0-8.0", "time_elapsed": 1116486, "key_press": -1, "trial_index": 222}, "uniqueid": "MTK1428:30ZX6P7VF92IEKPCATDOXOSG0JK2JV", "dateTime": 1515881605640}, {"current_trial": 223, "trialdata": {"rt": -1, "trial_type": "single-stim", "stimulus": "<p id=\"stim\">1</p>", "internal_node_id": "0.0-160.0-9.0", "time_elapsed": 1117490, "key_press": -1, "trial_index": 223}, "uniqueid": "MTK1428:30ZX6P7VF92IEKPCATDOXOSG0JK2JV", "dateTime": 1515881606644}, {"current_trial": 224, "trialdata": {"rt": -1, "trial_type": "single-stim", "stimulus": "<p id=\"stim\">+</p>", "internal_node_id": "0.0-161.0-0.0", "time_elapsed": 1118993, "key_press": -1, "type": "FIXATION", "trial_index": 224}, "uniqueid": "MTK1428:30ZX6P7VF92IEKPCATDOXOSG0JK2JV", "dateTime": 1515881608147}, {"current_trial": 225, "trialdata": {"rt": -1000, "trial_type": "single-audio", "word": "supper", "stimulus": "/static/audio/wordpool/SUPPER.wav", "conditions": [24, 800, "a", 24000], "internal_node_id": "0.0-162.0", "trial": 6, "time_elapsed": 1120820, "serialpos": 0, "key_press": -1, "wordID": 1410, "type": "PRES_AUD", "trial_index": 225}, "uniqueid": "MTK1428:30ZX6P7VF92IEKPCATDOXOSG0JK2JV", "dateTime": 1515881609974}, {"current_trial": 226, "trialdata": {"rt": -1000, "trial_type": "single-audio", "word": "picnic", "stimulus": "/static/audio/wordpool/PICNIC.wav", "conditions": [24, 800, "a", 24000], "internal_node_id": "0.0-163.0", "trial": 6, "time_elapsed": 1122643, "serialpos": 1, "key_press": -1, "wordID": 1059, "type": "PRES_AUD", "trial_index": 226}, "uniqueid": "MTK1428:30ZX6P7VF92IEKPCATDOXOSG0JK2JV", "dateTime": 1515881611797}, {"current_trial": 227, "trialdata": {"rt": -1000, "trial_type": "single-audio", "word": "jury", "stimulus": "/static/audio/wordpool/JURY.wav", "conditions": [24, 800, "a", 24000], "internal_node_id": "0.0-164.0", "trial": 6, "time_elapsed": 1124466, "serialpos": 2, "key_press": -1, "wordID": 765, "type": "PRES_AUD", "trial_index": 227}, "uniqueid": "MTK1428:30ZX6P7VF92IEKPCATDOXOSG0JK2JV", "dateTime": 1515881613620}, {"current_trial": 228, "trialdata": {"rt": -1000, "trial_type": "single-audio", "word": "driver", "stimulus": "/static/audio/wordpool/DRIVER.wav", "conditions": [24, 800, "a", 24000], "internal_node_id": "0.0-165.0", "trial": 6, "time_elapsed": 1126399, "serialpos": 3, "key_press": -1, "wordID": 498, "type": "PRES_AUD", "trial_index": 228}, "uniqueid": "MTK1428:30ZX6P7VF92IEKPCATDOXOSG0JK2JV", "dateTime": 1515881615553}, {"current_trial": 229, "trialdata": {"rt": -1000, "trial_type": "single-audio", "word": "pocket", "stimulus": "/static/audio/wordpool/POCKET.wav", "conditions": [24, 800, "a", 24000], "internal_node_id": "0.0-166.0", "trial": 6, "time_elapsed": 1128350, "serialpos": 4, "key_press": -1, "wordID": 1092, "type": "PRES_AUD", "trial_index": 229}, "uniqueid": "MTK1428:30ZX6P7VF92IEKPCATDOXOSG0JK2JV", "dateTime": 1515881617504}, {"current_trial": 230, "trialdata": {"rt": -1000, "trial_type": "single-audio", "word": "stove", "stimulus": "/static/audio/wordpool/STOVE.wav", "conditions": [24, 800, "a", 24000], "internal_node_id": "0.0-167.0", "trial": 6, "time_elapsed": 1130134, "serialpos": 5, "key_press": -1, "wordID": 1387, "type": "PRES_AUD", "trial_index": 230}, "uniqueid": "MTK1428:30ZX6P7VF92IEKPCATDOXOSG0JK2JV", "dateTime": 1515881619288}, {"current_trial": 231, "trialdata": {"rt": -1000, "trial_type": "single-audio", "word": "atlas", "stimulus": "/static/audio/wordpool/ATLAS.wav", "conditions": [24, 800, "a", 24000], "internal_node_id": "0.0-168.0", "trial": 6, "time_elapsed": 1131740, "serialpos": 6, "key_press": -1, "wordID": 52, "type": "PRES_AUD", "trial_index": 231}, "uniqueid": "MTK1428:30ZX6P7VF92IEKPCATDOXOSG0JK2JV", "dateTime": 1515881620894}, {"current_trial": 232, "trialdata": {"rt": -1000, "trial_type": "single-audio", "word": "chapel", "stimulus": "/static/audio/wordpool/CHAPEL.wav", "conditions": [24, 800, "a", 24000], "internal_node_id": "0.0-169.0", "trial": 6, "time_elapsed": 1133696, "serialpos": 7, "key_press": -1, "wordID": 279, "type": "PRES_AUD", "trial_index": 232}, "uniqueid": "MTK1428:30ZX6P7VF92IEKPCATDOXOSG0JK2JV", "dateTime": 1515881622850}, {"current_trial": 233, "trialdata": {"rt": -1000, "trial_type": "single-audio", "word": "cook", "stimulus": "/static/audio/wordpool/COOK.wav", "conditions": [24, 800, "a", 24000], "internal_node_id": "0.0-170.0", "trial": 6, "time_elapsed": 1135345, "serialpos": 8, "key_press": -1, "wordID": 371, "type": "PRES_AUD", "trial_index": 233}, "uniqueid": "MTK1428:30ZX6P7VF92IEKPCATDOXOSG0JK2JV", "dateTime": 1515881624499}, {"current_trial": 234, "trialdata": {"rt": -1000, "trial_type": "single-audio", "word": "egypt", "stimulus": "/static/audio/wordpool/EGYPT.wav", "conditions": [24, 800, "a", 24000], "internal_node_id": "0.0-171.0", "trial": 6, "time_elapsed": 1136987, "serialpos": 9, "key_press": -1, "wordID": 518, "type": "PRES_AUD", "trial_index": 234}, "uniqueid": "MTK1428:30ZX6P7VF92IEKPCATDOXOSG0JK2JV", "dateTime": 1515881626142}, {"current_trial": 235, "trialdata": {"rt": -1000, "trial_type": "single-audio", "word": "valley", "stimulus": "/static/audio/wordpool/VALLEY.wav", "conditions": [24, 800, "a", 24000], "internal_node_id": "0.0-172.0", "trial": 6, "time_elapsed": 1138883, "serialpos": 10, "key_press": -1, "wordID": 1544, "type": "PRES_AUD", "trial_index": 235}, "uniqueid": "MTK1428:30ZX6P7VF92IEKPCATDOXOSG0JK2JV", "dateTime": 1515881628037}, {"current_trial": 236, "trialdata": {"rt": -1000, "trial_type": "single-audio", "word": "report", "stimulus": "/static/audio/wordpool/REPORT.wav", "conditions": [24, 800, "a", 24000], "internal_node_id": "0.0-173.0", "trial": 6, "time_elapsed": 1140854, "serialpos": 11, "key_press": -1, "wordID": 1183, "type": "PRES_AUD", "trial_index": 236}, "uniqueid": "MTK1428:30ZX6P7VF92IEKPCATDOXOSG0JK2JV", "dateTime": 1515881630008}, {"current_trial": 237, "trialdata": {"rt": -1000, "trial_type": "single-audio", "word": "turnip", "stimulus": "/static/audio/wordpool/TURNIP.wav", "conditions": [24, 800, "a", 24000], "internal_node_id": "0.0-174.0", "trial": 6, "time_elapsed": 1142544, "serialpos": 12, "key_press": -1, "wordID": 1520, "type": "PRES_AUD", "trial_index": 237}, "uniqueid": "MTK1428:30ZX6P7VF92IEKPCATDOXOSG0JK2JV", "dateTime": 1515881631698}, {"current_trial": 238, "trialdata": {"rt": -1000, "trial_type": "single-audio", "word": "bank", "stimulus": "/static/audio/wordpool/BANK.wav", "conditions": [24, 800, "a", 24000], "internal_node_id": "0.0-175.0", "trial": 6, "time_elapsed": 1144505, "serialpos": 13, "key_press": -1, "wordID": 82, "type": "PRES_AUD", "trial_index": 238}, "uniqueid": "MTK1428:30ZX6P7VF92IEKPCATDOXOSG0JK2JV", "dateTime": 1515881633659}, {"current_trial": 239, "trialdata": {"rt": -1000, "trial_type": "single-audio", "word": "tile", "stimulus": "/static/audio/wordpool/TILE.wav", "conditions": [24, 800, "a", 24000], "internal_node_id": "0.0-176.0", "trial": 6, "time_elapsed": 1146431, "serialpos": 14, "key_press": -1, "wordID": 1467, "type": "PRES_AUD", "trial_index": 239}, "uniqueid": "MTK1428:30ZX6P7VF92IEKPCATDOXOSG0JK2JV", "dateTime": 1515881635585}, {"current_trial": 240, "trialdata": {"rt": -1000, "trial_type": "single-audio", "word": "husband", "stimulus": "/static/audio/wordpool/HUSBAND.wav", "conditions": [24, 800, "a", 24000], "internal_node_id": "0.0-177.0", "trial": 6, "time_elapsed": 1148261, "serialpos": 15, "key_press": -1, "wordID": 727, "type": "PRES_AUD", "trial_index": 240}, "uniqueid": "MTK1428:30ZX6P7VF92IEKPCATDOXOSG0JK2JV", "dateTime": 1515881637415}, {"current_trial": 241, "trialdata": {"rt": -1000, "trial_type": "single-audio", "word": "daughter", "stimulus": "/static/audio/wordpool/DAUGHTER.wav", "conditions": [24, 800, "a", 24000], "internal_node_id": "0.0-178.0", "trial": 6, "time_elapsed": 1150246, "serialpos": 16, "key_press": -1, "wordID": 441, "type": "PRES_AUD", "trial_index": 241}, "uniqueid": "MTK1428:30ZX6P7VF92IEKPCATDOXOSG0JK2JV", "dateTime": 1515881639401}, {"current_trial": 242, "trialdata": {"rt": -1000, "trial_type": "single-audio", "word": "forehead", "stimulus": "/static/audio/wordpool/FOREHEAD.wav", "conditions": [24, 800, "a", 24000], "internal_node_id": "0.0-179.0", "trial": 6, "time_elapsed": 1152006, "serialpos": 17, "key_press": -1, "wordID": 591, "type": "PRES_AUD", "trial_index": 242}, "uniqueid": "MTK1428:30ZX6P7VF92IEKPCATDOXOSG0JK2JV", "dateTime": 1515881641160}, {"current_trial": 243, "trialdata": {"rt": -1000, "trial_type": "single-audio", "word": "brick", "stimulus": "/static/audio/wordpool/BRICK.wav", "conditions": [24, 800, "a", 24000], "internal_node_id": "0.0-180.0", "trial": 6, "time_elapsed": 1153656, "serialpos": 18, "key_press": -1, "wordID": 171, "type": "PRES_AUD", "trial_index": 243}, "uniqueid": "MTK1428:30ZX6P7VF92IEKPCATDOXOSG0JK2JV", "dateTime": 1515881642810}, {"current_trial": 244, "trialdata": {"rt": -1000, "trial_type": "single-audio", "word": "gift", "stimulus": "/static/audio/wordpool/GIFT.wav", "conditions": [24, 800, "a", 24000], "internal_node_id": "0.0-181.0", "trial": 6, "time_elapsed": 1155575, "serialpos": 19, "key_press": -1, "wordID": 634, "type": "PRES_AUD", "trial_index": 244}, "uniqueid": "MTK1428:30ZX6P7VF92IEKPCATDOXOSG0JK2JV", "dateTime": 1515881644729}, {"current_trial": 245, "trialdata": {"rt": -1000, "trial_type": "single-audio", "word": "arm", "stimulus": "/static/audio/wordpool/ARM.wav", "conditions": [24, 800, "a", 24000], "internal_node_id": "0.0-182.0", "trial": 6, "time_elapsed": 1157375, "serialpos": 20, "key_press": -1, "wordID": 37, "type": "PRES_AUD", "trial_index": 245}, "uniqueid": "MTK1428:30ZX6P7VF92IEKPCATDOXOSG0JK2JV", "dateTime": 1515881646529}, {"current_trial": 246, "tria