{"condition": 0, "counterbalance": 19, "assignmentId": "3C5W7UE9CGX9G8YU1FB936ETF3PMXZ", "workerId": "MTK1044", "hitId": "3CIS7GGG65QH0WESPA71H7EWWA6EUQ", "currenttrial": 626, "bonus": 0, "data": [{"uniqueid": "MTK1044:3C5W7UE9CGX9G8YU1FB936ETF3PMXZ", "current_trial": 0, "dateTime": 1513017930414, "trialdata": {"rt": 2363, "key_press": 101, "type": "INSTRUCTIONS", "trial_type": "text", "trial_index": 0, "time_elapsed": 2367, "internal_node_id": "0.0-0.0"}}, {"uniqueid": "MTK1044:3C5W7UE9CGX9G8YU1FB936ETF3PMXZ", "current_trial": 1, "dateTime": 1513018009201, "trialdata": {"rt": 78784, "key_press": 71, "type": "INSTRUCTIONS", "trial_type": "text", "trial_index": 1, "time_elapsed": 81156, "internal_node_id": "0.0-1.0"}}, {"uniqueid": "MTK1044:3C5W7UE9CGX9G8YU1FB936ETF3PMXZ", "current_trial": 2, "dateTime": 1513018022648, "trialdata": {"rt": [13393], "responses": ["ocean"], "type": "AUDIO_TEST", "trial_type": "audio-test", "trial_index": 2, "time_elapsed": 94603, "internal_node_id": "0.0-2.0"}}, {"uniqueid": "MTK1044:3C5W7UE9CGX9G8YU1FB936ETF3PMXZ", "current_trial": 3, "dateTime": 1513018029248, "trialdata": {"rt": [6596], "responses": ["crystal"], "type": "AUDIO_TEST", "trial_type": "audio-test", "trial_index": 3, "time_elapsed": 101203, "internal_node_id": "0.0-3.0"}}, {"uniqueid": "MTK1044:3C5W7UE9CGX9G8YU1FB936ETF3PMXZ", "current_trial": 4, "dateTime": 1513018035025, "trialdata": {"rt": [5771], "responses": ["spice"], "type": "AUDIO_TEST", "trial_type": "audio-test", "trial_index": 4, "time_elapsed": 106979, "internal_node_id": "0.0-4.0"}}, {"uniqueid": "MTK1044:3C5W7UE9CGX9G8YU1FB936ETF3PMXZ", "current_trial": 5, "dateTime": 1513018053138, "trialdata": {"rt": 17359, "responses": "{\"Q0\":\"10:00\",\"Q1\":\"6:00\",\"Q2\":\"5\"}", "type": "SLEEP_SURVEY", "trial_type": "survey-text", "trial_index": 5, "time_elapsed": 125093, "internal_node_id": "0.0-5.0"}}, {"uniqueid": "MTK1044:3C5W7UE9CGX9G8YU1FB936ETF3PMXZ", "current_trial": 6, "dateTime": 1513018112903, "trialdata": {"rt": 58763, "key_press": 71, "type": "INSTRUCTIONS", "trial_type": "text", "trial_index": 6, "time_elapsed": 184858, "internal_node_id": "0.0-6.0"}}, {"uniqueid": "MTK1044:3C5W7UE9CGX9G8YU1FB936ETF3PMXZ", "current_trial": 7, "dateTime": 1513018128560, "trialdata": {"rt": 15155, "key_press": 32, "type": "INSTRUCTIONS", "trial_type": "text", "trial_index": 7, "time_elapsed": 200515, "internal_node_id": "0.0-7.0"}}, {"uniqueid": "MTK1044:3C5W7UE9CGX9G8YU1FB936ETF3PMXZ", "current_trial": 8, "dateTime": 1513018140816, "trialdata": {"rt": 11754, "key_press": 32, "type": "INSTRUCTIONS", "trial_type": "text", "trial_index": 8, "time_elapsed": 212771, "internal_node_id": "0.0-8.0"}}, {"uniqueid": "MTK1044:3C5W7UE9CGX9G8YU1FB936ETF3PMXZ", "current_trial": 9, "dateTime": 1513018159880, "trialdata": {"rt": [6665, 8689, 10513, 12082, 14745, 16337], "responses": ["12", "5", "10", "8", "8", "17"], "num1": [6, 2, 5, 1, 1, 5, 3], "num2": [5, 2, 4, 5, 3, 5, 5], "num3": [1, 1, 1, 2, 4, 7, 6], "type": "DISTRACTOR", "conditions": [18, 1200, "v", 18000], "trial": 0, "trial_type": "math-distractor", "trial_index": 9, "time_elapsed": 231835, "internal_node_id": "0.0-9.0"}}, {"uniqueid": "MTK1044:3C5W7UE9CGX9G8YU1FB936ETF3PMXZ", "current_trial": 10, "dateTime": 1513018162886, "trialdata": {"rt": -1, "stimulus": "<p id=\"stim\">10</p>", "key_press": -1, "trial_type": "single-stim", "trial_index": 10, "time_elapsed": 234840, "internal_node_id": "0.0-10.0-0.0"}}, {"uniqueid": "MTK1044:3C5W7UE9CGX9G8YU1FB936ETF3PMXZ", "current_trial": 11, "dateTime": 1513018163889, "trialdata": {"rt": -1, "stimulus": "<p id=\"stim\">9</p>", "key_press": -1, "trial_type": "single-stim", "trial_index": 11, "time_elapsed": 235844, "internal_node_id": "0.0-10.0-1.0"}}, {"uniqueid": "MTK1044:3C5W7UE9CGX9G8YU1FB936ETF3PMXZ", "current_trial": 12, "dateTime": 1513018164891, "trialdata": {"rt": -1, "stimulus": "<p id=\"stim\">8</p>", "key_press": -1, "trial_type": "single-stim", "trial_index": 12, "time_elapsed": 236846, "internal_node_id": "0.0-10.0-2.0"}}, {"uniqueid": "MTK1044:3C5W7UE9CGX9G8YU1FB936ETF3PMXZ", "current_trial": 13, "dateTime": 1513018165894, "trialdata": {"rt": -1, "stimulus": "<p id=\"stim\">7</p>", "key_press": -1, "trial_type": "single-stim", "trial_index": 13, "time_elapsed": 237849, "internal_node_id": "0.0-10.0-3.0"}}, {"uniqueid": "MTK1044:3C5W7UE9CGX9G8YU1FB936ETF3PMXZ", "current_trial": 14, "dateTime": 1513018166896, "trialdata": {"rt": -1, "stimulus": "<p id=\"stim\">6</p>", "key_press": -1, "trial_type": "single-stim", "trial_index": 14, "time_elapsed": 238851, "internal_node_id": "0.0-10.0-4.0"}}, {"uniqueid": "MTK1044:3C5W7UE9CGX9G8YU1FB936ETF3PMXZ", "current_trial": 15, "dateTime": 1513018167899, "trialdata": {"rt": -1, "stimulus": "<p id=\"stim\">5</p>", "key_press": -1, "trial_type": "single-stim", "trial_index": 15, "time_elapsed": 239854, "internal_node_id": "0.0-10.0-5.0"}}, {"uniqueid": "MTK1044:3C5W7UE9CGX9G8YU1FB936ETF3PMXZ", "current_trial": 16, "dateTime": 1513018168901, "trialdata": {"rt": -1, "stimulus": "<p id=\"stim\">4</p>", "key_press": -1, "trial_type": "single-stim", "trial_index": 16, "time_elapsed": 240856, "internal_node_id": "0.0-10.0-6.0"}}, {"uniqueid": "MTK1044:3C5W7UE9CGX9G8YU1FB936ETF3PMXZ", "current_trial": 17, "dateTime": 1513018169903, "trialdata": {"rt": -1, "stimulus": "<p id=\"stim\">3</p>", "key_press": -1, "trial_type": "single-stim", "trial_index": 17, "time_elapsed": 241858, "internal_node_id": "0.0-10.0-7.0"}}, {"uniqueid": "MTK1044:3C5W7UE9CGX9G8YU1FB936ETF3PMXZ", "current_trial": 18, "dateTime": 1513018170904, "trialdata": {"rt": -1, "stimulus": "<p id=\"stim\">2</p>", "key_press": -1, "trial_type": "single-stim", "trial_index": 18, "time_elapsed": 242859, "internal_node_id": "0.0-10.0-8.0"}}, {"uniqueid": "MTK1044:3C5W7UE9CGX9G8YU1FB936ETF3PMXZ", "current_trial": 19, "dateTime": 1513018171907, "trialdata": {"rt": -1, "stimulus": "<p id=\"stim\">1</p>", "key_press": -1, "trial_type": "single-stim", "trial_index": 19, "time_elapsed": 243861, "internal_node_id": "0.0-10.0-9.0"}}, {"uniqueid": "MTK1044:3C5W7UE9CGX9G8YU1FB936ETF3PMXZ", "current_trial": 20, "dateTime": 1513018173409, "trialdata": {"rt": -1, "stimulus": "<p id=\"stim\">+</p>", "key_press": -1, "type": "FIXATION", "trial_type": "single-stim", "trial_index": 20, "time_elapsed": 245363, "internal_node_id": "0.0-11.0-0.0"}}, {"uniqueid": "MTK1044:3C5W7UE9CGX9G8YU1FB936ETF3PMXZ", "current_trial": 21, "dateTime": 1513018174612, "trialdata": {"rt": -1, "stimulus": "<p id=\"stim\">KITCHEN</p>", "key_press": -1, "type": "PRES_VIS", "word": "kitchen", "wordID": 777, "conditions": [18, 1200, "v", 18000], "trial": 0, "serialpos": 0, "trial_type": "single-stim", "trial_index": 21, "time_elapsed": 246566, "internal_node_id": "0.0-12.0"}}, {"uniqueid": "MTK1044:3C5W7UE9CGX9G8YU1FB936ETF3PMXZ", "current_trial": 22, "dateTime": 1513018176928, "trialdata": {"rt": -1, "stimulus": "<p id=\"stim\">SNAIL</p>", "key_press": -1, "type": "PRES_VIS", "word": "snail", "wordID": 1331, "conditions": [18, 1200, "v", 18000], "trial": 0, "serialpos": 1, "trial_type": "single-stim", "trial_index": 22, "time_elapsed": 248883, "internal_node_id": "0.0-13.0"}}, {"uniqueid": "MTK1044:3C5W7UE9CGX9G8YU1FB936ETF3PMXZ", "current_trial": 23, "dateTime": 1513018179213, "trialdata": {"rt": -1, "stimulus": "<p id=\"stim\">CELLAR</p>", "key_press": -1, "type": "PRES_VIS", "word": "cellar", "wordID": 266, "conditions": [18, 1200, "v", 18000], "trial": 0, "serialpos": 2, "trial_type": "single-stim", "trial_index": 23, "time_elapsed": 251168, "internal_node_id": "0.0-14.0"}}, {"uniqueid": "MTK1044:3C5W7UE9CGX9G8YU1FB936ETF3PMXZ", "current_trial": 24, "dateTime": 1513018181309, "trialdata": {"rt": -1, "stimulus": "<p id=\"stim\">WARDROBE</p>", "key_press": -1, "type": "PRES_VIS", "word": "wardrobe", "wordID": 1586, "conditions": [18, 1200, "v", 18000], "trial": 0, "serialpos": 3, "trial_type": "single-stim", "trial_index": 24, "time_elapsed": 253264, "internal_node_id": "0.0-15.0"}}, {"uniqueid": "MTK1044:3C5W7UE9CGX9G8YU1FB936ETF3PMXZ", "current_trial": 25, "dateTime": 1513018183516, "trialdata": {"rt": -1, "stimulus": "<p id=\"stim\">LUNCH</p>", "key_press": -1, "type": "PRES_VIS", "word": "lunch", "wordID": 848, "conditions": [18, 1200, "v", 18000], "trial": 0, "serialpos": 4, "trial_type": "single-stim", "trial_index": 25, "time_elapsed": 255471, "internal_node_id": "0.0-16.0"}}, {"uniqueid": "MTK1044:3C5W7UE9CGX9G8YU1FB936ETF3PMXZ", "current_trial": 26, "dateTime": 1513018185886, "trialdata": {"rt": -1, "stimulus": "<p id=\"stim\">TUNNEL</p>", "key_press": -1, "type": "PRES_VIS", "word": "tunnel", "wordID": 1518, "conditions": [18, 1200, "v", 18000], "trial": 0, "serialpos": 5, "trial_type": "single-stim", "trial_index": 26, "time_elapsed": 257841, "internal_node_id": "0.0-17.0"}}, {"uniqueid": "MTK1044:3C5W7UE9CGX9G8YU1FB936ETF3PMXZ", "current_trial": 27, "dateTime": 1513018188253, "trialdata": {"rt": -1, "stimulus": "<p id=\"stim\">DRIVER</p>", "key_press": -1, "type": "PRES_VIS", "word": "driver", "wordID": 498, "conditions": [18, 1200, "v", 18000], "trial": 0, "serialpos": 6, "trial_type": "single-stim", "trial_index": 27, "time_elapsed": 260208, "internal_node_id": "0.0-18.0"}}, {"uniqueid": "MTK1044:3C5W7UE9CGX9G8YU1FB936ETF3PMXZ", "current_trial": 28, "dateTime": 1513018190300, "trialdata": {"rt": -1, "stimulus": "<p id=\"stim\">STOMACH</p>", "key_press": -1, "type": "PRES_VIS", "word": "stomach", "wordID": 1383, "conditions": [18, 1200, "v", 18000], "trial": 0, "serialpos": 7, "trial_type": "single-stim", "trial_index": 28, "time_elapsed": 262255, "internal_node_id": "0.0-19.0"}}, {"uniqueid": "MTK1044:3C5W7UE9CGX9G8YU1FB936ETF3PMXZ", "current_trial": 29, "dateTime": 1513018192314, "trialdata": {"rt": -1, "stimulus": "<p id=\"stim\">WASHER</p>", "key_press": -1, "type": "PRES_VIS", "word": "washer", "wordID": 1591, "conditions": [18, 1200, "v", 18000], "trial": 0, "serialpos": 8, "trial_type": "single-stim", "trial_index": 29, "time_elapsed": 264268, "internal_node_id": "0.0-20.0"}}, {"uniqueid": "MTK1044:3C5W7UE9CGX9G8YU1FB936ETF3PMXZ", "current_trial": 30, "dateTime": 1513018194544, "trialdata": {"rt": -1, "stimulus": "<p id=\"stim\">MARINE</p>", "key_press": -1, "type": "PRES_VIS", "word": "marine", "wordID": 868, "conditions": [18, 1200, "v", 18000], "trial": 0, "serialpos": 9, "trial_type": "single-stim", "trial_index": 30, "time_elapsed": 266498, "internal_node_id": "0.0-21.0"}}, {"uniqueid": "MTK1044:3C5W7UE9CGX9G8YU1FB936ETF3PMXZ", "current_trial": 31, "dateTime": 1513018196615, "trialdata": {"rt": -1, "stimulus": "<p id=\"stim\">EXPERT</p>", "key_press": -1, "type": "PRES_VIS", "word": "expert", "wordID": 542, "conditions": [18, 1200, "v", 18000], "trial": 0, "serialpos": 10, "trial_type": "single-stim", "trial_index": 31, "time_elapsed": 268570, "internal_node_id": "0.0-22.0"}}, {"uniqueid": "MTK1044:3C5W7UE9CGX9G8YU1FB936ETF3PMXZ", "current_trial": 32, "dateTime": 1513018198651, "trialdata": {"rt": -1, "stimulus": "<p id=\"stim\">SISTER</p>", "key_press": -1, "type": "PRES_VIS", "word": "sister", "wordID": 1311, "conditions": [18, 1200, "v", 18000], "trial": 0, "serialpos": 11, "trial_type": "single-stim", "trial_index": 32, "time_elapsed": 270606, "internal_node_id": "0.0-23.0"}}, {"uniqueid": "MTK1044:3C5W7UE9CGX9G8YU1FB936ETF3PMXZ", "current_trial": 33, "dateTime": 1513018200768, "trialdata": {"rt": -1, "stimulus": "<p id=\"stim\">KNAPSACK</p>", "key_press": -1, "type": "PRES_VIS", "word": "knapsack", "wordID": 782, "conditions": [18, 1200, "v", 18000], "trial": 0, "serialpos": 12, "trial_type": "single-stim", "trial_index": 33, "time_elapsed": 272723, "internal_node_id": "0.0-24.0"}}, {"uniqueid": "MTK1044:3C5W7UE9CGX9G8YU1FB936ETF3PMXZ", "current_trial": 34, "dateTime": 1513018203016, "trialdata": {"rt": -1, "stimulus": "<p id=\"stim\">FRIEND</p>", "key_press": -1, "type": "PRES_VIS", "word": "friend", "wordID": 605, "conditions": [18, 1200, "v", 18000], "trial": 0, "serialpos": 13, "trial_type": "single-stim", "trial_index": 34, "time_elapsed": 274971, "internal_node_id": "0.0-25.0"}}, {"uniqueid": "MTK1044:3C5W7UE9CGX9G8YU1FB936ETF3PMXZ", "current_trial": 35, "dateTime": 1513018205022, "trialdata": {"rt": -1, "stimulus": "<p id=\"stim\">MAILMAN</p>", "key_press": -1, "type": "PRES_VIS", "word": "mailman", "wordID": 857, "conditions": [18, 1200, "v", 18000], "trial": 0, "serialpos": 14, "trial_type": "single-stim", "trial_index": 35, "time_elapsed": 276976, "internal_node_id": "0.0-26.0"}}, {"uniqueid": "MTK1044:3C5W7UE9CGX9G8YU1FB936ETF3PMXZ", "current_trial": 36, "dateTime": 1513018207225, "trialdata": {"rt": -1, "stimulus": "<p id=\"stim\">BRANCH</p>", "key_press": -1, "type": "PRES_VIS", "word": "branch", "wordID": 167, "conditions": [18, 1200, "v", 18000], "trial": 0, "serialpos": 15, "trial_type": "single-stim", "trial_index": 36, "time_elapsed": 279179, "internal_node_id": "0.0-27.0"}}, {"uniqueid": "MTK1044:3C5W7UE9CGX9G8YU1FB936ETF3PMXZ", "current_trial": 37, "dateTime": 1513018209411, "trialdata": {"rt": -1, "stimulus": "<p id=\"stim\">RIVER</p>", "key_press": -1, "type": "PRES_VIS", "word": "river", "wordID": 1193, "conditions": [18, 1200, "v", 18000], "trial": 0, "serialpos": 16, "trial_type": "single-stim", "trial_index": 37, "time_elapsed": 281366, "internal_node_id": "0.0-28.0"}}, {"uniqueid": "MTK1044:3C5W7UE9CGX9G8YU1FB936ETF3PMXZ", "current_trial": 38, "dateTime": 1513018211686, "trialdata": {"rt": -1, "stimulus": "<p id=\"stim\">SKIRT</p>", "key_press": -1, "type": "PRES_VIS", "word": "skirt", "wordID": 1318, "conditions": [18, 1200, "v", 18000], "trial": 0, "serialpos": 17, "trial_type": "single-stim", "trial_index": 38, "time_elapsed": 283641, "internal_node_id": "0.0-29.0"}}, {"uniqueid": "MTK1044:3C5W7UE9CGX9G8YU1FB936ETF3PMXZ", "current_trial": 39, "dateTime": 1513018213827, "trialdata": {"rt": -1, "stimulus": "", "key_press": -1, "type": "PRE_RECALL_DELAY", "trial_type": "single-stim", "trial_index": 39, "time_elapsed": 285782, "internal_node_id": "0.0-30.0-0.0"}}, {"uniqueid": "MTK1044:3C5W7UE9CGX9G8YU1FB936ETF3PMXZ", "current_trial": 40, "dateTime": 1513018214332, "trialdata": {"rt": -1000, "stimulus": "/static/audio/400Hz.wav", "key_press": -1, "type": "PRE_RECALL_ALERT", "trial_type": "single-audio", "trial_index": 40, "time_elapsed": 286287, "internal_node_id": "0.0-31.0"}}, {"uniqueid": "MTK1044:3C5W7UE9CGX9G8YU1FB936ETF3PMXZ", "current_trial": 41, "dateTime": 1513018274343, "trialdata": {"rt": [3127, 5470, 6670, 8047, 10711, 12175, 14286, 18056, 21358, 41790], "recwords": ["skirt", "river", "mailman", "friend", "expert", "marine", "kitchen", "cellar", "wardrobe", "snail"], "type": "FREE_RECALL", "conditions": [18, 1200, "v", 18000], "trial": 0, "trial_type": "free-recall", "trial_index": 41, "time_elapsed": 346293, "internal_node_id": "0.0-32.0-0.0"}}, {"uniqueid": "MTK1044:3C5W7UE9CGX9G8YU1FB936ETF3PMXZ", "current_trial": 42, "dateTime": 1513018280118, "trialdata": {"rt": 3773, "key_press": 13, "type": "INSTRUCTIONS", "trial_type": "text", "trial_index": 42, "time_elapsed": 352073, "internal_node_id": "0.0-33.0"}}, {"uniqueid": "MTK1044:3C5W7UE9CGX9G8YU1FB936ETF3PMXZ", "current_trial": 43, "dateTime": 1513018300125, "trialdata": {"rt": [2660, 4508, 8740, 12428, 13852, 15155, 17660], "responses": ["6", "14", "14", "13", "15", "8", "12"], "num1": [1, 7, 3, 5, 5, 1, 4, 8], "num2": [3, 1, 4, 1, 9, 3, 5, 5], "num3": [2, 6, 8, 7, 1, 4, 3, 2], "type": "DISTRACTOR", "conditions": [18, 1200, "a", 18000], "trial": 1, "trial_type": "math-distractor", "trial_index": 43, "time_elapsed": 372079, "internal_node_id": "0.0-34.0"}}, {"uniqueid": "MTK1044:3C5W7UE9CGX9G8YU1FB936ETF3PMXZ", "current_trial": 44, "dateTime": 1513018303127, "trialdata": {"rt": -1, "stimulus": "<p id=\"stim\">10</p>", "key_press": -1, "trial_type": "single-stim", "trial_index": 44, "time_elapsed": 375082, "internal_node_id": "0.0-35.0-0.0"}}, {"uniqueid": "MTK1044:3C5W7UE9CGX9G8YU1FB936ETF3PMXZ", "current_trial": 45, "dateTime": 1513018304130, "trialdata": {"rt": -1, "stimulus": "<p id=\"stim\">9</p>", "key_press": -1, "trial_type": "single-stim", "trial_index": 45, "time_elapsed": 376085, "internal_node_id": "0.0-35.0-1.0"}}, {"uniqueid": "MTK1044:3C5W7UE9CGX9G8YU1FB936ETF3PMXZ", "current_trial": 46, "dateTime": 1513018305131, "trialdata": {"rt": -1, "stimulus": "<p id=\"stim\">8</p>", "key_press": -1, "trial_type": "single-stim", "trial_index": 46, "time_elapsed": 377085, "internal_node_id": "0.0-35.0-2.0"}}, {"uniqueid": "MTK1044:3C5W7UE9CGX9G8YU1FB936ETF3PMXZ", "current_trial": 47, "dateTime": 1513018306133, "trialdata": {"rt": -1, "stimulus": "<p id=\"stim\">7</p>", "key_press": -1, "trial_type": "single-stim", "trial_index": 47, "time_elapsed": 378088, "internal_node_id": "0.0-35.0-3.0"}}, {"uniqueid": "MTK1044:3C5W7UE9CGX9G8YU1FB936ETF3PMXZ", "current_trial": 48, "dateTime": 1513018307136, "trialdata": {"rt": -1, "stimulus": "<p id=\"stim\">6</p>", "key_press": -1, "trial_type": "single-stim", "trial_index": 48, "time_elapsed": 379090, "internal_node_id": "0.0-35.0-4.0"}}, {"uniqueid": "MTK1044:3C5W7UE9CGX9G8YU1FB936ETF3PMXZ", "current_trial": 49, "dateTime": 1513018308137, "trialdata": {"rt": -1, "stimulus": "<p id=\"stim\">5</p>", "key_press": -1, "trial_type": "single-stim", "trial_index": 49, "time_elapsed": 380091, "internal_node_id": "0.0-35.0-5.0"}}, {"uniqueid": "MTK1044:3C5W7UE9CGX9G8YU1FB936ETF3PMXZ", "current_trial": 50, "dateTime": 1513018309139, "trialdata": {"rt": -1, "stimulus": "<p id=\"stim\">4</p>", "key_press": -1, "trial_type": "single-stim", "trial_index": 50, "time_elapsed": 381093, "internal_node_id": "0.0-35.0-6.0"}}, {"uniqueid": "MTK1044:3C5W7UE9CGX9G8YU1FB936ETF3PMXZ", "current_trial": 51, "dateTime": 1513018310141, "trialdata": {"rt": -1, "stimulus": "<p id=\"stim\">3</p>", "key_press": -1, "trial_type": "single-stim", "trial_index": 51, "time_elapsed": 382096, "internal_node_id": "0.0-35.0-7.0"}}, {"uniqueid": "MTK1044:3C5W7UE9CGX9G8YU1FB936ETF3PMXZ", "current_trial": 52, "dateTime": 1513018311144, "trialdata": {"rt": -1, "stimulus": "<p id=\"stim\">2</p>", "key_press": -1, "trial_type": "single-stim", "trial_index": 52, "time_elapsed": 383098, "internal_node_id": "0.0-35.0-8.0"}}, {"uniqueid": "MTK1044:3C5W7UE9CGX9G8YU1FB936ETF3PMXZ", "current_trial": 53, "dateTime": 1513018312145, "trialdata": {"rt": -1, "stimulus": "<p id=\"stim\">1</p>", "key_press": -1, "trial_type": "single-stim", "trial_index": 53, "time_elapsed": 384100, "internal_node_id": "0.0-35.0-9.0"}}, {"uniqueid": "MTK1044:3C5W7UE9CGX9G8YU1FB936ETF3PMXZ", "current_trial": 54, "dateTime": 1513018313648, "trialdata": {"rt": -1, "stimulus": "<p id=\"stim\">+</p>", "key_press": -1, "type": "FIXATION", "trial_type": "single-stim", "trial_index": 54, "time_elapsed": 385602, "internal_node_id": "0.0-36.0-0.0"}}, {"uniqueid": "MTK1044:3C5W7UE9CGX9G8YU1FB936ETF3PMXZ", "current_trial": 55, "dateTime": 1513018315887, "trialdata": {"rt": -1000, "stimulus": "/static/audio/wordpool/PRINCESS.wav", "key_press": -1, "type": "PRES_AUD", "word": "princess", "wordID": 1124, "conditions": [18, 1200, "a", 18000], "trial": 1, "serialpos": 0, "trial_type": "single-audio", "trial_index": 55, "time_elapsed": 387842, "internal_node_id": "0.0-37.0"}}, {"uniqueid": "MTK1044:3C5W7UE9CGX9G8YU1FB936ETF3PMXZ", "current_trial": 56, "dateTime": 1513018318208, "trialdata": {"rt": -1000, "stimulus": "/static/audio/wordpool/DANCER.wav", "key_press": -1, "type": "PRES_AUD", "word": "dancer", "wordID": 436, "conditions": [18, 1200, "a", 18000], "trial": 1, "serialpos": 1, "trial_type": "single-audio", "trial_index": 56, "time_elapsed": 390163, "internal_node_id": "0.0-38.0"}}, {"uniqueid": "MTK1044:3C5W7UE9CGX9G8YU1FB936ETF3PMXZ", "current_trial": 57, "dateTime": 1513018320376, "trialdata": {"rt": -1000, "stimulus": "/static/audio/wordpool/FUNGUS.wav", "key_press": -1, "type": "PRES_AUD", "word": "fungus", "wordID": 613, "conditions": [18, 1200, "a", 18000], "trial": 1, "serialpos": 2, "trial_type": "single-audio", "trial_index": 57, "time_elapsed": 392331, "internal_node_id": "0.0-39.0"}}, {"uniqueid": "MTK1044:3C5W7UE9CGX9G8YU1FB936ETF3PMXZ", "current_trial": 58, "dateTime": 1513018322698, "trialdata": {"rt": -1000, "stimulus": "/static/audio/wordpool/JELLO.wav", "key_press": -1, "type": "PRES_AUD", "word": "jello", "wordID": 753, "conditions": [18, 1200, "a", 18000], "trial": 1, "serialpos": 3, "trial_type": "single-audio", "trial_index": 58, "time_elapsed": 394653, "internal_node_id": "0.0-40.0"}}, {"uniqueid": "MTK1044:3C5W7UE9CGX9G8YU1FB936ETF3PMXZ", "current_trial": 59, "dateTime": 1513018325023, "trialdata": {"rt": -1000, "stimulus": "/static/audio/wordpool/COMPASS.wav", "key_press": -1, "type": "PRES_AUD", "word": "compass", "wordID": 357, "conditions": [18, 1200, "a", 18000], "trial": 1, "serialpos": 4, "trial_type": "single-audio", "trial_index": 59, "time_elapsed": 396978, "internal_node_id": "0.0-41.0"}}, {"uniqueid": "MTK1044:3C5W7UE9CGX9G8YU1FB936ETF3PMXZ", "current_trial": 60, "dateTime": 1513018327200, "trialdata": {"rt": -1000, "stimulus": "/static/audio/wordpool/HEART.wav", "key_press": -1, "type": "PRES_AUD", "word": "heart", "wordID": 696, "conditions": [18, 1200, "a", 18000], "trial": 1, "serialpos": 5, "trial_type": "single-audio", "trial_index": 60, "time_elapsed": 399155, "internal_node_id": "0.0-42.0"}}, {"uniqueid": "MTK1044:3C5W7UE9CGX9G8YU1FB936ETF3PMXZ", "current_trial": 61, "dateTime": 1513018329232, "trialdata": {"rt": -1000, "stimulus": "/static/audio/wordpool/LABEL.wav", "key_press": -1, "type": "PRES_AUD", "word": "label", "wordID": 789, "conditions": [18, 1200, "a", 18000], "trial": 1, "serialpos": 6, "trial_type": "single-audio", "trial_index": 61, "time_elapsed": 401187, "internal_node_id": "0.0-43.0"}}, {"uniqueid": "MTK1044:3C5W7UE9CGX9G8YU1FB936ETF3PMXZ", "current_trial": 62, "dateTime": 1513018331367, "trialdata": {"rt": -1000, "stimulus": "/static/audio/wordpool/JELLY.wav", "key_press": -1, "type": "PRES_AUD", "word": "jelly", "wordID": 754, "conditions": [18, 1200, "a", 18000], "trial": 1, "serialpos": 7, "trial_type": "single-audio", "trial_index": 62, "time_elapsed": 403322, "internal_node_id": "0.0-44.0"}}, {"uniqueid": "MTK1044:3C5W7UE9CGX9G8YU1FB936ETF3PMXZ", "current_trial": 63, "dateTime": 1513018333543, "trialdata": {"rt": -1000, "stimulus": "/static/audio/wordpool/TRUCK.wav", "key_press": -1, "type": "PRES_AUD", "word": "truck", "wordID": 1511, "conditions": [18, 1200, "a", 18000], "trial": 1, "serialpos": 8, "trial_type": "single-audio", "trial_index": 63, "time_elapsed": 405498, "internal_node_id": "0.0-45.0"}}, {"uniqueid": "MTK1044:3C5W7UE9CGX9G8YU1FB936ETF3PMXZ", "current_trial": 64, "dateTime": 1513018335665, "trialdata": {"rt": -1000, "stimulus": "/static/audio/wordpool/BEEF.wav", "key_press": -1, "type": "PRES_AUD", "word": "beef", "wordID": 112, "conditions": [18, 1200, "a", 18000], "trial": 1, "serialpos": 9, "trial_type": "single-audio", "trial_index": 64, "time_elapsed": 407620, "internal_node_id": "0.0-46.0"}}, {"uniqueid": "MTK1044:3C5W7UE9CGX9G8YU1FB936ETF3PMXZ", "current_trial": 65, "dateTime": 1513018337738, "trialdata": {"rt": -1000, "stimulus": "/static/audio/wordpool/DRAWING.wav", "key_press": -1, "type": "PRES_AUD", "word": "drawing", "wordID": 493, "conditions": [18, 1200, "a", 18000], "trial": 1, "serialpos": 10, "trial_type": "single-audio", "trial_index": 65, "time_elapsed": 409693, "internal_node_id": "0.0-47.0"}}, {"uniqueid": "MTK1044:3C5W7UE9CGX9G8YU1FB936ETF3PMXZ", "current_trial": 66, "dateTime": 1513018339755, "trialdata": {"rt": -1000, "stimulus": "/static/audio/wordpool/BASEMENT.wav", "key_press": -1, "type": "PRES_AUD", "word": "basement", "wordID": 93, "conditions": [18, 1200, "a", 18000], "trial": 1, "serialpos": 11, "trial_type": "single-audio", "trial_index": 66, "time_elapsed": 411710, "internal_node_id": "0.0-48.0"}}, {"uniqueid": "MTK1044:3C5W7UE9CGX9G8YU1FB936ETF3PMXZ", "current_trial": 67, "dateTime": 1513018342114, "trialdata": {"rt": -1000, "stimulus": "/static/audio/wordpool/DIVER.wav", "key_press": -1, "type": "PRES_AUD", "word": "diver", "wordID": 475, "conditions": [18, 1200, "a", 18000], "trial": 1, "serialpos": 12, "trial_type": "single-audio", "trial_index": 67, "time_elapsed": 414068, "internal_node_id": "0.0-49.0"}}, {"uniqueid": "MTK1044:3C5W7UE9CGX9G8YU1FB936ETF3PMXZ", "current_trial": 68, "dateTime": 1513018344134, "trialdata": {"rt": -1000, "stimulus": "/static/audio/wordpool/CLIMBER.wav", "key_press": -1, "type": "PRES_AUD", "word": "climber", "wordID": 322, "conditions": [18, 1200, "a", 18000], "trial": 1, "serialpos": 13, "trial_type": "single-audio", "trial_index": 68, "time_elapsed": 416089, "internal_node_id": "0.0-50.0"}}, {"uniqueid": "MTK1044:3C5W7UE9CGX9G8YU1FB936ETF3PMXZ", "current_trial": 69, "dateTime": 1513018346198, "trialdata": {"rt": -1000, "stimulus": "/static/audio/wordpool/LOFT.wav", "key_press": -1, "type": "PRES_AUD", "word": "loft", "wordID": 839, "conditions": [18, 1200, "a", 18000], "trial": 1, "serialpos": 14, "trial_type": "single-audio", "trial_index": 69, "time_elapsed": 418153, "internal_node_id": "0.0-51.0"}}, {"uniqueid": "MTK1044:3C5W7UE9CGX9G8YU1FB936ETF3PMXZ", "current_trial": 70, "dateTime": 1513018348601, "trialdata": {"rt": -1000, "stimulus": "/static/audio/wordpool/COUCH.wav", "key_press": -1, "type": "PRES_AUD", "word": "couch", "wordID": 385, "conditions": [18, 1200, "a", 18000], "trial": 1, "serialpos": 15, "trial_type": "single-audio", "trial_index": 70, "time_elapsed": 420556, "internal_node_id": "0.0-52.0"}}, {"uniqueid": "MTK1044:3C5W7UE9CGX9G8YU1FB936ETF3PMXZ", "current_trial": 71, "dateTime": 1513018350910, "trialdata": {"rt": -1000, "stimulus": "/static/audio/wordpool/TRIBE.wav", "key_press": -1, "type": "PRES_AUD", "word": "tribe", "wordID": 1504, "conditions": [18, 1200, "a", 18000], "trial": 1, "serialpos": 16, "trial_type": "single-audio", "trial_index": 71, "time_elapsed": 422865, "internal_node_id": "0.0-53.0"}}, {"uniqueid": "MTK1044:3C5W7UE9CGX9G8YU1FB936ETF3PMXZ", "current_trial": 72, "dateTime": 1513018353198, "trialdata": {"rt": -1000, "stimulus": "/static/audio/wordpool/MAPLE.wav", "key_press": -1, "type": "PRES_AUD", "word": "maple", "wordID": 865, "conditions": [18, 1200, "a", 18000], "trial": 1, "serialpos": 17, "trial_type": "single-audio", "trial_index": 72, "time_elapsed": 425153, "internal_node_id": "0.0-54.0"}}, {"uniqueid": "MTK1044:3C5W7UE9CGX9G8YU1FB936ETF3PMXZ", "current_trial": 73, "dateTime": 1513018354457, "trialdata": {"rt": -1, "stimulus": "", "key_press": -1, "type": "PRE_RECALL_DELAY", "trial_type": "single-stim", "trial_index": 73, "time_elapsed": 426412, "internal_node_id": "0.0-55.0-0.0"}}, {"uniqueid": "MTK1044:3C5W7UE9CGX9G8YU1FB936ETF3PMXZ", "current_trial": 74, "dateTime": 1513018354959, "trialdata": {"rt": -1000, "stimulus": "/static/audio/400Hz.wav", "key_press": -1, "type": "PRE_RECALL_ALERT", "trial_type": "single-audio", "trial_index": 74, "time_elapsed": 426914, "internal_node_id": "0.0-56.0"}}, {"uniqueid": "MTK1044:3C5W7UE9CGX9G8YU1FB936ETF3PMXZ", "current_trial": 75, "dateTime": 1513018414966, "trialdata": {"rt": [4830, 6482, 7746, 10554, 11450, 15387, 16914, 19792, 21597], "recwords": ["drawing", "climber", "diver", "basement", "maple", "heart", "compass", "dancer", "princess"], "type": "FREE_RECALL", "conditions": [18, 1200, "a", 18000], "trial": 1, "trial_type": "free-recall", "trial_index": 75, "time_elapsed": 486918, "internal_node_id": "0.0-57.0-0.0"}}, {"uniqueid": "MTK1044:3C5W7UE9CGX9G8YU1FB936ETF3PMXZ", "current_trial": 76, "dateTime": 1513018419213, "trialdata": {"rt": 2236, "key_press": 68, "type": "INSTRUCTIONS", "trial_type": "text", "trial_index": 76, "time_elapsed": 491159, "internal_node_id": "0.0-58.0"}}, {"uniqueid": "MTK1044:3C5W7UE9CGX9G8YU1FB936ETF3PMXZ", "current_trial": 77, "dateTime": 1513018432219, "trialdata": {"rt": [4066, 6010, 8250, 11994], "responses": ["16", "13", "16", "24"], "num1": [8, 2, 6, 9, 4], "num2": [3, 5, 7, 9, 3], "num3": [5, 6, 3, 6, 5], "type": "DISTRACTOR", "conditions": [24, 1600, "v", 12000], "trial": 2, "trial_type": "math-distractor", "trial_index": 77, "time_elapsed": 504174, "internal_node_id": "0.0-59.0"}}, {"uniqueid": "MTK1044:3C5W7UE9CGX9G8YU1FB936ETF3PMXZ", "current_trial": 78, "dateTime": 1513018435224, "trialdata": {"rt": -1, "stimulus": "<p id=\"stim\">10</p>", "key_press": -1, "trial_type": "single-stim", "trial_index": 78, "time_elapsed": 507179, "internal_node_id": "0.0-60.0-0.0"}}, {"uniqueid": "MTK1044:3C5W7UE9CGX9G8YU1FB936ETF3PMXZ", "current_trial": 79, "dateTime": 1513018436227, "trialdata": {"rt": -1, "stimulus": "<p id=\"stim\">9</p>", "key_press": -1, "trial_type": "single-stim", "trial_index": 79, "time_elapsed": 508182, "internal_node_id": "0.0-60.0-1.0"}}, {"uniqueid": "MTK1044:3C5W7UE9CGX9G8YU1FB936ETF3PMXZ", "current_trial": 80, "dateTime": 1513018437228, "trialdata": {"rt": -1, "stimulus": "<p id=\"stim\">8</p>", "key_press": -1, "trial_type": "single-stim", "trial_index": 80, "time_elapsed": 509183, "internal_node_id": "0.0-60.0-2.0"}}, {"uniqueid": "MTK1044:3C5W7UE9CGX9G8YU1FB936ETF3PMXZ", "current_trial": 81, "dateTime": 1513018438230, "trialdata": {"rt": -1, "stimulus": "<p id=\"stim\">7</p>", "key_press": -1, "trial_type": "single-stim", "trial_index": 81, "time_elapsed": 510185, "internal_node_id": "0.0-60.0-3.0"}}, {"uniqueid": "MTK1044:3C5W7UE9CGX9G8YU1FB936ETF3PMXZ", "current_trial": 82, "dateTime": 1513018439234, "trialdata": {"rt": -1, "stimulus": "<p id=\"stim\">6</p>", "key_press": -1, "trial_type": "single-stim", "trial_index": 82, "time_elapsed": 511189, "internal_node_id": "0.0-60.0-4.0"}}, {"uniqueid": "MTK1044:3C5W7UE9CGX9G8YU1FB936ETF3PMXZ", "current_trial": 83, "dateTime": 1513018440236, "trialdata": {"rt": -1, "stimulus": "<p id=\"stim\">5</p>", "key_press": -1, "trial_type": "single-stim", "trial_index": 83, "time_elapsed": 512190, "internal_node_id": "0.0-60.0-5.0"}}, {"uniqueid": "MTK1044:3C5W7UE9CGX9G8YU1FB936ETF3PMXZ", "current_trial": 84, "dateTime": 1513018441237, "trialdata": {"rt": -1, "stimulus": "<p id=\"stim\">4</p>", "key_press": -1, "trial_type": "single-stim", "trial_index": 84, "time_elapsed": 513192, "internal_node_id": "0.0-60.0-6.0"}}, {"uniqueid": "MTK1044:3C5W7UE9CGX9G8YU1FB936ETF3PMXZ", "current_trial": 85, "dateTime": 1513018442240, "trialdata": {"rt": -1, "stimulus": "<p id=\"stim\">3</p>", "key_press": -1, "trial_type": "single-stim", "trial_index": 85, "time_elapsed": 514194, "internal_node_id": "0.0-60.0-7.0"}}, {"uniqueid": "MTK1044:3C5W7UE9CGX9G8YU1FB936ETF3PMXZ", "current_trial": 86, "dateTime": 1513018443241, "trialdata": {"rt": -1, "stimulus": "<p id=\"stim\">2</p>", "key_press": -1, "trial_type": "single-stim", "trial_index": 86, "time_elapsed": 515196, "internal_node_id": "0.0-60.0-8.0"}}, {"uniqueid": "MTK1044:3C5W7UE9CGX9G8YU1FB936ETF3PMXZ", "current_trial": 87, "dateTime": 1513018444242, "trialdata": {"rt": -1, "stimulus": "<p id=\"stim\">1</p>", "key_press": -1, "trial_type": "single-stim", "trial_index": 87, "time_elapsed": 516197, "internal_node_id": "0.0-60.0-9.0"}}, {"uniqueid": "MTK1044:3C5W7UE9CGX9G8YU1FB936ETF3PMXZ", "current_trial": 88, "dateTime": 1513018445744, "trialdata": {"rt": -1, "stimulus": "<p id=\"stim\">+</p>", "key_press": -1, "type": "FIXATION", "trial_type": "single-stim", "trial_index": 88, "time_elapsed": 517699, "internal_node_id": "0.0-61.0-0.0"}}, {"uniqueid": "MTK1044:3C5W7UE9CGX9G8YU1FB936ETF3PMXZ", "current_trial": 89, "dateTime": 1513018447347, "trialdata": {"rt": -1, "stimulus": "<p id=\"stim\">HOOK</p>", "key_press": -1, "type": "PRES_VIS", "word": "hook", "wordID": 714, "conditions": [24, 1600, "v", 12000], "trial": 2, "serialpos": 0, "trial_type": "single-stim", "trial_index": 89, "time_elapsed": 519302, "internal_node_id": "0.0-62.0"}}, {"uniqueid": "MTK1044:3C5W7UE9CGX9G8YU1FB936ETF3PMXZ", "current_trial": 90, "dateTime": 1513018449947, "trialdata": {"rt": -1, "stimulus": "<p id=\"stim\">PASSAGE</p>", "key_press": -1, "type": "PRES_VIS", "word": "passage", "wordID": 1018, "conditions": [24, 1600, "v", 12000], "trial": 2, "serialpos": 1, "trial_type": "single-stim", "trial_index": 90, "time_elapsed": 521902, "internal_node_id": "0.0-63.0"}}, {"uniqueid": "MTK1044:3C5W7UE9CGX9G8YU1FB936ETF3PMXZ", "current_trial": 91, "dateTime": 1513018452551, "trialdata": {"rt": -1, "stimulus": "<p id=\"stim\">GARDEN</p>", "key_press": -1, "type": "PRES_VIS", "word": "garden", "wordID": 622, "conditions": [24, 1600, "v", 12000], "trial": 2, "serialpos": 2, "trial_type": "single-stim", "trial_index": 91, "time_elapsed": 524506, "internal_node_id": "0.0-64.0"}}, {"uniqueid": "MTK1044:3C5W7UE9CGX9G8YU1FB936ETF3PMXZ", "current_trial": 92, "dateTime": 1513018455297, "trialdata": {"rt": -1, "stimulus": "<p id=\"stim\">FLOWER</p>", "key_press": -1, "type": "PRES_VIS", "word": "flower", "wordID": 583, "conditions": [24, 1600, "v", 12000], "trial": 2, "serialpos": 3, "trial_type": "single-stim", "trial_index": 92, "time_elapsed": 527251, "internal_node_id": "0.0-65.0"}}, {"uniqueid": "MTK1044:3C5W7UE9CGX9G8YU1FB936ETF3PMXZ", "current_trial": 93, "dateTime": 1513018457993, "trialdata": {"rt": -1, "stimulus": "<p id=\"stim\">SWITCH</p>", "key_press": -1, "type": "PRES_VIS", "word": "switch", "wordID": 1421, "conditions": [24, 1600, "v", 12000], "trial": 2, "serialpos": 4, "trial_type": "single-stim", "trial_index": 93, "time_elapsed": 529948, "internal_node_id": "0.0-66.0"}}, {"uniqueid": "MTK1044:3C5W7UE9CGX9G8YU1FB936ETF3PMXZ", "current_trial": 94, "dateTime": 1513018460580, "trialdata": {"rt": -1, "stimulus": "<p id=\"stim\">MUMMY</p>", "key_press": -1, "type": "PRES_VIS", "word": "mummy", "wordID": 931, "conditions": [24, 1600, "v", 12000], "trial": 2, "serialpos": 5, "trial_type": "single-stim", "trial_index": 94, "time_elapsed": 532534, "internal_node_id": "0.0-67.0"}}, {"uniqueid": "MTK1044:3C5W7UE9CGX9G8YU1FB936ETF3PMXZ", "current_trial": 95, "dateTime": 1513018463238, "trialdata": {"rt": -1, "stimulus": "<p id=\"stim\">SCULPTURE</p>", "key_press": -1, "type": "PRES_VIS", "word": "sculpture", "wordID": 1257, "conditions": [24, 1600, "v", 12000], "trial": 2, "serialpos": 6, "trial_type": "single-stim", "trial_index": 95, "time_elapsed": 535193, "internal_node_id": "0.0-68.0"}}, {"uniqueid": "MTK1044:3C5W7UE9CGX9G8YU1FB936ETF3PMXZ", "current_trial": 96, "dateTime": 1513018465882, "trialdata": {"rt": -1, "stimulus": "<p id=\"stim\">LIZARD</p>", "key_press": -1, "type": "PRES_VIS", "word": "lizard", "wordID": 833, "conditions": [24, 1600, "v", 12000], "trial": 2, "serialpos": 7, "trial_type": "single-stim", "trial_index": 96, "time_elapsed": 537837, "internal_node_id": "0.0-69.0"}}, {"uniqueid": "MTK1044:3C5W7UE9CGX9G8YU1FB936ETF3PMXZ", "current_trial": 97, "dateTime": 1513018468369, "trialdata": {"rt": -1, "stimulus": "<p id=\"stim\">HORNET</p>", "key_press": -1, "type": "PRES_VIS", "word": "hornet", "wordID": 717, "conditions": [24, 1600, "v", 12000], "trial": 2, "serialpos": 8, "trial_type": "single-stim", "trial_index": 97, "time_elapsed": 540324, "internal_node_id": "0.0-70.0"}}, {"uniqueid": "MTK1044:3C5W7UE9CGX9G8YU1FB936ETF3PMXZ", "current_trial": 98, "dateTime": 1513018470986, "trialdata": {"rt": -1, "stimulus": "<p id=\"stim\">RATTLE</p>", "key_press": -1, "type": "PRES_VIS", "word": "rattle", "wordID": 1169, "conditions": [24, 1600, "v", 12000], "trial": 2, "serialpos": 9, "trial_type": "single-stim", "trial_index": 98, "time_elapsed": 542941, "internal_node_id": "0.0-71.0"}}, {"uniqueid": "MTK1044:3C5W7UE9CGX9G8YU1FB936ETF3PMXZ", "current_trial": 99, "dateTime": 1513018473503, "trialdata": {"rt": -1, "stimulus": "<p id=\"stim\">BLACKBOARD</p>", "key_press": -1, "type": "PRES_VIS", "word": "blackboard", "wordID": 132, "conditions": [24, 1600, "v", 12000], "trial": 2, "serialpos": 10, "trial_type": "single-stim", "trial_index": 99, "time_elapsed": 545458, "internal_node_id": "0.0-72.0"}}, {"uniqueid": "MTK1044:3C5W7UE9CGX9G8YU1FB936ETF3PMXZ", "current_trial": 100, "dateTime": 1513018476068, "trialdata": {"rt": -1, "stimulus": "<p id=\"stim\">WASP</p>", "key_press": -1, "type": "PRES_VIS", "word": "wasp", "wordID": 1592, "conditions": [24, 1600, "v", 12000], "trial": 2, "serialpos": 11, "trial_type": "single-stim", "trial_index": 100, "time_elapsed": 548023, "internal_node_id": "0.0-73.0"}}, {"uniqueid": "MTK1044:3C5W7UE9CGX9G8YU1FB936ETF3PMXZ", "current_trial": 101, "dateTime": 1513018478732, "trialdata": {"rt": -1, "stimulus": "<p id=\"stim\">BOYFRIEND</p>", "key_press": -1, "type": "PRES_VIS", "word": "boyfriend", "wordID": 161, "conditions": [24, 1600, "v", 12000], "trial": 2, "serialpos": 12, "trial_type": "single-stim", "trial_index": 101, "time_elapsed": 550687, "internal_node_id": "0.0-74.0"}}, {"uniqueid": "MTK1044:3C5W7UE9CGX9G8YU1FB936ETF3PMXZ", "current_trial": 102, "dateTime": 1513018481185, "trialdata": {"rt": -1, "stimulus": "<p id=\"stim\">ITEM</p>", "key_press": -1, "type": "PRES_VIS", "word": "item", "wordID": 745, "conditions": [24, 1600, "v", 12000], "trial": 2, "serialpos": 13, "trial_type": "single-stim", "trial_index": 102, "time_elapsed": 553139, "internal_node_id": "0.0-75.0"}}, {"uniqueid": "MTK1044:3C5W7UE9CGX9G8YU1FB936ETF3PMXZ", "current_trial": 103, "dateTime": 1513018483758, "trialdata": {"rt": -1, "stimulus": "<p id=\"stim\">DIME</p>", "key_press": -1, "type": "PRES_VIS", "word": "dime", "wordID": 465, "conditions": [24, 1600, "v", 12000], "trial": 2, "serialpos": 14, "trial_type": "single-stim", "trial_index": 103, "time_elapsed": 555713, "internal_node_id": "0.0-76.0"}}, {"uniqueid": "MTK1044:3C5W7UE9CGX9G8YU1FB936ETF3PMXZ", "current_trial": 104, "dateTime": 1513018486271, "trialdata": {"rt": -1, "stimulus": "<p id=\"stim\">LOVER</p>", "key_press": -1, "type": "PRES_VIS", "word": "lover", "wordID": 845, "conditions": [24, 1600, "v", 12000], "trial": 2, "serialpos": 15, "trial_type": "single-stim", "trial_index": 104, "time_elapsed": 558226, "internal_node_id": "0.0-77.0"}}, {"uniqueid": "MTK1044:3C5W7UE9CGX9G8YU1FB936ETF3PMXZ", "current_trial": 105, "dateTime": 1513018488791, "trialdata": {"rt": -1, "stimulus": "<p id=\"stim\">CANYON</p>", "key_press": -1, "type": "PRES_VIS", "word": "canyon", "wordID": 234, "conditions": [24, 1600, "v", 12000], "trial": 2, "serialpos": 16, "trial_type": "single-stim", "trial_index": 105, "time_elapsed": 560746, "internal_node_id": "0.0-78.0"}}, {"uniqueid": "MTK1044:3C5W7UE9CGX9G8YU1FB936ETF3PMXZ", "current_trial": 106, "dateTime": 1513018491304, "trialdata": {"rt": -1, "stimulus": "<p id=\"stim\">PORK</p>", "key_press": -1, "type": "PRES_VIS", "word": "pork", "wordID": 1107, "conditions": [24, 1600, "v", 12000], "trial": 2, "serialpos": 17, "trial_type": "single-stim", "trial_index": 106, "time_elapsed": 563259, "internal_node_id": "0.0-79.0"}}, {"uniqueid": "MTK1044:3C5W7UE9CGX9G8YU1FB936ETF3PMXZ", "current_trial": 107, "dateTime": 1513018494014, "trialdata": {"rt": -1, "stimulus": "<p id=\"stim\">SEAFOOD</p>", "key_press": -1, "type": "PRES_VIS", "word": "seafood", "wordID": 1259, "conditions": [24, 1600, "v", 12000], "trial": 2, "serialpos": 18, "trial_type": "single-stim", "trial_index": 107, "time_elapsed": 565969, "internal_node_id": "0.0-80.0"}}, {"uniqueid": "MTK1044:3C5W7UE9CGX9G8YU1FB936ETF3PMXZ", "current_trial": 108, "dateTime": 1513018496452, "trialdata": {"rt": -1, "stimulus": "<p id=\"stim\">MISSILE</p>", "key_press": -1, "type": "PRES_VIS", "word": "missile", "wordID": 899, "conditions": [24, 1600, "v", 12000], "trial": 2, "serialpos": 19, "trial_type": "single-stim", "trial_index": 108, "time_elapsed": 568407, "internal_node_id": "0.0-81.0"}}, {"uniqueid": "MTK1044:3C5W7UE9CGX9G8YU1FB936ETF3PMXZ", "current_trial": 109, "dateTime": 1513018499052, "trialdata": {"rt": -1, "stimulus": "<p id=\"stim\">STUDENT</p>", "key_press": -1, "type": "PRES_VIS", "word": "student", "wordID": 1394, "conditions": [24, 1600, "v", 12000], "trial": 2, "serialpos": 20, "trial_type": "single-stim", "trial_index": 109, "time_elapsed": 571007, "internal_node_id": "0.0-82.0"}}, {"uniqueid": "MTK1044:3C5W7UE9CGX9G8YU1FB936ETF3PMXZ", "current_trial": 110, "dateTime": 1513018501665, "trialdata": {"rt": -1, "stimulus": "<p id=\"stim\">WIFE</p>", "key_press": -1, "type": "PRES_VIS", "word": "wife", "wordID": 1608, "conditions": [24, 1600, "v", 12000], "trial": 2, "serialpos": 21, "trial_type": "single-stim", "trial_index": 110, "time_elapsed": 573620, "internal_node_id": "0.0-83.0"}}, {"uniqueid": "MTK1044:3C5W7UE9CGX9G8YU1FB936ETF3PMXZ", "current_trial": 111, "dateTime": 1513018504420, "trialdata": {"rt": -1, "stimulus": "<p id=\"stim\">PEPPER</p>", "key_press": -1, "type": "PRES_VIS", "word": "pepper", "wordID": 1046, "conditions": [24, 1600, "v", 12000], "trial": 2, "serialpos": 22, "trial_type": "single-stim", "trial_index": 111, "time_elapsed": 576375, "internal_node_id": "0.0-84.0"}}, {"uniqueid": "MTK1044:3C5W7UE9CGX9G8YU1FB936ETF3PMXZ", "current_trial": 112, "dateTime": 1513018507129, "trialdata": {"rt": -1, "stimulus": "<p id=\"stim\">TORTOISE</p>", "key_press": -1, "type": "PRES_VIS", "word": "tortoise", "wordID": 1485, "conditions": [24, 1600, "v", 12000], "trial": 2, "serialpos": 23, "trial_type": "single-stim", "trial_index": 112, "time_elapsed": 579084, "internal_node_id": "0.0-85.0"}}, {"uniqueid": "MTK1044:3C5W7UE9CGX9G8YU1FB936ETF3PMXZ", "current_trial": 113, "dateTime": 1513018509261, "trialdata": {"rt": -1, "stimulus": "", "key_press": -1, "type": "PRE_RECALL_DELAY", "trial_type": "single-stim", "trial_index": 113, "time_elapsed": 581216, "internal_node_id": "0.0-86.0-0.0"}}, {"uniqueid": "MTK1044:3C5W7UE9CGX9G8YU1FB936ETF3PMXZ", "current_trial": 114, "dateTime": 1513018509763, "trialdata": {"rt": -1000, "stimulus": "/static/audio/400Hz.wav", "key_press": -1, "type": "PRE_RECALL_ALERT", "trial_type": "single-audio", "trial_index": 114, "time_elapsed": 581718, "internal_node_id": "0.0-87.0"}}, {"uniqueid": "MTK1044:3C5W7UE9CGX9G8YU1FB936ETF3PMXZ", "current_trial": 115, "dateTime": 1513018569782, "trialdata": {"rt": [3412, 4792, 5925, 7344, 11004, 12572, 20396, 21423, 27842, 57323], "recwords": ["pepper", "student", "wife", "tortoise", "lizard", "boyfriend", "wasp", "hornet", "lover", "mummy"], "type": "FREE_RECALL", "conditions": [24, 1600, "v", 12000], "trial": 2, "trial_type": "free-recall", "trial_index": 115, "time_elapsed": 641722, "internal_node_id": "0.0-88.0-0.0"}}, {"uniqueid": "MTK1044:3C5W7UE9CGX9G8YU1FB936ETF3PMXZ", "current_trial": 116, "dateTime": 1513018577883, "trialdata": {"rt": 6097, "key_press": 68, "type": "INSTRUCTIONS", "trial_type": "text", "trial_index": 116, "time_elapsed": 649838, "internal_node_id": "0.0-89.0"}}, {"uniqueid": "MTK1044:3C5W7UE9CGX9G8YU1FB936ETF3PMXZ", "current_trial": 117, "dateTime": 1513018603890, "trialdata": {"rt": [2522, 5555, 8322, 10570, 14314, 16955, 19786, 23250], "responses": ["9", "26", "18", "11", "17", "16", "16", "13"], "num1": [1, 9, 6, 1, 4, 9, 7, 9, 9], "num2": [1, 9, 4, 8, 4, 5, 3, 8, 3], "num3": [7, 8, 8, 2, 9, 2, 6, 6, 6], "type": "DISTRACTOR", "conditions": [24, 800, "v", 24000], "trial": 3, "trial_type": "math-distractor", "trial_index": 117, "time_elapsed": 675845, "internal_node_id": "0.0-90.0"}}, {"uniqueid": "MTK1044:3C5W7UE9CGX9G8YU1FB936ETF3PMXZ", "current_trial": 118, "dateTime": 1513018606893, "trialdata": {"rt": -1, "stimulus": "<p id=\"stim\">10</p>", "key_press": -1, "trial_type": "single-stim", "trial_index": 118, "time_elapsed": 678848, "internal_node_id": "0.0-91.0-0.0"}}, {"uniqueid": "MTK1044:3C5W7UE9CGX9G8YU1FB936ETF3PMXZ", "current_trial": 119, "dateTime": 1513018607895, "trialdata": {"rt": -1, "stimulus": "<p id=\"stim\">9</p>", "key_press": -1, "trial_type": "single-stim", "trial_index": 119, "time_elapsed": 679850, "internal_node_id": "0.0-91.0-1.0"}}, {"uniqueid": "MTK1044:3C5W7UE9CGX9G8YU1FB936ETF3PMXZ", "current_trial": 120, "dateTime": 1513018608898, "trialdata": {"rt": -1, "stimulus": "<p id=\"stim\">8</p>", "key_press": -1, "trial_type": "single-stim", "trial_index": 120, "time_elapsed": 680853, "internal_node_id": "0.0-91.0-2.0"}}, {"uniqueid": "MTK1044:3C5W7UE9CGX9G8YU1FB936ETF3PMXZ", "current_trial": 121, "dateTime": 1513018609900, "trialdata": {"rt": -1, "stimulus": "<p id=\"stim\">7</p>", "key_press": -1, "trial_type": "single-stim", "trial_index": 121, "time_elapsed": 681855, "internal_node_id": "0.0-91.0-3.0"}}, {"uniqueid": "MTK1044:3C5W7UE9CGX9G8YU1FB936ETF3PMXZ", "current_trial": 122, "dateTime": 1513018610902, "trialdata": {"rt": -1, "stimulus": "<p id=\"stim\">6</p>", "key_press": -1, "trial_type": "single-stim", "trial_index": 122, "time_elapsed": 682857, "internal_node_id": "0.0-91.0-4.0"}}, {"uniqueid": "MTK1044:3C5W7UE9CGX9G8YU1FB936ETF3PMXZ", "current_trial": 123, "dateTime": 1513018611905, "trialdata": {"rt": -1, "stimulus": "<p id=\"stim\">5</p>", "key_press": -1, "trial_type": "single-stim", "trial_index": 123, "time_elapsed": 683859, "internal_node_id": "0.0-91.0-5.0"}}, {"uniqueid": "MTK1044:3C5W7UE9CGX9G8YU1FB936ETF3PMXZ", "current_trial": 124, "dateTime": 1513018612907, "trialdata": {"rt": -1, "stimulus": "<p id=\"stim\">4</p>", "key_press": -1, "trial_type": "single-stim", "trial_index": 124, "time_elapsed": 684862, "internal_node_id": "0.0-91.0-6.0"}}, {"uniqueid": "MTK1044:3C5W7UE9CGX9G8YU1FB936ETF3PMXZ", "current_trial": 125, "dateTime": 1513018613909, "trialdata": {"rt": -1, "stimulus": "<p id=\"stim\">3</p>", "key_press": -1, "trial_type": "single-stim", "trial_index": 125, "time_elapsed": 685863, "internal_node_id": "0.0-91.0-7.0"}}, {"uniqueid": "MTK1044:3C5W7UE9CGX9G8YU1FB936ETF3PMXZ", "current_trial": 126, "dateTime": 1513018614911, "trialdata": {"rt": -1, "stimulus": "<p id=\"stim\">2</p>", "key_press": -1, "trial_type": "single-stim", "trial_index": 126, "time_elapsed": 686865, "internal_node_id": "0.0-91.0-8.0"}}, {"uniqueid": "MTK1044:3C5W7UE9CGX9G8YU1FB936ETF3PMXZ", "current_trial": 127, "dateTime": 1513018615913, "trialdata": {"rt": -1, "stimulus": "<p id=\"stim\">1</p>", "key_press": -1, "trial_type": "single-stim", "trial_index": 127, "time_elapsed": 687867, "internal_node_id": "0.0-91.0-9.0"}}, {"uniqueid": "MTK1044:3C5W7UE9CGX9G8YU1FB936ETF3PMXZ", "current_trial": 128, "dateTime": 1513018617414, "trialdata": {"rt": -1, "stimulus": "<p id=\"stim\">+</p>", "key_press": -1, "type": "FIXATION", "trial_type": "single-stim", "trial_index": 128, "time_elapsed": 689369, "internal_node_id": "0.0-92.0-0.0"}}, {"uniqueid": "MTK1044:3C5W7UE9CGX9G8YU1FB936ETF3PMXZ", "current_trial": 129, "dateTime": 1513018618217, "trialdata": {"rt": -1, "stimulus": "<p id=\"stim\">FRAGRANCE</p>", "key_press": -1, "type": "PRES_VIS", "word": "fragrance", "wordID": 598, "conditions": [24, 800, "v", 24000], "trial": 3, "serialpos": 0, "trial_type": "single-stim", "trial_index": 129, "time_elapsed": 690172, "internal_node_id": "0.0-93.0"}}, {"uniqueid": "MTK1044:3C5W7UE9CGX9G8YU1FB936ETF3PMXZ", "current_trial": 130, "dateTime": 1513018619881, "trialdata": {"rt": -1, "stimulus": "<p id=\"stim\">PERFUME</p>", "key_press": -1, "type": "PRES_VIS", "word": "perfume", "wordID": 1048, "conditions": [24, 800, "v", 24000], "trial": 3, "serialpos": 1, "trial_type": "single-stim", "trial_index": 130, "time_elapsed": 691835, "internal_node_id": "0.0-94.0"}}, {"uniqueid": "MTK1044:3C5W7UE9CGX9G8YU1FB936ETF3PMXZ", "current_trial": 131, "dateTime": 1513018621593, "trialdata": {"rt": -1, "stimulus": "<p id=\"stim\">SCOTCH</p>", "key_press": -1, "type": "PRES_VIS", "word": "scotch", "wordID": 1250, "conditions": [24, 800, "v", 24000], "trial": 3, "serialpos": 2, "trial_type": "single-stim", "trial_index": 131, "time_elapsed": 693548, "internal_node_id": "0.0-95.0"}}, {"uniqueid": "MTK1044:3C5W7UE9CGX9G8YU1FB936ETF3PMXZ", "current_trial": 132, "dateTime": 1513018623371, "trialdata": {"rt": -1, "stimulus": "<p id=\"stim\">CREATURE</p>", "key_press": -1, "type": "PRES_VIS", "word": "creature", "wordID": 402, "conditions": [24, 800, "v", 24000], "trial": 3, "serialpos": 3, "trial_type": "single-stim", "trial_index": 132, "time_elapsed": 695326, "internal_node_id": "0.0-96.0"}}, {"uniqueid": "MTK1044:3C5W7UE9CGX9G8YU1FB936ETF3PMXZ", "current_trial": 133, "dateTime": 1513018625087, "trialdata": {"rt": -1, "stimulus": "<p id=\"stim\">SWORD</p>", "key_press": -1, "type": "PRES_VIS", "word": "sword", "wordID": 1422, "conditions": [24, 800, "v", 24000], "trial": 3, "serialpos": 4, "trial_type": "single-stim", "trial_index": 133, "time_elapsed": 697042, "internal_node_id": "0.0-97.0"}}, {"uniqueid": "MTK1044:3C5W7UE9CGX9G8YU1FB936ETF3PMXZ", "current_trial": 134, "dateTime": 1513018626926, "trialdata": {"rt": -1, "stimulus": "<p id=\"stim\">SUSPECT</p>", "key_press": -1, "type": "PRES_VIS", "word": "suspect", "wordID": 1414, "conditions": [24, 800, "v", 24000], "trial": 3, "serialpos": 5, "trial_type": "single-stim", "trial_index": 134, "time_elapsed": 698881, "internal_node_id": "0.0-98.0"}}, {"uniqueid": "MTK1044:3C5W7UE9CGX9G8YU1FB936ETF3PMXZ", "current_trial": 135, "dateTime": 1513018628713, "trialdata": {"rt": -1, "stimulus": "<p id=\"stim\">GALLON</p>", "key_press": -1, "type": "PRES_VIS", "word": "gallon", "wordID": 617, "conditions": [24, 800, "v", 24000], "trial": 3, "serialpos": 6, "trial_type": "single-stim", "trial_index": 135, "time_elapsed": 700668, "internal_node_id": "0.0-99.0"}}, {"uniqueid": "MTK1044:3C5W7UE9CGX9G8YU1FB936ETF3PMXZ", "current_trial": 136, "dateTime": 1513018630700, "trialdata": {"rt": -1, "stimulus": "<p id=\"stim\">UNCLE</p>", "key_press": -1, "type": "PRES_VIS", "word": "uncle", "wordID": 1535, "conditions": [24, 800, "v", 24000], "trial": 3, "serialpos": 7, "trial_type": "single-stim", "trial_index": 136, "time_elapsed": 702654, "internal_node_id": "0.0-100.0"}}, {"uniqueid": "MTK1044:3C5W7UE9CGX9G8YU1FB936ETF3PMXZ", "current_trial": 137, "dateTime": 1513018632331, "trialdata": {"rt": -1, "stimulus": "<p id=\"stim\">MONSTER</p>", "key_press": -1, "type": "PRES_VIS", "word": "monster", "wordID": 911, "conditions": [24, 800, "v", 24000], "trial": 3, "serialpos": 8, "trial_type": "single-stim", "trial_index": 137, "time_elapsed": 704286, "internal_node_id": "0.0-101.0"}}, {"uniqueid": "MTK1044:3C5W7UE9CGX9G8YU1FB936ETF3PMXZ", "current_trial": 138, "dateTime": 1513018634239, "trialdata": {"rt": -1, "stimulus": "<p id=\"stim\">CAPTIVE</p>", "key_press": -1, "type": "PRES_VIS", "word": "captive", "wordID": 239, "conditions": [24, 800, "v", 24000], "trial": 3, "serialpos": 9, "trial_type": "single-stim", "trial_index": 138, "time_elapsed": 706193, "internal_node_id": "0.0-102.0"}}, {"uniqueid": "MTK1044:3C5W7UE9CGX9G8YU1FB936ETF3PMXZ", "current_trial": 139, "dateTime": 1513018636200, "trialdata": {"rt": -1, "stimulus": "<p id=\"stim\">BABY</p>", "key_press": -1, "type": "PRES_VIS", "word": "baby", "wordID": 63, "conditions": [24, 800, "v", 24000], "trial": 3, "serialpos": 10, "trial_type": "single-stim", "trial_index": 139, "time_elapsed": 708155, "internal_node_id": "0.0-103.0"}}, {"uniqueid": "MTK1044:3C5W7UE9CGX9G8YU1FB936ETF3PMXZ", "current_trial": 140, "dateTime": 1513018638066, "trialdata": {"rt": -1, "stimulus": "<p id=\"stim\">PEANUT</p>", "key_press": -1, "type": "PRES_VIS", "word": "peanut", "wordID": 1031, "conditions": [24, 800, "v", 24000], "trial": 3, "serialpos": 11, "trial_type": "single-stim", "trial_index": 140, "time_elapsed": 710020, "internal_node_id": "0.0-104.0"}}, {"uniqueid": "MTK1044:3C5W7UE9CGX9G8YU1FB936ETF3PMXZ", "current_trial": 141, "dateTime": 1513018639890, "trialdata": {"rt": -1, "stimulus": "<p id=\"stim\">JUDGE</p>", "key_press": -1, "type": "PRES_VIS", "word": "judge", "wordID": 760, "conditions": [24, 800, "v", 24000], "trial": 3, "serialpos": 12, "trial_type": "single-stim", "trial_index": 141, "time_elapsed": 711845, "internal_node_id": "0.0-105.0"}}, {"uniqueid": "MTK1044:3C5W7UE9CGX9G8YU1FB936ETF3PMXZ", "current_trial": 142, "dateTime": 1513018641793, "trialdata": {"rt": -1, "stimulus": "<p id=\"stim\">STONE</p>", "key_press": -1, "type": "PRES_VIS", "word": "stone", "wordID": 1384, "conditions": [24, 800, "v", 24000], "trial": 3, "serialpos": 13, "trial_type": "single-stim", "trial_index": 142, "time_elapsed": 713748, "internal_node_id": "0.0-106.0"}}, {"uniqueid": "MTK1044:3C5W7UE9CGX9G8YU1FB936ETF3PMXZ", "current_trial": 143, "dateTime": 1513018643541, "trialdata": {"rt": -1, "stimulus": "<p id=\"stim\">SCARF</p>", "key_press": -1, "type": "PRES_VIS", "word": "scarf", "wordID": 1245, "conditions": [24, 800, "v", 24000], "trial": 3, "serialpos": 14, "trial_type": "single-stim", "trial_index": 143, "time_elapsed": 715495, "internal_node_id": "0.0-107.0"}}, {"uniqueid": "MTK1044:3C5W7UE9CGX9G8YU1FB936ETF3PMXZ", "current_trial": 144, "dateTime": 1513018645360, "trialdata": {"rt": -1, "stimulus": "<p id=\"stim\">FLASHLIGHT</p>", "key_press": -1, "type": "PRES_VIS", "word": "flashlight", "wordID": 574, "conditions": [24, 800, "v", 24000], "trial": 3, "serialpos": 15, "trial_type": "single-stim", "trial_index": 144, "time_elapsed": 717315, "internal_node_id": "0.0-108.0"}}, {"uniqueid": "MTK1044:3C5W7UE9CGX9G8YU1FB936ETF3PMXZ", "current_trial": 145, "dateTime": 1513018647258, "trialdata": {"rt": -1, "stimulus": "<p id=\"stim\">GRAPE</p>", "key_press": -1, "type": "PRES_VIS", "word": "grape", "wordID": 653, "conditions": [24, 800, "v", 24000], "trial": 3, "serialpos": 16, "trial_type": "single-stim", "trial_index": 145, "time_elapsed": 719213, "internal_node_id": "0.0-109.0"}}, {"uniqueid": "MTK1044:3C5W7UE9CGX9G8YU1FB936ETF3PMXZ", "current_trial": 146, "dateTime": 1513018649234, "trialdata": {"rt": -1, "stimulus": "<p id=\"stim\">BARLEY</p>", "key_press": -1, "type": "PRES_VIS", "word": "barley", "wordID": 87, "conditions": [24, 800, "v", 24000], "trial": 3, "serialpos": 17, "trial_type": "single-stim", "trial_index": 146, "time_elapsed": 721189, "internal_node_id": "0.0-110.0"}}, {"uniqueid": "MTK1044:3C5W7UE9CGX9G8YU1FB936ETF3PMXZ", "current_trial": 147, "dateTime": 1513018651235, "trialdata": {"rt": -1, "stimulus": "<p id=\"stim\">FLUTE</p>", "key_press": -1, "type": "PRES_VIS", "word": "flute", "wordID": 584, "conditions": [24, 800, "v", 24000], "trial": 3, "serialpos": 18, "trial_type": "single-stim", "trial_index": 147, "time_elapsed": 723189, "internal_node_id": "0.0-111.0"}}, {"uniqueid": "MTK1044:3C5W7UE9CGX9G8YU1FB936ETF3PMXZ", "current_trial": 148, "dateTime": 1513018652867, "trialdata": {"rt": -1, "stimulus": "<p id=\"stim\">BATHTUB</p>", "key_press": -1, "type": "PRES_VIS", "word": "bathtub", "wordID": 99, "conditions": [24, 800, "v", 24000], "trial": 3, "serialpos": 19, "trial_type": "single-stim", "trial_index": 148, "time_elapsed": 724822, "internal_node_id": "0.0-112.0"}}, {"uniqueid": "MTK1044:3C5W7UE9CGX9G8YU1FB936ETF3PMXZ", "current_trial": 149, "dateTime": 1513018654563, "trialdata": {"rt": -1, "stimulus": "<p id=\"stim\">NURSE</p>", "key_press": -1, "type": "PRES_VIS", "word": "nurse", "wordID": 962, "conditions": [24, 800, "v", 24000], "trial": 3, "serialpos": 20, "trial_type": "single-stim", "trial_index": 149, "time_elapsed": 726517, "internal_node_id": "0.0-113.0"}}, {"uniqueid": "MTK1044:3C5W7UE9CGX9G8YU1FB936ETF3PMXZ", "current_trial": 150, "dateTime": 1513018656449, "trialdata": {"rt": -1, "stimulus": "<p id=\"stim\">HANDBAG</p>", "key_press": -1, "type": "PRES_VIS", "word": "handbag", "wordID": 683, "conditions": [24, 800, "v", 24000], "trial": 3, "serialpos": 21, "trial_type": "single-stim", "trial_index": 150, "time_elapsed": 728404, "internal_node_id": "0.0-114.0"}}, {"uniqueid": "MTK1044:3C5W7UE9CGX9G8YU1FB936ETF3PMXZ", "current_trial": 151, "dateTime": 1513018658387, "trialdata": {"rt": -1, "stimulus": "<p id=\"stim\">FREEZER</p>", "key_press": -1, "type": "PRES_VIS", "word": "freezer", "wordID": 603, "conditions": [24, 800, "v", 24000], "trial": 3, "serialpos": 22, "trial_type": "single-stim", "trial_index": 151, "time_elapsed": 730342, "internal_node_id": "0.0-115.0"}}, {"uniqueid": "MTK1044:3C5W7UE9CGX9G8YU1FB936ETF3PMXZ", "current_trial": 152, "dateTime": 1513018660053, "trialdata": {"rt": -1, "stimulus": "<p id=\"stim\">JURY</p>", "key_press": -1, "type": "PRES_VIS", "word": "jury", "wordID": 765, "conditions": [24, 800, "v", 24000], "trial": 3, "serialpos": 23, "trial_type": "single-stim", "trial_index": 152, "time_elapsed": 732007, "internal_node_id": "0.0-116.0"}}, {"uniqueid": "MTK1044:3C5W7UE9CGX9G8YU1FB936ETF3PMXZ", "current_trial": 153, "dateTime": 1513018662506, "trialdata": {"rt": -1, "stimulus": "", "key_press": -1, "type": "PRE_RECALL_DELAY", "trial_type": "single-stim", "trial_index": 153, "time_elapsed": 734461, "internal_node_id": "0.0-117.0-0.0"}}, {"uniqueid": "MTK1044:3C5W7UE9CGX9G8YU1FB936ETF3PMXZ", "current_trial": 154, "dateTime": 1513018663008, "trialdata": {"rt": -1000, "stimulus": "/static/audio/400Hz.wav", "key_press": -1, "type": "PRE_RECALL_ALERT", "trial_type": "single-audio", "trial_index": 154, "time_elapsed": 734963, "internal_node_id": "0.0-118.0"}}, {"uniqueid": "MTK1044:3C5W7UE9CGX9G8YU1FB936ETF3PMXZ", "current_trial": 155, "dateTime": 1513018723016, "trialdata": {"rt": [2815, 3934, 5726, 7118, 9662, 13511, 16943, 22215, 24598, 26159, 32158], "recwords": ["freezer", "jury", "uncle", "perfume", "fragrance", "judge", "peanut", "baby", "sotne", "scarf", "nurse"], "type": "FREE_RECALL", "conditions": [24, 800, "v", 24000], "trial": 3, "trial_type": "free-recall", "trial_index": 155, "time_elapsed": 794966, "internal_node_id": "0.0-119.0-0.0"}}, {"uniqueid": "MTK1044:3C5W7UE9CGX9G8YU1FB936ETF3PMXZ", "current_trial": 156, "dateTime": 1513018765041, "trialdata": {"rt": 40023, "key_press": 101, "type": "INSTRUCTIONS", "trial_type": "text", "trial_index": 156, "time_elapsed": 836996, "internal_node_id": "0.0-120.0"}}, {"uniqueid": "MTK1044:3C5W7UE9CGX9G8YU1FB936ETF3PMXZ", "current_trial": 157, "dateTime": 1513018791047, "trialdata": {"rt": [2666, 6051, 8243, 9786, 12858, 15027, 16594, 18202, 21258, 23314], "responses": ["16", "15", "18", "13", "20", "15", "11", "9", "14", "12"], "num1": [8, 7, 6, 3, 5, 9, 2, 1, 6, 8, 4], "num2": [5, 4, 8, 2, 7, 2, 1, 4, 3, 3, 8], "num3": [3, 4, 4, 8, 9, 4, 8, 4, 5, 1, 4], "type": "DISTRACTOR", "conditions": [12, 800, "a", 24000], "trial": 4, "trial_type": "math-distractor", "trial_index": 157, "time_elapsed": 863002, "internal_node_id": "0.0-121.0"}}, {"uniqueid": "MTK1044:3C5W7UE9CGX9G8YU1FB936ETF3PMXZ", "current_trial": 158, "dateTime": 1513018794051, "trialdata": {"rt": -1, "stimulus": "<p id=\"stim\">10</p>", "key_press": -1, "trial_type": "single-stim", "trial_index": 158, "time_elapsed": 866006, "internal_node_id": "0.0-122.0-0.0"}}, {"uniqueid": "MTK1044:3C5W7UE9CGX9G8YU1FB936ETF3PMXZ", "current_trial": 159, "dateTime": 1513018795053, "trialdata": {"rt": -1, "stimulus": "<p id=\"stim\">9</p>", "key_press": -1, "trial_type": "single-stim", "trial_index": 159, "time_elapsed": 867008, "internal_node_id": "0.0-122.0-1.0"}}, {"uniqueid": "MTK1044:3C5W7UE9CGX9G8YU1FB936ETF3PMXZ", "current_trial": 160, "dateTime": 1513018796054, "trialdata": {"rt": -1, "stimulus": "<p id=\"stim\">8</p>", "key_press": -1, "trial_type": "single-stim", "trial_index": 160, "time_elapsed": 868009, "internal_node_id": "0.0-122.0-2.0"}}, {"uniqueid": "MTK1044:3C5W7UE9CGX9G8YU1FB936ETF3PMXZ", "current_trial": 161, "dateTime": 1513018797057, "trialdata": {"rt": -1, "stimulus": "<p id=\"stim\">7</p>", "key_press": -1, "trial_type": "single-stim", "trial_index": 161, "time_elapsed": 869011, "internal_node_id": "0.0-122.0-3.0"}}, {"uniqueid": "MTK1044:3C5W7UE9CGX9G8YU1FB936ETF3PMXZ", "current_trial": 162, "dateTime": 1513018798058, "trialdata": {"rt": -1, "stimulus": "<p id=\"stim\">6</p>", "key_press": -1, "trial_type": "single-stim", "trial_index": 162, "time_elapsed": 870013, "internal_node_id": "0.0-122.0-4.0"}}, {"uniqueid": "MTK1044:3C5W7UE9CGX9G8YU1FB936ETF3PMXZ", "current_trial": 163, "dateTime": 1513018799060, "trialdata": {"rt": -1, "stimulus": "<p id=\"stim\">5</p>", "key_press": -1, "trial_type": "single-stim", "trial_index": 163, "time_elapsed": 871015, "internal_node_id": "0.0-122.0-5.0"}}, {"uniqueid": "MTK1044:3C5W7UE9CGX9G8YU1FB936ETF3PMXZ", "current_trial": 164, "dateTime": 1513018800063, "trialdata": {"rt": -1, "stimulus": "<p id=\"stim\">4</p>", "key_press": -1, "trial_type": "single-stim", "trial_index": 164, "time_elapsed": 872018, "internal_node_id": "0.0-122.0-6.0"}}, {"uniqueid": "MTK1044:3C5W7UE9CGX9G8YU1FB936ETF3PMXZ", "current_trial": 165, "dateTime": 1513018801064, "trialdata": {"rt": -1, "stimulus": "<p id=\"stim\">3</p>", "key_press": -1, "trial_type": "single-stim", "trial_index": 165, "time_elapsed": 873019, "internal_node_id": "0.0-122.0-7.0"}}, {"uniqueid": "MTK1044:3C5W7UE9CGX9G8YU1FB936ETF3PMXZ", "current_trial": 166, "dateTime": 1513018802065, "trialdata": {"rt": -1, "stimulus": "<p id=\"stim\">2</p>", "key_press": -1, "trial_type": "single-stim", "trial_index": 166, "time_elapsed": 874020, "internal_node_id": "0.0-122.0-8.0"}}, {"uniqueid": "MTK1044:3C5W7UE9CGX9G8YU1FB936ETF3PMXZ", "current_trial": 167, "dateTime": 1513018803066, "trialdata": {"rt": -1, "stimulus": "<p id=\"stim\">1</p>", "key_press": -1, "trial_type": "single-stim", "trial_index": 167, "time_elapsed": 875021, "internal_node_id": "0.0-122.0-9.0"}}, {"uniqueid": "MTK1044:3C5W7UE9CGX9G8YU1FB936ETF3PMXZ", "current_trial": 168, "dateTime": 1513018804568, "trialdata": {"rt": -1, "stimulus": "<p id=\"stim\">+</p>", "key_press": -1, "type": "FIXATION", "trial_type": "single-stim", "trial_index": 168, "time_elapsed": 876523, "internal_node_id": "0.0-123.0-0.0"}}, {"uniqueid": "MTK1044:3C5W7UE9CGX9G8YU1FB936ETF3PMXZ", "current_trial": 169, "dateTime": 1513018806549, "trialdata": {"rt": -1000, "stimulus": "/static/audio/wordpool/OYSTER.wav", "key_press": -1, "type": "PRES_AUD", "word": "oyster", "wordID": 994, "conditions": [12, 800, "a", 24000], "trial": 4, "serialpos": 0, "trial_type": "single-audio", "trial_index": 169, "time_elapsed": 878504, "internal_node_id": "0.0-124.0"}}, {"uniqueid": "MTK1044:3C5W7UE9CGX9G8YU1FB936ETF3PMXZ", "current_trial": 170, "dateTime": 1513018808287, "trialdata": {"rt": -1000, "stimulus": "/static/audio/wordpool/SEAGULL.wav", "key_press": -1, "type": "PRES_AUD", "word": "seagull", "wordID": 1260, "conditions": [12, 800, "a", 24000], "trial": 4, "serialpos": 1, "trial_type": "single-audio", "trial_index": 170, "time_elapsed": 880242, "internal_node_id": "0.0-125.0"}}, {"uniqueid": "MTK1044:3C5W7UE9CGX9G8YU1FB936ETF3PMXZ", "current_trial": 171, "dateTime": 1513018810122, "trialdata": {"rt": -1000, "stimulus": "/static/audio/wordpool/COBRA.wav", "key_press": -1, "type": "PRES_AUD", "word": "cobra", "wordID": 335, "conditions": [12, 800, "a", 24000], "trial": 4, "serialpos": 2, "trial_type": "single-audio", "trial_index": 171, "time_elapsed": 882077, "internal_node_id": "0.0-126.0"}}, {"uniqueid": "MTK1044:3C5W7UE9CGX9G8YU1FB936ETF3PMXZ", "current_trial": 172, "dateTime": 1513018811885, "trialdata": {"rt": -1000, "stimulus": "/static/audio/wordpool/GOBLIN.wav", "key_press": -1, "type": "PRES_AUD", "word": "goblin", "wordID": 644, "conditions": [12, 800, "a", 24000], "trial": 4, "serialpos": 3, "trial_type": "single-audio", "trial_index": 172, "time_elapsed": 883840, "internal_node_id": "0.0-127.0"}}, {"uniqueid": "MTK1044:3C5W7UE9CGX9G8YU1FB936ETF3PMXZ", "current_trial": 173, "dateTime": 1513018813669, "trialdata": {"rt": -1000, "stimulus": "/static/audio/wordpool/PATROL.wav", "key_press": -1, "type": "PRES_AUD", "word": "patrol", "wordID": 1026, "conditions": [12, 800, "a", 24000], "trial": 4, "serialpos": 4, "trial_type": "single-audio", "trial_index": 173, "time_elapsed": 885608, "internal_node_id": "0.0-128.0"}}, {"uniqueid": "MTK1044:3C5W7UE9CGX9G8YU1FB936ETF3PMXZ", "current_trial": 174, "dateTime": 1513018815564, "trialdata": {"rt": -1000, "stimulus": "/static/audio/wordpool/GIRL.wav", "key_press": -1, "type": "PRES_AUD", "word": "girl", "wordID": 636, "conditions": [12, 800, "a", 24000], "trial": 4, "serialpos": 5, "trial_type": "single-audio", "trial_index": 174, "time_elapsed": 887519, "internal_node_id": "0.0-129.0"}}, {"uniqueid": "MTK1044:3C5W7UE9CGX9G8YU1FB936ETF3PMXZ", "current_trial": 175, "dateTime": 1513018817356, "trialdata": {"rt": -1000, "stimulus": "/static/audio/wordpool/DAUGHTER.wav", "key_press": -1, "type": "PRES_AUD", "word": "daughter", "wordID": 441, "conditions": [12, 800, "a", 24000], "trial": 4, "serialpos": 6, "trial_type": "single-audio", "trial_index": 175, "time_elapsed": 889311, "internal_node_id": "0.0-130.0"}}, {"uniqueid": "MTK1044:3C5W7UE9CGX9G8YU1FB936ETF3PMXZ", "current_trial": 176, "dateTime": 1513018819104, "trialdata": {"rt": -1000, "stimulus": "/static/audio/wordpool/TWIG.wav", "key_press": -1, "type": "PRES_AUD", "word": "twig", "wordID": 1526, "conditions": [12, 800, "a", 24000], "trial": 4, "serialpos": 7, "trial_type": "single-audio", "trial_index": 176, "time_elapsed": 891059, "internal_node_id": "0.0-131.0"}}, {"uniqueid": "MTK1044:3C5W7UE9CGX9G8YU1FB936ETF3PMXZ", "current_trial": 177, "dateTime": 1513018820723, "trialdata": {"rt": -1000, "stimulus": "/static/audio/wordpool/TURKEY.wav", "key_press": -1, "type": "PRES_AUD", "word": "turkey", "wordID": 1519, "conditions": [12, 800, "a", 24000], "trial": 4, "serialpos": 8, "trial_type": "single-audio", "trial_index": 177, "time_elapsed": 892678, "internal_node_id": "0.0-132.0"}}, {"uniqueid": "MTK1044:3C5W7UE9CGX9G8YU1FB936ETF3PMXZ", "current_trial": 178, "dateTime": 1513018822691, "trialdata": {"rt": -1000, "stimulus": "/static/audio/wordpool/SNAKE.wav", "key_press": -1, "type": "PRES_AUD", "word": "snake", "wordID": 1332, "conditions": [12, 800, "a", 24000], "trial": 4, "serialpos": 9, "trial_type": "single-audio", "trial_index": 178, "time_elapsed": 894646, "internal_node_id": "0.0-133.0"}}, {"uniqueid": "MTK1044:3C5W7UE9CGX9G8YU1FB936ETF3PMXZ", "current_trial": 179, "dateTime": 1513018824413, "trialdata": {"rt": -1000, "stimulus": "/static/audio/wordpool/OUTLAW.wav", "key_press": -1, "type": "PRES_AUD", "word": "outlaw", "wordID": 988, "conditions": [12, 800, "a", 24000], "trial": 4, "serialpos": 10, "trial_type": "single-audio", "trial_index": 179, "time_elapsed": 896368, "internal_node_id": "0.0-134.0"}}, {"uniqueid": "MTK1044:3C5W7UE9CGX9G8YU1FB936ETF3PMXZ", "current_trial": 180, "dateTime": 1513018826287, "trialdata": {"rt": -1000, "stimulus": "/static/audio/wordpool/BUTCHER.wav", "key_press": -1, "type": "PRES_AUD", "word": "butcher", "wordID": 202, "conditions": [12, 800, "a", 24000], "trial": 4, "serialpos": 11, "trial_type": "single-audio", "trial_index": 180, "time_elapsed": 898242, "internal_node_id": "0.0-135.0"}}, {"uniqueid": "MTK1044:3C5W7UE9CGX9G8YU1FB936ETF3PMXZ", "current_trial": 181, "dateTime": 1513018827638, "trialdata": {"rt": -1, "stimulus": "", "key_press": -1, "type": "PRE_RECALL_DELAY", "trial_type": "single-stim", "trial_index": 181, "time_elapsed": 899593, "internal_node_id": "0.0-136.0-0.0"}}, {"uniqueid": "MTK1044:3C5W7UE9CGX9G8YU1FB936ETF3PMXZ", "current_trial": 182, "dateTime": 1513018828143, "trialdata": {"rt": -1000, "stimulus": "/static/audio/400Hz.wav", "key_press": -1, "type": "PRE_RECALL_ALERT", "trial_type": "single-audio", "trial_index": 182, "time_elapsed": 900098, "internal_node_id": "0.0-137.0"}}, {"uniqueid": "MTK1044:3C5W7UE9CGX9G8YU1FB936ETF3PMXZ", "current_trial": 183, "dateTime": 1513018888185, "trialdata": {"rt": [4207, 5473, 6990, 8641, 10559, 13145, 15625, 17358, 22506], "recwords": ["seagul", "snake", "girl", "daughter", "outlaw", "butcher", "oyster", "seagul", "turkey"], "type": "FREE_RECALL", "conditions": [12, 800, "a", 24000], "trial": 4, "trial_type": "free-recall", "trial_index": 183, "time_elapsed": 960101, "internal_node_id": "0.0-138.0-0.0"}}, {"uniqueid": "MTK1044:3C5W7UE9CGX9G8YU1FB936ETF3PMXZ", "current_trial": 184, "dateTime": 1513018904296, "trialdata": {"rt": 14107, "key_press": 70, "type": "INSTRUCTIONS", "trial_type": "text", "trial_index": 184, "time_elapsed": 976251, "internal_node_id": "0.0-139.0"}}, {"uniqueid": "MTK1044:3C5W7UE9CGX9G8YU1FB936ETF3PMXZ", "current_trial": 185, "dateTime": 1513018918299, "trialdata": {"rt": [3540, 5164, 10172, 11900], "responses": ["10", "12", "13", "10"], "num1": [2, 8, 6, 2, 5], "num2": [5, 2, 7, 2, 6], "num3": [3, 2, 8, 6, 5], "type": "DISTRACTOR", "conditions": [12, 1600, "a", 12000], "trial": 5, "trial_type": "math-distractor", "trial_index": 185, "time_elapsed": 990254, "internal_node_id": "0.0-140.0"}}, {"uniqueid": "MTK1044:3C5W7UE9CGX9G8YU1FB936ETF3PMXZ", "current_trial": 186, "dateTime": 1513018921303, "trialdata": {"rt": -1, "stimulus": "<p id=\"stim\">10</p>", "key_press": -1, "trial_type": "single-stim", "trial_index": 186, "time_elapsed": 993257, "internal_node_id": "0.0-141.0-0.0"}}, {"uniqueid": "MTK1044:3C5W7UE9CGX9G8YU1FB936ETF3PMXZ", "current_trial": 187, "dateTime": 1513018922304, "trialdata": {"rt": -1, "stimulus": "<p id=\"stim\">9</p>", "key_press": -1, "trial_type": "single-stim", "trial_index": 187, "time_elapsed": 994259, "internal_node_id": "0.0-141.0-1.0"}}, {"uniqueid": "MTK1044:3C5W7UE9CGX9G8YU1FB936ETF3PMXZ", "current_trial": 188, "dateTime": 1513018923306, "trialdata": {"rt": -1, "stimulus": "<p id=\"stim\">8</p>", "key_press": -1, "trial_type": "single-stim", "trial_index": 188, "time_elapsed": 995260, "internal_node_id": "0.0-141.0-2.0"}}, {"uniqueid": "MTK1044:3C5W7UE9CGX9G8YU1FB936ETF3PMXZ", "current_trial": 189, "dateTime": 1513018924309, "trialdata": {"rt": -1, "stimulus": "<p id=\"stim\">7</p>", "key_press": -1, "trial_type": "single-stim", "trial_index": 189, "time_elapsed": 996263, "internal_node_id": "0.0-141.0-3.0"}}, {"uniqueid": "MTK1044:3C5W7UE9CGX9G8YU1FB936ETF3PMXZ", "current_trial": 190, "dateTime": 1513018925311, "trialdata": {"rt": -1, "stimulus": "<p id=\"stim\">6</p>", "key_press": -1, "trial_type": "single-stim", "trial_index": 190, "time_elapsed": 997266, "internal_node_id": "0.0-141.0-4.0"}}, {"uniqueid": "MTK1044:3C5W7UE9CGX9G8YU1FB936ETF3PMXZ", "current_trial": 191, "dateTime": 1513018926314, "trialdata": {"rt": -1, "stimulus": "<p id=\"stim\">5</p>", "key_press": -1, "trial_type": "single-stim", "trial_index": 191, "time_elapsed": 998269, "internal_node_id": "0.0-141.0-5.0"}}, {"uniqueid": "MTK1044:3C5W7UE9CGX9G8YU1FB936ETF3PMXZ", "current_trial": 192, "dateTime": 1513018927315, "trialdata": {"rt": -1, "stimulus": "<p id=\"stim\">4</p>", "key_press": -1, "trial_type": "single-stim", "trial_index": 192, "time_elapsed": 999270, "internal_node_id": "0.0-141.0-6.0"}}, {"uniqueid": "MTK1044:3C5W7UE9CGX9G8YU1FB936ETF3PMXZ", "current_trial": 193, "dateTime": 1513018928317, "trialdata": {"rt": -1, "stimulus": "<p id=\"stim\">3</p>", "key_press": -1, "trial_type": "single-stim", "trial_index": 193, "time_elapsed": 1000271, "internal_node_id": "0.0-141.0-7.0"}}, {"uniqueid": "MTK1044:3C5W7UE9CGX9G8YU1FB936ETF3PMXZ", "current_trial": 194, "dateTime": 1513018929319, "trialdata": {"rt": -1, "stimulus": "<p id=\"stim\">2</p>", "key_press": -1, "trial_type": "single-stim", "trial_index": 194, "time_elapsed": 1001273, "internal_node_id": "0.0-141.0-8.0"}}, {"uniqueid": "MTK1044:3C5W7UE9CGX9G8YU1FB936ETF3PMXZ", "current_trial": 195, "dateTime": 1513018930321, "trialdata": {"rt": -1, "stimulus": "<p id=\"stim\">1</p>", "key_press": -1, "trial_type": "single-stim", "trial_index": 195, "time_elapsed": 1002276, "internal_node_id": "0.0-141.0-9.0"}}, {"uniqueid": "MTK1044:3C5W7UE9CGX9G8YU1FB936ETF3PMXZ", "current_trial": 196, "dateTime": 1513018931822, "trialdata": {"rt": -1, "stimulus": "<p id=\"stim\">+</p>", "key_press": -1, "type": "FIXATION", "trial_type": "single-stim", "trial_index": 196, "time_elapsed": 1003777, "internal_node_id": "0.0-142.0-0.0"}}, {"uniqueid": "MTK1044:3C5W7UE9CGX9G8YU1FB936ETF3PMXZ", "current_trial": 197, "dateTime": 1513018934280, "trialdata": {"rt": -1000, "stimulus": "/static/audio/wordpool/VICTIM.wav", "key_press": -1, "type": "PRES_AUD", "word": "victim", "wordID": 1561, "conditions": [12, 1600, "a", 12000], "trial": 5, "serialpos": 0, "trial_type": "single-audio", "trial_index": 197, "time_elapsed": 1006235, "internal_node_id": "0.0-143.0"}}, {"uniqueid": "MTK1044:3C5W7UE9CGX9G8YU1FB936ETF3PMXZ", "current_trial": 198, "dateTime": 1513018936868, "trialdata": {"rt": -1000, "stimulus": "/static/audio/wordpool/PARTNER.wav", "key_press": -1, "type": "PRES_AUD", "word": "partner", "wordID": 1016, "conditions": [12, 1600, "a", 12000], "trial": 5, "serialpos": 1, "trial_type": "single-audio", "trial_index": 198, "time_elapsed": 1008823, "internal_node_id": "0.0-144.0"}}, {"uniqueid": "MTK1044:3C5W7UE9CGX9G8YU1FB936ETF3PMXZ", "current_trial": 199, "dateTime": 1513018939516, "trialdata": {"rt": -1000, "stimulus": "/static/audio/wordpool/LAKE.wav", "key_press": -1, "type": "PRES_AUD", "word": "lake", "wordID": 795, "conditions": [12, 1600, "a", 12000], "trial": 5, "serialpos": 2, "trial_type": "single-audio", "trial_index": 199, "time_elapsed": 1011471, "internal_node_id": "0.0-145.0"}}, {"uniqueid": "MTK1044:3C5W7UE9CGX9G8YU1FB936ETF3PMXZ", "current_trial": 200, "dateTime": 1513018942119, "trialdata": {"rt": -1000, "stimulus": "/static/audio/wordpool/BUNNY.wav", "key_press": -1, "type": "PRES_AUD", "word": "bunny", "wordID": 197, "conditions": [12, 1600, "a", 12000], "trial": 5, "serialpos": 3, "trial_type": "single-audio", "trial_index": 200, "time_elapsed": 1014074, "internal_node_id": "0.0-146.0"}}, {"uniqueid": "MTK1044:3C5W7UE9CGX9G8YU1FB936ETF3PMXZ", "current_trial": 201, "dateTime": 1513018944564, "trialdata": {"rt": -1000, "stimulus": "/static/audio/wordpool/PASTA.wav", "key_press": -1, "type": "PRES_AUD", "word": "pasta", "wordID": 1020, "conditions": [12, 1600, "a", 12000], "trial": 5, "serialpos": 4, "trial_type": "single-audio", "trial_index": 201, "time_elapsed": 1016517, "internal_node_id": "0.0-147.0"}}, {"uniqueid": "MTK1044:3C5W7UE9CGX9G8YU1FB936ETF3PMXZ", "current_trial": 202, "dateTime": 1513018947147, "trialdata": {"rt": -1000, "stimulus": "/static/audio/wordpool/LETTUCE.wav", "key_press": -1, "type": "PRES_AUD", "word": "lettuce", "wordID": 813, "conditions": [12, 1600, "a", 12000], "trial": 5, "serialpos": 5, "trial_type": "single-audio", "trial_index": 202, "time_elapsed": 1019102, "internal_node_id": "0.0-148.0"}}, {"uniqueid": "MTK1044:3C5W7UE9CGX9G8YU1FB936ETF3PMXZ", "current_trial": 203, "dateTime": 1513018949726, "trialdata": {"rt": -1000, "stimulus": "/static/audio/wordpool/MAMMAL.wav", "key_press": -1, "type": "PRES_AUD", "word": "mammal", "wordID": 860, "conditions": [12, 1600, "a", 12000], "trial": 5, "serialpos": 6, "trial_type": "single-audio", "trial_index": 203, "time_elapsed": 1021681, "internal_node_id": "0.0-149.0"}}, {"uniqueid": "MTK1044:3C5W7UE9CGX9G8YU1FB936ETF3PMXZ", "current_trial": 204, "dateTime": 1513018952403, "trialdata": {"rt": -1000, "stimulus": "/static/audio/wordpool/LAGOON.wav", "key_press": -1, "type": "PRES_AUD", "word": "lagoon", "wordID": 794, "conditions": [12, 1600, "a", 12000], "trial": 5, "serialpos": 7, "trial_type": "single-audio", "trial_index": 204, "time_elapsed": 1024358, "internal_node_id": "0.0-150.0"}}, {"uniqueid": "MTK1044:3C5W7UE9CGX9G8YU1FB936ETF3PMXZ", "current_trial": 205, "dateTime": 1513018954829, "trialdata": {"rt": -1000, "stimulus": "/static/audio/wordpool/RABBIT.wav", "key_press": -1, "type": "PRES_AUD", "word": "rabbit", "wordID": 1151, "conditions": [12, 1600, "a", 12000], "trial": 5, "serialpos": 8, "trial_type": "single-audio", "trial_index": 205, "time_elapsed": 1026784, "internal_node_id": "0.0-151.0"}}, {"uniqueid": "MTK1044:3C5W7UE9CGX9G8YU1FB936ETF3PMXZ", "current_trial": 206, "dateTime": 1513018957542, "trialdata": {"rt": -1000, "stimulus": "/static/audio/wordpool/BINDER.wav", "key_press": -1, "type": "PRES_AUD", "word": "binder", "wordID": 126, "conditions": [12, 1600, "a", 12000], "trial": 5, "serialpos": 9, "trial_type": "single-audio", "trial_index": 206, "time_elapsed": 1029497, "internal_node_id": "0.0-152.0"}}, {"uniqueid": "MTK1044:3C5W7UE9CGX9G8YU1FB936ETF3PMXZ", "current_trial": 207, "dateTime": 1513018959998, "trialdata": {"rt": -1000, "stimulus": "/static/audio/wordpool/MATTRESS.wav", "key_press": -1, "type": "PRES_AUD", "word": "mattress", "wordID": 878, "conditions": [12, 1600, "a", 12000], "trial": 5, "serialpos": 10, "trial_type": "single-audio", "trial_index": 207, "time_elapsed": 1031953, "internal_node_id": "0.0-153.0"}}, {"uniqueid": "MTK1044:3C5W7UE9CGX9G8YU1FB936ETF3PMXZ", "current_trial": 208, "dateTime": 1513018962531, "trialdata": {"rt": -1000, "stimulus": "/static/audio/wordpool/CRIB.wav", "key_press": -1, "type": "PRES_AUD", "word": "crib", "wordID": 406, "conditions": [12, 1600, "a", 12000], "trial": 5, "serialpos": 11, "trial_type": "single-audio", "trial_index": 208, "time_elapsed": 1034486, "internal_node_id": "0.0-154.0"}}, {"uniqueid": "MTK1044:3C5W7UE9CGX9G8YU1FB936ETF3PMXZ", "current_trial": 209, "dateTime": 1513018963923, "trialdata": {"rt": -1, "stimulus": "", "key_press": -1, "type": "PRE_RECALL_DELAY", "trial_type": "single-stim", "trial_index": 209, "time_elapsed": 1035878, "internal_node_id": "0.0-155.0-0.0"}}, {"uniqueid": "MTK1044:3C5W7UE9CGX9G8YU1FB936ETF3PMXZ", "current_trial": 210, "dateTime": 1513018964424, "trialdata": {"rt": -1000, "stimulus": "/static/audio/400Hz.wav", "key_press": -1, "type": "PRE_RECALL_ALERT", "trial_type": "single-audio", "trial_index": 210, "time_elapsed": 1036378, "internal_node_id": "0.0-156.0"}}, {"uniqueid": "MTK1044:3C5W7UE9CGX9G8YU1FB936ETF3PMXZ", "current_trial": 211, "dateTime": 1513019024434, "trialdata": {"rt": [2245, 4232, 5663, 6957, 8401, 11088, 18279, 20378], "recwords": ["crib", "mattress", "lagoon", "bunny", "rabit", "lake", "pasta", "lettuce"], "type": "FREE_RECALL", "conditions": [12, 1600, "a", 12000], "trial": 5, "trial_type": "free-recall", "trial_index": 211, "time_elapsed": 1096382, "internal_node_id": "0.0-157.0-0.0"}}, {"uniqueid": "MTK1044:3C5W7UE9CGX9G8YU1FB936ETF3PMXZ", "current_trial": 212, "dateTime": 1513019028542, "trialdata": {"rt": 2106, "key_press": 101, "type": "INSTRUCTIONS", "trial_type": "text", "trial_index": 212, "time_elapsed": 1100497, "internal_node_id": "0.0-158.0"}}, {"uniqueid": "MTK1044:3C5W7UE9CGX9G8YU1FB936ETF3PMXZ", "current_trial": 213, "dateTime": 1513019054545, "trialdata": {"rt": [2516, 4316, 7796, 9828, 13372, 15876, 18660, 20684, 23580], "responses": ["11", "1", "1", "12", "14", "17", "13", "12", "15"], "num1": [3, 6, 6, 8, 8, 5, 5, 1, 3, 6], "num2": [7, 3, 1, 3, 5, 6, 4, 5, 4, 7], "num3": [1, 4, 8, 1, 1, 6, 4, 6, 8, 7], "type": "DISTRACTOR", "conditions": [24, 800, "a", 24000], "trial": 6, "trial_type": "math-distractor", "trial_index": 213, "time_elapsed": 1126500, "internal_node_id": "0.0-159.0"}}, {"uniqueid": "MTK1044:3C5W7UE9CGX9G8YU1FB936ETF3PMXZ", "current_trial": 214, "dateTime": 1513019057549, "trialdata": {"rt": -1, "stimulus": "<p id=\"stim\">10</p>", "key_press": -1, "trial_type": "single-stim", "trial_index": 214, "time_elapsed": 1129504, "internal_node_id": "0.0-160.0-0.0"}}, {"uniqueid": "MTK1044:3C5W7UE9CGX9G8YU1FB936ETF3PMXZ", "current_trial": 215, "dateTime": 1513019058551, "trialdata": {"rt": -1, "stimulus": "<p id=\"stim\">9</p>", "key_press": -1, "trial_type": "single-stim", "trial_index": 215, "time_elapsed": 1130506, "internal_node_id": "0.0-160.0-1.0"}}, {"uniqueid": "MTK1044:3C5W7UE9CGX9G8YU1FB936ETF3PMXZ", "current_trial": 216, "dateTime": 1513019059552, "trialdata": {"rt": -1, "stimulus": "<p id=\"stim\">8</p>", "key_press": -1, "trial_type": "single-stim", "trial_index": 216, "time_elapsed": 1131507, "internal_node_id": "0.0-160.0-2.0"}}, {"uniqueid": "MTK1044:3C5W7UE9CGX9G8YU1FB936ETF3PMXZ", "current_trial": 217, "dateTime": 1513019060554, "trialdata": {"rt": -1, "stimulus": "<p id=\"stim\">7</p>", "key_press": -1, "trial_type": "single-stim", "trial_index": 217, "time_elapsed": 1132509, "internal_node_id": "0.0-160.0-3.0"}}, {"uniqueid": "MTK1044:3C5W7UE9CGX9G8YU1FB936ETF3PMXZ", "current_trial": 218, "dateTime": 1513019061555, "trialdata": {"rt": -1, "stimulus": "<p id=\"stim\">6</p>", "key_press": -1, "trial_type": "single-stim", "trial_index": 218, "time_elapsed": 1133510, "internal_node_id": "0.0-160.0-4.0"}}, {"uniqueid": "MTK1044:3C5W7UE9CGX9G8YU1FB936ETF3PMXZ", "current_trial": 219, "dateTime": 1513019062557, "trialdata": {"rt": -1, "stimulus": "<p id=\"stim\">5</p>", "key_press": -1, "trial_type": "single-stim", "trial_index": 219, "time_elapsed": 1134511, "internal_node_id": "0.0-160.0-5.0"}}, {"uniqueid": "MTK1044:3C5W7UE9CGX9G8YU1FB936ETF3PMXZ", "current_trial": 220, "dateTime": 1513019063560, "trialdata": {"rt": -1, "stimulus": "<p id=\"stim\">4</p>", "key_press": -1, "trial_type": "single-stim", "trial_index": 220, "time_elapsed": 1135515, "internal_node_id": "0.0-160.0-6.0"}}, {"uniqueid": "MTK1044:3C5W7UE9CGX9G8YU1FB936ETF3PMXZ", "current_trial": 221, "dateTime": 1513019064561, "trialdata": {"rt": -1, "stimulus": "<p id=\"stim\">3</p>", "key_press": -1, "trial_type": "single-stim", "trial_index": 221, "time_elapsed": 1136516, "internal_node_id": "0.0-160.0-7.0"}}, {"uniqueid": "MTK1044:3C5W7UE9CGX9G8YU1FB936ETF3PMXZ", "current_trial": 222, "dateTime": 1513019065563, "trialdata": {"rt": -1, "stimulus": "<p id=\"stim\">2</p>", "key_press": -1, "trial_type": "single-stim", "trial_index": 222, "time_elapsed": 1137518, "internal_node_id": "0.0-160.0-8.0"}}, {"uniqueid": "MTK1044:3C5W7UE9CGX9G8YU1FB936ETF3PMXZ", "current_trial": 223, "dateTime": 1513019066566, "trialdata": {"rt": -1, "stimulus": "<p id=\"stim\">1</p>", "key_press": -1, "trial_type": "single-stim", "trial_index": 223, "time_elapsed": 1138521, "internal_node_id": "0.0-160.0-9.0"}}, {"uniqueid": "MTK1044:3C5W7UE9CGX9G8YU1FB936ETF3PMXZ", "current_trial": 224, "dateTime": 1513019068069, "trialdata": {"rt": -1, "stimulus": "<p id=\"stim\">+</p>", "key_press": -1, "type": "FIXATION", "trial_type": "single-stim", "trial_index": 224, "time_elapsed": 1140024, "internal_node_id": "0.0-161.0-0.0"}}, {"uniqueid": "MTK1044:3C5W7UE9CGX9G8YU1FB936ETF3PMXZ", "current_trial": 225, "dateTime": 1513019070063, "trialdata": {"rt": -1000, "stimulus": "/static/audio/wordpool/CHILD.wav", "key_press": -1, "type": "PRES_AUD", "word": "child", "wordID": 298, "conditions": [24, 800, "a", 24000], "trial": 6, "serialpos": 0, "trial_type": "single-audio", "trial_index": 225, "time_elapsed": 1142018, "internal_node_id": "0.0-162.0"}}, {"uniqueid": "MTK1044:3C5W7UE9CGX9G8YU1FB936ETF3PMXZ", "current_trial": 226, "dateTime": 1513019071731, "trialdata": {"rt": -1000, "stimulus": "/static/audio/wordpool/PLIERS.wav", "key_press": -1, "type": "PRES_AUD", "word": "pliers", "wordID": 1088, "conditions": [24, 800, "a", 24000], "trial": 6, "serialpos": 1, "trial_type": "single-audio", "trial_index": 226, "time_elapsed": 1143686, "internal_node_id": "0.0-163.0"}}, {"uniqueid": "MTK1044:3C5W7UE9CGX9G8YU1FB936ETF3PMXZ", "current_trial": 227, "dateTime": 1513019073350, "trialdata": {"rt": -1000, "stimulus": "/static/audio/wordpool/POISON.wav", "key_press": -1, "type": "PRES_AUD", "word": "poison", "wordID": 1095, "conditions": [24, 800, "a", 24000], "trial": 6, "serialpos": 2, "trial_type": "single-audio", "trial_index": 227, "time_elapsed": 1145305, "internal_node_id": "0.0-164.0"}}, {"uniqueid": "MTK1044:3C5W7UE9CGX9G8YU1FB936ETF3PMXZ", "current_trial": 228, "dateTime": 1513019075201, "trialdata": {"rt": -1000, "stimulus": "/static/audio/wordpool/SPONGE.wav", "key_press": -1, "type": "PRES_AUD", "word": "sponge", "wordID": 1354, "conditions": [24, 800, "a", 24000], "trial": 6, "serialpos": 3, "trial_type": "single-audio", "trial_index": 228, "time_elapsed": 1147156, "internal_node_id": "0.0-165.0"}}, {"uniqueid": "MTK1044:3C5W7UE9CGX9G8YU1FB936ETF3PMXZ", "current_trial": 229, "dateTime": 1513019077050, "trialdata": {"rt": -1000, "stimulus": "/static/audio/wordpool/WIDOW.wav", "key_press": -1, "type": "PRES_AUD", "word": "widow", "wordID": 1607, "conditions": [24, 800, "a", 24000], "trial": 6, "serialpos": 4, "trial_type": "single-audio", "trial_index": 229, "time_elapsed": 1149005, "internal_node_id": "0.0-166.0"}}, {"uniqueid": "MTK1044:3C5W7UE9CGX9G8YU1FB936ETF3PMXZ", "current_trial": 230, "dateTime": 1513019078825, "trialdata": {"rt": -1000, "stimulus": "/static/audio/wordpool/PISTON.wav", "key_press": -1, "type": "PRES_AUD", "word": "piston", "wordID": 1075, "conditions": [24, 800, "a", 24000], "trial": 6, "serialpos": 5, "trial_type": "single-audio", "trial_index": 230, "time_elapsed": 1150780, "internal_node_id": "0.0-167.0"}}, {"uniqueid": "MTK1044:3C5W7UE9CGX9G8YU1FB936ETF3PMXZ", "current_trial": 231, "dateTime": 1513019080718, "trialdata": {"rt": -1000, "stimulus": "/static/audio/wordpool/GARLIC.wav", "key_press": -1, "type": "PRES_AUD", "word": "garlic", "wordID": 623, "conditions": [24, 800, "a", 24000], "trial": 6, "serialpos": 6, "trial_type": "single-audio", "trial_index": 231, "time_elapsed": 1152673, "internal_node_id": "0.0-168.0"}}, {"uniqueid": "MTK1044:3C5W7UE9CGX9G8YU1FB936ETF3PMXZ", "current_trial": 232, "dateTime": 1513019082503, "trialdata": {"rt": -1000, "stimulus": "/static/audio/wordpool/INFANT.wav", "key_press": -1, "type": "PRES_AUD", "word": "infant", "wordID": 736, "conditions": [24, 800, "a", 24000], "trial": 6, "serialpos": 7, "trial_type": "single-audio", "trial_index": 232, "time_elapsed": 1154458, "internal_node_id": "0.0-169.0"}}, {"uniqueid": "MTK1044:3C5W7UE9CGX9G8YU1FB936ETF3PMXZ", "current_trial": 233, "dateTime": 1513019084126, "trialdata": {"rt": -1000, "stimulus": "/static/audio/wordpool/BUGGY.wav", "key_press": -1, "type": "PRES_AUD", "word": "buggy", "wordID": 187, "conditions": [24, 800, "a", 24000], "trial": 6, "serialpos": 8, "trial_type": "single-audio", "trial_index": 233, "time_elapsed": 1156081, "internal_node_id": "0.0-170.0"}}, {"uniqueid": "MTK1044:3C5W7UE9CGX9G8YU1FB936ETF3PMXZ", "current_trial": 234, "dateTime": 1513019086047, "trialdata": {"rt": -1000, "stimulus": "/static/audio/wordpool/ROBIN.wav", "key_press": -1, "type": "PRES_AUD", "word": "robin", "wordID": 1198, "conditions": [24, 800, "a", 24000], "trial": 6, "serialpos": 9, "trial_type": "single-audio", "trial_index": 234, "time_elapsed": 1158002, "internal_node_id": "0.0-171.0"}}, {"uniqueid": "MTK1044:3C5W7UE9CGX9G8YU1FB936ETF3PMXZ", "current_trial": 235, "dateTime": 1513019087860, "trialdata": {"rt": -1000, "stimulus": "/static/audio/wordpool/FRANCE.wav", "key_press": -1, "type": "PRES_AUD", "word": "france", "wordID": 600, "conditions": [24, 800, "a", 24000], "trial": 6, "serialpos": 10, "trial_type": "single-audio", "trial_index": 235, "time_elapsed": 1159815, "internal_node_id": "0.0-172.0"}}, {"uniqueid": "MTK1044:3C5W7UE9CGX9G8YU1FB936ETF3PMXZ", "current_trial": 236, "dateTime": 1513019089605, "trialdata": {"rt": -1000, "stimulus": "/static/audio/wordpool/LONDON.wav", "key_press": -1, "type": "PRES_AUD", "word": "london", "wordID": 842, "conditions": [24, 800, "a", 24000], "trial": 6, "serialpos": 11, "trial_type": "single-audio", "trial_index": 236, "time_elapsed": 1161559, "internal_node_id": "0.0-173.0"}}, {"uniqueid": "MTK1044:3C5W7UE9CGX9G8YU1FB936ETF3PMXZ", "current_trial": 237, "dateTime": 1513019091353, "trialdata": {"rt": -1000, "stimulus": "/static/audio/wordpool/INMATE.wav", "key_press": -1, "type": "PRES_AUD", "word": "inmate", "wordID": 737, "conditions": [24, 800, "a", 24000], "trial": 6, "serialpos": 12, "trial_type": "single-audio", "trial_index": 237, "time_elapsed": 1163308, "internal_node_id": "0.0-174.0"}}, {"uniqueid": "MTK1044:3C5W7UE9CGX9G8YU1FB936ETF3PMXZ", "current_trial": 238, "dateTime": 1513019093047, "trialdata": {"rt": -1000, "stimulus": "/static/audio/wordpool/LAMP.wav", "key_press": -1, "type": "PRES_AUD", "word": "lamp", "wordID": 797, "conditions": [24, 800, "a", 24000], "trial": 6, "serialpos": 13, "trial_type": "single-audio", "trial_index": 238, "time_elapsed": 1165002, "internal_node_id": "0.0-175.0"}}, {"uniqueid": "MTK1044:3C5W7UE9CGX9G8YU1FB936ETF3PMXZ", "current_trial": 239, "dateTime": 1513019094955, "trialdata": {"rt": -1000, "stimulus": "/static/audio/wordpool/SHELF.wav", "key_press": -1, "type": "PRES_AUD", "word": "shelf", "wordID": 1279, "conditions": [24, 800, "a", 24000], "trial": 6, "serialpos": 14, "trial_type": "single-audio", "trial_index": 239, "time_elapsed": 1166910, "internal_node_id": "0.0-176.0"}}, {"uniqueid": "MTK1044:3C5W7UE9CGX9G8YU1FB936ETF3PMXZ", "current_trial": 240, "dateTime": 1513019096740, "trialdata": {"rt": -1000, "stimulus": "/static/audio/wordpool/MOTOR.wav", "key_press": -1, "type": "PRES_AUD", "word": "motor", "wordID": 921, "conditions": [24, 800, "a", 24000], "trial": 6, "serialpos": 15, "trial_type": "single-audio", "trial_index": 240, "time_elapsed": 1168695, "internal_node_id": "0.0-177.0"}}, {"uniqueid": "MTK1044:3C5W7UE9CGX9G8YU1FB936ETF3PMXZ", "current_trial": 241, "dateTime": 1513019098411, "trialdata": {"rt": -1000, "stimulus": "/static/audio/wordpool/SKILLET.wav", "key_press": -1, "type": "PRES_AUD", "word": "skillet", "wordID": 1316, "conditions": [24, 800, "a", 24000], "trial": 6, "serialpos": 16, "trial_type": "single-audio", "trial_index": 241, "time_elapsed": 1170366, "internal_node_id": "0.0-178.0"}}, {"uniqueid": "MTK1044:3C5W7UE9CGX9G8YU1FB936ETF3PMXZ", "current_trial": 242, "dateTime": 1513019100237, "trialdata": {"rt": -1000, "stimulus": "/static/audio/wordpool/VAGRANT.wav", "key_press": -1, "type": "PRES_AUD", "word": "vagrant", "wordID": 1543, "conditions": [24, 800, "a", 24000], "trial": 6, "serialpos": 17, "trial_type": "single-audio", "trial_index": 242, "time_elapsed": 1172192, "internal_node_id": "0.0-179.0"}}, {"uniqueid": "MTK1044:3C5W7UE9CGX9G8YU1FB936ETF3PMXZ", "current_trial": 243, "dateTime": 1513019102095, "trialdata": {"rt": -1000, "stimulus": "/static/audio/wordpool/BANJO.wav", "key_press": -1, "type": "PRES_AUD", "word": "banjo", "wordID": 81, "conditions": [24, 800, "a", 24000], "trial": 6, "serialpos": 18, "trial_type": "single-audio", "trial_index": 243, "time_elapsed": 1174050, "internal_node_id": "0.0-180.0"}}, {"uniqueid": "MTK1044:3C5W7UE9CGX9G8YU1FB936ETF3PMXZ", "current_trial": 244, "dateTime": 1513019103873, "trialdata": {"rt": -1000, "stimulus": "/static/audio/wordpool/PIANO.wav", "key_press": -1, "type": "PRES_AUD", "word": "piano", "wordID": 1056, "conditions": [24, 800, "a", 24000], "trial": 6, "serialpos": 19, "trial_type": "single-audio", "trial_index": 244, "time_elapsed": 1175828, "internal_node_id": "0.0-181.0"}}, {"uniqueid": "MTK1044:3C5W7UE9CGX9G8YU1FB936ETF3PMXZ", "current_trial": 245, "dateTime": 1513019105826, "trialdata": {"rt": -1000, "stimulus": "/static/audio/wordpool/EMPIRE.wav", "key_press": -1, "type": "PRES_AUD", "word": "empire", "wordID": 529, "conditions": [24, 800, "a", 24000], "trial": 6, "serialpos": 20, "trial_type": "single-audio", "trial_index": 245, "time_elapsed": 1177781, "internal_node_id": "0.0-182.0"}}, {"uniqueid": "MTK1044:3C5W7UE9CGX9G8YU1FB936ETF3PMXZ", "current_trial": 246, "dateTime": 1513019107753, "trialdata": {"rt": -1000, "stimulus": "/static/audio/wordpool/CHAMPAGNE.wav", "key_press": -1, "type": "PRES_AUD", "word": "champagne", "wordID": 277, "conditions": [24, 800, "a", 24000], "trial": 6, "serialpos": 21, "trial_type": "single-audio", "trial_index": 246, "time_elapsed": 1179708, "internal_node_id": "0.0-183.0"}}, {"uniqueid": "MTK1044:3C5W7UE9CGX9G8YU1FB936ETF3PMXZ", "current_trial": 247, "dateTime": 1513019109519, "trialdata": {"rt": -1000, "stimulus": "/static/audio/wordpool/BLENDER.wav", "key_press": -1, "type": "PRES_AUD", "word": "blender", "wordID": 135, "conditions": [24, 800, "a", 24000], "trial": 6, "serialpos": 22, "trial_type": "single-audio", "trial_index": 247, "time_elapsed": 1181474, "internal_node_id": "0.0-184.0"}}, {"uniqueid": "MTK1044:3C5W7UE9CGX9G8YU1FB936ETF3PMXZ", "current_trial": 248, "dateTime": 1513019111426, "trialdata": {"rt": -1000, "stimulus": "/static/audio/wordpool/NEUTRON.wav", "key_press": -1, "type": "PRES_AUD", "word": "neutron", "wordID": 946, "conditions": [24, 800, "a", 24000], "trial": 6, "serialpos": 23, "trial_type": "single-audio", "trial_index": 248, "time_elapsed": 1183381, "internal_node_id": "0.0-185.0"}}, {"uniqueid": "MTK1044:3C5W7UE9CGX9G8YU1FB936ETF3PMXZ", "current_trial": 249, "dateTime": 1513019112695, "trialdata": {"rt": -1, "stimulus": "", "key_press": -1, "type": "PRE_RECALL_DELAY", "trial_type": "single-stim", "trial_index": 249, "time_elapsed": 1184650, "internal_node_id": "0.0-186.0-0.0"}}, {"uniqueid": "MTK1044:3C5W7UE9CGX9G8YU1FB936ETF3PMXZ", "current_trial": 250, "dateTime": 1513019113204, "trialdata": {"rt": -1000, "stimulus": "/static/audio/400Hz.wav", "key_press": -1, "type": "PRE_RECALL_ALERT", "trial_type": "single-audio", "trial_index": 250, "time_elapsed": 1185158, "internal_node_id": "0.0-187.0"}}, {"uniqueid": "MTK1044:3C5W7UE9CGX9G8YU1FB936ETF3PMXZ", "current_trial": 251, "dateTime": 1513019173214, "trialdata": {"rt": [4910, 8023, 11238, 12462, 18654, 19686, 21238, 28246, 38502, 52270], "recwords": ["blender", "nuetron", "france", "london", "poison", "son", "widow", "banjo", "piano", "skillet"], "type": "FREE_RECALL", "conditions": [24, 800, "a", 24000], "trial": 6, "trial_type": "free-recall", "trial_index": 251, "time_elapsed": 1245163, "internal_node_id": "0.0-188.0-0.0"}}, {"uniqueid": "MTK1044:3C5W7UE9CGX9G8YU1FB936ETF3PMXZ", "current_trial": 252, "dateTime": 1513019191709, "trialdata": {"rt": 16492, "key_press": 71, "type": "INSTRUCTIONS", "trial_type": "text", "trial_index": 252, "time_elapsed": 1263663, "internal_node_id": "0.0-189.0"}}, {"uniqueid": "MTK1044:3C5W7UE9CGX9G8YU1FB936ETF3PMXZ", "current_trial": 253, "dateTime": 1513019217713, "trialdata": {"rt": [4364, 7819, 9428, 11483, 15124, 18860, 21324, 23579], "responses": ["22", "17", "18", "7", "19", "18", "16", "10"], "num1": [7, 3, 5, 2, 6, 7, 7, 1, 5], "num2": [8, 5, 5, 4, 9, 4, 6, 6, 3], "num3": [7, 9, 8, 1, 4, 7, 3, 3, 7], "type": "DISTRACTOR", "conditions": [12, 1600, "v", 24000], "trial": 7, "trial_type": "math-distractor", "trial_index": 253, "time_elapsed": 1289668, "internal_node_id": "0.0-190.0"}}, {"uniqueid": "MTK1044:3C5W7UE9CGX9G8YU1FB936ETF3PMXZ", "current_trial": 254, "dateTime": 1513019220718, "trialdata": {"rt": -1, "stimulus": "<p id=\"stim\">10</p>", "key_press": -1, "trial_type": "single-stim", "trial_index": 254, "time_elapsed": 1292672, "internal_node_id": "0.0-191.0-0.0"}}, {"uniqueid": "MTK1044:3C5W7UE9CGX9G8YU1FB936ETF3PMXZ", "current_trial": 255, "dateTime": 1513019221720, "trialdata": {"rt": -1, "stimulus": "<p id=\"stim\">9</p>", "key_press": -1, "trial_type": "single-stim", "trial_index": 255, "time_elapsed": 1293675, "internal_node_id": "0.0-191.0-1.0"}}, {"uniqueid": "MTK1044:3C5W7UE9CGX9G8YU1FB936ETF3PMXZ", "current_trial": 256, "dateTime": 1513019222722, "trialdata": {"rt": -1, "stimulus": "<p id=\"stim\">8</p>", "key_press": -1, "trial_type": "single-stim", "trial_index": 256, "time_elapsed": 1294676, "internal_node_id": "0.0-191.0-2.0"}}, {"uniqueid": "MTK1044:3C5W7UE9CGX9G8YU1FB936ETF3PMXZ", "current_trial": 257, "dateTime": 1513019223724, "trialdata": {"rt": -1, "stimulus": "<p id=\"stim\">7</p>", "key_press": -1, "trial_type": "single-stim", "trial_index": 257, "time_elapsed": 1295679, "internal_node_id": "0.0-191.0-3.0"}}, {"uniqueid": "MTK1044:3C5W7UE9CGX9G8YU1FB936ETF3PMXZ", "current_trial": 258, "dateTime": 1513019224727, "trialdata": {"rt": -1, "stimulus": "<p id=\"stim\">6</p>", "key_press": -1, "trial_type": "single-stim", "trial_index": 258, "time_elapsed": 1296682, "internal_node_id": "0.0-191.0-4.0"}}, {"uniqueid": "MTK1044:3C5W7UE9CGX9G8YU1FB936ETF3PMXZ", "current_trial": 259, "dateTime": 1513019225728, "trialdata": {"rt": -1, "stimulus": "<p id=\"stim\">5</p>", "key_press": -1, "trial_type": "single-stim", "trial_index": 259, "time_elapsed": 1297683, "internal_node_id": "0.0-191.0-5.0"}}, {"uniqueid": "MTK1044:3C5W7UE9CGX9G8YU1FB936ETF3PMXZ", "current_trial": 260, "dateTime": 1513019226731, "trialdata": {"rt": -1, "stimulus": "<p id=\"stim\">4</p>", "key_press": -1, "trial_type": "single-stim", "trial_index": 260, "time_elapsed": 1298686, "internal_node_id": "0.0-191.0-6.0"}}, {"uniqueid": "MTK1044:3C5W7UE9CGX9G8YU1FB936ETF3PMXZ", "current_trial": 261, "dateTime": 1513019227734, "trialdata": {"rt": -1, "stimulus": "<p id=\"stim\">3</p>", "key_press": -1, "trial_type": "single-stim", "trial_index": 261, "time_elapsed": 1299688, "internal_node_id": "0.0-191.0-7.0"}}, {"uniqueid": "MTK1044:3C5W7UE9CGX9G8YU1FB936ETF3PMXZ", "current_trial": 262, "dateTime": 1513019228737, "trialdata": {"rt": -1, "stimulus": "<p id=\"stim\">2</p>", "key_press": -1, "trial_type": "single-stim", "trial_index": 262, "time_elapsed": 1300691, "internal_node_id": "0.0-191.0-8.0"}}, {"uniqueid": "MTK1044:3C5W7UE9CGX9G8YU1FB936ETF3PMXZ", "current_trial": 263, "dateTime": 1513019229740, "trialdata": {"rt": -1, "stimulus": "<p id=\"stim\">1</p>", "key_press": -1, "trial_type": "single-stim", "trial_index": 263, "time_elapsed": 1301695, "internal_node_id": "0.0-191.0-9.0"}}, {"uniqueid": "MTK1044:3C5W7UE9CGX9G8YU1FB936ETF3PMXZ", "current_trial": 264, "dateTime": 1513019231241, "trialdata": {"rt": -1, "stimulus": "<p id=\"stim\">+</p>", "key_press": -1, "type": "FIXATION", "trial_type": "single-stim", "trial_index": 264, "time_elapsed": 1303196, "internal_node_id": "0.0-192.0-0.0"}}, {"uniqueid": "MTK1044:3C5W7UE9CGX9G8YU1FB936ETF3PMXZ", "current_trial": 265, "dateTime": 1513019232843, "trialdata": {"rt": -1, "stimulus": "<p id=\"stim\">TEMPLE</p>", "key_press": -1, "type": "PRES_VIS", "word": "temple", "wordID": 1447, "conditions": [12, 1600, "v", 24000], "trial": 7, "serialpos": 0, "trial_type": "single-stim", "trial_index": 265, "time_elapsed": 1304798, "internal_node_id": "0.0-193.0"}}, {"uniqueid": "MTK1044:3C5W7UE9CGX9G8YU1FB936ETF3PMXZ", "current_trial": 266, "dateTime": 1513019235288, "trialdata": {"rt": -1, "stimulus": "<p id=\"stim\">TURTLE</p>", "key_press": -1, "type": "PRES_VIS", "word": "turtle", "wordID": 1521, "conditions": [12, 1600, "v", 24000], "trial": 7, "serialpos": 1, "trial_type": "single-stim", "trial_index": 266, "time_elapsed": 1307242, "internal_node_id": "0.0-194.0"}}, {"uniqueid": "MTK1044:3C5W7UE9CGX9G8YU1FB936ETF3PMXZ", "current_trial": 267, "dateTime": 1513019237828, "trialdata": {"rt": -1, "stimulus": "<p id=\"stim\">DOLPHIN</p>", "key_press": -1, "type": "PRES_VIS", "word": "dolphin", "wordID": 482, "conditions": [12, 1600, "v", 24000], "trial": 7, "serialpos": 2, "trial_type": "single-stim", "trial_index": 267, "time_elapsed": 1309782, "internal_node_id": "0.0-195.0"}}, {"uniqueid": "MTK1044:3C5W7UE9CGX9G8YU1FB936ETF3PMXZ", "current_trial": 268, "dateTime": 1513019240244, "trialdata": {"rt": -1, "stimulus": "<p id=\"stim\">SIBLING</p>", "key_press": -1, "type": "PRES_VIS", "word": "sibling", "wordID": 1300, "conditions": [12, 1600, "v", 24000], "trial": 7, "serialpos": 3, "trial_type": "single-stim", "trial_index": 268, "time_elapsed": 1312199, "internal_node_id": "0.0-196.0"}}, {"uniqueid": "MTK1044:3C5W7UE9CGX9G8YU1FB936ETF3PMXZ", "current_trial": 269, "dateTime": 1513019242772, "trialdata": {"rt": -1, "stimulus": "<p id=\"stim\">BLOUSE</p>", "key_press": -1, "type": "PRES_VIS", "word": "blouse", "wordID": 138, "conditions": [12, 1600, "v", 24000], "trial": 7, "serialpos": 4, "trial_type": "single-stim", "trial_index": 269, "time_elapsed": 1314727, "internal_node_id": "0.0-197.0"}}, {"uniqueid": "MTK1044:3C5W7UE9CGX9G8YU1FB936ETF3PMXZ", "current_trial": 270, "dateTime": 1513019245208, "trialdata": {"rt": -1, "stimulus": "<p id=\"stim\">SHOULDER</p>", "key_press": -1, "type": "PRES_VIS", "word": "shoulder", "wordID": 1293, "conditions": [12, 1600, "v", 24000], "trial": 7, "serialpos": 5, "trial_type": "single-stim", "trial_index": 270, "time_elapsed": 1317162, "internal_node_id": "0.