{"condition": 0, "counterbalance": 2272, "assignmentId": "3MAOD8E57RHFYQJUDGQ9GL3TK5TXNS", "workerId": "MTK1256", "hitId": "3BKZLF990Z6NE8O282ZQE99NC5VQYB", "currenttrial": 626, "bonus": 0, "data": [{"uniqueid": "MTK1256:3MAOD8E57RHFYQJUDGQ9GL3TK5TXNS", "current_trial": 0, "dateTime": 1513475435763, "trialdata": {"rt": 64789, "key_press": 32, "type": "INSTRUCTIONS", "trial_type": "text", "trial_index": 0, "time_elapsed": 64794, "internal_node_id": "0.0-0.0"}}, {"uniqueid": "MTK1256:3MAOD8E57RHFYQJUDGQ9GL3TK5TXNS", "current_trial": 1, "dateTime": 1513475440549, "trialdata": {"rt": 4783, "key_press": 173, "type": "INSTRUCTIONS", "trial_type": "text", "trial_index": 1, "time_elapsed": 69581, "internal_node_id": "0.0-1.0"}}, {"uniqueid": "MTK1256:3MAOD8E57RHFYQJUDGQ9GL3TK5TXNS", "current_trial": 2, "dateTime": 1513475469461, "trialdata": {"rt": [28892], "responses": ["ocean"], "type": "AUDIO_TEST", "trial_type": "audio-test", "trial_index": 2, "time_elapsed": 98493, "internal_node_id": "0.0-2.0"}}, {"uniqueid": "MTK1256:3MAOD8E57RHFYQJUDGQ9GL3TK5TXNS", "current_trial": 3, "dateTime": 1513475483564, "trialdata": {"rt": [14094], "responses": ["crystal"], "type": "AUDIO_TEST", "trial_type": "audio-test", "trial_index": 3, "time_elapsed": 112596, "internal_node_id": "0.0-3.0"}}, {"uniqueid": "MTK1256:3MAOD8E57RHFYQJUDGQ9GL3TK5TXNS", "current_trial": 4, "dateTime": 1513475501949, "trialdata": {"rt": [18377], "responses": ["spice"], "type": "AUDIO_TEST", "trial_type": "audio-test", "trial_index": 4, "time_elapsed": 130981, "internal_node_id": "0.0-4.0"}}, {"uniqueid": "MTK1256:3MAOD8E57RHFYQJUDGQ9GL3TK5TXNS", "current_trial": 5, "dateTime": 1513475514952, "trialdata": {"rt": 12248, "responses": "{\"Q0\":\"11\",\"Q1\":\"6\",\"Q2\":\"5\"}", "type": "SLEEP_SURVEY", "trial_type": "survey-text", "trial_index": 5, "time_elapsed": 143984, "internal_node_id": "0.0-5.0"}}, {"uniqueid": "MTK1256:3MAOD8E57RHFYQJUDGQ9GL3TK5TXNS", "current_trial": 6, "dateTime": 1513475585514, "trialdata": {"rt": 69560, "key_press": 13, "type": "INSTRUCTIONS", "trial_type": "text", "trial_index": 6, "time_elapsed": 214546, "internal_node_id": "0.0-6.0"}}, {"uniqueid": "MTK1256:3MAOD8E57RHFYQJUDGQ9GL3TK5TXNS", "current_trial": 7, "dateTime": 1513475597424, "trialdata": {"rt": 11408, "key_press": 13, "type": "INSTRUCTIONS", "trial_type": "text", "trial_index": 7, "time_elapsed": 226456, "internal_node_id": "0.0-7.0"}}, {"uniqueid": "MTK1256:3MAOD8E57RHFYQJUDGQ9GL3TK5TXNS", "current_trial": 8, "dateTime": 1513475605747, "trialdata": {"rt": 7821, "key_press": 13, "type": "INSTRUCTIONS", "trial_type": "text", "trial_index": 8, "time_elapsed": 234779, "internal_node_id": "0.0-8.0"}}, {"uniqueid": "MTK1256:3MAOD8E57RHFYQJUDGQ9GL3TK5TXNS", "current_trial": 9, "dateTime": 1513475624766, "trialdata": {"rt": [4236, 7715, 11678, 15814], "responses": ["11", "18", "16", "17"], "num1": [2, 8, 3, 7, 8], "num2": [4, 3, 6, 4, 2], "num3": [5, 7, 7, 6, 4], "type": "DISTRACTOR", "conditions": [18, 1200, "v", 18000], "trial": 0, "trial_type": "math-distractor", "trial_index": 9, "time_elapsed": 253798, "internal_node_id": "0.0-9.0"}}, {"uniqueid": "MTK1256:3MAOD8E57RHFYQJUDGQ9GL3TK5TXNS", "current_trial": 10, "dateTime": 1513475627771, "trialdata": {"rt": -1, "stimulus": "<p id=\"stim\">10</p>", "key_press": -1, "trial_type": "single-stim", "trial_index": 10, "time_elapsed": 256802, "internal_node_id": "0.0-10.0-0.0"}}, {"uniqueid": "MTK1256:3MAOD8E57RHFYQJUDGQ9GL3TK5TXNS", "current_trial": 11, "dateTime": 1513475628773, "trialdata": {"rt": -1, "stimulus": "<p id=\"stim\">9</p>", "key_press": -1, "trial_type": "single-stim", "trial_index": 11, "time_elapsed": 257805, "internal_node_id": "0.0-10.0-1.0"}}, {"uniqueid": "MTK1256:3MAOD8E57RHFYQJUDGQ9GL3TK5TXNS", "current_trial": 12, "dateTime": 1513475629775, "trialdata": {"rt": 225, "stimulus": "<p id=\"stim\">8</p>", "key_press": 175, "trial_type": "single-stim", "trial_index": 12, "time_elapsed": 258807, "internal_node_id": "0.0-10.0-2.0"}}, {"uniqueid": "MTK1256:3MAOD8E57RHFYQJUDGQ9GL3TK5TXNS", "current_trial": 13, "dateTime": 1513475630777, "trialdata": {"rt": 78, "stimulus": "<p id=\"stim\">7</p>", "key_press": 175, "trial_type": "single-stim", "trial_index": 13, "time_elapsed": 259809, "internal_node_id": "0.0-10.0-3.0"}}, {"uniqueid": "MTK1256:3MAOD8E57RHFYQJUDGQ9GL3TK5TXNS", "current_trial": 14, "dateTime": 1513475631779, "trialdata": {"rt": -1, "stimulus": "<p id=\"stim\">6</p>", "key_press": -1, "trial_type": "single-stim", "trial_index": 14, "time_elapsed": 260811, "internal_node_id": "0.0-10.0-4.0"}}, {"uniqueid": "MTK1256:3MAOD8E57RHFYQJUDGQ9GL3TK5TXNS", "current_trial": 15, "dateTime": 1513475632781, "trialdata": {"rt": -1, "stimulus": "<p id=\"stim\">5</p>", "key_press": -1, "trial_type": "single-stim", "trial_index": 15, "time_elapsed": 261813, "internal_node_id": "0.0-10.0-5.0"}}, {"uniqueid": "MTK1256:3MAOD8E57RHFYQJUDGQ9GL3TK5TXNS", "current_trial": 16, "dateTime": 1513475633783, "trialdata": {"rt": -1, "stimulus": "<p id=\"stim\">4</p>", "key_press": -1, "trial_type": "single-stim", "trial_index": 16, "time_elapsed": 262814, "internal_node_id": "0.0-10.0-6.0"}}, {"uniqueid": "MTK1256:3MAOD8E57RHFYQJUDGQ9GL3TK5TXNS", "current_trial": 17, "dateTime": 1513475634784, "trialdata": {"rt": -1, "stimulus": "<p id=\"stim\">3</p>", "key_press": -1, "trial_type": "single-stim", "trial_index": 17, "time_elapsed": 263816, "internal_node_id": "0.0-10.0-7.0"}}, {"uniqueid": "MTK1256:3MAOD8E57RHFYQJUDGQ9GL3TK5TXNS", "current_trial": 18, "dateTime": 1513475635787, "trialdata": {"rt": -1, "stimulus": "<p id=\"stim\">2</p>", "key_press": -1, "trial_type": "single-stim", "trial_index": 18, "time_elapsed": 264819, "internal_node_id": "0.0-10.0-8.0"}}, {"uniqueid": "MTK1256:3MAOD8E57RHFYQJUDGQ9GL3TK5TXNS", "current_trial": 19, "dateTime": 1513475636788, "trialdata": {"rt": -1, "stimulus": "<p id=\"stim\">1</p>", "key_press": -1, "trial_type": "single-stim", "trial_index": 19, "time_elapsed": 265820, "internal_node_id": "0.0-10.0-9.0"}}, {"uniqueid": "MTK1256:3MAOD8E57RHFYQJUDGQ9GL3TK5TXNS", "current_trial": 20, "dateTime": 1513475638290, "trialdata": {"rt": -1, "stimulus": "<p id=\"stim\">+</p>", "key_press": -1, "type": "FIXATION", "trial_type": "single-stim", "trial_index": 20, "time_elapsed": 267321, "internal_node_id": "0.0-11.0-0.0"}}, {"uniqueid": "MTK1256:3MAOD8E57RHFYQJUDGQ9GL3TK5TXNS", "current_trial": 21, "dateTime": 1513475639492, "trialdata": {"rt": -1, "stimulus": "<p id=\"stim\">RATTLE</p>", "key_press": -1, "type": "PRES_VIS", "word": "rattle", "wordID": 1169, "conditions": [18, 1200, "v", 18000], "trial": 0, "serialpos": 0, "trial_type": "single-stim", "trial_index": 21, "time_elapsed": 268524, "internal_node_id": "0.0-12.0"}}, {"uniqueid": "MTK1256:3MAOD8E57RHFYQJUDGQ9GL3TK5TXNS", "current_trial": 22, "dateTime": 1513475641784, "trialdata": {"rt": -1, "stimulus": "<p id=\"stim\">CURTAIN</p>", "key_press": -1, "type": "PRES_VIS", "word": "curtain", "wordID": 426, "conditions": [18, 1200, "v", 18000], "trial": 0, "serialpos": 1, "trial_type": "single-stim", "trial_index": 22, "time_elapsed": 270815, "internal_node_id": "0.0-13.0"}}, {"uniqueid": "MTK1256:3MAOD8E57RHFYQJUDGQ9GL3TK5TXNS", "current_trial": 23, "dateTime": 1513475644029, "trialdata": {"rt": -1, "stimulus": "<p id=\"stim\">SUNSET</p>", "key_press": -1, "type": "PRES_VIS", "word": "sunset", "wordID": 1407, "conditions": [18, 1200, "v", 18000], "trial": 0, "serialpos": 2, "trial_type": "single-stim", "trial_index": 23, "time_elapsed": 273061, "internal_node_id": "0.0-14.0"}}, {"uniqueid": "MTK1256:3MAOD8E57RHFYQJUDGQ9GL3TK5TXNS", "current_trial": 24, "dateTime": 1513475646043, "trialdata": {"rt": -1, "stimulus": "<p id=\"stim\">HEART</p>", "key_press": -1, "type": "PRES_VIS", "word": "heart", "wordID": 696, "conditions": [18, 1200, "v", 18000], "trial": 0, "serialpos": 3, "trial_type": "single-stim", "trial_index": 24, "time_elapsed": 275074, "internal_node_id": "0.0-15.0"}}, {"uniqueid": "MTK1256:3MAOD8E57RHFYQJUDGQ9GL3TK5TXNS", "current_trial": 25, "dateTime": 1513475648329, "trialdata": {"rt": -1, "stimulus": "<p id=\"stim\">BATHTUB</p>", "key_press": -1, "type": "PRES_VIS", "word": "bathtub", "wordID": 99, "conditions": [18, 1200, "v", 18000], "trial": 0, "serialpos": 4, "trial_type": "single-stim", "trial_index": 25, "time_elapsed": 277360, "internal_node_id": "0.0-16.0"}}, {"uniqueid": "MTK1256:3MAOD8E57RHFYQJUDGQ9GL3TK5TXNS", "current_trial": 26, "dateTime": 1513475650516, "trialdata": {"rt": -1, "stimulus": "<p id=\"stim\">COSTUME</p>", "key_press": -1, "type": "PRES_VIS", "word": "costume", "wordID": 382, "conditions": [18, 1200, "v", 18000], "trial": 0, "serialpos": 5, "trial_type": "single-stim", "trial_index": 26, "time_elapsed": 279548, "internal_node_id": "0.0-17.0"}}, {"uniqueid": "MTK1256:3MAOD8E57RHFYQJUDGQ9GL3TK5TXNS", "current_trial": 27, "dateTime": 1513475652836, "trialdata": {"rt": -1, "stimulus": "<p id=\"stim\">SCULPTURE</p>", "key_press": -1, "type": "PRES_VIS", "word": "sculpture", "wordID": 1257, "conditions": [18, 1200, "v", 18000], "trial": 0, "serialpos": 6, "trial_type": "single-stim", "trial_index": 27, "time_elapsed": 281868, "internal_node_id": "0.0-18.0"}}, {"uniqueid": "MTK1256:3MAOD8E57RHFYQJUDGQ9GL3TK5TXNS", "current_trial": 28, "dateTime": 1513475654897, "trialdata": {"rt": -1, "stimulus": "<p id=\"stim\">PAPER</p>", "key_press": -1, "type": "PRES_VIS", "word": "paper", "wordID": 1010, "conditions": [18, 1200, "v", 18000], "trial": 0, "serialpos": 7, "trial_type": "single-stim", "trial_index": 28, "time_elapsed": 283929, "internal_node_id": "0.0-19.0"}}, {"uniqueid": "MTK1256:3MAOD8E57RHFYQJUDGQ9GL3TK5TXNS", "current_trial": 29, "dateTime": 1513475657207, "trialdata": {"rt": -1, "stimulus": "<p id=\"stim\">ATOM</p>", "key_press": -1, "type": "PRES_VIS", "word": "atom", "wordID": 54, "conditions": [18, 1200, "v", 18000], "trial": 0, "serialpos": 8, "trial_type": "single-stim", "trial_index": 29, "time_elapsed": 286239, "internal_node_id": "0.0-20.0"}}, {"uniqueid": "MTK1256:3MAOD8E57RHFYQJUDGQ9GL3TK5TXNS", "current_trial": 30, "dateTime": 1513475659282, "trialdata": {"rt": -1, "stimulus": "<p id=\"stim\">ROBOT</p>", "key_press": -1, "type": "PRES_VIS", "word": "robot", "wordID": 1199, "conditions": [18, 1200, "v", 18000], "trial": 0, "serialpos": 9, "trial_type": "single-stim", "trial_index": 30, "time_elapsed": 288313, "internal_node_id": "0.0-21.0"}}, {"uniqueid": "MTK1256:3MAOD8E57RHFYQJUDGQ9GL3TK5TXNS", "current_trial": 31, "dateTime": 1513475661345, "trialdata": {"rt": -1, "stimulus": "<p id=\"stim\">FOX</p>", "key_press": -1, "type": "PRES_VIS", "word": "fox", "wordID": 597, "conditions": [18, 1200, "v", 18000], "trial": 0, "serialpos": 10, "trial_type": "single-stim", "trial_index": 31, "time_elapsed": 290376, "internal_node_id": "0.0-22.0"}}, {"uniqueid": "MTK1256:3MAOD8E57RHFYQJUDGQ9GL3TK5TXNS", "current_trial": 32, "dateTime": 1513475663596, "trialdata": {"rt": -1, "stimulus": "<p id=\"stim\">QUEEN</p>", "key_press": -1, "type": "PRES_VIS", "word": "queen", "wordID": 1148, "conditions": [18, 1200, "v", 18000], "trial": 0, "serialpos": 11, "trial_type": "single-stim", "trial_index": 32, "time_elapsed": 292628, "internal_node_id": "0.0-23.0"}}, {"uniqueid": "MTK1256:3MAOD8E57RHFYQJUDGQ9GL3TK5TXNS", "current_trial": 33, "dateTime": 1513475665758, "trialdata": {"rt": -1, "stimulus": "<p id=\"stim\">MUSTARD</p>", "key_press": -1, "type": "PRES_VIS", "word": "mustard", "wordID": 934, "conditions": [18, 1200, "v", 18000], "trial": 0, "serialpos": 12, "trial_type": "single-stim", "trial_index": 33, "time_elapsed": 294789, "internal_node_id": "0.0-24.0"}}, {"uniqueid": "MTK1256:3MAOD8E57RHFYQJUDGQ9GL3TK5TXNS", "current_trial": 34, "dateTime": 1513475668014, "trialdata": {"rt": -1, "stimulus": "<p id=\"stim\">CLOCK</p>", "key_press": -1, "type": "PRES_VIS", "word": "clock", "wordID": 324, "conditions": [18, 1200, "v", 18000], "trial": 0, "serialpos": 13, "trial_type": "single-stim", "trial_index": 34, "time_elapsed": 297046, "internal_node_id": "0.0-25.0"}}, {"uniqueid": "MTK1256:3MAOD8E57RHFYQJUDGQ9GL3TK5TXNS", "current_trial": 35, "dateTime": 1513475670224, "trialdata": {"rt": -1, "stimulus": "<p id=\"stim\">SPIDER</p>", "key_press": -1, "type": "PRES_VIS", "word": "spider", "wordID": 1350, "conditions": [18, 1200, "v", 18000], "trial": 0, "serialpos": 14, "trial_type": "single-stim", "trial_index": 35, "time_elapsed": 299256, "internal_node_id": "0.0-26.0"}}, {"uniqueid": "MTK1256:3MAOD8E57RHFYQJUDGQ9GL3TK5TXNS", "current_trial": 36, "dateTime": 1513475672248, "trialdata": {"rt": -1, "stimulus": "<p id=\"stim\">GLOVE</p>", "key_press": -1, "type": "PRES_VIS", "word": "glove", "wordID": 641, "conditions": [18, 1200, "v", 18000], "trial": 0, "serialpos": 15, "trial_type": "single-stim", "trial_index": 36, "time_elapsed": 301280, "internal_node_id": "0.0-27.0"}}, {"uniqueid": "MTK1256:3MAOD8E57RHFYQJUDGQ9GL3TK5TXNS", "current_trial": 37, "dateTime": 1513475674593, "trialdata": {"rt": -1, "stimulus": "<p id=\"stim\">IGLOO</p>", "key_press": -1, "type": "PRES_VIS", "word": "igloo", "wordID": 733, "conditions": [18, 1200, "v", 18000], "trial": 0, "serialpos": 16, "trial_type": "single-stim", "trial_index": 37, "time_elapsed": 303625, "internal_node_id": "0.0-28.0"}}, {"uniqueid": "MTK1256:3MAOD8E57RHFYQJUDGQ9GL3TK5TXNS", "current_trial": 38, "dateTime": 1513475676940, "trialdata": {"rt": -1, "stimulus": "<p id=\"stim\">ICING</p>", "key_press": -1, "type": "PRES_VIS", "word": "icing", "wordID": 731, "conditions": [18, 1200, "v", 18000], "trial": 0, "serialpos": 17, "trial_type": "single-stim", "trial_index": 38, "time_elapsed": 305972, "internal_node_id": "0.0-29.0"}}, {"uniqueid": "MTK1256:3MAOD8E57RHFYQJUDGQ9GL3TK5TXNS", "current_trial": 39, "dateTime": 1513475679231, "trialdata": {"rt": -1, "stimulus": "", "key_press": -1, "type": "PRE_RECALL_DELAY", "trial_type": "single-stim", "trial_index": 39, "time_elapsed": 308263, "internal_node_id": "0.0-30.0-0.0"}}, {"uniqueid": "MTK1256:3MAOD8E57RHFYQJUDGQ9GL3TK5TXNS", "current_trial": 40, "dateTime": 1513475679739, "trialdata": {"rt": -1000, "stimulus": "/static/audio/400Hz.wav", "key_press": -1, "type": "PRE_RECALL_ALERT", "trial_type": "single-audio", "trial_index": 40, "time_elapsed": 308770, "internal_node_id": "0.0-31.0"}}, {"uniqueid": "MTK1256:3MAOD8E57RHFYQJUDGQ9GL3TK5TXNS", "current_trial": 41, "dateTime": 1513475739748, "trialdata": {"rt": [2729, 4099, 7415, 13123, 29488, 34355, 38100, 47318, 58615], "recwords": ["sculpture", "icing", "rattle", "atom", "couch", "sabre", "curtain", "igloo", "spider"], "type": "FREE_RECALL", "conditions": [18, 1200, "v", 18000], "trial": 0, "trial_type": "free-recall", "trial_index": 41, "time_elapsed": 368776, "internal_node_id": "0.0-32.0-0.0"}}, {"uniqueid": "MTK1256:3MAOD8E57RHFYQJUDGQ9GL3TK5TXNS", "current_trial": 42, "dateTime": 1513475763994, "trialdata": {"rt": 22244, "key_press": 13, "type": "INSTRUCTIONS", "trial_type": "text", "trial_index": 42, "time_elapsed": 393026, "internal_node_id": "0.0-33.0"}}, {"uniqueid": "MTK1256:3MAOD8E57RHFYQJUDGQ9GL3TK5TXNS", "current_trial": 43, "dateTime": 1513475784000, "trialdata": {"rt": [2237, 4473], "responses": ["10", "18"], "num1": [5, 7, 8], "num2": [4, 2, 6], "num3": [1, 9, 9], "type": "DISTRACTOR", "conditions": [18, 1200, "a", 18000], "trial": 1, "trial_type": "math-distractor", "trial_index": 43, "time_elapsed": 413032, "internal_node_id": "0.0-34.0"}}, {"uniqueid": "MTK1256:3MAOD8E57RHFYQJUDGQ9GL3TK5TXNS", "current_trial": 44, "dateTime": 1513475787002, "trialdata": {"rt": -1, "stimulus": "<p id=\"stim\">10</p>", "key_press": -1, "trial_type": "single-stim", "trial_index": 44, "time_elapsed": 416034, "internal_node_id": "0.0-35.0-0.0"}}, {"uniqueid": "MTK1256:3MAOD8E57RHFYQJUDGQ9GL3TK5TXNS", "current_trial": 45, "dateTime": 1513475788004, "trialdata": {"rt": -1, "stimulus": "<p id=\"stim\">9</p>", "key_press": -1, "trial_type": "single-stim", "trial_index": 45, "time_elapsed": 417036, "internal_node_id": "0.0-35.0-1.0"}}, {"uniqueid": "MTK1256:3MAOD8E57RHFYQJUDGQ9GL3TK5TXNS", "current_trial": 46, "dateTime": 1513475789006, "trialdata": {"rt": -1, "stimulus": "<p id=\"stim\">8</p>", "key_press": -1, "trial_type": "single-stim", "trial_index": 46, "time_elapsed": 418038, "internal_node_id": "0.0-35.0-2.0"}}, {"uniqueid": "MTK1256:3MAOD8E57RHFYQJUDGQ9GL3TK5TXNS", "current_trial": 47, "dateTime": 1513475790008, "trialdata": {"rt": -1, "stimulus": "<p id=\"stim\">7</p>", "key_press": -1, "trial_type": "single-stim", "trial_index": 47, "time_elapsed": 419040, "internal_node_id": "0.0-35.0-3.0"}}, {"uniqueid": "MTK1256:3MAOD8E57RHFYQJUDGQ9GL3TK5TXNS", "current_trial": 48, "dateTime": 1513475791011, "trialdata": {"rt": -1, "stimulus": "<p id=\"stim\">6</p>", "key_press": -1, "trial_type": "single-stim", "trial_index": 48, "time_elapsed": 420042, "internal_node_id": "0.0-35.0-4.0"}}, {"uniqueid": "MTK1256:3MAOD8E57RHFYQJUDGQ9GL3TK5TXNS", "current_trial": 49, "dateTime": 1513475792012, "trialdata": {"rt": -1, "stimulus": "<p id=\"stim\">5</p>", "key_press": -1, "trial_type": "single-stim", "trial_index": 49, "time_elapsed": 421044, "internal_node_id": "0.0-35.0-5.0"}}, {"uniqueid": "MTK1256:3MAOD8E57RHFYQJUDGQ9GL3TK5TXNS", "current_trial": 50, "dateTime": 1513475793014, "trialdata": {"rt": -1, "stimulus": "<p id=\"stim\">4</p>", "key_press": -1, "trial_type": "single-stim", "trial_index": 50, "time_elapsed": 422045, "internal_node_id": "0.0-35.0-6.0"}}, {"uniqueid": "MTK1256:3MAOD8E57RHFYQJUDGQ9GL3TK5TXNS", "current_trial": 51, "dateTime": 1513475794016, "trialdata": {"rt": -1, "stimulus": "<p id=\"stim\">3</p>", "key_press": -1, "trial_type": "single-stim", "trial_index": 51, "time_elapsed": 423048, "internal_node_id": "0.0-35.0-7.0"}}, {"uniqueid": "MTK1256:3MAOD8E57RHFYQJUDGQ9GL3TK5TXNS", "current_trial": 52, "dateTime": 1513475795018, "trialdata": {"rt": -1, "stimulus": "<p id=\"stim\">2</p>", "key_press": -1, "trial_type": "single-stim", "trial_index": 52, "time_elapsed": 424050, "internal_node_id": "0.0-35.0-8.0"}}, {"uniqueid": "MTK1256:3MAOD8E57RHFYQJUDGQ9GL3TK5TXNS", "current_trial": 53, "dateTime": 1513475796021, "trialdata": {"rt": -1, "stimulus": "<p id=\"stim\">1</p>", "key_press": -1, "trial_type": "single-stim", "trial_index": 53, "time_elapsed": 425053, "internal_node_id": "0.0-35.0-9.0"}}, {"uniqueid": "MTK1256:3MAOD8E57RHFYQJUDGQ9GL3TK5TXNS", "current_trial": 54, "dateTime": 1513475797523, "trialdata": {"rt": -1, "stimulus": "<p id=\"stim\">+</p>", "key_press": -1, "type": "FIXATION", "trial_type": "single-stim", "trial_index": 54, "time_elapsed": 426554, "internal_node_id": "0.0-36.0-0.0"}}, {"uniqueid": "MTK1256:3MAOD8E57RHFYQJUDGQ9GL3TK5TXNS", "current_trial": 55, "dateTime": 1513475799684, "trialdata": {"rt": -1000, "stimulus": "/static/audio/wordpool/STICKER.wav", "key_press": -1, "type": "PRES_AUD", "word": "sticker", "wordID": 1381, "conditions": [18, 1200, "a", 18000], "trial": 1, "serialpos": 0, "trial_type": "single-audio", "trial_index": 55, "time_elapsed": 428716, "internal_node_id": "0.0-37.0"}}, {"uniqueid": "MTK1256:3MAOD8E57RHFYQJUDGQ9GL3TK5TXNS", "current_trial": 56, "dateTime": 1513475802015, "trialdata": {"rt": -1000, "stimulus": "/static/audio/wordpool/BARREL.wav", "key_press": -1, "type": "PRES_AUD", "word": "barrel", "wordID": 90, "conditions": [18, 1200, "a", 18000], "trial": 1, "serialpos": 1, "trial_type": "single-audio", "trial_index": 56, "time_elapsed": 431047, "internal_node_id": "0.0-38.0"}}, {"uniqueid": "MTK1256:3MAOD8E57RHFYQJUDGQ9GL3TK5TXNS", "current_trial": 57, "dateTime": 1513475804185, "trialdata": {"rt": 769.333333333293, "stimulus": "/static/audio/wordpool/QUARTER.wav", "key_press": 175, "type": "PRES_AUD", "word": "quarter", "wordID": 1147, "conditions": [18, 1200, "a", 18000], "trial": 1, "serialpos": 2, "trial_type": "single-audio", "trial_index": 57, "time_elapsed": 433216, "internal_node_id": "0.0-39.0"}}, {"uniqueid": "MTK1256:3MAOD8E57RHFYQJUDGQ9GL3TK5TXNS", "current_trial": 58, "dateTime": 1513475806239, "trialdata": {"rt": -1000, "stimulus": "/static/audio/wordpool/PREACHER.wav", "key_press": -1, "type": "PRES_AUD", "word": "preacher", "wordID": 1118, "conditions": [18, 1200, "a", 18000], "trial": 1, "serialpos": 3, "trial_type": "single-audio", "trial_index": 58, "time_elapsed": 435271, "internal_node_id": "0.0-40.0"}}, {"uniqueid": "MTK1256:3MAOD8E57RHFYQJUDGQ9GL3TK5TXNS", "current_trial": 59, "dateTime": 1513475808558, "trialdata": {"rt": -1000, "stimulus": "/static/audio/wordpool/OINTMENT.wav", "key_press": -1, "type": "PRES_AUD", "word": "ointment", "wordID": 973, "conditions": [18, 1200, "a", 18000], "trial": 1, "serialpos": 4, "trial_type": "single-audio", "trial_index": 59, "time_elapsed": 437590, "internal_node_id": "0.0-41.0"}}, {"uniqueid": "MTK1256:3MAOD8E57RHFYQJUDGQ9GL3TK5TXNS", "current_trial": 60, "dateTime": 1513475810598, "trialdata": {"rt": -1000, "stimulus": "/static/audio/wordpool/PADDING.wav", "key_press": -1, "type": "PRES_AUD", "word": "padding", "wordID": 998, "conditions": [18, 1200, "a", 18000], "trial": 1, "serialpos": 5, "trial_type": "single-audio", "trial_index": 60, "time_elapsed": 439630, "internal_node_id": "0.0-42.0"}}, {"uniqueid": "MTK1256:3MAOD8E57RHFYQJUDGQ9GL3TK5TXNS", "current_trial": 61, "dateTime": 1513475812975, "trialdata": {"rt": -1000, "stimulus": "/static/audio/wordpool/PISTON.wav", "key_press": -1, "type": "PRES_AUD", "word": "piston", "wordID": 1075, "conditions": [18, 1200, "a", 18000], "trial": 1, "serialpos": 6, "trial_type": "single-audio", "trial_index": 61, "time_elapsed": 442007, "internal_node_id": "0.0-43.0"}}, {"uniqueid": "MTK1256:3MAOD8E57RHFYQJUDGQ9GL3TK5TXNS", "current_trial": 62, "dateTime": 1513475815089, "trialdata": {"rt": -1000, "stimulus": "/static/audio/wordpool/ROD.wav", "key_press": -1, "type": "PRES_AUD", "word": "rod", "wordID": 1202, "conditions": [18, 1200, "a", 18000], "trial": 1, "serialpos": 7, "trial_type": "single-audio", "trial_index": 62, "time_elapsed": 444121, "internal_node_id": "0.0-44.0"}}, {"uniqueid": "MTK1256:3MAOD8E57RHFYQJUDGQ9GL3TK5TXNS", "current_trial": 63, "dateTime": 1513475817319, "trialdata": {"rt": -1000, "stimulus": "/static/audio/wordpool/FRANCE.wav", "key_press": -1, "type": "PRES_AUD", "word": "france", "wordID": 600, "conditions": [18, 1200, "a", 18000], "trial": 1, "serialpos": 8, "trial_type": "single-audio", "trial_index": 63, "time_elapsed": 446351, "internal_node_id": "0.0-45.0"}}, {"uniqueid": "MTK1256:3MAOD8E57RHFYQJUDGQ9GL3TK5TXNS", "current_trial": 64, "dateTime": 1513475819478, "trialdata": {"rt": -1000, "stimulus": "/static/audio/wordpool/PORK.wav", "key_press": -1, "type": "PRES_AUD", "word": "pork", "wordID": 1107, "conditions": [18, 1200, "a", 18000], "trial": 1, "serialpos": 9, "trial_type": "single-audio", "trial_index": 64, "time_elapsed": 448510, "internal_node_id": "0.0-46.0"}}, {"uniqueid": "MTK1256:3MAOD8E57RHFYQJUDGQ9GL3TK5TXNS", "current_trial": 65, "dateTime": 1513475821614, "trialdata": {"rt": -1000, "stimulus": "/static/audio/wordpool/BASEMENT.wav", "key_press": -1, "type": "PRES_AUD", "word": "basement", "wordID": 93, "conditions": [18, 1200, "a", 18000], "trial": 1, "serialpos": 10, "trial_type": "single-audio", "trial_index": 65, "time_elapsed": 450646, "internal_node_id": "0.0-47.0"}}, {"uniqueid": "MTK1256:3MAOD8E57RHFYQJUDGQ9GL3TK5TXNS", "current_trial": 66, "dateTime": 1513475823658, "trialdata": {"rt": -1000, "stimulus": "/static/audio/wordpool/SHOULDER.wav", "key_press": -1, "type": "PRES_AUD", "word": "shoulder", "wordID": 1293, "conditions": [18, 1200, "a", 18000], "trial": 1, "serialpos": 11, "trial_type": "single-audio", "trial_index": 66, "time_elapsed": 452690, "internal_node_id": "0.0-48.0"}}, {"uniqueid": "MTK1256:3MAOD8E57RHFYQJUDGQ9GL3TK5TXNS", "current_trial": 67, "dateTime": 1513475825757, "trialdata": {"rt": -1000, "stimulus": "/static/audio/wordpool/LEOPARD.wav", "key_press": -1, "type": "PRES_AUD", "word": "leopard", "wordID": 811, "conditions": [18, 1200, "a", 18000], "trial": 1, "serialpos": 12, "trial_type": "single-audio", "trial_index": 67, "time_elapsed": 454789, "internal_node_id": "0.0-49.0"}}, {"uniqueid": "MTK1256:3MAOD8E57RHFYQJUDGQ9GL3TK5TXNS", "current_trial": 68, "dateTime": 1513475828070, "trialdata": {"rt": -1000, "stimulus": "/static/audio/wordpool/DRILL.wav", "key_press": -1, "type": "PRES_AUD", "word": "drill", "wordID": 496, "conditions": [18, 1200, "a", 18000], "trial": 1, "serialpos": 13, "trial_type": "single-audio", "trial_index": 68, "time_elapsed": 457099, "internal_node_id": "0.0-50.0"}}, {"uniqueid": "MTK1256:3MAOD8E57RHFYQJUDGQ9GL3TK5TXNS", "current_trial": 69, "dateTime": 1513475830338, "trialdata": {"rt": -1000, "stimulus": "/static/audio/wordpool/CHAMPAGNE.wav", "key_press": -1, "type": "PRES_AUD", "word": "champagne", "wordID": 277, "conditions": [18, 1200, "a", 18000], "trial": 1, "serialpos": 14, "trial_type": "single-audio", "trial_index": 69, "time_elapsed": 459370, "internal_node_id": "0.0-51.0"}}, {"uniqueid": "MTK1256:3MAOD8E57RHFYQJUDGQ9GL3TK5TXNS", "current_trial": 70, "dateTime": 1513475832602, "trialdata": {"rt": -1000, "stimulus": "/static/audio/wordpool/VELVET.wav", "key_press": -1, "type": "PRES_AUD", "word": "velvet", "wordID": 1554, "conditions": [18, 1200, "a", 18000], "trial": 1, "serialpos": 15, "trial_type": "single-audio", "trial_index": 70, "time_elapsed": 461634, "internal_node_id": "0.0-52.0"}}, {"uniqueid": "MTK1256:3MAOD8E57RHFYQJUDGQ9GL3TK5TXNS", "current_trial": 71, "dateTime": 1513475834866, "trialdata": {"rt": -1000, "stimulus": "/static/audio/wordpool/PATROL.wav", "key_press": -1, "type": "PRES_AUD", "word": "patrol", "wordID": 1026, "conditions": [18, 1200, "a", 18000], "trial": 1, "serialpos": 16, "trial_type": "single-audio", "trial_index": 71, "time_elapsed": 463898, "internal_node_id": "0.0-53.0"}}, {"uniqueid": "MTK1256:3MAOD8E57RHFYQJUDGQ9GL3TK5TXNS", "current_trial": 72, "dateTime": 1513475836883, "trialdata": {"rt": -1000, "stimulus": "/static/audio/wordpool/BARLEY.wav", "key_press": -1, "type": "PRES_AUD", "word": "barley", "wordID": 87, "conditions": [18, 1200, "a", 18000], "trial": 1, "serialpos": 17, "trial_type": "single-audio", "trial_index": 72, "time_elapsed": 465915, "internal_node_id": "0.0-54.0"}}, {"uniqueid": "MTK1256:3MAOD8E57RHFYQJUDGQ9GL3TK5TXNS", "current_trial": 73, "dateTime": 1513475838281, "trialdata": {"rt": -1, "stimulus": "", "key_press": -1, "type": "PRE_RECALL_DELAY", "trial_type": "single-stim", "trial_index": 73, "time_elapsed": 467312, "internal_node_id": "0.0-55.0-0.0"}}, {"uniqueid": "MTK1256:3MAOD8E57RHFYQJUDGQ9GL3TK5TXNS", "current_trial": 74, "dateTime": 1513475838783, "trialdata": {"rt": -1000, "stimulus": "/static/audio/400Hz.wav", "key_press": -1, "type": "PRE_RECALL_ALERT", "trial_type": "single-audio", "trial_index": 74, "time_elapsed": 467815, "internal_node_id": "0.0-56.0"}}, {"uniqueid": "MTK1256:3MAOD8E57RHFYQJUDGQ9GL3TK5TXNS", "current_trial": 75, "dateTime": 1513475898791, "trialdata": {"rt": [2588, 7052, 34872, 39616, 43764, 47187], "recwords": ["barley", "champagne", "cabbage", "leopard", "queen", "ointment"], "type": "FREE_RECALL", "conditions": [18, 1200, "a", 18000], "trial": 1, "trial_type": "free-recall", "trial_index": 75, "time_elapsed": 527819, "internal_node_id": "0.0-57.0-0.0"}}, {"uniqueid": "MTK1256:3MAOD8E57RHFYQJUDGQ9GL3TK5TXNS", "current_trial": 76, "dateTime": 1513475902124, "trialdata": {"rt": 1325, "key_press": 32, "type": "INSTRUCTIONS", "trial_type": "text", "trial_index": 76, "time_elapsed": 531150, "internal_node_id": "0.0-58.0"}}, {"uniqueid": "MTK1256:3MAOD8E57RHFYQJUDGQ9GL3TK5TXNS", "current_trial": 77, "dateTime": 1513475915128, "trialdata": {"rt": [3912, 6093, 7964, 10403], "responses": ["15", "11", "12", "15"], "num1": [4, 4, 2, 2, 9], "num2": [4, 5, 5, 8, 8], "num3": [7, 2, 5, 5, 2], "type": "DISTRACTOR", "conditions": [12, 1600, "v", 12000], "trial": 2, "trial_type": "math-distractor", "trial_index": 77, "time_elapsed": 544160, "internal_node_id": "0.0-59.0"}}, {"uniqueid": "MTK1256:3MAOD8E57RHFYQJUDGQ9GL3TK5TXNS", "current_trial": 78, "dateTime": 1513475918130, "trialdata": {"rt": -1, "stimulus": "<p id=\"stim\">10</p>", "key_press": -1, "trial_type": "single-stim", "trial_index": 78, "time_elapsed": 547162, "internal_node_id": "0.0-60.0-0.0"}}, {"uniqueid": "MTK1256:3MAOD8E57RHFYQJUDGQ9GL3TK5TXNS", "current_trial": 79, "dateTime": 1513475919132, "trialdata": {"rt": -1, "stimulus": "<p id=\"stim\">9</p>", "key_press": -1, "trial_type": "single-stim", "trial_index": 79, "time_elapsed": 548164, "internal_node_id": "0.0-60.0-1.0"}}, {"uniqueid": "MTK1256:3MAOD8E57RHFYQJUDGQ9GL3TK5TXNS", "current_trial": 80, "dateTime": 1513475920135, "trialdata": {"rt": -1, "stimulus": "<p id=\"stim\">8</p>", "key_press": -1, "trial_type": "single-stim", "trial_index": 80, "time_elapsed": 549167, "internal_node_id": "0.0-60.0-2.0"}}, {"uniqueid": "MTK1256:3MAOD8E57RHFYQJUDGQ9GL3TK5TXNS", "current_trial": 81, "dateTime": 1513475921139, "trialdata": {"rt": -1, "stimulus": "<p id=\"stim\">7</p>", "key_press": -1, "trial_type": "single-stim", "trial_index": 81, "time_elapsed": 550170, "internal_node_id": "0.0-60.0-3.0"}}, {"uniqueid": "MTK1256:3MAOD8E57RHFYQJUDGQ9GL3TK5TXNS", "current_trial": 82, "dateTime": 1513475922140, "trialdata": {"rt": -1, "stimulus": "<p id=\"stim\">6</p>", "key_press": -1, "trial_type": "single-stim", "trial_index": 82, "time_elapsed": 551172, "internal_node_id": "0.0-60.0-4.0"}}, {"uniqueid": "MTK1256:3MAOD8E57RHFYQJUDGQ9GL3TK5TXNS", "current_trial": 83, "dateTime": 1513475923142, "trialdata": {"rt": -1, "stimulus": "<p id=\"stim\">5</p>", "key_press": -1, "trial_type": "single-stim", "trial_index": 83, "time_elapsed": 552174, "internal_node_id": "0.0-60.0-5.0"}}, {"uniqueid": "MTK1256:3MAOD8E57RHFYQJUDGQ9GL3TK5TXNS", "current_trial": 84, "dateTime": 1513475924143, "trialdata": {"rt": -1, "stimulus": "<p id=\"stim\">4</p>", "key_press": -1, "trial_type": "single-stim", "trial_index": 84, "time_elapsed": 553175, "internal_node_id": "0.0-60.0-6.0"}}, {"uniqueid": "MTK1256:3MAOD8E57RHFYQJUDGQ9GL3TK5TXNS", "current_trial": 85, "dateTime": 1513475925145, "trialdata": {"rt": -1, "stimulus": "<p id=\"stim\">3</p>", "key_press": -1, "trial_type": "single-stim", "trial_index": 85, "time_elapsed": 554177, "internal_node_id": "0.0-60.0-7.0"}}, {"uniqueid": "MTK1256:3MAOD8E57RHFYQJUDGQ9GL3TK5TXNS", "current_trial": 86, "dateTime": 1513475926146, "trialdata": {"rt": -1, "stimulus": "<p id=\"stim\">2</p>", "key_press": -1, "trial_type": "single-stim", "trial_index": 86, "time_elapsed": 555178, "internal_node_id": "0.0-60.0-8.0"}}, {"uniqueid": "MTK1256:3MAOD8E57RHFYQJUDGQ9GL3TK5TXNS", "current_trial": 87, "dateTime": 1513475927149, "trialdata": {"rt": -1, "stimulus": "<p id=\"stim\">1</p>", "key_press": -1, "trial_type": "single-stim", "trial_index": 87, "time_elapsed": 556181, "internal_node_id": "0.0-60.0-9.0"}}, {"uniqueid": "MTK1256:3MAOD8E57RHFYQJUDGQ9GL3TK5TXNS", "current_trial": 88, "dateTime": 1513475928652, "trialdata": {"rt": -1, "stimulus": "<p id=\"stim\">+</p>", "key_press": -1, "type": "FIXATION", "trial_type": "single-stim", "trial_index": 88, "time_elapsed": 557684, "internal_node_id": "0.0-61.0-0.0"}}, {"uniqueid": "MTK1256:3MAOD8E57RHFYQJUDGQ9GL3TK5TXNS", "current_trial": 89, "dateTime": 1513475930254, "trialdata": {"rt": -1, "stimulus": "<p id=\"stim\">SHELTER</p>", "key_press": -1, "type": "PRES_VIS", "word": "shelter", "wordID": 1281, "conditions": [12, 1600, "v", 12000], "trial": 2, "serialpos": 0, "trial_type": "single-stim", "trial_index": 89, "time_elapsed": 559286, "internal_node_id": "0.0-62.0"}}, {"uniqueid": "MTK1256:3MAOD8E57RHFYQJUDGQ9GL3TK5TXNS", "current_trial": 90, "dateTime": 1513475932781, "trialdata": {"rt": -1, "stimulus": "<p id=\"stim\">DENTIST</p>", "key_press": -1, "type": "PRES_VIS", "word": "dentist", "wordID": 446, "conditions": [12, 1600, "v", 12000], "trial": 2, "serialpos": 1, "trial_type": "single-stim", "trial_index": 90, "time_elapsed": 561812, "internal_node_id": "0.0-63.0"}}, {"uniqueid": "MTK1256:3MAOD8E57RHFYQJUDGQ9GL3TK5TXNS", "current_trial": 91, "dateTime": 1513475935430, "trialdata": {"rt": -1, "stimulus": "<p id=\"stim\">DOUGHNUT</p>", "key_press": -1, "type": "PRES_VIS", "word": "doughnut", "wordID": 489, "conditions": [12, 1600, "v", 12000], "trial": 2, "serialpos": 2, "trial_type": "single-stim", "trial_index": 91, "time_elapsed": 564462, "internal_node_id": "0.0-64.0"}}, {"uniqueid": "MTK1256:3MAOD8E57RHFYQJUDGQ9GL3TK5TXNS", "current_trial": 92, "dateTime": 1513475938088, "trialdata": {"rt": -1, "stimulus": "<p id=\"stim\">FLASK</p>", "key_press": -1, "type": "PRES_VIS", "word": "flask", "wordID": 575, "conditions": [12, 1600, "v", 12000], "trial": 2, "serialpos": 3, "trial_type": "single-stim", "trial_index": 92, "time_elapsed": 567120, "internal_node_id": "0.0-65.0"}}, {"uniqueid": "MTK1256:3MAOD8E57RHFYQJUDGQ9GL3TK5TXNS", "current_trial": 93, "dateTime": 1513475940687, "trialdata": {"rt": -1, "stimulus": "<p id=\"stim\">SCARF</p>", "key_press": -1, "type": "PRES_VIS", "word": "scarf", "wordID": 1245, "conditions": [12, 1600, "v", 12000], "trial": 2, "serialpos": 4, "trial_type": "single-stim", "trial_index": 93, "time_elapsed": 569719, "internal_node_id": "0.0-66.0"}}, {"uniqueid": "MTK1256:3MAOD8E57RHFYQJUDGQ9GL3TK5TXNS", "current_trial": 94, "dateTime": 1513475943219, "trialdata": {"rt": -1, "stimulus": "<p id=\"stim\">TWEEZERS</p>", "key_press": -1, "type": "PRES_VIS", "word": "tweezers", "wordID": 1525, "conditions": [12, 1600, "v", 12000], "trial": 2, "serialpos": 5, "trial_type": "single-stim", "trial_index": 94, "time_elapsed": 572251, "internal_node_id": "0.0-67.0"}}, {"uniqueid": "MTK1256:3MAOD8E57RHFYQJUDGQ9GL3TK5TXNS", "current_trial": 95, "dateTime": 1513475945974, "trialdata": {"rt": -1, "stimulus": "<p id=\"stim\">BLUEPRINT</p>", "key_press": -1, "type": "PRES_VIS", "word": "blueprint", "wordID": 141, "conditions": [12, 1600, "v", 12000], "trial": 2, "serialpos": 6, "trial_type": "single-stim", "trial_index": 95, "time_elapsed": 575006, "internal_node_id": "0.0-68.0"}}, {"uniqueid": "MTK1256:3MAOD8E57RHFYQJUDGQ9GL3TK5TXNS", "current_trial": 96, "dateTime": 1513475948488, "trialdata": {"rt": -1, "stimulus": "<p id=\"stim\">PIZZA</p>", "key_press": -1, "type": "PRES_VIS", "word": "pizza", "wordID": 1078, "conditions": [12, 1600, "v", 12000], "trial": 2, "serialpos": 7, "trial_type": "single-stim", "trial_index": 96, "time_elapsed": 577520, "internal_node_id": "0.0-69.0"}}, {"uniqueid": "MTK1256:3MAOD8E57RHFYQJUDGQ9GL3TK5TXNS", "current_trial": 97, "dateTime": 1513475951052, "trialdata": {"rt": -1, "stimulus": "<p id=\"stim\">COWBOY</p>", "key_press": -1, "type": "PRES_VIS", "word": "cowboy", "wordID": 394, "conditions": [12, 1600, "v", 12000], "trial": 2, "serialpos": 8, "trial_type": "single-stim", "trial_index": 97, "time_elapsed": 580084, "internal_node_id": "0.0-70.0"}}, {"uniqueid": "MTK1256:3MAOD8E57RHFYQJUDGQ9GL3TK5TXNS", "current_trial": 98, "dateTime": 1513475953544, "trialdata": {"rt": -1, "stimulus": "<p id=\"stim\">DIVER</p>", "key_press": -1, "type": "PRES_VIS", "word": "diver", "wordID": 475, "conditions": [12, 1600, "v", 12000], "trial": 2, "serialpos": 9, "trial_type": "single-stim", "trial_index": 98, "time_elapsed": 582574, "internal_node_id": "0.0-71.0"}}, {"uniqueid": "MTK1256:3MAOD8E57RHFYQJUDGQ9GL3TK5TXNS", "current_trial": 99, "dateTime": 1513475956072, "trialdata": {"rt": -1, "stimulus": "<p id=\"stim\">PLAID</p>", "key_press": -1, "type": "PRES_VIS", "word": "plaid", "wordID": 1079, "conditions": [12, 1600, "v", 12000], "trial": 2, "serialpos": 10, "trial_type": "single-stim", "trial_index": 99, "time_elapsed": 585103, "internal_node_id": "0.0-72.0"}}, {"uniqueid": "MTK1256:3MAOD8E57RHFYQJUDGQ9GL3TK5TXNS", "current_trial": 100, "dateTime": 1513475958708, "trialdata": {"rt": -1, "stimulus": "<p id=\"stim\">DENIM</p>", "key_press": -1, "type": "PRES_VIS", "word": "denim", "wordID": 445, "conditions": [12, 1600, "v", 12000], "trial": 2, "serialpos": 11, "trial_type": "single-stim", "trial_index": 100, "time_elapsed": 587740, "internal_node_id": "0.0-73.0"}}, {"uniqueid": "MTK1256:3MAOD8E57RHFYQJUDGQ9GL3TK5TXNS", "current_trial": 101, "dateTime": 1513475961105, "trialdata": {"rt": -1, "stimulus": "", "key_press": -1, "type": "PRE_RECALL_DELAY", "trial_type": "single-stim", "trial_index": 101, "time_elapsed": 590136, "internal_node_id": "0.0-74.0-0.0"}}, {"uniqueid": "MTK1256:3MAOD8E57RHFYQJUDGQ9GL3TK5TXNS", "current_trial": 102, "dateTime": 1513475961614, "trialdata": {"rt": -1000, "stimulus": "/static/audio/400Hz.wav", "key_press": -1, "type": "PRE_RECALL_ALERT", "trial_type": "single-audio", "trial_index": 102, "time_elapsed": 590646, "internal_node_id": "0.0-75.0"}}, {"uniqueid": "MTK1256:3MAOD8E57RHFYQJUDGQ9GL3TK5TXNS", "current_trial": 103, "dateTime": 1513476021623, "trialdata": {"rt": [8605, 16389, 17681, 22944, 25683, 27155, 43691], "recwords": ["shelter", "scarf", "donut", "blueprint", "flask", "pizza", "dentist"], "type": "FREE_RECALL", "conditions": [12, 1600, "v", 12000], "trial": 2, "trial_type": "free-recall", "trial_index": 103, "time_elapsed": 650650, "internal_node_id": "0.0-76.0-0.0"}}, {"uniqueid": "MTK1256:3MAOD8E57RHFYQJUDGQ9GL3TK5TXNS", "current_trial": 104, "dateTime": 1513476032189, "trialdata": {"rt": 8563, "key_press": 13, "type": "INSTRUCTIONS", "trial_type": "text", "trial_index": 104, "time_elapsed": 661220, "internal_node_id": "0.0-77.0"}}, {"uniqueid": "MTK1256:3MAOD8E57RHFYQJUDGQ9GL3TK5TXNS", "current_trial": 105, "dateTime": 1513476046192, "trialdata": {"rt": [8453, 11632], "responses": ["23", "8"], "num1": [9, 2, 9], "num2": [8, 4, 6], "num3": [6, 2, 6], "type": "DISTRACTOR", "conditions": [24, 1600, "a", 12000], "trial": 3, "trial_type": "math-distractor", "trial_index": 105, "time_elapsed": 675224, "internal_node_id": "0.0-78.0"}}, {"uniqueid": "MTK1256:3MAOD8E57RHFYQJUDGQ9GL3TK5TXNS", "current_trial": 106, "dateTime": 1513476049194, "trialdata": {"rt": -1, "stimulus": "<p id=\"stim\">10</p>", "key_press": -1, "trial_type": "single-stim", "trial_index": 106, "time_elapsed": 678226, "internal_node_id": "0.0-79.0-0.0"}}, {"uniqueid": "MTK1256:3MAOD8E57RHFYQJUDGQ9GL3TK5TXNS", "current_trial": 107, "dateTime": 1513476050196, "trialdata": {"rt": -1, "stimulus": "<p id=\"stim\">9</p>", "key_press": -1, "trial_type": "single-stim", "trial_index": 107, "time_elapsed": 679228, "internal_node_id": "0.0-79.0-1.0"}}, {"uniqueid": "MTK1256:3MAOD8E57RHFYQJUDGQ9GL3TK5TXNS", "current_trial": 108, "dateTime": 1513476051198, "trialdata": {"rt": -1, "stimulus": "<p id=\"stim\">8</p>", "key_press": -1, "trial_type": "single-stim", "trial_index": 108, "time_elapsed": 680230, "internal_node_id": "0.0-79.0-2.0"}}, {"uniqueid": "MTK1256:3MAOD8E57RHFYQJUDGQ9GL3TK5TXNS", "current_trial": 109, "dateTime": 1513476052200, "trialdata": {"rt": -1, "stimulus": "<p id=\"stim\">7</p>", "key_press": -1, "trial_type": "single-stim", "trial_index": 109, "time_elapsed": 681232, "internal_node_id": "0.0-79.0-3.0"}}, {"uniqueid": "MTK1256:3MAOD8E57RHFYQJUDGQ9GL3TK5TXNS", "current_trial": 110, "dateTime": 1513476053202, "trialdata": {"rt": -1, "stimulus": "<p id=\"stim\">6</p>", "key_press": -1, "trial_type": "single-stim", "trial_index": 110, "time_elapsed": 682234, "internal_node_id": "0.0-79.0-4.0"}}, {"uniqueid": "MTK1256:3MAOD8E57RHFYQJUDGQ9GL3TK5TXNS", "current_trial": 111, "dateTime": 1513476054204, "trialdata": {"rt": -1, "stimulus": "<p id=\"stim\">5</p>", "key_press": -1, "trial_type": "single-stim", "trial_index": 111, "time_elapsed": 683236, "internal_node_id": "0.0-79.0-5.0"}}, {"uniqueid": "MTK1256:3MAOD8E57RHFYQJUDGQ9GL3TK5TXNS", "current_trial": 112, "dateTime": 1513476055205, "trialdata": {"rt": -1, "stimulus": "<p id=\"stim\">4</p>", "key_press": -1, "trial_type": "single-stim", "trial_index": 112, "time_elapsed": 684237, "internal_node_id": "0.0-79.0-6.0"}}, {"uniqueid": "MTK1256:3MAOD8E57RHFYQJUDGQ9GL3TK5TXNS", "current_trial": 113, "dateTime": 1513476056207, "trialdata": {"rt": -1, "stimulus": "<p id=\"stim\">3</p>", "key_press": -1, "trial_type": "single-stim", "trial_index": 113, "time_elapsed": 685239, "internal_node_id": "0.0-79.0-7.0"}}, {"uniqueid": "MTK1256:3MAOD8E57RHFYQJUDGQ9GL3TK5TXNS", "current_trial": 114, "dateTime": 1513476057247, "trialdata": {"rt": -1, "stimulus": "<p id=\"stim\">2</p>", "key_press": -1, "trial_type": "single-stim", "trial_index": 114, "time_elapsed": 686279, "internal_node_id": "0.0-79.0-8.0"}}, {"uniqueid": "MTK1256:3MAOD8E57RHFYQJUDGQ9GL3TK5TXNS", "current_trial": 115, "dateTime": 1513476058249, "trialdata": {"rt": -1, "stimulus": "<p id=\"stim\">1</p>", "key_press": -1, "trial_type": "single-stim", "trial_index": 115, "time_elapsed": 687281, "internal_node_id": "0.0-79.0-9.0"}}, {"uniqueid": "MTK1256:3MAOD8E57RHFYQJUDGQ9GL3TK5TXNS", "current_trial": 116, "dateTime": 1513476059751, "trialdata": {"rt": -1, "stimulus": "<p id=\"stim\">+</p>", "key_press": -1, "type": "FIXATION", "trial_type": "single-stim", "trial_index": 116, "time_elapsed": 688783, "internal_node_id": "0.0-80.0-0.0"}}, {"uniqueid": "MTK1256:3MAOD8E57RHFYQJUDGQ9GL3TK5TXNS", "current_trial": 117, "dateTime": 1513476062450, "trialdata": {"rt": -1000, "stimulus": "/static/audio/wordpool/GHETTO.wav", "key_press": -1, "type": "PRES_AUD", "word": "ghetto", "wordID": 632, "conditions": [24, 1600, "a", 12000], "trial": 3, "serialpos": 0, "trial_type": "single-audio", "trial_index": 117, "time_elapsed": 691482, "internal_node_id": "0.0-81.0"}}, {"uniqueid": "MTK1256:3MAOD8E57RHFYQJUDGQ9GL3TK5TXNS", "current_trial": 118, "dateTime": 1513476064885, "trialdata": {"rt": -1000, "stimulus": "/static/audio/wordpool/CITRUS.wav", "key_press": -1, "type": "PRES_AUD", "word": "citrus", "wordID": 312, "conditions": [24, 1600, "a", 12000], "trial": 3, "serialpos": 1, "trial_type": "single-audio", "trial_index": 118, "time_elapsed": 693916, "internal_node_id": "0.0-82.0"}}, {"uniqueid": "MTK1256:3MAOD8E57RHFYQJUDGQ9GL3TK5TXNS", "current_trial": 119, "dateTime": 1513476067291, "trialdata": {"rt": -1000, "stimulus": "/static/audio/wordpool/BULLET.wav", "key_press": -1, "type": "PRES_AUD", "word": "bullet", "wordID": 193, "conditions": [24, 1600, "a", 12000], "trial": 3, "serialpos": 2, "trial_type": "single-audio", "trial_index": 119, "time_elapsed": 696323, "internal_node_id": "0.0-83.0"}}, {"uniqueid": "MTK1256:3MAOD8E57RHFYQJUDGQ9GL3TK5TXNS", "current_trial": 120, "dateTime": 1513476069987, "trialdata": {"rt": -1000, "stimulus": "/static/audio/wordpool/SILK.wav", "key_press": -1, "type": "PRES_AUD", "word": "silk", "wordID": 1306, "conditions": [24, 1600, "a", 12000], "trial": 3, "serialpos": 3, "trial_type": "single-audio", "trial_index": 120, "time_elapsed": 699019, "internal_node_id": "0.0-84.0"}}, {"uniqueid": "MTK1256:3MAOD8E57RHFYQJUDGQ9GL3TK5TXNS", "current_trial": 121, "dateTime": 1513476072657, "trialdata": {"rt": -1000, "stimulus": "/static/audio/wordpool/MARS.wav", "key_press": -1, "type": "PRES_AUD", "word": "mars", "wordID": 872, "conditions": [24, 1600, "a", 12000], "trial": 3, "serialpos": 4, "trial_type": "single-audio", "trial_index": 121, "time_elapsed": 701689, "internal_node_id": "0.0-85.0"}}, {"uniqueid": "MTK1256:3MAOD8E57RHFYQJUDGQ9GL3TK5TXNS", "current_trial": 122, "dateTime": 1513476075383, "trialdata": {"rt": -1000, "stimulus": "/static/audio/wordpool/BANKER.wav", "key_press": -1, "type": "PRES_AUD", "word": "banker", "wordID": 83, "conditions": [24, 1600, "a", 12000], "trial": 3, "serialpos": 5, "trial_type": "single-audio", "trial_index": 122, "time_elapsed": 704415, "internal_node_id": "0.0-86.0"}}, {"uniqueid": "MTK1256:3MAOD8E57RHFYQJUDGQ9GL3TK5TXNS", "current_trial": 123, "dateTime": 1513476077976, "trialdata": {"rt": -1000, "stimulus": "/static/audio/wordpool/GANGSTER.wav", "key_press": -1, "type": "PRES_AUD", "word": "gangster", "wordID": 619, "conditions": [24, 1600, "a", 12000], "trial": 3, "serialpos": 6, "trial_type": "single-audio", "trial_index": 123, "time_elapsed": 707007, "internal_node_id": "0.0-87.0"}}, {"uniqueid": "MTK1256:3MAOD8E57RHFYQJUDGQ9GL3TK5TXNS", "current_trial": 124, "dateTime": 1513476080744, "trialdata": {"rt": -1000, "stimulus": "/static/audio/wordpool/LIZARD.wav", "key_press": -1, "type": "PRES_AUD", "word": "lizard", "wordID": 833, "conditions": [24, 1600, "a", 12000], "trial": 3, "serialpos": 7, "trial_type": "single-audio", "trial_index": 124, "time_elapsed": 709775, "internal_node_id": "0.0-88.0"}}, {"uniqueid": "MTK1256:3MAOD8E57RHFYQJUDGQ9GL3TK5TXNS", "current_trial": 125, "dateTime": 1513476083470, "trialdata": {"rt": -1000, "stimulus": "/static/audio/wordpool/PENGUIN.wav", "key_press": -1, "type": "PRES_AUD", "word": "penguin", "wordID": 1043, "conditions": [24, 1600, "a", 12000], "trial": 3, "serialpos": 8, "trial_type": "single-audio", "trial_index": 125, "time_elapsed": 712501, "internal_node_id": "0.0-89.0"}}, {"uniqueid": "MTK1256:3MAOD8E57RHFYQJUDGQ9GL3TK5TXNS", "current_trial": 126, "dateTime": 1513476086013, "trialdata": {"rt": -1000, "stimulus": "/static/audio/wordpool/PRIMATE.wav", "key_press": -1, "type": "PRES_AUD", "word": "primate", "wordID": 1122, "conditions": [24, 1600, "a", 12000], "trial": 3, "serialpos": 9, "trial_type": "single-audio", "trial_index": 126, "time_elapsed": 715045, "internal_node_id": "0.0-90.0"}}, {"uniqueid": "MTK1256:3MAOD8E57RHFYQJUDGQ9GL3TK5TXNS", "current_trial": 127, "dateTime": 1513476088645, "trialdata": {"rt": -1000, "stimulus": "/static/audio/wordpool/BUNNY.wav", "key_press": -1, "type": "PRES_AUD", "word": "bunny", "wordID": 197, "conditions": [24, 1600, "a", 12000], "trial": 3, "serialpos": 10, "trial_type": "single-audio", "trial_index": 127, "time_elapsed": 717677, "internal_node_id": "0.0-91.0"}}, {"uniqueid": "MTK1256:3MAOD8E57RHFYQJUDGQ9GL3TK5TXNS", "current_trial": 128, "dateTime": 1513476091414, "trialdata": {"rt": -1000, "stimulus": "/static/audio/wordpool/BANK.wav", "key_press": -1, "type": "PRES_AUD", "word": "bank", "wordID": 82, "conditions": [24, 1600, "a", 12000], "trial": 3, "serialpos": 11, "trial_type": "single-audio", "trial_index": 128, "time_elapsed": 720446, "internal_node_id": "0.0-92.0"}}, {"uniqueid": "MTK1256:3MAOD8E57RHFYQJUDGQ9GL3TK5TXNS", "current_trial": 129, "dateTime": 1513476093964, "trialdata": {"rt": -1000, "stimulus": "/static/audio/wordpool/PLAYGROUND.wav", "key_press": -1, "type": "PRES_AUD", "word": "playground", "wordID": 1086, "conditions": [24, 1600, "a", 12000], "trial": 3, "serialpos": 12, "trial_type": "single-audio", "trial_index": 129, "time_elapsed": 722996, "internal_node_id": "0.0-93.0"}}, {"uniqueid": "MTK1256:3MAOD8E57RHFYQJUDGQ9GL3TK5TXNS", "current_trial": 130, "dateTime": 1513476096746, "trialdata": {"rt": -1000, "stimulus": "/static/audio/wordpool/SALAD.wav", "key_press": -1, "type": "PRES_AUD", "word": "salad", "wordID": 1223, "conditions": [24, 1600, "a", 12000], "trial": 3, "serialpos": 13, "trial_type": "single-audio", "trial_index": 130, "time_elapsed": 725778, "internal_node_id": "0.0-94.0"}}, {"uniqueid": "MTK1256:3MAOD8E57RHFYQJUDGQ9GL3TK5TXNS", "current_trial": 131, "dateTime": 1513476099237, "trialdata": {"rt": -1000, "stimulus": "/static/audio/wordpool/PISTOL.wav", "key_press": -1, "type": "PRES_AUD", "word": "pistol", "wordID": 1074, "conditions": [24, 1600, "a", 12000], "trial": 3, "serialpos": 14, "trial_type": "single-audio", "trial_index": 131, "time_elapsed": 728267, "internal_node_id": "0.0-95.0"}}, {"uniqueid": "MTK1256:3MAOD8E57RHFYQJUDGQ9GL3TK5TXNS", "current_trial": 132, "dateTime": 1513476101924, "trialdata": {"rt": -1000, "stimulus": "/static/audio/wordpool/WAITER.wav", "key_press": -1, "type": "PRES_AUD", "word": "waiter", "wordID": 1579, "conditions": [24, 1600, "a", 12000], "trial": 3, "serialpos": 15, "trial_type": "single-audio", "trial_index": 132, "time_elapsed": 730956, "internal_node_id": "0.0-96.0"}}, {"uniqueid": "MTK1256:3MAOD8E57RHFYQJUDGQ9GL3TK5TXNS", "current_trial": 133, "dateTime": 1513476104587, "trialdata": {"rt": -1000, "stimulus": "/static/audio/wordpool/FRAGRANCE.wav", "key_press": -1, "type": "PRES_AUD", "word": "fragrance", "wordID": 598, "conditions": [24, 1600, "a", 12000], "trial": 3, "serialpos": 16, "trial_type": "single-audio", "trial_index": 133, "time_elapsed": 733619, "internal_node_id": "0.0-97.0"}}, {"uniqueid": "MTK1256:3MAOD8E57RHFYQJUDGQ9GL3TK5TXNS", "current_trial": 134, "dateTime": 1513476107305, "trialdata": {"rt": -1000, "stimulus": "/static/audio/wordpool/SIDEWALK.wav", "key_press": -1, "type": "PRES_AUD", "word": "sidewalk", "wordID": 1302, "conditions": [24, 1600, "a", 12000], "trial": 3, "serialpos": 17, "trial_type": "single-audio", "trial_index": 134, "time_elapsed": 736337, "internal_node_id": "0.0-98.0"}}, {"uniqueid": "MTK1256:3MAOD8E57RHFYQJUDGQ9GL3TK5TXNS", "current_trial": 135, "dateTime": 1513476109741, "trialdata": {"rt": -1000, "stimulus": "/static/audio/wordpool/RELISH.wav", "key_press": -1, "type": "PRES_AUD", "word": "relish", "wordID": 1182, "conditions": [24, 1600, "a", 12000], "trial": 3, "serialpos": 18, "trial_type": "single-audio", "trial_index": 135, "time_elapsed": 738773, "internal_node_id": "0.0-99.0"}}, {"uniqueid": "MTK1256:3MAOD8E57RHFYQJUDGQ9GL3TK5TXNS", "current_trial": 136, "dateTime": 1513476112227, "trialdata": {"rt": -1000, "stimulus": "/static/audio/wordpool/MATTRESS.wav", "key_press": -1, "type": "PRES_AUD", "word": "mattress", "wordID": 878, "conditions": [24, 1600, "a", 12000], "trial": 3, "serialpos": 19, "trial_type": "single-audio", "trial_index": 136, "time_elapsed": 741259, "internal_node_id": "0.0-100.0"}}, {"uniqueid": "MTK1256:3MAOD8E57RHFYQJUDGQ9GL3TK5TXNS", "current_trial": 137, "dateTime": 1513476114766, "trialdata": {"rt": -1000, "stimulus": "/static/audio/wordpool/PLAZA.wav", "key_press": -1, "type": "PRES_AUD", "word": "plaza", "wordID": 1087, "conditions": [24, 1600, "a", 12000], "trial": 3, "serialpos": 20, "trial_type": "single-audio", "trial_index": 137, "time_elapsed": 743798, "internal_node_id": "0.0-101.0"}}, {"uniqueid": "MTK1256:3MAOD8E57RHFYQJUDGQ9GL3TK5TXNS", "current_trial": 138, "dateTime": 1513476117527, "trialdata": {"rt": -1000, "stimulus": "/static/audio/wordpool/STREAM.wav", "key_press": -1, "type": "PRES_AUD", "word": "stream", "wordID": 1391, "conditions": [24, 1600, "a", 12000], "trial": 3, "serialpos": 21, "trial_type": "single-audio", "trial_index": 138, "time_elapsed": 746559, "internal_node_id": "0.0-102.0"}}, {"uniqueid": "MTK1256:3MAOD8E57RHFYQJUDGQ9GL3TK5TXNS", "current_trial": 139, "dateTime": 1513476119944, "trialdata": {"rt": -1000, "stimulus": "/static/audio/wordpool/SEAFOOD.wav", "key_press": -1, "type": "PRES_AUD", "word": "seafood", "wordID": 1259, "conditions": [24, 1600, "a", 12000], "trial": 3, "serialpos": 22, "trial_type": "single-audio", "trial_index": 139, "time_elapsed": 748975, "internal_node_id": "0.0-103.0"}}, {"uniqueid": "MTK1256:3MAOD8E57RHFYQJUDGQ9GL3TK5TXNS", "current_trial": 140, "dateTime": 1513476122512, "trialdata": {"rt": -1000, "stimulus": "/static/audio/wordpool/SCALLOP.wav", "key_press": -1, "type": "PRES_AUD", "word": "scallop", "wordID": 1241, "conditions": [24, 1600, "a", 12000], "trial": 3, "serialpos": 23, "trial_type": "single-audio", "trial_index": 140, "time_elapsed": 751544, "internal_node_id": "0.0-104.0"}}, {"uniqueid": "MTK1256:3MAOD8E57RHFYQJUDGQ9GL3TK5TXNS", "current_trial": 141, "dateTime": 1513476123825, "trialdata": {"rt": -1, "stimulus": "", "key_press": -1, "type": "PRE_RECALL_DELAY", "trial_type": "single-stim", "trial_index": 141, "time_elapsed": 752857, "internal_node_id": "0.0-105.0-0.0"}}, {"uniqueid": "MTK1256:3MAOD8E57RHFYQJUDGQ9GL3TK5TXNS", "current_trial": 142, "dateTime": 1513476124328, "trialdata": {"rt": -1000, "stimulus": "/static/audio/400Hz.wav", "key_press": -1, "type": "PRE_RECALL_ALERT", "trial_type": "single-audio", "trial_index": 142, "time_elapsed": 753360, "internal_node_id": "0.0-106.0"}}, {"uniqueid": "MTK1256:3MAOD8E57RHFYQJUDGQ9GL3TK5TXNS", "current_trial": 143, "dateTime": 1513476184337, "trialdata": {"rt": [10642, 13089, 16528, 18583, 20670, 22393, 31156, 34219, 36951, 40224, 42590, 52999, 55117], "recwords": ["seafood", "bullet", "salad", "mars", "silk", "banker", "primate", "gangster", "bank", "bunny", "penguin", "sidewalk", "waiter"], "type": "FREE_RECALL", "conditions": [24, 1600, "a", 12000], "trial": 3, "trial_type": "free-recall", "trial_index": 143, "time_elapsed": 813364, "internal_node_id": "0.0-107.0-0.0"}}, {"uniqueid": "MTK1256:3MAOD8E57RHFYQJUDGQ9GL3TK5TXNS", "current_trial": 144, "dateTime": 1513476187707, "trialdata": {"rt": 1368, "key_press": 77, "type": "INSTRUCTIONS", "trial_type": "text", "trial_index": 144, "time_elapsed": 816739, "internal_node_id": "0.0-108.0"}}, {"uniqueid": "MTK1256:3MAOD8E57RHFYQJUDGQ9GL3TK5TXNS", "current_trial": 145, "dateTime": 1513476201712, "trialdata": {"rt": [7296, 10208], "responses": ["15", "16"], "num1": [2, 8, 9], "num2": [4, 6, 6], "num3": [9, 2, 4], "type": "DISTRACTOR", "conditions": [12, 800, "v", 12000], "trial": 4, "trial_type": "math-distractor", "trial_index": 145, "time_elapsed": 830743, "internal_node_id": "0.0-109.0"}}, {"uniqueid": "MTK1256:3MAOD8E57RHFYQJUDGQ9GL3TK5TXNS", "current_trial": 146, "dateTime": 1513476204715, "trialdata": {"rt": -1, "stimulus": "<p id=\"stim\">10</p>", "key_press": -1, "trial_type": "single-stim", "trial_index": 146, "time_elapsed": 833747, "internal_node_id": "0.0-110.0-0.0"}}, {"uniqueid": "MTK1256:3MAOD8E57RHFYQJUDGQ9GL3TK5TXNS", "current_trial": 147, "dateTime": 1513476205717, "trialdata": {"rt": -1, "stimulus": "<p id=\"stim\">9</p>", "key_press": -1, "trial_type": "single-stim", "trial_index": 147, "time_elapsed": 834749, "internal_node_id": "0.0-110.0-1.0"}}, {"uniqueid": "MTK1256:3MAOD8E57RHFYQJUDGQ9GL3TK5TXNS", "current_trial": 148, "dateTime": 1513476206720, "trialdata": {"rt": -1, "stimulus": "<p id=\"stim\">8</p>", "key_press": -1, "trial_type": "single-stim", "trial_index": 148, "time_elapsed": 835752, "internal_node_id": "0.0-110.0-2.0"}}, {"uniqueid": "MTK1256:3MAOD8E57RHFYQJUDGQ9GL3TK5TXNS", "current_trial": 149, "dateTime": 1513476207722, "trialdata": {"rt": -1, "stimulus": "<p id=\"stim\">7</p>", "key_press": -1, "trial_type": "single-stim", "trial_index": 149, "time_elapsed": 836754, "internal_node_id": "0.0-110.0-3.0"}}, {"uniqueid": "MTK1256:3MAOD8E57RHFYQJUDGQ9GL3TK5TXNS", "current_trial": 150, "dateTime": 1513476208724, "trialdata": {"rt": -1, "stimulus": "<p id=\"stim\">6</p>", "key_press": -1, "trial_type": "single-stim", "trial_index": 150, "time_elapsed": 837756, "internal_node_id": "0.0-110.0-4.0"}}, {"uniqueid": "MTK1256:3MAOD8E57RHFYQJUDGQ9GL3TK5TXNS", "current_trial": 151, "dateTime": 1513476209725, "trialdata": {"rt": -1, "stimulus": "<p id=\"stim\">5</p>", "key_press": -1, "trial_type": "single-stim", "trial_index": 151, "time_elapsed": 838757, "internal_node_id": "0.0-110.0-5.0"}}, {"uniqueid": "MTK1256:3MAOD8E57RHFYQJUDGQ9GL3TK5TXNS", "current_trial": 152, "dateTime": 1513476210727, "trialdata": {"rt": -1, "stimulus": "<p id=\"stim\">4</p>", "key_press": -1, "trial_type": "single-stim", "trial_index": 152, "time_elapsed": 839759, "internal_node_id": "0.0-110.0-6.0"}}, {"uniqueid": "MTK1256:3MAOD8E57RHFYQJUDGQ9GL3TK5TXNS", "current_trial": 153, "dateTime": 1513476211729, "trialdata": {"rt": -1, "stimulus": "<p id=\"stim\">3</p>", "key_press": -1, "trial_type": "single-stim", "trial_index": 153, "time_elapsed": 840761, "internal_node_id": "0.0-110.0-7.0"}}, {"uniqueid": "MTK1256:3MAOD8E57RHFYQJUDGQ9GL3TK5TXNS", "current_trial": 154, "dateTime": 1513476212730, "trialdata": {"rt": -1, "stimulus": "<p id=\"stim\">2</p>", "key_press": -1, "trial_type": "single-stim", "trial_index": 154, "time_elapsed": 841762, "internal_node_id": "0.0-110.0-8.0"}}, {"uniqueid": "MTK1256:3MAOD8E57RHFYQJUDGQ9GL3TK5TXNS", "current_trial": 155, "dateTime": 1513476213732, "trialdata": {"rt": -1, "stimulus": "<p id=\"stim\">1</p>", "key_press": -1, "trial_type": "single-stim", "trial_index": 155, "time_elapsed": 842764, "internal_node_id": "0.0-110.0-9.0"}}, {"uniqueid": "MTK1256:3MAOD8E57RHFYQJUDGQ9GL3TK5TXNS", "current_trial": 156, "dateTime": 1513476215319, "trialdata": {"rt": -1, "stimulus": "<p id=\"stim\">+</p>", "key_press": -1, "type": "FIXATION", "trial_type": "single-stim", "trial_index": 156, "time_elapsed": 844351, "internal_node_id": "0.0-111.0-0.0"}}, {"uniqueid": "MTK1256:3MAOD8E57RHFYQJUDGQ9GL3TK5TXNS", "current_trial": 157, "dateTime": 1513476216120, "trialdata": {"rt": -1, "stimulus": "<p id=\"stim\">NURSE</p>", "key_press": -1, "type": "PRES_VIS", "word": "nurse", "wordID": 962, "conditions": [12, 800, "v", 12000], "trial": 4, "serialpos": 0, "trial_type": "single-stim", "trial_index": 157, "time_elapsed": 845152, "internal_node_id": "0.0-112.0"}}, {"uniqueid": "MTK1256:3MAOD8E57RHFYQJUDGQ9GL3TK5TXNS", "current_trial": 158, "dateTime": 1513476217951, "trialdata": {"rt": -1, "stimulus": "<p id=\"stim\">BOX</p>", "key_press": -1, "type": "PRES_VIS", "word": "box", "wordID": 158, "conditions": [12, 800, "v", 12000], "trial": 4, "serialpos": 1, "trial_type": "single-stim", "trial_index": 158, "time_elapsed": 846983, "internal_node_id": "0.0-113.0"}}, {"uniqueid": "MTK1256:3MAOD8E57RHFYQJUDGQ9GL3TK5TXNS", "current_trial": 159, "dateTime": 1513476219636, "trialdata": {"rt": -1, "stimulus": "<p id=\"stim\">THREAD</p>", "key_press": -1, "type": "PRES_VIS", "word": "thread", "wordID": 1459, "conditions": [12, 800, "v", 12000], "trial": 4, "serialpos": 2, "trial_type": "single-stim", "trial_index": 159, "time_elapsed": 848668, "internal_node_id": "0.0-114.0"}}, {"uniqueid": "MTK1256:3MAOD8E57RHFYQJUDGQ9GL3TK5TXNS", "current_trial": 160, "dateTime": 1513476221369, "trialdata": {"rt": -1, "stimulus": "<p id=\"stim\">BIKE</p>", "key_press": -1, "type": "PRES_VIS", "word": "bike", "wordID": 124, "conditions": [12, 800, "v", 12000], "trial": 4, "serialpos": 3, "trial_type": "single-stim", "trial_index": 160, "time_elapsed": 850401, "internal_node_id": "0.0-115.0"}}, {"uniqueid": "MTK1256:3MAOD8E57RHFYQJUDGQ9GL3TK5TXNS", "current_trial": 161, "dateTime": 1513476223012, "trialdata": {"rt": -1, "stimulus": "<p id=\"stim\">FARMER</p>", "key_press": -1, "type": "PRES_VIS", "word": "farmer", "wordID": 552, "conditions": [12, 800, "v", 12000], "trial": 4, "serialpos": 4, "trial_type": "single-stim", "trial_index": 161, "time_elapsed": 852043, "internal_node_id": "0.0-116.0"}}, {"uniqueid": "MTK1256:3MAOD8E57RHFYQJUDGQ9GL3TK5TXNS", "current_trial": 162, "dateTime": 1513476224727, "trialdata": {"rt": -1, "stimulus": "<p id=\"stim\">WIFE</p>", "key_press": -1, "type": "PRES_VIS", "word": "wife", "wordID": 1608, "conditions": [12, 800, "v", 12000], "trial": 4, "serialpos": 5, "trial_type": "single-stim", "trial_index": 162, "time_elapsed": 853758, "internal_node_id": "0.0-117.0"}}, {"uniqueid": "MTK1256:3MAOD8E57RHFYQJUDGQ9GL3TK5TXNS", "current_trial": 163, "dateTime": 1513476226712, "trialdata": {"rt": -1, "stimulus": "<p id=\"stim\">ELBOW</p>", "key_press": -1, "type": "PRES_VIS", "word": "elbow", "wordID": 519, "conditions": [12, 800, "v", 12000], "trial": 4, "serialpos": 6, "trial_type": "single-stim", "trial_index": 163, "time_elapsed": 855744, "internal_node_id": "0.0-118.0"}}, {"uniqueid": "MTK1256:3MAOD8E57RHFYQJUDGQ9GL3TK5TXNS", "current_trial": 164, "dateTime": 1513476228428, "trialdata": {"rt": -1, "stimulus": "<p id=\"stim\">FRECKLE</p>", "key_press": -1, "type": "PRES_VIS", "word": "freckle", "wordID": 601, "conditions": [12, 800, "v", 12000], "trial": 4, "serialpos": 7, "trial_type": "single-stim", "trial_index": 164, "time_elapsed": 857460, "internal_node_id": "0.0-119.0"}}, {"uniqueid": "MTK1256:3MAOD8E57RHFYQJUDGQ9GL3TK5TXNS", "current_trial": 165, "dateTime": 1513476230290, "trialdata": {"rt": -1, "stimulus": "<p id=\"stim\">CREATURE</p>", "key_press": -1, "type": "PRES_VIS", "word": "creature", "wordID": 402, "conditions": [12, 800, "v", 12000], "trial": 4, "serialpos": 8, "trial_type": "single-stim", "trial_index": 165, "time_elapsed": 859321, "internal_node_id": "0.0-120.0"}}, {"uniqueid": "MTK1256:3MAOD8E57RHFYQJUDGQ9GL3TK5TXNS", "current_trial": 166, "dateTime": 1513476232211, "trialdata": {"rt": -1, "stimulus": "<p id=\"stim\">MAMMAL</p>", "key_press": -1, "type": "PRES_VIS", "word": "mammal", "wordID": 860, "conditions": [12, 800, "v", 12000], "trial": 4, "serialpos": 9, "trial_type": "single-stim", "trial_index": 166, "time_elapsed": 861241, "internal_node_id": "0.0-121.0"}}, {"uniqueid": "MTK1256:3MAOD8E57RHFYQJUDGQ9GL3TK5TXNS", "current_trial": 167, "dateTime": 1513476233858, "trialdata": {"rt": -1, "stimulus": "<p id=\"stim\">WRIST</p>", "key_press": -1, "type": "PRES_VIS", "word": "wrist", "wordID": 1625, "conditions": [12, 800, "v", 12000], "trial": 4, "serialpos": 10, "trial_type": "single-stim", "trial_index": 167, "time_elapsed": 862890, "internal_node_id": "0.0-122.0"}}, {"uniqueid": "MTK1256:3MAOD8E57RHFYQJUDGQ9GL3TK5TXNS", "current_trial": 168, "dateTime": 1513476235830, "trialdata": {"rt": -1, "stimulus": "<p id=\"stim\">RUG</p>", "key_press": -1, "type": "PRES_VIS", "word": "rug", "wordID": 1214, "conditions": [12, 800, "v", 12000], "trial": 4, "serialpos": 11, "trial_type": "single-stim", "trial_index": 168, "time_elapsed": 864862, "internal_node_id": "0.0-123.0"}}, {"uniqueid": "MTK1256:3MAOD8E57RHFYQJUDGQ9GL3TK5TXNS", "current_trial": 169, "dateTime": 1513476237951, "trialdata": {"rt": -1, "stimulus": "", "key_press": -1, "type": "PRE_RECALL_DELAY", "trial_type": "single-stim", "trial_index": 169, "time_elapsed": 866983, "internal_node_id": "0.0-124.0-0.0"}}, {"uniqueid": "MTK1256:3MAOD8E57RHFYQJUDGQ9GL3TK5TXNS", "current_trial": 170, "dateTime": 1513476238453, "trialdata": {"rt": -1000, "stimulus": "/static/audio/400Hz.wav", "key_press": -1, "type": "PRE_RECALL_ALERT", "trial_type": "single-audio", "trial_index": 170, "time_elapsed": 867485, "internal_node_id": "0.0-125.0"}}, {"uniqueid": "MTK1256:3MAOD8E57RHFYQJUDGQ9GL3TK5TXNS", "current_trial": 171, "dateTime": 1513476298463, "trialdata": {"rt": [16005, 16966, 18333, 24450, 25661, 26859, 28678, 30815, 35374, 36498], "recwords": ["mammal", "rug", "wrist", "box", "creature", "nurse", "farmer", "bike", "freckle", "wife"], "type": "FREE_RECALL", "conditions": [12, 800, "v", 12000], "trial": 4, "trial_type": "free-recall", "trial_index": 171, "time_elapsed": 927490, "internal_node_id": "0.0-126.0-0.0"}}, {"uniqueid": "MTK1256:3MAOD8E57RHFYQJUDGQ9GL3TK5TXNS", "current_trial": 172, "dateTime": 1513476304552, "trialdata": {"rt": 4086, "key_press": 13, "type": "INSTRUCTIONS", "trial_type": "text", "trial_index": 172, "time_elapsed": 933584, "internal_node_id": "0.0-127.0"}}, {"uniqueid": "MTK1256:3MAOD8E57RHFYQJUDGQ9GL3TK5TXNS", "current_trial": 173, "dateTime": 1513476318556, "trialdata": {"rt": [2178, 6312, 8700], "responses": ["11", "13", "14"], "num1": [3, 6, 3, 5], "num2": [6, 3, 9, 7], "num3": [2, 4, 2, 9], "type": "DISTRACTOR", "conditions": [24, 1600, "v", 12000], "trial": 5, "trial_type": "math-distractor", "trial_index": 173, "time_elapsed": 947588, "internal_node_id": "0.0-128.0"}}, {"uniqueid": "MTK1256:3MAOD8E57RHFYQJUDGQ9GL3TK5TXNS", "current_trial": 174, "dateTime": 1513476321559, "trialdata": {"rt": -1, "stimulus": "<p id=\"stim\">10</p>", "key_press": -1, "trial_type": "single-stim", "trial_index": 174, "time_elapsed": 950591, "internal_node_id": "0.0-129.0-0.0"}}, {"uniqueid": "MTK1256:3MAOD8E57RHFYQJUDGQ9GL3TK5TXNS", "current_trial": 175, "dateTime": 1513476322560, "trialdata": {"rt": -1, "stimulus": "<p id=\"stim\">9</p>", "key_press": -1, "trial_type": "single-stim", "trial_index": 175, "time_elapsed": 951592, "internal_node_id": "0.0-129.0-1.0"}}, {"uniqueid": "MTK1256:3MAOD8E57RHFYQJUDGQ9GL3TK5TXNS", "current_trial": 176, "dateTime": 1513476323564, "trialdata": {"rt": -1, "stimulus": "<p id=\"stim\">8</p>", "key_press": -1, "trial_type": "single-stim", "trial_index": 176, "time_elapsed": 952596, "internal_node_id": "0.0-129.0-2.0"}}, {"uniqueid": "MTK1256:3MAOD8E57RHFYQJUDGQ9GL3TK5TXNS", "current_trial": 177, "dateTime": 1513476324567, "trialdata": {"rt": -1, "stimulus": "<p id=\"stim\">7</p>", "key_press": -1, "trial_type": "single-stim", "trial_index": 177, "time_elapsed": 953599, "internal_node_id": "0.0-129.0-3.0"}}, {"uniqueid": "MTK1256:3MAOD8E57RHFYQJUDGQ9GL3TK5TXNS", "current_trial": 178, "dateTime": 1513476325569, "trialdata": {"rt": -1, "stimulus": "<p id=\"stim\">6</p>", "key_press": -1, "trial_type": "single-stim", "trial_index": 178, "time_elapsed": 954601, "internal_node_id": "0.0-129.0-4.0"}}, {"uniqueid": "MTK1256:3MAOD8E57RHFYQJUDGQ9GL3TK5TXNS", "current_trial": 179, "dateTime": 1513476326570, "trialdata": {"rt": -1, "stimulus": "<p id=\"stim\">5</p>", "key_press": -1, "trial_type": "single-stim", "trial_index": 179, "time_elapsed": 955602, "internal_node_id": "0.0-129.0-5.0"}}, {"uniqueid": "MTK1256:3MAOD8E57RHFYQJUDGQ9GL3TK5TXNS", "current_trial": 180, "dateTime": 1513476327572, "trialdata": {"rt": -1, "stimulus": "<p id=\"stim\">4</p>", "key_press": -1, "trial_type": "single-stim", "trial_index": 180, "time_elapsed": 956604, "internal_node_id": "0.0-129.0-6.0"}}, {"uniqueid": "MTK1256:3MAOD8E57RHFYQJUDGQ9GL3TK5TXNS", "current_trial": 181, "dateTime": 1513476328574, "trialdata": {"rt": -1, "stimulus": "<p id=\"stim\">3</p>", "key_press": -1, "trial_type": "single-stim", "trial_index": 181, "time_elapsed": 957605, "internal_node_id": "0.0-129.0-7.0"}}, {"uniqueid": "MTK1256:3MAOD8E57RHFYQJUDGQ9GL3TK5TXNS", "current_trial": 182, "dateTime": 1513476329575, "trialdata": {"rt": -1, "stimulus": "<p id=\"stim\">2</p>", "key_press": -1, "trial_type": "single-stim", "trial_index": 182, "time_elapsed": 958607, "internal_node_id": "0.0-129.0-8.0"}}, {"uniqueid": "MTK1256:3MAOD8E57RHFYQJUDGQ9GL3TK5TXNS", "current_trial": 183, "dateTime": 1513476330577, "trialdata": {"rt": -1, "stimulus": "<p id=\"stim\">1</p>", "key_press": -1, "trial_type": "single-stim", "trial_index": 183, "time_elapsed": 959609, "internal_node_id": "0.0-129.0-9.0"}}, {"uniqueid": "MTK1256:3MAOD8E57RHFYQJUDGQ9GL3TK5TXNS", "current_trial": 184, "dateTime": 1513476332080, "trialdata": {"rt": -1, "stimulus": "<p id=\"stim\">+</p>", "key_press": -1, "type": "FIXATION", "trial_type": "single-stim", "trial_index": 184, "time_elapsed": 961112, "internal_node_id": "0.0-130.0-0.0"}}, {"uniqueid": "MTK1256:3MAOD8E57RHFYQJUDGQ9GL3TK5TXNS", "current_trial": 185, "dateTime": 1513476333681, "trialdata": {"rt": -1, "stimulus": "<p id=\"stim\">BLADE</p>", "key_press": -1, "type": "PRES_VIS", "word": "blade", "wordID": 133, "conditions": [24, 1600, "v", 12000], "trial": 5, "serialpos": 0, "trial_type": "single-stim", "trial_index": 185, "time_elapsed": 962713, "internal_node_id": "0.0-131.0"}}, {"uniqueid": "MTK1256:3MAOD8E57RHFYQJUDGQ9GL3TK5TXNS", "current_trial": 186, "dateTime": 1513476336458, "trialdata": {"rt": -1, "stimulus": "<p id=\"stim\">KNIFE</p>", "key_press": -1, "type": "PRES_VIS", "word": "knife", "wordID": 784, "conditions": [24, 1600, "v", 12000], "trial": 5, "serialpos": 1, "trial_type": "single-stim", "trial_index": 186, "time_elapsed": 965490, "internal_node_id": "0.0-132.0"}}, {"uniqueid": "MTK1256:3MAOD8E57RHFYQJUDGQ9GL3TK5TXNS", "current_trial": 187, "dateTime": 1513476339030, "trialdata": {"rt": -1, "stimulus": "<p id=\"stim\">COCKTAIL</p>", "key_press": -1, "type": "PRES_VIS", "word": "cocktail", "wordID": 337, "conditions": [24, 1600, "v", 12000], "trial": 5, "serialpos": 2, "trial_type": "single-stim", "trial_index": 187, "time_elapsed": 968062, "internal_node_id": "0.0-133.0"}}, {"uniqueid": "MTK1256:3MAOD8E57RHFYQJUDGQ9GL3TK5TXNS", "current_trial": 188, "dateTime": 1513476341646, "trialdata": {"rt": -1, "stimulus": "<p id=\"stim\">BURGLAR</p>", "key_press": -1, "type": "PRES_VIS", "word": "burglar", "wordID": 199, "conditions": [24, 1600, "v", 12000], "trial": 5, "serialpos": 3, "trial_type": "single-stim", "trial_index": 188, "time_elapsed": 970677, "internal_node_id": "0.0-134.0"}}, {"uniqueid": "MTK1256:3MAOD8E57RHFYQJUDGQ9GL3TK5TXNS", "current_trial": 189, "dateTime": 1513476344058, "trialdata": {"rt": -1, "stimulus": "<p id=\"stim\">GOBLIN</p>", "key_press": -1, "type": "PRES_VIS", "word": "goblin", "wordID": 644, "conditions": [24, 1600, "v", 12000], "trial": 5, "serialpos": 4, "trial_type": "single-stim", "trial_index": 189, "time_elapsed": 973090, "internal_node_id": "0.0-135.0"}}, {"uniqueid": "MTK1256:3MAOD8E57RHFYQJUDGQ9GL3TK5TXNS", "current_trial": 190, "dateTime": 1513476346730, "trialdata": {"rt": -1, "stimulus": "<p id=\"stim\">DAISY</p>", "key_press": -1, "type": "PRES_VIS", "word": "daisy", "wordID": 434, "conditions": [24, 1600, "v", 12000], "trial": 5, "serialpos": 5, "trial_type": "single-stim", "trial_index": 190, "time_elapsed": 975762, "internal_node_id": "0.0-136.0"}}, {"uniqueid": "MTK1256:3MAOD8E57RHFYQJUDGQ9GL3TK5TXNS", "current_trial": 191, "dateTime": 1513476349508, "trialdata": {"rt": -1, "stimulus": "<p id=\"stim\">SKILLET</p>", "key_press": -1, "type": "PRES_VIS", "word": "skillet", "wordID": 1316, "conditions": [24, 1600, "v", 12000], "trial": 5, "serialpos": 6, "trial_type": "single-stim", "trial_index": 191, "time_elapsed": 978540, "internal_node_id": "0.0-137.0"}}, {"uniqueid": "MTK1256:3MAOD8E57RHFYQJUDGQ9GL3TK5TXNS", "current_trial": 192, "dateTime": 1513476351961, "trialdata": {"rt": -1, "stimulus": "<p id=\"stim\">CASHEW</p>", "key_press": -1, "type": "PRES_VIS", "word": "cashew", "wordID": 252, "conditions": [24, 1600, "v", 12000], "trial": 5, "serialpos": 7, "trial_type": "single-stim", "trial_index": 192, "time_elapsed": 980993, "internal_node_id": "0.0-138.0"}}, {"uniqueid": "MTK1256:3MAOD8E57RHFYQJUDGQ9GL3TK5TXNS", "current_trial": 193, "dateTime": 1513476354480, "trialdata": {"rt": -1, "stimulus": "<p id=\"stim\">MARKER</p>", "key_press": -1, "type": "PRES_VIS", "word": "marker", "wordID": 869, "conditions": [24, 1600, "v", 12000], "trial": 5, "serialpos": 8, "trial_type": "single-stim", "trial_index": 193, "time_elapsed": 983510, "internal_node_id": "0.0-139.0"}}, {"uniqueid": "MTK1256:3MAOD8E57RHFYQJUDGQ9GL3TK5TXNS", "current_trial": 194, "dateTime": 1513476357276, "trialdata": {"rt": -1, "stimulus": "<p id=\"stim\">GRILL</p>", "key_press": -1, "type": "PRES_VIS", "word": "grill", "wordID": 660, "conditions": [24, 1600, "v", 12000], "trial": 5, "serialpos": 9, "trial_type": "single-stim", "trial_index": 194, "time_elapsed": 986307, "internal_node_id": "0.0-140.0"}}, {"uniqueid": "MTK1256:3MAOD8E57RHFYQJUDGQ9GL3TK5TXNS", "current_trial": 195, "dateTime": 1513476360042, "trialdata": {"rt": -1, "stimulus": "<p id=\"stim\">HAWK</p>", "key_press": -1, "type": "PRES_VIS", "word": "hawk", "wordID": 691, "conditions": [24, 1600, "v", 12000], "trial": 5, "serialpos": 10, "trial_type": "single-stim", "trial_index": 195, "time_elapsed": 989073, "internal_node_id": "0.0-141.0"}}, {"uniqueid": "MTK1256:3MAOD8E57RHFYQJUDGQ9GL3TK5TXNS", "current_trial": 196, "dateTime": 1513476362671, "trialdata": {"rt": -1, "stimulus": "<p id=\"stim\">SPHINX</p>", "key_press": -1, "type": "PRES_VIS", "word": "sphinx", "wordID": 1348, "conditions": [24, 1600, "v", 12000], "trial": 5, "serialpos": 11, "trial_type": "single-stim", "trial_index": 196, "time_elapsed": 991702, "internal_node_id": "0.0-142.0"}}, {"uniqueid": "MTK1256:3MAOD8E57RHFYQJUDGQ9GL3TK5TXNS", "current_trial": 197, "dateTime": 1513476365289, "trialdata": {"rt": -1, "stimulus": "<p id=\"stim\">TURKEY</p>", "key_press": -1, "type": "PRES_VIS", "word": "turkey", "wordID": 1519, "conditions": [24, 1600, "v", 12000], "trial": 5, "serialpos": 12, "trial_type": "single-stim", "trial_index": 197, "time_elapsed": 994321, "internal_node_id": "0.0-143.0"}}, {"uniqueid": "MTK1256:3MAOD8E57RHFYQJUDGQ9GL3TK5TXNS", "current_trial": 198, "dateTime": 1513476367972, "trialdata": {"rt": -1, "stimulus": "<p id=\"stim\">TROUT</p>", "key_press": -1, "type": "PRES_VIS", "word": "trout", "wordID": 1510, "conditions": [24, 1600, "v", 12000], "trial": 5, "serialpos": 13, "trial_type": "single-stim", "trial_index": 198, "time_elapsed": 997003, "internal_node_id": "0.0-144.0"}}, {"uniqueid": "MTK1256:3MAOD8E57RHFYQJUDGQ9GL3TK5TXNS", "current_trial": 199, "dateTime": 1513476370405, "trialdata": {"rt": -1, "stimulus": "<p id=\"stim\">GIFT</p>", "key_press": -1, "type": "PRES_VIS", "word": "gift", "wordID": 634, "conditions": [24, 1600, "v", 12000], "trial": 5, "serialpos": 14, "trial_type": "single-stim", "trial_index": 199, "time_elapsed": 999437, "internal_node_id": "0.0-145.0"}}, {"uniqueid": "MTK1256:3MAOD8E57RHFYQJUDGQ9GL3TK5TXNS", "current_trial": 200, "dateTime": 1513476372842, "trialdata": {"rt": -1, "stimulus": "<p id=\"stim\">SOFTBALL</p>", "key_press": -1, "type": "PRES_VIS", "word": "softball", "wordID": 1342, "conditions": [24, 1600, "v", 12000], "trial": 5, "serialpos": 15, "trial_type": "single-stim", "trial_index": 200, "time_elapsed": 1001873, "internal_node_id": "0.0-146.0"}}, {"uniqueid": "MTK1256:3MAOD8E57RHFYQJUDGQ9GL3TK5TXNS", "current_trial": 201, "dateTime": 1513476375302, "trialdata": {"rt": -1, "stimulus": "<p id=\"stim\">ASIA</p>", "key_press": -1, "type": "PRES_VIS", "word": "asia", "wordID": 45, "conditions": [24, 1600, "v", 12000], "trial": 5, "serialpos": 16, "trial_type": "single-stim", "trial_index": 201, "time_elapsed": 1004332, "internal_node_id": "0.0-147.0"}}, {"uniqueid": "MTK1256:3MAOD8E57RHFYQJUDGQ9GL3TK5TXNS", "current_trial": 202, "dateTime": 1513476377760, "trialdata": {"rt": -1, "stimulus": "<p id=\"stim\">FLUTE</p>", "key_press": -1, "type": "PRES_VIS", "word": "flute", "wordID": 584, "conditions": [24, 1600, "v", 12000], "trial": 5, "serialpos": 17, "trial_type": "single-stim", "trial_index": 202, "time_elapsed": 1006792, "internal_node_id": "0.0-148.0"}}, {"uniqueid": "MTK1256:3MAOD8E57RHFYQJUDGQ9GL3TK5TXNS", "current_trial": 203, "dateTime": 1513476380296, "trialdata": {"rt": -1, "stimulus": "<p id=\"stim\">GUITAR</p>", "key_press": -1, "type": "PRES_VIS", "word": "guitar", "wordID": 669, "conditions": [24, 1600, "v", 12000], "trial": 5, "serialpos": 18, "trial_type": "single-stim", "trial_index": 203, "time_elapsed": 1009327, "internal_node_id": "0.0-149.0"}}, {"uniqueid": "MTK1256:3MAOD8E57RHFYQJUDGQ9GL3TK5TXNS", "current_trial": 204, "dateTime": 1513476383098, "trialdata": {"rt": -1, "stimulus": "<p id=\"stim\">JAPAN</p>", "key_press": -1, "type": "PRES_VIS", "word": "japan", "wordID": 748, "conditions": [24, 1600, "v", 12000], "trial": 5, "serialpos": 19, "trial_type": "single-stim", "trial_index": 204, "time_elapsed": 1012129, "internal_node_id": "0.0-150.0"}}, {"uniqueid": "MTK1256:3MAOD8E57RHFYQJUDGQ9GL3TK5TXNS", "current_trial": 205, "dateTime": 1513476385516, "trialdata": {"rt": -1, "stimulus": "<p id=\"stim\">VICTIM</p>", "key_press": -1, "type": "PRES_VIS", "word": "victim", "wordID": 1561, "conditions": [24, 1600, "v", 12000], "trial": 5, "serialpos": 20, "trial_type": "single-stim", "trial_index": 205, "time_elapsed": 1014544, "internal_node_id": "0.0-151.0"}}, {"uniqueid": "MTK1256:3MAOD8E57RHFYQJUDGQ9GL3TK5TXNS", "current_trial": 206, "dateTime": 1513476388298, "trialdata": {"rt": -1, "stimulus": "<p id=\"stim\">INFANT</p>", "key_press": -1, "type": "PRES_VIS", "word": "infant", "wordID": 736, "conditions": [24, 1600, "v", 12000], "trial": 5, "serialpos": 21, "trial_type": "single-stim", "trial_index": 206, "time_elapsed": 1017329, "internal_node_id": "0.0-152.0"}}, {"uniqueid": "MTK1256:3MAOD8E57RHFYQJUDGQ9GL3TK5TXNS", "current_trial": 207, "dateTime": 1513476390876, "trialdata": {"rt": -1, "stimulus": "<p id=\"stim\">TOASTER</p>", "key_press": -1, "type": "PRES_VIS", "word": "toaster", "wordID": 1471, "conditions": [24, 1600, "v", 12000], "trial": 5, "serialpos": 22, "trial_type": "single-stim", "trial_index": 207, "time_elapsed": 1019907, "internal_node_id": "0.0-153.0"}}, {"uniqueid": "MTK1256:3MAOD8E57RHFYQJUDGQ9GL3TK5TXNS", "current_trial": 208, "dateTime": 1513476393436, "trialdata": {"rt": -1, "stimulus": "<p id=\"stim\">RIFLE</p>", "key_press": -1, "type": "PRES_VIS", "word": "rifle", "wordID": 1191, "conditions": [24, 1600, "v", 12000], "trial": 5, "serialpos": 23, "trial_type": "single-stim", "trial_index": 208, "time_elapsed": 1022468, "internal_node_id": "0.0-154.0"}}, {"uniqueid": "MTK1256:3MAOD8E57RHFYQJUDGQ9GL3TK5TXNS", "current_trial": 209, "dateTime": 1513476395947, "trialdata": {"rt": -1, "stimulus": "", "key_press": -1, "type": "PRE_RECALL_DELAY", "trial_type": "single-stim", "trial_index": 209, "time_elapsed": 1024978, "internal_node_id": "0.0-155.0-0.0"}}, {"uniqueid": "MTK1256:3MAOD8E57RHFYQJUDGQ9GL3TK5TXNS", "current_trial": 210, "dateTime": 1513476396457, "trialdata": {"rt": -1000, "stimulus": "/static/audio/400Hz.wav", "key_press": -1, "type": "PRE_RECALL_ALERT", "trial_type": "single-audio", "trial_index": 210, "time_elapsed": 1025489, "internal_node_id": "0.0-156.0"}}, {"uniqueid": "MTK1256:3MAOD8E57RHFYQJUDGQ9GL3TK5TXNS", "current_trial": 211, "dateTime": 1513476456467, "trialdata": {"rt": [14410, 16310, 17885, 24086, 26219, 33598, 36199, 44384], "recwords": ["rifle", "victim", "toaster", "goblin", "skillet", "softball", "burgler", "grill"], "type": "FREE_RECALL", "conditions": [24, 1600, "v", 12000], "trial": 5, "trial_type": "free-recall", "trial_index": 211, "time_elapsed": 1085493, "internal_node_id": "0.0-157.0-0.0"}}, {"uniqueid": "MTK1256:3MAOD8E57RHFYQJUDGQ9GL3TK5TXNS", "current_trial": 212, "dateTime": 1513476464670, "trialdata": {"rt": 6202, "key_press": 13, "type": "INSTRUCTIONS", "trial_type": "text", "trial_index": 212, "time_elapsed": 1093702, "internal_node_id": "0.0-158.0"}}, {"uniqueid": "MTK1256:3MAOD8E57RHFYQJUDGQ9GL3TK5TXNS", "current_trial": 213, "dateTime": 1513476490675, "trialdata": {"rt": [2907, 5711, 11506, 18460, 21393], "responses": ["19", "18", "21", "18", "9"], "num1": [9, 9, 7, 3, 2, 8], "num2": [1, 4, 9, 8, 1, 8], "num3": [9, 5, 5, 7, 6, 9], "type": "DISTRACTOR", "conditions": [12, 800, "v", 24000], "trial": 6, "trial_type": "math-distractor", "trial_index": 213, "time_elapsed": 1119707, "internal_node_id": "0.0-159.0"}}, {"uniqueid": "MTK1256:3MAOD8E57RHFYQJUDGQ9GL3TK5TXNS", "current_trial": 214, "dateTime": 1513476493678, "trialdata": {"rt": -1, "stimulus": "<p id=\"stim\">10</p>", "key_press": -1, "trial_type": "single-stim", "trial_index": 214, "time_elapsed": 1122710, "internal_node_id": "0.0-160.0-0.0"}}, {"uniqueid": "MTK1256:3MAOD8E57RHFYQJUDGQ9GL3TK5TXNS", "current_trial": 215, "dateTime": 1513476494680, "trialdata": {"rt": -1, "stimulus": "<p id=\"stim\">9</p>", "key_press": -1, "trial_type": "single-stim", "trial_index": 215, "time_elapsed": 1123712, "internal_node_id": "0.0-160.0-1.0"}}, {"uniqueid": "MTK1256:3MAOD8E57RHFYQJUDGQ9GL3TK5TXNS", "current_trial": 216, "dateTime": 1513476495682, "trialdata": {"rt": -1, "stimulus": "<p id=\"stim\">8</p>", "key_press": -1, "trial_type": "single-stim", "trial_index": 216, "time_elapsed": 1124714, "internal_node_id": "0.0-160.0-2.0"}}, {"uniqueid": "MTK1256:3MAOD8E57RHFYQJUDGQ9GL3TK5TXNS", "current_trial": 217, "dateTime": 1513476496685, "trialdata": {"rt": -1, "stimulus": "<p id=\"stim\">7</p>", "key_press": -1, "trial_type": "single-stim", "trial_index": 217, "time_elapsed": 1125715, "internal_node_id": "0.0-160.0-3.0"}}, {"uniqueid": "MTK1256:3MAOD8E57RHFYQJUDGQ9GL3TK5TXNS", "current_trial": 218, "dateTime": 1513476497686, "trialdata": {"rt": -1, "stimulus": "<p id=\"stim\">6</p>", "key_press": -1, "trial_type": "single-stim", "trial_index": 218, "time_elapsed": 1126718, "internal_node_id": "0.0-160.0-4.0"}}, {"uniqueid": "MTK1256:3MAOD8E57RHFYQJUDGQ9GL3TK5TXNS", "current_trial": 219, "dateTime": 1513476498689, "trialdata": {"rt": -1, "stimulus": "<p id=\"stim\">5</p>", "key_press": -1, "trial_type": "single-stim", "trial_index": 219, "time_elapsed": 1127720, "internal_node_id": "0.0-160.0-5.0"}}, {"uniqueid": "MTK1256:3MAOD8E57RHFYQJUDGQ9GL3TK5TXNS", "current_trial": 220, "dateTime": 1513476499690, "trialdata": {"rt": -1, "stimulus": "<p id=\"stim\">4</p>", "key_press": -1, "trial_type": "single-stim", "trial_index": 220, "time_elapsed": 1128722, "internal_node_id": "0.0-160.0-6.0"}}, {"uniqueid": "MTK1256:3MAOD8E57RHFYQJUDGQ9GL3TK5TXNS", "current_trial": 221, "dateTime": 1513476500692, "trialdata": {"rt": -1, "stimulus": "<p id=\"stim\">3</p>", "key_press": -1, "trial_type": "single-stim", "trial_index": 221, "time_elapsed": 1129724, "internal_node_id": "0.0-160.0-7.0"}}, {"uniqueid": "MTK1256:3MAOD8E57RHFYQJUDGQ9GL3TK5TXNS", "current_trial": 222, "dateTime": 1513476501693, "trialdata": {"rt": -1, "stimulus": "<p id=\"stim\">2</p>", "key_press": -1, "trial_type": "single-stim", "trial_index": 222, "time_elapsed": 1130725, "internal_node_id": "0.0-160.0-8.0"}}, {"uniqueid": "MTK1256:3MAOD8E57RHFYQJUDGQ9GL3TK5TXNS", "current_trial": 223, "dateTime": 1513476502695, "trialdata": {"rt": -1, "stimulus": "<p id=\"stim\">1</p>", "key_press": -1, "trial_type": "single-stim", "trial_index": 223, "time_elapsed": 1131727, "internal_node_id": "0.0-160.0-9.0"}}, {"uniqueid": "MTK1256:3MAOD8E57RHFYQJUDGQ9GL3TK5TXNS", "current_trial": 224, "dateTime": 1513476504197, "trialdata": {"rt": -1, "stimulus": "<p id=\"stim\">+</p>", "key_press": -1, "type": "FIXATION", "trial_type": "single-stim", "trial_index": 224, "time_elapsed": 1133229, "internal_node_id": "0.0-161.0-0.0"}}, {"uniqueid": "MTK1256:3MAOD8E57RHFYQJUDGQ9GL3TK5TXNS", "current_trial": 225, "dateTime": 1513476504999, "trialdata": {"rt": -1, "stimulus": "<p id=\"stim\">COUNTY</p>", "key_press": -1, "type": "PRES_VIS", "word": "county", "wordID": 388, "conditions": [12, 800, "v", 24000], "trial": 6, "serialpos": 0, "trial_type": "single-stim", "trial_index": 225, "time_elapsed": 1134031, "internal_node_id": "0.0-162.0"}}, {"uniqueid": "MTK1256:3MAOD8E57RHFYQJUDGQ9GL3TK5TXNS", "current_trial": 226, "dateTime": 1513476506747, "trialdata": {"rt": -1, "stimulus": "<p id=\"stim\">SHOVEL</p>", "key_press": -1, "type": "PRES_VIS", "word": "shovel", "wordID": 1294, "conditions": [12, 800, "v", 24000], "trial": 6, "serialpos": 1, "trial_type": "single-stim", "trial_index": 226, "time_elapsed": 1135779, "internal_node_id": "0.0-163.0"}}, {"uniqueid": "MTK1256:3MAOD8E57RHFYQJUDGQ9GL3TK5TXNS", "current_trial": 227, "dateTime": 1513476508631, "trialdata": {"rt": -1, "stimulus": "<p id=\"stim\">SUNRISE</p>", "key_press": -1, "type": "PRES_VIS", "word": "sunrise", "wordID": 1406, "conditions": [12, 800, "v", 24000], "trial": 6, "serialpos": 2, "trial_type": "single-stim", "trial_index": 227, "time_elapsed": 1137663, "internal_node_id": "0.0-164.0"}}, {"uniqueid": "MTK1256:3MAOD8E57RHFYQJUDGQ9GL3TK5TXNS", "current_trial": 228, "dateTime": 1513476510493, "trialdata": {"rt": -1, "stimulus": "<p id=\"stim\">TWISTER</p>", "key_press": -1, "type": "PRES_VIS", "word": "twister", "wordID": 1529, "conditions": [12, 800, "v", 24000], "trial": 6, "serialpos": 3, "trial_type": "single-stim", "trial_index": 228, "time_elapsed": 1139525, "internal_node_id": "0.0-165.0"}}, {"uniqueid": "MTK1256:3MAOD8E57RHFYQJUDGQ9GL3TK5TXNS", "current_trial": 229, "dateTime": 1513476512230, "trialdata": {"rt": -1, "stimulus": "<p id=\"stim\">CELLAR</p>", "key_press": -1, "type": "PRES_VIS", "word": "cellar", "wordID": 266, "conditions": [12, 800, "v", 24000], "trial": 6, "serialpos": 4, "trial_type": "single-stim", "trial_index": 229, "time_elapsed": 1141262, "internal_node_id": "0.0-166.0"}}, {"uniqueid": "MTK1256:3MAOD8E57RHFYQJUDGQ9GL3TK5TXNS", "current_trial": 230, "dateTime": 1513476514151, "trialdata": {"rt": -1, "stimulus": "<p id=\"stim\">YACHT</p>", "key_press": -1, "type": "PRES_VIS", "word": "yacht", "wordID": 1628, "conditions": [12, 800, "v", 24000], "trial": 6, "serialpos": 5, "trial_type": "single-stim", "trial_index": 230, "time_elapsed": 1143183, "internal_node_id": "0.0-167.0"}}, {"uniqueid": "MTK1256:3MAOD8E57RHFYQJUDGQ9GL3TK5TXNS", "current_trial": 231, "dateTime": 1513476515868, "trialdata": {"rt": -1, "stimulus": "<p id=\"stim\">HATCHET</p>", "key_press": -1, "type": "PRES_VIS", "word": "hatchet", "wordID": 690, "conditions": [12, 800, "v", 24000], "trial": 6, "serialpos": 6, "trial_type": "single-stim", "trial_index": 231, "time_elapsed": 1144900, "internal_node_id": "0.0-168.0"}}, {"uniqueid": "MTK1256:3MAOD8E57RHFYQJUDGQ9GL3TK5TXNS", "current_trial": 232, "dateTime": 1513476517509, "trialdata": {"rt": -1, "stimulus": "<p id=\"stim\">TURNIP</p>", "key_press": -1, "type": "PRES_VIS", "word": "turnip", "wordID": 1520, "conditions": [12, 800, "v", 24000], "trial": 6, "serialpos": 7, "trial_type": "single-stim", "trial_index": 232, "time_elapsed": 1146541, "internal_node_id": "0.0-169.0"}}, {"uniqueid": "MTK1256:3MAOD8E57RHFYQJUDGQ9GL3TK5TXNS", "current_trial": 233, "dateTime": 1513476519246, "trialdata": {"rt": -1, "stimulus": "<p id=\"stim\">ROBBER</p>", "key_press": -1, "type": "PRES_VIS", "word": "robber", "wordID": 1196, "conditions": [12, 800, "v", 24000], "trial": 6, "serialpos": 8, "trial_type": "single-stim", "trial_index": 233, "time_elapsed": 1148278, "internal_node_id": "0.0-170.0"}}, {"uniqueid": "MTK1256:3MAOD8E57RHFYQJUDGQ9GL3TK5TXNS", "current_trial": 234, "dateTime": 1513476521140, "trialdata": {"rt": -1, "stimulus": "<p id=\"stim\">SUSPECT</p>", "key_press": -1, "type": "PRES_VIS", "word": "suspect", "wordID": 1414, "conditions": [12, 800, "v", 24000], "trial": 6, "serialpos": 9, "trial_type": "single-stim", "trial_index": 234, "time_elapsed": 1150171, "internal_node_id": "0.0-171.0"}}, {"uniqueid": "MTK1256:3MAOD8E57RHFYQJUDGQ9GL3TK5TXNS", "current_trial": 235, "dateTime": 1513476522913, "trialdata": {"rt": -1, "stimulus": "<p id=\"stim\">SHERIFF</p>", "key_press": -1, "type": "PRES_VIS", "word": "sheriff", "wordID": 1283, "conditions": [12, 800, "v", 24000], "trial": 6, "serialpos": 10, "trial_type": "single-stim", "trial_index": 235, "time_elapsed": 1151945, "internal_node_id": "0.0-172.0"}}, {"uniqueid": "MTK1256:3MAOD8E57RHFYQJUDGQ9GL3TK5TXNS", "current_trial": 236, "dateTime": 1513476524541, "trialdata": {"rt": -1, "stimulus": "<p id=\"stim\">PLIERS</p>", "key_press": -1, "type": "PRES_VIS", "word": "pliers", "wordID": 1088, "conditions": [12, 800, "v", 24000], "trial": 6, "serialpos": 11, "trial_type": "single-stim", "trial_index": 236, "time_elapsed": 1153573, "internal_node_id": "0.0-173.0"}}, {"uniqueid": "MTK1256:3MAOD8E57RHFYQJUDGQ9GL3TK5TXNS", "current_trial": 237, "dateTime": 1513476526580, "trialdata": {"rt": -1, "stimulus": "", "key_press": -1, "type": "PRE_RECALL_DELAY", "trial_type": "single-stim", "trial_index": 237, "time_elapsed": 1155612, "internal_node_id": "0.0-174.0-0.0"}}, {"uniqueid": "MTK1256:3MAOD8E57RHFYQJUDGQ9GL3TK5TXNS", "current_trial": 238, "dateTime": 1513476527091, "trialdata": {"rt": -1000, "stimulus": "/static/audio/400Hz.wav", "key_press": -1, "type": "PRE_RECALL_ALERT", "trial_type": "single-audio", "trial_index": 238, "time_elapsed": 1156123, "internal_node_id": "0.0-175.0"}}, {"uniqueid": "MTK1256:3MAOD8E57RHFYQJUDGQ9GL3TK5TXNS", "current_trial": 239, "dateTime": 1513476587101, "trialdata": {"rt": [34690, 36711, 43040, 50598, 56471, 59080], "recwords": ["pliers", "suspect", "yact", "sherrif", "cellar", "turnips"], "type": "FREE_RECALL", "conditions": [12, 800, "v", 24000], "trial": 6, "trial_type": "free-recall", "trial_index": 239, "time_elapsed": 1216126, "internal_node_id": "0.0-176.0-0.0"}}, {"uniqueid": "MTK1256:3MAOD8E57RHFYQJUDGQ9GL3TK5TXNS", "current_trial": 240, "dateTime": 1513476591160, "trialdata": {"rt": 2057, "key_press": 13, "type": "INSTRUCTIONS", "trial_type": "text", "trial_index": 240, "time_elapsed": 1220192, "internal_node_id": "0.0-177.0"}}, {"uniqueid": "MTK1256:3MAOD8E57RHFYQJUDGQ9GL3TK5TXNS", "current_trial": 241, "dateTime": 1513476605166, "trialdata": {"rt": [3797, 8990, 10772], "responses": ["10", "22", "14"], "num1": [4, 6, 2, 5], "num2": [4, 7, 6, 9], "num3": [2, 9, 6, 8], "type": "DISTRACTOR", "conditions": [24, 800, "a", 12000], "trial": 7, "trial_type": "math-distractor", "trial_index": 241, "time_elapsed": 1234198, "internal_node_id": "0.0-178.0"}}, {"uniqueid": "MTK1256:3MAOD8E57RHFYQJUDGQ9GL3TK5TXNS", "current_trial": 242, "dateTime": 1513476608170, "trialdata": {"rt": -1, "stimulus": "<p id=\"stim\">10</p>", "key_press": -1, "trial_type": "single-stim", "trial_index": 242, "time_elapsed": 1237202, "internal_node_id": "0.0-179.0-0.0"}}, {"uniqueid": "MTK1256:3MAOD8E57RHFYQJUDGQ9GL3TK5TXNS", "current_trial": 243, "dateTime": 1513476609171, "trialdata": {"rt": -1, "stimulus": "<p id=\"stim\">9</p>", "key_press": -1, "trial_type": "single-stim", "trial_index": 243, "time_elapsed": 1238203, "internal_node_id": "0.0-179.0-1.0"}}, {"uniqueid": "MTK1256:3MAOD8E57RHFYQJUDGQ9GL3TK5TXNS", "current_trial": 244, "dateTime": 1513476610173, "trialdata": {"rt": -1, "stimulus": "<p id=\"stim\">8</p>", "key_press": -1, "trial_type": "single-stim", "trial_index": 244, "time_elapsed": 1239205, "internal_node_id": "0.0-179.0-2.0"}}, {"uniqueid": "MTK1256:3MAOD8E57RHFYQJUDGQ9GL3TK5TXNS", "current_trial": 245, "dateTime": 1513476611175, "trialdata": {"rt": -1, "stimulus": "<p id=\"stim\">7</p>", "key_press": -1, "trial_type": "single-stim", "trial_index": 245, "time_elapsed": 1240206, "internal_node_id": "0.0-179.0-3.0"}}, {"uniqueid": "MTK1256:3MAOD8E57RHFYQJUDGQ9GL3TK5TXNS", "current_trial": 246, "dateTime": 1513476612176, "trialdata": {"rt": -1, "stimulus": "<p id=\"stim\">6</p>", "key_press": -1, "trial_type": "single-stim", "trial_index": 246, "time_elapsed": 1241208, "internal_node_id": "0.0-179.0-4.0"}}, {"uniqueid": "MTK1256:3MAOD8E57RHFYQJUDGQ9GL3TK5TXNS", "current_trial": 247, "dateTime": 1513476613178, "trialdata": {"rt": -1, "stimulus": "<p id=\"stim\">5</p>", "key_press": -1, "trial_type": "single-stim", "trial_index": 247, "time_elapsed": 1242210, "internal_node_id": "0.0-179.0-5.0"}}, {"uniqueid": "MTK1256:3MAOD8E57RHFYQJUDGQ9GL3TK5TXNS", "current_trial": 248, "dateTime": 1513476614180, "trialdata": {"rt": -1, "stimulus": "<p id=\"stim\">4</p>", "key_press": -1, "trial_type": "single-stim", "trial_index": 248, "time_elapsed": 1243211, "internal_node_id": "0.0-179.0-6.0"}}, {"uniqueid": "MTK1256:3MAOD8E57RHFYQJUDGQ9GL3TK5TXNS", "current_trial": 249, "dateTime": 1513476615182, "trialdata": {"rt": -1, "stimulus": "<p id=\"stim\">3</p>", "key_press": -1, "trial_type": "single-stim", "trial_index": 249, "time_elapsed": 1244214, "internal_node_id": "0.0-179.0-7.0"}}, {"uniqueid": "MTK1256:3MAOD8E57RHFYQJUDGQ9GL3TK5TXNS", "current_trial": 250, "dateTime": 1513476616183, "trialdata": {"rt": -1, "stimulus": "<p id=\"stim\">2</p>", "key_press": -1, "trial_type": "single-stim", "trial_index": 250, "time_elapsed": 1245215, "internal_node_id": "0.0-179.0-8.0"}}, {"uniqueid": "MTK1256:3MAOD8E57RHFYQJUDGQ9GL3TK5TXNS", "current_trial": 251, "dateTime": 1513476617186, "trialdata": {"rt": -1, "stimulus": "<p id=\"stim\">1</p>", "key_press": -1, "trial_type": "single-stim", "trial_index": 251, "time_elapsed": 1246217, "internal_node_id": "0.0-179.0-9.0"}}, {"uniqueid": "MTK1256:3MAOD8E57RHFYQJUDGQ9GL3TK5TXNS", "current_trial": 252, "dateTime": 1513476618688, "trialdata": {"rt": -1, "stimulus": "<p id=\"stim\">+</p>", "key_press": -1, "type": "FIXATION", "trial_type": "single-stim", "trial_index": 252, "time_elapsed": 1247719, "internal_node_id": "0.0-180.0-0.0"}}, {"uniqueid": "MTK1256:3MAOD8E57RHFYQJUDGQ9GL3TK5TXNS", "current_trial": 253, "dateTime": 1513476620548, "trialdata": {"rt": -1000, "stimulus": "/static/audio/wordpool/KIDNEY.wav", "key_press": -1, "type": "PRES_AUD", "word": "kidney", "wordID": 775, "conditions": [24, 800, "a", 12000], "trial": 7, "serialpos": 0, "trial_type": "single-audio", "trial_index": 253, "time_elapsed": 1249580, "internal_node_id": "0.0-181.0"}}, {"uniqueid": "MTK1256:3MAOD8E57RHFYQJUDGQ9GL3TK5TXNS", "current_trial": 254, "dateTime": 1513476622259, "trialdata": {"rt": -1000, "stimulus": "/static/audio/wordpool/CRAYON.wav", "key_press": -1, "type": "PRES_AUD", "word": "crayon", "wordID": 400, "conditions": [24, 800, "a", 12000], "trial": 7, "serialpos": 1, "trial_type": "single-audio", "trial_index": 254, "time_elapsed": 1251290, "internal_node_id": "0.0-182.0"}}, {"uniqueid": "MTK1256:3MAOD8E57RHFYQJUDGQ9GL3TK5TXNS", "current_trial": 255, "dateTime": 1513476624026, "trialdata": {"rt": -1000, "stimulus": "/static/audio/wordpool/SCISSORS.wav", "key_press": -1, "type": "PRES_AUD", "word": "scissors", "wordID": 1249, "conditions": [24, 800, "a", 12000], "trial": 7, "serialpos": 2, "trial_type": "single-audio", "trial_index": 255, "time_elapsed": 1253058, "internal_node_id": "0.0-183.0"}}, {"uniqueid": "MTK1256:3MAOD8E57RHFYQJUDGQ9GL3TK5TXNS", "current_trial": 256, "dateTime": 1513476625877, "trialdata": {"rt": -1000, "stimulus": "/static/audio/wordpool/TRANSPLANT.wav", "key_press": -1, "type": "PRES_AUD", "word": "transplant", "wordID": 1495, "conditions": [24, 800, "a", 12000], "trial": 7, "serialpos": 3, "trial_type": "single-audio", "trial_index": 256, "time_elapsed": 1254909, "internal_node_id": "0.0-184.0"}}, {"uniqueid": "MTK1256:3MAOD8E57RHFYQJUDGQ9GL3TK5TXNS", "current_trial": 257, "dateTime": 1513476627672, "trialdata": {"rt": -1000, "stimulus": "/static/audio/wordpool/QUAIL.wav", "key_press": -1, "type": "PRES_AUD", "word": "quail", "wordID": 1146, "conditions": [24, 800, "a", 12000], "trial": 7, "serialpos": 4, "trial_type": "single-audio", "trial_index": 257, "time_elapsed": 1256703, "internal_node_id": "0.0-185.0"}}, {"uniqueid": "MTK1256:3MAOD8E57RHFYQJUDGQ9GL3TK5TXNS", "current_trial": 258, "dateTime": 1513476629327, "trialdata": {"rt": -1000, "stimulus": "/static/audio/wordpool/APRON.wav", "key_press": -1, "type": "PRES_AUD", "word": "apron", "wordID": 34, "conditions": [24, 800, "a", 12000], "trial": 7, "serialpos": 5, "trial_type": "single-audio", "trial_index": 258, "time_elapsed": 1258359, "internal_node_id": "0.0-186.0"}}, {"uniqueid": "MTK1256:3MAOD8E57RHFYQJUDGQ9GL3TK5TXNS", "current_trial": 259, "dateTime": 1513476631108, "trialdata": {"rt": -1000, "stimulus": "/static/audio/wordpool/CHILD.wav", "key_press": -1, "type": "PRES_AUD", "word": "child", "wordID": 298, "conditions": [24, 800, "a", 12000], "trial": 7, "serialpos": 6, "trial_type": "single-audio", "trial_index": 259, "time_elapsed": 1260140, "internal_node_id": "0.0-187.0"}}, {"uniqueid": "MTK1256:3MAOD8E57RHFYQJUDGQ9GL3TK5TXNS", "current_trial": 260, "dateTime": 1513476632803, "trialdata": {"rt": -1000, "stimulus": "/static/audio/wordpool/GIRL.wav", "key_press": -1, "type": "PRES_AUD", "word": "girl", "wordID": 636, "conditions": [24, 800, "a", 12000], "trial": 7, "serialpos": 7, "trial_type": "single-audio", "trial_index": 260, "time_elapsed": 1261834, "internal_node_id": "0.0-188.0"}}, {"uniqueid": "MTK1256:3MAOD8E57RHFYQJUDGQ9GL3TK5TXNS", "current_trial": 261, "dateTime": 1513476634417, "trialdata": {"rt": -1000, "stimulus": "/static/audio/wordpool/DANDRUFF.wav", "key_press": -1, "type": "PRES_AUD", "word": "dandruff", "wordID": 438, "conditions": [24, 800, "a", 12000], "trial": 7, "serialpos": 8, "trial_type": "single-audio", "trial_index": 261, "time_elapsed": 1263449, "internal_node_id": "0.0-189.0"}}, {"uniqueid": "MTK1256:3MAOD8E57RHFYQJUDGQ9GL3TK5TXNS", "current_trial": 262, "dateTime": 1513476636260, "trialdata": {"rt": -1000, "stimulus": "/static/audio/wordpool/DINER.wav", "key_press": -1, "type": "PRES_AUD", "word": "diner", "wordID": 466, "conditions": [24, 800, "a", 12000], "trial": 7, "serialpos": 9, "trial_type": "single-audio", "trial_index": 262, "time_elapsed": 1265291, "internal_node_id": "0.0-190.0"}}, {"uniqueid": "MTK1256:3MAOD8E57RHFYQJUDGQ9GL3TK5TXNS", "current_trial": 263, "dateTime": 1513476638229, "trialdata": {"rt": -1000, "stimulus": "/static/audio/wordpool/AGENT.wav", "key_press": -1, "type": "PRES_AUD", "word": "agent", "wordID": 9, "conditions": [24, 800, "a", 12000], "trial": 7, "serialpos": 10, "trial_type": "single-audio", "trial_index": 263, "time_elapsed": 1267260, "internal_node_id": "0.0-191.0"}}, {"uniqueid": "MTK1256:3MAOD8E57RHFYQJUDGQ9GL3TK5TXNS", "current_trial": 264, "dateTime": 1513476640020, "trialdata": {"rt": -1000, "stimulus": "/static/audio/wordpool/RAFT.wav", "key_press": -1, "type": "PRES_AUD", "word": "raft", "wordID": 1158, "conditions": [24, 800, "a", 12000], "trial": 7, "serialpos": 11, "trial_type": "single-audio", "trial_index": 264, "time_elapsed": 1269052, "internal_node_id": "0.0-192.0"}}, {"uniqueid": "MTK1256:3MAOD8E57RHFYQJUDGQ9GL3TK5TXNS", "current_trial": 265, "dateTime": 1513476641910, "trialdata": {"rt": -1000, "stimulus": "/static/audio/wordpool/PECAN.wav", "key_press": -1, "type": "PRES_AUD", "word": "pecan", "wordID": 1035, "conditions": [24, 800, "a", 12000], "trial": 7, "serialpos": 12, "trial_type": "single-audio", "trial_index": 265, "time_elapsed": 1270942, "internal_node_id": "0.0-193.0"}}, {"uniqueid": "MTK1256:3MAOD8E57RHFYQJUDGQ9GL3TK5TXNS", "current_trial": 266, "dateTime": 1513476643897, "trialdata": {"rt": -1000, "stimulus": "/static/audio/wordpool/PEANUT.wav", "key_press": -1, "type": "PRES_AUD", "word": "peanut", "wordID": 1031, "conditions": [24, 800, "a", 12000], "trial": 7, "serialpos": 13, "trial_type": "single-audio", "trial_index": 266, "time_elapsed": 1272929, "internal_node_id": "0.0-194.0"}}, {"uniqueid": "MTK1256:3MAOD8E57RHFYQJUDGQ9GL3TK5TXNS", "current_trial": 267, "dateTime": 1513476645821, "trialdata": {"rt": -1000, "stimulus": "/static/audio/wordpool/BALLOON.wav", "key_press": -1, "type": "PRES_AUD", "word": "balloon", "wordID": 74, "conditions": [24, 800, "a", 12000], "trial": 7, "serialpos": 14, "trial_type": "single-audio", "trial_index": 267, "time_elapsed": 1274853, "internal_node_id": "0.0-195.0"}}, {"uniqueid": "MTK1256:3MAOD8E57RHFYQJUDGQ9GL3TK5TXNS", "current_trial": 268, "dateTime": 1513476647454, "trialdata": {"rt": -1000, "stimulus": "/static/audio/wordpool/CABBAGE.wav", "key_press": -1, "type": "PRES_AUD", "word": "cabbage", "wordID": 209, "conditions": [24, 800, "a", 12000], "trial": 7, "serialpos": 15, "trial_type": "single-audio", "trial_index": 268, "time_elapsed": 1276486, "internal_node_id": "0.0-196.0"}}, {"uniqueid": "MTK1256:3MAOD8E57RHFYQJUDGQ9GL3TK5TXNS", "current_trial": 269, "dateTime": 1513476649317, "trialdata": {"rt": -1000, "stimulus": "/static/audio/wordpool/TRUCK.wav", "key_press": -1, "type": "PRES_AUD", "word": "truck", "wordID": 1511, "conditions": [24, 800, "a", 12000], "trial": 7, "serialpos": 16, "trial_type": "single-audio", "trial_index": 269, "time_elapsed": 1278348, "internal_node_id": "0.0-197.0"}}, {"uniqueid": "MTK1256:3MAOD8E57RHFYQJUDGQ9GL3TK5TXNS", "current_trial": 270, "dateTime": 1513476651163, "trialdata": {"rt": -1000, "stimulus": "/static/audio/wordpool/MASK.wav", "key_press": -1, "type": "PRES_AUD", "word": "mask", "wordID": 875, "conditions": [24, 800, "a", 12000], "trial": 7, "serialpos": 17, "trial_type": "single-audio", "trial_index": 270, "time_elapsed": 1280195, "internal_node_id": "0.0-198.0"}}, {"uniqueid": "MTK1256:3MAOD8E57RHFYQJUDGQ9GL3TK5TXNS", "current_trial": 271, "dateTime": 1513476653124, "trialdata": {"rt": -1000, "stimulus": "/static/audio/wordpool/BRANCH.wav", "key_press": -1, "type": "PRES_AUD", "word": "branch", "wordID": 167, "conditions": [24, 800, "a", 12000], "trial": 7, "serialpos": 18, "trial_type": "single-audio", "trial_index": 271, "time_elapsed": 1282156, "internal_node_id": "0.0-199.0"}}, {"uniqueid": "MTK1256:3MAOD8E57RHFYQJUDGQ9GL3TK5TXNS", "current_trial": 272, "dateTime": 1513476654975, "trialdata": {"rt": -1000, "stimulus": "/static/audio/wordpool/CABIN.wav", "key_press": -1, "type": "PRES_AUD", "word": "cabin", "wordID": 210, "conditions": [24, 800, "a", 12000], "trial": 7, "serialpos": 19, "trial_type": "single-audio", "trial_index": 272, "time_elapsed": 1284007, "inter