{"assignmentId": "3HMVI3QICKZ1KO2FDPED2SXZNZYY1P", "workerId": "MTK1898", "questiondata": {"origin": "United States", "strat-rehearsal": "80", "marital": "Divorced", "education": "Associate degree", "ethnicity": "Not Hispanic", "color_depth": 24, "distracted": "No", "wrote-notes": "No", "strat-other": "", "screen_width": 1366, "avail_screen_width": 1366, "avail_screen_height": 745, "strat-image": "27", "language": "English", "gender": "Female", "age": "59", "gender_other": "", "race": ["White"], "strat-categorize": "49", "pixel_depth": 24, "strat-spatial": "0", "strat-story": "0", "race_other": "", "screen_height": 768}, "bonus": 0, "hitId": "3GS542CVJVUJKLXWGYJ7HHL58ZK95O", "counterbalance": 2879, "useragent": "Mozilla/5.0 (Macintosh; Intel Mac OS X 10_11_6) AppleWebKit/537.36 (KHTML, like Gecko) Chrome/63.0.3239.132 Safari/537.36", "eventdata": [{"eventtype": "initialized", "interval": 0, "value": null, "timestamp": 1516555899871}, {"eventtype": "window_resize", "interval": 0, "value": [1366, 643], "timestamp": 1516555899871}, {"eventtype": "focus", "interval": 903803, "value": "off", "timestamp": 1516556803674}, {"eventtype": "focus", "interval": 6766, "value": "on", "timestamp": 1516556810440}], "data": [{"current_trial": 0, "trialdata": {"rt": 8569, "trial_type": "text", "internal_node_id": "0.0-0.0", "time_elapsed": 8572, "key_press": 78, "type": "INSTRUCTIONS", "trial_index": 0}, "uniqueid": "MTK1898:3HMVI3QICKZ1KO2FDPED2SXZNZYY1P", "dateTime": 1516555926616}, {"current_trial": 1, "trialdata": {"rt": 29800, "trial_type": "text", "internal_node_id": "0.0-1.0", "time_elapsed": 38374, "key_press": 32, "type": "INSTRUCTIONS", "trial_index": 1}, "uniqueid": "MTK1898:3HMVI3QICKZ1KO2FDPED2SXZNZYY1P", "dateTime": 1516555956417}, {"current_trial": 2, "trialdata": {"rt": [20999], "trial_type": "audio-test", "responses": ["ocean"], "internal_node_id": "0.0-2.0", "time_elapsed": 59386, "type": "AUDIO_TEST", "trial_index": 2}, "uniqueid": "MTK1898:3HMVI3QICKZ1KO2FDPED2SXZNZYY1P", "dateTime": 1516555977429}, {"current_trial": 3, "trialdata": {"rt": [10747], "trial_type": "audio-test", "responses": ["crystal"], "internal_node_id": "0.0-3.0", "time_elapsed": 70140, "type": "AUDIO_TEST", "trial_index": 3}, "uniqueid": "MTK1898:3HMVI3QICKZ1KO2FDPED2SXZNZYY1P", "dateTime": 1516555988183}, {"current_trial": 4, "trialdata": {"rt": [8615], "trial_type": "audio-test", "responses": ["spice"], "internal_node_id": "0.0-4.0", "time_elapsed": 78760, "type": "AUDIO_TEST", "trial_index": 4}, "uniqueid": "MTK1898:3HMVI3QICKZ1KO2FDPED2SXZNZYY1P", "dateTime": 1516555996803}, {"current_trial": 5, "trialdata": {"rt": 63475, "trial_type": "survey-text", "responses": "{\"Q0\":\"10\\n\\n10:00\",\"Q1\":\"7:00\",\"Q2\":\"8\"}", "internal_node_id": "0.0-5.0", "time_elapsed": 142990, "type": "SLEEP_SURVEY", "trial_index": 5}, "uniqueid": "MTK1898:3HMVI3QICKZ1KO2FDPED2SXZNZYY1P", "dateTime": 1516556061033}, {"current_trial": 6, "trialdata": {"rt": 52112, "trial_type": "text", "internal_node_id": "0.0-6.0", "time_elapsed": 196108, "key_press": 32, "type": "INSTRUCTIONS", "trial_index": 6}, "uniqueid": "MTK1898:3HMVI3QICKZ1KO2FDPED2SXZNZYY1P", "dateTime": 1516556114151}, {"current_trial": 7, "trialdata": {"rt": 21510, "trial_type": "text", "internal_node_id": "0.0-7.0", "time_elapsed": 218120, "key_press": 32, "type": "INSTRUCTIONS", "trial_index": 7}, "uniqueid": "MTK1898:3HMVI3QICKZ1KO2FDPED2SXZNZYY1P", "dateTime": 1516556136163}, {"current_trial": 8, "trialdata": {"rt": 12850, "trial_type": "text", "internal_node_id": "0.0-8.0", "time_elapsed": 231473, "key_press": 32, "type": "INSTRUCTIONS", "trial_index": 8}, "uniqueid": "MTK1898:3HMVI3QICKZ1KO2FDPED2SXZNZYY1P", "dateTime": 1516556149516}, {"current_trial": 9, "trialdata": {"rt": [2848, 6388, 12408, 15240], "trial_type": "math-distractor", "key_times": [2086, 2848, 5577, 5716, 6388, 9806, 10625, 12408, 14156, 14692, 15240, 17754], "responses": ["7", "14", "18", "13"], "num2": [1, 1, 9, 7, 2], "num3": [2, 4, 4, 3, 7], "conditions": [18, 1200, "a", 18000], "internal_node_id": "0.0-9.0", "key_presses": [55, 13, 49, 52, 13, 49, 56, 13, 49, 51, 13, 49], "trial": 0, "time_elapsed": 250488, "type": "DISTRACTOR", "trial_index": 9, "num1": [4, 9, 5, 3, 6]}, "uniqueid": "MTK1898:3HMVI3QICKZ1KO2FDPED2SXZNZYY1P", "dateTime": 1516556168531}, {"current_trial": 10, "trialdata": {"rt": -1, "trial_type": "single-stim", "stimulus": "<p id=\"stim\">10</p>", "internal_node_id": "0.0-10.0-0.0", "time_elapsed": 253494, "key_press": -1, "trial_index": 10}, "uniqueid": "MTK1898:3HMVI3QICKZ1KO2FDPED2SXZNZYY1P", "dateTime": 1516556171537}, {"current_trial": 11, "trialdata": {"rt": -1, "trial_type": "single-stim", "stimulus": "<p id=\"stim\">9</p>", "internal_node_id": "0.0-10.0-1.0", "time_elapsed": 254498, "key_press": -1, "trial_index": 11}, "uniqueid": "MTK1898:3HMVI3QICKZ1KO2FDPED2SXZNZYY1P", "dateTime": 1516556172541}, {"current_trial": 12, "trialdata": {"rt": -1, "trial_type": "single-stim", "stimulus": "<p id=\"stim\">8</p>", "internal_node_id": "0.0-10.0-2.0", "time_elapsed": 255502, "key_press": -1, "trial_index": 12}, "uniqueid": "MTK1898:3HMVI3QICKZ1KO2FDPED2SXZNZYY1P", "dateTime": 1516556173545}, {"current_trial": 13, "trialdata": {"rt": -1, "trial_type": "single-stim", "stimulus": "<p id=\"stim\">7</p>", "internal_node_id": "0.0-10.0-3.0", "time_elapsed": 256507, "key_press": -1, "trial_index": 13}, "uniqueid": "MTK1898:3HMVI3QICKZ1KO2FDPED2SXZNZYY1P", "dateTime": 1516556174550}, {"current_trial": 14, "trialdata": {"rt": -1, "trial_type": "single-stim", "stimulus": "<p id=\"stim\">6</p>", "internal_node_id": "0.0-10.0-4.0", "time_elapsed": 257513, "key_press": -1, "trial_index": 14}, "uniqueid": "MTK1898:3HMVI3QICKZ1KO2FDPED2SXZNZYY1P", "dateTime": 1516556175556}, {"current_trial": 15, "trialdata": {"rt": -1, "trial_type": "single-stim", "stimulus": "<p id=\"stim\">5</p>", "internal_node_id": "0.0-10.0-5.0", "time_elapsed": 258519, "key_press": -1, "trial_index": 15}, "uniqueid": "MTK1898:3HMVI3QICKZ1KO2FDPED2SXZNZYY1P", "dateTime": 1516556176562}, {"current_trial": 16, "trialdata": {"rt": -1, "trial_type": "single-stim", "stimulus": "<p id=\"stim\">4</p>", "internal_node_id": "0.0-10.0-6.0", "time_elapsed": 259524, "key_press": -1, "trial_index": 16}, "uniqueid": "MTK1898:3HMVI3QICKZ1KO2FDPED2SXZNZYY1P", "dateTime": 1516556177567}, {"current_trial": 17, "trialdata": {"rt": -1, "trial_type": "single-stim", "stimulus": "<p id=\"stim\">3</p>", "internal_node_id": "0.0-10.0-7.0", "time_elapsed": 260529, "key_press": -1, "trial_index": 17}, "uniqueid": "MTK1898:3HMVI3QICKZ1KO2FDPED2SXZNZYY1P", "dateTime": 1516556178572}, {"current_trial": 18, "trialdata": {"rt": -1, "trial_type": "single-stim", "stimulus": "<p id=\"stim\">2</p>", "internal_node_id": "0.0-10.0-8.0", "time_elapsed": 261532, "key_press": -1, "trial_index": 18}, "uniqueid": "MTK1898:3HMVI3QICKZ1KO2FDPED2SXZNZYY1P", "dateTime": 1516556179575}, {"current_trial": 19, "trialdata": {"rt": -1, "trial_type": "single-stim", "stimulus": "<p id=\"stim\">1</p>", "internal_node_id": "0.0-10.0-9.0", "time_elapsed": 262536, "key_press": -1, "trial_index": 19}, "uniqueid": "MTK1898:3HMVI3QICKZ1KO2FDPED2SXZNZYY1P", "dateTime": 1516556180579}, {"current_trial": 20, "trialdata": {"rt": -1, "trial_type": "single-stim", "stimulus": "<p id=\"stim\">+</p>", "internal_node_id": "0.0-11.0-0.0", "time_elapsed": 264040, "key_press": -1, "type": "FIXATION", "trial_index": 20}, "uniqueid": "MTK1898:3HMVI3QICKZ1KO2FDPED2SXZNZYY1P", "dateTime": 1516556182083}, {"current_trial": 21, "trialdata": {"rt": -1000, "trial_type": "single-audio", "word": "brandy", "stimulus": "/static/audio/wordpool/BRANDY.wav", "conditions": [18, 1200, "a", 18000], "internal_node_id": "0.0-12.0", "trial": 0, "time_elapsed": 266284, "serialpos": 0, "key_press": -1, "wordID": 168, "type": "PRES_AUD", "trial_index": 21}, "uniqueid": "MTK1898:3HMVI3QICKZ1KO2FDPED2SXZNZYY1P", "dateTime": 1516556184327}, {"current_trial": 22, "trialdata": {"rt": -1000, "trial_type": "single-audio", "word": "tombstone", "stimulus": "/static/audio/wordpool/TOMBSTONE.wav", "conditions": [18, 1200, "a", 18000], "internal_node_id": "0.0-13.0", "trial": 0, "time_elapsed": 268292, "serialpos": 1, "key_press": -1, "wordID": 1477, "type": "PRES_AUD", "trial_index": 22}, "uniqueid": "MTK1898:3HMVI3QICKZ1KO2FDPED2SXZNZYY1P", "dateTime": 1516556186336}, {"current_trial": 23, "trialdata": {"rt": -1000, "trial_type": "single-audio", "word": "egypt", "stimulus": "/static/audio/wordpool/EGYPT.wav", "conditions": [18, 1200, "a", 18000], "internal_node_id": "0.0-14.0", "trial": 0, "time_elapsed": 270336, "serialpos": 2, "key_press": -1, "wordID": 518, "type": "PRES_AUD", "trial_index": 23}, "uniqueid": "MTK1898:3HMVI3QICKZ1KO2FDPED2SXZNZYY1P", "dateTime": 1516556188379}, {"current_trial": 24, "trialdata": {"rt": -1000, "trial_type": "single-audio", "word": "coin", "stimulus": "/static/audio/wordpool/COIN.wav", "conditions": [18, 1200, "a", 18000], "internal_node_id": "0.0-15.0", "trial": 0, "time_elapsed": 272704, "serialpos": 3, "key_press": -1, "wordID": 342, "type": "PRES_AUD", "trial_index": 24}, "uniqueid": "MTK1898:3HMVI3QICKZ1KO2FDPED2SXZNZYY1P", "dateTime": 1516556190747}, {"current_trial": 25, "trialdata": {"rt": -1000, "trial_type": "single-audio", "word": "lizard", "stimulus": "/static/audio/wordpool/LIZARD.wav", "conditions": [18, 1200, "a", 18000], "internal_node_id": "0.0-16.0", "trial": 0, "time_elapsed": 275015, "serialpos": 4, "key_press": -1, "wordID": 833, "type": "PRES_AUD", "trial_index": 25}, "uniqueid": "MTK1898:3HMVI3QICKZ1KO2FDPED2SXZNZYY1P", "dateTime": 1516556193058}, {"current_trial": 26, "trialdata": {"rt": -1000, "trial_type": "single-audio", "word": "sibling", "stimulus": "/static/audio/wordpool/SIBLING.wav", "conditions": [18, 1200, "a", 18000], "internal_node_id": "0.0-17.0", "trial": 0, "time_elapsed": 277047, "serialpos": 5, "key_press": -1, "wordID": 1300, "type": "PRES_AUD", "trial_index": 26}, "uniqueid": "MTK1898:3HMVI3QICKZ1KO2FDPED2SXZNZYY1P", "dateTime": 1516556195090}, {"current_trial": 27, "trialdata": {"rt": -1000, "trial_type": "single-audio", "word": "typist", "stimulus": "/static/audio/wordpool/TYPIST.wav", "conditions": [18, 1200, "a", 18000], "internal_node_id": "0.0-18.0", "trial": 0, "time_elapsed": 279054, "serialpos": 6, "key_press": -1, "wordID": 1531, "type": "PRES_AUD", "trial_index": 27}, "uniqueid": "MTK1898:3HMVI3QICKZ1KO2FDPED2SXZNZYY1P", "dateTime": 1516556197097}, {"current_trial": 28, "trialdata": {"rt": -1000, "trial_type": "single-audio", "word": "queen", "stimulus": "/static/audio/wordpool/QUEEN.wav", "conditions": [18, 1200, "a", 18000], "internal_node_id": "0.0-19.0", "trial": 0, "time_elapsed": 281353, "serialpos": 7, "key_press": -1, "wordID": 1148, "type": "PRES_AUD", "trial_index": 28}, "uniqueid": "MTK1898:3HMVI3QICKZ1KO2FDPED2SXZNZYY1P", "dateTime": 1516556199397}, {"current_trial": 29, "trialdata": {"rt": -1000, "trial_type": "single-audio", "word": "cabbage", "stimulus": "/static/audio/wordpool/CABBAGE.wav", "conditions": [18, 1200, "a", 18000], "internal_node_id": "0.0-20.0", "trial": 0, "time_elapsed": 283663, "serialpos": 8, "key_press": -1, "wordID": 209, "type": "PRES_AUD", "trial_index": 29}, "uniqueid": "MTK1898:3HMVI3QICKZ1KO2FDPED2SXZNZYY1P", "dateTime": 1516556201707}, {"current_trial": 30, "trialdata": {"rt": -1000, "trial_type": "single-audio", "word": "diner", "stimulus": "/static/audio/wordpool/DINER.wav", "conditions": [18, 1200, "a", 18000], "internal_node_id": "0.0-21.0", "trial": 0, "time_elapsed": 285835, "serialpos": 9, "key_press": -1, "wordID": 466, "type": "PRES_AUD", "trial_index": 30}, "uniqueid": "MTK1898:3HMVI3QICKZ1KO2FDPED2SXZNZYY1P", "dateTime": 1516556203878}, {"current_trial": 31, "trialdata": {"rt": -1000, "trial_type": "single-audio", "word": "taxi", "stimulus": "/static/audio/wordpool/TAXI.wav", "conditions": [18, 1200, "a", 18000], "internal_node_id": "0.0-22.0", "trial": 0, "time_elapsed": 287965, "serialpos": 10, "key_press": -1, "wordID": 1437, "type": "PRES_AUD", "trial_index": 31}, "uniqueid": "MTK1898:3HMVI3QICKZ1KO2FDPED2SXZNZYY1P", "dateTime": 1516556206008}, {"current_trial": 32, "trialdata": {"rt": -1000, "trial_type": "single-audio", "word": "stone", "stimulus": "/static/audio/wordpool/STONE.wav", "conditions": [18, 1200, "a", 18000], "internal_node_id": "0.0-23.0", "trial": 0, "time_elapsed": 290274, "serialpos": 11, "key_press": -1, "wordID": 1384, "type": "PRES_AUD", "trial_index": 32}, "uniqueid": "MTK1898:3HMVI3QICKZ1KO2FDPED2SXZNZYY1P", "dateTime": 1516556208317}, {"current_trial": 33, "trialdata": {"rt": -1000, "trial_type": "single-audio", "word": "wife", "stimulus": "/static/audio/wordpool/WIFE.wav", "conditions": [18, 1200, "a", 18000], "internal_node_id": "0.0-24.0", "trial": 0, "time_elapsed": 292284, "serialpos": 12, "key_press": -1, "wordID": 1608, "type": "PRES_AUD", "trial_index": 33}, "uniqueid": "MTK1898:3HMVI3QICKZ1KO2FDPED2SXZNZYY1P", "dateTime": 1516556210327}, {"current_trial": 34, "trialdata": {"rt": -1000, "trial_type": "single-audio", "word": "piano", "stimulus": "/static/audio/wordpool/PIANO.wav", "conditions": [18, 1200, "a", 18000], "internal_node_id": "0.0-25.0", "trial": 0, "time_elapsed": 294687, "serialpos": 13, "key_press": -1, "wordID": 1056, "type": "PRES_AUD", "trial_index": 34}, "uniqueid": "MTK1898:3HMVI3QICKZ1KO2FDPED2SXZNZYY1P", "dateTime": 1516556212730}, {"current_trial": 35, "trialdata": {"rt": -1000, "trial_type": "single-audio", "word": "seafood", "stimulus": "/static/audio/wordpool/SEAFOOD.wav", "conditions": [18, 1200, "a", 18000], "internal_node_id": "0.0-26.0", "trial": 0, "time_elapsed": 296969, "serialpos": 14, "key_press": -1, "wordID": 1259, "type": "PRES_AUD", "trial_index": 35}, "uniqueid": "MTK1898:3HMVI3QICKZ1KO2FDPED2SXZNZYY1P", "dateTime": 1516556215012}, {"current_trial": 36, "trialdata": {"rt": -1000, "trial_type": "single-audio", "word": "bubble", "stimulus": "/static/audio/wordpool/BUBBLE.wav", "conditions": [18, 1200, "a", 18000], "internal_node_id": "0.0-27.0", "trial": 0, "time_elapsed": 299140, "serialpos": 15, "key_press": -1, "wordID": 182, "type": "PRES_AUD", "trial_index": 36}, "uniqueid": "MTK1898:3HMVI3QICKZ1KO2FDPED2SXZNZYY1P", "dateTime": 1516556217183}, {"current_trial": 37, "trialdata": {"rt": -1000, "trial_type": "single-audio", "word": "daisy", "stimulus": "/static/audio/wordpool/DAISY.wav", "conditions": [18, 1200, "a", 18000], "internal_node_id": "0.0-28.0", "trial": 0, "time_elapsed": 301427, "serialpos": 16, "key_press": -1, "wordID": 434, "type": "PRES_AUD", "trial_index": 37}, "uniqueid": "MTK1898:3HMVI3QICKZ1KO2FDPED2SXZNZYY1P", "dateTime": 1516556219470}, {"current_trial": 38, "trialdata": {"rt": -1000, "trial_type": "single-audio", "word": "fleet", "stimulus": "/static/audio/wordpool/FLEET.wav", "conditions": [18, 1200, "a", 18000], "internal_node_id": "0.0-29.0", "trial": 0, "time_elapsed": 303668, "serialpos": 17, "key_press": -1, "wordID": 577, "type": "PRES_AUD", "trial_index": 38}, "uniqueid": "MTK1898:3HMVI3QICKZ1KO2FDPED2SXZNZYY1P", "dateTime": 1516556221711}, {"current_trial": 39, "trialdata": {"rt": -1, "trial_type": "single-stim", "stimulus": "", "internal_node_id": "0.0-30.0-0.0", "time_elapsed": 305067, "key_press": -1, "type": "PRE_RECALL_DELAY", "trial_index": 39}, "uniqueid": "MTK1898:3HMVI3QICKZ1KO2FDPED2SXZNZYY1P", "dateTime": 1516556223110}, {"current_trial": 40, "trialdata": {"rt": -1000, "trial_type": "single-audio", "stimulus": "/static/audio/400Hz.wav", "internal_node_id": "0.0-31.0", "time_elapsed": 305569, "key_press": -1, "type": "PRE_RECALL_ALERT", "trial_index": 40}, "uniqueid": "MTK1898:3HMVI3QICKZ1KO2FDPED2SXZNZYY1P", "dateTime": 1516556223612}, {"current_trial": 41, "trialdata": {"rt": [4708, 6462, 7791, 11822, 18225, 18944, 20240, 28263], "recwords": ["tomestone", "bubble", "coin", "egypt", "pian0", "", "fleet", "cabbage"], "key_times": [1617, 2036, 2467, 3361, 3650, 3909, 4041, 4240, 4406, 4708, 5419, 5579, 5862, 6011, 6129, 6310, 6462, 6943, 7091, 7271, 7530, 7791, 8343, 8987, 10107, 10355, 10552, 11207, 11613, 11822, 14795, 15055, 15270, 15535, 17837, 18225, 18944, 19285, 19443, 19689, 19828, 20066, 20240, 25914, 26175, 26615, 26868, 27105, 27472, 27931, 28263], "trial_type": "free-recall", "conditions": [18, 1200, "a", 18000], "internal_node_id": "0.0-32.0-0.0", "key_presses": [84, 79, 77, 69, 83, 84, 79, 78, 69, 13, 66, 85, 66, 66, 76, 69, 13, 67, 79, 73, 78, 13, 69, 89, 8, 71, 89, 80, 84, 13, 80, 73, 65, 78, 48, 13, 32, 70, 76, 69, 69, 84, 13, 67, 65, 66, 66, 65, 71, 69, 13], "trial": 0, "time_elapsed": 365575, "type": "FREE_RECALL", "trial_index": 41}, "uniqueid": "MTK1898:3HMVI3QICKZ1KO2FDPED2SXZNZYY1P", "dateTime": 1516556283620}, {"current_trial": 42, "trialdata": {"rt": 2805, "trial_type": "text", "internal_node_id": "0.0-33.0", "time_elapsed": 370388, "key_press": 32, "type": "INSTRUCTIONS", "trial_index": 42}, "uniqueid": "MTK1898:3HMVI3QICKZ1KO2FDPED2SXZNZYY1P", "dateTime": 1516556288431}, {"current_trial": 43, "trialdata": {"rt": [4321, 7253, 10813, 15123], "trial_type": "math-distractor", "key_times": [3286, 3762, 4321, 6834, 7117, 7253, 9697, 10563, 10813, 13991, 14856, 15123, 17799], "responses": ["14", "12", "17", "19"], "num2": [3, 4, 4, 8, 7], "num3": [6, 5, 6, 5, 2], "conditions": [18, 1200, "a", 18000], "internal_node_id": "0.0-34.0", "key_presses": [49, 52, 13, 49, 50, 13, 49, 55, 13, 49, 57, 13, 49], "trial": 1, "time_elapsed": 390398, "type": "DISTRACTOR", "trial_index": 43, "num1": [5, 3, 7, 6, 9]}, "uniqueid": "MTK1898:3HMVI3QICKZ1KO2FDPED2SXZNZYY1P", "dateTime": 1516556308441}, {"current_trial": 44, "trialdata": {"rt": -1, "trial_type": "single-stim", "stimulus": "<p id=\"stim\">10</p>", "internal_node_id": "0.0-35.0-0.0", "time_elapsed": 393404, "key_press": -1, "trial_index": 44}, "uniqueid": "MTK1898:3HMVI3QICKZ1KO2FDPED2SXZNZYY1P", "dateTime": 1516556311448}, {"current_trial": 45, "trialdata": {"rt": -1, "trial_type": "single-stim", "stimulus": "<p id=\"stim\">9</p>", "internal_node_id": "0.0-35.0-1.0", "time_elapsed": 394408, "key_press": -1, "trial_index": 45}, "uniqueid": "MTK1898:3HMVI3QICKZ1KO2FDPED2SXZNZYY1P", "dateTime": 1516556312452}, {"current_trial": 46, "trialdata": {"rt": -1, "trial_type": "single-stim", "stimulus": "<p id=\"stim\">8</p>", "internal_node_id": "0.0-35.0-2.0", "time_elapsed": 395413, "key_press": -1, "trial_index": 46}, "uniqueid": "MTK1898:3HMVI3QICKZ1KO2FDPED2SXZNZYY1P", "dateTime": 1516556313456}, {"current_trial": 47, "trialdata": {"rt": -1, "trial_type": "single-stim", "stimulus": "<p id=\"stim\">7</p>", "internal_node_id": "0.0-35.0-3.0", "time_elapsed": 396417, "key_press": -1, "trial_index": 47}, "uniqueid": "MTK1898:3HMVI3QICKZ1KO2FDPED2SXZNZYY1P", "dateTime": 1516556314460}, {"current_trial": 48, "trialdata": {"rt": -1, "trial_type": "single-stim", "stimulus": "<p id=\"stim\">6</p>", "internal_node_id": "0.0-35.0-4.0", "time_elapsed": 397421, "key_press": -1, "trial_index": 48}, "uniqueid": "MTK1898:3HMVI3QICKZ1KO2FDPED2SXZNZYY1P", "dateTime": 1516556315464}, {"current_trial": 49, "trialdata": {"rt": -1, "trial_type": "single-stim", "stimulus": "<p id=\"stim\">5</p>", "internal_node_id": "0.0-35.0-5.0", "time_elapsed": 398425, "key_press": -1, "trial_index": 49}, "uniqueid": "MTK1898:3HMVI3QICKZ1KO2FDPED2SXZNZYY1P", "dateTime": 1516556316468}, {"current_trial": 50, "trialdata": {"rt": -1, "trial_type": "single-stim", "stimulus": "<p id=\"stim\">4</p>", "internal_node_id": "0.0-35.0-6.0", "time_elapsed": 399429, "key_press": -1, "trial_index": 50}, "uniqueid": "MTK1898:3HMVI3QICKZ1KO2FDPED2SXZNZYY1P", "dateTime": 1516556317472}, {"current_trial": 51, "trialdata": {"rt": -1, "trial_type": "single-stim", "stimulus": "<p id=\"stim\">3</p>", "internal_node_id": "0.0-35.0-7.0", "time_elapsed": 400433, "key_press": -1, "trial_index": 51}, "uniqueid": "MTK1898:3HMVI3QICKZ1KO2FDPED2SXZNZYY1P", "dateTime": 1516556318476}, {"current_trial": 52, "trialdata": {"rt": -1, "trial_type": "single-stim", "stimulus": "<p id=\"stim\">2</p>", "internal_node_id": "0.0-35.0-8.0", "time_elapsed": 401437, "key_press": -1, "trial_index": 52}, "uniqueid": "MTK1898:3HMVI3QICKZ1KO2FDPED2SXZNZYY1P", "dateTime": 1516556319480}, {"current_trial": 53, "trialdata": {"rt": -1, "trial_type": "single-stim", "stimulus": "<p id=\"stim\">1</p>", "internal_node_id": "0.0-35.0-9.0", "time_elapsed": 402441, "key_press": -1, "trial_index": 53}, "uniqueid": "MTK1898:3HMVI3QICKZ1KO2FDPED2SXZNZYY1P", "dateTime": 1516556320484}, {"current_trial": 54, "trialdata": {"rt": -1, "trial_type": "single-stim", "stimulus": "<p id=\"stim\">+</p>", "internal_node_id": "0.0-36.0-0.0", "time_elapsed": 403944, "key_press": -1, "type": "FIXATION", "trial_index": 54}, "uniqueid": "MTK1898:3HMVI3QICKZ1KO2FDPED2SXZNZYY1P", "dateTime": 1516556321988}, {"current_trial": 55, "trialdata": {"rt": -1000, "trial_type": "single-audio", "word": "crab", "stimulus": "/static/audio/wordpool/CRAB.wav", "conditions": [18, 1200, "a", 18000], "internal_node_id": "0.0-37.0", "trial": 1, "time_elapsed": 406257, "serialpos": 0, "key_press": -1, "wordID": 396, "type": "PRES_AUD", "trial_index": 55}, "uniqueid": "MTK1898:3HMVI3QICKZ1KO2FDPED2SXZNZYY1P", "dateTime": 1516556324300}, {"current_trial": 56, "trialdata": {"rt": -1000, "trial_type": "single-audio", "word": "brook", "stimulus": "/static/audio/wordpool/BROOK.wav", "conditions": [18, 1200, "a", 18000], "internal_node_id": "0.0-38.0", "trial": 1, "time_elapsed": 408625, "serialpos": 1, "key_press": -1, "wordID": 176, "type": "PRES_AUD", "trial_index": 56}, "uniqueid": "MTK1898:3HMVI3QICKZ1KO2FDPED2SXZNZYY1P", "dateTime": 1516556326669}, {"current_trial": 57, "trialdata": {"rt": -1000, "trial_type": "single-audio", "word": "bank", "stimulus": "/static/audio/wordpool/BANK.wav", "conditions": [18, 1200, "a", 18000], "internal_node_id": "0.0-39.0", "trial": 1, "time_elapsed": 410738, "serialpos": 2, "key_press": -1, "wordID": 82, "type": "PRES_AUD", "trial_index": 57}, "uniqueid": "MTK1898:3HMVI3QICKZ1KO2FDPED2SXZNZYY1P", "dateTime": 1516556328782}, {"current_trial": 58, "trialdata": {"rt": -1000, "trial_type": "single-audio", "word": "thread", "stimulus": "/static/audio/wordpool/THREAD.wav", "conditions": [18, 1200, "a", 18000], "internal_node_id": "0.0-40.0", "trial": 1, "time_elapsed": 412747, "serialpos": 3, "key_press": -1, "wordID": 1459, "type": "PRES_AUD", "trial_index": 58}, "uniqueid": "MTK1898:3HMVI3QICKZ1KO2FDPED2SXZNZYY1P", "dateTime": 1516556330790}, {"current_trial": 59, "trialdata": {"rt": -1000, "trial_type": "single-audio", "word": "beaker", "stimulus": "/static/audio/wordpool/BEAKER.wav", "conditions": [18, 1200, "a", 18000], "internal_node_id": "0.0-41.0", "trial": 1, "time_elapsed": 414976, "serialpos": 4, "key_press": -1, "wordID": 103, "type": "PRES_AUD", "trial_index": 59}, "uniqueid": "MTK1898:3HMVI3QICKZ1KO2FDPED2SXZNZYY1P", "dateTime": 1516556333019}, {"current_trial": 60, "trialdata": {"rt": -1000, "trial_type": "single-audio", "word": "bathtub", "stimulus": "/static/audio/wordpool/BATHTUB.wav", "conditions": [18, 1200, "a", 18000], "internal_node_id": "0.0-42.0", "trial": 1, "time_elapsed": 417310, "serialpos": 5, "key_press": -1, "wordID": 99, "type": "PRES_AUD", "trial_index": 60}, "uniqueid": "MTK1898:3HMVI3QICKZ1KO2FDPED2SXZNZYY1P", "dateTime": 1516556335353}, {"current_trial": 61, "trialdata": {"rt": -1000, "trial_type": "single-audio", "word": "velvet", "stimulus": "/static/audio/wordpool/VELVET.wav", "conditions": [18, 1200, "a", 18000], "internal_node_id": "0.0-43.0", "trial": 1, "time_elapsed": 419545, "serialpos": 6, "key_press": -1, "wordID": 1554, "type": "PRES_AUD", "trial_index": 61}, "uniqueid": "MTK1898:3HMVI3QICKZ1KO2FDPED2SXZNZYY1P", "dateTime": 1516556337588}, {"current_trial": 62, "trialdata": {"rt": -1000, "trial_type": "single-audio", "word": "hiker", "stimulus": "/static/audio/wordpool/HIKER.wav", "conditions": [18, 1200, "a", 18000], "internal_node_id": "0.0-44.0", "trial": 1, "time_elapsed": 421890, "serialpos": 7, "key_press": -1, "wordID": 707, "type": "PRES_AUD", "trial_index": 62}, "uniqueid": "MTK1898:3HMVI3QICKZ1KO2FDPED2SXZNZYY1P", "dateTime": 1516556339933}, {"current_trial": 63, "trialdata": {"rt": -1000, "trial_type": "single-audio", "word": "country", "stimulus": "/static/audio/wordpool/COUNTRY.wav", "conditions": [18, 1200, "a", 18000], "internal_node_id": "0.0-45.0", "trial": 1, "time_elapsed": 424026, "serialpos": 8, "key_press": -1, "wordID": 387, "type": "PRES_AUD", "trial_index": 63}, "uniqueid": "MTK1898:3HMVI3QICKZ1KO2FDPED2SXZNZYY1P", "dateTime": 1516556342069}, {"current_trial": 64, "trialdata": {"rt": -1000, "trial_type": "single-audio", "word": "flag", "stimulus": "/static/audio/wordpool/FLAG.wav", "conditions": [18, 1200, "a", 18000], "internal_node_id": "0.0-46.0", "trial": 1, "time_elapsed": 426302, "serialpos": 9, "key_press": -1, "wordID": 572, "type": "PRES_AUD", "trial_index": 64}, "uniqueid": "MTK1898:3HMVI3QICKZ1KO2FDPED2SXZNZYY1P", "dateTime": 1516556344345}, {"current_trial": 65, "trialdata": {"rt": -1000, "trial_type": "single-audio", "word": "termite", "stimulus": "/static/audio/wordpool/TERMITE.wav", "conditions": [18, 1200, "a", 18000], "internal_node_id": "0.0-47.0", "trial": 1, "time_elapsed": 428583, "serialpos": 10, "key_press": -1, "wordID": 1450, "type": "PRES_AUD", "trial_index": 65}, "uniqueid": "MTK1898:3HMVI3QICKZ1KO2FDPED2SXZNZYY1P", "dateTime": 1516556346626}, {"current_trial": 66, "trialdata": {"rt": -1000, "trial_type": "single-audio", "word": "sunset", "stimulus": "/static/audio/wordpool/SUNSET.wav", "conditions": [18, 1200, "a", 18000], "internal_node_id": "0.0-48.0", "trial": 1, "time_elapsed": 430882, "serialpos": 11, "key_press": -1, "wordID": 1407, "type": "PRES_AUD", "trial_index": 66}, "uniqueid": "MTK1898:3HMVI3QICKZ1KO2FDPED2SXZNZYY1P", "dateTime": 1516556348925}, {"current_trial": 67, "trialdata": {"rt": -1000, "trial_type": "single-audio", "word": "donor", "stimulus": "/static/audio/wordpool/DONOR.wav", "conditions": [18, 1200, "a", 18000], "internal_node_id": "0.0-49.0", "trial": 1, "time_elapsed": 433254, "serialpos": 12, "key_press": -1, "wordID": 484, "type": "PRES_AUD", "trial_index": 67}, "uniqueid": "MTK1898:3HMVI3QICKZ1KO2FDPED2SXZNZYY1P", "dateTime": 1516556351297}, {"current_trial": 68, "trialdata": {"rt": -1000, "trial_type": "single-audio", "word": "champagne", "stimulus": "/static/audio/wordpool/CHAMPAGNE.wav", "conditions": [18, 1200, "a", 18000], "internal_node_id": "0.0-50.0", "trial": 1, "time_elapsed": 435594, "serialpos": 13, "key_press": -1, "wordID": 277, "type": "PRES_AUD", "trial_index": 68}, "uniqueid": "MTK1898:3HMVI3QICKZ1KO2FDPED2SXZNZYY1P", "dateTime": 1516556353639}, {"current_trial": 69, "trialdata": {"rt": -1000, "trial_type": "single-audio", "word": "lake", "stimulus": "/static/audio/wordpool/LAKE.wav", "conditions": [18, 1200, "a", 18000], "internal_node_id": "0.0-51.0", "trial": 1, "time_elapsed": 437970, "serialpos": 14, "key_press": -1, "wordID": 795, "type": "PRES_AUD", "trial_index": 69}, "uniqueid": "MTK1898:3HMVI3QICKZ1KO2FDPED2SXZNZYY1P", "dateTime": 1516556356013}, {"current_trial": 70, "trialdata": {"rt": -1000, "trial_type": "single-audio", "word": "lion", "stimulus": "/static/audio/wordpool/LION.wav", "conditions": [18, 1200, "a", 18000], "internal_node_id": "0.0-52.0", "trial": 1, "time_elapsed": 440013, "serialpos": 15, "key_press": -1, "wordID": 826, "type": "PRES_AUD", "trial_index": 70}, "uniqueid": "MTK1898:3HMVI3QICKZ1KO2FDPED2SXZNZYY1P", "dateTime": 1516556358056}, {"current_trial": 71, "trialdata": {"rt": -1000, "trial_type": "single-audio", "word": "robot", "stimulus": "/static/audio/wordpool/ROBOT.wav", "conditions": [18, 1200, "a", 18000], "internal_node_id": "0.0-53.0", "trial": 1, "time_elapsed": 442329, "serialpos": 16, "key_press": -1, "wordID": 1199, "type": "PRES_AUD", "trial_index": 71}, "uniqueid": "MTK1898:3HMVI3QICKZ1KO2FDPED2SXZNZYY1P", "dateTime": 1516556360372}, {"current_trial": 72, "trialdata": {"rt": -1000, "trial_type": "single-audio", "word": "mammal", "stimulus": "/static/audio/wordpool/MAMMAL.wav", "conditions": [18, 1200, "a", 18000], "internal_node_id": "0.0-54.0", "trial": 1, "time_elapsed": 444419, "serialpos": 17, "key_press": -1, "wordID": 860, "type": "PRES_AUD", "trial_index": 72}, "uniqueid": "MTK1898:3HMVI3QICKZ1KO2FDPED2SXZNZYY1P", "dateTime": 1516556362462}, {"current_trial": 73, "trialdata": {"rt": -1, "trial_type": "single-stim", "stimulus": "", "internal_node_id": "0.0-55.0-0.0", "time_elapsed": 445795, "key_press": -1, "type": "PRE_RECALL_DELAY", "trial_index": 73}, "uniqueid": "MTK1898:3HMVI3QICKZ1KO2FDPED2SXZNZYY1P", "dateTime": 1516556363838}, {"current_trial": 74, "trialdata": {"rt": -1000, "trial_type": "single-audio", "stimulus": "/static/audio/400Hz.wav", "internal_node_id": "0.0-56.0", "time_elapsed": 446297, "key_press": -1, "type": "PRE_RECALL_ALERT", "trial_index": 74}, "uniqueid": "MTK1898:3HMVI3QICKZ1KO2FDPED2SXZNZYY1P", "dateTime": 1516556364340}, {"current_trial": 75, "trialdata": {"rt": [2248, 3609, 5400, 6925, 9047, 15952, 33387, 46580, 52538], "recwords": ["crab", "book", "bank", "robot", "mammal", "lion", "lake", "territory", "country"], "key_times": [867, 1299, 1562, 1919, 2248, 2636, 2993, 3170, 3398, 3609, 3842, 4068, 4172, 4791, 5400, 5728, 5851, 6222, 6408, 6769, 6925, 7218, 7400, 7630, 7842, 8088, 8483, 9047, 13596, 13718, 14354, 15075, 15229, 15505, 15952, 32238, 32614, 32820, 33096, 33387, 44277, 44538, 44856, 45022, 45271, 45633, 45794, 46005, 46214, 46580, 51109, 51277, 51465, 51712, 51912, 52148, 52288, 52538], "trial_type": "free-recall", "conditions": [18, 1200, "a", 18000], "internal_node_id": "0.0-57.0-0.0", "key_presses": [67, 82, 65, 66, 32, 66, 79, 79, 75, 32, 66, 65, 78, 75, 32, 82, 79, 66, 79, 84, 32, 77, 65, 77, 77, 65, 76, 32, 76, 76, 8, 73, 79, 78, 32, 76, 65, 75, 69, 13, 84, 69, 82, 82, 73, 84, 79, 82, 89, 13, 67, 79, 85, 78, 84, 82, 89, 13], "trial": 1, "time_elapsed": 506305, "type": "FREE_RECALL", "trial_index": 75}, "uniqueid": "MTK1898:3HMVI3QICKZ1KO2FDPED2SXZNZYY1P", "dateTime": 1516556424350}, {"current_trial": 76, "trialdata": {"rt": 4349, "trial_type": "text", "internal_node_id": "0.0-58.0", "time_elapsed": 512659, "key_press": 32, "type": "INSTRUCTIONS", "trial_index": 76}, "uniqueid": "MTK1898:3HMVI3QICKZ1KO2FDPED2SXZNZYY1P", "dateTime": 1516556430703}, {"current_trial": 77, "trialdata": {"rt": [3401, 5639, 8065], "trial_type": "math-distractor", "key_times": [2271, 2787, 3401, 5289, 5499, 5639, 7885, 8065, 11293, 11704], "responses": ["13", "11", "9"], "num2": [7, 3, 3, 4], "num3": [5, 2, 1, 7], "conditions": [12, 800, "a", 12000], "internal_node_id": "0.0-59.0", "key_presses": [49, 51, 13, 49, 49, 13, 57, 13, 49, 50], "trial": 2, "time_elapsed": 525671, "type": "DISTRACTOR", "trial_index": 77, "num1": [1, 6, 5, 1]}, "uniqueid": "MTK1898:3HMVI3QICKZ1KO2FDPED2SXZNZYY1P", "dateTime": 1516556443714}, {"current_trial": 78, "trialdata": {"rt": -1, "trial_type": "single-stim", "stimulus": "<p id=\"stim\">10</p>", "internal_node_id": "0.0-60.0-0.0", "time_elapsed": 528676, "key_press": -1, "trial_index": 78}, "uniqueid": "MTK1898:3HMVI3QICKZ1KO2FDPED2SXZNZYY1P", "dateTime": 1516556446719}, {"current_trial": 79, "trialdata": {"rt": -1, "trial_type": "single-stim", "stimulus": "<p id=\"stim\">9</p>", "internal_node_id": "0.0-60.0-1.0", "time_elapsed": 529680, "key_press": -1, "trial_index": 79}, "uniqueid": "MTK1898:3HMVI3QICKZ1KO2FDPED2SXZNZYY1P", "dateTime": 1516556447723}, {"current_trial": 80, "trialdata": {"rt": -1, "trial_type": "single-stim", "stimulus": "<p id=\"stim\">8</p>", "internal_node_id": "0.0-60.0-2.0", "time_elapsed": 530685, "key_press": -1, "trial_index": 80}, "uniqueid": "MTK1898:3HMVI3QICKZ1KO2FDPED2SXZNZYY1P", "dateTime": 1516556448728}, {"current_trial": 81, "trialdata": {"rt": -1, "trial_type": "single-stim", "stimulus": "<p id=\"stim\">7</p>", "internal_node_id": "0.0-60.0-3.0", "time_elapsed": 531689, "key_press": -1, "trial_index": 81}, "uniqueid": "MTK1898:3HMVI3QICKZ1KO2FDPED2SXZNZYY1P", "dateTime": 1516556449732}, {"current_trial": 82, "trialdata": {"rt": -1, "trial_type": "single-stim", "stimulus": "<p id=\"stim\">6</p>", "internal_node_id": "0.0-60.0-4.0", "time_elapsed": 532693, "key_press": -1, "trial_index": 82}, "uniqueid": "MTK1898:3HMVI3QICKZ1KO2FDPED2SXZNZYY1P", "dateTime": 1516556450736}, {"current_trial": 83, "trialdata": {"rt": -1, "trial_type": "single-stim", "stimulus": "<p id=\"stim\">5</p>", "internal_node_id": "0.0-60.0-5.0", "time_elapsed": 533697, "key_press": -1, "trial_index": 83}, "uniqueid": "MTK1898:3HMVI3QICKZ1KO2FDPED2SXZNZYY1P", "dateTime": 1516556451740}, {"current_trial": 84, "trialdata": {"rt": -1, "trial_type": "single-stim", "stimulus": "<p id=\"stim\">4</p>", "internal_node_id": "0.0-60.0-6.0", "time_elapsed": 534701, "key_press": -1, "trial_index": 84}, "uniqueid": "MTK1898:3HMVI3QICKZ1KO2FDPED2SXZNZYY1P", "dateTime": 1516556452744}, {"current_trial": 85, "trialdata": {"rt": -1, "trial_type": "single-stim", "stimulus": "<p id=\"stim\">3</p>", "internal_node_id": "0.0-60.0-7.0", "time_elapsed": 535705, "key_press": -1, "trial_index": 85}, "uniqueid": "MTK1898:3HMVI3QICKZ1KO2FDPED2SXZNZYY1P", "dateTime": 1516556453748}, {"current_trial": 86, "trialdata": {"rt": -1, "trial_type": "single-stim", "stimulus": "<p id=\"stim\">2</p>", "internal_node_id": "0.0-60.0-8.0", "time_elapsed": 536709, "key_press": -1, "trial_index": 86}, "uniqueid": "MTK1898:3HMVI3QICKZ1KO2FDPED2SXZNZYY1P", "dateTime": 1516556454753}, {"current_trial": 87, "trialdata": {"rt": -1, "trial_type": "single-stim", "stimulus": "<p id=\"stim\">1</p>", "internal_node_id": "0.0-60.0-9.0", "time_elapsed": 537713, "key_press": -1, "trial_index": 87}, "uniqueid": "MTK1898:3HMVI3QICKZ1KO2FDPED2SXZNZYY1P", "dateTime": 1516556455757}, {"current_trial": 88, "trialdata": {"rt": -1, "trial_type": "single-stim", "stimulus": "<p id=\"stim\">+</p>", "internal_node_id": "0.0-61.0-0.0", "time_elapsed": 539217, "key_press": -1, "type": "FIXATION", "trial_index": 88}, "uniqueid": "MTK1898:3HMVI3QICKZ1KO2FDPED2SXZNZYY1P", "dateTime": 1516556457260}, {"current_trial": 89, "trialdata": {"rt": -1000, "trial_type": "single-audio", "word": "blouse", "stimulus": "/static/audio/wordpool/BLOUSE.wav", "conditions": [12, 800, "a", 12000], "internal_node_id": "0.0-62.0", "trial": 2, "time_elapsed": 540949, "serialpos": 0, "key_press": -1, "wordID": 138, "type": "PRES_AUD", "trial_index": 89}, "uniqueid": "MTK1898:3HMVI3QICKZ1KO2FDPED2SXZNZYY1P", "dateTime": 1516556458992}, {"current_trial": 90, "trialdata": {"rt": -1000, "trial_type": "single-audio", "word": "bison", "stimulus": "/static/audio/wordpool/BISON.wav", "conditions": [12, 800, "a", 12000], "internal_node_id": "0.0-63.0", "trial": 2, "time_elapsed": 542824, "serialpos": 1, "key_press": -1, "wordID": 130, "type": "PRES_AUD", "trial_index": 90}, "uniqueid": "MTK1898:3HMVI3QICKZ1KO2FDPED2SXZNZYY1P", "dateTime": 1516556460867}, {"current_trial": 91, "trialdata": {"rt": -1000, "trial_type": "single-audio", "word": "dolphin", "stimulus": "/static/audio/wordpool/DOLPHIN.wav", "conditions": [12, 800, "a", 12000], "internal_node_id": "0.0-64.0", "trial": 2, "time_elapsed": 544641, "serialpos": 2, "key_press": -1, "wordID": 482, "type": "PRES_AUD", "trial_index": 91}, "uniqueid": "MTK1898:3HMVI3QICKZ1KO2FDPED2SXZNZYY1P", "dateTime": 1516556462684}, {"current_trial": 92, "trialdata": {"rt": -1000, "trial_type": "single-audio", "word": "grill", "stimulus": "/static/audio/wordpool/GRILL.wav", "conditions": [12, 800, "a", 12000], "internal_node_id": "0.0-65.0", "trial": 2, "time_elapsed": 546615, "serialpos": 3, "key_press": -1, "wordID": 660, "type": "PRES_AUD", "trial_index": 92}, "uniqueid": "MTK1898:3HMVI3QICKZ1KO2FDPED2SXZNZYY1P", "dateTime": 1516556464658}, {"current_trial": 93, "trialdata": {"rt": -1000, "trial_type": "single-audio", "word": "skirt", "stimulus": "/static/audio/wordpool/SKIRT.wav", "conditions": [12, 800, "a", 12000], "internal_node_id": "0.0-66.0", "trial": 2, "time_elapsed": 548495, "serialpos": 4, "key_press": -1, "wordID": 1318, "type": "PRES_AUD", "trial_index": 93}, "uniqueid": "MTK1898:3HMVI3QICKZ1KO2FDPED2SXZNZYY1P", "dateTime": 1516556466539}, {"current_trial": 94, "trialdata": {"rt": -1000, "trial_type": "single-audio", "word": "buggy", "stimulus": "/static/audio/wordpool/BUGGY.wav", "conditions": [12, 800, "a", 12000], "internal_node_id": "0.0-67.0", "trial": 2, "time_elapsed": 550469, "serialpos": 5, "key_press": -1, "wordID": 187, "type": "PRES_AUD", "trial_index": 94}, "uniqueid": "MTK1898:3HMVI3QICKZ1KO2FDPED2SXZNZYY1P", "dateTime": 1516556468512}, {"current_trial": 95, "trialdata": {"rt": -1000, "trial_type": "single-audio", "word": "chauffeur", "stimulus": "/static/audio/wordpool/CHAUFFEUR.wav", "conditions": [12, 800, "a", 12000], "internal_node_id": "0.0-68.0", "trial": 2, "time_elapsed": 552129, "serialpos": 6, "key_press": -1, "wordID": 282, "type": "PRES_AUD", "trial_index": 95}, "uniqueid": "MTK1898:3HMVI3QICKZ1KO2FDPED2SXZNZYY1P", "dateTime": 1516556470172}, {"current_trial": 96, "trialdata": {"rt": -1000, "trial_type": "single-audio", "word": "scotch", "stimulus": "/static/audio/wordpool/SCOTCH.wav", "conditions": [12, 800, "a", 12000], "internal_node_id": "0.0-69.0", "trial": 2, "time_elapsed": 554030, "serialpos": 7, "key_press": -1, "wordID": 1250, "type": "PRES_AUD", "trial_index": 96}, "uniqueid": "MTK1898:3HMVI3QICKZ1KO2FDPED2SXZNZYY1P", "dateTime": 1516556472073}, {"current_trial": 97, "trialdata": {"rt": -1000, "trial_type": "single-audio", "word": "rattle", "stimulus": "/static/audio/wordpool/RATTLE.wav", "conditions": [12, 800, "a", 12000], "internal_node_id": "0.0-70.0", "trial": 2, "time_elapsed": 555961, "serialpos": 8, "key_press": -1, "wordID": 1169, "type": "PRES_AUD", "trial_index": 97}, "uniqueid": "MTK1898:3HMVI3QICKZ1KO2FDPED2SXZNZYY1P", "dateTime": 1516556474004}, {"current_trial": 98, "trialdata": {"rt": -1000, "trial_type": "single-audio", "word": "popcorn", "stimulus": "/static/audio/wordpool/POPCORN.wav", "conditions": [12, 800, "a", 12000], "internal_node_id": "0.0-71.0", "trial": 2, "time_elapsed": 557899, "serialpos": 9, "key_press": -1, "wordID": 1103, "type": "PRES_AUD", "trial_index": 98}, "uniqueid": "MTK1898:3HMVI3QICKZ1KO2FDPED2SXZNZYY1P", "dateTime": 1516556475943}, {"current_trial": 99, "trialdata": {"rt": -1000, "trial_type": "single-audio", "word": "soda", "stimulus": "/static/audio/wordpool/SODA.wav", "conditions": [12, 800, "a", 12000], "internal_node_id": "0.0-72.0", "trial": 2, "time_elapsed": 559589, "serialpos": 10, "key_press": -1, "wordID": 1340, "type": "PRES_AUD", "trial_index": 99}, "uniqueid": "MTK1898:3HMVI3QICKZ1KO2FDPED2SXZNZYY1P", "dateTime": 1516556477632}, {"current_trial": 100, "trialdata": {"rt": -1000, "trial_type": "single-audio", "word": "cowboy", "stimulus": "/static/audio/wordpool/COWBOY.wav", "conditions": [12, 800, "a", 12000], "internal_node_id": "0.0-73.0", "trial": 2, "time_elapsed": 561430, "serialpos": 11, "key_press": -1, "wordID": 394, "type": "PRES_AUD", "trial_index": 100}, "uniqueid": "MTK1898:3HMVI3QICKZ1KO2FDPED2SXZNZYY1P", "dateTime": 1516556479473}, {"current_trial": 101, "trialdata": {"rt": -1, "trial_type": "single-stim", "stimulus": "", "internal_node_id": "0.0-74.0-0.0", "time_elapsed": 562770, "key_press": -1, "type": "PRE_RECALL_DELAY", "trial_index": 101}, "uniqueid": "MTK1898:3HMVI3QICKZ1KO2FDPED2SXZNZYY1P", "dateTime": 1516556480813}, {"current_trial": 102, "trialdata": {"rt": -1000, "trial_type": "single-audio", "stimulus": "/static/audio/400Hz.wav", "internal_node_id": "0.0-75.0", "time_elapsed": 563272, "key_press": -1, "type": "PRE_RECALL_ALERT", "trial_index": 102}, "uniqueid": "MTK1898:3HMVI3QICKZ1KO2FDPED2SXZNZYY1P", "dateTime": 1516556481315}, {"current_trial": 103, "trialdata": {"rt": [3887, 5243, 9328, 11512, 14534, 21174, 54576], "recwords": ["popcorn", "soda", "cowboy", "bison", "grill", "country", "dolphin"], "key_times": [1246, 2070, 2352, 2899, 3182, 3448, 3649, 3887, 4097, 4256, 4809, 5067, 5243, 5486, 5646, 6073, 6496, 6717, 7467, 7623, 7953, 8514, 9029, 9328, 9869, 10020, 10324, 10692, 10949, 11512, 13065, 13376, 13549, 13828, 14017, 14534, 19192, 19578, 19861, 20205, 20442, 20687, 20807, 21174, 50360, 50565, 52116, 52947, 53424, 53719, 53960, 54576], "trial_type": "free-recall", "conditions": [12, 800, "a", 12000], "internal_node_id": "0.0-76.0-0.0", "key_presses": [80, 79, 80, 67, 79, 82, 78, 32, 83, 79, 68, 65, 32, 67, 79, 85, 8, 87, 66, 79, 85, 8, 89, 32, 66, 73, 83, 79, 78, 32, 71, 82, 73, 76, 76, 32, 67, 79, 85, 78, 84, 82, 89, 13, 68, 79, 76, 80, 72, 73, 78, 13], "trial": 2, "time_elapsed": 623278, "type": "FREE_RECALL", "trial_index": 103}, "uniqueid": "MTK1898:3HMVI3QICKZ1KO2FDPED2SXZNZYY1P", "dateTime": 1516556541323}, {"current_trial": 104, "trialdata": {"rt": 1712, "trial_type": "text", "internal_node_id": "0.0-77.0", "time_elapsed": 626998, "key_press": 13, "type": "INSTRUCTIONS", "trial_index": 104}, "uniqueid": "MTK1898:3HMVI3QICKZ1KO2FDPED2SXZNZYY1P", "dateTime": 1516556545041}, {"current_trial": 105, "trialdata": {"rt": [5579, 8871, 11507, 14174, 17378, 19802, 21703], "trial_type": "math-distractor", "key_times": [4340, 4633, 5579, 7615, 8476, 8871, 10860, 11105, 11507, 13346, 13846, 14174, 16574, 17035, 17378, 18722, 19234, 19802, 21040, 21372, 21703], "responses": ["21", "17", "11", "14", "14", "10", "13"], "num2": [5, 7, 6, 9, 6, 7, 5, 5], "num3": [7, 3, 4, 1, 1, 2, 3, 6], "conditions": [24, 1600, "a", 24000], "internal_node_id": "0.0-78.0", "key_presses": [50, 49, 13, 49, 55, 13, 49, 49, 13, 49, 52, 13, 49, 52, 13, 49, 48, 13, 49, 51, 13], "trial": 3, "time_elapsed": 653006, "type": "DISTRACTOR", "trial_index": 105, "num1": [9, 7, 1, 4, 7, 1, 5, 6]}, "uniqueid": "MTK1898:3HMVI3QICKZ1KO2FDPED2SXZNZYY1P", "dateTime": 1516556571049}, {"current_trial": 106, "trialdata": {"rt": -1, "trial_type": "single-stim", "stimulus": "<p id=\"stim\">10</p>", "internal_node_id": "0.0-79.0-0.0", "time_elapsed": 656012, "key_press": -1, "trial_index": 106}, "uniqueid": "MTK1898:3HMVI3QICKZ1KO2FDPED2SXZNZYY1P", "dateTime": 1516556574055}, {"current_trial": 107, "trialdata": {"rt": -1, "trial_type": "single-stim", "stimulus": "<p id=\"stim\">9</p>", "internal_node_id": "0.0-79.0-1.0", "time_elapsed": 657016, "key_press": -1, "trial_index": 107}, "uniqueid": "MTK1898:3HMVI3QICKZ1KO2FDPED2SXZNZYY1P", "dateTime": 1516556575059}, {"current_trial": 108, "trialdata": {"rt": -1, "trial_type": "single-stim", "stimulus": "<p id=\"stim\">8</p>", "internal_node_id": "0.0-79.0-2.0", "time_elapsed": 658020, "key_press": -1, "trial_index": 108}, "uniqueid": "MTK1898:3HMVI3QICKZ1KO2FDPED2SXZNZYY1P", "dateTime": 1516556576063}, {"current_trial": 109, "trialdata": {"rt": -1, "trial_type": "single-stim", "stimulus": "<p id=\"stim\">7</p>", "internal_node_id": "0.0-79.0-3.0", "time_elapsed": 659024, "key_press": -1, "trial_index": 109}, "uniqueid": "MTK1898:3HMVI3QICKZ1KO2FDPED2SXZNZYY1P", "dateTime": 1516556577067}, {"current_trial": 110, "trialdata": {"rt": -1, "trial_type": "single-stim", "stimulus": "<p id=\"stim\">6</p>", "internal_node_id": "0.0-79.0-4.0", "time_elapsed": 660028, "key_press": -1, "trial_index": 110}, "uniqueid": "MTK1898:3HMVI3QICKZ1KO2FDPED2SXZNZYY1P", "dateTime": 1516556578071}, {"current_trial": 111, "trialdata": {"rt": -1, "trial_type": "single-stim", "stimulus": "<p id=\"stim\">5</p>", "internal_node_id": "0.0-79.0-5.0", "time_elapsed": 661032, "key_press": -1, "trial_index": 111}, "uniqueid": "MTK1898:3HMVI3QICKZ1KO2FDPED2SXZNZYY1P", "dateTime": 1516556579075}, {"current_trial": 112, "trialdata": {"rt": -1, "trial_type": "single-stim", "stimulus": "<p id=\"stim\">4</p>", "internal_node_id": "0.0-79.0-6.0", "time_elapsed": 662036, "key_press": -1, "trial_index": 112}, "uniqueid": "MTK1898:3HMVI3QICKZ1KO2FDPED2SXZNZYY1P", "dateTime": 1516556580080}, {"current_trial": 113, "trialdata": {"rt": -1, "trial_type": "single-stim", "stimulus": "<p id=\"stim\">3</p>", "internal_node_id": "0.0-79.0-7.0", "time_elapsed": 663041, "key_press": -1, "trial_index": 113}, "uniqueid": "MTK1898:3HMVI3QICKZ1KO2FDPED2SXZNZYY1P", "dateTime": 1516556581084}, {"current_trial": 114, "trialdata": {"rt": -1, "trial_type": "single-stim", "stimulus": "<p id=\"stim\">2</p>", "internal_node_id": "0.0-79.0-8.0", "time_elapsed": 664045, "key_press": -1, "trial_index": 114}, "uniqueid": "MTK1898:3HMVI3QICKZ1KO2FDPED2SXZNZYY1P", "dateTime": 1516556582088}, {"current_trial": 115, "trialdata": {"rt": -1, "trial_type": "single-stim", "stimulus": "<p id=\"stim\">1</p>", "internal_node_id": "0.0-79.0-9.0", "time_elapsed": 665049, "key_press": -1, "trial_index": 115}, "uniqueid": "MTK1898:3HMVI3QICKZ1KO2FDPED2SXZNZYY1P", "dateTime": 1516556583092}, {"current_trial": 116, "trialdata": {"rt": -1, "trial_type": "single-stim", "stimulus": "<p id=\"stim\">+</p>", "internal_node_id": "0.0-80.0-0.0", "time_elapsed": 666552, "key_press": -1, "type": "FIXATION", "trial_index": 116}, "uniqueid": "MTK1898:3HMVI3QICKZ1KO2FDPED2SXZNZYY1P", "dateTime": 1516556584595}, {"current_trial": 117, "trialdata": {"rt": -1000, "trial_type": "single-audio", "word": "tutu", "stimulus": "/static/audio/wordpool/TUTU.wav", "conditions": [24, 1600, "a", 24000], "internal_node_id": "0.0-81.0", "trial": 3, "time_elapsed": 669134, "serialpos": 0, "key_press": -1, "wordID": 1523, "type": "PRES_AUD", "trial_index": 117}, "uniqueid": "MTK1898:3HMVI3QICKZ1KO2FDPED2SXZNZYY1P", "dateTime": 1516556587177}, {"current_trial": 118, "trialdata": {"rt": -1000, "trial_type": "single-audio", "word": "picnic", "stimulus": "/static/audio/wordpool/PICNIC.wav", "conditions": [24, 1600, "a", 24000], "internal_node_id": "0.0-82.0", "trial": 3, "time_elapsed": 671664, "serialpos": 1, "key_press": -1, "wordID": 1059, "type": "PRES_AUD", "trial_index": 118}, "uniqueid": "MTK1898:3HMVI3QICKZ1KO2FDPED2SXZNZYY1P", "dateTime": 1516556589707}, {"current_trial": 119, "trialdata": {"rt": -1000, "trial_type": "single-audio", "word": "costume", "stimulus": "/static/audio/wordpool/COSTUME.wav", "conditions": [24, 1600, "a", 24000], "internal_node_id": "0.0-83.0", "trial": 3, "time_elapsed": 674122, "serialpos": 2, "key_press": -1, "wordID": 382, "type": "PRES_AUD", "trial_index": 119}, "uniqueid": "MTK1898:3HMVI3QICKZ1KO2FDPED2SXZNZYY1P", "dateTime": 1516556592165}, {"current_trial": 120, "trialdata": {"rt": -1000, "trial_type": "single-audio", "word": "patrol", "stimulus": "/static/audio/wordpool/PATROL.wav", "conditions": [24, 1600, "a", 24000], "internal_node_id": "0.0-84.0", "trial": 3, "time_elapsed": 676746, "serialpos": 3, "key_press": -1, "wordID": 1026, "type": "PRES_AUD", "trial_index": 120}, "uniqueid": "MTK1898:3HMVI3QICKZ1KO2FDPED2SXZNZYY1P", "dateTime": 1516556594789}, {"current_trial": 121, "trialdata": {"rt": -1000, "trial_type": "single-audio", "word": "banquet", "stimulus": "/static/audio/wordpool/BANQUET.wav", "conditions": [24, 1600, "a", 24000], "internal_node_id": "0.0-85.0", "trial": 3, "time_elapsed": 679509, "serialpos": 4, "key_press": -1, "wordID": 85, "type": "PRES_AUD", "trial_index": 121}, "uniqueid": "MTK1898:3HMVI3QICKZ1KO2FDPED2SXZNZYY1P", "dateTime": 1516556597552}, {"current_trial": 122, "trialdata": {"rt": -1000, "trial_type": "single-audio", "word": "supper", "stimulus": "/static/audio/wordpool/SUPPER.wav", "conditions": [24, 1600, "a", 24000], "internal_node_id": "0.0-86.0", "trial": 3, "time_elapsed": 681988, "serialpos": 5, "key_press": -1, "wordID": 1410, "type": "PRES_AUD", "trial_index": 122}, "uniqueid": "MTK1898:3HMVI3QICKZ1KO2FDPED2SXZNZYY1P", "dateTime": 1516556600031}, {"current_trial": 123, "trialdata": {"rt": -1000, "trial_type": "single-audio", "word": "palace", "stimulus": "/static/audio/wordpool/PALACE.wav", "conditions": [24, 1600, "a", 24000], "internal_node_id": "0.0-87.0", "trial": 3, "time_elapsed": 684437, "serialpos": 6, "key_press": -1, "wordID": 1005, "type": "PRES_AUD", "trial_index": 123}, "uniqueid": "MTK1898:3HMVI3QICKZ1KO2FDPED2SXZNZYY1P", "dateTime": 1516556602481}, {"current_trial": 124, "trialdata": {"rt": -1000, "trial_type": "single-audio", "word": "stomach", "stimulus": "/static/audio/wordpool/STOMACH.wav", "conditions": [24, 1600, "a", 24000], "internal_node_id": "0.0-88.0", "trial": 3, "time_elapsed": 687112, "serialpos": 7, "key_press": -1, "wordID": 1383, "type": "PRES_AUD", "trial_index": 124}, "uniqueid": "MTK1898:3HMVI3QICKZ1KO2FDPED2SXZNZYY1P", "dateTime": 1516556605155}, {"current_trial": 125, "trialdata": {"rt": -1000, "trial_type": "single-audio", "word": "shorts", "stimulus": "/static/audio/wordpool/SHORTS.wav", "conditions": [24, 1600, "a", 24000], "internal_node_id": "0.0-89.0", "trial": 3, "time_elapsed": 689726, "serialpos": 8, "key_press": -1, "wordID": 1292, "type": "PRES_AUD", "trial_index": 125}, "uniqueid": "MTK1898:3HMVI3QICKZ1KO2FDPED2SXZNZYY1P", "dateTime": 1516556607769}, {"current_trial": 126, "trialdata": {"rt": -1000, "trial_type": "single-audio", "word": "guard", "stimulus": "/static/audio/wordpool/GUARD.wav", "conditions": [24, 1600, "a", 24000], "internal_node_id": "0.0-90.0", "trial": 3, "time_elapsed": 692326, "serialpos": 9, "key_press": -1, "wordID": 666, "type": "PRES_AUD", "trial_index": 126}, "uniqueid": "MTK1898:3HMVI3QICKZ1KO2FDPED2SXZNZYY1P", "dateTime": 1516556610369}, {"current_trial": 127, "trialdata": {"rt": -1000, "trial_type": "single-audio", "word": "police", "stimulus": "/static/audio/wordpool/POLICE.wav", "conditions": [24, 1600, "a", 24000], "internal_node_id": "0.0-91.0", "trial": 3, "time_elapsed": 694979, "serialpos": 10, "key_press": -1, "wordID": 1097, "type": "PRES_AUD", "trial_index": 127}, "uniqueid": "MTK1898:3HMVI3QICKZ1KO2FDPED2SXZNZYY1P", "dateTime": 1516556613022}, {"current_trial": 128, "trialdata": {"rt": -1000, "trial_type": "single-audio", "word": "cottage", "stimulus": "/static/audio/wordpool/COTTAGE.wav", "conditions": [24, 1600, "a", 24000], "internal_node_id": "0.0-92.0", "trial": 3, "time_elapsed": 697638, "serialpos": 11, "key_press": -1, "wordID": 383, "type": "PRES_AUD", "trial_index": 128}, "uniqueid": "MTK1898:3HMVI3QICKZ1KO2FDPED2SXZNZYY1P", "dateTime": 1516556615681}, {"current_trial": 129, "trialdata": {"rt": -1000, "trial_type": "single-audio", "word": "mailman", "stimulus": "/static/audio/wordpool/MAILMAN.wav", "conditions": [24, 1600, "a", 24000], "internal_node_id": "0.0-93.0", "trial": 3, "time_elapsed": 700238, "serialpos": 12, "key_press": -1, "wordID": 857, "type": "PRES_AUD", "trial_index": 129}, "uniqueid": "MTK1898:3HMVI3QICKZ1KO2FDPED2SXZNZYY1P", "dateTime": 1516556618282}, {"current_trial": 130, "trialdata": {"rt": -1000, "trial_type": "single-audio", "word": "cellar", "stimulus": "/static/audio/wordpool/CELLAR.wav", "conditions": [24, 1600, "a", 24000], "internal_node_id": "0.0-94.0", "trial": 3, "time_elapsed": 703013, "serialpos": 13, "key_press": -1, "wordID": 266, "type": "PRES_AUD", "trial_index": 130}, "uniqueid": "MTK1898:3HMVI3QICKZ1KO2FDPED2SXZNZYY1P", "dateTime": 1516556621056}, {"current_trial": 131, "trialdata": {"rt": -1000, "trial_type": "single-audio", "word": "donkey", "stimulus": "/static/audio/wordpool/DONKEY.wav", "conditions": [24, 1600, "a", 24000], "internal_node_id": "0.0-95.0", "trial": 3, "time_elapsed": 705597, "serialpos": 14, "key_press": -1, "wordID": 483, "type": "PRES_AUD", "trial_index": 131}, "uniqueid": "MTK1898:3HMVI3QICKZ1KO2FDPED2SXZNZYY1P", "dateTime": 1516556623640}, {"current_trial": 132, "trialdata": {"rt": -1000, "trial_type": "single-audio", "word": "boyfriend", "stimulus": "/static/audio/wordpool/BOYFRIEND.wav", "conditions": [24, 1600, "a", 24000], "internal_node_id": "0.0-96.0", "trial": 3, "time_elapsed": 708365, "serialpos": 15, "key_press": -1, "wordID": 161, "type": "PRES_AUD", "trial_index": 132}, "uniqueid": "MTK1898:3HMVI3QICKZ1KO2FDPED2SXZNZYY1P", "dateTime": 1516556626409}, {"current_trial": 133, "trialdata": {"rt": -1000, "trial_type": "single-audio", "word": "temple", "stimulus": "/static/audio/wordpool/TEMPLE.wav", "conditions": [24, 1600, "a", 24000], "internal_node_id": "0.0-97.0", "trial": 3, "time_elapsed": 711134, "serialpos": 16, "key_press": -1, "wordID": 1447, "type": "PRES_AUD", "trial_index": 133}, "uniqueid": "MTK1898:3HMVI3QICKZ1KO2FDPED2SXZNZYY1P", "dateTime": 1516556629178}, {"current_trial": 134, "trialdata": {"rt": -1000, "trial_type": "single-audio", "word": "tourist", "stimulus": "/static/audio/wordpool/TOURIST.wav", "conditions": [24, 1600, "a", 24000], "internal_node_id": "0.0-98.0", "trial": 3, "time_elapsed": 713723, "serialpos": 17, "key_press": -1, "wordID": 1487, "type": "PRES_AUD", "trial_index": 134}, "uniqueid": "MTK1898:3HMVI3QICKZ1KO2FDPED2SXZNZYY1P", "dateTime": 1516556631767}, {"current_trial": 135, "trialdata": {"rt": -1000, "trial_type": "single-audio", "word": "college", "stimulus": "/static/audio/wordpool/COLLEGE.wav", "conditions": [24, 1600, "a", 24000], "internal_node_id": "0.0-99.0", "trial": 3, "time_elapsed": 716249, "serialpos": 18, "key_press": -1, "wordID": 345, "type": "PRES_AUD", "trial_index": 135}, "uniqueid": "MTK1898:3HMVI3QICKZ1KO2FDPED2SXZNZYY1P", "dateTime": 1516556634292}, {"current_trial": 136, "trialdata": {"rt": -1000, "trial_type": "single-audio", "word": "radish", "stimulus": "/static/audio/wordpool/RADISH.wav", "conditions": [24, 1600, "a", 24000], "internal_node_id": "0.0-100.0", "trial": 3, "time_elapsed": 718733, "serialpos": 19, "key_press": -1, "wordID": 1157, "type": "PRES_AUD", "trial_index": 136}, "uniqueid": "MTK1898:3HMVI3QICKZ1KO2FDPED2SXZNZYY1P", "dateTime": 1516556636776}, {"current_trial": 137, "trialdata": {"rt": -1000, "trial_type": "single-audio", "word": "turnip", "stimulus": "/static/audio/wordpool/TURNIP.wav", "conditions": [24, 1600, "a", 24000], "internal_node_id": "0.0-101.0", "trial": 3, "time_elapsed": 721299, "serialpos": 20, "key_press": -1, "wordID": 1520, "type": "PRES_AUD", "trial_index": 137}, "uniqueid": "MTK1898:3HMVI3QICKZ1KO2FDPED2SXZNZYY1P", "dateTime": 1516556639342}, {"current_trial": 138, "trialdata": {"rt": -1000, "trial_type": "single-audio", "word": "brother", "stimulus": "/static/audio/wordpool/BROTHER.wav", "conditions": [24, 1600, "a", 24000], "internal_node_id": "0.0-102.0", "trial": 3, "time_elapsed": 723789, "serialpos": 21, "key_press": -1, "wordID": 178, "type": "PRES_AUD", "trial_index": 138}, "uniqueid": "MTK1898:3HMVI3QICKZ1KO2FDPED2SXZNZYY1P", "dateTime": 1516556641833}, {"current_trial": 139, "trialdata": {"rt": -1000, "trial_type": "single-audio", "word": "camel", "stimulus": "/static/audio/wordpool/CAMEL.wav", "conditions": [24, 1600, "a", 24000], "internal_node_id": "0.0-103.0", "trial": 3, "time_elapsed": 726524, "serialpos": 22, "key_press": -1, "wordID": 222, "type": "PRES_AUD", "trial_index": 139}, "uniqueid": "MTK1898:3HMVI3QICKZ1KO2FDPED2SXZNZYY1P", "dateTime": 1516556644567}, {"current_trial": 140, "trialdata": {"rt": -1000, "trial_type": "single-audio", "word": "backbone", "stimulus": "/static/audio/wordpool/BACKBONE.wav", "conditions": [24, 1600, "a", 24000], "internal_node_id": "0.0-104.0", "trial": 3, "time_elapsed": 729031, "serialpos": 23, "key_press": -1, "wordID": 65, "type": "PRES_AUD", "trial_index": 140}, "uniqueid": "MTK1898:3HMVI3QICKZ1KO2FDPED2SXZNZYY1P", "dateTime": 1516556647074}, {"current_trial": 141, "trialdata": {"rt": -1, "trial_type": "single-stim", "stimulus": "", "internal_node_id": "0.0-105.0-0.0", "time_elapsed": 730401, "key_press": -1, "type": "PRE_RECALL_DELAY", "trial_index": 141}, "uniqueid": "MTK1898:3HMVI3QICKZ1KO2FDPED2SXZNZYY1P", "dateTime": 1516556648445}, {"current_trial": 142, "trialdata": {"rt": -1000, "trial_type": "single-audio", "stimulus": "/static/audio/400Hz.wav", "internal_node_id": "0.0-106.0", "time_elapsed": 730903, "key_press": -1, "type": "PRE_RECALL_ALERT", "trial_index": 142}, "uniqueid": "MTK1898:3HMVI3QICKZ1KO2FDPED2SXZNZYY1P", "dateTime": 1516556648946}, {"current_trial": 143, "trialdata": {"rt": [2886, 5276, 9152, 12848, 16131, 21564, 53080], "recwords": ["backbone", "boyfrind", "cottage", "tutu", "costume", "tourist", "plant"], "key_times": [858, 1082, 1397, 1618, 2033, 2175, 2427, 2634, 2886, 3301, 3433, 3744, 4141, 4427, 4543, 4762, 4942, 5276, 6434, 6926, 7338, 7534, 7722, 7988, 8273, 9152, 10789, 11154, 11426, 11673, 12848, 13731, 14464, 14793, 15057, 15217, 15467, 15803, 16131, 20125, 20280, 20460, 20789, 20983, 21165, 21417, 21564, 51829, 52093, 52287, 52423, 52845, 53080], "trial_type": "free-recall", "conditions": [24, 1600, "a", 24000], "internal_node_id": "0.0-107.0-0.0", "key_presses": [66, 65, 67, 75, 66, 79, 78, 69, 32, 66, 79, 89, 70, 82, 73, 78, 68, 32, 67, 79, 84, 84, 65, 71, 69, 32, 84, 85, 84, 85, 13, 67, 79, 83, 84, 85, 77, 69, 13, 84, 79, 85, 82, 73, 83, 84, 13, 80, 76, 65, 78, 84, 13], "trial": 3, "time_elapsed": 790909, "type": "FREE_RECALL", "trial_index": 143}, "uniqueid": "MTK1898:3HMVI3QICKZ1KO2FDPED2SXZNZYY1P", "dateTime": 1516556708955}, {"current_trial": 144, "trialdata": {"rt": 1789, "trial_type": "text", "internal_node_id": "0.0-108.0", "time_elapsed": 794706, "key_press": 32, "type": "INSTRUCTIONS", "trial_index": 144}, "uniqueid": "MTK1898:3HMVI3QICKZ1KO2FDPED2SXZNZYY1P", "dateTime": 1516556712749}, {"current_trial": 145, "trialdata": {"rt": [5701, 8194, 11465], "trial_type": "math-distractor", "key_times": [4404, 5464, 5701, 7628, 8056, 8194, 10902, 11321, 11465], "responses": ["17", "14", "14"], "num2": [5, 1, 4, 1], "num3": [4, 4, 7, 2], "conditions": [24, 1600, "a", 12000], "internal_node_id": "0.0-109.0", "key_presses": [49, 55, 13, 49, 52, 13, 49, 52, 13], "trial": 4, "time_elapsed": 808716, "type": "DISTRACTOR", "trial_index": 145, "num1": [8, 9, 3, 5]}, "uniqueid": "MTK1898:3HMVI3QICKZ1KO2FDPED2SXZNZYY1P", "dateTime": 1516556726759}, {"current_trial": 146, "trialdata": {"rt": -1, "trial_type": "single-stim", "stimulus": "<p id=\"stim\">10</p>", "internal_node_id": "0.0-110.0-0.0", "time_elapsed": 811722, "key_press": -1, "trial_index": 146}, "uniqueid": "MTK1898:3HMVI3QICKZ1KO2FDPED2SXZNZYY1P", "dateTime": 1516556729765}, {"current_trial": 147, "trialdata": {"rt": -1, "trial_type": "single-stim", "stimulus": "<p id=\"stim\">9</p>", "internal_node_id": "0.0-110.0-1.0", "time_elapsed": 812726, "key_press": -1, "trial_index": 147}, "uniqueid": "MTK1898:3HMVI3QICKZ1KO2FDPED2SXZNZYY1P", "dateTime": 1516556730769}, {"current_trial": 148, "trialdata": {"rt": -1, "trial_type": "single-stim", "stimulus": "<p id=\"stim\">8</p>", "internal_node_id": "0.0-110.0-2.0", "time_elapsed": 813730, "key_press": -1, "trial_index": 148}, "uniqueid": "MTK1898:3HMVI3QICKZ1KO2FDPED2SXZNZYY1P", "dateTime": 1516556731773}, {"current_trial": 149, "trialdata": {"rt": -1, "trial_type": "single-stim", "stimulus": "<p id=\"stim\">7</p>", "internal_node_id": "0.0-110.0-3.0", "time_elapsed": 814734, "key_press": -1, "trial_index": 149}, "uniqueid": "MTK1898:3HMVI3QICKZ1KO2FDPED2SXZNZYY1P", "dateTime": 1516556732777}, {"current_trial": 150, "trialdata": {"rt": -1, "trial_type": "single-stim", "stimulus": "<p id=\"stim\">6</p>", "internal_node_id": "0.0-110.0-4.0", "time_elapsed": 815738, "key_press": -1, "trial_index": 150}, "uniqueid": "MTK1898:3HMVI3QICKZ1KO2FDPED2SXZNZYY1P", "dateTime": 1516556733781}, {"current_trial": 151, "trialdata": {"rt": -1, "trial_type": "single-stim", "stimulus": "<p id=\"stim\">5</p>", "internal_node_id": "0.0-110.0-5.0", "time_elapsed": 816742, "key_press": -1, "trial_index": 151}, "uniqueid": "MTK1898:3HMVI3QICKZ1KO2FDPED2SXZNZYY1P", "dateTime": 1516556734785}, {"current_trial": 152, "trialdata": {"rt": -1, "trial_type": "single-stim", "stimulus": "<p id=\"stim\">4</p>", "internal_node_id": "0.0-110.0-6.0", "time_elapsed": 817746, "key_press": -1, "trial_index": 152}, "uniqueid": "MTK1898:3HMVI3QICKZ1KO2FDPED2SXZNZYY1P", "dateTime": 1516556735790}, {"current_trial": 153, "trialdata": {"rt": -1, "trial_type": "single-stim", "stimulus": "<p id=\"stim\">3</p>", "internal_node_id": "0.0-110.0-7.0", "time_elapsed": 818750, "key_press": -1, "trial_index": 153}, "uniqueid": "MTK1898:3HMVI3QICKZ1KO2FDPED2SXZNZYY1P", "dateTime": 1516556736793}, {"current_trial": 154, "trialdata": {"rt": -1, "trial_type": "single-stim", "stimulus": "<p id=\"stim\">2</p>", "internal_node_id": "0.0-110.0-8.0", "time_elapsed": 819755, "key_press": -1, "trial_index": 154}, "uniqueid": "MTK1898:3HMVI3QICKZ1KO2FDPED2SXZNZYY1P", "dateTime": 1516556737798}, {"current_trial": 155, "trialdata": {"rt": -1, "trial_type": "single-stim", "stimulus": "<p id=\"stim\">1</p>", "internal_node_id": "0.0-110.0-9.0", "time_elapsed": 820759, "key_press": -1, "trial_index": 155}, "uniqueid": "MTK1898:3HMVI3QICKZ1KO2FDPED2SXZNZYY1P", "dateTime": 1516556738802}, {"current_trial": 156, "trialdata": {"rt": -1, "trial_type": "single-stim", "stimulus": "<p id=\"stim\">+</p>", "internal_node_id": "0.0-111.0-0.0", "time_elapsed": 822262, "key_press": -1, "type": "FIXATION", "trial_index": 156}, "uniqueid": "MTK1898:3HMVI3QICKZ1KO2FDPED2SXZNZYY1P", "dateTime": 1516556740305}, {"current_trial": 157, "trialdata": {"rt": -1000, "trial_type": "single-audio", "word": "dragon", "stimulus": "/static/audio/wordpool/DRAGON.wav", "conditions": [24, 1600, "a", 12000], "internal_node_id": "0.0-112.0", "trial": 4, "time_elapsed": 824735, "serialpos": 0, "key_press": -1, "wordID": 491, "type": "PRES_AUD", "trial_index": 157}, "uniqueid": "MTK1898:3HMVI3QICKZ1KO2FDPED2SXZNZYY1P", "dateTime": 1516556742778}, {"current_trial": 158, "trialdata": {"rt": -1000, "trial_type": "single-audio", "word": "barley", "stimulus": "/static/audio/wordpool/BARLEY.wav", "conditions": [24, 1600, "a", 12000], "internal_node_id": "0.0-113.0", "trial": 4, "time_elapsed": 827463, "serialpos": 1, "key_press": -1, "wordID": 87, "type": "PRES_AUD", "trial_index": 158}, "uniqueid": "MTK1898:3HMVI3QICKZ1KO2FDPED2SXZNZYY1P", "dateTime": 1516556745506}, {"current_trial": 159, "trialdata": {"rt": -1000, "trial_type": "single-audio", "word": "antler", "stimulus": "/static/audio/wordpool/ANTLER.wav", "conditions": [24, 1600, "a", 12000], "internal_node_id": "0.0-114.0", "trial": 4, "time_elapsed": 830197, "serialpos": 2, "key_press": -1, "wordID": 28, "type": "PRES_AUD", "trial_index": 159}, "uniqueid": "MTK1898:3HMVI3QICKZ1KO2FDPED2SXZNZYY1P", "dateTime": 1516556748240}, {"current_trial": 160, "trialdata": {"rt": -1000, "trial_type": "single-audio", "word": "bacon", "stimulus": "/static/audio/wordpool/BACON.wav", "conditions": [24, 1600, "a", 12000], "internal_node_id": "0.0-115.0", "trial": 4, "time_elapsed": 832838, "serialpos": 3, "key_press": -1, "wordID": 66, "type": "PRES_AUD", "trial_index": 160}, "uniqueid": "MTK1898:3HMVI3QICKZ1KO2FDPED2SXZNZYY1P", "dateTime": 1516556750881}, {"current_trial": 161, "trialdata": {"rt": -1000, "trial_type": "single-audio", "word": "twig", "stimulus": "/static/audio/wordpool/TWIG.wav", "conditions": [24, 1600, "a", 12000], "internal_node_id": "0.0-116.0", "trial": 4, "time_elapsed": 835462, "serialpos": 4, "key_press": -1, "wordID": 1526, "type": "PRES_AUD", "trial_index": 161}, "uniqueid": "MTK1898:3HMVI3QICKZ1KO2FDPED2SXZNZYY1P", "dateTime": 1516556753505}, {"current_trial": 162, "trialdata": {"rt": -1000, "trial_type": "single-audio", "word": "sword", "stimulus": "/static/audio/wordpool/SWORD.wav", "conditions": [24, 1600, "a", 12000], "internal_node_id": "0.0-117.0", "trial": 4, "time_elapsed": 837929, "serialpos": 5, "key_press": -1, "wordID": 1422, "type": "PRES_AUD", "trial_index": 162}, "uniqueid": "MTK1898:3HMVI3QICKZ1KO2FDPED2SXZNZYY1P", "dateTime": 1516556755972}, {"current_trial": 163, "trialdata": {"rt": -1000, "trial_type": "single-audio", "word": "salad", "stimulus": "/static/audio/wordpool/SALAD.wav", "conditions": [24, 1600, "a", 12000], "internal_node_id": "0.0-118.0", "trial": 4, "time_elapsed": 840466, "serialpos": 6, "key_press": -1, "wordID": 1223, "type": "PRES_AUD", "trial_index": 163}, "uniqueid": "MTK1898:3HMVI3QICKZ1KO2FDPED2SXZNZYY1P", "dateTime": 1516556758509}, {"current_trial": 164, "trialdata": {"rt": -1000, "trial_type": "single-audio", "word": "snail", "stimulus": "/static/audio/wordpool/SNAIL.wav", "conditions": [24, 1600, "a", 12000], "internal_node_id": "0.0-119.0", "trial": 4, "time_elapsed": 843003, "serialpos": 7, "key_press": -1, "wordID": 1331, "type": "PRES_AUD", "trial_index": 164}, "uniqueid": "MTK1898:3HMVI3QICKZ1KO2FDPED2SXZNZYY1P", "dateTime": 1516556761046}, {"current_trial": 165, "trialdata": {"rt": -1000, "trial_type": "single-audio", "word": "tortoise", "stimulus": "/static/audio/wordpool/TORTOISE.wav", "conditions": [24, 1600, "a", 12000], "internal_node_id": "0.0-120.0", "trial": 4, "time_elapsed": 845621, "serialpos": 8, "key_press": -1, "wordID": 1485, "type": "PRES_AUD", "trial_index": 165}, "uniqueid": "MTK1898:3HMVI3QICKZ1KO2FDPED2SXZNZYY1P", "dateTime": 1516556763664}, {"current_trial": 166, "trialdata": {"rt": -1000, "trial_type": "single-audio", "word": "picture", "stimulus": "/static/audio/wordpool/PICTURE.wav", "conditions": [24, 1600, "a", 12000], "internal_node_id": "0.0-121.0", "trial": 4, "time_elapsed": 848042, "serialpos": 9, "key_press": -1, "wordID": 1060, "type": "PRES_AUD", "trial_index": 166}, "uniqueid": "MTK1898:3HMVI3QICKZ1KO2FDPED2SXZNZYY1P", "dateTime": 1516556766085}, {"current_trial": 167, "trialdata": {"rt": -1000, "trial_type": "single-audio", "word": "gavel", "stimulus": "/static/audio/wordpool/GAVEL.wav", "conditions": [24, 1600, "a", 12000], "internal_node_id": "0.0-122.0", "trial": 4, "time_elapsed": 850787, "serialpos": 10, "key_press": -1, "wordID": 626, "type": "PRES_AUD", "trial_index": 167}, "uniqueid": "MTK1898:3HMVI3QICKZ1KO2FDPED2SXZNZYY1P", "dateTime": 1516556768831}, {"current_trial": 168, "trialdata": {"rt": -1000, "trial_type": "single-audio", "word": "salmon", "stimulus": "/static/audio/wordpool/SALMON.wav", "conditions": [24, 1600, "a", 12000], "internal_node_id": "0.0-123.0", "trial": 4, "time_elapsed": 853522, "serialpos": 11, "key_press": -1, "wordID": 1226, "type": "PRES_AUD", "trial_index": 168}, "uniqueid": "MTK1898:3HMVI3QICKZ1KO2FDPED2SXZNZYY1P", "dateTime": 1516556771565}, {"current_trial": 169, "trialdata": {"rt": -1000, "trial_type": "single-audio", "word": "flower", "stimulus": "/static/audio/wordpool/FLOWER.wav", "conditions": [24, 1600, "a", 12000], "internal_node_id": "0.0-124.0", "trial": 4, "time_elapsed": 856232, "serialpos": 12, "key_press": -1, "wordID": 583, "type": "PRES_AUD", "trial_index": 169}, "uniqueid": "MTK1898:3HMVI3QICKZ1KO2FDPED2SXZNZYY1P", "dateTime": 1516556774276}, {"current_trial": 170, "trialdata": {"rt": -1000, "trial_type": "single-audio", "word": "guitar", "stimulus": "/static/audio/wordpool/GUITAR.wav", "conditions": [24, 1600, "a", 12000], "internal_node_id": "0.0-125.0", "trial": 4, "time_elapsed": 858932, "serialpos": 13, "key_press": -1, "wordID": 669, "type": "PRES_AUD", "trial_index": 170}, "uniqueid": "MTK1898:3HMVI3QICKZ1KO2FDPED2SXZNZYY1P", "dateTime": 1516556776975}, {"current_trial": 171, "trialdata": {"rt": -1000, "trial_type": "single-audio", "word": "gymnast", "stimulus": "/static/audio/wordpool/GYMNAST.wav", "conditions": [24, 1600, "a", 12000], "internal_node_id": "0.0-126.0", "trial": 4, "time_elapsed": 861672, "serialpos": 14, "key_press": -1, "wordID": 674, "type": "PRES_AUD", "trial_index": 171}, "uniqueid": "MTK1898:3HMVI3QICKZ1KO2FDPED2SXZNZYY1P", "dateTime": 1516556779715}, {"current_trial": 172, "trialdata": {"rt": -1000, "trial_type": "single-audio", "word": "dancer", "stimulus": "/static/audio/wordpool/DANCER.wav", "conditions": [24, 1600, "a", 12000], "internal_node_id": "0.0-127.0", "trial": 4, "time_elapsed": 864365, "serialpos": 15, "key_press": -1, "wordID": 436, "type": "PRES_AUD", "trial_index": 172}, "uniqueid": "MTK1898:3HMVI3QICKZ1KO2FDPED2SXZNZYY1P", "dateTime": 1516556782408}, {"current_trial": 173, "trialdata": {"rt": -1000, "trial_type": "single-audio", "word": "shirt", "stimulus": "/static/audio/wordpool/SHIRT.wav", "conditions": [24, 1600, "a", 12000], "internal_node_id": "0.0-128.0", "trial": 4, "time_elapsed": 867041, "serialpos": 16, "key_press": -1, "wordID": 1286, "type": "PRES_AUD", "trial_index": 173}, "uniqueid": "MTK1898:3HMVI3QICKZ1KO2FDPED2SXZNZYY1P", "dateTime": 1516556785084}, {"current_trial": 174, "trialdata": {"rt": -1000, "trial_type": "single-audio", "word": "hostess", "stimulus": "/static/audio/wordpool/HOSTESS.wav", "conditions": [24, 1600, "a", 12000], "internal_node_id": "0.0-129.0", "trial": 4, "time_elapsed": 869537, "serialpos": 17, "key_press": -1, "wordID": 722, "type": "PRES_AUD", "trial_index": 174}, "uniqueid": "MTK1898:3HMVI3QICKZ1KO2FDPED2SXZNZYY1P", "dateTime": 1516556787581}, {"current_trial": 175, "trialdata": {"rt": -1000, "trial_type": "single-audio", "word": "lunch", "stimulus": "/static/audio/wordpool/LUNCH.wav", "conditions": [24, 1600, "a", 12000], "internal_node_id": "0.0-130.0", "trial": 4, "time_elapsed": 872103, "serialpos": 18, "key_press": -1, "wordID": 848, "type": "PRES_AUD", "trial_index": 175}, "uniqueid": "MTK1898:3HMVI3QICKZ1KO2FDPED2SXZNZYY1P", "dateTime": 1516556790146}, {"current_trial": 176, "trialdata": {"rt": -1000, "trial_type": "single-audio", "word": "trombone", "stimulus": "/static/audio/wordpool/TROMBONE.wav", "conditions": [24, 1600, "a", 12000], "internal_node_id": "0.0-131.0", "trial": 4, "time_elapsed": 874623, "serialpos": 19, "key_press": -1, "wordID": 1507, "type": "PRES_AUD", "trial_index": 176}, "uniqueid": "MTK1898:3HMVI3QICKZ1KO2FDPED2SXZNZYY1P", "dateTime": 1516556792666}, {"current_trial": 177, "trialdata": {"rt": -1000, "trial_type": "single-audio", "word": "pebble", "stimulus": "/static/audio/wordpool/PEBBLE.wav", "conditions": [24, 1600, "a", 12000], "internal_node_id": "0.0-132.0", "trial": 4, "time_elapsed": 877154, "serialpos": 20, "key_press": -1, "wordID": 1034, "type": "PRES_AUD", "trial_index": 177}, "uniqueid": "MTK1898:3HMVI3QICKZ1KO2FDPED2SXZNZYY1P", "dateTime": 1516556795197}, {"current_trial": 178, "trialdata": {"rt": -1000, "trial_type": "single-audio", "word": "contract", "stimulus": "/static/audio/wordpool/CONTRACT.wav", "conditions": [24, 1600, "a", 12000], "internal_node_id": "0.0-133.0", "trial": 4, "time_elapsed": 879830, "serialpos": 21, "key_press": -1, "wordID": 367, "type": "PRES_AUD", "trial_index": 178}, "uniqueid": "MTK1898:3HMVI3QICKZ1KO2FDPED2SXZNZYY1P", "dateTime": 1516556797873}, {"current_trial": 179, "trialdata": {"rt": -1000, "trial_type": "single-audio", "word": "motel", "stimulus": "/static/audio/wordpool/MOTEL.wav", "conditions": [24, 1600, "a", 12000], "internal_node_id": "0.0-134.0", "trial": 4, "time_elapsed": 882378, "serialpos": 22, "key_press": -1, "wordID": 918, "type": "PRES_AUD", "trial_index": 179}, "uniqueid": "MTK1898:3HMVI3QICKZ1KO2FDPED2SXZNZYY1P", "dateTime": 1516556800421}, {"current_trial": 180, "trialdata": {"rt": -1000, "trial_type": "single-audio", "word": "perfume", "stimulus": "/static/audio/wordpool/PERFUME.wav", "conditions": [24, 1600, "a", 12000], "internal_node_id": "0.0-135.0", "trial": 4, "time_elapsed": 884915, "serialpos": 23, "key_press": -1, "wordID": 1048, "type": "PRES_AUD", "trial_index": 180}, "uniqueid": "MTK1898:3HMVI3QICKZ1KO2FDPED2SXZNZYY1P", "dateTime": 1516556802958}, {"current_trial": 181, "trialdata": {"rt": -1, "trial_type": "single-stim", "stimulus": "", "internal_node_id": "0.0-136.0-0.0", "time_elapsed": 886256, "key_press": -1, "type": "PRE_RECALL_DELAY", "trial_index": 181}, "uniqueid": "MTK1898:3HMVI3QICKZ1KO2FDPED2SXZNZYY1P", "dateTime": 1516556804299}, {"current_trial": 182, "trialdata": {"rt": -1000, "trial_type": "single-audio", "stimulus": "/static/audio/400Hz.wav", "internal_node_id": "0.0-137.0", "time_elapsed": 886758, "key_press": -1, "type": "PRE_RECALL_ALERT", "trial_index": 182}, "uniqueid": "MTK1898:3HMVI3QICKZ1KO2FDPED2SXZNZYY1P", "dateTime": 1516556804801}, {"current_trial": 183, "trialdata": {"rt": [8481, 10886, 14195, 38088, 40681, 48007], "recwords": ["perfume", "patrol", "pebble", "snail", "oyster", "control"], "key_times": [6687, 6949, 7141, 7585, 7733, 8003, 8225, 8481, 9317, 9478, 9724, 9961, 10130, 10435, 10886, 11147, 11932, 12538, 12757, 13376, 13555, 13658, 13892, 14195, 35541, 35898, 36400, 36808, 37153, 38088, 39045, 39498, 39797, 40078, 40338, 40485, 40681, 46394, 46533, 46771, 46973, 47229, 47421, 47678, 48007], "trial_type": "free-recall", "conditions": [24, 1600, "a", 12000], "internal_node_id": "0.0-138.0-0.0", "key_presses": [80, 69, 82, 70, 85, 77, 69, 32, 80, 65, 84, 82, 79, 76, 32, 66, 8, 80, 69, 66, 66, 76, 69, 13, 83, 78, 65, 73, 76, 32, 79, 89, 83, 84, 69, 82, 13, 67, 79, 78, 84, 82, 79, 76, 13], "trial": 4, "time_elapsed": 946764, "type": "FREE_RECALL", "trial_index": 183}, "uniqueid": "MTK1898:3HMVI3QICKZ1KO2FDPED2SXZNZYY1P", "dateTime": 1516556864810}, {"current_trial": 184, "trialdata": {"rt": 1320, "trial_type": "text", "internal_node_id": "0.0-139.0", "time_elapsed": 950091, "key_press": 32, "type": "INSTRUCTIONS", "trial_index": 184}, "uniqueid": "MTK1898:3HMVI3QICKZ1KO2FDPED2SXZNZYY1P", "dateTime": 1516556868135}, {"current_trial": 185, "trialdata": {"rt": [3358, 10167], "trial_type": "math-distractor", "key_times": [1824, 2737, 3358, 7078, 7473, 8136, 8496, 8917, 9091, 9423, 9575, 10167, 11884], "responses": ["19", "21"], "num2": [8, 9, 3], "num3": [3, 6, 5], "conditions": [24, 800, "a", 12000], "internal_node_id": "0.0-140.0", "key_presses": [49, 57, 13, 49, 50, 8, 50, 8, 8, 50, 49, 13, 49], "trial": 5, "time_elapsed": 964100, "type": "DISTRACTOR", "trial_index": 185, "num1": [8, 6, 3]}, "uniqueid": "MTK1898:3HMVI3QICKZ1KO2FDPED2SXZNZYY1P", "dateTime": 1516556882143}, {"current_trial": 186, "trialdata": {"rt": -1, "trial_type": "single-stim", "stimulus": "<p id=\"stim\">10</p>", "internal_node_id": "0.0-141.0-0.0", "time_elapsed": 967108, "key_press": -1, "trial_index": 186}, "uniqueid": "MTK1898:3HMVI3QICKZ1KO2FDPED2SXZNZYY1P", "dateTime": 1516556885151}, {"current_trial": 187, "trialdata": {"rt": -1, "trial_type": "single-stim", "stimulus": "<p id=\"stim\">9</p>", "internal_node_id": "0.0-141.0-1.0", "time_elapsed": 968110, "key_press": -1, "trial_index": 187}, "uniqueid": "MTK1898:3HMVI3QICKZ1KO2FDPED2SXZNZYY1P", "dateTime": 1516556886154}, {"current_trial": 188, "trialdata": {"rt": -1, "trial_type": "single-stim", "stimulus": "<p id=\"stim\">8</p>", "internal_node_id": "0.0-141.0-2.0", "time_elapsed": 969115, "key_press": -1, "trial_index": 188}, "uniqueid": "MTK1898:3HMVI3QICKZ1KO2FDPED2SXZNZYY1P", "dateTime": 1516556887158}, {"current_trial": 189, "trialdata": {"rt": -1, "trial_type": "single-stim", "stimulus": "<p id=\"stim\">7</p>", "internal_node_id": "0.0-141.0-3.0", "time_elapsed": 970119, "key_press": -1, "trial_index": 189}, "uniqueid": "MTK1898:3HMVI3QICKZ1KO2FDPED2SXZNZYY1P", "dateTime": 1516556888162}, {"current_trial": 190, "trialdata": {"rt": -1, "trial_type": "single-stim", "stimulus": "<p id=\"stim\">6</p>", "internal_node_id": "0.0-141.0-4.0", "time_elapsed": 971123, "key_press": -1, "trial_index": 190}, "uniqueid": "MTK1898:3HMVI3QICKZ1KO2FDPED2SXZNZYY1P", "dateTime": 1516556889166}, {"current_trial": 191, "trialdata": {"rt": -1, "trial_type": "single-stim", "stimulus": "<p id=\"stim\">5</p>", "internal_node_id": "0.0-141.0-5.0", "time_elapsed": 972127, "key_press": -1, "trial_index": 191}, "uniqueid": "MTK1898:3HMVI3QICKZ1KO2FDPED2SXZNZYY1P", "dateTime": 1516556890170}, {"current_trial": 192, "trialdata": {"rt": -1, "trial_type": "single-stim", "stimulus": "<p id=\"stim\">4</p>", "internal_node_id": "0.0-141.0-6.0", "time_elapsed": 973131, "key_press": -1, "trial_index": 192}, "uniqueid": "MTK1898:3HMVI3QICKZ1KO2FDPED2SXZNZYY1P", "dateTime": 1516556891174}, {"current_trial": 193, "trialdata": {"rt": -1, "trial_type": "single-stim", "stimulus": "<p id=\"stim\">3</p>", "internal_node_id": "0.0-141.0-7.0", "time_elapsed": 974135, "key_press": -1, "trial_index": 193}, "uniqueid": "MTK1898:3HMVI3QICKZ1KO2FDPED2SXZNZYY1P", "dateTime": 1516556892178}, {"current_trial": 194, "trialdata": {"rt": -1, "trial_type": "single-stim", "stimulus": "<p id=\"stim\">2</p>", "internal_node_id": "0.0-141.0-8.0", "time_elapsed": 975139, "key_press": -1, "trial_index": 194}, "uniqueid": "MTK1898:3HMVI3QICKZ1KO2FDPED2SXZNZYY1P", "dateTime": 1516556893182}, {"current_trial": 195, "trialdata": {"rt": -1, "trial_type": "single-stim", "stimulus": "<p id=\"stim\">1</p>", "internal_node_id": "0.0-141.0-9.0", "time_elapsed": 976143, "key_press": -1, "trial_index": 195}, "uniqueid": "MTK1898:3HMVI3QICKZ1KO2FDPED2SXZNZYY1P", "dateTime": 1516556894186}, {"current_trial": 196, "trialdata": {"rt": -1, "trial_type": "single-stim", "stimulus": "<p id=\"stim\">+</p>", "internal_node_id": "0.0-142.0-0.0", "time_elapsed": 977646, "key_press": -1, "type": "FIXATION", "trial_index": 196}, "uniqueid": "MTK1898:3HMVI3QICKZ1KO2FDPED2SXZNZYY1P", "dateTime": 1516556895690}, {"current_trial": 197, "trialdata": {"rt": -1000, "trial_type": "single-audio", "word": "agent", "stimulus": "/static/audio/wordpool/AGENT.wav", "conditions": [24, 800, "a", 12000], "internal_node_id": "0.0-143.0", "trial": 5, "time_elapsed": 979261, "serialpos": 0, "key_press": -1, "wordID": 9, "type": "PRES_AUD", "trial_index": 197}, "uniqueid": "MTK1898:3HMVI3QICKZ1KO2FDPED2SXZNZYY1P", "dateTime": 1516556897304}, {"current_trial": 198, "trialdata": {"rt": -1000, "trial_type": "single-audio", "word": "chest", "stimulus": "/static/audio/wordpool/CHEST.wav", "conditions": [24, 800, "a", 12000], "internal_node_id": "0.0-144.0", "trial": 5, "time_elapsed": 981099, "serialpos": 1, "key_press": -1, "wordID": 294, "type": "PRES_AUD", "trial_index": 198}, "uniqueid": "MTK1898:3HMVI3QICKZ1KO2FDPED2SXZNZYY1P", "dateTime": 1516556899142}, {"current_trial": 199, "trialdata": {"rt": -1000, "trial_type": "single-audio", "word": "beaver", "stimulus": "/static/audio/wordpool/BEAVER.wav", "conditions": [24, 800, "a", 12000], "internal_node_id": "0.0-145.0", "trial": 5, "time_elapsed": 982883, "serialpos": 2, "key_press": -1, "wordID": 108, "type": "PRES_AUD", "trial_index": 199}, "uniqueid": "MTK1898:3HMVI3QICKZ1KO2FDPED2SXZNZYY1P", "dateTime": 1516556900926}, {"current_trial": 200, "trialdata": {"rt": -1000, "trial_type": "single-audio", "word": "jello", "stimulus": "/static/audio/wordpool/JELLO.wav", "conditions": [24, 800, "a", 12000], "internal_node_id": "0.0-146.0", "trial": 5, "time_elapsed": 984700, "serialpos": 3, "key_press": -1, "wordID": 753, "type": "PRES_AUD", "trial_index": 200}, "uniqueid": "MTK1898:3HMVI3QICKZ1KO2FDPED2SXZNZYY1P", "dateTime": 1516556902743}, {"current_trial": 201, "trialdata": {"rt": -1000, "trial_type": "single-audio", "word": "husband", "stimulus": "/static/audio/wordpool/HUSBAND.wav", "conditions": [24, 800, "a", 12000], "internal_node_id": "0.0-147.0", "trial": 5, "time_elapsed": 986505, "serialpos": 4, "key_press": -1, "wordID": 727, "type": "PRES_AUD", "trial_index": 201}, "uniqueid": "MTK1898:3HMVI3QICKZ1KO2FDPED2SXZNZYY1P", "dateTime": 1516556904549}, {"current_trial": 202, "trialdata": {"rt": -1000, "trial_type": "single-audio", "word": "county", "stimulus": "/static/audio/wordpool/COUNTY.wav", "conditions": [24, 800, "a", 12000], "internal_node_id": "0.0-148.0", "trial": 5, "time_elapsed": 988264, "serialpos": 5, "key_press": -1, "wordID": 388, "type": "PRES_AUD", "trial_index": 202}, "uniqueid": "MTK1898:3HMVI3QICKZ1KO2FDPED2SXZNZYY1P", "dateTime": 1516556906308}, {"current_trial": 203, "trialdata": {"rt": -1000, "trial_type": "single-audio", "word": "sheriff", "stimulus": "/static/audio/wordpool/SHERIFF.wav", "conditions": [24, 800, "a", 12000], "internal_node_id": "0.0-149.0", "trial": 5, "time_elapsed": 989901, "serialpos": 6, "key_press": -1, "wordID": 1283, "type": "PRES_AUD", "trial_index": 203}, "uniqueid": "MTK1898:3HMVI3QICKZ1KO2FDPED2SXZNZYY1P", "dateTime": 1516556907944}, {"current_trial": 204, "trialdata": {"rt": -1000, "trial_type": "single-audio", "word": "window", "stimulus": "/static/audio/wordpool/WINDOW.wav", "conditions": [24, 800, "a", 12000], "internal_node_id": "0.0-150.0", "trial": 5, "time_elapsed": 991788, "serialpos": 7, "key_press": -1, "wordID": 1610, "type": "PRES_AUD", "trial_index": 204}, "uniqueid": "MTK1898:3HMVI3QICKZ1KO2FDPED2SXZNZYY1P", "dateTime": 1516556909831}, {"current_trial": 205, "trialdata": {"rt": -1000, "trial_type": "single-audio", "word": "finger", "stimulus": "/static/audio/wordpool/FINGER.wav", "conditions": [24, 800, "a", 12000], "internal_node_id": "0.0-151.0", "trial": 5, "time_elapsed": 993657, "serialpos": 8, "key_press": -1, "wordID": 566, "type": "PRES_AUD", "trial_index": 205}, "uniqueid": "MTK1898:3HMVI3QICKZ1KO2FDPED2SXZNZYY1P", "dateTime": 1516556911700}, {"current_trial": 206, "trialdata": {"rt": -1000, "trial_type": "single-audio", "word": "victim", "stimulus": "/static/audio/wordpool/VICTIM.wav", "conditions": [24, 800, "a", 12000], "internal_node_id": "0.0-152.0", "trial": 5, "time_elapsed": 995625, "serialpos": 9, "key_press": -1, "wordID": 1561, "type": "PRES_AUD", "trial_index": 206}, "uniqueid": "MTK1898:3HMVI3QICKZ1KO2FDPED2SXZNZYY1P", "dateTime": 1516556913668}, {"current_trial": 207, "trialdata": {"rt": -1000, "trial_type": "single-audio", "word": "spouse", "stimulus": "/static/audio/wordpool/SPOUSE.wav", "conditions": [24, 800, "a", 12000], "internal_node_id": "0.0-153.0", "trial": 5, "time_elapsed": 997374, "serialpos": 10, "key_press": -1, "wordID": 1357, "type": "PRES_AUD", "trial_index": 207}, "uniqueid": "MTK1898:3HMVI3QICKZ1KO2FDPED2SXZNZYY1P", "dateTime": 1516556915418}, {"current_trial": 208, "trialdata": {"rt": -1000, "trial_type": "single-audio", "word": "zipper", "stimulus": "/static/audio/wordpool/ZIPPER.wav", "conditions": [24, 800, "a", 12000], "internal_node_id": "0.0-154.0", "trial": 5, "time_elapsed": 999369, "serialpos": 11, "key_press": -1, "wordID": 1635, "type": "PRES_AUD", "trial_index": 208}, "uniqueid": "MTK1898:3HMVI3QICKZ1KO2FDPED2SXZNZYY1P", "dateTime": 1516556917412}, {"current_trial": 209, "trialdata": {"rt": -1000, "trial_type": "single-audio", "word": "student", "stimulus": "/static/audio/wordpool/STUDENT.wav", "conditions": [24, 800, "a", 12000], "internal_node_id": "0.0-155.0", "trial": 5, "time_elapsed": 1001209, "serialpos": 12, "key_press": -1, "wordID": 1394, "type": "PRES_AUD", "trial_index": 209}, "uniqueid": "MTK1898:3HMVI3QICKZ1KO2FDPED2SXZNZYY1P", "dateTime": 1516556919253}, {"current_trial": 210, "trialdata": {"rt": -1000, "trial_type": "single-audio", "word": "thief", "stimulus": "/static/audio/wordpool/THIEF.wav", "conditions": [24, 800, "a", 12000], "internal_node_id": "0.0-156.0", "trial": 5, "time_elapsed": 1002928, "serialpos": 13, "key_press": -1, "wordID": 1455, "type": "PRES_AUD", "trial_index": 210}, "uniqueid": "MTK1898:3HMVI3QICKZ1KO2FDPED2SXZNZYY1P", "dateTime": 1516556920971}, {"current_trial": 211, "trialdata": {"rt": -1000, "trial_type": "single-audio", "word": "venus", "stimulus": "/static/audio/wordpool/VENUS.wav", "conditions": [24, 800, "a", 12000], "internal_node_id": "0.0-157.0", "trial": 5, "time_elapsed": 1004721, "serialpos": 14, "key_press": -1, "wordID": 1556, "type": "PRES_AUD", "trial_index": 211}, "uniqueid": "MTK1898:3HMVI3QICKZ1KO2FDPED2SXZNZYY1P", "dateTime": 1516556922765}, {"current_trial": 212, "trialdata": {"rt": -1000, "trial_type": "single-audio", "word": "teacher", "stimulus": "/static/audio/wordpool/TEACHER.wav", "conditions": [24, 800, "a", 12000], "internal_node_id": "0.0-158.0", "trial": 5, "time_elapsed": 1006347, "serialpos": 15, "key_press": -1, "wordID": 1439, "type": "PRES_AUD", "trial_index": 212}, "uniqueid": "MTK1898:3HMVI3QICKZ1KO2FDPED2SXZNZYY1P", "dateTime": 1516556924390}, {"current_trial": 213, "trialdata": {"rt": -1000, "trial_type": "single-audio", "word": "ground", "stimulus": "/static/audio/wordpool/GROUND.wav", "conditions": [24, 800, "a", 12000], "internal_node_id": "0.0-159.0", "trial": 5, "time_elapsed": 1008344, "serialpos": 16, "key_press": -1, "wordID": 665, "type": "PRES_AUD", "trial_index": 213}, "uniqueid": "MTK1898:3HMVI3QICKZ1KO2FDPED2SXZNZYY1P", "dateTime": 1516556926387}, {"current_trial": 214, "trialdata": {"rt": -1000, "trial_type": "single-audio", "word": "sister", "stimulus": "/static/audio/wordpool/SISTER.wav", "conditions": [24, 800, "a", 12000], "internal_node_id": "0.0-160.0", "trial": 5, "time_elapsed": 1009952, "serialpos": 17, "key_press": -1, "wordID": 1311, "type": "PRES_AUD", "trial_index": 214}, "uniqueid": "MTK1898:3HMVI3QICKZ1KO2FDPED2SXZNZYY1P", "dateTime": 1516556927995}, {"current_trial": 215, "trialdata": {"rt": -1000, "trial_type": "single-audio", "word": "seagull", "stimulus": "/static/audio/wordpool/SEAGULL.wav", "conditions": [24, 800, "a", 12000], "internal_node_id": "0.0-161.0", "trial": 5, "time_elapsed": 1011624, "serialpos": 18, "key_press": -1, "wordID": 1260, "type": "PRES_AUD", "trial_index": 215}, "uniqueid": "MTK1898:3HMVI3QICKZ1KO2FDPED2SXZNZYY1P", "dateTime": 1516556929667}, {"current_trial": 216, "trialdata": {"rt": -1000, "trial_type": "single-audio", "word": "shark", "stimulus": "/static/audio/wordpool/SHARK.wav", "conditions": [24, 800, "a", 12000], "internal_node_id": "0.0-162.0", "trial": 5, "time_elapsed": 1013597, "serialpos": 19, "key_press": -1, "wordID": 1274, "type": "PRES_AUD", "trial_index": 216}, "uniqueid": "MTK1898:3HMVI3QICKZ1KO2FDPED2SXZNZYY1P", "dateTime": 1516556931640}, {"current_trial": 217, "trialdata": {"rt": -1000, "trial_type": "single-audio", "word": "world", "stimulus": "/static/audio/wordpool/WORLD.wav", "conditions": [24, 800, "a", 12000], "internal_node_id": "0.0-163.0", "trial": 5, "time_elapsed": 1015519, "serialpos": 20, "key_press": -1, "wordID": 1621, "type": "PRES_AUD", "trial_index": 217}, "uniqueid": "MTK1898:3HMVI3QICKZ1KO2FDPED2SXZNZYY1P", "dateTime": 1516556933562}, {"current_trial": 218, "trialdata": {"rt": -1000, "trial_type": "single-audio", "word": "beast", "stimulus": "/static/audio/wordpool/BEAST.wav", "conditions": [24, 800, "a", 12000], "internal_node_id": "0.0-164.0", "trial": 5, "time_elapsed": 1017446, "serialpos": 21, "key_press": -1, "wordID": 107, "type": "PRES_AUD", "trial_index": 218}, "uniqueid": "MTK1898:3HMVI3QICKZ1KO2FDPED2SXZNZYY1P", "dateTime": 1516556935489}, {"current_trial": 219, "trialdata": {"rt": -1000, "trial_type": "single-audio", "word": "rabbit", "stimulus": "/static/audio/wordpool/RABBIT.wav", "conditions": [24, 800, "a", 12000], "internal_node_id": "0.0-165.0", "trial": 5, "time_elapsed": 1019350, "serialpos": 22, "key_press": -1, "wordID": 1151, "type": "PRES_AUD", "trial_index": 219}, "uniqueid": "MTK1898:3HMVI3QICKZ1KO2FDPED2SXZNZYY1P", "dateTime": 1516556937393}, {"current_trial": 220, "trialdata": {"rt": -1000, "trial_type": "single-audio", "word": "pigeon", "stimulus": "/static/audio/wordpool/PIGEON.wav", "conditions": [24, 800, "a", 12000], "internal_node_id": "0.0-166.0", "trial": 5, "time_elapsed": 1021062, "serialpos": 23, "key_press": -1, "wordID": 1064, "type": "PRES_AUD", "trial_index": 220}, "uniqueid": "MTK1898:3HMVI3QICKZ1KO2FDPED2SXZNZYY1P", "dateTime": 1516556939106}, {"current_trial": 221, "trialdata": {"rt": -1, "trial_type": "single-stim", "stimulus": "", "internal_node_id": "0.0-167.0-0.0", "time_elapsed": 1022293, "key_press": -1, "type": "PRE_RECALL_DELAY", "trial_index": 221}, "uniqueid": "MTK1898:3HMVI3QICKZ1KO2FDPED2SXZNZYY1P", "dateTime": 1516556940336}, {"current_trial": 222, "trialdata": {"rt": -1000, "trial_type": "single-audio", "stimulus": "/static/audio/400Hz.wav", "internal_node_id": "0.0-168.0", "time_elapsed": 1022795, "key_press": -1, "type": "PRE_RECALL_ALERT", "trial_index": 222}, "uniqueid": "MTK1898:3HMVI3QICKZ1KO2FDPED2SXZNZYY1P", "dateTime": 1516556940838}, {"current_trial": 223, "trialdata": {"rt": [1883, 3146, 4727, 6493, 9909, 14984, 18447, 45567, 52296], "recwords": ["shark", "eagle", "beast", "pigion", "school", "husband", "agent", "snail", "costume"], "key_times": [596, 756, 937, 1219, 1629, 1883, 2068, 2281, 2547, 2750, 2982, 3146, 3407, 3662, 3956, 4210, 4587, 4727, 5043, 5250, 5529, 5696, 5833, 6111, 6493, 8552, 8807, 8954, 9147, 9320, 9562, 9909, 11108, 11345, 11545, 12047, 12230, 12409, 13141, 13430, 13677, 13971, 14228, 14352, 14636, 14984, 17264, 17615, 17887, 18011, 18270, 18447, 43775, 44128, 44316, 44671, 45172, 45567, 49517, 49838, 50349, 51478, 51529, 51924, 52068, 52296], "trial_type": "free-recall", "conditions": [24, 800, "a", 12000], "internal_node_id": "0.0-169.0-0.0", "key_presses": [83, 72, 65, 82, 75, 32, 69, 65, 71, 76, 69, 32, 66, 69, 65, 83, 84, 32, 80, 73, 71, 73, 79, 78, 32, 83, 67, 72, 79, 79, 76, 32, 74, 85, 83, 8, 8, 8, 72, 85, 83, 66, 65, 78, 68, 13, 65, 71, 69, 78, 84, 13, 83, 78, 65, 73, 76, 32, 67, 79, 83, 84, 85, 77, 69, 13], "trial": 5, "time_elapsed": 1082801, "type": "FREE_RECALL", "trial_index": 223}, "uniqueid": "MTK1898:3HMVI3QICKZ1KO2FDPED2SXZNZYY1P", "dateTime": 1516557000848}, {"current_trial": 224, "trialdata": {"rt": 1066, "trial_type": "text", "internal_node_id": "0.0-170.0", "time_elapsed": 1085874, "key_press": 32, "type": "INSTRUCTIONS", "trial_index": 224}, "uniqueid": "MTK1898:3HMVI3QICKZ1KO2FDPED2SXZNZYY1P", "dateTime": 1516557003917}, {"current_trial": 225, "trialdata": {"rt": [3714, 5782, 7993, 10776, 14360, 17302, 20719, 23131], "trial_type": "math-distractor", "key_times": [2636, 3220, 3714, 5308, 5570, 5782, 7557, 7760, 7993, 9546, 10152, 10776, 13484, 14129, 14360, 16509, 17029, 17302, 20103, 20525, 20719, 22435, 22935, 23131], "responses": ["27", "12", "11", "10", "16", "14", "14", "15"], "num2": [9, 5, 4, 3, 9, 3, 6, 3, 4], "num3": [9, 2, 5, 6, 3, 2, 1, 3, 6], "conditions": [12, 1600, "a", 24000], "internal_node_id": "0.0-171.0", "key_presses": [50, 55, 13, 49, 50, 13, 49, 49, 13, 49, 48, 13, 49, 54, 13, 49, 52, 13, 49, 52, 13, 49, 53, 13], "trial": 6, "time_elapsed": 1111885, "type": "DISTRACTOR", "trial_index": 225, "num1": [9, 5, 2, 1, 4, 9, 7, 9, 1]}, "uniqueid": "MTK1898:3HMVI3QICKZ1KO2FDPED2SXZNZYY1P", "dateTime": 1516557029928}, {"current_trial": 226, "trialdata": {"rt": -1, "trial_type": "single-stim", "stimulus": "<p id=\"stim\">10</p>", "internal_node_id": "0.0-172.0-0.0", "time_elapsed": 1114891, "key_press": -1, "trial_index": 226}, "uniqueid": "MTK1898:3HMVI3QICKZ1KO2FDPED2SXZNZYY1P", "dateTime": 1516557032934}, {"current_trial": 227, "trialdata": {"rt": -1, "trial_type": "single-stim", "stimulus": "<p id=\"stim\">9</p>", "internal_node_id": "0.0-172.0-1.0", "time_elapsed": 1115895, "key_press": -1, "trial_index": 227}, "uniqueid": "MTK1898:3HMVI3QICKZ1KO2FDPED2SXZNZYY1P", "dateTime": 1516557033938}, {"current_trial": 228, "trialdata": {"rt": -1, "trial_type": "single-stim", "stimulus": "<p id=\"stim\">8</p>", "internal_node_id": "0.0-172.0-2.0", "time_elapsed": 1116899, "key_press": -1, "trial_index": 228}, "uniqueid": "MTK1898:3HMVI3QICKZ1KO2FDPED2SXZNZYY1P", "dateTime": 1516557034942}, {"current_trial": 229, "trialdata": {"rt": -1, "trial_type": "single-stim", "stimulus": "<p id=\"stim\">7</p>", "internal_node_id": "0.0-172.0-3.0", "time_elapsed": 1117903, "key_press": -1, "trial_index": 229}, "uniqueid": "MTK1898:3HMVI3QICKZ1KO2FDPED2SXZNZYY1P", "dateTime": 1516557035947}, {"current_trial": 230, "trialdata": {"rt": -1, "trial_type": "single-stim", "stimulus": "<p id=\"stim\">6</p>", "internal_node_id": "0.0-172.0-4.0", "time_elapsed": 1118907, "key_press": -1, "trial_index": 230}, "uniqueid": "MTK1898:3HMVI3QICKZ1KO2FDPED2SXZNZYY1P", "dateTime": 1516557036950}, {"current_trial": 231, "trialdata": {"rt": -1, "trial_type": "single-stim", "stimulus": "<p id=\"stim\">5</p>", "internal_node_id": "0.0-172.0-5.0", "time_elapsed": 1119911, "key_press": -1, "trial_index": 231}, "uniqueid": "MTK1898:3HMVI3QICKZ1KO2FDPED2SXZNZYY1P", "dateTime": 1516557037954}, {"current_trial": 232, "trialdata": {"rt": -1, "trial_type": "single-stim", "stimulus": "<p id=\"stim\">4</p>", "internal_node_id": "0.0-172.0-6.0", "time_elapsed": 1120915, "key_press": -1, "trial_index": 232}, "uniqueid": "MTK1898:3HMVI3QICKZ1KO2FDPED2SXZNZYY1P", "dateTime": 1516557038960}, {"current_trial": 233, "trialdata": {"rt": -1, "trial_type": "single-stim", "stimulus": "<p id=\"stim\">3</p>", "internal_node_id": "0.0-172.0-7.0", "time_elapsed": 1121920, "key_press": -1, "trial_index": 233}, "uniqueid": "MTK1898:3HMVI3QICKZ1KO2FDPED2SXZNZYY1P", "dateTime": 1516557039963}, {"current_trial": 234, "trialdata": {"rt": -1, "trial_type": "single-stim", "stimulus": "<p id=\"stim\">2</p>", "internal_node_id": "0.0-172.0-8.0", "time_elapsed": 1122924, "key_press": -1, "trial_index": 234}, "uniqueid": "MTK1898:3HMVI3QICKZ1KO2FDPED2SXZNZYY1P", "dateTime": 1516557040967}, {"current_trial": 235, "trialdata": {"rt": -1, "trial_type": "single-stim", "stimulus": "<p id=\"stim\">1</p>", "internal_node_id": "0.0-172.0-9.0", "time_elapsed": 1123928, "key_press": -1, "trial_index": 235}, "uniqueid": "MTK1898:3HMVI3QICKZ1KO2FDPED2SXZNZYY1P", "dateTime": 1516557041971}, {"current_trial": 236, "trialdata": {"rt": -1, "trial_type": "single-stim", "stimulus": "<p id=\"stim\">+</p>", "internal_node_id": "0.0-173.0-0.0", "time_elapsed": 1125431, "key_press": -1, "type": "FIXATION", "trial_index": 236}, "uniqueid": "MTK1898:3HMVI3QICKZ1KO2FDPED2SXZNZYY1P", "dateTime": 1516557043474}, {"current_trial": 237, "trialdata": {"rt": -1000, "trial_type": "single-audio", "word": "blueprint", "stimulus": "/static/audio/wordpool/BLUEPRINT.wav", "conditions": [12, 1600, "a", 24000], "internal_node_id": "0.0-174.0", "trial": 6, "time_elapsed": 1127876, "serialpos": 0, "key_press": -1, "wordID": 141, "type": "PRES_AUD", "trial_index": 237}, "uniqueid": "MTK1898:3HMVI3QICKZ1KO2FDPED2SXZNZYY1P", "dateTime": 1516557045919}, {"current_trial": 238, "trialdata": {"rt": -1000, "trial_type": "single-audio", "word": "sausage", "stimulus": "/static/audio/wordpool/SAUSAGE.wav", "conditions": [12, 1600, "a", 24000], "internal_node_id": "0.0-175.0", "trial": 6, "time_elapsed": 1130343, "serialpos": 1, "key_press": -1, "wordID": 1237, "type": "PRES_AUD", "trial_index": 238}, "uniqueid": "MTK1898:3HMVI3QICKZ1KO2FDPED2SXZNZYY1P", "dateTime": 1516557048386}, {"current_trial": 239, "trialdata": {"rt": -1000, "trial_type": "single-audio", "word": "cousin", "stimulus": "/static/audio/wordpool/COUSIN.wav", "conditions": [12, 1600, "a", 24000], "internal_node_id": "0.0-176.0", "trial": 6, "time_elapsed": 1132996, "serialpos": 2, "key_press": -1, "wordID": 391, "type": "PRES_AUD", "trial_index": 239}, "uniqueid": "MTK1898:3HMVI3QICKZ1KO2FDPED2SXZNZYY1P", "dateTime": 1516557051039}, {"current_trial": 240, "trialdata": {"rt": -1000, "trial_type": "single-audio", "word": "sparrow", "stimulus": "/static/audio/wordpool/SPARROW.wav", "conditions": [12, 1600, "a", 24000], "internal_node_id": "0.0-177.0", "trial": 6, "time_elapsed": 1135608, "serialpos": 3, "key_press": -1, "wordID": 1346, "type": "PRES_AUD", "trial_index": 240}, "uniqueid": "MTK1898:3HMVI3QICKZ1KO2FDPED2SXZNZYY1P", "dateTime": 1516557053651}, {"current_trial": 241, "trialdata": {"rt": -1000, "trial_type": "single-audio", "word": "wasp", "stimulus": "/static/audio/wordpool/WASP.wav", "conditions": [12, 1600, "a", 24000], "internal_node_id": "0.0-178.0", "trial": 6, "time_elapsed": 1138064, "serialpos": 4, "key_press": -1, "wordID": 1592, "type": "PRES_AUD", "trial_index": 241}, "uniqueid": "MTK1898:3HMVI3QICKZ1KO2FDPED2SXZNZYY1P", "dateTime": 1516557056107}, {"current_trial": 242, "trialdata": {"rt": -1000, "trial_type": "single-audio", "word": "belly", "stimulus": "/static/audio/wordpool/BELLY.wav", "conditions": [12, 1600, "a", 24000], "internal_node_id": "0.0-179.0", "trial": 6, "time_elapsed": 1140606, "serialpos": 5, "key_press": -1, "wordID": 118, "type": "PRES_AUD", "trial_index": 242}, "uniqueid": "MTK1898:3HMVI3QICKZ1KO2FDPED2SXZNZYY1P", "dateTime": 1516557058650}, {"current_trial": 243, "trialdata": {"rt": -1000, "trial_type": "single-audio", "word": "pasta", "stimulus": "/static/audio/wordpool/PASTA.wav", "conditions": [12, 1600, "a", 24000], "internal_node_id": "0.0-180.0", "trial": 6, "time_elapsed": 1143091, "serialpos": 6, "key_press": -1, "wordID": 1020, "type": "PRES_AUD", "trial_index": 243}, "uniqueid": "MTK1898:3HMVI3QICKZ1KO2FDPED2SXZNZYY1P", "dateTime": 1516557061134}, {"current_trial": 244, "trialdata": {"rt": -1000, "trial_type": "single-audio", "word": "europe", "stimulus": "/static/audio/wordpool/EUROPE.wav", "conditions": [12, 1600, "a", 24000], "internal_node_id": "0.0-181.0", "trial": 6, "time_elapsed": 1145500, "serialpos": 7, "key_press": -1, "wordID": 540, "type": "PRES_AUD", "trial_index": 244}, "uniqueid": "MTK1898:3HMVI3QICKZ1KO2FDPED2SXZNZYY1P", "dateTime": 1516557063543}, {"current_trial": 245, "trialdata": {"rt": -1000, "trial_type": "single-audio", "word": "asia", "stimulus": "/static/audio/wordpool/ASIA.wav", "conditions": [12, 1600, "a", 24000], "internal_node_id": "0.0-182.0", "trial": 6, "time_elapsed": 1148095, "serialpos": 8, "key_press": -1, "wordID": 45, "type": "PRES_AUD", "trial_index": 245}, "uniqueid": "MTK1898:3HMVI3QICKZ1KO2FDPED2SXZNZYY1P", "dateTime": 1516557066138}, {"current_trial": 246, "trialdata": {"rt": -1000, "trial_type": "single-audio", "word": "captive", "stimulus": "/static/audio/wordpool/CAPTIVE.wav", "conditions": [12, 1600, "a", 24000], "internal_node_id": "0.0-183.0", "trial": 6, "time_elapsed": 1150521, "serialpos": 9, "key_press": -1, "wordID": 239, "type": "PRES_AUD", "trial_index": 246}, "uniqueid": "MTK1898:3HMVI3QICKZ1KO2FDPED2SXZNZYY1P", "dateTime": 1516557068564}, {"current_trial": 247, "trialdata": {"rt": -1000, "trial_type": "single-audio", "word": "fungus", "stimulus": "/static/audio/wordpool/FUNGUS.wav", "conditions": [12, 1600, "a", 24000], "internal_node_id": "0.0-184.0", "trial": 6, "time_elapsed": 1152983, "serialpos": 10, "key_press": -1, "wordID": 613, "type": "PRES_AUD", "trial_index": 247}, "uniqueid": "MTK1898:3HMVI3QICKZ1KO2FDPED2SXZNZYY1P", "dateTime": 1516557071026}, {"current_trial": 248, "trialdata": {"rt": -1000, "trial_type": "single-audio", "word": "whiskers", "stimulus": "/static/audio/wordpool/WHISKERS.wav", "conditions": [12, 1600, "a", 24000], "internal_node_id": "0.0-185.0", "trial": 6, "time_elapsed": 1155781, "serialpos": 11, "key_press": -1, "wordID": 1604, "type": "PRES_AUD", "trial_index": 248}, "uniqueid": "MTK1898:3HMVI3QICKZ1KO2FDPED2SXZNZYY1P", "dateTime": 1516557073824}, {"current_trial": 249, "trialdata": {"rt": -1, "trial_type": "single-stim", "stimulus": "", "internal_node_id": "0.0-186.0-0.0", "time_elapsed": 1157133, "key_press": -1, "type": "PRE_RECALL_DELAY", "trial_index": 249}, "uniqueid": "MTK1898:3HMVI3QICKZ1KO2FDPED2SXZNZYY1P", "dateTime": 1516557075177}, {"current_trial": 250, "trialdata": {"rt": -1000, "trial_type": "single-audio", "stimulus": "/static/audio/400Hz.wav", "internal_node_id": "0.0-187.0", "time_elapsed": 1157635, "key_press": -1, "type": "PRE_RECALL_ALERT", "trial_index": 250}, "uniqueid": "MTK1898:3HMVI3QICKZ1KO2FDPED2SXZNZYY1P", "dateTime": 1516557075678}, {"current_trial": 251, "trialdata": {"rt": [4259, 7751, 13306, 17508, 19958], "recwords": ["blueprint", "whiskers", "asia", "europe", "belly"], "key_times": [1391, 1609, 2026, 2685, 3143, 3429, 3541, 3763, 4035, 4259, 5252, 5430, 5611, 6330, 6581, 6807, 7056, 7457, 7751, 12078, 12461, 12664, 12879, 13306, 14087, 15292, 15551, 16489, 16754, 17091, 17508, 18410, 18687, 18897, 19069, 19334, 19958], "trial_type": "free-recall", "conditions": [12, 1600, "a", 24000], "internal_node_id": "0.0-188.0-0.0", "key_presses": [66, 76, 85, 69, 80, 82, 73, 78, 84, 32, 87, 72, 73, 83, 75, 69, 82, 83, 32, 65, 83, 73, 65, 13, 69, 85, 82, 79, 80, 69, 13, 66, 69, 76, 76, 89, 32], "trial": 6, "time_elapsed": 1217641, "type": "FREE_RECALL", "trial_index": 251}, "uniqueid": "MTK1898:3HMVI3QICKZ1KO2FDPED2SXZNZYY1P", "dateTime": 1516557135689}, {"current_trial": 252, "trialdat