{"assignmentId": "3LEIZ60CDK6JEJFFDOVPV5OKS639ZG", "workerId": "MTK2409", "questiondata": {"origin": "United States", "strat-rehearsal": "5", "marital": "Married/Domestic Partnership", "education": "High school diploma", "ethnicity": "Not Hispanic", "color_depth": 24, "distracted": "No", "wrote-notes": "No", "strat-other": "", "screen_width": 1366, "avail_screen_width": 1366, "avail_screen_height": 768, "strat-image": "2", "language": "English", "gender": "Female", "age": "49", "gender_other": "", "race": ["White"], "strat-categorize": "89", "pixel_depth": 24, "strat-spatial": "0", "strat-story": "2", "race_other": "", "screen_height": 768}, "bonus": 0, "hitId": "3FJ2RVH25ZDRLOE9YFH9JAITOYI29N", "counterbalance": 854, "useragent": "Mozilla/5.0 (Windows NT 10.0; WOW64) AppleWebKit/537.36 (KHTML, like Gecko) Chrome/63.0.3239.132 Safari/537.36", "eventdata": [{"eventtype": "initialized", "interval": 0, "value": null, "timestamp": 1517078708328}, {"eventtype": "window_resize", "interval": 0, "value": [1366, 721], "timestamp": 1517078708328}, {"eventtype": "focus", "interval": 43008, "value": "off", "timestamp": 1517078751336}, {"eventtype": "focus", "interval": 3036, "value": "on", "timestamp": 1517078754372}, {"eventtype": "focus", "interval": 11, "value": "on", "timestamp": 1517078754383}, {"eventtype": "focus", "interval": 4323466, "value": "off", "timestamp": 1517083077849}, {"eventtype": "focus", "interval": 13561, "value": "on", "timestamp": 1517083091410}], "data": [{"current_trial": 0, "trialdata": {"rt": 2218, "trial_type": "text", "internal_node_id": "0.0-0.0", "time_elapsed": 2228, "key_press": 13, "type": "INSTRUCTIONS", "trial_index": 0}, "uniqueid": "MTK2409:3LEIZ60CDK6JEJFFDOVPV5OKS639ZG", "dateTime": 1517078736636}, {"current_trial": 1, "trialdata": {"rt": 11102, "trial_type": "text", "internal_node_id": "0.0-1.0", "time_elapsed": 13338, "key_press": 13, "type": "INSTRUCTIONS", "trial_index": 1}, "uniqueid": "MTK2409:3LEIZ60CDK6JEJFFDOVPV5OKS639ZG", "dateTime": 1517078747743}, {"current_trial": 2, "trialdata": {"rt": [10497], "trial_type": "audio-test", "responses": ["ocean"], "internal_node_id": "0.0-2.0", "time_elapsed": 23889, "type": "AUDIO_TEST", "trial_index": 2}, "uniqueid": "MTK2409:3LEIZ60CDK6JEJFFDOVPV5OKS639ZG", "dateTime": 1517078758294}, {"current_trial": 3, "trialdata": {"rt": [15887], "trial_type": "audio-test", "responses": ["crystal"], "internal_node_id": "0.0-3.0", "time_elapsed": 39799, "type": "AUDIO_TEST", "trial_index": 3}, "uniqueid": "MTK2409:3LEIZ60CDK6JEJFFDOVPV5OKS639ZG", "dateTime": 1517078774208}, {"current_trial": 4, "trialdata": {"rt": [5439], "trial_type": "audio-test", "responses": ["spice"], "internal_node_id": "0.0-4.0", "time_elapsed": 45263, "type": "AUDIO_TEST", "trial_index": 4}, "uniqueid": "MTK2409:3LEIZ60CDK6JEJFFDOVPV5OKS639ZG", "dateTime": 1517078779668}, {"current_trial": 5, "trialdata": {"rt": 31788, "trial_type": "survey-text", "responses": "{\"Q0\":\"1:15 A.M.\",\"Q1\":\"8:30 a.m.\",\"Q2\":\"4\"}", "internal_node_id": "0.0-5.0", "time_elapsed": 77814, "type": "SLEEP_SURVEY", "trial_index": 5}, "uniqueid": "MTK2409:3LEIZ60CDK6JEJFFDOVPV5OKS639ZG", "dateTime": 1517078812219}, {"current_trial": 6, "trialdata": {"rt": 29493, "trial_type": "text", "internal_node_id": "0.0-6.0", "time_elapsed": 108312, "key_press": 13, "type": "INSTRUCTIONS", "trial_index": 6}, "uniqueid": "MTK2409:3LEIZ60CDK6JEJFFDOVPV5OKS639ZG", "dateTime": 1517078842717}, {"current_trial": 7, "trialdata": {"rt": 11624, "trial_type": "text", "internal_node_id": "0.0-7.0", "time_elapsed": 120437, "key_press": 13, "type": "INSTRUCTIONS", "trial_index": 7}, "uniqueid": "MTK2409:3LEIZ60CDK6JEJFFDOVPV5OKS639ZG", "dateTime": 1517078854842}, {"current_trial": 8, "trialdata": {"rt": 3412, "trial_type": "text", "internal_node_id": "0.0-8.0", "time_elapsed": 124355, "key_press": 13, "type": "INSTRUCTIONS", "trial_index": 8}, "uniqueid": "MTK2409:3LEIZ60CDK6JEJFFDOVPV5OKS639ZG", "dateTime": 1517078858760}, {"current_trial": 9, "trialdata": {"rt": [2791, 5943, 8759, 12924, 15015], "trial_type": "math-distractor", "key_times": [2300, 2791, 5128, 5573, 5943, 8307, 8451, 8759, 12469, 12652, 12924, 14774, 15015], "responses": ["9", "15", "16", "20", "8"], "num2": [7, 6, 5, 9, 3, 4], "num3": [1, 1, 7, 7, 2, 4], "conditions": [18, 1200, "a", 18000], "internal_node_id": "0.0-9.0", "key_presses": [57, 13, 49, 53, 13, 49, 54, 13, 50, 48, 13, 56, 13], "trial": 0, "time_elapsed": 143377, "type": "DISTRACTOR", "trial_index": 9, "num1": [1, 8, 4, 4, 3, 2]}, "uniqueid": "MTK2409:3LEIZ60CDK6JEJFFDOVPV5OKS639ZG", "dateTime": 1517078877782}, {"current_trial": 10, "trialdata": {"rt": -1, "trial_type": "single-stim", "stimulus": "<p id=\"stim\">10</p>", "internal_node_id": "0.0-10.0-0.0", "time_elapsed": 146379, "key_press": -1, "trial_index": 10}, "uniqueid": "MTK2409:3LEIZ60CDK6JEJFFDOVPV5OKS639ZG", "dateTime": 1517078880784}, {"current_trial": 11, "trialdata": {"rt": -1, "trial_type": "single-stim", "stimulus": "<p id=\"stim\">9</p>", "internal_node_id": "0.0-10.0-1.0", "time_elapsed": 147386, "key_press": -1, "trial_index": 11}, "uniqueid": "MTK2409:3LEIZ60CDK6JEJFFDOVPV5OKS639ZG", "dateTime": 1517078881791}, {"current_trial": 12, "trialdata": {"rt": -1, "trial_type": "single-stim", "stimulus": "<p id=\"stim\">8</p>", "internal_node_id": "0.0-10.0-2.0", "time_elapsed": 148390, "key_press": -1, "trial_index": 12}, "uniqueid": "MTK2409:3LEIZ60CDK6JEJFFDOVPV5OKS639ZG", "dateTime": 1517078882795}, {"current_trial": 13, "trialdata": {"rt": -1, "trial_type": "single-stim", "stimulus": "<p id=\"stim\">7</p>", "internal_node_id": "0.0-10.0-3.0", "time_elapsed": 149390, "key_press": -1, "trial_index": 13}, "uniqueid": "MTK2409:3LEIZ60CDK6JEJFFDOVPV5OKS639ZG", "dateTime": 1517078883795}, {"current_trial": 14, "trialdata": {"rt": -1, "trial_type": "single-stim", "stimulus": "<p id=\"stim\">6</p>", "internal_node_id": "0.0-10.0-4.0", "time_elapsed": 150394, "key_press": -1, "trial_index": 14}, "uniqueid": "MTK2409:3LEIZ60CDK6JEJFFDOVPV5OKS639ZG", "dateTime": 1517078884799}, {"current_trial": 15, "trialdata": {"rt": -1, "trial_type": "single-stim", "stimulus": "<p id=\"stim\">5</p>", "internal_node_id": "0.0-10.0-5.0", "time_elapsed": 151398, "key_press": -1, "trial_index": 15}, "uniqueid": "MTK2409:3LEIZ60CDK6JEJFFDOVPV5OKS639ZG", "dateTime": 1517078885803}, {"current_trial": 16, "trialdata": {"rt": -1, "trial_type": "single-stim", "stimulus": "<p id=\"stim\">4</p>", "internal_node_id": "0.0-10.0-6.0", "time_elapsed": 152400, "key_press": -1, "trial_index": 16}, "uniqueid": "MTK2409:3LEIZ60CDK6JEJFFDOVPV5OKS639ZG", "dateTime": 1517078886805}, {"current_trial": 17, "trialdata": {"rt": -1, "trial_type": "single-stim", "stimulus": "<p id=\"stim\">3</p>", "internal_node_id": "0.0-10.0-7.0", "time_elapsed": 153402, "key_press": -1, "trial_index": 17}, "uniqueid": "MTK2409:3LEIZ60CDK6JEJFFDOVPV5OKS639ZG", "dateTime": 1517078887807}, {"current_trial": 18, "trialdata": {"rt": -1, "trial_type": "single-stim", "stimulus": "<p id=\"stim\">2</p>", "internal_node_id": "0.0-10.0-8.0", "time_elapsed": 154402, "key_press": -1, "trial_index": 18}, "uniqueid": "MTK2409:3LEIZ60CDK6JEJFFDOVPV5OKS639ZG", "dateTime": 1517078888807}, {"current_trial": 19, "trialdata": {"rt": -1, "trial_type": "single-stim", "stimulus": "<p id=\"stim\">1</p>", "internal_node_id": "0.0-10.0-9.0", "time_elapsed": 155402, "key_press": -1, "trial_index": 19}, "uniqueid": "MTK2409:3LEIZ60CDK6JEJFFDOVPV5OKS639ZG", "dateTime": 1517078889807}, {"current_trial": 20, "trialdata": {"rt": -1, "trial_type": "single-stim", "stimulus": "<p id=\"stim\">+</p>", "internal_node_id": "0.0-11.0-0.0", "time_elapsed": 157129, "key_press": -1, "type": "FIXATION", "trial_index": 20}, "uniqueid": "MTK2409:3LEIZ60CDK6JEJFFDOVPV5OKS639ZG", "dateTime": 1517078891538}, {"current_trial": 21, "trialdata": {"rt": -1000, "trial_type": "single-audio", "word": "woman", "stimulus": "/static/audio/wordpool/WOMAN.wav", "conditions": [18, 1200, "a", 18000], "internal_node_id": "0.0-12.0", "trial": 0, "time_elapsed": 159438, "serialpos": 0, "key_press": -1, "wordID": 1619, "type": "PRES_AUD", "trial_index": 21}, "uniqueid": "MTK2409:3LEIZ60CDK6JEJFFDOVPV5OKS639ZG", "dateTime": 1517078893843}, {"current_trial": 22, "trialdata": {"rt": -1000, "trial_type": "single-audio", "word": "sheriff", "stimulus": "/static/audio/wordpool/SHERIFF.wav", "conditions": [18, 1200, "a", 18000], "internal_node_id": "0.0-13.0", "trial": 0, "time_elapsed": 161502, "serialpos": 1, "key_press": -1, "wordID": 1283, "type": "PRES_AUD", "trial_index": 22}, "uniqueid": "MTK2409:3LEIZ60CDK6JEJFFDOVPV5OKS639ZG", "dateTime": 1517078895908}, {"current_trial": 23, "trialdata": {"rt": -1000, "trial_type": "single-audio", "word": "ghetto", "stimulus": "/static/audio/wordpool/GHETTO.wav", "conditions": [18, 1200, "a", 18000], "internal_node_id": "0.0-14.0", "trial": 0, "time_elapsed": 163804, "serialpos": 2, "key_press": -1, "wordID": 632, "type": "PRES_AUD", "trial_index": 23}, "uniqueid": "MTK2409:3LEIZ60CDK6JEJFFDOVPV5OKS639ZG", "dateTime": 1517078898209}, {"current_trial": 24, "trialdata": {"rt": -1000, "trial_type": "single-audio", "word": "softball", "stimulus": "/static/audio/wordpool/SOFTBALL.wav", "conditions": [18, 1200, "a", 18000], "internal_node_id": "0.0-15.0", "trial": 0, "time_elapsed": 166180, "serialpos": 3, "key_press": -1, "wordID": 1342, "type": "PRES_AUD", "trial_index": 24}, "uniqueid": "MTK2409:3LEIZ60CDK6JEJFFDOVPV5OKS639ZG", "dateTime": 1517078900586}, {"current_trial": 25, "trialdata": {"rt": -1000, "trial_type": "single-audio", "word": "apron", "stimulus": "/static/audio/wordpool/APRON.wav", "conditions": [18, 1200, "a", 18000], "internal_node_id": "0.0-16.0", "trial": 0, "time_elapsed": 168577, "serialpos": 4, "key_press": -1, "wordID": 34, "type": "PRES_AUD", "trial_index": 25}, "uniqueid": "MTK2409:3LEIZ60CDK6JEJFFDOVPV5OKS639ZG", "dateTime": 1517078902982}, {"current_trial": 26, "trialdata": {"rt": -1000, "trial_type": "single-audio", "word": "mailman", "stimulus": "/static/audio/wordpool/MAILMAN.wav", "conditions": [18, 1200, "a", 18000], "internal_node_id": "0.0-17.0", "trial": 0, "time_elapsed": 170941, "serialpos": 5, "key_press": -1, "wordID": 857, "type": "PRES_AUD", "trial_index": 26}, "uniqueid": "MTK2409:3LEIZ60CDK6JEJFFDOVPV5OKS639ZG", "dateTime": 1517078905347}, {"current_trial": 27, "trialdata": {"rt": -1000, "trial_type": "single-audio", "word": "contract", "stimulus": "/static/audio/wordpool/CONTRACT.wav", "conditions": [18, 1200, "a", 18000], "internal_node_id": "0.0-18.0", "trial": 0, "time_elapsed": 173121, "serialpos": 6, "key_press": -1, "wordID": 367, "type": "PRES_AUD", "trial_index": 27}, "uniqueid": "MTK2409:3LEIZ60CDK6JEJFFDOVPV5OKS639ZG", "dateTime": 1517078907526}, {"current_trial": 28, "trialdata": {"rt": -1000, "trial_type": "single-audio", "word": "trench", "stimulus": "/static/audio/wordpool/TRENCH.wav", "conditions": [18, 1200, "a", 18000], "internal_node_id": "0.0-19.0", "trial": 0, "time_elapsed": 175161, "serialpos": 7, "key_press": -1, "wordID": 1502, "type": "PRES_AUD", "trial_index": 28}, "uniqueid": "MTK2409:3LEIZ60CDK6JEJFFDOVPV5OKS639ZG", "dateTime": 1517078909566}, {"current_trial": 29, "trialdata": {"rt": -1000, "trial_type": "single-audio", "word": "shrub", "stimulus": "/static/audio/wordpool/SHRUB.wav", "conditions": [18, 1200, "a", 18000], "internal_node_id": "0.0-20.0", "trial": 0, "time_elapsed": 177188, "serialpos": 8, "key_press": -1, "wordID": 1298, "type": "PRES_AUD", "trial_index": 29}, "uniqueid": "MTK2409:3LEIZ60CDK6JEJFFDOVPV5OKS639ZG", "dateTime": 1517078911593}, {"current_trial": 30, "trialdata": {"rt": -1000, "trial_type": "single-audio", "word": "student", "stimulus": "/static/audio/wordpool/STUDENT.wav", "conditions": [18, 1200, "a", 18000], "internal_node_id": "0.0-21.0", "trial": 0, "time_elapsed": 179249, "serialpos": 9, "key_press": -1, "wordID": 1394, "type": "PRES_AUD", "trial_index": 30}, "uniqueid": "MTK2409:3LEIZ60CDK6JEJFFDOVPV5OKS639ZG", "dateTime": 1517078913654}, {"current_trial": 31, "trialdata": {"rt": -1000, "trial_type": "single-audio", "word": "doughnut", "stimulus": "/static/audio/wordpool/DOUGHNUT.wav", "conditions": [18, 1200, "a", 18000], "internal_node_id": "0.0-22.0", "trial": 0, "time_elapsed": 181484, "serialpos": 10, "key_press": -1, "wordID": 489, "type": "PRES_AUD", "trial_index": 31}, "uniqueid": "MTK2409:3LEIZ60CDK6JEJFFDOVPV5OKS639ZG", "dateTime": 1517078915889}, {"current_trial": 32, "trialdata": {"rt": -1000, "trial_type": "single-audio", "word": "rod", "stimulus": "/static/audio/wordpool/ROD.wav", "conditions": [18, 1200, "a", 18000], "internal_node_id": "0.0-23.0", "trial": 0, "time_elapsed": 183775, "serialpos": 11, "key_press": -1, "wordID": 1202, "type": "PRES_AUD", "trial_index": 32}, "uniqueid": "MTK2409:3LEIZ60CDK6JEJFFDOVPV5OKS639ZG", "dateTime": 1517078918180}, {"current_trial": 33, "trialdata": {"rt": -1000, "trial_type": "single-audio", "word": "lamp", "stimulus": "/static/audio/wordpool/LAMP.wav", "conditions": [18, 1200, "a", 18000], "internal_node_id": "0.0-24.0", "trial": 0, "time_elapsed": 185845, "serialpos": 12, "key_press": -1, "wordID": 797, "type": "PRES_AUD", "trial_index": 33}, "uniqueid": "MTK2409:3LEIZ60CDK6JEJFFDOVPV5OKS639ZG", "dateTime": 1517078920251}, {"current_trial": 34, "trialdata": {"rt": -1000, "trial_type": "single-audio", "word": "curtain", "stimulus": "/static/audio/wordpool/CURTAIN.wav", "conditions": [18, 1200, "a", 18000], "internal_node_id": "0.0-25.0", "trial": 0, "time_elapsed": 187865, "serialpos": 13, "key_press": -1, "wordID": 426, "type": "PRES_AUD", "trial_index": 34}, "uniqueid": "MTK2409:3LEIZ60CDK6JEJFFDOVPV5OKS639ZG", "dateTime": 1517078922270}, {"current_trial": 35, "trialdata": {"rt": -1000, "trial_type": "single-audio", "word": "stallion", "stimulus": "/static/audio/wordpool/STALLION.wav", "conditions": [18, 1200, "a", 18000], "internal_node_id": "0.0-26.0", "trial": 0, "time_elapsed": 189953, "serialpos": 14, "key_press": -1, "wordID": 1368, "type": "PRES_AUD", "trial_index": 35}, "uniqueid": "MTK2409:3LEIZ60CDK6JEJFFDOVPV5OKS639ZG", "dateTime": 1517078924359}, {"current_trial": 36, "trialdata": {"rt": -1000, "trial_type": "single-audio", "word": "hand", "stimulus": "/static/audio/wordpool/HAND.wav", "conditions": [18, 1200, "a", 18000], "internal_node_id": "0.0-27.0", "trial": 0, "time_elapsed": 192203, "serialpos": 15, "key_press": -1, "wordID": 682, "type": "PRES_AUD", "trial_index": 36}, "uniqueid": "MTK2409:3LEIZ60CDK6JEJFFDOVPV5OKS639ZG", "dateTime": 1517078926609}, {"current_trial": 37, "trialdata": {"rt": -1000, "trial_type": "single-audio", "word": "banker", "stimulus": "/static/audio/wordpool/BANKER.wav", "conditions": [18, 1200, "a", 18000], "internal_node_id": "0.0-28.0", "trial": 0, "time_elapsed": 194341, "serialpos": 16, "key_press": -1, "wordID": 83, "type": "PRES_AUD", "trial_index": 37}, "uniqueid": "MTK2409:3LEIZ60CDK6JEJFFDOVPV5OKS639ZG", "dateTime": 1517078928747}, {"current_trial": 38, "trialdata": {"rt": -1000, "trial_type": "single-audio", "word": "treat", "stimulus": "/static/audio/wordpool/TREAT.wav", "conditions": [18, 1200, "a", 18000], "internal_node_id": "0.0-29.0", "trial": 0, "time_elapsed": 196633, "serialpos": 17, "key_press": -1, "wordID": 1500, "type": "PRES_AUD", "trial_index": 38}, "uniqueid": "MTK2409:3LEIZ60CDK6JEJFFDOVPV5OKS639ZG", "dateTime": 1517078931039}, {"current_trial": 39, "trialdata": {"rt": -1, "trial_type": "single-stim", "stimulus": "", "internal_node_id": "0.0-30.0-0.0", "time_elapsed": 198031, "key_press": -1, "type": "PRE_RECALL_DELAY", "trial_index": 39}, "uniqueid": "MTK2409:3LEIZ60CDK6JEJFFDOVPV5OKS639ZG", "dateTime": 1517078932436}, {"current_trial": 40, "trialdata": {"rt": -1000, "trial_type": "single-audio", "stimulus": "/static/audio/400Hz.wav", "internal_node_id": "0.0-31.0", "time_elapsed": 198658, "key_press": -1, "type": "PRE_RECALL_ALERT", "trial_index": 40}, "uniqueid": "MTK2409:3LEIZ60CDK6JEJFFDOVPV5OKS639ZG", "dateTime": 1517078933065}, {"current_trial": 41, "trialdata": {"rt": [2200, 4227, 6248, 8152, 10232, 11355, 13138, 18943, 24692, 44464], "recwords": ["woman", "sherrif", "ghetto", "stallion", "shrub", "treat", "banker", "baseball", "curtain", ""], "key_times": [1395, 1482, 1666, 1799, 1931, 2200, 2812, 2910, 3236, 3399, 3784, 3794, 3918, 4227, 4893, 5051, 5224, 5373, 5841, 5972, 6248, 6730, 6914, 7072, 7240, 7381, 7552, 7664, 7902, 8152, 9381, 9403, 9589, 9717, 9950, 10232, 10507, 10704, 10831, 11011, 11140, 11355, 12304, 12415, 12558, 12690, 12823, 12918, 13138, 16906, 17032, 17153, 17351, 17655, 18161, 18306, 18463, 18943, 23541, 23685, 23790, 24035, 24171, 24282, 24653, 24692, 44464], "trial_type": "free-recall", "conditions": [18, 1200, "a", 18000], "internal_node_id": "0.0-32.0-0.0", "key_presses": [87, 79, 77, 65, 78, 13, 83, 72, 69, 82, 82, 73, 70, 13, 71, 72, 69, 84, 84, 79, 13, 83, 84, 65, 76, 76, 73, 79, 78, 13, 83, 72, 82, 85, 66, 13, 84, 82, 69, 65, 84, 13, 66, 65, 78, 75, 69, 82, 13, 66, 65, 83, 69, 66, 65, 76, 76, 13, 67, 85, 82, 84, 65, 73, 78, 13, 13], "trial": 0, "time_elapsed": 258672, "type": "FREE_RECALL", "trial_index": 41}, "uniqueid": "MTK2409:3LEIZ60CDK6JEJFFDOVPV5OKS639ZG", "dateTime": 1517078993109}, {"current_trial": 42, "trialdata": {"rt": 1625, "trial_type": "text", "internal_node_id": "0.0-33.0", "time_elapsed": 262333, "key_press": 13, "type": "INSTRUCTIONS", "trial_index": 42}, "uniqueid": "MTK2409:3LEIZ60CDK6JEJFFDOVPV5OKS639ZG", "dateTime": 1517078996738}, {"current_trial": 43, "trialdata": {"rt": [2970, 5084, 8417, 10338, 12417, 15498, 17273], "trial_type": "math-distractor", "key_times": [2474, 2676, 2970, 4738, 4904, 5084, 7886, 8242, 8417, 9815, 10142, 10338, 12238, 12417, 14594, 15039, 15498, 16922, 17026, 17273], "responses": ["14", "13", "16", "17", "8", "18", "12"], "num2": [7, 9, 5, 6, 1, 9, 8, 4], "num3": [5, 2, 5, 7, 1, 2, 2, 6], "conditions": [18, 1200, "a", 18000], "internal_node_id": "0.0-34.0", "key_presses": [49, 52, 13, 49, 51, 13, 49, 54, 13, 49, 55, 13, 56, 13, 49, 56, 13, 49, 50, 13], "trial": 1, "time_elapsed": 282340, "type": "DISTRACTOR", "trial_index": 43, "num1": [2, 2, 6, 4, 6, 7, 2, 1]}, "uniqueid": "MTK2409:3LEIZ60CDK6JEJFFDOVPV5OKS639ZG", "dateTime": 1517079016749}, {"current_trial": 44, "trialdata": {"rt": -1, "trial_type": "single-stim", "stimulus": "<p id=\"stim\">10</p>", "internal_node_id": "0.0-35.0-0.0", "time_elapsed": 285356, "key_press": -1, "trial_index": 44}, "uniqueid": "MTK2409:3LEIZ60CDK6JEJFFDOVPV5OKS639ZG", "dateTime": 1517079019761}, {"current_trial": 45, "trialdata": {"rt": -1, "trial_type": "single-stim", "stimulus": "<p id=\"stim\">9</p>", "internal_node_id": "0.0-35.0-1.0", "time_elapsed": 286356, "key_press": -1, "trial_index": 45}, "uniqueid": "MTK2409:3LEIZ60CDK6JEJFFDOVPV5OKS639ZG", "dateTime": 1517079020761}, {"current_trial": 46, "trialdata": {"rt": -1, "trial_type": "single-stim", "stimulus": "<p id=\"stim\">8</p>", "internal_node_id": "0.0-35.0-2.0", "time_elapsed": 287357, "key_press": -1, "trial_index": 46}, "uniqueid": "MTK2409:3LEIZ60CDK6JEJFFDOVPV5OKS639ZG", "dateTime": 1517079021762}, {"current_trial": 47, "trialdata": {"rt": -1, "trial_type": "single-stim", "stimulus": "<p id=\"stim\">7</p>", "internal_node_id": "0.0-35.0-3.0", "time_elapsed": 288357, "key_press": -1, "trial_index": 47}, "uniqueid": "MTK2409:3LEIZ60CDK6JEJFFDOVPV5OKS639ZG", "dateTime": 1517079022762}, {"current_trial": 48, "trialdata": {"rt": -1, "trial_type": "single-stim", "stimulus": "<p id=\"stim\">6</p>", "internal_node_id": "0.0-35.0-4.0", "time_elapsed": 289358, "key_press": -1, "trial_index": 48}, "uniqueid": "MTK2409:3LEIZ60CDK6JEJFFDOVPV5OKS639ZG", "dateTime": 1517079023763}, {"current_trial": 49, "trialdata": {"rt": -1, "trial_type": "single-stim", "stimulus": "<p id=\"stim\">5</p>", "internal_node_id": "0.0-35.0-5.0", "time_elapsed": 290371, "key_press": -1, "trial_index": 49}, "uniqueid": "MTK2409:3LEIZ60CDK6JEJFFDOVPV5OKS639ZG", "dateTime": 1517079024776}, {"current_trial": 50, "trialdata": {"rt": -1, "trial_type": "single-stim", "stimulus": "<p id=\"stim\">4</p>", "internal_node_id": "0.0-35.0-6.0", "time_elapsed": 291374, "key_press": -1, "trial_index": 50}, "uniqueid": "MTK2409:3LEIZ60CDK6JEJFFDOVPV5OKS639ZG", "dateTime": 1517079025779}, {"current_trial": 51, "trialdata": {"rt": 989, "trial_type": "single-stim", "stimulus": "<p id=\"stim\">3</p>", "internal_node_id": "0.0-35.0-7.0", "time_elapsed": 292375, "key_press": 175, "trial_index": 51}, "uniqueid": "MTK2409:3LEIZ60CDK6JEJFFDOVPV5OKS639ZG", "dateTime": 1517079026780}, {"current_trial": 52, "trialdata": {"rt": 144, "trial_type": "single-stim", "stimulus": "<p id=\"stim\">2</p>", "internal_node_id": "0.0-35.0-8.0", "time_elapsed": 293379, "key_press": 175, "trial_index": 52}, "uniqueid": "MTK2409:3LEIZ60CDK6JEJFFDOVPV5OKS639ZG", "dateTime": 1517079027784}, {"current_trial": 53, "trialdata": {"rt": 108, "trial_type": "single-stim", "stimulus": "<p id=\"stim\">1</p>", "internal_node_id": "0.0-35.0-9.0", "time_elapsed": 294405, "key_press": 175, "trial_index": 53}, "uniqueid": "MTK2409:3LEIZ60CDK6JEJFFDOVPV5OKS639ZG", "dateTime": 1517079028810}, {"current_trial": 54, "trialdata": {"rt": -1, "trial_type": "single-stim", "stimulus": "<p id=\"stim\">+</p>", "internal_node_id": "0.0-36.0-0.0", "time_elapsed": 296157, "key_press": -1, "type": "FIXATION", "trial_index": 54}, "uniqueid": "MTK2409:3LEIZ60CDK6JEJFFDOVPV5OKS639ZG", "dateTime": 1517079030562}, {"current_trial": 55, "trialdata": {"rt": -1000, "trial_type": "single-audio", "word": "hood", "stimulus": "/static/audio/wordpool/HOOD.wav", "conditions": [18, 1200, "a", 18000], "internal_node_id": "0.0-37.0", "trial": 1, "time_elapsed": 298433, "serialpos": 0, "key_press": -1, "wordID": 713, "type": "PRES_AUD", "trial_index": 55}, "uniqueid": "MTK2409:3LEIZ60CDK6JEJFFDOVPV5OKS639ZG", "dateTime": 1517079032838}, {"current_trial": 56, "trialdata": {"rt": -1000, "trial_type": "single-audio", "word": "garbage", "stimulus": "/static/audio/wordpool/GARBAGE.wav", "conditions": [18, 1200, "a", 18000], "internal_node_id": "0.0-38.0", "trial": 1, "time_elapsed": 300531, "serialpos": 1, "key_press": -1, "wordID": 621, "type": "PRES_AUD", "trial_index": 56}, "uniqueid": "MTK2409:3LEIZ60CDK6JEJFFDOVPV5OKS639ZG", "dateTime": 1517079034937}, {"current_trial": 57, "trialdata": {"rt": -1000, "trial_type": "single-audio", "word": "tractor", "stimulus": "/static/audio/wordpool/TRACTOR.wav", "conditions": [18, 1200, "a", 18000], "internal_node_id": "0.0-39.0", "trial": 1, "time_elapsed": 302676, "serialpos": 2, "key_press": -1, "wordID": 1492, "type": "PRES_AUD", "trial_index": 57}, "uniqueid": "MTK2409:3LEIZ60CDK6JEJFFDOVPV5OKS639ZG", "dateTime": 1517079037082}, {"current_trial": 58, "trialdata": {"rt": -1000, "trial_type": "single-audio", "word": "critic", "stimulus": "/static/audio/wordpool/CRITIC.wav", "conditions": [18, 1200, "a", 18000], "internal_node_id": "0.0-40.0", "trial": 1, "time_elapsed": 304737, "serialpos": 3, "key_press": -1, "wordID": 409, "type": "PRES_AUD", "trial_index": 58}, "uniqueid": "MTK2409:3LEIZ60CDK6JEJFFDOVPV5OKS639ZG", "dateTime": 1517079039143}, {"current_trial": 59, "trialdata": {"rt": -1000, "trial_type": "single-audio", "word": "lettuce", "stimulus": "/static/audio/wordpool/LETTUCE.wav", "conditions": [18, 1200, "a", 18000], "internal_node_id": "0.0-41.0", "trial": 1, "time_elapsed": 306973, "serialpos": 4, "key_press": -1, "wordID": 813, "type": "PRES_AUD", "trial_index": 59}, "uniqueid": "MTK2409:3LEIZ60CDK6JEJFFDOVPV5OKS639ZG", "dateTime": 1517079041379}, {"current_trial": 60, "trialdata": {"rt": -1000, "trial_type": "single-audio", "word": "office", "stimulus": "/static/audio/wordpool/OFFICE.wav", "conditions": [18, 1200, "a", 18000], "internal_node_id": "0.0-42.0", "trial": 1, "time_elapsed": 309150, "serialpos": 5, "key_press": -1, "wordID": 971, "type": "PRES_AUD", "trial_index": 60}, "uniqueid": "MTK2409:3LEIZ60CDK6JEJFFDOVPV5OKS639ZG", "dateTime": 1517079043556}, {"current_trial": 61, "trialdata": {"rt": -1000, "trial_type": "single-audio", "word": "cabbage", "stimulus": "/static/audio/wordpool/CABBAGE.wav", "conditions": [18, 1200, "a", 18000], "internal_node_id": "0.0-43.0", "trial": 1, "time_elapsed": 311269, "serialpos": 6, "key_press": -1, "wordID": 209, "type": "PRES_AUD", "trial_index": 61}, "uniqueid": "MTK2409:3LEIZ60CDK6JEJFFDOVPV5OKS639ZG", "dateTime": 1517079045674}, {"current_trial": 62, "trialdata": {"rt": -1000, "trial_type": "single-audio", "word": "preacher", "stimulus": "/static/audio/wordpool/PREACHER.wav", "conditions": [18, 1200, "a", 18000], "internal_node_id": "0.0-44.0", "trial": 1, "time_elapsed": 313499, "serialpos": 7, "key_press": -1, "wordID": 1118, "type": "PRES_AUD", "trial_index": 62}, "uniqueid": "MTK2409:3LEIZ60CDK6JEJFFDOVPV5OKS639ZG", "dateTime": 1517079047904}, {"current_trial": 63, "trialdata": {"rt": -1000, "trial_type": "single-audio", "word": "staple", "stimulus": "/static/audio/wordpool/STAPLE.wav", "conditions": [18, 1200, "a", 18000], "internal_node_id": "0.0-45.0", "trial": 1, "time_elapsed": 315596, "serialpos": 8, "key_press": -1, "wordID": 1370, "type": "PRES_AUD", "trial_index": 63}, "uniqueid": "MTK2409:3LEIZ60CDK6JEJFFDOVPV5OKS639ZG", "dateTime": 1517079050001}, {"current_trial": 64, "trialdata": {"rt": -1000, "trial_type": "single-audio", "word": "cocktail", "stimulus": "/static/audio/wordpool/COCKTAIL.wav", "conditions": [18, 1200, "a", 18000], "internal_node_id": "0.0-46.0", "trial": 1, "time_elapsed": 317648, "serialpos": 9, "key_press": -1, "wordID": 337, "type": "PRES_AUD", "trial_index": 64}, "uniqueid": "MTK2409:3LEIZ60CDK6JEJFFDOVPV5OKS639ZG", "dateTime": 1517079052054}, {"current_trial": 65, "trialdata": {"rt": -1000, "trial_type": "single-audio", "word": "canyon", "stimulus": "/static/audio/wordpool/CANYON.wav", "conditions": [18, 1200, "a", 18000], "internal_node_id": "0.0-47.0", "trial": 1, "time_elapsed": 319901, "serialpos": 10, "key_press": -1, "wordID": 234, "type": "PRES_AUD", "trial_index": 65}, "uniqueid": "MTK2409:3LEIZ60CDK6JEJFFDOVPV5OKS639ZG", "dateTime": 1517079054306}, {"current_trial": 66, "trialdata": {"rt": -1000, "trial_type": "single-audio", "word": "missile", "stimulus": "/static/audio/wordpool/MISSILE.wav", "conditions": [18, 1200, "a", 18000], "internal_node_id": "0.0-48.0", "trial": 1, "time_elapsed": 322378, "serialpos": 11, "key_press": -1, "wordID": 899, "type": "PRES_AUD", "trial_index": 66}, "uniqueid": "MTK2409:3LEIZ60CDK6JEJFFDOVPV5OKS639ZG", "dateTime": 1517079056784}, {"current_trial": 67, "trialdata": {"rt": -1000, "trial_type": "single-audio", "word": "couch", "stimulus": "/static/audio/wordpool/COUCH.wav", "conditions": [18, 1200, "a", 18000], "internal_node_id": "0.0-49.0", "trial": 1, "time_elapsed": 324496, "serialpos": 12, "key_press": -1, "wordID": 385, "type": "PRES_AUD", "trial_index": 67}, "uniqueid": "MTK2409:3LEIZ60CDK6JEJFFDOVPV5OKS639ZG", "dateTime": 1517079058901}, {"current_trial": 68, "trialdata": {"rt": -1000, "trial_type": "single-audio", "word": "goblin", "stimulus": "/static/audio/wordpool/GOBLIN.wav", "conditions": [18, 1200, "a", 18000], "internal_node_id": "0.0-50.0", "trial": 1, "time_elapsed": 326898, "serialpos": 13, "key_press": -1, "wordID": 644, "type": "PRES_AUD", "trial_index": 68}, "uniqueid": "MTK2409:3LEIZ60CDK6JEJFFDOVPV5OKS639ZG", "dateTime": 1517079061303}, {"current_trial": 69, "trialdata": {"rt": -1000, "trial_type": "single-audio", "word": "carrot", "stimulus": "/static/audio/wordpool/CARROT.wav", "conditions": [18, 1200, "a", 18000], "internal_node_id": "0.0-51.0", "trial": 1, "time_elapsed": 329208, "serialpos": 14, "key_press": -1, "wordID": 248, "type": "PRES_AUD", "trial_index": 69}, "uniqueid": "MTK2409:3LEIZ60CDK6JEJFFDOVPV5OKS639ZG", "dateTime": 1517079063613}, {"current_trial": 70, "trialdata": {"rt": -1000, "trial_type": "single-audio", "word": "baby", "stimulus": "/static/audio/wordpool/BABY.wav", "conditions": [18, 1200, "a", 18000], "internal_node_id": "0.0-52.0", "trial": 1, "time_elapsed": 331552, "serialpos": 15, "key_press": -1, "wordID": 63, "type": "PRES_AUD", "trial_index": 70}, "uniqueid": "MTK2409:3LEIZ60CDK6JEJFFDOVPV5OKS639ZG", "dateTime": 1517079065958}, {"current_trial": 71, "trialdata": {"rt": -1000, "trial_type": "single-audio", "word": "salt", "stimulus": "/static/audio/wordpool/SALT.wav", "conditions": [18, 1200, "a", 18000], "internal_node_id": "0.0-53.0", "trial": 1, "time_elapsed": 333669, "serialpos": 16, "key_press": -1, "wordID": 1228, "type": "PRES_AUD", "trial_index": 71}, "uniqueid": "MTK2409:3LEIZ60CDK6JEJFFDOVPV5OKS639ZG", "dateTime": 1517079068075}, {"current_trial": 72, "trialdata": {"rt": -1000, "trial_type": "single-audio", "word": "scissors", "stimulus": "/static/audio/wordpool/SCISSORS.wav", "conditions": [18, 1200, "a", 18000], "internal_node_id": "0.0-54.0", "trial": 1, "time_elapsed": 335845, "serialpos": 17, "key_press": -1, "wordID": 1249, "type": "PRES_AUD", "trial_index": 72}, "uniqueid": "MTK2409:3LEIZ60CDK6JEJFFDOVPV5OKS639ZG", "dateTime": 1517079070250}, {"current_trial": 73, "trialdata": {"rt": -1, "trial_type": "single-stim", "stimulus": "", "internal_node_id": "0.0-55.0-0.0", "time_elapsed": 337400, "key_press": -1, "type": "PRE_RECALL_DELAY", "trial_index": 73}, "uniqueid": "MTK2409:3LEIZ60CDK6JEJFFDOVPV5OKS639ZG", "dateTime": 1517079071806}, {"current_trial": 74, "trialdata": {"rt": -1000, "trial_type": "single-audio", "stimulus": "/static/audio/400Hz.wav", "internal_node_id": "0.0-56.0", "time_elapsed": 337919, "key_press": -1, "type": "PRE_RECALL_ALERT", "trial_index": 74}, "uniqueid": "MTK2409:3LEIZ60CDK6JEJFFDOVPV5OKS639ZG", "dateTime": 1517079072324}, {"current_trial": 75, "trialdata": {"rt": [3187, 4689, 6509, 8324, 12574, 14349, 16263, 22632, 24598, 51024], "recwords": ["lettuce", "cabbage", "carrot", "salt", "scissors", "baby", "preacher", "hood", "garbage", "cocktail"], "key_times": [1202, 1377, 1559, 1708, 1843, 2349, 2586, 3187, 3620, 3810, 3952, 4090, 4183, 4383, 4538, 4689, 4998, 5224, 5398, 5568, 5813, 6128, 6509, 6822, 7037, 7102, 7335, 8324, 8801, 9288, 10052, 10225, 10596, 10766, 10953, 11538, 11707, 11941, 12574, 13431, 13588, 13667, 13903, 14349, 14853, 15058, 15169, 15360, 15548, 15712, 15901, 16017, 16263, 21551, 21778, 21931, 22373, 22632, 23328, 23507, 23644, 23787, 23969, 24146, 24317, 24598, 49292, 49452, 49586, 49766, 50203, 50223, 50379, 50640, 51024], "trial_type": "free-recall", "conditions": [18, 1200, "a", 18000], "internal_node_id": "0.0-57.0-0.0", "key_presses": [76, 69, 84, 84, 85, 67, 69, 13, 67, 65, 66, 66, 65, 71, 69, 13, 67, 65, 82, 82, 79, 84, 13, 83, 65, 76, 84, 13, 83, 73, 8, 67, 73, 83, 83, 79, 82, 83, 13, 66, 65, 66, 89, 13, 80, 82, 69, 65, 67, 72, 69, 82, 13, 72, 79, 79, 68, 13, 71, 65, 82, 66, 65, 71, 69, 13, 67, 79, 67, 75, 84, 65, 73, 76, 13], "trial": 1, "time_elapsed": 397934, "type": "FREE_RECALL", "trial_index": 75}, "uniqueid": "MTK2409:3LEIZ60CDK6JEJFFDOVPV5OKS639ZG", "dateTime": 1517079132367}, {"current_trial": 76, "trialdata": {"rt": 466651, "trial_type": "text", "internal_node_id": "0.0-58.0", "time_elapsed": 866614, "key_press": 13, "type": "INSTRUCTIONS", "trial_index": 76}, "uniqueid": "MTK2409:3LEIZ60CDK6JEJFFDOVPV5OKS639ZG", "dateTime": 1517079601019}, {"current_trial": 77, "trialdata": {"rt": [2582, 5583, 8958, 11721], "trial_type": "math-distractor", "key_times": [2183, 2582, 4887, 5015, 5583, 7254, 7392, 7659, 8667, 8958, 11109, 11392, 11721], "responses": ["7", "20", "10", "18"], "num2": [2, 9, 4, 6, 3], "num3": [2, 4, 3, 7, 3], "conditions": [24, 1600, "a", 12000], "internal_node_id": "0.0-59.0", "key_presses": [55, 13, 50, 48, 13, 49, 48, 222, 8, 13, 49, 56, 13], "trial": 2, "time_elapsed": 879643, "type": "DISTRACTOR", "trial_index": 77, "num1": [3, 7, 3, 5, 3]}, "uniqueid": "MTK2409:3LEIZ60CDK6JEJFFDOVPV5OKS639ZG", "dateTime": 1517079614048}, {"current_trial": 78, "trialdata": {"rt": -1, "trial_type": "single-stim", "stimulus": "<p id=\"stim\">10</p>", "internal_node_id": "0.0-60.0-0.0", "time_elapsed": 882650, "key_press": -1, "trial_index": 78}, "uniqueid": "MTK2409:3LEIZ60CDK6JEJFFDOVPV5OKS639ZG", "dateTime": 1517079617055}, {"current_trial": 79, "trialdata": {"rt": -1, "trial_type": "single-stim", "stimulus": "<p id=\"stim\">9</p>", "internal_node_id": "0.0-60.0-1.0", "time_elapsed": 883653, "key_press": -1, "trial_index": 79}, "uniqueid": "MTK2409:3LEIZ60CDK6JEJFFDOVPV5OKS639ZG", "dateTime": 1517079618058}, {"current_trial": 80, "trialdata": {"rt": -1, "trial_type": "single-stim", "stimulus": "<p id=\"stim\">8</p>", "internal_node_id": "0.0-60.0-2.0", "time_elapsed": 884666, "key_press": -1, "trial_index": 80}, "uniqueid": "MTK2409:3LEIZ60CDK6JEJFFDOVPV5OKS639ZG", "dateTime": 1517079619071}, {"current_trial": 81, "trialdata": {"rt": -1, "trial_type": "single-stim", "stimulus": "<p id=\"stim\">7</p>", "internal_node_id": "0.0-60.0-3.0", "time_elapsed": 885668, "key_press": -1, "trial_index": 81}, "uniqueid": "MTK2409:3LEIZ60CDK6JEJFFDOVPV5OKS639ZG", "dateTime": 1517079620073}, {"current_trial": 82, "trialdata": {"rt": -1, "trial_type": "single-stim", "stimulus": "<p id=\"stim\">6</p>", "internal_node_id": "0.0-60.0-4.0", "time_elapsed": 886670, "key_press": -1, "trial_index": 82}, "uniqueid": "MTK2409:3LEIZ60CDK6JEJFFDOVPV5OKS639ZG", "dateTime": 1517079621075}, {"current_trial": 83, "trialdata": {"rt": -1, "trial_type": "single-stim", "stimulus": "<p id=\"stim\">5</p>", "internal_node_id": "0.0-60.0-5.0", "time_elapsed": 887699, "key_press": -1, "trial_index": 83}, "uniqueid": "MTK2409:3LEIZ60CDK6JEJFFDOVPV5OKS639ZG", "dateTime": 1517079622104}, {"current_trial": 84, "trialdata": {"rt": -1, "trial_type": "single-stim", "stimulus": "<p id=\"stim\">4</p>", "internal_node_id": "0.0-60.0-6.0", "time_elapsed": 888700, "key_press": -1, "trial_index": 84}, "uniqueid": "MTK2409:3LEIZ60CDK6JEJFFDOVPV5OKS639ZG", "dateTime": 1517079623105}, {"current_trial": 85, "trialdata": {"rt": -1, "trial_type": "single-stim", "stimulus": "<p id=\"stim\">3</p>", "internal_node_id": "0.0-60.0-7.0", "time_elapsed": 889701, "key_press": -1, "trial_index": 85}, "uniqueid": "MTK2409:3LEIZ60CDK6JEJFFDOVPV5OKS639ZG", "dateTime": 1517079624106}, {"current_trial": 86, "trialdata": {"rt": -1, "trial_type": "single-stim", "stimulus": "<p id=\"stim\">2</p>", "internal_node_id": "0.0-60.0-8.0", "time_elapsed": 890704, "key_press": -1, "trial_index": 86}, "uniqueid": "MTK2409:3LEIZ60CDK6JEJFFDOVPV5OKS639ZG", "dateTime": 1517079625109}, {"current_trial": 87, "trialdata": {"rt": -1, "trial_type": "single-stim", "stimulus": "<p id=\"stim\">1</p>", "internal_node_id": "0.0-60.0-9.0", "time_elapsed": 891706, "key_press": -1, "trial_index": 87}, "uniqueid": "MTK2409:3LEIZ60CDK6JEJFFDOVPV5OKS639ZG", "dateTime": 1517079626111}, {"current_trial": 88, "trialdata": {"rt": -1, "trial_type": "single-stim", "stimulus": "<p id=\"stim\">+</p>", "internal_node_id": "0.0-61.0-0.0", "time_elapsed": 893229, "key_press": -1, "type": "FIXATION", "trial_index": 88}, "uniqueid": "MTK2409:3LEIZ60CDK6JEJFFDOVPV5OKS639ZG", "dateTime": 1517079627634}, {"current_trial": 89, "trialdata": {"rt": -1000, "trial_type": "single-audio", "word": "mister", "stimulus": "/static/audio/wordpool/MISTER.wav", "conditions": [24, 1600, "a", 12000], "internal_node_id": "0.0-62.0", "trial": 2, "time_elapsed": 895737, "serialpos": 0, "key_press": -1, "wordID": 900, "type": "PRES_AUD", "trial_index": 89}, "uniqueid": "MTK2409:3LEIZ60CDK6JEJFFDOVPV5OKS639ZG", "dateTime": 1517079630142}, {"current_trial": 90, "trialdata": {"rt": -1000, "trial_type": "single-audio", "word": "actress", "stimulus": "/static/audio/wordpool/ACTRESS.wav", "conditions": [24, 1600, "a", 12000], "internal_node_id": "0.0-63.0", "trial": 2, "time_elapsed": 898240, "serialpos": 1, "key_press": -1, "wordID": 5, "type": "PRES_AUD", "trial_index": 90}, "uniqueid": "MTK2409:3LEIZ60CDK6JEJFFDOVPV5OKS639ZG", "dateTime": 1517079632646}, {"current_trial": 91, "trialdata": {"rt": -1000, "trial_type": "single-audio", "word": "actor", "stimulus": "/static/audio/wordpool/ACTOR.wav", "conditions": [24, 1600, "a", 12000], "internal_node_id": "0.0-64.0", "trial": 2, "time_elapsed": 900694, "serialpos": 2, "key_press": -1, "wordID": 4, "type": "PRES_AUD", "trial_index": 91}, "uniqueid": "MTK2409:3LEIZ60CDK6JEJFFDOVPV5OKS639ZG", "dateTime": 1517079635099}, {"current_trial": 92, "trialdata": {"rt": -1000, "trial_type": "single-audio", "word": "stone", "stimulus": "/static/audio/wordpool/STONE.wav", "conditions": [24, 1600, "a", 12000], "internal_node_id": "0.0-65.0", "trial": 2, "time_elapsed": 903274, "serialpos": 3, "key_press": -1, "wordID": 1384, "type": "PRES_AUD", "trial_index": 92}, "uniqueid": "MTK2409:3LEIZ60CDK6JEJFFDOVPV5OKS639ZG", "dateTime": 1517079637680}, {"current_trial": 93, "trialdata": {"rt": -1000, "trial_type": "single-audio", "word": "onion", "stimulus": "/static/audio/wordpool/ONION.wav", "conditions": [24, 1600, "a", 12000], "internal_node_id": "0.0-66.0", "trial": 2, "time_elapsed": 905939, "serialpos": 4, "key_press": -1, "wordID": 976, "type": "PRES_AUD", "trial_index": 93}, "uniqueid": "MTK2409:3LEIZ60CDK6JEJFFDOVPV5OKS639ZG", "dateTime": 1517079640344}, {"current_trial": 94, "trialdata": {"rt": -1000, "trial_type": "single-audio", "word": "beaker", "stimulus": "/static/audio/wordpool/BEAKER.wav", "conditions": [24, 1600, "a", 12000], "internal_node_id": "0.0-67.0", "trial": 2, "time_elapsed": 908626, "serialpos": 5, "key_press": -1, "wordID": 103, "type": "PRES_AUD", "trial_index": 94}, "uniqueid": "MTK2409:3LEIZ60CDK6JEJFFDOVPV5OKS639ZG", "dateTime": 1517079643032}, {"current_trial": 95, "trialdata": {"rt": -1000, "trial_type": "single-audio", "word": "kitchen", "stimulus": "/static/audio/wordpool/KITCHEN.wav", "conditions": [24, 1600, "a", 12000], "internal_node_id": "0.0-68.0", "trial": 2, "time_elapsed": 911112, "serialpos": 6, "key_press": -1, "wordID": 777, "type": "PRES_AUD", "trial_index": 95}, "uniqueid": "MTK2409:3LEIZ60CDK6JEJFFDOVPV5OKS639ZG", "dateTime": 1517079645518}, {"current_trial": 96, "trialdata": {"rt": -1000, "trial_type": "single-audio", "word": "plaster", "stimulus": "/static/audio/wordpool/PLASTER.wav", "conditions": [24, 1600, "a", 12000], "internal_node_id": "0.0-69.0", "trial": 2, "time_elapsed": 913776, "serialpos": 7, "key_press": -1, "wordID": 1084, "type": "PRES_AUD", "trial_index": 96}, "uniqueid": "MTK2409:3LEIZ60CDK6JEJFFDOVPV5OKS639ZG", "dateTime": 1517079648181}, {"current_trial": 97, "trialdata": {"rt": -1000, "trial_type": "single-audio", "word": "pepper", "stimulus": "/static/audio/wordpool/PEPPER.wav", "conditions": [24, 1600, "a", 12000], "internal_node_id": "0.0-70.0", "trial": 2, "time_elapsed": 916253, "serialpos": 8, "key_press": -1, "wordID": 1046, "type": "PRES_AUD", "trial_index": 97}, "uniqueid": "MTK2409:3LEIZ60CDK6JEJFFDOVPV5OKS639ZG", "dateTime": 1517079650659}, {"current_trial": 98, "trialdata": {"rt": -1000, "trial_type": "single-audio", "word": "box", "stimulus": "/static/audio/wordpool/BOX.wav", "conditions": [24, 1600, "a", 12000], "internal_node_id": "0.0-71.0", "trial": 2, "time_elapsed": 918838, "serialpos": 9, "key_press": -1, "wordID": 158, "type": "PRES_AUD", "trial_index": 98}, "uniqueid": "MTK2409:3LEIZ60CDK6JEJFFDOVPV5OKS639ZG", "dateTime": 1517079653244}, {"current_trial": 99, "trialdata": {"rt": -1000, "trial_type": "single-audio", "word": "casket", "stimulus": "/static/audio/wordpool/CASKET.wav", "conditions": [24, 1600, "a", 12000], "internal_node_id": "0.0-72.0", "trial": 2, "time_elapsed": 921343, "serialpos": 10, "key_press": -1, "wordID": 254, "type": "PRES_AUD", "trial_index": 99}, "uniqueid": "MTK2409:3LEIZ60CDK6JEJFFDOVPV5OKS639ZG", "dateTime": 1517079655748}, {"current_trial": 100, "trialdata": {"rt": -1000, "trial_type": "single-audio", "word": "dustpan", "stimulus": "/static/audio/wordpool/DUSTPAN.wav", "conditions": [24, 1600, "a", 12000], "internal_node_id": "0.0-73.0", "trial": 2, "time_elapsed": 923968, "serialpos": 11, "key_press": -1, "wordID": 508, "type": "PRES_AUD", "trial_index": 100}, "uniqueid": "MTK2409:3LEIZ60CDK6JEJFFDOVPV5OKS639ZG", "dateTime": 1517079658373}, {"current_trial": 101, "trialdata": {"rt": -1000, "trial_type": "single-audio", "word": "pluto", "stimulus": "/static/audio/wordpool/PLUTO.wav", "conditions": [24, 1600, "a", 12000], "internal_node_id": "0.0-74.0", "trial": 2, "time_elapsed": 926592, "serialpos": 12, "key_press": -1, "wordID": 1091, "type": "PRES_AUD", "trial_index": 101}, "uniqueid": "MTK2409:3LEIZ60CDK6JEJFFDOVPV5OKS639ZG", "dateTime": 1517079660998}, {"current_trial": 102, "trialdata": {"rt": -1000, "trial_type": "single-audio", "word": "pasta", "stimulus": "/static/audio/wordpool/PASTA.wav", "conditions": [24, 1600, "a", 12000], "internal_node_id": "0.0-75.0", "trial": 2, "time_elapsed": 929097, "serialpos": 13, "key_press": -1, "wordID": 1020, "type": "PRES_AUD", "trial_index": 102}, "uniqueid": "MTK2409:3LEIZ60CDK6JEJFFDOVPV5OKS639ZG", "dateTime": 1517079663503}, {"current_trial": 103, "trialdata": {"rt": -1000, "trial_type": "single-audio", "word": "fungus", "stimulus": "/static/audio/wordpool/FUNGUS.wav", "conditions": [24, 1600, "a", 12000], "internal_node_id": "0.0-76.0", "trial": 2, "time_elapsed": 931575, "serialpos": 14, "key_press": -1, "wordID": 613, "type": "PRES_AUD", "trial_index": 103}, "uniqueid": "MTK2409:3LEIZ60CDK6JEJFFDOVPV5OKS639ZG", "dateTime": 1517079666027}, {"current_trial": 104, "trialdata": {"rt": -1000, "trial_type": "single-audio", "word": "flask", "stimulus": "/static/audio/wordpool/FLASK.wav", "conditions": [24, 1600, "a", 12000], "internal_node_id": "0.0-77.0", "trial": 2, "time_elapsed": 934233, "serialpos": 15, "key_press": -1, "wordID": 575, "type": "PRES_AUD", "trial_index": 104}, "uniqueid": "MTK2409:3LEIZ60CDK6JEJFFDOVPV5OKS639ZG", "dateTime": 1517079668638}, {"current_trial": 105, "trialdata": {"rt": -1000, "trial_type": "single-audio", "word": "compass", "stimulus": "/static/audio/wordpool/COMPASS.wav", "conditions": [24, 1600, "a", 12000], "internal_node_id": "0.0-78.0", "trial": 2, "time_elapsed": 936720, "serialpos": 16, "key_press": -1, "wordID": 357, "type": "PRES_AUD", "trial_index": 105}, "uniqueid": "MTK2409:3LEIZ60CDK6JEJFFDOVPV5OKS639ZG", "dateTime": 1517079671126}, {"current_trial": 106, "trialdata": {"rt": -1000, "trial_type": "single-audio", "word": "globe", "stimulus": "/static/audio/wordpool/GLOBE.wav", "conditions": [24, 1600, "a", 12000], "internal_node_id": "0.0-79.0", "trial": 2, "time_elapsed": 939473, "serialpos": 17, "key_press": -1, "wordID": 640, "type": "PRES_AUD", "trial_index": 106}, "uniqueid": "MTK2409:3LEIZ60CDK6JEJFFDOVPV5OKS639ZG", "dateTime": 1517079673878}, {"current_trial": 107, "trialdata": {"rt": -1000, "trial_type": "single-audio", "word": "lizard", "stimulus": "/static/audio/wordpool/LIZARD.wav", "conditions": [24, 1600, "a", 12000], "internal_node_id": "0.0-80.0", "trial": 2, "time_elapsed": 942130, "serialpos": 18, "key_press": -1, "wordID": 833, "type": "PRES_AUD", "trial_index": 107}, "uniqueid": "MTK2409:3LEIZ60CDK6JEJFFDOVPV5OKS639ZG", "dateTime": 1517079676535}, {"current_trial": 108, "trialdata": {"rt": -1000, "trial_type": "single-audio", "word": "snail", "stimulus": "/static/audio/wordpool/SNAIL.wav", "conditions": [24, 1600, "a", 12000], "internal_node_id": "0.0-81.0", "trial": 2, "time_elapsed": 944629, "serialpos": 19, "key_press": -1, "wordID": 1331, "type": "PRES_AUD", "trial_index": 108}, "uniqueid": "MTK2409:3LEIZ60CDK6JEJFFDOVPV5OKS639ZG", "dateTime": 1517079679034}, {"current_trial": 109, "trialdata": {"rt": -1000, "trial_type": "single-audio", "word": "rug", "stimulus": "/static/audio/wordpool/RUG.wav", "conditions": [24, 1600, "a", 12000], "internal_node_id": "0.0-82.0", "trial": 2, "time_elapsed": 947248, "serialpos": 20, "key_press": -1, "wordID": 1214, "type": "PRES_AUD", "trial_index": 109}, "uniqueid": "MTK2409:3LEIZ60CDK6JEJFFDOVPV5OKS639ZG", "dateTime": 1517079681653}, {"current_trial": 110, "trialdata": {"rt": -1000, "trial_type": "single-audio", "word": "termite", "stimulus": "/static/audio/wordpool/TERMITE.wav", "conditions": [24, 1600, "a", 12000], "internal_node_id": "0.0-83.0", "trial": 2, "time_elapsed": 949933, "serialpos": 21, "key_press": -1, "wordID": 1450, "type": "PRES_AUD", "trial_index": 110}, "uniqueid": "MTK2409:3LEIZ60CDK6JEJFFDOVPV5OKS639ZG", "dateTime": 1517079684338}, {"current_trial": 111, "trialdata": {"rt": -1000, "trial_type": "single-audio", "word": "cocoon", "stimulus": "/static/audio/wordpool/COCOON.wav", "conditions": [24, 1600, "a", 12000], "internal_node_id": "0.0-84.0", "trial": 2, "time_elapsed": 952585, "serialpos": 22, "key_press": -1, "wordID": 338, "type": "PRES_AUD", "trial_index": 111}, "uniqueid": "MTK2409:3LEIZ60CDK6JEJFFDOVPV5OKS639ZG", "dateTime": 1517079686990}, {"current_trial": 112, "trialdata": {"rt": -1000, "trial_type": "single-audio", "word": "convict", "stimulus": "/static/audio/wordpool/CONVICT.wav", "conditions": [24, 1600, "a", 12000], "internal_node_id": "0.0-85.0", "trial": 2, "time_elapsed": 955289, "serialpos": 23, "key_press": -1, "wordID": 370, "type": "PRES_AUD", "trial_index": 112}, "uniqueid": "MTK2409:3LEIZ60CDK6JEJFFDOVPV5OKS639ZG", "dateTime": 1517079689695}, {"current_trial": 113, "trialdata": {"rt": -1, "trial_type": "single-stim", "stimulus": "", "internal_node_id": "0.0-86.0-0.0", "time_elapsed": 956687, "key_press": -1, "type": "PRE_RECALL_DELAY", "trial_index": 113}, "uniqueid": "MTK2409:3LEIZ60CDK6JEJFFDOVPV5OKS639ZG", "dateTime": 1517079691093}, {"current_trial": 114, "trialdata": {"rt": -1000, "trial_type": "single-audio", "stimulus": "/static/audio/400Hz.wav", "internal_node_id": "0.0-87.0", "time_elapsed": 957194, "key_press": -1, "type": "PRE_RECALL_ALERT", "trial_index": 114}, "uniqueid": "MTK2409:3LEIZ60CDK6JEJFFDOVPV5OKS639ZG", "dateTime": 1517079691599}, {"current_trial": 115, "trialdata": {"rt": [2474, 6289, 10022, 14199, 17887, 19182, 20928, 23712, 25267, 26286, 28721, 30299, 32037, 36354], "recwords": ["convict", "cocoon", "termite", "muster", "stone", "pepper", "onion", "fungus", "snail", "soup", "kitchen", "actor", "actree", "mister"], "key_times": [1253, 1259, 1298, 1436, 1603, 1773, 2004, 2474, 3299, 3586, 3763, 4155, 4298, 5174, 5312, 5550, 5705, 6015, 6289, 6533, 6639, 6844, 7418, 8042, 8180, 8336, 8467, 9085, 9252, 9373, 9495, 9612, 9709, 9859, 10022, 11724, 12111, 12459, 12738, 13718, 13817, 14199, 15887, 16556, 17047, 17245, 17360, 17554, 17670, 17887, 18453, 18566, 18718, 18876, 18959, 19019, 19182, 19478, 19684, 20056, 20065, 20072, 20928, 22661, 22800, 23007, 23164, 23288, 23480, 23712, 24300, 24405, 24715, 24884, 24996, 25267, 25511, 25628, 25776, 25995, 26286, 26596, 26829, 26944, 27287, 27435, 27813, 28221, 28347, 28472, 28721, 29384, 29587, 29869, 29967, 30096, 30299, 30708, 30898, 31197, 31403, 31553, 31724, 32037, 34095, 34941, 35233, 35387, 35567, 35794, 35962, 36066, 36354], "trial_type": "free-recall", "conditions": [24, 1600, "a", 12000], "internal_node_id": "0.0-88.0-0.0", "key_presses": [67, 79, 78, 86, 73, 67, 84, 13, 67, 67, 79, 8, 8, 79, 67, 79, 79, 78, 13, 67, 79, 78, 66, 8, 8, 8, 8, 84, 69, 82, 77, 73, 84, 69, 13, 77, 85, 83, 84, 69, 82, 13, 83, 8, 83, 84, 79, 78, 69, 13, 80, 69, 80, 80, 69, 82, 13, 79, 78, 73, 79, 78, 13, 70, 85, 78, 71, 85, 83, 13, 83, 78, 65, 73, 76, 13, 83, 79, 85, 80, 13, 75, 73, 84, 67, 69, 8, 72, 69, 78, 13, 65, 67, 84, 79, 82, 13, 65, 67, 84, 82, 69, 69, 13, 65, 8, 77, 73, 83, 84, 69, 82, 13], "trial": 2, "time_elapsed": 1017202, "type": "FREE_RECALL", "trial_index": 115}, "uniqueid": "MTK2409:3LEIZ60CDK6JEJFFDOVPV5OKS639ZG", "dateTime": 1517079751619}, {"current_trial": 116, "trialdata": {"rt": 1527, "trial_type": "text", "internal_node_id": "0.0-89.0", "time_elapsed": 1020749, "key_press": 13, "type": "INSTRUCTIONS", "trial_index": 116}, "uniqueid": "MTK2409:3LEIZ60CDK6JEJFFDOVPV5OKS639ZG", "dateTime": 1517079755154}, {"current_trial": 117, "trialdata": {"rt": [3566, 5999, 7698, 9748], "trial_type": "math-distractor", "key_times": [3152, 3335, 3566, 5634, 5999, 7686, 7698, 9243, 9530, 9748], "responses": ["20", "9", "4", "17"], "num2": [4, 6, 1, 8, 5], "num3": [8, 1, 1, 2, 3], "conditions": [24, 800, "a", 12000], "internal_node_id": "0.0-90.0", "key_presses": [50, 48, 13, 57, 13, 52, 13, 49, 55, 13], "trial": 3, "time_elapsed": 1034794, "type": "DISTRACTOR", "trial_index": 117, "num1": [8, 2, 2, 7, 8]}, "uniqueid": "MTK2409:3LEIZ60CDK6JEJFFDOVPV5OKS639ZG", "dateTime": 1517079769199}, {"current_trial": 118, "trialdata": {"rt": -1, "trial_type": "single-stim", "stimulus": "<p id=\"stim\">10</p>", "internal_node_id": "0.0-91.0-0.0", "time_elapsed": 1037801, "key_press": -1, "trial_index": 118}, "uniqueid": "MTK2409:3LEIZ60CDK6JEJFFDOVPV5OKS639ZG", "dateTime": 1517079772206}, {"current_trial": 119, "trialdata": {"rt": -1, "trial_type": "single-stim", "stimulus": "<p id=\"stim\">9</p>", "internal_node_id": "0.0-91.0-1.0", "time_elapsed": 1038803, "key_press": -1, "trial_index": 119}, "uniqueid": "MTK2409:3LEIZ60CDK6JEJFFDOVPV5OKS639ZG", "dateTime": 1517079773208}, {"current_trial": 120, "trialdata": {"rt": -1, "trial_type": "single-stim", "stimulus": "<p id=\"stim\">8</p>", "internal_node_id": "0.0-91.0-2.0", "time_elapsed": 1039806, "key_press": -1, "trial_index": 120}, "uniqueid": "MTK2409:3LEIZ60CDK6JEJFFDOVPV5OKS639ZG", "dateTime": 1517079774211}, {"current_trial": 121, "trialdata": {"rt": -1, "trial_type": "single-stim", "stimulus": "<p id=\"stim\">7</p>", "internal_node_id": "0.0-91.0-3.0", "time_elapsed": 1041064, "key_press": -1, "trial_index": 121}, "uniqueid": "MTK2409:3LEIZ60CDK6JEJFFDOVPV5OKS639ZG", "dateTime": 1517079775469}, {"current_trial": 122, "trialdata": {"rt": -1, "trial_type": "single-stim", "stimulus": "<p id=\"stim\">6</p>", "internal_node_id": "0.0-91.0-4.0", "time_elapsed": 1042069, "key_press": -1, "trial_index": 122}, "uniqueid": "MTK2409:3LEIZ60CDK6JEJFFDOVPV5OKS639ZG", "dateTime": 1517079776474}, {"current_trial": 123, "trialdata": {"rt": -1, "trial_type": "single-stim", "stimulus": "<p id=\"stim\">5</p>", "internal_node_id": "0.0-91.0-5.0", "time_elapsed": 1043075, "key_press": -1, "trial_index": 123}, "uniqueid": "MTK2409:3LEIZ60CDK6JEJFFDOVPV5OKS639ZG", "dateTime": 1517079777481}, {"current_trial": 124, "trialdata": {"rt": -1, "trial_type": "single-stim", "stimulus": "<p id=\"stim\">4</p>", "internal_node_id": "0.0-91.0-6.0", "time_elapsed": 1044090, "key_press": -1, "trial_index": 124}, "uniqueid": "MTK2409:3LEIZ60CDK6JEJFFDOVPV5OKS639ZG", "dateTime": 1517079778495}, {"current_trial": 125, "trialdata": {"rt": -1, "trial_type": "single-stim", "stimulus": "<p id=\"stim\">3</p>", "internal_node_id": "0.0-91.0-7.0", "time_elapsed": 1045197, "key_press": -1, "trial_index": 125}, "uniqueid": "MTK2409:3LEIZ60CDK6JEJFFDOVPV5OKS639ZG", "dateTime": 1517079779602}, {"current_trial": 126, "trialdata": {"rt": -1, "trial_type": "single-stim", "stimulus": "<p id=\"stim\">2</p>", "internal_node_id": "0.0-91.0-8.0", "time_elapsed": 1046201, "key_press": -1, "trial_index": 126}, "uniqueid": "MTK2409:3LEIZ60CDK6JEJFFDOVPV5OKS639ZG", "dateTime": 1517079780606}, {"current_trial": 127, "trialdata": {"rt": -1, "trial_type": "single-stim", "stimulus": "<p id=\"stim\">1</p>", "internal_node_id": "0.0-91.0-9.0", "time_elapsed": 1047206, "key_press": -1, "trial_index": 127}, "uniqueid": "MTK2409:3LEIZ60CDK6JEJFFDOVPV5OKS639ZG", "dateTime": 1517079781612}, {"current_trial": 128, "trialdata": {"rt": -1, "trial_type": "single-stim", "stimulus": "<p id=\"stim\">+</p>", "internal_node_id": "0.0-92.0-0.0", "time_elapsed": 1048708, "key_press": -1, "type": "FIXATION", "trial_index": 128}, "uniqueid": "MTK2409:3LEIZ60CDK6JEJFFDOVPV5OKS639ZG", "dateTime": 1517079783114}, {"current_trial": 129, "trialdata": {"rt": -1000, "trial_type": "single-audio", "word": "flower", "stimulus": "/static/audio/wordpool/FLOWER.wav", "conditions": [24, 800, "a", 12000], "internal_node_id": "0.0-93.0", "trial": 3, "time_elapsed": 1050597, "serialpos": 0, "key_press": -1, "wordID": 583, "type": "PRES_AUD", "trial_index": 129}, "uniqueid": "MTK2409:3LEIZ60CDK6JEJFFDOVPV5OKS639ZG", "dateTime": 1517079785002}, {"current_trial": 130, "trialdata": {"rt": -1000, "trial_type": "single-audio", "word": "chauffeur", "stimulus": "/static/audio/wordpool/CHAUFFEUR.wav", "conditions": [24, 800, "a", 12000], "internal_node_id": "0.0-94.0", "trial": 3, "time_elapsed": 1052400, "serialpos": 1, "key_press": -1, "wordID": 282, "type": "PRES_AUD", "trial_index": 130}, "uniqueid": "MTK2409:3LEIZ60CDK6JEJFFDOVPV5OKS639ZG", "dateTime": 1517079786805}, {"current_trial": 131, "trialdata": {"rt": -1000, "trial_type": "single-audio", "word": "belly", "stimulus": "/static/audio/wordpool/BELLY.wav", "conditions": [24, 800, "a", 12000], "internal_node_id": "0.0-95.0", "trial": 3, "time_elapsed": 1054281, "serialpos": 2, "key_press": -1, "wordID": 118, "type": "PRES_AUD", "trial_index": 131}, "uniqueid": "MTK2409:3LEIZ60CDK6JEJFFDOVPV5OKS639ZG", "dateTime": 1517079788687}, {"current_trial": 132, "trialdata": {"rt": -1000, "trial_type": "single-audio", "word": "salad", "stimulus": "/static/audio/wordpool/SALAD.wav", "conditions": [24, 800, "a", 12000], "internal_node_id": "0.0-96.0", "trial": 3, "time_elapsed": 1055948, "serialpos": 3, "key_press": -1, "wordID": 1223, "type": "PRES_AUD", "trial_index": 132}, "uniqueid": "MTK2409:3LEIZ60CDK6JEJFFDOVPV5OKS639ZG", "dateTime": 1517079790353}, {"current_trial": 133, "trialdata": {"rt": -1000, "trial_type": "single-audio", "word": "mummy", "stimulus": "/static/audio/wordpool/MUMMY.wav", "conditions": [24, 800, "a", 12000], "internal_node_id": "0.0-97.0", "trial": 3, "time_elapsed": 1057964, "serialpos": 4, "key_press": -1, "wordID": 931, "type": "PRES_AUD", "trial_index": 133}, "uniqueid": "MTK2409:3LEIZ60CDK6JEJFFDOVPV5OKS639ZG", "dateTime": 1517079792370}, {"current_trial": 134, "trialdata": {"rt": -1000, "trial_type": "single-audio", "word": "chipmunk", "stimulus": "/static/audio/wordpool/CHIPMUNK.wav", "conditions": [24, 800, "a", 12000], "internal_node_id": "0.0-98.0", "trial": 3, "time_elapsed": 1059876, "serialpos": 5, "key_press": -1, "wordID": 303, "type": "PRES_AUD", "trial_index": 134}, "uniqueid": "MTK2409:3LEIZ60CDK6JEJFFDOVPV5OKS639ZG", "dateTime": 1517079794281}, {"current_trial": 135, "trialdata": {"rt": -1000, "trial_type": "single-audio", "word": "daisy", "stimulus": "/static/audio/wordpool/DAISY.wav", "conditions": [24, 800, "a", 12000], "internal_node_id": "0.0-99.0", "trial": 3, "time_elapsed": 1061868, "serialpos": 6, "key_press": -1, "wordID": 434, "type": "PRES_AUD", "trial_index": 135}, "uniqueid": "MTK2409:3LEIZ60CDK6JEJFFDOVPV5OKS639ZG", "dateTime": 1517079796274}, {"current_trial": 136, "trialdata": {"rt": -1000, "trial_type": "single-audio", "word": "lagoon", "stimulus": "/static/audio/wordpool/LAGOON.wav", "conditions": [24, 800, "a", 12000], "internal_node_id": "0.0-100.0", "trial": 3, "time_elapsed": 1063612, "serialpos": 7, "key_press": -1, "wordID": 794, "type": "PRES_AUD", "trial_index": 136}, "uniqueid": "MTK2409:3LEIZ60CDK6JEJFFDOVPV5OKS639ZG", "dateTime": 1517079798017}, {"current_trial": 137, "trialdata": {"rt": -1000, "trial_type": "single-audio", "word": "tweezers", "stimulus": "/static/audio/wordpool/TWEEZERS.wav", "conditions": [24, 800, "a", 12000], "internal_node_id": "0.0-101.0", "trial": 3, "time_elapsed": 1065400, "serialpos": 8, "key_press": -1, "wordID": 1525, "type": "PRES_AUD", "trial_index": 137}, "uniqueid": "MTK2409:3LEIZ60CDK6JEJFFDOVPV5OKS639ZG", "dateTime": 1517079799806}, {"current_trial": 138, "trialdata": {"rt": -1000, "trial_type": "single-audio", "word": "pudding", "stimulus": "/static/audio/wordpool/PUDDING.wav", "conditions": [24, 800, "a", 12000], "internal_node_id": "0.0-102.0", "trial": 3, "time_elapsed": 1067358, "serialpos": 9, "key_press": -1, "wordID": 1138, "type": "PRES_AUD", "trial_index": 138}, "uniqueid": "MTK2409:3LEIZ60CDK6JEJFFDOVPV5OKS639ZG", "dateTime": 1517079801763}, {"current_trial": 139, "trialdata": {"rt": -1000, "trial_type": "single-audio", "word": "custard", "stimulus": "/static/audio/wordpool/CUSTARD.wav", "conditions": [24, 800, "a", 12000], "internal_node_id": "0.0-103.0", "trial": 3, "time_elapsed": 1069127, "serialpos": 10, "key_press": -1, "wordID": 428, "type": "PRES_AUD", "trial_index": 139}, "uniqueid": "MTK2409:3LEIZ60CDK6JEJFFDOVPV5OKS639ZG", "dateTime": 1517079803532}, {"current_trial": 140, "trialdata": {"rt": -1000, "trial_type": "single-audio", "word": "county", "stimulus": "/static/audio/wordpool/COUNTY.wav", "conditions": [24, 800, "a", 12000], "internal_node_id": "0.0-104.0", "trial": 3, "time_elapsed": 1070827, "serialpos": 11, "key_press": -1, "wordID": 388, "type": "PRES_AUD", "trial_index": 140}, "uniqueid": "MTK2409:3LEIZ60CDK6JEJFFDOVPV5OKS639ZG", "dateTime": 1517079805232}, {"current_trial": 141, "trialdata": {"rt": -1000, "trial_type": "single-audio", "word": "gymnast", "stimulus": "/static/audio/wordpool/GYMNAST.wav", "conditions": [24, 800, "a", 12000], "internal_node_id": "0.0-105.0", "trial": 3, "time_elapsed": 1072861, "serialpos": 12, "key_press": -1, "wordID": 674, "type": "PRES_AUD", "trial_index": 141}, "uniqueid": "MTK2409:3LEIZ60CDK6JEJFFDOVPV5OKS639ZG", "dateTime": 1517079807266}, {"current_trial": 142, "trialdata": {"rt": -1000, "trial_type": "single-audio", "word": "smog", "stimulus": "/static/audio/wordpool/SMOG.wav", "conditions": [24, 800, "a", 12000], "internal_node_id": "0.0-106.0", "trial": 3, "time_elapsed": 1074495, "serialpos": 13, "key_press": -1, "wordID": 1329, "type": "PRES_AUD", "trial_index": 142}, "uniqueid": "MTK2409:3LEIZ60CDK6JEJFFDOVPV5OKS639ZG", "dateTime": 1517079808900}, {"current_trial": 143, "trialdata": {"rt": -1000, "trial_type": "single-audio", "word": "clock", "stimulus": "/static/audio/wordpool/CLOCK.wav", "conditions": [24, 800, "a", 12000], "internal_node_id": "0.0-107.0", "trial": 3, "time_elapsed": 1076133, "serialpos": 14, "key_press": -1, "wordID": 324, "type": "PRES_AUD", "trial_index": 143}, "uniqueid": "MTK2409:3LEIZ60CDK6JEJFFDOVPV5OKS639ZG", "dateTime": 1517079810538}, {"current_trial": 144, "trialdata": {"rt": -1000, "trial_type": "single-audio", "word": "church", "stimulus": "/static/audio/wordpool/CHURCH.wav", "conditions": [24, 800, "a", 12000], "internal_node_id": "0.0-108.0", "trial": 3, "time_elapsed": 1077943, "serialpos": 15, "key_press": -1, "wordID": 306, "type": "PRES_AUD", "trial_index": 144}, "uniqueid": "MTK2409:3LEIZ60CDK6JEJFFDOVPV5OKS639ZG", "dateTime": 1517079812348}, {"current_trial": 145, "trialdata": {"rt": -1000, "trial_type": "single-audio", "word": "swimmer", "stimulus": "/static/audio/wordpool/SWIMMER.wav", "conditions": [24, 800, "a", 12000], "internal_node_id": "0.0-109.0", "trial": 3, "time_elapsed": 1079706, "serialpos": 16, "key_press": -1, "wordID": 1419, "type": "PRES_AUD", "trial_index": 145}, "uniqueid": "MTK2409:3LEIZ60CDK6JEJFFDOVPV5OKS639ZG", "dateTime": 1517079814112}, {"current_trial": 146, "trialdata": {"rt": -1000, "trial_type": "single-audio", "word": "scallop", "stimulus": "/static/audio/wordpool/SCALLOP.wav", "conditions": [24, 800, "a", 12000], "internal_node_id": "0.0-110.0", "trial": 3, "time_elapsed": 1081577, "serialpos": 17, "key_press": -1, "wordID": 1241, "type": "PRES_AUD", "trial_index": 146}, "uniqueid": "MTK2409:3LEIZ60CDK6JEJFFDOVPV5OKS639ZG", "dateTime": 1517079815982}, {"current_trial": 147, "trialdata": {"rt": -1000, "trial_type": "single-audio", "word": "oyster", "stimulus": "/static/audio/wordpool/OYSTER.wav", "conditions": [24, 800, "a", 12000], "internal_node_id": "0.0-111.0", "trial": 3, "time_elapsed": 1083198, "serialpos": 18, "key_press": -1, "wordID": 994, "type": "PRES_AUD", "trial_index": 147}, "uniqueid": "MTK2409:3LEIZ60CDK6JEJFFDOVPV5OKS639ZG", "dateTime": 1517079817604}, {"current_trial": 148, "trialdata": {"rt": -1000, "trial_type": "single-audio", "word": "binder", "stimulus": "/static/audio/wordpool/BINDER.wav", "conditions": [24, 800, "a", 12000], "internal_node_id": "0.0-112.0", "trial": 3, "time_elapsed": 1084938, "serialpos": 19, "key_press": -1, "wordID": 126, "type": "PRES_AUD", "trial_index": 148}, "uniqueid": "MTK2409:3LEIZ60CDK6JEJFFDOVPV5OKS639ZG", "dateTime": 1517079819343}, {"current_trial": 149, "trialdata": {"rt": -1000, "trial_type": "single-audio", "word": "palace", "stimulus": "/static/audio/wordpool/PALACE.wav", "conditions": [24, 800, "a", 12000], "internal_node_id": "0.0-113.0", "trial": 3, "time_elapsed": 1086652, "serialpos": 20, "key_press": -1, "wordID": 1005, "type": "PRES_AUD", "trial_index": 149}, "uniqueid": "MTK2409:3LEIZ60CDK6JEJFFDOVPV5OKS639ZG", "dateTime": 1517079821057}, {"current_trial": 150, "trialdata": {"rt": -1000, "trial_type": "single-audio", "word": "canal", "stimulus": "/static/audio/wordpool/CANAL.wav", "conditions": [24, 800, "a", 12000], "internal_node_id": "0.0-114.0", "trial": 3, "time_elapsed": 1088291, "serialpos": 21, "key_press": -1, "wordID": 225, "type": "PRES_AUD", "trial_index": 150}, "uniqueid": "MTK2409:3LEIZ60CDK6JEJFFDOVPV5OKS639ZG", "dateTime": 1517079822697}, {"current_trial": 151, "trialdata": {"rt": -1000, "trial_type": "single-audio", "word": "subway", "stimulus": "/static/audio/wordpool/SUBWAY.wav", "conditions": [24, 800, "a", 12000], "internal_node_id": "0.0-115.0", "trial": 3, "time_elapsed": 1090084, "serialpos": 22, "key_press": -1, "wordID": 1399, "type": "PRES_AUD", "trial_index": 151}, "uniqueid": "MTK2409:3LEIZ60CDK6JEJFFDOVPV5OKS639ZG", "dateTime": 1517079824489}, {"current_trial": 152, "trialdata": {"rt": -1000, "trial_type": "single-audio", "word": "trout", "stimulus": "/static/audio/wordpool/TROUT.wav", "conditions": [24, 800, "a", 12000], "internal_node_id": "0.0-116.0", "trial": 3, "time_elapsed": 1091861, "serialpos": 23, "key_press": -1, "wordID": 1510, "type": "PRES_AUD", "trial_index": 152}, "uniqueid": "MTK2409:3LEIZ60CDK6JEJFFDOVPV5OKS639ZG", "dateTime": 1517079826266}, {"current_trial": 153, "trialdata": {"rt": -1, "trial_type": "single-stim", "stimulus": "", "internal_node_id": "0.0-117.0-0.0", "time_elapsed": 1093187, "key_press": -1, "type": "PRE_RECALL_DELAY", "trial_index": 153}, "uniqueid": "MTK2409:3LEIZ60CDK6JEJFFDOVPV5OKS639ZG", "dateTime": 1517079827593}, {"current_trial": 154, "trialdata": {"rt": -1000, "trial_type": "single-audio", "stimulus": "/static/audio/400Hz.wav", "internal_node_id": "0.0-118.0", "time_elapsed": 1093698, "key_press": -1, "type": "PRE_RECALL_ALERT", "trial_index": 154}, "uniqueid": "MTK2409:3LEIZ60CDK6JEJFFDOVPV5OKS639ZG", "dateTime": 1517079828103}, {"current_trial": 155, "trialdata": {"rt": [1253, 3591, 5842, 8765, 10557, 12833, 14663, 16223, 18114, 21341, 33010, 34211], "recwords": ["trout", "subway", "palace", "canal", "binder", "oyster", "scallop", "flower", "daisy", "salad", "church", "clock"], "key_times": [571, 742, 857, 947, 1052, 1253, 1725, 1735, 2652, 2891, 3055, 3185, 3591, 4172, 4354, 4512, 4638, 4866, 5030, 5476, 5533, 5842, 6667, 7364, 7513, 7672, 7805, 8306, 8464, 8765, 9520, 9704, 9872, 10039, 10207, 10320, 10557, 11465, 11755, 12133, 12331, 12449, 12562, 12833, 13176, 13393, 13593, 13738, 13913, 14125, 14337, 14663, 15223, 15380, 15586, 15685, 15773, 15998, 16223, 17002, 17453, 17471, 17509, 17704, 18114, 20168, 20323, 20462, 20639, 20987, 21341, 29376, 29692, 30274, 31171, 31291, 31461, 31912, 32010, 32626, 32741, 33010, 33362, 33434, 33634, 33766, 33906, 34211], "trial_type": "free-recall", "conditions": [24, 800, "a", 12000], "internal_node_id": "0.0-119.0-0.0", "key_presses": [84, 82, 79, 85, 84, 13, 83, 85, 66, 87, 65, 89, 13, 80, 65, 76, 65, 67, 65, 8, 69, 13, 65, 8, 67, 65, 78, 65, 76, 13, 66, 73, 78, 68, 69, 82, 13, 79, 89, 83, 84, 69, 82, 13, 83, 67, 65, 76, 76, 79, 80, 13, 70, 76, 79, 87, 69, 82, 13, 68, 65, 73, 83, 89, 13, 83, 65, 76, 65, 68, 13, 67, 85, 8, 72, 85, 67, 8, 82, 67, 72, 13, 67, 76, 79, 67, 75, 13], "trial": 3, "time_elapsed": 1153712, "type": "FREE_RECALL", "trial_index": 155}, "uniqueid": "MTK2409:3LEIZ60CDK6JEJFFDOVPV5OKS639ZG", "dateTime": 1517079888129}, {"current_trial": 156, "trialdata": {"rt": 2108, "trial_type": "text", "internal_node_id": "0.0-120.0", "time_elapsed": 1157836, "key_press": 13, "type": "INSTRUCTIONS", "trial_index": 156}, "uniqueid": "MTK2409:3LEIZ60CDK6JEJFFDOVPV5OKS639ZG", "dateTime": 1517079892241}, {"current_trial": 157, "trialdata": {"rt": [2164, 5106, 6744, 9031, 10761], "trial_type": "math-distractor", "key_times": [1766, 1884, 2164, 4708, 4838, 5106, 6373, 6457, 6744, 8692, 8874, 9031, 10472, 10593, 10761], "responses": ["12", "20", "10", "11", "13"], "num2": [2, 6, 4, 2, 9, 8], "num3": [7, 7, 1, 5, 2, 5], "conditions": [24, 1600, "a", 12000], "internal_node_id": "0.0-121.0", "key_presses": [49, 50, 13, 50, 48, 13, 49, 48, 13, 49, 49, 13, 49, 51, 13], "trial": 4, "time_elapsed": 1171848, "type": "DISTRACTOR", "trial_index": 157, "num1": [3, 7, 5, 4, 2, 6]}, "uniqueid": "MTK2409:3LEIZ60CDK6JEJFFDOVPV5OKS639ZG", "dateTime": 1517079906253}, {"current_trial": 158, "trialdata": {"rt": -1, "trial_type": "single-stim", "stimulus": "<p id=\"stim\">10</p>", "internal_node_id": "0.0-122.0-0.0", "time_elapsed": 1174883, "key_press": -1, "trial_index": 158}, "uniqueid": "MTK2409:3LEIZ60CDK6JEJFFDOVPV5OKS639ZG", "dateTime": 1517079909288}, {"current_trial": 159, "trialdata": {"rt": -1, "trial_type": "single-stim", "stimulus": "<p id=\"stim\">9</p>", "internal_node_id": "0.0-122.0-1.0", "time_elapsed": 1175883, "key_press": -1, "trial_index": 159}, "uniqueid": "MTK2409:3LEIZ60CDK6JEJFFDOVPV5OKS639ZG", "dateTime": 1517079910288}, {"current_trial": 160, "trialdata": {"rt": -1, "trial_type": "single-stim", "stimulus": "<p id=\"stim\">8</p>", "internal_node_id": "0.0-122.0-2.0", "time_elapsed": 1176891, "key_press": -1, "trial_index": 160}, "uniqueid": "MTK2409:3LEIZ60CDK6JEJFFDOVPV5OKS639ZG", "dateTime": 1517079911296}, {"current_trial": 161, "trialdata": {"rt": -1, "trial_type": "single-stim", "stimulus": "<p id=\"stim\">7</p>", "internal_node_id": "0.0-122.0-3.0", "time_elapsed": 1177893, "key_press": -1, "trial_index": 161}, "uniqueid": "MTK2409:3LEIZ60CDK6JEJFFDOVPV5OKS639ZG", "dateTime": 1517079912298}, {"current_trial": 162, "trialdata": {"rt": -1, "trial_type": "single-stim", "stimulus": "<p id=\"stim\">6</p>", "internal_node_id": "0.0-122.0-4.0", "time_elapsed": 1178894, "key_press": -1, "trial_index": 162}, "uniqueid": "MTK2409:3LEIZ60CDK6JEJFFDOVPV5OKS639ZG", "dateTime": 1517079913299}, {"current_trial": 163, "trialdata": {"rt": -1, "trial_type": "single-stim", "stimulus": "<p id=\"stim\">5</p>", "internal_node_id": "0.0-122.0-5.0", "time_elapsed": 1179901, "key_press": -1, "trial_index": 163}, "uniqueid": "MTK2409:3LEIZ60CDK6JEJFFDOVPV5OKS639ZG", "dateTime": 1517079914306}, {"current_trial": 164, "trialdata": {"rt": -1, "trial_type": "single-stim", "stimulus": "<p id=\"stim\">4</p>", "internal_node_id": "0.0-122.0-6.0", "time_elapsed": 1180903, "key_press": -1, "trial_index": 164}, "uniqueid": "MTK2409:3LEIZ60CDK6JEJFFDOVPV5OKS639ZG", "dateTime": 1517079915308}, {"current_trial": 165, "trialdata": {"rt": -1, "trial_type": "single-stim", "stimulus": "<p id=\"stim\">3</p>", "internal_node_id": "0.0-122.0-7.0", "time_elapsed": 1182170, "key_press": -1, "trial_index": 165}, "uniqueid": "MTK2409:3LEIZ60CDK6JEJFFDOVPV5OKS639ZG", "dateTime": 1517079916575}, {"current_trial": 166, "trialdata": {"rt": -1, "trial_type": "single-stim", "stimulus": "<p id=\"stim\">2</p>", "internal_node_id": "0.0-122.0-8.0", "time_elapsed": 1183170, "key_press": -1, "trial_index": 166}, "uniqueid": "MTK2409:3LEIZ60CDK6JEJFFDOVPV5OKS639ZG", "dateTime": 1517079917575}, {"current_trial": 167, "trialdata": {"rt": -1, "trial_type": "single-stim", "stimulus": "<p id=\"stim\">1</p>", "internal_node_id": "0.0-122.0-9.0", "time_elapsed": 1184173, "key_press": -1, "trial_index": 167}, "uniqueid": "MTK2409:3LEIZ60CDK6JEJFFDOVPV5OKS639ZG", "dateTime": 1517079918578}, {"current_trial": 168, "trialdata": {"rt": -1, "trial_type": "single-stim", "stimulus": "<p id=\"stim\">+</p>", "internal_node_id": "0.0-123.0-0.0", "time_elapsed": 1185679, "key_press": -1, "type": "FIXATION", "trial_index": 168}, "uniqueid": "MTK2409:3LEIZ60CDK6JEJFFDOVPV5OKS639ZG", "dateTime": 1517079920088}, {"current_trial": 169, "trialdata": {"rt": -1000, "trial_type": "single-audio", "word": "finger", "stimulus": "/static/audio/wordpool/FINGER.wav", "conditions": [24, 1600, "a", 12000], "internal_node_id": "0.0-124.0", "trial": 4, "time_elapsed": 1188476, "serialpos": 0, "key_press": -1, "wordID": 566, "type": "PRES_AUD", "trial_index": 169}, "uniqueid": "MTK2409:3LEIZ60CDK6JEJFFDOVPV5OKS639ZG", "dateTime": 1517079922881}, {"current_trial": 170, "trialdata": {"rt": -1000, "trial_type": "single-audio", "word": "creature", "stimulus": "/static/audio/wordpool/CREATURE.wav", "conditions": [24, 1600, "a", 12000], "internal_node_id": "0.0-125.0", "trial": 4, "time_elapsed": 1190965, "serialpos": 1, "key_press": -1, "wordID": 402, "type": "PRES_AUD", "trial_index": 170}, "uniqueid": "MTK2409:3LEIZ60CDK6JEJFFDOVPV5OKS639ZG", "dateTime": 1517079925371}, {"current_trial": 171, "trialdata": {"rt": -1000, "trial_type": "single-audio", "word": "boyfriend", "stimulus": "/static/audio/wordpool/BOYFRIEND.wav", "conditions": [24, 1600, "a", 12000], "internal_node_id": "0.0-126.0", "trial": 4, "time_elapsed": 1193435, "serialpos": 2, "key_press": -1, "wordID": 161, "type": "PRES_AUD", "trial_index": 171}, "uniqueid": "MTK2409:3LEIZ60CDK6JEJFFDOVPV5OKS639ZG", "dateTime": 1517079927840}, {"current_trial": 172, "trialdata": {"rt": -1000, "trial_type": "single-audio", "word": "cyclone", "stimulus": "/static/audio/wordpool/CYCLONE.wav", "conditions": [24, 1600, "a", 12000], "internal_node_id": "0.0-127.0", "trial": 4, "time_elapsed": 1196148, "serialpos": 3, "key_press": -1, "wordID": 430, "type": "PRES_AUD", "trial_index": 172}, "uniqueid": "MTK2409:3LEIZ60CDK6JEJFFDOVPV5OKS639ZG", "dateTime": 1517079930554}, {"current_trial": 173, "trialdata": {"rt": -1000, "trial_type": "single-audio", "word": "europe", "stimulus": "/static/audio/wordpool/EUROPE.wav", "conditions": [24, 1600, "a", 12000], "internal_node_id": "0.0-128.0", "trial": 4, "time_elapsed": 1199006, "serialpos": 4, "key_press": -1, "wordID": 540, "type": "PRES_AUD", "trial_index": 173}, "uniqueid": "MTK2409:3LEIZ60CDK6JEJFFDOVPV5OKS639ZG", "dateTime": 1517079933411}, {"current_trial": 174, "trialdata": {"rt": -1000, "trial_type": "single-audio", "word": "asia", "stimulus": "/static/audio/wordpool/ASIA.wav", "conditions": [24, 1600, "a", 12000], "internal_node_id": "0.0-129.0", "trial": 4, "time_elapsed": 1201561, "serialpos": 5, "key_press": -1, "wordID": 45, "type": "PRES_AUD", "trial_index": 174}, "uniqueid": "MTK2409:3LEIZ60CDK6JEJFFDOVPV5OKS639ZG", "dateTime": 1517079935966}, {"current_trial": 175, "trialdata": {"rt": -1000, "trial_type": "single-audio", "word": "fox", "stimulus": "/static/audio/wordpool/FOX.wav", "conditions": [24, 1600, "a", 12000], "internal_node_id": "0.0-130.0", "trial": 4, "time_elapsed": 1204092, "serialpos": 6, "key_press": -1, "wordID": 597, "type": "PRES_AUD", "trial_index": 175}, "uniqueid": "MTK2409:3LEIZ60CDK6JEJFFDOVPV5OKS639ZG", "dateTime": 1517079938497}, {"current_trial": 176, "trialdata": {"rt": -1000, "trial_type": "single-audio", "word": "frame", "stimulus": "/static/audio/wordpool/FRAME.wav", "conditions": [24, 1600, "a", 12000], "internal_node_id": "0.0-131.0", "trial": 4, "time_elapsed": 1206659, "serialpos": 7, "key_press": -1, "wordID": 599, "type": "PRES_AUD", "trial_index": 176}, "uniqueid": "MTK2409:3LEIZ60CDK6JEJFFDOVPV5OKS639ZG", "dateTime": 1517079941065}, {"current_trial": 177, "trialdata": {"rt": -1000, "trial_type": "single-audio", "word": "shark", "stimulus": "/static/audio/wordpool/SHARK.wav", "conditions": [24, 1600, "a", 12000], "internal_node_id": "0.0-132.0", "trial": 4, "time_elapsed": 1209190, "serialpos": 8, "key_press": -1, "wordID": 1274, "type": "PRES_AUD", "trial_index": 177}, "uniqueid": "MTK2409:3LEIZ60CDK6JEJFFDOVPV5OKS639ZG", "dateTime": 1517079943596}, {"current_trial": 178, "trialdata": {"rt": -1000, "trial_type": "single-audio", "word": "iceberg", "stimulus": "/static/audio/wordpool/ICEBERG.wav", "conditions": [24, 1600, "a", 12000], "internal_node_id": "0.0-133.0", "trial": 4, "time_elapsed": 1211890, "serialpos": 9, "key_press": -1, "wordID": 730, "type": "PRES_AUD", "trial_index": 178}, "uniqueid": "MTK2409:3LEIZ60CDK6JEJFFDOVPV5OKS639ZG", "dateTime": 1517079946295}, {"current_trial": 179, "trialdata": {"rt": -1000, "trial_type": "single-audio", "word": "friend", "stimulus": "/static/audio/wordpool/FRIEND.wav", "conditions": [24, 1600, "a", 12000], "internal_node_id": "0.0-134.0", "trial": 4, "time_elapsed": 1214393, "serialpos": 10, "key_press": -1, "wordID": 605, "type": "PRES_AUD", "trial_index": 179}, "uniqueid": "MTK2409:3LEIZ60CDK6JEJFFDOVPV5OKS639ZG", "dateTime": 1517079948799}, {"current_trial": 180, "trialdata": {"rt": -1000, "trial_type": "single-audio", "word": "portrait", "stimulus": "/static/audio/wordpool/PORTRAIT.wav", "conditions": [24, 1600, "a", 12000], "internal_node_id": "0.0-135.0", "trial": 4, "time_elapsed": 1216866, "serialpos": 11, "key_press": -1, "wordID": 1110, "type": "PRES_AUD", "trial_index": 180}, "uniqueid": "MTK2409:3LEIZ60CDK6JEJFFDOVPV5OKS639ZG", "dateTime": 1517079951271}, {"current_trial": 181, "trialdata": {"rt": -1000, "trial_type": "single-audio", "word": "lava", "stimulus": "/static/audio/wordpool/LAVA.wav", "conditions": [24, 1600, "a", 12000], "internal_node_id": "0.0-136.0", "trial": 4, "time_elapsed": 1219339, "serialpos": 12, "key_press": -1, "wordID": 803, "type": "PRES_AUD", "trial_index": 181}, "uniqueid": "MTK2409:3LEIZ60CDK6JEJFFDOVPV5OKS639ZG", "dateTime": 1517079953744}, {"current_trial": 182, "trialdata": {"rt": -1000, "trial_type": "single-audio", "word": "crater", "stimulus": "/static/audio/wordpool/CRATER.wav", "conditions": [24, 1600, "a", 12000], "internal_node_id": "0.0-137.0", "trial": 4, "time_elapsed": 1221821, "serialpos": 13, "key_press": -1, "wordID": 399, "type": "PRES_AUD", "trial_index": 182}, "uniqueid": "MTK2409:3LEIZ60CDK6JEJFFDOVPV5OKS639ZG", "dateTime": 1517079956226}, {"current_trial": 183, "trialdata": {"rt": -1000, "trial_type": "single-audio", "word": "gangster", "stimulus": "/static/audio/wordpool/GANGSTER.wav", "conditions": [24, 1600, "a", 12000], "internal_node_id": "0.0-138.0", "trial": 4, "time_elapsed": 1224618, "serialpos": 14, "key_press": -1, "wordID": 619, "type": "PRES_AUD", "trial_index": 183}, "uniqueid": "MTK2409:3LEIZ60CDK6JEJFFDOVPV5OKS639ZG", "dateTime": 1517079959024}, {"current_trial": 184, "trialdata": {"rt": -1000, "trial_type": "single-audio", "word": "fruit", "stimulus": "/static/audio/wordpool/FRUIT.wav", "conditions": [24, 1600, "a", 12000], "internal_node_id": "0.0-139.0", "trial": 4, "time_elapsed": 1227162, "serialpos": 15, "key_press": -1, "wordID": 609, "type": "PRES_AUD", "trial_index": 184}, "uniqueid": "MTK2409:3LEIZ60CDK6JEJFFDOVPV5OKS639ZG", "dateTime": 1517079961567}, {"current_trial": 185, "trialdata": {"rt": -1000, "trial_type": "single-audio", "word": "wasp", "stimulus": "/static/audio/wordpool/WASP.wav", "conditions": [24, 1600, "a", 12000], "internal_node_id": "0.0-140.0", "trial": 4, "time_elapsed": 1229761, "serialpos": 16, "key_press": -1, "wordID": 1592, "type": "PRES_AUD", "trial_index": 185}, "uniqueid": "MTK2409:3LEIZ60CDK6JEJFFDOVPV5OKS639ZG", "dateTime": 1517079964167}, {"current_trial": 186, "trialdata": {"rt": -1000, "trial_type": "single-audio", "word": "turtle", "stimulus": "/static/audio/wordpool/TURTLE.wav", "conditions": [24, 1600, "a", 12000], "internal_node_id": "0.0-141.0", "trial": 4, "time_elapsed": 1232381, "serialpos": 17, "key_press": -1, "wordID": 1521, "type": "PRES_AUD", "trial_index": 186}, "uniqueid": "MTK2409:3LEIZ60CDK6JEJFFDOVPV5OKS639ZG", "dateTime": 1517079966787}, {"current_trial": 187, "trialdata": {"rt": -1000, "trial_type": "single-audio", "word": "tunnel", "stimulus": "/static/audio/wordpool/TUNNEL.wav", "conditions": [24, 1600, "a", 12000], "internal_node_id": "0.0-142.0", "trial": 4, "time_elapsed": 1234990, "serialpos": 18, "key_press": -1, "wordID": 1518, "type": "PRES_AUD", "trial_index": 187}, "uniqueid": "MTK2409:3LEIZ60CDK6JEJFFDOVPV5OKS639ZG", "dateTime": 1517079969396}, {"current_trial": 188, "trialdata": {"rt": -1000, "trial_type": "single-audio", "word": "hero", "stimulus": "/static/audio/wordpool/HERO.wav", "conditions": [24, 1600, "a", 12000], "internal_node_id": "0.0-143.0", "trial": 4, "time_elapsed": 1237639, "serialpos": 19, "key_press": -1, "wordID": 705, "type": "PRES_AUD", "trial_index": 188}, "uniqueid": "MTK2409:3LEIZ60CDK6JEJFFDOVPV5OKS639ZG", "dateTime": 1517079972044}, {"current_trial": 189, "trialdata": {"rt": -1000, "trial_type": "single-audio", "word": "tutu", "stimulus": "/static/audio/wordpool/TUTU.wav", "conditions": [24, 1600, "a", 12000], "internal_node_id": "0.0-144.0", "trial": 4, "time_elapsed": 1240363, "serialpos": 20, "key_press": -1, "wordID": 1523, "type": "PRES_AUD", "trial_index": 189}, "uniqueid": "MTK2409:3LEIZ60CDK6JEJFFDOVPV5OKS639ZG", "dateTime": 1517079974768}, {"current_trial": 190, "trialdata": {"rt": -1000, "trial_type": "single-audio", "word": "patrol", "stimulus": "/static/audio/wordpool/PATROL.wav", "conditions": [24, 1600, "a", 12000], "internal_node_id": "0.0-145.0", "trial": 4, "time_elapsed": 1242968, "serialpos": 21, "key_press": -1, "wordID": 1026, "type": "PRES_AUD", "trial_index": 190}, "uniqueid": "MTK2409:3LEIZ60CDK6JEJFFDOVPV5OKS639ZG", "dateTime": 1517079977374}, {"current_trial": 191, "trialdata": {"rt": -1000, "trial_type": "single-audio", "word": "uncle", "stimulus": "/static/audio/wordpool/UNCLE.wav", "conditions": [24, 1600, "a", 12000], "internal_node_id": "0.0-146.0", "trial": 4, "time_elapsed": 1245446, "serialpos": 22, "key_press": -1, "wordID": 1535, "type": "PRES_AUD", "trial_index": 191}, "uniqueid": "MTK2409:3LEIZ60CDK6JEJFFDOVPV5OKS639ZG", "dateTime": 1517079979851}, {"current_trial": 192, "trialdata": {"rt": -1000, "trial_type": "single-audio", "word": "costume", "stimulus": "/static/audio/wordpool/COSTUME.wav", "conditions": [24, 1600, "a", 12000], "internal_node_id": "0.0-147.0", "trial": 4, "time_elapsed": 1247926, "serialpos": 23, "key_press": -1, "wordID": 382, "type": "PRES_AUD", "trial_index": 192}, "uniqueid": "MTK2409:3LEIZ60CDK6JEJFFDOVPV5OKS639ZG", "dateTime": 1517079982331}, {"current_trial": 193, "trialdata": {"rt": -1, "trial_type": "single-stim", "stimulus": "", "internal_node_id": "0.0-148.0-0.0", "time_elapsed": 1249144, "key_press": -1, "type": "PRE_RECALL_DELAY", "trial_index": 193}, "uniqueid": "MTK2409:3LEIZ60CDK6JEJFFDOVPV5OKS639ZG", "dateTime": 1517079983549}, {"current_trial": 194, "trialdata": {"rt": -1000, "trial_type": "single-audio", "stimulus": "/static/audio/400Hz.wav", "internal_node_id": "0.0-149.0", "time_elapsed": 1249649, "key_press": -1, "type": "PRE_RECALL_ALERT", "trial_index": 194}, "uniqueid": "MTK2409:3LEIZ60CDK6JEJFFDOVPV5OKS639ZG", "dateTime": 1517079984054}, {"current_trial": 195, "trialdata": {"rt": [2489, 4632, 5980, 7206, 10099, 12140, 13690, 15114, 18150, 19859, 22061, 24677, 32490], "recwords": ["costume", "uncle", "patrol", "hero", "boyfriend", "friend", "creature", "fox", "shark", "turtle", "cyclone", "lava", "finger"], "key_times": [1182, 1321, 1490, 1680, 1773, 2007, 2122, 2489, 3264, 3470, 3730, 4302, 4442, 4632, 4919, 5078, 5273, 5448, 5543, 5763, 5980, 6537, 6554, 6560, 6831, 7206, 8267, 8494, 8730, 8910, 9147, 9254, 9387, 9594, 9890, 10099, 10621, 11080, 11128, 11361, 11447, 11610, 11752, 11908, 12140, 12575, 12642, 12723, 12993, 13043, 13195, 13333, 13495, 13690, 14116, 14323, 14584, 15114, 17113, 17230, 17391, 17517, 17789, 18150, 18508, 18589, 18765, 19116, 19382, 19519, 19859, 20586, 20761, 20860, 21161, 21406, 21624, 21744, 22061, 23728, 23868, 24110, 24268, 24677, 29861, 29997, 30327, 30458, 30570, 31068, 31213, 31362, 31669, 31824, 31982, 32075, 32490], "trial_type": "free-recall", "conditions": [24, 1600, "a", 12000], "internal_node_id": "0.0-150.0-0.0", "key_presses": [67, 79, 83, 84, 85, 77, 69, 13, 85, 78, 67, 76, 69, 13, 80, 65, 84, 82, 79, 76, 13, 72, 69, 82, 79, 13, 66, 79, 89, 70, 82, 73, 69, 78, 68, 13, 82, 8, 70, 82, 73, 69, 78, 68, 13, 67, 82, 69, 65, 84, 85, 82, 69, 13, 70, 79, 88, 13, 83, 72, 65, 82, 75, 13, 84, 85, 82, 84, 76, 69, 13, 67, 89, 67, 76, 79, 78, 69, 13, 76, 65, 86, 65, 13, 70, 73, 71, 69, 82, 8, 8, 8, 78, 71, 69, 82, 13], "trial": 4, "time_elapsed": 1309659, "type": "FREE_RECALL", "trial_index": 195}, "uniqueid": "MTK2409:3LEIZ60CDK6JEJFFDOVPV5OKS639ZG", "dateTime": 1517080044079}, {"current_trial": 196, "trialdata": {"rt": 405502, "trial_type": "text", "internal_node_id": "0.0-151.0", "time_elapsed": 1717177, "key_press": 13, "type": "INSTRUCTIONS", "trial_index": 196}, "uniqueid": "MTK2409:3LEIZ60CDK6JEJFFDOVPV5OKS639ZG", "dateTime": 1517080451582}, {"current_trial": 197, "trialdata": {"rt": [], "trial_type": "math-distractor", "key_times": [11761, 12057], "responses": [], "num2": [5], "num3": [9], "conditions": [12, 1600, "a", 12000], "internal_node_id": "0.0-152.0", "key_presses": [49, 56], "trial": 5, "time_elapsed": 1731254, "type": "DISTRACTOR", "trial_index": 197, "num1": [4]}, "uniqueid": "MTK2409:3LEIZ60CDK6JEJFFDOVPV5OKS639ZG", "dateTime": 1517080465663}, {"current_trial": 198, "trialdata": {"rt": -1, "trial_type": "single-stim", "stimulus": "<p id=\"stim\">10</p>", "internal_node_id": "0.0-153.0-0.0", "time_elapsed": 1734272, "key_press": -1, "trial_index": 198}, "uniqueid": "MTK2409:3LEIZ60CDK6JEJFFDOVPV5OKS639ZG", "dateTime": 1517080468677}, {"current_trial": 199, "trialdata": {"rt": -1, "trial_type": "single-stim", "stimulus": "<p id=\"stim\">9</p>", "internal_node_id": "0.0-153.0-1.0", "time_elapsed": 1735275, "key_press": -1, "trial_index": 199}, "uniqueid": "MTK2409:3LEIZ60CDK6JEJFFDOVPV5OKS639ZG", "dateTime": 1517080469680}, {"current_trial": 200, "trialdata": {"rt": -1, "trial_type": "single-stim", "stimulus": "<p id=\"stim\">8</p>", "internal_node_id": "0.0-153.0-2.0", "time_elapsed": 1736279, "key_press": -1, "trial_index": 200}, "uniqueid": "MTK2409:3LEIZ60CDK6JEJFFDOVPV5OKS639ZG", "dateTime": 1517080470684}, {"current_trial": 201, "trialdata": {"rt": -1, "trial_type": "single-stim", "stimulus": "<p id=\"stim\">7</p>", "internal_node_id": "0.0-153.0-3.0", "time_elapsed": 1737285, "key_press": -1, "trial_index": 201}, "uniqueid": "MTK2409:3LEIZ60CDK6JEJFFDOVPV5OKS639ZG", "dateTime": 1517080471690}, {"current_trial": 202, "trialdata": {"rt": -1, "trial_type": "single-stim", "stimulus": "<p id=\"stim\">6</p>", "internal_node_id": "0.0-153.0-4.0", "time_elapsed": 1738288, "key_press": -1, "trial_index": 202}, "uniqueid": "MTK2409:3LEIZ60CDK6JEJFFDOVPV5OKS639ZG", "dateTime": 1517080472693}, {"current_trial": 203, "trialdata": {"rt": -1, "trial_type": "single-stim", "stimulus": "<p id=\"stim\">5</p>", "internal_node_id": "0.0-153.0-5.0", "time_elapsed": 1739290, "key_press": -1, "trial_index": 203}, "uniqueid": "MTK2409:3LEIZ60CDK6JEJFFDOVPV5OKS639ZG", "dateTime": 1517080473695}, {"current_trial": 204, "trialdata": {"rt": -1, "trial_type": "single-stim", "stimulus": "<p id=\"stim\">4</p>", "internal_node_id": "0.0-153.0-6.0", "time_elapsed": 1740294, "key_press": -1, "trial_index": 204}, "uniqueid": "MTK2409:3LEIZ60CDK6JEJFFDOVPV5OKS639ZG", "dateTime": 1517080474699}, {"current_trial": 205, "trialdata": {"rt": -1, "trial_type": "single-stim", "stimulus": "<p id=\"stim\">3</p>", "internal_node_id": "0.0-153.0-7.0", "time_elapsed": 1741294, "key_press": -1, "trial_index": 205}, "uniqueid": "MTK2409:3LEIZ60CDK6JEJFFDOVPV5OKS639ZG", "dateTime": 1517080475699}, {"current_trial": 206, "trialdata": {"rt": -1, "trial_type": "single-stim", "stimulus": "<p id=\"stim\">2</p>", "internal_node_id": "0.0-153.0-8.0", "time_elapsed": 1742295, "key_press": -1, "trial_index": 206}, "uniqueid": "MTK2409:3LEIZ60CDK6JEJFFDOVPV5OKS639ZG", "dateTime": 1517080476700}, {"current_trial": 207, "trialdata": {"rt": -1, "trial_type": "single-stim", "stimulus": "<p id=\"stim\">1</p>", "internal_node_id": "0.0-153.0-9.0", "time_elapsed": 1743303, "key_press": -1, "trial_index": 207}, "uniqueid": "MTK2409:3LEIZ60CDK6JEJFFDOVPV5OKS639ZG", "dateTime": 1517080477708}, {"current_trial": 208, "trialdata": {"rt": -1, "trial_type": "single-stim", "stimulus": "<p id=\"stim\">+</p>", "internal_node_id": "0.0-154.0-0.0", "time_elapsed": 1744810, "key_press": -1, "type": "FIXATION", "trial_index": 208}, "uniqueid": "MTK2409:3LEIZ60CDK6JEJFFDOVPV5OKS639ZG", "dateTime": 1517080479215}, {"current_trial": 209, "trialdata": {"rt": -1000, "trial_type": "single-audio", "word": "tart", "stimulus": "/static/audio/wordpool/TART.wav", "conditions": [12, 1600, "a", 12000], "internal_node_id": "0.0-155.0", "trial": 5, "time_elapsed": 1747227, "serialpos": 0, "key_press": -1, "wordID": 1435, "type": "PRES_AUD", "trial_index": 209}, "uniqueid": "MTK2409:3LEIZ60CDK6JEJFFDOVPV5OKS639ZG", "dateTime": 1517080481633}, {"current_trial": 210, "trialdata": {"rt": -1000, "trial_type": "single-audio", "word": "jelly", "stimulus": "/static/audio/wordpool/JELLY.wav", "conditions": [12, 1600, "a", 12000], "internal_node_id": "0.0-156.0", "trial": 5, "time_elapsed": 1749724, "serialpos": 1, "key_press": -1, "wordID": 754, "type": "PRES_AUD", "trial_index": 210}, "uniqueid": "MTK2409:3LEIZ60CDK6JEJFFDOVPV5OKS639ZG", "dateTime": 1517080484129}, {"current_trial": 211, "trialdata": {"rt": -1000, "trial_type": "single-audio", "word": "soda", "stimulus": "/static/audio/wordpool/SODA.wav", "conditions": [12, 1600, "a", 12000], "internal_node_id": "0.0-157.0", "trial": 5, "time_elapsed": 1752273, "serialpos": 2, "key_press": -1, "wordID": 1340, "type": "PRES_AUD", "trial_index": 211}, "uniqueid": "MTK2409:3LEIZ60CDK6JEJFFDOVPV5OKS639ZG", "dateTime": 1517080486678}, {"current_trial": 212, "trialdata": {"rt": -1000, "trial_type": "single-audio", "word": "gift", "stimulus": "/static/audio/wordpool/GIFT.wav", "conditions": [12, 1600, "a", 12000], "internal_node_id": "0.0-158.0", "trial": 5, "time_elapsed": 1754942, "serialpos": 3, "key_press": -1, "wordID": 634, "type": "PRES_AUD", "trial_index": 212}, "uniqueid": "MTK2409:3LEIZ60CDK6JEJFFDOVPV5OKS639ZG", "dateTime": 1517080489347}, {"current_trial": 213, "trialdata": {"rt": -1000, "trial_type": "single-audio", "word": "freckle", "stimulus": "/static/audio/wordpool/FRECKLE.wav", "conditions": [12, 1600, "a", 12000], "internal_node_id": "0.0-159.0", "trial": 5, "time_elapsed": 1757512, "serialpos": 4, "key_press": -1, "wordID": 601, "type": "PRES_AUD", "trial_index": 213}, "uniqueid": "MTK2409:3LEIZ60CDK6JEJFFDOVPV5OKS639ZG", "dateTime": 1517080491917}, {"current_trial": 214, "trialdata": {"rt": -1000, "trial_type": "single-audio", "word": "gazelle", "stimulus": "/static/audio/wordpool/GAZELLE.wav", "conditions": [12, 1600, "a", 12000], "internal_node_id": "0.0-160.0", "trial": 5, "time_elapsed": 1760198, "serialpos": 5, "key_press": -1, "wordID": 627, "type": "PRES_AUD", "trial_index": 214}, "uniqueid": "MTK2409:3LEIZ60CDK6JEJFFDOVPV5OKS639ZG", "dateTime": 1517080494604}, {"current_trial": 215, "trialdata": {"rt": -1000, "trial_type": "single-audio", "word": "spoon", "stimulus": "/static/audio/wordpool/SPOON.wav", "conditions": [12, 1600, "a", 12000], "internal_node_id": "0.0-161.0", "trial": 5, "time_elapsed": 1762724, "serialpos": 6, "key_press": -1, "wordID": 1356, "type": "PRES_AUD", "trial_index": 215}, "uniqueid": "MTK2409:3LEIZ60CDK6JEJFFDOVPV5OKS639ZG", "dateTime": 1517080497129}, {"current_trial": 216, "trialdata": {"rt": -1000, "trial_type": "single-audio", "word": "driver", "stimulus": "/static/audio/wordpool/DRIVER.wav", "conditions": [12, 1600, "a", 12000], "internal_node_id": "0.0-162.0", "trial": 5, "time_elapsed": 1765190, "serialpos": 7, "key_press": -1, "wordID": 498, "type": "PRES_AUD", "trial_index": 216}, "uniqueid": "MTK2409:3LEIZ60CDK6JEJFFDOVPV5OKS639ZG", "dateTime": 1517080499596}, {"current_trial": 217, "trialdata": {"rt": -1000, "trial_type": "single-audio", "word": "truck", "stimulus": "/static/audio/wordpool/TRUCK.wav", "conditions": [12, 1600, "a", 12000], "internal_node_id": "0.0-163.0", "trial": 5, "time_elapsed": 1767655, "serialpos": 8, "key_press": -1, "wordID": 1511, "type": "PRES_AUD", "trial_index": 217}, "uniqueid": "MTK2409:3LEIZ60CDK6JEJFFDOVPV5OKS639ZG", "dateTime": 1517080502061}, {"current_trial": 218, "trialdata": {"rt": -1000, "trial_type": "single-audio", "word": "camel", "stimulus": "/static/audio/wordpool/CAMEL.wav", "conditions": [12, 1600, "a", 12000], "internal_node_id": "0.0-164.0", "trial": 5, "time_elapsed": 1770114, "serialpos": 9, "key_press": -1, "wordID": 222, "type": "PRES_AUD", "trial_index": 218}, "uniqueid": "MTK2409:3LEIZ60CDK6JEJFFDOVPV5OKS639ZG", "dateTime": 1517080504519}, {"current_trial": 219, "trialdata": {"rt": -1000, "trial_type": "single-audio", "word": "banquet", "stimulus": "/static/audio/wordpool/BANQUET.wav", "conditions": [12, 1600, "a", 12000], "internal_node_id": "0.0-165.0", "trial": 5, "time_elapsed": 1772553, "serialpos": 10, "key_press": -1, "wordID": 85, "type": "PRES_AUD", "trial_index": 219}, "uniqueid": "MTK2409:3LEIZ60CDK6JEJFFDOVPV5OKS639ZG", "dateTime": 1517080506958}, {"current_trial": 220, "trialdata": {"rt": -1000, "trial_type": "single-audio", "word": "candy", "stimulus": "/static/audio/wordpool/CANDY.wav", "conditions": [12, 1600, "a", 12000], "internal_node_id": "0.0-166.0", "trial": 5, "time_elapsed": 1775263, "serialpos": 11, "key_press": -1, "wordID": 229, "type": "PRES_AUD", "trial_index": 220}, "uniqueid": "MTK2409:3LEIZ60CDK6JEJFFDOVPV5OKS639ZG", "dateTime": 1517080509668}, {"current_trial": 221, "trialdata": {"rt": -1, "trial_type": "single-stim", "stimulus": "", "internal_node_id": "0.0-167.0-0.0", "time_elapsed": 1776605, "key_press": -1, "type": "PRE_RECALL_DELAY", "trial_index": 221}, "uniqueid": "MTK2409:3LEIZ60CDK6JEJFFDOVPV5OKS639ZG", "dateTime": 1517080511011}, {"current_trial": 222, "trialdata": {"rt": -1000, "trial_type": "single-audio", "stimulus": "/static/audio/400Hz.wav", "internal_node_id": "0.0-168.0", "time_elapsed": 1777109, "key_press": -1, "type": "PRE_RECALL_ALERT", "trial_index": 222}, "uniqueid": "MTK2409:3LEIZ60CDK6JEJFFDOVPV5OKS639ZG", "dateTime": 1517080511515}, {"current_trial": 223, "trialdata": {"rt": [16170, 19076, 29123, 35045], "recwords": ["tart", "camel", "camera", "clear"], "key_times": [14735, 14903, 15096, 15302, 16170, 18128, 18248, 18486, 18652, 19070, 19076, 28030, 28048, 28268, 28415, 28509, 28807, 29123, 34237, 34443, 34575, 34755, 34815, 35045], "trial_type": "free-recall", "conditions": [12, 1600, "a", 12000], "internal_node_id": "0.0-169.0-0.0", "key_presses": [84, 65, 82, 84, 13, 67, 65, 77, 69, 76, 13, 67, 65, 77, 69, 82, 65, 13, 67, 76, 69, 65, 82, 13], "trial": 5, "time_elapsed": 1837124, "type": "FREE_RECALL", "trial_index": 223}, "uniqueid": "MTK2409:3LEIZ60CDK6JEJFFDOVPV5OKS639ZG", "dateTime": 1517080571545}, {"current_trial": 224, "trialdata": {"rt": 1430, "trial_type": "text", "internal_node_id": "0.0-170.0", "time_elapsed": 1840574, "key_press": 13, "type": "INSTRUCTIONS", "trial_index": 224}, "uniqueid": "MTK2409:3LEIZ60CDK6JEJFFDOVPV5OKS639ZG", "dateTime": 1517080574979}, {"current_trial": 225, "trialdata": {"rt": [4070, 5716, 8221, 10170, 12456, 14162, 18476, 20648, 22831], "trial_type": "math-distractor", "key_times": [2608, 2769, 4070, 5434, 5524, 5716, 7682, 8221, 9933, 10170, 12024, 12200, 12456, 13872, 13997, 14162, 18138, 18297, 18476, 20288, 20632, 20648, 22494, 22656, 22831], "responses": ["22", "12", "9", "8", "17", "13", "12", "14", "11"], "num2": [8, 4, 3, 3, 7, 3, 3, 3, 7, 9], "num3": [5, 6, 3, 1, 9, 3, 4, 3, 2, 1], "conditions": [12, 800, "a", 24000], "internal_node_id": "0.0-171.0", "key_presses": [50, 50, 13, 49, 50, 13, 57, 13, 56, 13, 49, 55, 13, 49, 51, 13, 49, 50, 13, 49, 52, 13, 49, 49, 13], "trial": 6, "time_elapsed": 1866604, "type": "DISTRACTOR", "trial_index": 225, "num1": [9, 2, 3, 4, 1, 7, 5, 8, 2, 2]}, "uniqueid": "MTK2409:3LEIZ60CDK6JEJFFDOVPV5OKS639ZG", "dateTime": 1517080601009}, {"current_trial": 226, "trialdata": {"rt": -1, "trial_type": "single-stim", "stimulus": "<p id=\"stim\">10</p>", "internal_node_id": "0.0-172.0-0.0", "time_elapsed": 1869627, "key_press": -1, "trial_index": 226}, "uniqueid": "MTK2409:3LEIZ60CDK6JEJFFDOVPV5OKS639ZG", "dateTime": 1517080604032}, {"current_trial": 227, "trialdata": {"rt": -1, "trial_type": "single-stim", "stimulus": "<p id=\"stim\">9</p>", "internal_node_id": "0.0-172.0-1.0", "time_elapsed": 1870634, "key_press": -1, "trial_index": 227}, "uniqueid": "MTK2409:3LEIZ60CDK6JEJFFDOVPV5OKS639ZG", "dateTime": 1517080605039}, {"current_trial": 228, "trialdata": {"rt": -1, "trial_type": "single-stim", "stimulus": "<p id=\"stim\">8</p>", "internal_node_id": "0.0-172.0-2.0", "time_elapsed": 1871637, "key_press": -1, "trial_index": 228}, "uniqueid": "MTK2409:3LEIZ60CDK6JEJFFDOVPV5OKS639ZG", "dateTime": 1517080606042}, {"current_trial": 229, "trialdata": {"rt": -1, "trial_type": "single-stim", "stimulus": "<p id=\"stim\">7</p>", "internal_node_id": "0.0-172.0-3.0", "time_elapsed": 1872640, "key_press": -1, "trial_index": 229}, "uniqueid": "MTK2409:3LEIZ60CDK6JEJFFDOVPV5OKS639ZG", "dateTime": 1517080607045}, {"current_trial": 230, "trialdata": {"rt": -1, "trial_type": "single-stim", "stimulus": "<p id=\"stim\">6</p>", "internal_node_id": "0.0-172.0-4.0", "time_elapsed": 1873641, "key_press": -1, "trial_index": 230}, "uniqueid": "MTK2409:3LEIZ60CDK6JEJFFDOVPV5OKS639ZG", "dateTime": 1517080608046}, {"current_trial": 231, "trialdata": {"rt": -1, "trial_type": "single-stim", "stimulus": "<p id=\"stim\">5</p>", "internal_node_id": "0.0-172.0-5.0", "time_elapsed": 1874643, "key_press": -1, "trial_index": 231}, "uniqueid": "MTK2409:3LEIZ60CDK6JEJFFDOVPV5OKS639ZG", "dateTime": 1517080609048}, {"current_trial": 232, "trialdata": {"rt": -1, "trial_type": "single-stim", "stimulus": "<p id=\"stim\">4</p>", "internal_node_id": "0.0-172.0-6.0", "time_elapsed": 1875657, "key_press": -1, "trial_index": 232}, "uniqueid": "MTK2409:3LEIZ60CDK6JEJFFDOVPV5OKS639ZG", "dateTime": 1517080610062}, {"current_trial": 233, "trialdata": {"rt": -1, "trial_type": "single-stim", "stimulus": "<p id=\"stim\">3</p>", "internal_node_id": "0.0-172.0-7.0", "time_elapsed": 1876657, "key_press": -1, "trial_index": 233}, "uniqueid": "MTK2409:3LEIZ60CDK6JEJFFDOVPV5OKS639ZG", "dateTime": 1517080611062}, {"current_trial": 234, "trialdata": {"rt": -1, "trial_type": "single-stim", "stimulus": "<p id=\"stim\">2</p>", "internal_node_id": "0.0-172.0-8.0", "time_elapsed": 1877659, "key_press": -1, "trial_index": 234}, "uniqueid": "MTK2409:3LEIZ60CDK6JEJFFDOVPV5OKS639ZG", "dateTime": 1517080612064}, {"current_trial": 235, "trialdata": {"rt": -1, "trial_type": "single-stim", "stimulus": "<p id=\"stim\">1</p>", "internal_node_id": "0.0-172.0-9.0", "time_elapsed": 1878663, "key_press": -1, "trial_index": 235}, "uniqueid": "MTK2409:3LEIZ60CDK6JEJFFDOVPV5OKS639ZG", "dateTime": 1517080613068}, {"current_trial": 236, "trialdata": {"rt": -1, "trial_type": "single-stim", "stimulus": "<p id=\"stim\">+</p>", "internal_node_id": "0.0-173.0-0.0", "time_elapsed": 1880167, "key_press": -1, "type": "FIXATION", "trial_index": 236}, "uniqueid": "MTK2409:3LEIZ60CDK6JEJFFDOVPV5OKS639ZG", "dateTime": 1517080614572}, {"current_trial": 237, "trialdata": {"rt": -1000, "trial_type": "single-audio", "word": "harp", "stimulus": "/static/audio/wordpool/HARP.wav", "conditions": [12, 800, "a", 24000], "internal_node_id": "0.0-174.0", "trial": 6, "time_elapsed": 1881897, "serialpos": 0, "key_press": -1, "wordID": 688, "type": "PRES_AUD", "trial_index": 237}, "uniqueid": "MTK2409:3LEIZ60CDK6JEJFFDOVPV5OKS639ZG", "dateTime": 1517080616302}, {"current_trial": 238, "trialdata": {"rt": -1000, "trial_type": "single-audio", "word": "diner", "stimulus": "/static/audio/wordpool/DINER.wav", "conditions": [12, 800, "a", 24000], "internal_node_id": "0.0-175.0", "trial": 6, "time_elapsed": 1883822, "serialpos": 1, "key_press": -1, "wordID": 466, "type": "PRES_AUD", "trial_index": 238}, "uniqueid": "MTK2409:3LEIZ60CDK6JEJFFDOVPV5OKS639ZG", "dateTime": 1517080618232}, {"current_trial": 239, "trialdata": {"rt": -1000, "trial_type": "single-audio", "word": "machine", "stimulus": "/static/audio/wordpool/MACHINE.wav", "conditions": [12, 800, "a", 24000], "internal_node_id": "0.0-176.0", "trial": 6, "time_elapsed": 1885593, "serialpos": 2, "key_press": -1, "wordID": 851, "type": "PRES_AUD", "trial_index": 239}, "uniqueid": "MTK2409:3LEIZ60CDK6JEJFFDOVPV5OKS639ZG", "dateTime": 1517080619998}, {"current_trial": 240, "trialdata": {"rt": -1000, "trial_type": "single-audio", "word": "monster", "stimulus": "/static/audio/wordpool/MONSTER.wav", "conditions": [12, 800, "a", 24000], "internal_node_id": "0.0-177.0", "trial": 6, "time_elapsed": 1887617, "serialpos": 3, "key_press": -1, "wordID": 911, "type": "PRES_AUD", "trial_index": 240}, "uniqueid": "MTK2409:3LEIZ60CDK6JEJFFDOVPV5OKS639ZG", "dateTime": 1517080622023}, {"current_trial": 241, "trialdata": {"rt": -1000, "trial_type": "single-audio", "word": "butcher", "stimulus": "/static/audio/wordpool/BUTCHER.wav", "conditions": [12, 800, "a", 24000], "internal_node_id": "0.0-178.0", "trial": 6, "time_elapsed": 1889357, "serialpos": 4, "key_press": -1, "wordID": 202, "type": "PRES_AUD", "trial_index": 241}, "uniqueid": "MTK2409:3LEIZ60CDK6JEJFFDOVPV5OKS639ZG", "dateTime": 1517080623763}, {"current_trial": 242, "trialdata": {"rt": -1000, "trial_type": "single-audio", "word": "piano", "stimulus": "/static/audio/wordpool/PIANO.wav", "conditions": [12, 800, "a", 24000], "internal_node_id": "0.0-179.0", "trial": 6, "time_elapsed": 1891314, "serialpos": 5, "key_press": -1, "wordID": 1056, "type": "PRES_AUD", "trial_index": 242}, "uniqueid": "MTK2409:3LEIZ60CDK6JEJFFDOVPV5OKS639ZG", "dateTime": 1517080625719}, {"current_trial": 243, "trialdata": {"rt": -1000, "trial_type": "single-audio", "word": "cross", "stimulus": "/static/audio/wordpool/CROSS.wav", "conditions": [12, 800, "a", 24000], "internal_node_id": "0.0-180.0", "trial": 6, "time_elapsed": 1893090, "serialpos": 6, "key_press": -1, "wordID": 412, "type": "PRES_AUD", "trial_index": 243}, "uniqueid": "MTK2409:3LEIZ60CDK6JEJFFDOVPV5OKS639ZG", "dateTime": 1517080627496}, {"current_trial": 244, "trialdata": {"rt": -1000, "trial_type": "single-audio", "word": "viking", "stimulus": "/static/audio/wordpool/VIKING.wav", "conditions": [12, 800, "a", 24000], "internal_node_id": "0.0-181.0", "trial": 6, "time_elapsed": 1895063, "serialpos": 7, "key_press": -1, "wordID": 1564, "type": "PRES_AUD", "trial_index": 244}, "uniqueid": "MTK2409:3LEIZ60CDK6JEJFFDOVPV5OKS639ZG", "dateTime": 1517080629469}, {"current_trial": 245, "trialdata": {"rt": -1000, "trial_type": "single-audio", "word": "guitar", "stimulus": "/static/audio/wordpool/GUITAR.wav", "conditions": [12, 800, "a", 24000], "internal_node_id": "0.0-182.0", "trial": 6, "time_elapsed": 1897072, "serialpos": 8, "key_press": -1, "wordID": 669, "type": "PRES_AUD", "trial_index": 245}, "uniqueid": "MTK2409:3LEIZ60CDK6JEJFFDOVPV5OKS639ZG", "dateTime": 1517080631478}, {"current_trial": 246, "trialdata": {"rt": -1000, "trial_type": "single-audio", "word": "cattle", "stimulus": "/static/audio/wordpool/CATTLE.wav", "conditions": [12, 800, "a", 24000], "internal_node_id": "0.0-183.0", "trial": 6, "time_elapsed": 1899007, "serialpos": 9, "key_press": -1, "wordID": 260, "type": "PRES_AUD", "trial_index": 246}, "uniqueid": "MTK2409:3LEIZ60CDK6JEJFFDOVPV5OKS639ZG", "dateTime": 1517080633412}, {"current_trial": 247, "trialdata": {"rt": -1000, "trial_type": "single-audio", "word": "bison", "stimulus": "/static/audio/wordpool/BISON.wav", "conditions": [12, 800, "a", 24000], "internal_node