{"assignmentId": "3E1QT0TDFQGX5O7V8S1PVEQJEK48IA", "workerId": "MTK2872", "questiondata": {"origin": "United States", "strat-rehearsal": "34", "marital": "Single", "education": "Associate degree", "ethnicity": "Not Hispanic", "color_depth": 24, "distracted": "No", "wrote-notes": "Yes", "strat-other": "", "screen_width": 1280, "avail_screen_width": 1280, "avail_screen_height": 709, "strat-image": "36", "language": "English", "gender": "Male", "age": "20", "gender_other": "", "race": ["White"], "strat-categorize": "45", "pixel_depth": 24, "strat-spatial": "46", "strat-story": "29", "race_other": "", "screen_height": 800}, "bonus": 0, "hitId": "3087LXLJ6MNTQO28MEDNAIBPUHN0FP", "counterbalance": 1293, "useragent": "Mozilla/5.0 (Macintosh; Intel Mac OS X 10_13_3) AppleWebKit/537.36 (KHTML, like Gecko) Chrome/64.0.3282.167 Safari/537.36", "eventdata": [{"eventtype": "initialized", "interval": 0, "value": null, "timestamp": 1519420266299}, {"eventtype": "window_resize", "interval": 0, "value": [1280, 658], "timestamp": 1519420266299}, {"eventtype": "window_resize", "interval": 5043, "value": [1280, 772], "timestamp": 1519420271342}, {"eventtype": "focus", "interval": 1937421, "value": "off", "timestamp": 1519422208763}, {"eventtype": "focus", "interval": 34866, "value": "on", "timestamp": 1519422243629}, {"eventtype": "focus", "interval": 1, "value": "off", "timestamp": 1519422243630}, {"eventtype": "focus", "interval": 0, "value": "on", "timestamp": 1519422243630}], "data": [{"current_trial": 0, "trialdata": {"rt": 1531, "trial_type": "text", "internal_node_id": "0.0-0.0", "time_elapsed": 1533, "key_press": 32, "type": "INSTRUCTIONS", "trial_index": 0}, "uniqueid": "MTK2872:3E1QT0TDFQGX5O7V8S1PVEQJEK48IA", "dateTime": 1519420267955}, {"current_trial": 1, "trialdata": {"rt": 5533, "trial_type": "text", "internal_node_id": "0.0-1.0", "time_elapsed": 7068, "key_press": 32, "type": "INSTRUCTIONS", "trial_index": 1}, "uniqueid": "MTK2872:3E1QT0TDFQGX5O7V8S1PVEQJEK48IA", "dateTime": 1519420273489}, {"current_trial": 2, "trialdata": {"rt": [27610], "trial_type": "audio-test", "responses": ["ocean"], "internal_node_id": "0.0-2.0", "time_elapsed": 34686, "type": "AUDIO_TEST", "trial_index": 2}, "uniqueid": "MTK2872:3E1QT0TDFQGX5O7V8S1PVEQJEK48IA", "dateTime": 1519420301107}, {"current_trial": 3, "trialdata": {"rt": [5647], "trial_type": "audio-test", "responses": ["crystal"], "internal_node_id": "0.0-3.0", "time_elapsed": 40337, "type": "AUDIO_TEST", "trial_index": 3}, "uniqueid": "MTK2872:3E1QT0TDFQGX5O7V8S1PVEQJEK48IA", "dateTime": 1519420306758}, {"current_trial": 4, "trialdata": {"rt": [5836], "trial_type": "audio-test", "responses": ["spice"], "internal_node_id": "0.0-4.0", "time_elapsed": 46176, "type": "AUDIO_TEST", "trial_index": 4}, "uniqueid": "MTK2872:3E1QT0TDFQGX5O7V8S1PVEQJEK48IA", "dateTime": 1519420312597}, {"current_trial": 5, "trialdata": {"rt": 33975, "trial_type": "survey-text", "responses": "{\"Q0\":\"11 pm\",\"Q1\":\"6am\",\"Q2\":\"3\"}", "internal_node_id": "0.0-5.0", "time_elapsed": 80905, "type": "SLEEP_SURVEY", "trial_index": 5}, "uniqueid": "MTK2872:3E1QT0TDFQGX5O7V8S1PVEQJEK48IA", "dateTime": 1519420347326}, {"current_trial": 6, "trialdata": {"rt": 25540, "trial_type": "text", "internal_node_id": "0.0-6.0", "time_elapsed": 107448, "key_press": 32, "type": "INSTRUCTIONS", "trial_index": 6}, "uniqueid": "MTK2872:3E1QT0TDFQGX5O7V8S1PVEQJEK48IA", "dateTime": 1519420373869}, {"current_trial": 7, "trialdata": {"rt": 4173, "trial_type": "text", "internal_node_id": "0.0-7.0", "time_elapsed": 112125, "key_press": 32, "type": "INSTRUCTIONS", "trial_index": 7}, "uniqueid": "MTK2872:3E1QT0TDFQGX5O7V8S1PVEQJEK48IA", "dateTime": 1519420378546}, {"current_trial": 8, "trialdata": {"rt": 1843, "trial_type": "text", "internal_node_id": "0.0-8.0", "time_elapsed": 114472, "key_press": 32, "type": "INSTRUCTIONS", "trial_index": 8}, "uniqueid": "MTK2872:3E1QT0TDFQGX5O7V8S1PVEQJEK48IA", "dateTime": 1519420380893}, {"current_trial": 9, "trialdata": {"rt": [3892, 10039, 12954, 17112], "trial_type": "math-distractor", "key_times": [2472, 3298, 3892, 9427, 9591, 10039, 12349, 12954, 16529, 16817, 17112], "responses": ["16", "22", "9", "13"], "num2": [7, 7, 1, 3, 2], "num3": [2, 9, 3, 5, 2], "conditions": [18, 1200, "v", 18000], "internal_node_id": "0.0-9.0", "key_presses": [49, 54, 13, 50, 50, 13, 57, 13, 49, 51, 13], "trial": 0, "time_elapsed": 133485, "type": "DISTRACTOR", "trial_index": 9, "num1": [7, 6, 5, 5, 6]}, "uniqueid": "MTK2872:3E1QT0TDFQGX5O7V8S1PVEQJEK48IA", "dateTime": 1519420399906}, {"current_trial": 10, "trialdata": {"rt": -1, "trial_type": "single-stim", "stimulus": "<p id=\"stim\">10</p>", "internal_node_id": "0.0-10.0-0.0", "time_elapsed": 136492, "key_press": -1, "trial_index": 10}, "uniqueid": "MTK2872:3E1QT0TDFQGX5O7V8S1PVEQJEK48IA", "dateTime": 1519420402913}, {"current_trial": 11, "trialdata": {"rt": -1, "trial_type": "single-stim", "stimulus": "<p id=\"stim\">9</p>", "internal_node_id": "0.0-10.0-1.0", "time_elapsed": 137495, "key_press": -1, "trial_index": 11}, "uniqueid": "MTK2872:3E1QT0TDFQGX5O7V8S1PVEQJEK48IA", "dateTime": 1519420403916}, {"current_trial": 12, "trialdata": {"rt": -1, "trial_type": "single-stim", "stimulus": "<p id=\"stim\">8</p>", "internal_node_id": "0.0-10.0-2.0", "time_elapsed": 138498, "key_press": -1, "trial_index": 12}, "uniqueid": "MTK2872:3E1QT0TDFQGX5O7V8S1PVEQJEK48IA", "dateTime": 1519420404919}, {"current_trial": 13, "trialdata": {"rt": -1, "trial_type": "single-stim", "stimulus": "<p id=\"stim\">7</p>", "internal_node_id": "0.0-10.0-3.0", "time_elapsed": 139503, "key_press": -1, "trial_index": 13}, "uniqueid": "MTK2872:3E1QT0TDFQGX5O7V8S1PVEQJEK48IA", "dateTime": 1519420405924}, {"current_trial": 14, "trialdata": {"rt": -1, "trial_type": "single-stim", "stimulus": "<p id=\"stim\">6</p>", "internal_node_id": "0.0-10.0-4.0", "time_elapsed": 140506, "key_press": -1, "trial_index": 14}, "uniqueid": "MTK2872:3E1QT0TDFQGX5O7V8S1PVEQJEK48IA", "dateTime": 1519420406927}, {"current_trial": 15, "trialdata": {"rt": -1, "trial_type": "single-stim", "stimulus": "<p id=\"stim\">5</p>", "internal_node_id": "0.0-10.0-5.0", "time_elapsed": 141511, "key_press": -1, "trial_index": 15}, "uniqueid": "MTK2872:3E1QT0TDFQGX5O7V8S1PVEQJEK48IA", "dateTime": 1519420407932}, {"current_trial": 16, "trialdata": {"rt": -1, "trial_type": "single-stim", "stimulus": "<p id=\"stim\">4</p>", "internal_node_id": "0.0-10.0-6.0", "time_elapsed": 142515, "key_press": -1, "trial_index": 16}, "uniqueid": "MTK2872:3E1QT0TDFQGX5O7V8S1PVEQJEK48IA", "dateTime": 1519420408936}, {"current_trial": 17, "trialdata": {"rt": -1, "trial_type": "single-stim", "stimulus": "<p id=\"stim\">3</p>", "internal_node_id": "0.0-10.0-7.0", "time_elapsed": 143521, "key_press": -1, "trial_index": 17}, "uniqueid": "MTK2872:3E1QT0TDFQGX5O7V8S1PVEQJEK48IA", "dateTime": 1519420409942}, {"current_trial": 18, "trialdata": {"rt": -1, "trial_type": "single-stim", "stimulus": "<p id=\"stim\">2</p>", "internal_node_id": "0.0-10.0-8.0", "time_elapsed": 144524, "key_press": -1, "trial_index": 18}, "uniqueid": "MTK2872:3E1QT0TDFQGX5O7V8S1PVEQJEK48IA", "dateTime": 1519420410945}, {"current_trial": 19, "trialdata": {"rt": -1, "trial_type": "single-stim", "stimulus": "<p id=\"stim\">1</p>", "internal_node_id": "0.0-10.0-9.0", "time_elapsed": 145527, "key_press": -1, "trial_index": 19}, "uniqueid": "MTK2872:3E1QT0TDFQGX5O7V8S1PVEQJEK48IA", "dateTime": 1519420411948}, {"current_trial": 20, "trialdata": {"rt": -1, "trial_type": "single-stim", "stimulus": "<p id=\"stim\">+</p>", "internal_node_id": "0.0-11.0-0.0", "time_elapsed": 147030, "key_press": -1, "type": "FIXATION", "trial_index": 20}, "uniqueid": "MTK2872:3E1QT0TDFQGX5O7V8S1PVEQJEK48IA", "dateTime": 1519420413451}, {"current_trial": 21, "trialdata": {"rt": -1, "trial_type": "single-stim", "word": "peanut", "stimulus": "<p id=\"stim\">PEANUT</p>", "conditions": [18, 1200, "v", 18000], "internal_node_id": "0.0-12.0", "trial": 0, "time_elapsed": 148232, "serialpos": 0, "key_press": -1, "wordID": 1031, "type": "PRES_VIS", "trial_index": 21}, "uniqueid": "MTK2872:3E1QT0TDFQGX5O7V8S1PVEQJEK48IA", "dateTime": 1519420414654}, {"current_trial": 22, "trialdata": {"rt": -1, "trial_type": "single-stim", "word": "college", "stimulus": "<p id=\"stim\">COLLEGE</p>", "conditions": [18, 1200, "v", 18000], "internal_node_id": "0.0-13.0", "trial": 0, "time_elapsed": 150380, "serialpos": 1, "key_press": -1, "wordID": 345, "type": "PRES_VIS", "trial_index": 22}, "uniqueid": "MTK2872:3E1QT0TDFQGX5O7V8S1PVEQJEK48IA", "dateTime": 1519420416801}, {"current_trial": 23, "trialdata": {"rt": -1, "trial_type": "single-stim", "word": "robin", "stimulus": "<p id=\"stim\">ROBIN</p>", "conditions": [18, 1200, "v", 18000], "internal_node_id": "0.0-14.0", "trial": 0, "time_elapsed": 152505, "serialpos": 2, "key_press": -1, "wordID": 1198, "type": "PRES_VIS", "trial_index": 23}, "uniqueid": "MTK2872:3E1QT0TDFQGX5O7V8S1PVEQJEK48IA", "dateTime": 1519420418926}, {"current_trial": 24, "trialdata": {"rt": -1, "trial_type": "single-stim", "word": "wife", "stimulus": "<p id=\"stim\">WIFE</p>", "conditions": [18, 1200, "v", 18000], "internal_node_id": "0.0-15.0", "trial": 0, "time_elapsed": 154889, "serialpos": 3, "key_press": -1, "wordID": 1608, "type": "PRES_VIS", "trial_index": 24}, "uniqueid": "MTK2872:3E1QT0TDFQGX5O7V8S1PVEQJEK48IA", "dateTime": 1519420421310}, {"current_trial": 25, "trialdata": {"rt": -1, "trial_type": "single-stim", "word": "spider", "stimulus": "<p id=\"stim\">SPIDER</p>", "conditions": [18, 1200, "v", 18000], "internal_node_id": "0.0-16.0", "trial": 0, "time_elapsed": 157173, "serialpos": 4, "key_press": -1, "wordID": 1350, "type": "PRES_VIS", "trial_index": 25}, "uniqueid": "MTK2872:3E1QT0TDFQGX5O7V8S1PVEQJEK48IA", "dateTime": 1519420423594}, {"current_trial": 26, "trialdata": {"rt": -1, "trial_type": "single-stim", "word": "seafood", "stimulus": "<p id=\"stim\">SEAFOOD</p>", "conditions": [18, 1200, "v", 18000], "internal_node_id": "0.0-17.0", "trial": 0, "time_elapsed": 159460, "serialpos": 5, "key_press": -1, "wordID": 1259, "type": "PRES_VIS", "trial_index": 26}, "uniqueid": "MTK2872:3E1QT0TDFQGX5O7V8S1PVEQJEK48IA", "dateTime": 1519420425881}, {"current_trial": 27, "trialdata": {"rt": -1, "trial_type": "single-stim", "word": "sausage", "stimulus": "<p id=\"stim\">SAUSAGE</p>", "conditions": [18, 1200, "v", 18000], "internal_node_id": "0.0-18.0", "trial": 0, "time_elapsed": 161518, "serialpos": 6, "key_press": -1, "wordID": 1237, "type": "PRES_VIS", "trial_index": 27}, "uniqueid": "MTK2872:3E1QT0TDFQGX5O7V8S1PVEQJEK48IA", "dateTime": 1519420427939}, {"current_trial": 28, "trialdata": {"rt": -1, "trial_type": "single-stim", "word": "statue", "stimulus": "<p id=\"stim\">STATUE</p>", "conditions": [18, 1200, "v", 18000], "internal_node_id": "0.0-19.0", "trial": 0, "time_elapsed": 163756, "serialpos": 7, "key_press": -1, "wordID": 1373, "type": "PRES_VIS", "trial_index": 28}, "uniqueid": "MTK2872:3E1QT0TDFQGX5O7V8S1PVEQJEK48IA", "dateTime": 1519420430177}, {"current_trial": 29, "trialdata": {"rt": -1, "trial_type": "single-stim", "word": "tourist", "stimulus": "<p id=\"stim\">TOURIST</p>", "conditions": [18, 1200, "v", 18000], "internal_node_id": "0.0-20.0", "trial": 0, "time_elapsed": 166063, "serialpos": 8, "key_press": -1, "wordID": 1487, "type": "PRES_VIS", "trial_index": 29}, "uniqueid": "MTK2872:3E1QT0TDFQGX5O7V8S1PVEQJEK48IA", "dateTime": 1519420432484}, {"current_trial": 30, "trialdata": {"rt": -1, "trial_type": "single-stim", "word": "body", "stimulus": "<p id=\"stim\">BODY</p>", "conditions": [18, 1200, "v", 18000], "internal_node_id": "0.0-21.0", "trial": 0, "time_elapsed": 168332, "serialpos": 9, "key_press": -1, "wordID": 144, "type": "PRES_VIS", "trial_index": 30}, "uniqueid": "MTK2872:3E1QT0TDFQGX5O7V8S1PVEQJEK48IA", "dateTime": 1519420434753}, {"current_trial": 31, "trialdata": {"rt": -1, "trial_type": "single-stim", "word": "mop", "stimulus": "<p id=\"stim\">MOP</p>", "conditions": [18, 1200, "v", 18000], "internal_node_id": "0.0-22.0", "trial": 0, "time_elapsed": 170381, "serialpos": 10, "key_press": -1, "wordID": 915, "type": "PRES_VIS", "trial_index": 31}, "uniqueid": "MTK2872:3E1QT0TDFQGX5O7V8S1PVEQJEK48IA", "dateTime": 1519420436802}, {"current_trial": 32, "trialdata": {"rt": -1, "trial_type": "single-stim", "word": "scribble", "stimulus": "<p id=\"stim\">SCRIBBLE</p>", "conditions": [18, 1200, "v", 18000], "internal_node_id": "0.0-23.0", "trial": 0, "time_elapsed": 172459, "serialpos": 11, "key_press": -1, "wordID": 1255, "type": "PRES_VIS", "trial_index": 32}, "uniqueid": "MTK2872:3E1QT0TDFQGX5O7V8S1PVEQJEK48IA", "dateTime": 1519420438880}, {"current_trial": 33, "trialdata": {"rt": -1, "trial_type": "single-stim", "word": "milk", "stimulus": "<p id=\"stim\">MILK</p>", "conditions": [18, 1200, "v", 18000], "internal_node_id": "0.0-24.0", "trial": 0, "time_elapsed": 174708, "serialpos": 12, "key_press": -1, "wordID": 894, "type": "PRES_VIS", "trial_index": 33}, "uniqueid": "MTK2872:3E1QT0TDFQGX5O7V8S1PVEQJEK48IA", "dateTime": 1519420441129}, {"current_trial": 34, "trialdata": {"rt": -1, "trial_type": "single-stim", "word": "atom", "stimulus": "<p id=\"stim\">ATOM</p>", "conditions": [18, 1200, "v", 18000], "internal_node_id": "0.0-25.0", "trial": 0, "time_elapsed": 176751, "serialpos": 13, "key_press": -1, "wordID": 54, "type": "PRES_VIS", "trial_index": 34}, "uniqueid": "MTK2872:3E1QT0TDFQGX5O7V8S1PVEQJEK48IA", "dateTime": 1519420443172}, {"current_trial": 35, "trialdata": {"rt": -1, "trial_type": "single-stim", "word": "doughnut", "stimulus": "<p id=\"stim\">DOUGHNUT</p>", "conditions": [18, 1200, "v", 18000], "internal_node_id": "0.0-26.0", "trial": 0, "time_elapsed": 179061, "serialpos": 14, "key_press": -1, "wordID": 489, "type": "PRES_VIS", "trial_index": 35}, "uniqueid": "MTK2872:3E1QT0TDFQGX5O7V8S1PVEQJEK48IA", "dateTime": 1519420445482}, {"current_trial": 36, "trialdata": {"rt": -1, "trial_type": "single-stim", "word": "novel", "stimulus": "<p id=\"stim\">NOVEL</p>", "conditions": [18, 1200, "v", 18000], "internal_node_id": "0.0-27.0", "trial": 0, "time_elapsed": 181234, "serialpos": 15, "key_press": -1, "wordID": 959, "type": "PRES_VIS", "trial_index": 36}, "uniqueid": "MTK2872:3E1QT0TDFQGX5O7V8S1PVEQJEK48IA", "dateTime": 1519420447656}, {"current_trial": 37, "trialdata": {"rt": -1, "trial_type": "single-stim", "word": "shelf", "stimulus": "<p id=\"stim\">SHELF</p>", "conditions": [18, 1200, "v", 18000], "internal_node_id": "0.0-28.0", "trial": 0, "time_elapsed": 183318, "serialpos": 16, "key_press": -1, "wordID": 1279, "type": "PRES_VIS", "trial_index": 37}, "uniqueid": "MTK2872:3E1QT0TDFQGX5O7V8S1PVEQJEK48IA", "dateTime": 1519420449739}, {"current_trial": 38, "trialdata": {"rt": -1, "trial_type": "single-stim", "word": "clock", "stimulus": "<p id=\"stim\">CLOCK</p>", "conditions": [18, 1200, "v", 18000], "internal_node_id": "0.0-29.0", "trial": 0, "time_elapsed": 185367, "serialpos": 17, "key_press": -1, "wordID": 324, "type": "PRES_VIS", "trial_index": 38}, "uniqueid": "MTK2872:3E1QT0TDFQGX5O7V8S1PVEQJEK48IA", "dateTime": 1519420451788}, {"current_trial": 39, "trialdata": {"rt": -1, "trial_type": "single-stim", "stimulus": "", "internal_node_id": "0.0-30.0-0.0", "time_elapsed": 187573, "key_press": -1, "type": "PRE_RECALL_DELAY", "trial_index": 39}, "uniqueid": "MTK2872:3E1QT0TDFQGX5O7V8S1PVEQJEK48IA", "dateTime": 1519420453994}, {"current_trial": 40, "trialdata": {"rt": -1000, "trial_type": "single-audio", "stimulus": "/static/audio/400Hz.wav", "internal_node_id": "0.0-31.0", "time_elapsed": 188076, "key_press": -1, "type": "PRE_RECALL_ALERT", "trial_index": 40}, "uniqueid": "MTK2872:3E1QT0TDFQGX5O7V8S1PVEQJEK48IA", "dateTime": 1519420454497}, {"current_trial": 41, "trialdata": {"rt": [3496, 5396, 6370, 7574, 10188, 15541, 23204, 27635], "recwords": ["peanut", "college", "wife", "mop", "ocean", "seafood", "", "dance"], "key_times": [2235, 2357, 2543, 2668, 2835, 2938, 3496, 4027, 4145, 4609, 4756, 4845, 4994, 5190, 5396, 5760, 5929, 6054, 6204, 6370, 6872, 7099, 7299, 7574, 9332, 9392, 9554, 9793, 9913, 10188, 14385, 14555, 14726, 14922, 15064, 15257, 15345, 15541, 23204, 26545, 26805, 26983, 27083, 27370, 27635], "trial_type": "free-recall", "conditions": [18, 1200, "v", 18000], "internal_node_id": "0.0-32.0-0.0", "key_presses": [80, 69, 65, 78, 85, 84, 13, 67, 79, 76, 76, 69, 71, 69, 13, 87, 73, 70, 69, 13, 77, 79, 80, 13, 79, 67, 69, 65, 78, 13, 83, 69, 65, 70, 79, 79, 68, 13, 13, 68, 65, 78, 67, 69, 13], "trial": 0, "time_elapsed": 248082, "type": "FREE_RECALL", "trial_index": 41}, "uniqueid": "MTK2872:3E1QT0TDFQGX5O7V8S1PVEQJEK48IA", "dateTime": 1519420514505}, {"current_trial": 42, "trialdata": {"rt": 4206, "trial_type": "text", "internal_node_id": "0.0-33.0", "time_elapsed": 254294, "key_press": 32, "type": "INSTRUCTIONS", "trial_index": 42}, "uniqueid": "MTK2872:3E1QT0TDFQGX5O7V8S1PVEQJEK48IA", "dateTime": 1519420520715}, {"current_trial": 43, "trialdata": {"rt": [4869, 8681, 11956, 15759], "trial_type": "math-distractor", "key_times": [4257, 4605, 4869, 8298, 8681, 11522, 11596, 11956, 15200, 15320, 15759], "responses": ["14", "9", "20", "20"], "num2": [8, 5, 6, 6, 2], "num3": [2, 3, 9, 8, 8], "conditions": [18, 1200, "v", 18000], "internal_node_id": "0.0-34.0", "key_presses": [49, 52, 13, 57, 13, 50, 48, 13, 50, 48, 13], "trial": 1, "time_elapsed": 274303, "type": "DISTRACTOR", "trial_index": 43, "num1": [4, 1, 5, 6, 8]}, "uniqueid": "MTK2872:3E1QT0TDFQGX5O7V8S1PVEQJEK48IA", "dateTime": 1519420540724}, {"current_trial": 44, "trialdata": {"rt": -1, "trial_type": "single-stim", "stimulus": "<p id=\"stim\">10</p>", "internal_node_id": "0.0-35.0-0.0", "time_elapsed": 277310, "key_press": -1, "trial_index": 44}, "uniqueid": "MTK2872:3E1QT0TDFQGX5O7V8S1PVEQJEK48IA", "dateTime": 1519420543731}, {"current_trial": 45, "trialdata": {"rt": -1, "trial_type": "single-stim", "stimulus": "<p id=\"stim\">9</p>", "internal_node_id": "0.0-35.0-1.0", "time_elapsed": 278314, "key_press": -1, "trial_index": 45}, "uniqueid": "MTK2872:3E1QT0TDFQGX5O7V8S1PVEQJEK48IA", "dateTime": 1519420544735}, {"current_trial": 46, "trialdata": {"rt": -1, "trial_type": "single-stim", "stimulus": "<p id=\"stim\">8</p>", "internal_node_id": "0.0-35.0-2.0", "time_elapsed": 279318, "key_press": -1, "trial_index": 46}, "uniqueid": "MTK2872:3E1QT0TDFQGX5O7V8S1PVEQJEK48IA", "dateTime": 1519420545739}, {"current_trial": 47, "trialdata": {"rt": -1, "trial_type": "single-stim", "stimulus": "<p id=\"stim\">7</p>", "internal_node_id": "0.0-35.0-3.0", "time_elapsed": 280321, "key_press": -1, "trial_index": 47}, "uniqueid": "MTK2872:3E1QT0TDFQGX5O7V8S1PVEQJEK48IA", "dateTime": 1519420546742}, {"current_trial": 48, "trialdata": {"rt": -1, "trial_type": "single-stim", "stimulus": "<p id=\"stim\">6</p>", "internal_node_id": "0.0-35.0-4.0", "time_elapsed": 281325, "key_press": -1, "trial_index": 48}, "uniqueid": "MTK2872:3E1QT0TDFQGX5O7V8S1PVEQJEK48IA", "dateTime": 1519420547746}, {"current_trial": 49, "trialdata": {"rt": -1, "trial_type": "single-stim", "stimulus": "<p id=\"stim\">5</p>", "internal_node_id": "0.0-35.0-5.0", "time_elapsed": 282329, "key_press": -1, "trial_index": 49}, "uniqueid": "MTK2872:3E1QT0TDFQGX5O7V8S1PVEQJEK48IA", "dateTime": 1519420548750}, {"current_trial": 50, "trialdata": {"rt": -1, "trial_type": "single-stim", "stimulus": "<p id=\"stim\">4</p>", "internal_node_id": "0.0-35.0-6.0", "time_elapsed": 283334, "key_press": -1, "trial_index": 50}, "uniqueid": "MTK2872:3E1QT0TDFQGX5O7V8S1PVEQJEK48IA", "dateTime": 1519420549755}, {"current_trial": 51, "trialdata": {"rt": -1, "trial_type": "single-stim", "stimulus": "<p id=\"stim\">3</p>", "internal_node_id": "0.0-35.0-7.0", "time_elapsed": 284338, "key_press": -1, "trial_index": 51}, "uniqueid": "MTK2872:3E1QT0TDFQGX5O7V8S1PVEQJEK48IA", "dateTime": 1519420550759}, {"current_trial": 52, "trialdata": {"rt": -1, "trial_type": "single-stim", "stimulus": "<p id=\"stim\">2</p>", "internal_node_id": "0.0-35.0-8.0", "time_elapsed": 285342, "key_press": -1, "trial_index": 52}, "uniqueid": "MTK2872:3E1QT0TDFQGX5O7V8S1PVEQJEK48IA", "dateTime": 1519420551763}, {"current_trial": 53, "trialdata": {"rt": -1, "trial_type": "single-stim", "stimulus": "<p id=\"stim\">1</p>", "internal_node_id": "0.0-35.0-9.0", "time_elapsed": 286346, "key_press": -1, "trial_index": 53}, "uniqueid": "MTK2872:3E1QT0TDFQGX5O7V8S1PVEQJEK48IA", "dateTime": 1519420552767}, {"current_trial": 54, "trialdata": {"rt": -1, "trial_type": "single-stim", "stimulus": "<p id=\"stim\">+</p>", "internal_node_id": "0.0-36.0-0.0", "time_elapsed": 287847, "key_press": -1, "type": "FIXATION", "trial_index": 54}, "uniqueid": "MTK2872:3E1QT0TDFQGX5O7V8S1PVEQJEK48IA", "dateTime": 1519420554268}, {"current_trial": 55, "trialdata": {"rt": -1, "trial_type": "single-stim", "word": "finger", "stimulus": "<p id=\"stim\">FINGER</p>", "conditions": [18, 1200, "v", 18000], "internal_node_id": "0.0-37.0", "trial": 1, "time_elapsed": 289050, "serialpos": 0, "key_press": -1, "wordID": 566, "type": "PRES_VIS", "trial_index": 55}, "uniqueid": "MTK2872:3E1QT0TDFQGX5O7V8S1PVEQJEK48IA", "dateTime": 1519420555471}, {"current_trial": 56, "trialdata": {"rt": -1, "trial_type": "single-stim", "word": "notebook", "stimulus": "<p id=\"stim\">NOTEBOOK</p>", "conditions": [18, 1200, "v", 18000], "internal_node_id": "0.0-38.0", "trial": 1, "time_elapsed": 291123, "serialpos": 1, "key_press": -1, "wordID": 958, "type": "PRES_VIS", "trial_index": 56}, "uniqueid": "MTK2872:3E1QT0TDFQGX5O7V8S1PVEQJEK48IA", "dateTime": 1519420557544}, {"current_trial": 57, "trialdata": {"rt": -1, "trial_type": "single-stim", "word": "suitcase", "stimulus": "<p id=\"stim\">SUITCASE</p>", "conditions": [18, 1200, "v", 18000], "internal_node_id": "0.0-39.0", "trial": 1, "time_elapsed": 293375, "serialpos": 2, "key_press": -1, "wordID": 1402, "type": "PRES_VIS", "trial_index": 57}, "uniqueid": "MTK2872:3E1QT0TDFQGX5O7V8S1PVEQJEK48IA", "dateTime": 1519420559796}, {"current_trial": 58, "trialdata": {"rt": -1, "trial_type": "single-stim", "word": "rooster", "stimulus": "<p id=\"stim\">ROOSTER</p>", "conditions": [18, 1200, "v", 18000], "internal_node_id": "0.0-40.0", "trial": 1, "time_elapsed": 295482, "serialpos": 3, "key_press": -1, "wordID": 1208, "type": "PRES_VIS", "trial_index": 58}, "uniqueid": "MTK2872:3E1QT0TDFQGX5O7V8S1PVEQJEK48IA", "dateTime": 1519420561903}, {"current_trial": 59, "trialdata": {"rt": -1, "trial_type": "single-stim", "word": "judge", "stimulus": "<p id=\"stim\">JUDGE</p>", "conditions": [18, 1200, "v", 18000], "internal_node_id": "0.0-41.0", "trial": 1, "time_elapsed": 297873, "serialpos": 4, "key_press": -1, "wordID": 760, "type": "PRES_VIS", "trial_index": 59}, "uniqueid": "MTK2872:3E1QT0TDFQGX5O7V8S1PVEQJEK48IA", "dateTime": 1519420564295}, {"current_trial": 60, "trialdata": {"rt": -1, "trial_type": "single-stim", "word": "balloon", "stimulus": "<p id=\"stim\">BALLOON</p>", "conditions": [18, 1200, "v", 18000], "internal_node_id": "0.0-42.0", "trial": 1, "time_elapsed": 300006, "serialpos": 5, "key_press": -1, "wordID": 74, "type": "PRES_VIS", "trial_index": 60}, "uniqueid": "MTK2872:3E1QT0TDFQGX5O7V8S1PVEQJEK48IA", "dateTime": 1519420566427}, {"current_trial": 61, "trialdata": {"rt": -1, "trial_type": "single-stim", "word": "concert", "stimulus": "<p id=\"stim\">CONCERT</p>", "conditions": [18, 1200, "v", 18000], "internal_node_id": "0.0-43.0", "trial": 1, "time_elapsed": 302236, "serialpos": 6, "key_press": -1, "wordID": 359, "type": "PRES_VIS", "trial_index": 61}, "uniqueid": "MTK2872:3E1QT0TDFQGX5O7V8S1PVEQJEK48IA", "dateTime": 1519420568657}, {"current_trial": 62, "trialdata": {"rt": -1, "trial_type": "single-stim", "word": "luggage", "stimulus": "<p id=\"stim\">LUGGAGE</p>", "conditions": [18, 1200, "v", 18000], "internal_node_id": "0.0-44.0", "trial": 1, "time_elapsed": 304563, "serialpos": 7, "key_press": -1, "wordID": 846, "type": "PRES_VIS", "trial_index": 62}, "uniqueid": "MTK2872:3E1QT0TDFQGX5O7V8S1PVEQJEK48IA", "dateTime": 1519420570984}, {"current_trial": 63, "trialdata": {"rt": -1, "trial_type": "single-stim", "word": "dancer", "stimulus": "<p id=\"stim\">DANCER</p>", "conditions": [18, 1200, "v", 18000], "internal_node_id": "0.0-45.0", "trial": 1, "time_elapsed": 306632, "serialpos": 8, "key_press": -1, "wordID": 436, "type": "PRES_VIS", "trial_index": 63}, "uniqueid": "MTK2872:3E1QT0TDFQGX5O7V8S1PVEQJEK48IA", "dateTime": 1519420573053}, {"current_trial": 64, "trialdata": {"rt": -1, "trial_type": "single-stim", "word": "pasta", "stimulus": "<p id=\"stim\">PASTA</p>", "conditions": [18, 1200, "v", 18000], "internal_node_id": "0.0-46.0", "trial": 1, "time_elapsed": 308675, "serialpos": 9, "key_press": -1, "wordID": 1020, "type": "PRES_VIS", "trial_index": 64}, "uniqueid": "MTK2872:3E1QT0TDFQGX5O7V8S1PVEQJEK48IA", "dateTime": 1519420575096}, {"current_trial": 65, "trialdata": {"rt": -1, "trial_type": "single-stim", "word": "mammal", "stimulus": "<p id=\"stim\">MAMMAL</p>", "conditions": [18, 1200, "v", 18000], "internal_node_id": "0.0-47.0", "trial": 1, "time_elapsed": 310713, "serialpos": 10, "key_press": -1, "wordID": 860, "type": "PRES_VIS", "trial_index": 65}, "uniqueid": "MTK2872:3E1QT0TDFQGX5O7V8S1PVEQJEK48IA", "dateTime": 1519420577134}, {"current_trial": 66, "trialdata": {"rt": -1, "trial_type": "single-stim", "word": "mister", "stimulus": "<p id=\"stim\">MISTER</p>", "conditions": [18, 1200, "v", 18000], "internal_node_id": "0.0-48.0", "trial": 1, "time_elapsed": 313034, "serialpos": 11, "key_press": -1, "wordID": 900, "type": "PRES_VIS", "trial_index": 66}, "uniqueid": "MTK2872:3E1QT0TDFQGX5O7V8S1PVEQJEK48IA", "dateTime": 1519420579455}, {"current_trial": 67, "trialdata": {"rt": -1, "trial_type": "single-stim", "word": "cross", "stimulus": "<p id=\"stim\">CROSS</p>", "conditions": [18, 1200, "v", 18000], "internal_node_id": "0.0-49.0", "trial": 1, "time_elapsed": 315341, "serialpos": 12, "key_press": -1, "wordID": 412, "type": "PRES_VIS", "trial_index": 67}, "uniqueid": "MTK2872:3E1QT0TDFQGX5O7V8S1PVEQJEK48IA", "dateTime": 1519420581762}, {"current_trial": 68, "trialdata": {"rt": -1, "trial_type": "single-stim", "word": "lodge", "stimulus": "<p id=\"stim\">LODGE</p>", "conditions": [18, 1200, "v", 18000], "internal_node_id": "0.0-50.0", "trial": 1, "time_elapsed": 317529, "serialpos": 13, "key_press": -1, "wordID": 838, "type": "PRES_VIS", "trial_index": 68}, "uniqueid": "MTK2872:3E1QT0TDFQGX5O7V8S1PVEQJEK48IA", "dateTime": 1519420583952}, {"current_trial": 69, "trialdata": {"rt": -1, "trial_type": "single-stim", "word": "clamp", "stimulus": "<p id=\"stim\">CLAMP</p>", "conditions": [18, 1200, "v", 18000], "internal_node_id": "0.0-51.0", "trial": 1, "time_elapsed": 319915, "serialpos": 14, "key_press": -1, "wordID": 315, "type": "PRES_VIS", "trial_index": 69}, "uniqueid": "MTK2872:3E1QT0TDFQGX5O7V8S1PVEQJEK48IA", "dateTime": 1519420586336}, {"current_trial": 70, "trialdata": {"rt": -1, "trial_type": "single-stim", "word": "robber", "stimulus": "<p id=\"stim\">ROBBER</p>", "conditions": [18, 1200, "v", 18000], "internal_node_id": "0.0-52.0", "trial": 1, "time_elapsed": 322100, "serialpos": 15, "key_press": -1, "wordID": 1196, "type": "PRES_VIS", "trial_index": 70}, "uniqueid": "MTK2872:3E1QT0TDFQGX5O7V8S1PVEQJEK48IA", "dateTime": 1519420588521}, {"current_trial": 71, "trialdata": {"rt": -1, "trial_type": "single-stim", "word": "motel", "stimulus": "<p id=\"stim\">MOTEL</p>", "conditions": [18, 1200, "v", 18000], "internal_node_id": "0.0-53.0", "trial": 1, "time_elapsed": 324457, "serialpos": 16, "key_press": -1, "wordID": 918, "type": "PRES_VIS", "trial_index": 71}, "uniqueid": "MTK2872:3E1QT0TDFQGX5O7V8S1PVEQJEK48IA", "dateTime": 1519420590878}, {"current_trial": 72, "trialdata": {"rt": -1, "trial_type": "single-stim", "word": "bucket", "stimulus": "<p id=\"stim\">BUCKET</p>", "conditions": [18, 1200, "v", 18000], "internal_node_id": "0.0-54.0", "trial": 1, "time_elapsed": 326638, "serialpos": 17, "key_press": -1, "wordID": 183, "type": "PRES_VIS", "trial_index": 72}, "uniqueid": "MTK2872:3E1QT0TDFQGX5O7V8S1PVEQJEK48IA", "dateTime": 1519420593060}, {"current_trial": 73, "trialdata": {"rt": -1, "trial_type": "single-stim", "stimulus": "", "internal_node_id": "0.0-55.0-0.0", "time_elapsed": 328938, "key_press": -1, "type": "PRE_RECALL_DELAY", "trial_index": 73}, "uniqueid": "MTK2872:3E1QT0TDFQGX5O7V8S1PVEQJEK48IA", "dateTime": 1519420595359}, {"current_trial": 74, "trialdata": {"rt": -1000, "trial_type": "single-audio", "stimulus": "/static/audio/400Hz.wav", "internal_node_id": "0.0-56.0", "time_elapsed": 329438, "key_press": -1, "type": "PRE_RECALL_ALERT", "trial_index": 74}, "uniqueid": "MTK2872:3E1QT0TDFQGX5O7V8S1PVEQJEK48IA", "dateTime": 1519420595859}, {"current_trial": 75, "trialdata": {"rt": [1849, 3816, 8558, 9929, 15950], "recwords": ["finger", "notebook", "suitcase", "clamp", "rooster"], "key_times": [982, 1082, 1257, 1329, 1545, 1624, 1849, 2426, 2614, 2689, 2896, 3048, 3254, 3407, 3558, 3816, 4401, 4541, 4700, 4770, 5271, 5851, 6016, 6185, 6689, 7224, 7469, 7751, 7819, 8068, 8558, 8951, 9082, 9197, 9290, 9459, 9929, 10773, 11219, 14343, 14446, 14614, 14727, 14901, 15149, 15223, 15950], "trial_type": "free-recall", "conditions": [18, 1200, "v", 18000], "internal_node_id": "0.0-57.0-0.0", "key_presses": [70, 73, 78, 71, 69, 82, 13, 78, 79, 84, 69, 66, 79, 79, 75, 13, 83, 85, 84, 73, 67, 8, 8, 8, 73, 84, 67, 65, 83, 69, 13, 67, 76, 65, 77, 80, 13, 79, 8, 82, 79, 79, 83, 84, 69, 82, 13], "trial": 1, "time_elapsed": 389446, "type": "FREE_RECALL", "trial_index": 75}, "uniqueid": "MTK2872:3E1QT0TDFQGX5O7V8S1PVEQJEK48IA", "dateTime": 1519420655868}, {"current_trial": 76, "trialdata": {"rt": 2798, "trial_type": "text", "internal_node_id": "0.0-58.0", "time_elapsed": 394250, "key_press": 32, "type": "INSTRUCTIONS", "trial_index": 76}, "uniqueid": "MTK2872:3E1QT0TDFQGX5O7V8S1PVEQJEK48IA", "dateTime": 1519420660671}, {"current_trial": 77, "trialdata": {"rt": [2935, 6539, 8897, 11828], "trial_type": "math-distractor", "key_times": [2706, 2935, 5882, 5974, 6539, 8219, 8701, 8897, 11541, 11674, 11828], "responses": ["7", "19", "15", "11"], "num2": [3, 5, 7, 6, 8], "num3": [2, 6, 3, 3, 8], "conditions": [24, 800, "v", 12000], "internal_node_id": "0.0-59.0", "key_presses": [55, 13, 49, 57, 13, 49, 53, 13, 49, 49, 13], "trial": 2, "time_elapsed": 407257, "type": "DISTRACTOR", "trial_index": 77, "num1": [2, 8, 5, 2, 2]}, "uniqueid": "MTK2872:3E1QT0TDFQGX5O7V8S1PVEQJEK48IA", "dateTime": 1519420673678}, {"current_trial": 78, "trialdata": {"rt": -1, "trial_type": "single-stim", "stimulus": "<p id=\"stim\">10</p>", "internal_node_id": "0.0-60.0-0.0", "time_elapsed": 410267, "key_press": -1, "trial_index": 78}, "uniqueid": "MTK2872:3E1QT0TDFQGX5O7V8S1PVEQJEK48IA", "dateTime": 1519420676688}, {"current_trial": 79, "trialdata": {"rt": -1, "trial_type": "single-stim", "stimulus": "<p id=\"stim\">9</p>", "internal_node_id": "0.0-60.0-1.0", "time_elapsed": 411271, "key_press": -1, "trial_index": 79}, "uniqueid": "MTK2872:3E1QT0TDFQGX5O7V8S1PVEQJEK48IA", "dateTime": 1519420677692}, {"current_trial": 80, "trialdata": {"rt": -1, "trial_type": "single-stim", "stimulus": "<p id=\"stim\">8</p>", "internal_node_id": "0.0-60.0-2.0", "time_elapsed": 412277, "key_press": -1, "trial_index": 80}, "uniqueid": "MTK2872:3E1QT0TDFQGX5O7V8S1PVEQJEK48IA", "dateTime": 1519420678698}, {"current_trial": 81, "trialdata": {"rt": -1, "trial_type": "single-stim", "stimulus": "<p id=\"stim\">7</p>", "internal_node_id": "0.0-60.0-3.0", "time_elapsed": 413281, "key_press": -1, "trial_index": 81}, "uniqueid": "MTK2872:3E1QT0TDFQGX5O7V8S1PVEQJEK48IA", "dateTime": 1519420679702}, {"current_trial": 82, "trialdata": {"rt": -1, "trial_type": "single-stim", "stimulus": "<p id=\"stim\">6</p>", "internal_node_id": "0.0-60.0-4.0", "time_elapsed": 414285, "key_press": -1, "trial_index": 82}, "uniqueid": "MTK2872:3E1QT0TDFQGX5O7V8S1PVEQJEK48IA", "dateTime": 1519420680707}, {"current_trial": 83, "trialdata": {"rt": -1, "trial_type": "single-stim", "stimulus": "<p id=\"stim\">5</p>", "internal_node_id": "0.0-60.0-5.0", "time_elapsed": 415290, "key_press": -1, "trial_index": 83}, "uniqueid": "MTK2872:3E1QT0TDFQGX5O7V8S1PVEQJEK48IA", "dateTime": 1519420681711}, {"current_trial": 84, "trialdata": {"rt": -1, "trial_type": "single-stim", "stimulus": "<p id=\"stim\">4</p>", "internal_node_id": "0.0-60.0-6.0", "time_elapsed": 416294, "key_press": -1, "trial_index": 84}, "uniqueid": "MTK2872:3E1QT0TDFQGX5O7V8S1PVEQJEK48IA", "dateTime": 1519420682715}, {"current_trial": 85, "trialdata": {"rt": -1, "trial_type": "single-stim", "stimulus": "<p id=\"stim\">3</p>", "internal_node_id": "0.0-60.0-7.0", "time_elapsed": 417298, "key_press": -1, "trial_index": 85}, "uniqueid": "MTK2872:3E1QT0TDFQGX5O7V8S1PVEQJEK48IA", "dateTime": 1519420683719}, {"current_trial": 86, "trialdata": {"rt": -1, "trial_type": "single-stim", "stimulus": "<p id=\"stim\">2</p>", "internal_node_id": "0.0-60.0-8.0", "time_elapsed": 418302, "key_press": -1, "trial_index": 86}, "uniqueid": "MTK2872:3E1QT0TDFQGX5O7V8S1PVEQJEK48IA", "dateTime": 1519420684723}, {"current_trial": 87, "trialdata": {"rt": -1, "trial_type": "single-stim", "stimulus": "<p id=\"stim\">1</p>", "internal_node_id": "0.0-60.0-9.0", "time_elapsed": 419306, "key_press": -1, "trial_index": 87}, "uniqueid": "MTK2872:3E1QT0TDFQGX5O7V8S1PVEQJEK48IA", "dateTime": 1519420685727}, {"current_trial": 88, "trialdata": {"rt": -1, "trial_type": "single-stim", "stimulus": "<p id=\"stim\">+</p>", "internal_node_id": "0.0-61.0-0.0", "time_elapsed": 420811, "key_press": -1, "type": "FIXATION", "trial_index": 88}, "uniqueid": "MTK2872:3E1QT0TDFQGX5O7V8S1PVEQJEK48IA", "dateTime": 1519420687232}, {"current_trial": 89, "trialdata": {"rt": -1, "trial_type": "single-stim", "word": "banquet", "stimulus": "<p id=\"stim\">BANQUET</p>", "conditions": [24, 800, "v", 12000], "internal_node_id": "0.0-62.0", "trial": 2, "time_elapsed": 421615, "serialpos": 0, "key_press": -1, "wordID": 85, "type": "PRES_VIS", "trial_index": 89}, "uniqueid": "MTK2872:3E1QT0TDFQGX5O7V8S1PVEQJEK48IA", "dateTime": 1519420688036}, {"current_trial": 90, "trialdata": {"rt": -1, "trial_type": "single-stim", "word": "plaza", "stimulus": "<p id=\"stim\">PLAZA</p>", "conditions": [24, 800, "v", 12000], "internal_node_id": "0.0-63.0", "trial": 2, "time_elapsed": 423398, "serialpos": 1, "key_press": -1, "wordID": 1087, "type": "PRES_VIS", "trial_index": 90}, "uniqueid": "MTK2872:3E1QT0TDFQGX5O7V8S1PVEQJEK48IA", "dateTime": 1519420689819}, {"current_trial": 91, "trialdata": {"rt": -1, "trial_type": "single-stim", "word": "pudding", "stimulus": "<p id=\"stim\">PUDDING</p>", "conditions": [24, 800, "v", 12000], "internal_node_id": "0.0-64.0", "trial": 2, "time_elapsed": 425337, "serialpos": 2, "key_press": -1, "wordID": 1138, "type": "PRES_VIS", "trial_index": 91}, "uniqueid": "MTK2872:3E1QT0TDFQGX5O7V8S1PVEQJEK48IA", "dateTime": 1519420691758}, {"current_trial": 92, "trialdata": {"rt": -1, "trial_type": "single-stim", "word": "garbage", "stimulus": "<p id=\"stim\">GARBAGE</p>", "conditions": [24, 800, "v", 12000], "internal_node_id": "0.0-65.0", "trial": 2, "time_elapsed": 427081, "serialpos": 3, "key_press": -1, "wordID": 621, "type": "PRES_VIS", "trial_index": 92}, "uniqueid": "MTK2872:3E1QT0TDFQGX5O7V8S1PVEQJEK48IA", "dateTime": 1519420693502}, {"current_trial": 93, "trialdata": {"rt": -1, "trial_type": "single-stim", "word": "penguin", "stimulus": "<p id=\"stim\">PENGUIN</p>", "conditions": [24, 800, "v", 12000], "internal_node_id": "0.0-66.0", "trial": 2, "time_elapsed": 428817, "serialpos": 4, "key_press": -1, "wordID": 1043, "type": "PRES_VIS", "trial_index": 93}, "uniqueid": "MTK2872:3E1QT0TDFQGX5O7V8S1PVEQJEK48IA", "dateTime": 1519420695238}, {"current_trial": 94, "trialdata": {"rt": -1, "trial_type": "single-stim", "word": "cellar", "stimulus": "<p id=\"stim\">CELLAR</p>", "conditions": [24, 800, "v", 12000], "internal_node_id": "0.0-67.0", "trial": 2, "time_elapsed": 430606, "serialpos": 5, "key_press": -1, "wordID": 266, "type": "PRES_VIS", "trial_index": 94}, "uniqueid": "MTK2872:3E1QT0TDFQGX5O7V8S1PVEQJEK48IA", "dateTime": 1519420697027}, {"current_trial": 95, "trialdata": {"rt": -1, "trial_type": "single-stim", "word": "princess", "stimulus": "<p id=\"stim\">PRINCESS</p>", "conditions": [24, 800, "v", 12000], "internal_node_id": "0.0-68.0", "trial": 2, "time_elapsed": 432528, "serialpos": 6, "key_press": -1, "wordID": 1124, "type": "PRES_VIS", "trial_index": 95}, "uniqueid": "MTK2872:3E1QT0TDFQGX5O7V8S1PVEQJEK48IA", "dateTime": 1519420698949}, {"current_trial": 96, "trialdata": {"rt": -1, "trial_type": "single-stim", "word": "staple", "stimulus": "<p id=\"stim\">STAPLE</p>", "conditions": [24, 800, "v", 12000], "internal_node_id": "0.0-69.0", "trial": 2, "time_elapsed": 434414, "serialpos": 7, "key_press": -1, "wordID": 1370, "type": "PRES_VIS", "trial_index": 96}, "uniqueid": "MTK2872:3E1QT0TDFQGX5O7V8S1PVEQJEK48IA", "dateTime": 1519420700835}, {"current_trial": 97, "trialdata": {"rt": -1, "trial_type": "single-stim", "word": "yarn", "stimulus": "<p id=\"stim\">YARN</p>", "conditions": [24, 800, "v", 12000], "internal_node_id": "0.0-70.0", "trial": 2, "time_elapsed": 436391, "serialpos": 8, "key_press": -1, "wordID": 1630, "type": "PRES_VIS", "trial_index": 97}, "uniqueid": "MTK2872:3E1QT0TDFQGX5O7V8S1PVEQJEK48IA", "dateTime": 1519420702812}, {"current_trial": 98, "trialdata": {"rt": -1, "trial_type": "single-stim", "word": "queen", "stimulus": "<p id=\"stim\">QUEEN</p>", "conditions": [24, 800, "v", 12000], "internal_node_id": "0.0-71.0", "trial": 2, "time_elapsed": 438300, "serialpos": 9, "key_press": -1, "wordID": 1148, "type": "PRES_VIS", "trial_index": 98}, "uniqueid": "MTK2872:3E1QT0TDFQGX5O7V8S1PVEQJEK48IA", "dateTime": 1519420704721}, {"current_trial": 99, "trialdata": {"rt": -1, "trial_type": "single-stim", "word": "county", "stimulus": "<p id=\"stim\">COUNTY</p>", "conditions": [24, 800, "v", 12000], "internal_node_id": "0.0-72.0", "trial": 2, "time_elapsed": 440239, "serialpos": 10, "key_press": -1, "wordID": 388, "type": "PRES_VIS", "trial_index": 99}, "uniqueid": "MTK2872:3E1QT0TDFQGX5O7V8S1PVEQJEK48IA", "dateTime": 1519420706660}, {"current_trial": 100, "trialdata": {"rt": -1, "trial_type": "single-stim", "word": "sheriff", "stimulus": "<p id=\"stim\">SHERIFF</p>", "conditions": [24, 800, "v", 12000], "internal_node_id": "0.0-73.0", "trial": 2, "time_elapsed": 442191, "serialpos": 11, "key_press": -1, "wordID": 1283, "type": "PRES_VIS", "trial_index": 100}, "uniqueid": "MTK2872:3E1QT0TDFQGX5O7V8S1PVEQJEK48IA", "dateTime": 1519420708613}, {"current_trial": 101, "trialdata": {"rt": -1, "trial_type": "single-stim", "word": "lightning", "stimulus": "<p id=\"stim\">LIGHTNING</p>", "conditions": [24, 800, "v", 12000], "internal_node_id": "0.0-74.0", "trial": 2, "time_elapsed": 444088, "serialpos": 12, "key_press": -1, "wordID": 819, "type": "PRES_VIS", "trial_index": 101}, "uniqueid": "MTK2872:3E1QT0TDFQGX5O7V8S1PVEQJEK48IA", "dateTime": 1519420710509}, {"current_trial": 102, "trialdata": {"rt": -1, "trial_type": "single-stim", "word": "marsh", "stimulus": "<p id=\"stim\">MARSH</p>", "conditions": [24, 800, "v", 12000], "internal_node_id": "0.0-75.0", "trial": 2, "time_elapsed": 446022, "serialpos": 13, "key_press": -1, "wordID": 873, "type": "PRES_VIS", "trial_index": 102}, "uniqueid": "MTK2872:3E1QT0TDFQGX5O7V8S1PVEQJEK48IA", "dateTime": 1519420712443}, {"current_trial": 103, "trialdata": {"rt": -1, "trial_type": "single-stim", "word": "camel", "stimulus": "<p id=\"stim\">CAMEL</p>", "conditions": [24, 800, "v", 12000], "internal_node_id": "0.0-76.0", "trial": 2, "time_elapsed": 448013, "serialpos": 14, "key_press": -1, "wordID": 222, "type": "PRES_VIS", "trial_index": 103}, "uniqueid": "MTK2872:3E1QT0TDFQGX5O7V8S1PVEQJEK48IA", "dateTime": 1519420714434}, {"current_trial": 104, "trialdata": {"rt": -1, "trial_type": "single-stim", "word": "dashboard", "stimulus": "<p id=\"stim\">DASHBOARD</p>", "conditions": [24, 800, "v", 12000], "internal_node_id": "0.0-77.0", "trial": 2, "time_elapsed": 449917, "serialpos": 15, "key_press": -1, "wordID": 440, "type": "PRES_VIS", "trial_index": 104}, "uniqueid": "MTK2872:3E1QT0TDFQGX5O7V8S1PVEQJEK48IA", "dateTime": 1519420716338}, {"current_trial": 105, "trialdata": {"rt": -1, "trial_type": "single-stim", "word": "window", "stimulus": "<p id=\"stim\">WINDOW</p>", "conditions": [24, 800, "v", 12000], "internal_node_id": "0.0-78.0", "trial": 2, "time_elapsed": 451845, "serialpos": 16, "key_press": -1, "wordID": 1610, "type": "PRES_VIS", "trial_index": 105}, "uniqueid": "MTK2872:3E1QT0TDFQGX5O7V8S1PVEQJEK48IA", "dateTime": 1519420718266}, {"current_trial": 106, "trialdata": {"rt": -1, "trial_type": "single-stim", "word": "river", "stimulus": "<p id=\"stim\">RIVER</p>", "conditions": [24, 800, "v", 12000], "internal_node_id": "0.0-79.0", "trial": 2, "time_elapsed": 453770, "serialpos": 17, "key_press": -1, "wordID": 1193, "type": "PRES_VIS", "trial_index": 106}, "uniqueid": "MTK2872:3E1QT0TDFQGX5O7V8S1PVEQJEK48IA", "dateTime": 1519420720191}, {"current_trial": 107, "trialdata": {"rt": -1, "trial_type": "single-stim", "word": "knapsack", "stimulus": "<p id=\"stim\">KNAPSACK</p>", "conditions": [24, 800, "v", 12000], "internal_node_id": "0.0-80.0", "trial": 2, "time_elapsed": 455393, "serialpos": 18, "key_press": -1, "wordID": 782, "type": "PRES_VIS", "trial_index": 107}, "uniqueid": "MTK2872:3E1QT0TDFQGX5O7V8S1PVEQJEK48IA", "dateTime": 1519420721814}, {"current_trial": 108, "trialdata": {"rt": -1, "trial_type": "single-stim", "word": "briefcase", "stimulus": "<p id=\"stim\">BRIEFCASE</p>", "conditions": [24, 800, "v", 12000], "internal_node_id": "0.0-81.0", "trial": 2, "time_elapsed": 457046, "serialpos": 19, "key_press": -1, "wordID": 174, "type": "PRES_VIS", "trial_index": 108}, "uniqueid": "MTK2872:3E1QT0TDFQGX5O7V8S1PVEQJEK48IA", "dateTime": 1519420723467}, {"current_trial": 109, "trialdata": {"rt": -1, "trial_type": "single-stim", "word": "space", "stimulus": "<p id=\"stim\">SPACE</p>", "conditions": [24, 800, "v", 12000], "internal_node_id": "0.0-82.0", "trial": 2, "time_elapsed": 458806, "serialpos": 20, "key_press": -1, "wordID": 1344, "type": "PRES_VIS", "trial_index": 109}, "uniqueid": "MTK2872:3E1QT0TDFQGX5O7V8S1PVEQJEK48IA", "dateTime": 1519420725227}, {"current_trial": 110, "trialdata": {"rt": -1, "trial_type": "single-stim", "word": "garden", "stimulus": "<p id=\"stim\">GARDEN</p>", "conditions": [24, 800, "v", 12000], "internal_node_id": "0.0-83.0", "trial": 2, "time_elapsed": 460672, "serialpos": 21, "key_press": -1, "wordID": 622, "type": "PRES_VIS", "trial_index": 110}, "uniqueid": "MTK2872:3E1QT0TDFQGX5O7V8S1PVEQJEK48IA", "dateTime": 1519420727093}, {"current_trial": 111, "trialdata": {"rt": -1, "trial_type": "single-stim", "word": "popcorn", "stimulus": "<p id=\"stim\">POPCORN</p>", "conditions": [24, 800, "v", 12000], "internal_node_id": "0.0-84.0", "trial": 2, "time_elapsed": 462563, "serialpos": 22, "key_press": -1, "wordID": 1103, "type": "PRES_VIS", "trial_index": 111}, "uniqueid": "MTK2872:3E1QT0TDFQGX5O7V8S1PVEQJEK48IA", "dateTime": 1519420728984}, {"current_trial": 112, "trialdata": {"rt": -1, "trial_type": "single-stim", "word": "proton", "stimulus": "<p id=\"stim\">PROTON</p>", "conditions": [24, 800, "v", 12000], "internal_node_id": "0.0-85.0", "trial": 2, "time_elapsed": 464529, "serialpos": 23, "key_press": -1, "wordID": 1131, "type": "PRES_VIS", "trial_index": 112}, "uniqueid": "MTK2872:3E1QT0TDFQGX5O7V8S1PVEQJEK48IA", "dateTime": 1519420730950}, {"current_trial": 113, "trialdata": {"rt": -1, "trial_type": "single-stim", "stimulus": "", "internal_node_id": "0.0-86.0-0.0", "time_elapsed": 466610, "key_press": -1, "type": "PRE_RECALL_DELAY", "trial_index": 113}, "uniqueid": "MTK2872:3E1QT0TDFQGX5O7V8S1PVEQJEK48IA", "dateTime": 1519420733032}, {"current_trial": 114, "trialdata": {"rt": -1000, "trial_type": "single-audio", "stimulus": "/static/audio/400Hz.wav", "internal_node_id": "0.0-87.0", "time_elapsed": 467113, "key_press": -1, "type": "PRE_RECALL_ALERT", "trial_index": 114}, "uniqueid": "MTK2872:3E1QT0TDFQGX5O7V8S1PVEQJEK48IA", "dateTime": 1519420733534}, {"current_trial": 115, "trialdata": {"rt": [3169, 5378, 9332, 10955], "recwords": ["banquet", "plaza", "pudding", "garbage"], "key_times": [1181, 1284, 1437, 2098, 2259, 2347, 2595, 3169, 3679, 3853, 3925, 4104, 4347, 4940, 5112, 5378, 6519, 7847, 8146, 8548, 8681, 8859, 8971, 9332, 9790, 9842, 10010, 10220, 10347, 10475, 10633, 10955], "trial_type": "free-recall", "conditions": [24, 800, "v", 12000], "internal_node_id": "0.0-88.0-0.0", "key_presses": [66, 65, 78, 81, 85, 69, 84, 13, 80, 76, 65, 90, 69, 8, 65, 13, 80, 85, 68, 68, 73, 78, 71, 13, 71, 65, 82, 66, 65, 71, 69, 13], "trial": 2, "time_elapsed": 527119, "type": "FREE_RECALL", "trial_index": 115}, "uniqueid": "MTK2872:3E1QT0TDFQGX5O7V8S1PVEQJEK48IA", "dateTime": 1519420793541}, {"current_trial": 116, "trialdata": {"rt": 3713, "trial_type": "text", "internal_node_id": "0.0-89.0", "time_elapsed": 532837, "key_press": 32, "type": "INSTRUCTIONS", "trial_index": 116}, "uniqueid": "MTK2872:3E1QT0TDFQGX5O7V8S1PVEQJEK48IA", "dateTime": 1519420799258}, {"current_trial": 117, "trialdata": {"rt": [3231, 7351, 12558, 16981, 19902, 23482], "trial_type": "math-distractor", "key_times": [2341, 2669, 3231, 6192, 6769, 7351, 11259, 11979, 12558, 16381, 16519, 16981, 19464, 19604, 19902, 22606, 22900, 23482], "responses": ["17", "16", "16", "20", "13", "14"], "num2": [1, 5, 4, 7, 5, 9, 3], "num3": [9, 2, 8, 5, 1, 3, 4], "conditions": [24, 800, "v", 24000], "internal_node_id": "0.0-90.0", "key_presses": [49, 55, 13, 49, 54, 13, 49, 54, 13, 50, 48, 13, 49, 51, 13, 49, 52, 13], "trial": 3, "time_elapsed": 558846, "type": "DISTRACTOR", "trial_index": 117, "num1": [7, 9, 4, 8, 7, 2, 6]}, "uniqueid": "MTK2872:3E1QT0TDFQGX5O7V8S1PVEQJEK48IA", "dateTime": 1519420825267}, {"current_trial": 118, "trialdata": {"rt": -1, "trial_type": "single-stim", "stimulus": "<p id=\"stim\">10</p>", "internal_node_id": "0.0-91.0-0.0", "time_elapsed": 561854, "key_press": -1, "trial_index": 118}, "uniqueid": "MTK2872:3E1QT0TDFQGX5O7V8S1PVEQJEK48IA", "dateTime": 1519420828275}, {"current_trial": 119, "trialdata": {"rt": -1, "trial_type": "single-stim", "stimulus": "<p id=\"stim\">9</p>", "internal_node_id": "0.0-91.0-1.0", "time_elapsed": 562858, "key_press": -1, "trial_index": 119}, "uniqueid": "MTK2872:3E1QT0TDFQGX5O7V8S1PVEQJEK48IA", "dateTime": 1519420829279}, {"current_trial": 120, "trialdata": {"rt": -1, "trial_type": "single-stim", "stimulus": "<p id=\"stim\">8</p>", "internal_node_id": "0.0-91.0-2.0", "time_elapsed": 563862, "key_press": -1, "trial_index": 120}, "uniqueid": "MTK2872:3E1QT0TDFQGX5O7V8S1PVEQJEK48IA", "dateTime": 1519420830284}, {"current_trial": 121, "trialdata": {"rt": -1, "trial_type": "single-stim", "stimulus": "<p id=\"stim\">7</p>", "internal_node_id": "0.0-91.0-3.0", "time_elapsed": 564866, "key_press": -1, "trial_index": 121}, "uniqueid": "MTK2872:3E1QT0TDFQGX5O7V8S1PVEQJEK48IA", "dateTime": 1519420831287}, {"current_trial": 122, "trialdata": {"rt": -1, "trial_type": "single-stim", "stimulus": "<p id=\"stim\">6</p>", "internal_node_id": "0.0-91.0-4.0", "time_elapsed": 565870, "key_press": -1, "trial_index": 122}, "uniqueid": "MTK2872:3E1QT0TDFQGX5O7V8S1PVEQJEK48IA", "dateTime": 1519420832291}, {"current_trial": 123, "trialdata": {"rt": -1, "trial_type": "single-stim", "stimulus": "<p id=\"stim\">5</p>", "internal_node_id": "0.0-91.0-5.0", "time_elapsed": 566873, "key_press": -1, "trial_index": 123}, "uniqueid": "MTK2872:3E1QT0TDFQGX5O7V8S1PVEQJEK48IA", "dateTime": 1519420833294}, {"current_trial": 124, "trialdata": {"rt": -1, "trial_type": "single-stim", "stimulus": "<p id=\"stim\">4</p>", "internal_node_id": "0.0-91.0-6.0", "time_elapsed": 567878, "key_press": -1, "trial_index": 124}, "uniqueid": "MTK2872:3E1QT0TDFQGX5O7V8S1PVEQJEK48IA", "dateTime": 1519420834299}, {"current_trial": 125, "trialdata": {"rt": -1, "trial_type": "single-stim", "stimulus": "<p id=\"stim\">3</p>", "internal_node_id": "0.0-91.0-7.0", "time_elapsed": 568882, "key_press": -1, "trial_index": 125}, "uniqueid": "MTK2872:3E1QT0TDFQGX5O7V8S1PVEQJEK48IA", "dateTime": 1519420835303}, {"current_trial": 126, "trialdata": {"rt": -1, "trial_type": "single-stim", "stimulus": "<p id=\"stim\">2</p>", "internal_node_id": "0.0-91.0-8.0", "time_elapsed": 569887, "key_press": -1, "trial_index": 126}, "uniqueid": "MTK2872:3E1QT0TDFQGX5O7V8S1PVEQJEK48IA", "dateTime": 1519420836308}, {"current_trial": 127, "trialdata": {"rt": -1, "trial_type": "single-stim", "stimulus": "<p id=\"stim\">1</p>", "internal_node_id": "0.0-91.0-9.0", "time_elapsed": 570891, "key_press": -1, "trial_index": 127}, "uniqueid": "MTK2872:3E1QT0TDFQGX5O7V8S1PVEQJEK48IA", "dateTime": 1519420837312}, {"current_trial": 128, "trialdata": {"rt": -1, "trial_type": "single-stim", "stimulus": "<p id=\"stim\">+</p>", "internal_node_id": "0.0-92.0-0.0", "time_elapsed": 572395, "key_press": -1, "type": "FIXATION", "trial_index": 128}, "uniqueid": "MTK2872:3E1QT0TDFQGX5O7V8S1PVEQJEK48IA", "dateTime": 1519420838816}, {"current_trial": 129, "trialdata": {"rt": -1, "trial_type": "single-stim", "word": "rabbit", "stimulus": "<p id=\"stim\">RABBIT</p>", "conditions": [24, 800, "v", 24000], "internal_node_id": "0.0-93.0", "trial": 3, "time_elapsed": 573200, "serialpos": 0, "key_press": -1, "wordID": 1151, "type": "PRES_VIS", "trial_index": 129}, "uniqueid": "MTK2872:3E1QT0TDFQGX5O7V8S1PVEQJEK48IA", "dateTime": 1519420839621}, {"current_trial": 130, "trialdata": {"rt": -1, "trial_type": "single-stim", "word": "bubble", "stimulus": "<p id=\"stim\">BUBBLE</p>", "conditions": [24, 800, "v", 24000], "internal_node_id": "0.0-94.0", "trial": 3, "time_elapsed": 574879, "serialpos": 1, "key_press": -1, "wordID": 182, "type": "PRES_VIS", "trial_index": 130}, "uniqueid": "MTK2872:3E1QT0TDFQGX5O7V8S1PVEQJEK48IA", "dateTime": 1519420841300}, {"current_trial": 131, "trialdata": {"rt": -1, "trial_type": "single-stim", "word": "scissors", "stimulus": "<p id=\"stim\">SCISSORS</p>", "conditions": [24, 800, "v", 24000], "internal_node_id": "0.0-95.0", "trial": 3, "time_elapsed": 576863, "serialpos": 2, "key_press": -1, "wordID": 1249, "type": "PRES_VIS", "trial_index": 131}, "uniqueid": "MTK2872:3E1QT0TDFQGX5O7V8S1PVEQJEK48IA", "dateTime": 1519420843284}, {"current_trial": 132, "trialdata": {"rt": -1, "trial_type": "single-stim", "word": "quail", "stimulus": "<p id=\"stim\">QUAIL</p>", "conditions": [24, 800, "v", 24000], "internal_node_id": "0.0-96.0", "trial": 3, "time_elapsed": 578845, "serialpos": 3, "key_press": -1, "wordID": 1146, "type": "PRES_VIS", "trial_index": 132}, "uniqueid": "MTK2872:3E1QT0TDFQGX5O7V8S1PVEQJEK48IA", "dateTime": 1519420845266}, {"current_trial": 133, "trialdata": {"rt": -1, "trial_type": "single-stim", "word": "ketchup", "stimulus": "<p id=\"stim\">KETCHUP</p>", "conditions": [24, 800, "v", 24000], "internal_node_id": "0.0-97.0", "trial": 3, "time_elapsed": 580804, "serialpos": 4, "key_press": -1, "wordID": 770, "type": "PRES_VIS", "trial_index": 133}, "uniqueid": "MTK2872:3E1QT0TDFQGX5O7V8S1PVEQJEK48IA", "dateTime": 1519420847225}, {"current_trial": 134, "trialdata": {"rt": -1, "trial_type": "single-stim", "word": "typist", "stimulus": "<p id=\"stim\">TYPIST</p>", "conditions": [24, 800, "v", 24000], "internal_node_id": "0.0-98.0", "trial": 3, "time_elapsed": 582580, "serialpos": 5, "key_press": -1, "wordID": 1531, "type": "PRES_VIS", "trial_index": 134}, "uniqueid": "MTK2872:3E1QT0TDFQGX5O7V8S1PVEQJEK48IA", "dateTime": 1519420849001}, {"current_trial": 135, "trialdata": {"rt": -1, "trial_type": "single-stim", "word": "crevice", "stimulus": "<p id=\"stim\">CREVICE</p>", "conditions": [24, 800, "v", 24000], "internal_node_id": "0.0-99.0", "trial": 3, "time_elapsed": 584542, "serialpos": 6, "key_press": -1, "wordID": 404, "type": "PRES_VIS", "trial_index": 135}, "uniqueid": "MTK2872:3E1QT0TDFQGX5O7V8S1PVEQJEK48IA", "dateTime": 1519420850963}, {"current_trial": 136, "trialdata": {"rt": -1, "trial_type": "single-stim", "word": "actor", "stimulus": "<p id=\"stim\">ACTOR</p>", "conditions": [24, 800, "v", 24000], "internal_node_id": "0.0-100.0", "trial": 3, "time_elapsed": 586184, "serialpos": 7, "key_press": -1, "wordID": 4, "type": "PRES_VIS", "trial_index": 136}, "uniqueid": "MTK2872:3E1QT0TDFQGX5O7V8S1PVEQJEK48IA", "dateTime": 1519420852605}, {"current_trial": 137, "trialdata": {"rt": -1, "trial_type": "single-stim", "word": "actress", "stimulus": "<p id=\"stim\">ACTRESS</p>", "conditions": [24, 800, "v", 24000], "internal_node_id": "0.0-101.0", "trial": 3, "time_elapsed": 587851, "serialpos": 8, "key_press": -1, "wordID": 5, "type": "PRES_VIS", "trial_index": 137}, "uniqueid": "MTK2872:3E1QT0TDFQGX5O7V8S1PVEQJEK48IA", "dateTime": 1519420854272}, {"current_trial": 138, "trialdata": {"rt": -1, "trial_type": "single-stim", "word": "possum", "stimulus": "<p id=\"stim\">POSSUM</p>", "conditions": [24, 800, "v", 24000], "internal_node_id": "0.0-102.0", "trial": 3, "time_elapsed": 589824, "serialpos": 9, "key_press": -1, "wordID": 1111, "type": "PRES_VIS", "trial_index": 138}, "uniqueid": "MTK2872:3E1QT0TDFQGX5O7V8S1PVEQJEK48IA", "dateTime": 1519420856246}, {"current_trial": 139, "trialdata": {"rt": -1, "trial_type": "single-stim", "word": "cocktail", "stimulus": "<p id=\"stim\">COCKTAIL</p>", "conditions": [24, 800, "v", 24000], "internal_node_id": "0.0-103.0", "trial": 3, "time_elapsed": 591751, "serialpos": 10, "key_press": -1, "wordID": 337, "type": "PRES_VIS", "trial_index": 139}, "uniqueid": "MTK2872:3E1QT0TDFQGX5O7V8S1PVEQJEK48IA", "dateTime": 1519420858172}, {"current_trial": 140, "trialdata": {"rt": -1, "trial_type": "single-stim", "word": "sunrise", "stimulus": "<p id=\"stim\">SUNRISE</p>", "conditions": [24, 800, "v", 24000], "internal_node_id": "0.0-104.0", "trial": 3, "time_elapsed": 593466, "serialpos": 11, "key_press": -1, "wordID": 1406, "type": "PRES_VIS", "trial_index": 140}, "uniqueid": "MTK2872:3E1QT0TDFQGX5O7V8S1PVEQJEK48IA", "dateTime": 1519420859887}, {"current_trial": 141, "trialdata": {"rt": -1, "trial_type": "single-stim", "word": "leopard", "stimulus": "<p id=\"stim\">LEOPARD</p>", "conditions": [24, 800, "v", 24000], "internal_node_id": "0.0-105.0", "trial": 3, "time_elapsed": 595230, "serialpos": 12, "key_press": -1, "wordID": 811, "type": "PRES_VIS", "trial_index": 141}, "uniqueid": "MTK2872:3E1QT0TDFQGX5O7V8S1PVEQJEK48IA", "dateTime": 1519420861652}, {"current_trial": 142, "trialdata": {"rt": -1, "trial_type": "single-stim", "word": "apron", "stimulus": "<p id=\"stim\">APRON</p>", "conditions": [24, 800, "v", 24000], "internal_node_id": "0.0-106.0", "trial": 3, "time_elapsed": 597123, "serialpos": 13, "key_press": -1, "wordID": 34, "type": "PRES_VIS", "trial_index": 142}, "uniqueid": "MTK2872:3E1QT0TDFQGX5O7V8S1PVEQJEK48IA", "dateTime": 1519420863544}, {"current_trial": 143, "trialdata": {"rt": -1, "trial_type": "single-stim", "word": "label", "stimulus": "<p id=\"stim\">LABEL</p>", "conditions": [24, 800, "v", 24000], "internal_node_id": "0.0-107.0", "trial": 3, "time_elapsed": 599062, "serialpos": 14, "key_press": -1, "wordID": 789, "type": "PRES_VIS", "trial_index": 143}, "uniqueid": "MTK2872:3E1QT0TDFQGX5O7V8S1PVEQJEK48IA", "dateTime": 1519420865483}, {"current_trial": 144, "trialdata": {"rt": -1, "trial_type": "single-stim", "word": "journal", "stimulus": "<p id=\"stim\">JOURNAL</p>", "conditions": [24, 800, "v", 24000], "internal_node_id": "0.0-108.0", "trial": 3, "time_elapsed": 600960, "serialpos": 15, "key_press": -1, "wordID": 759, "type": "PRES_VIS", "trial_index": 144}, "uniqueid": "MTK2872:3E1QT0TDFQGX5O7V8S1PVEQJEK48IA", "dateTime": 1519420867381}, {"current_trial": 145, "trialdata": {"rt": -1, "trial_type": "single-stim", "word": "fragrance", "stimulus": "<p id=\"stim\">FRAGRANCE</p>", "conditions": [24, 800, "v", 24000], "internal_node_id": "0.0-109.0", "trial": 3, "time_elapsed": 602854, "serialpos": 16, "key_press": -1, "wordID": 598, "type": "PRES_VIS", "trial_index": 145}, "uniqueid": "MTK2872:3E1QT0TDFQGX5O7V8S1PVEQJEK48IA", "dateTime": 1519420869275}, {"current_trial": 146, "trialdata": {"rt": -1, "trial_type": "single-stim", "word": "wagon", "stimulus": "<p id=\"stim\">WAGON</p>", "conditions": [24, 800, "v", 24000], "internal_node_id": "0.0-110.0", "trial": 3, "time_elapsed": 604491, "serialpos": 17, "key_press": -1, "wordID": 1577, "type": "PRES_VIS", "trial_index": 146}, "uniqueid": "MTK2872:3E1QT0TDFQGX5O7V8S1PVEQJEK48IA", "dateTime": 1519420870912}, {"current_trial": 147, "trialdata": {"rt": -1, "trial_type": "single-stim", "word": "drug", "stimulus": "<p id=\"stim\">DRUG</p>", "conditions": [24, 800, "v", 24000], "internal_node_id": "0.0-111.0", "trial": 3, "time_elapsed": 606186, "serialpos": 18, "key_press": -1, "wordID": 500, "type": "PRES_VIS", "trial_index": 147}, "uniqueid": "MTK2872:3E1QT0TDFQGX5O7V8S1PVEQJEK48IA", "dateTime": 1519420872607}, {"current_trial": 148, "trialdata": {"rt": -1, "trial_type": "single-stim", "word": "diner", "stimulus": "<p id=\"stim\">DINER</p>", "conditions": [24, 800, "v", 24000], "internal_node_id": "0.0-112.0", "trial": 3, "time_elapsed": 607921, "serialpos": 19, "key_press": -1, "wordID": 466, "type": "PRES_VIS", "trial_index": 148}, "uniqueid": "MTK2872:3E1QT0TDFQGX5O7V8S1PVEQJEK48IA", "dateTime": 1519420874342}, {"current_trial": 149, "trialdata": {"rt": -1, "trial_type": "single-stim", "word": "twig", "stimulus": "<p id=\"stim\">TWIG</p>", "conditions": [24, 800, "v", 24000], "internal_node_id": "0.0-113.0", "trial": 3, "time_elapsed": 609563, "serialpos": 20, "key_press": -1, "wordID": 1526, "type": "PRES_VIS", "trial_index": 149}, "uniqueid": "MTK2872:3E1QT0TDFQGX5O7V8S1PVEQJEK48IA", "dateTime": 1519420875984}, {"current_trial": 150, "trialdata": {"rt": -1, "trial_type": "single-stim", "word": "marrow", "stimulus": "<p id=\"stim\">MARROW</p>", "conditions": [24, 800, "v", 24000], "internal_node_id": "0.0-114.0", "trial": 3, "time_elapsed": 611386, "serialpos": 21, "key_press": -1, "wordID": 871, "type": "PRES_VIS", "trial_index": 150}, "uniqueid": "MTK2872:3E1QT0TDFQGX5O7V8S1PVEQJEK48IA", "dateTime": 1519420877807}, {"current_trial": 151, "trialdata": {"rt": -1, "trial_type": "single-stim", "word": "kidney", "stimulus": "<p id=\"stim\">KIDNEY</p>", "conditions": [24, 800, "v", 24000], "internal_node_id": "0.0-115.0", "trial": 3, "time_elapsed": 613216, "serialpos": 22, "key_press": -1, "wordID": 775, "type": "PRES_VIS", "trial_index": 151}, "uniqueid": "MTK2872:3E1QT0TDFQGX5O7V8S1PVEQJEK48IA", "dateTime": 1519420879637}, {"current_trial": 152, "trialdata": {"rt": -1, "trial_type": "single-stim", "word": "sandwich", "stimulus": "<p id=\"stim\">SANDWICH</p>", "conditions": [24, 800, "v", 24000], "internal_node_id": "0.0-116.0", "trial": 3, "time_elapsed": 614878, "serialpos": 23, "key_press": -1, "wordID": 1231, "type": "PRES_VIS", "trial_index": 152}, "uniqueid": "MTK2872:3E1QT0TDFQGX5O7V8S1PVEQJEK48IA", "dateTime": 1519420881299}, {"current_trial": 153, "trialdata": {"rt": -1, "trial_type": "single-stim", "stimulus": "", "internal_node_id": "0.0-117.0-0.0", "time_elapsed": 617480, "key_press": -1, "type": "PRE_RECALL_DELAY", "trial_index": 153}, "uniqueid": "MTK2872:3E1QT0TDFQGX5O7V8S1PVEQJEK48IA", "dateTime": 1519420883901}, {"current_trial": 154, "trialdata": {"rt": -1000, "trial_type": "single-audio", "stimulus": "/static/audio/400Hz.wav", "internal_node_id": "0.0-118.0", "time_elapsed": 617983, "key_press": -1, "type": "PRE_RECALL_ALERT", "trial_index": 154}, "uniqueid": "MTK2872:3E1QT0TDFQGX5O7V8S1PVEQJEK48IA", "dateTime": 1519420884404}, {"current_trial": 155, "trialdata": {"rt": [19151, 20663], "recwords": ["fragarance", "money"], "key_times": [16584, 17015, 17171, 17332, 17574, 17968, 18187, 18439, 18625, 18725, 18857, 19009, 19151, 19795, 19917, 20080, 20231, 20342, 20663], "trial_type": "free-recall", "conditions": [24, 800, "v", 24000], "internal_node_id": "0.0-119.0-0.0", "key_presses": [71, 8, 70, 82, 65, 71, 65, 82, 65, 78, 67, 69, 13, 77, 79, 78, 69, 89, 13], "trial": 3, "time_elapsed": 677992, "type": "FREE_RECALL", "trial_index": 155}, "uniqueid": "MTK2872:3E1QT0TDFQGX5O7V8S1PVEQJEK48IA", "dateTime": 1519420944414}, {"current_trial": 156, "trialdata": {"rt": 2484, "trial_type": "text", "internal_node_id": "0.0-120.0", "time_elapsed": 682482, "key_press": 32, "type": "INSTRUCTIONS", "trial_index": 156}, "uniqueid": "MTK2872:3E1QT0TDFQGX5O7V8S1PVEQJEK48IA", "dateTime": 1519420948903}, {"current_trial": 157, "trialdata": {"rt": [2757, 6476, 9717, 14127, 17102], "trial_type": "math-distractor", "key_times": [2510, 2619, 2757, 6126, 6279, 6476, 9295, 9519, 9717, 13289, 13403, 14127, 15942, 16600, 17102, 23197, 23615], "responses": ["12", "23", "14", "21", "16"], "num2": [2, 9, 3, 8, 3, 5], "num3": [3, 5, 3, 8, 5, 7], "conditions": [24, 800, "v", 24000], "internal_node_id": "0.0-121.0", "key_presses": [49, 50, 13, 50, 51, 13, 49, 52, 13, 50, 49, 13, 49, 54, 13, 49, 54], "trial": 4, "time_elapsed": 708496, "type": "DISTRACTOR", "trial_index": 157, "num1": [7, 9, 8, 5, 8, 8]}, "uniqueid": "MTK2872:3E1QT0TDFQGX5O7V8S1PVEQJEK48IA", "dateTime": 1519420974917}, {"current_trial": 158, "trialdata": {"rt": -1, "trial_type": "single-stim", "stimulus": "<p id=\"stim\">10</p>", "internal_node_id": "0.0-122.0-0.0", "time_elapsed": 711503, "key_press": -1, "trial_index": 158}, "uniqueid": "MTK2872:3E1QT0TDFQGX5O7V8S1PVEQJEK48IA", "dateTime": 1519420977924}, {"current_trial": 159, "trialdata": {"rt": -1, "trial_type": "single-stim", "stimulus": "<p id=\"stim\">9</p>", "internal_node_id": "0.0-122.0-1.0", "time_elapsed": 712507, "key_press": -1, "trial_index": 159}, "uniqueid": "MTK2872:3E1QT0TDFQGX5O7V8S1PVEQJEK48IA", "dateTime": 1519420978928}, {"current_trial": 160, "trialdata": {"rt": -1, "trial_type": "single-stim", "stimulus": "<p id=\"stim\">8</p>", "internal_node_id": "0.0-122.0-2.0", "time_elapsed": 713511, "key_press": -1, "trial_index": 160}, "uniqueid": "MTK2872:3E1QT0TDFQGX5O7V8S1PVEQJEK48IA", "dateTime": 1519420979932}, {"current_trial": 161, "trialdata": {"rt": -1, "trial_type": "single-stim", "stimulus": "<p id=\"stim\">7</p>", "internal_node_id": "0.0-122.0-3.0", "time_elapsed": 714515, "key_press": -1, "trial_index": 161}, "uniqueid": "MTK2872:3E1QT0TDFQGX5O7V8S1PVEQJEK48IA", "dateTime": 1519420980936}, {"current_trial": 162, "trialdata": {"rt": -1, "trial_type": "single-stim", "stimulus": "<p id=\"stim\">6</p>", "internal_node_id": "0.0-122.0-4.0", "time_elapsed": 715519, "key_press": -1, "trial_index": 162}, "uniqueid": "MTK2872:3E1QT0TDFQGX5O7V8S1PVEQJEK48IA", "dateTime": 1519420981940}, {"current_trial": 163, "trialdata": {"rt": -1, "trial_type": "single-stim", "stimulus": "<p id=\"stim\">5</p>", "internal_node_id": "0.0-122.0-5.0", "time_elapsed": 716523, "key_press": -1, "trial_index": 163}, "uniqueid": "MTK2872:3E1QT0TDFQGX5O7V8S1PVEQJEK48IA", "dateTime": 1519420982944}, {"current_trial": 164, "trialdata": {"rt": -1, "trial_type": "single-stim", "stimulus": "<p id=\"stim\">4</p>", "internal_node_id": "0.0-122.0-6.0", "time_elapsed": 717529, "key_press": -1, "trial_index": 164}, "uniqueid": "MTK2872:3E1QT0TDFQGX5O7V8S1PVEQJEK48IA", "dateTime": 1519420983950}, {"current_trial": 165, "trialdata": {"rt": -1, "trial_type": "single-stim", "stimulus": "<p id=\"stim\">3</p>", "internal_node_id": "0.0-122.0-7.0", "time_elapsed": 718532, "key_press": -1, "trial_index": 165}, "uniqueid": "MTK2872:3E1QT0TDFQGX5O7V8S1PVEQJEK48IA", "dateTime": 1519420984953}, {"current_trial": 166, "trialdata": {"rt": -1, "trial_type": "single-stim", "stimulus": "<p id=\"stim\">2</p>", "internal_node_id": "0.0-122.0-8.0", "time_elapsed": 719536, "key_press": -1, "trial_index": 166}, "uniqueid": "MTK2872:3E1QT0TDFQGX5O7V8S1PVEQJEK48IA", "dateTime": 1519420985957}, {"current_trial": 167, "trialdata": {"rt": -1, "trial_type": "single-stim", "stimulus": "<p id=\"stim\">1</p>", "internal_node_id": "0.0-122.0-9.0", "time_elapsed": 720540, "key_press": -1, "trial_index": 167}, "uniqueid": "MTK2872:3E1QT0TDFQGX5O7V8S1PVEQJEK48IA", "dateTime": 1519420986961}, {"current_trial": 168, "trialdata": {"rt": -1, "trial_type": "single-stim", "stimulus": "<p id=\"stim\">+</p>", "internal_node_id": "0.0-123.0-0.0", "time_elapsed": 722042, "key_press": -1, "type": "FIXATION", "trial_index": 168}, "uniqueid": "MTK2872:3E1QT0TDFQGX5O7V8S1PVEQJEK48IA", "dateTime": 1519420988463}, {"current_trial": 169, "trialdata": {"rt": -1, "trial_type": "single-stim", "word": "soda", "stimulus": "<p id=\"stim\">SODA</p>", "conditions": [24, 800, "v", 24000], "internal_node_id": "0.0-124.0", "trial": 4, "time_elapsed": 722845, "serialpos": 0, "key_press": -1, "wordID": 1340, "type": "PRES_VIS", "trial_index": 169}, "uniqueid": "MTK2872:3E1QT0TDFQGX5O7V8S1PVEQJEK48IA", "dateTime": 1519420989266}, {"current_trial": 170, "trialdata": {"rt": -1, "trial_type": "single-stim", "word": "widow", "stimulus": "<p id=\"stim\">WIDOW</p>", "conditions": [24, 800, "v", 24000], "internal_node_id": "0.0-125.0", "trial": 4, "time_elapsed": 724625, "serialpos": 1, "key_press": -1, "wordID": 1607, "type": "PRES_VIS", "trial_index": 170}, "uniqueid": "MTK2872:3E1QT0TDFQGX5O7V8S1PVEQJEK48IA", "dateTime": 1519420991046}, {"current_trial": 171, "trialdata": {"rt": -1, "trial_type": "single-stim", "word": "helmet", "stimulus": "<p id=\"stim\">HELMET</p>", "conditions": [24, 800, "v", 24000], "internal_node_id": "0.0-126.0", "trial": 4, "time_elapsed": 726304, "serialpos": 2, "key_press": -1, "wordID": 701, "type": "PRES_VIS", "trial_index": 171}, "uniqueid": "MTK2872:3E1QT0TDFQGX5O7V8S1PVEQJEK48IA", "dateTime": 1519420992725}, {"current_trial": 172, "trialdata": {"rt": -1, "trial_type": "single-stim", "word": "blouse", "stimulus": "<p id=\"stim\">BLOUSE</p>", "conditions": [24, 800, "v", 24000], "internal_node_id": "0.0-127.0", "trial": 4, "time_elapsed": 728004, "serialpos": 3, "key_press": -1, "wordID": 138, "type": "PRES_VIS", "trial_index": 172}, "uniqueid": "MTK2872:3E1QT0TDFQGX5O7V8S1PVEQJEK48IA", "dateTime": 1519420994426}, {"current_trial": 173, "trialdata": {"rt": -1, "trial_type": "single-stim", "word": "asia", "stimulus": "<p id=\"stim\">ASIA</p>", "conditions": [24, 800, "v", 24000], "internal_node_id": "0.0-128.0", "trial": 4, "time_elapsed": 729951, "serialpos": 4, "key_press": -1, "wordID": 45, "type": "PRES_VIS", "trial_index": 173}, "uniqueid": "MTK2872:3E1QT0TDFQGX5O7V8S1PVEQJEK48IA", "dateTime": 1519420996373}, {"current_trial": 174, "trialdata": {"rt": -1, "trial_type": "single-stim", "word": "snack", "stimulus": "<p id=\"stim\">SNACK</p>", "conditions": [24, 800, "v", 24000], "internal_node_id": "0.0-129.0", "trial": 4, "time_elapsed": 731722, "serialpos": 5, "key_press": -1, "wordID": 1330, "type": "PRES_VIS", "trial_index": 174}, "uniqueid": "MTK2872:3E1QT0TDFQGX5O7V8S1PVEQJEK48IA", "dateTime": 1519420998143}, {"current_trial": 175, "trialdata": {"rt": -1, "trial_type": "single-stim", "word": "child", "stimulus": "<p id=\"stim\">CHILD</p>", "conditions": [24, 800, "v", 24000], "internal_node_id": "0.0-130.0", "trial": 4, "time_elapsed": 733693, "serialpos": 6, "key_press": -1, "wordID": 298, "type": "PRES_VIS", "trial_index": 175}, "uniqueid": "MTK2872:3E1QT0TDFQGX5O7V8S1PVEQJEK48IA", "dateTime": 1519421000114}, {"current_trial": 176, "trialdata": {"rt": -1, "trial_type": "single-stim", "word": "marine", "stimulus": "<p id=\"stim\">MARINE</p>", "conditions": [24, 800, "v", 24000], "internal_node_id": "0.0-131.0", "trial": 4, "time_elapsed": 735568, "serialpos": 7, "key_press": -1, "wordID": 868, "type": "PRES_VIS", "trial_index": 176}, "uniqueid": "MTK2872:3E1QT0TDFQGX5O7V8S1PVEQJEK48IA", "dateTime": 1519421001989}, {"current_trial": 177, "trialdata": {"rt": -1, "trial_type": "single-stim", "word": "spouse", "stimulus": "<p id=\"stim\">SPOUSE</p>", "conditions": [24, 800, "v", 24000], "internal_node_id": "0.0-132.0", "trial": 4, "time_elapsed": 737191, "serialpos": 8, "key_press": -1, "wordID": 1357, "type": "PRES_VIS", "trial_index": 177}, "uniqueid": "MTK2872:3E1QT0TDFQGX5O7V8S1PVEQJEK48IA", "dateTime": 1519421003612}, {"current_trial": 178, "trialdata": {"rt": -1, "trial_type": "single-stim", "word": "scarf", "stimulus": "<p id=\"stim\">SCARF</p>", "conditions": [24, 800, "v", 24000], "internal_node_id": "0.0-133.0", "trial": 4, "time_elapsed": 739071, "serialpos": 9, "key_press": -1, "wordID": 1245, "type": "PRES_VIS", "trial_index": 178}, "uniqueid": "MTK2872:3E1QT0TDFQGX5O7V8S1PVEQJEK48IA", "dateTime": 1519421005493}, {"current_trial": 179, "trialdata": {"rt": -1, "trial_type": "single-stim", "word": "picnic", "stimulus": "<p id=\"stim\">PICNIC</p>", "conditions": [24, 800, "v", 24000], "internal_node_id": "0.0-134.0", "trial": 4, "time_elapsed": 740716, "serialpos": 10, "key_press": -1, "wordID": 1059, "type": "PRES_VIS", "trial_index": 179}, "uniqueid": "MTK2872:3E1QT0TDFQGX5O7V8S1PVEQJEK48IA", "dateTime": 1519421007137}, {"current_trial": 180, "trialdata": {"rt": -1, "trial_type": "single-stim", "word": "supper", "stimulus": "<p id=\"stim\">SUPPER</p>", "conditions": [24, 800, "v", 24000], "internal_node_id": "0.0-135.0", "trial": 4, "time_elapsed": 742416, "serialpos": 11, "key_press": -1, "wordID": 1410, "type": "PRES_VIS", "trial_index": 180}, "uniqueid": "MTK2872:3E1QT0TDFQGX5O7V8S1PVEQJEK48IA", "dateTime": 1519421008837}, {"current_trial": 181, "trialdata": {"rt": -1, "trial_type": "single-stim", "word": "tractor", "stimulus": "<p id=\"stim\">TRACTOR</p>", "conditions": [24, 800, "v", 24000], "internal_node_id": "0.0-136.0", "trial": 4, "time_elapsed": 744414, "serialpos": 12, "key_press": -1, "wordID": 1492, "type": "PRES_VIS", "trial_index": 181}, "uniqueid": "MTK2872:3E1QT0TDFQGX5O7V8S1PVEQJEK48IA", "dateTime": 1519421010835}, {"current_trial": 182, "trialdata": {"rt": -1, "trial_type": "single-stim", "word": "nightgown", "stimulus": "<p id=\"stim\">NIGHTGOWN</p>", "conditions": [24, 800, "v", 24000], "internal_node_id": "0.0-137.0", "trial": 4, "time_elapsed": 746278, "serialpos": 13, "key_press": -1, "wordID": 952, "type": "PRES_VIS", "trial_index": 182}, "uniqueid": "MTK2872:3E1QT0TDFQGX5O7V8S1PVEQJEK48IA", "dateTime": 1519421012699}, {"current_trial": 183, "trialdata": {"rt": -1, "trial_type": "single-stim", "word": "pigeon", "stimulus": "<p id=\"stim\">PIGEON</p>", "conditions": [24, 800, "v", 24000], "internal_node_id": "0.0-138.0", "trial": 4, "time_elapsed": 748009, "serialpos": 14, "key_press": -1, "wordID": 1064, "type": "PRES_VIS", "trial_index": 183}, "uniqueid": "MTK2872:3E1QT0TDFQGX5O7V8S1PVEQJEK48IA", "dateTime": 1519421014430}, {"current_trial": 184, "trialdata": {"rt": -1, "trial_type": "single-stim", "word": "toaster", "stimulus": "<p id=\"stim\">TOASTER</p>", "conditions": [24, 800, "v", 24000], "internal_node_id": "0.0-139.0", "trial": 4, "time_elapsed": 750000, "serialpos": 15, "key_press": -1, "wordID": 1471, "type": "PRES_VIS", "trial_index": 184}, "uniqueid": "MTK2872:3E1QT0TDFQGX5O7V8S1PVEQJEK48IA", "dateTime": 1519421016421}, {"current_trial": 185, "trialdata": {"rt": -1, "trial_type": "single-stim", "word": "xerox", "stimulus": "<p id=\"stim\">XEROX</p>", "conditions": [24, 800, "v", 24000], "internal_node_id": "0.0-140.0", "trial": 4, "time_elapsed": 751993, "serialpos": 16, "key_press": -1, "wordID": 1627, "type": "PRES_VIS", "trial_index": 185}, "uniqueid": "MTK2872:3E1QT0TDFQGX5O7V8S1PVEQJEK48IA", "dateTime": 1519421018414}, {"current_trial": 186, "trialdata": {"rt": -1, "trial_type": "single-stim", "word": "pilot", "stimulus": "<p id=\"stim\">PILOT</p>", "conditions": [24, 800, "v", 24000], "internal_node_id": "0.0-141.0", "trial": 4, "time_elapsed": 753607, "serialpos": 17, "key_press": -1, "wordID": 1069, "type": "PRES_VIS", "trial_index": 186}, "uniqueid": "MTK2872:3E1QT0TDFQGX5O7V8S1PVEQJEK48IA", "dateTime": 1519421020028}, {"current_trial": 187, "trialdata": {"rt": -1, "trial_type": "single-stim", "word": "pistol", "stimulus": "<p id=\"stim\">PISTOL</p>", "conditions": [24, 800, "v", 24000], "internal_node_id": "0.0-142.0", "trial": 4, "time_elapsed": 755232, "serialpos": 18, "key_press": -1, "wordID": 1074, "type": "PRES_VIS", "trial_index": 187}, "uniqueid": "MTK2872:3E1QT0TDFQGX5O7V8S1PVEQJEK48IA", "dateTime": 1519421021653}, {"current_trial": 188, "trialdata": {"rt": -1, "trial_type": "single-stim", "word": "knife", "stimulus": "<p id=\"stim\">KNIFE</p>", "conditions": [24, 800, "v", 24000], "internal_node_id": "0.0-143.0", "trial": 4, "time_elapsed": 757025, "serialpos": 19, "key_press": -1, "wordID": 784, "type": "PRES_VIS", "trial_index": 188}, "uniqueid": "MTK2872:3E1QT0TDFQGX5O7V8S1PVEQJEK48IA", "dateTime": 1519421023446}, {"current_trial": 189, "trialdata": {"rt": -1, "trial_type": "single-stim", "word": "clothes", "stimulus": "<p id=\"stim\">CLOTHES</p>", "conditions": [24, 800, "v", 24000], "internal_node_id": "0.0-144.0", "trial": 4, "time_elapsed": 758650, "serialpos": 20, "key_press": -1, "wordID": 326, "type": "PRES_VIS", "trial_index": 189}, "uniqueid": "MTK2872:3E1QT0TDFQGX5O7V8S1PVEQJEK48IA", "dateTime": 1519421025071}, {"current_trial": 190, "trialdata": {"rt": -1, "trial_type": "single-stim", "word": "flesh", "stimulus": "<p id=\"stim\">FLESH</p>", "conditions": [24, 800, "v", 24000], "internal_node_id": "0.0-145.0", "trial": 4, "time_elapsed": 760647, "serialpos": 21, "key_press": -1, "wordID": 578, "type": "PRES_VIS", "trial_index": 190}, "uniqueid": "MTK2872:3E1QT0TDFQGX5O7V8S1PVEQJEK48IA", "dateTime": 1519421027068}, {"current_trial": 191, "trialdata": {"rt": -1, "trial_type": "single-stim", "word": "office", "stimulus": "<p id=\"stim\">OFFICE</p>", "conditions": [24, 800, "v", 24000], "internal_node_id": "0.0-146.0", "trial": 4, "time_elapsed": 762360, "serialpos": 22, "key_press": -1, "wordID": 971, "type": "PRES_VIS", "trial_index": 191}, "uniqueid": "MTK2872:3E1QT0TDFQGX5O7V8S1PVEQJEK48IA", "dateTime": 1519421028781}, {"current_trial": 192, "trialdata": {"rt": -1, "trial_type": "single-stim", "word": "crown", "stimulus": "<p id=\"stim\">CROWN</p>", "conditions": [24, 800, "v", 24000], "internal_node_id": "0.0-147.0", "trial": 4, "time_elapsed": 764051, "serialpos": 23, "key_press": -1, "wordID": 414, "type": "PRES_VIS", "trial_index": 192}, "uniqueid": "MTK2872:3E1QT0TDFQGX5O7V8S1PVEQJEK48IA", "dateTime": 1519421030472}, {"current_trial": 193, "trialdata": {"rt": -1, "trial_type": "single-stim", "stimulus": "", "internal_node_id": "0.0-148.0-0.0", "time_elapsed": 766489, "key_press": -1, "type": "PRE_RECALL_DELAY", "trial_index": 193}, "uniqueid": "MTK2872:3E1QT0TDFQGX5O7V8S1PVEQJEK48IA", "dateTime": 1519421032910}, {"current_trial": 194, "trialdata": {"rt": -1000, "trial_type": "single-audio", "stimulus": "/static/audio/400Hz.wav", "internal_node_id": "0.0-149.0", "time_elapsed": 766990, "key_press": -1, "type": "PRE_RECALL_ALERT", "trial_index": 194}, "uniqueid": "MTK2872:3E1QT0TDFQGX5O7V8S1PVEQJEK48IA", "dateTime": 1519421033411}, {"current_trial": 195, "trialdata": {"rt": [1558, 4664, 6204, 9822], "recwords": ["soda", "widow", "house", "blank"], "key_times": [1007, 1133, 1232, 1420, 1558, 2916, 3081, 3160, 3306, 3371, 4664, 5305, 5485, 5671, 5763, 5948, 6204, 7829, 8229, 8635, 8818, 8995, 9130, 9315, 9822], "trial_type": "free-recall", "conditions": [24, 800, "v", 24000], "internal_node_id": "0.0-150.0-0.0", "key_presses": [83, 79, 68, 65, 32, 87, 73, 68, 79, 87, 13, 72, 79, 85, 83, 69, 13, 78, 8, 66, 76, 65, 78, 75, 13], "trial": 4, "time_elapsed": 826996, "type": "FREE_RECALL", "trial_index": 195}, "uniqueid": "MTK2872:3E1QT0TDFQGX5O7V8S1PVEQJEK48IA", "dateTime": 1519421093420}, {"current_trial": 196, "trialdata": {"rt": 1820, "trial_type": "text", "internal_node_id": "0.0-151.0", "time_elapsed": 830822, "key_press": 32, "type": "INSTRUCTIONS", "trial_index": 196}, "uniqueid": "MTK2872:3E1QT0TDFQGX5O7V8S1PVEQJEK48IA", "dateTime": 1519421097243}, {"current_trial": 197, "trialdata": {"rt": [3626, 7032], "trial_type": "math-distractor", "key_times": [2941, 3056, 3626, 6201, 6508, 7032], "responses": ["19", "17"], "num2": [7, 2, 3], "num3": [5, 9, 6], "conditions": [12, 1600, "v", 12000], "internal_node_id": "0.0-152.0", "key_presses": [49, 57, 13, 49, 55, 13], "trial": 5, "time_elapsed": 844833, "type": "DISTRACTOR", "trial_index": 197, "num1": [7, 6, 4]}, "uniqueid": "MTK2872:3E1QT0TDFQGX5O7V8S1PVEQJEK48IA", "dateTime": 1519421111255}, {"current_trial": 198, "trialdata": {"rt": -1, "trial_type": "single-stim", "stimulus": "<p id=\"stim\">10</p>", "internal_node_id": "0.0-153.0-0.0", "time_elapsed": 847841, "key_press": -1, "trial_index": 198}, "uniqueid": "MTK2872:3E1QT0TDFQGX5O7V8S1PVEQJEK48IA", "dateTime": 1519421114262}, {"current_trial": 199, "trialdata": {"rt": -1, "trial_type": "single-stim", "stimulus": "<p id=\"stim\">9</p>", "internal_node_id": "0.0-153.0-1.0", "time_elapsed": 848845, "key_press": -1, "trial_index": 199}, "uniqueid": "MTK2872:3E1QT0TDFQGX5O7V8S1PVEQJEK48IA", "dateTime": 1519421115266}, {"current_trial": 200, "trialdata": {"rt": -1, "trial_type": "single-stim", "stimulus": "<p id=\"stim\">8</p>", "internal_node_id": "0.0-153.0-2.0", "time_elapsed": 849849, "key_press": -1, "trial_index": 200}, "uniqueid": "MTK2872:3E1QT0TDFQGX5O7V8S1PVEQJEK48IA", "dateTime": 1519421116270}, {"current_trial": 201, "trialdata": {"rt": -1, "trial_type": "single-stim", "stimulus": "<p id=\"stim\">7</p>", "internal_node_id": "0.0-153.0-3.0", "time_elapsed": 850853, "key_press": -1, "trial_index": 201}, "uniqueid": "MTK2872:3E1QT0TDFQGX5O7V8S1PVEQJEK48IA", "dateTime": 1519421117274}, {"current_trial": 202, "trialdata": {"rt": -1, "trial_type": "single-stim", "stimulus": "<p id=\"stim\">6</p>", "internal_node_id": "0.0-153.0-4.0", "time_elapsed": 851857, "key_press": -1, "trial_index": 202}, "uniqueid": "MTK2872:3E1QT0TDFQGX5O7V8S1PVEQJEK48IA", "dateTime": 1519421118278}, {"current_trial": 203, "trialdata": {"rt": -1, "trial_type": "single-stim", "stimulus": "<p id=\"stim\">5</p>", "internal_node_id": "0.0-153.0-5.0", "time_elapsed": 852861, "key_press": -1, "trial_index": 203}, "uniqueid": "MTK2872:3E1QT0TDFQGX5O7V8S1PVEQJEK48IA", "dateTime": 1519421119282}, {"current_trial": 204, "trialdata": {"rt": -1, "trial_type": "single-stim", "stimulus": "<p id=\"stim\">4</p>", "internal_node_id": "0.0-153.0-6.0", "time_elapsed": 853867, "key_press": -1, "trial_index": 204}, "uniqueid": "MTK2872:3E1QT0TDFQGX5O7V8S1PVEQJEK48IA", "dateTime": 1519421120288}, {"current_trial": 205, "trialdata": {"rt": -1, "trial_type": "single-stim", "stimulus": "<p id=\"stim\">3</p>", "internal_node_id": "0.0-153.0-7.0", "time_elapsed": 854870, "key_press": -1, "trial_index": 205}, "uniqueid": "MTK2872:3E1QT0TDFQGX5O7V8S1PVEQJEK48IA", "dateTime": 1519421121291}, {"current_trial": 206, "trialdata": {"rt": -1, "trial_type": "single-stim", "stimulus": "<p id=\"stim\">2</p>", "internal_node_id": "0.0-153.0-8.0", "time_elapsed": 855873, "key_press": -1, "trial_index": 206}, "uniqueid": "MTK2872:3E1QT0TDFQGX5O7V8S1PVEQJEK48IA", "dateTime": 1519421122295}, {"current_trial": 207, "trialdata": {"rt": -1, "trial_type": "single-stim", "stimulus": "<p id=\"stim\">1</p>", "internal_node_id": "0.0-153.0-9.0", "time_elapsed": 856878, "key_press": -1, "trial_index": 207}, "uniqueid": "MTK2872:3E1QT0TDFQGX5O7V8S1PVEQJEK48IA", "dateTime": 1519421123299}, {"current_trial": 208, "trialdata": {"rt": -1, "trial_type": "single-stim", "stimulus": "<p id=\"stim\">+</p>", "internal_node_id": "0.0-154.0-0.0", "time_elapsed": 858381, "key_press": -1, "type": "FIXATION", "trial_index": 208}, "uniqueid": "MTK2872:3E1QT0TDFQGX5O7V8S1PVEQJEK48IA", "dateTime": 1519421124802}, {"current_trial": 209, "trialdata": {"rt": -1, "trial_type": "single-stim", "word": "driver", "stimulus": "<p id=\"stim\">DRIVER</p>", "conditions": [12, 1600, "v", 12000], "internal_node_id": "0.0-155.0", "trial": 5, "time_elapsed": 859984, "serialpos": 0, "key_press": -1, "wordID": 498, "type": "PRES_VIS", "trial_index": 209}, "uniqueid": "MTK2872:3E1QT0TDFQGX5O7V8S1PVEQJEK48IA", "dateTime": 1519421126405}, {"current_trial": 210, "trialdata": {"rt": -1, "trial_type": "single-stim", "word": "truck", "stimulus": "<p id=\"stim\">TRUCK</p>", "conditions": [12, 1600, "v", 12000], "internal_node_id": "0.0-156.0", "trial": 5, "time_elapsed": 862787, "serialpos": 1, "key_press": -1, "wordID": 1511, "type": "PRES_VIS", "trial_index": 210}, "uniqueid": "MTK2872:3E1QT0TDFQGX5O7V8S1PVEQJEK48IA", "dateTime": 1519421129208}, {"current_trial": 211, "trialdata": {"rt": -1, "trial_type": "single-stim", "word": "hostess", "stimulus": "<p id=\"stim\">HOSTESS</p>", "conditions": [12, 1600, "v", 12000], "internal_node_id": "0.0-157.0", "trial": 5, "time_elapsed": 865267, "serialpos": 2, "key_press": -1, "wordID": 722, "type": "PRES_VIS", "trial_index": 211}, "uniqueid": "MTK2872:3E1QT0TDFQGX5O7V8S1PVEQJEK48IA", "dateTime": 1519421131688}, {"current_trial": 212, "trialdata": {"rt": -1, "trial_type": "single-stim", "word": "tablet", "stimulus": "<p id=\"stim\">TABLET</p>", "conditions": [12, 1600, "v", 12000], "internal_node_id": "0.0-158.0", "trial": 5, "time_elapsed": 867844, "serialpos": 3, "key_press": -1, "wordID": 1426, "type": "PRES_VIS", "trial_index": 212}, "uniqueid": "MTK2872:3E1QT0TDFQGX5O7V8S1PVEQJEK48IA", "dateTime": 1519421134265}, {"current_trial": 213, "trialdata": {"rt": -1, "trial_type": "single-stim", "word": "harp", "stimulus": "<p id=\"stim\">HARP</p>", "conditions": [12, 1600, "v", 12000], "internal_node_id": "0.0-159.0", "trial": 5, "time_elapsed": 870367, "serialpos": 4, "key_press": -1, "wordID": 688, "type": "PRES_VIS", "trial_index": 213}, "uniqueid": "MTK2872:3E1QT0TDFQGX5O7V8S1PVEQJEK48IA", "dateTime": 1519421136788}, {"current_trial": 214, "trialdata": {"rt": -1, "trial_type": "single-stim", "word": "girl", "stimulus": "<p id=\"stim\">GIRL</p>", "conditions": [12, 1600, "v", 12000], "internal_node_id": "0.0-160.0", "trial": 5, "time_elapsed": 872906, "serialpos": 5, "key_press": -1, "wordID": 636, "type": "PRES_VIS", "trial_index": 214}, "uniqueid": "MTK2872:3E1QT0TDFQGX5O7V8S1PVEQJEK48IA", "dateTime": 1519421139328}, {"current_trial": 215, "trialdata": {"rt": -1, "trial_type": "single-stim", "word": "turnip", "stimulus": "<p id=\"stim\">TURNIP</p>", "conditions": [12, 1600, "v", 12000], "internal_node_id": "0.0-161.0", "trial": 5, "time_elapsed": 875695, "serialpos": 6, "key_press": -1, "wordID": 1520, "type": "PRES_VIS", "trial_index": 215}, "uniqueid": "MTK2872:3E1QT0TDFQGX5O7V8S1PVEQJEK48IA", "dateTime": 1519421142116}, {"current_trial": 216, "trialdata": {"rt": -1, "trial_type": "single-stim", "word": "dorm", "stimulus": "<p id=\"stim\">DORM</p>", "conditions": [12, 1600, "v", 12000], "internal_node_id": "0.0-162.0", "trial": 5, "time_elapsed": 878260, "serialpos": 7, "key_press": -1, "wordID": 487, "type": "PRES_VIS", "trial_index": 216}, "uniqueid": "MTK2872:3E1QT0TDFQGX5O7V8S1PVEQJEK48IA", "dateTime": 1519421144682}, {"current_trial": 217, "trialdata": {"rt": -1, "trial_type": "single-stim", "word": "banjo", "stimulus": "<p id=\"stim\">BANJO</p>", "conditions": [12, 1600, "v", 12000], "internal_node_id": "0.0-163.0", "trial": 5, "time_elapsed": 880686, "serialpos": 8, "key_press": -1, "wordID": 81, "type": "PRES_VIS", "trial_index": 217}, "uniqueid": "MTK2872:3E1QT0TDFQGX5O7V8S1PVEQJEK48IA", "dateTime": 1519421147108}, {"current_trial": 218, "trialdata": {"rt": -1, "trial_type": "single-stim", "word": "compass", "stimulus": "<p id=\"stim\">COMPASS</p>", "conditions": [12, 1600, "v", 12000], "internal_node_id": "0.0-164.0", "trial": 5, "time_elapsed": 883455, "serialpos": 9, "key_press": -1, "wordID": 357, "type": "PRES_VIS", "trial_index": 218}, "uniqueid": "MTK2872:3E1QT0TDFQGX5O7V8S1PVEQJEK48IA", "dateTime": 1519421149876}, {"current_trial": 219, "trialdata": {"rt": -1, "trial_type": "single-stim", "word": "venus", "stimulus": "<p id=\"stim\">VENUS</p>", "conditions": [12, 1600, "v", 12000], "internal_node_id": "0.0-165.0", "trial": 5, "time_elapsed": 885968, "serialpos": 10, "key_press": -1, "wordID": 1556, "type": "PRES_VIS", "trial_index": 219}, "uniqueid": "MTK2872:3E1QT0TDFQGX5O7V8S1PVEQJEK48IA", "dateTime": 1519421152389}, {"current_trial": 220, "trialdata": {"rt": -1, "trial_type": "single-stim", "word": "salt", "stimulus": "<p id=\"stim\">SALT</p>", "conditions": [12, 1600, "v", 12000], "internal_node_id": "0.0-166.0", "trial": 5, "time_elapsed": 888761, "serialpos": 11, "key_press": -1, "wordID": 1228, "type": "PRES_VIS", "trial_index": 220}, "uniqueid": "MTK2872:3E1QT0TDFQGX5O7V8S1PVEQJEK48IA", "dateTime": 1519421155182}, {"current_trial": 221, "trialdata": {"rt": -1, "trial_type": "single-stim", "stimulus": "", "internal_node_id": "0.0-167.0-0.0", "time_elapsed": 890948, "key_press": -1, "type": "PRE_RECALL_DELAY", "trial_index": 221}, "uniqueid": "MTK2872:3E1QT0TDFQGX5O7V8S1PVEQJEK48IA", "dateTime": 1519421157369}, {"current_trial": 222, "trialdata": {"rt": -1000, "trial_type": "single-audio", "stimulus": "/static/audio/400Hz.wav", "internal_node_id": "0.0-168.0", "time_elapsed": 891450, "key_press": -1, "type": "PRE_RECALL_ALERT", "trial_index": 222}, "uniqueid": "MTK2872:3E1QT0TDFQGX5O7V8S1PVEQJEK48IA", "dateTime": 1519421157871}, {"current_trial": 223, "trialdata": {"rt": [2611, 3954, 6463, 10551, 17341, 22596], "recwords": ["venus", "sault", "salt", "trap", "girl", "turnip"], "key_times": [1936, 2060, 2200, 2371, 2499, 2611, 3112, 3280, 3391, 3593, 3715, 3954, 5298, 5491, 5663, 5835, 6463, 9746, 9921, 10129, 10243, 10551, 16730, 16849, 16964, 17094, 17341, 20908, 21021, 21125, 21274, 21602, 22286, 22596], "trial_type": "free-recall", "conditions": [12, 1600, "v", 12000], "internal_node_id": "0.0-169.0-0.0", "key_presses": [86, 69, 78, 85, 83, 32, 83, 65, 85, 76, 84, 13, 83, 65, 76, 84, 13, 84, 82, 65, 80, 13, 71, 73, 82, 76, 13, 84, 85, 82, 78, 73, 80, 13], "trial": 5, "time_elapsed": 951454, "type": "FREE_RECALL", "trial_index": 223}, "uniqueid": "MTK2872:3E1QT0TDFQGX5O7V8S1PVEQJEK48IA", "dateTime": 1519421217877}, {"current_trial": 224, "trialdata": {"rt": 3183, "trial_type": "text", "internal_node_id": "0.0-170.0", "time_elapsed": 956645, "key_press": 32, "type": "INSTRUCTIONS", "trial_index": 224}, "uniqueid": "MTK2872:3E1QT0TDFQGX5O7V8S1PVEQJEK48IA", "dateTime": 1519421223066}, {"current_trial": 225, "trialdata": {"rt": [5240, 10104], "trial_type": "math-distractor", "key_times": [4229, 5025, 5240, 9356, 9583, 10104], "responses": ["14", "19"], "num2": [4, 5, 2], "num3": [1, 8, 3], "conditions": [12, 1600, "v", 12000], "internal_node_id": "0.0-171.0", "key_presses": [49, 52, 13, 49, 57, 13], "trial": 6, "time_elapsed": 970657, "type": "DISTRACTOR", "trial_index": 225, "num1": [9, 6, 2]}, "uniqueid": "MTK2872:3E1QT0TDFQGX5O7V8S1PVEQJEK48IA", "dateTime": 1519421237078}, {"current_trial": 226, "trialdata": {"rt": -1, "trial_type": "single-stim", "stimulus": "<p id=\"stim\">10</p>", "internal_node_id": "0.0-172.0-0.0", "time_elapsed": 973667, "key_press": -1, "trial_index": 226}, "uniqueid": "MTK2872:3E1QT0TDFQGX5O7V8S1PVEQJEK48IA", "dateTime": 1519421240088}, {"current_trial": 227, "trialdata": {"rt": -1, "trial_type": "single-stim", "stimulus": "<p id=\"stim\">9</p>", "internal_node_id": "0.0-172.0-1.0", "time_elapsed": 974671, "key_press": -1, "trial_index": 227}, "uniqueid": "MTK2872:3E1QT0TDFQGX5O7V8S1PVEQJEK48IA", "dateTime": 1519421241092}, {"current_trial": 228, "trialdata": {"rt": -1, "trial_type": "single-stim", "stimulus": "<p id=\"stim\">8</p>", "internal_node_id": "0.0-172.0-2.0", "time_elapsed": 975674, "key_press": -1, "trial_index": 228}, "uniqueid": "MTK2872:3E1QT0TDFQGX5O7V8S1PVEQJEK48IA", "dateTime": 1519421242096}, {"current_trial": 229, "trialdata": {"rt": -1, "trial_type": "single-stim", "stimulus": "<p id=\"stim\">7</p>", "internal_node_id": "0.0-172.0-3.0", "time_elapsed": 976679, "key_press": -1, "trial_index": 229}, "uniqueid": "MTK2872:3E1QT0TDFQGX5O7V8S1PVEQJEK48IA", "dateTime": 1519421243100}, {"current_trial": 230, "trialdata": {"rt": -1, "trial_type": "single-stim", "stimulus": "<p id=\"stim\">6</p>", "internal_node_id": "0.0-172.0-4.0", "time_elapsed": 977683, "key_press": -1, "trial_index": 230}, "uniqueid": "MTK2872:3E1QT0TDFQGX5O7V8S1PVEQJEK48IA", "dateTime": 1519421244104}, {"current_trial": 231, "trialdata": {"rt": -1, "trial_type": "single-stim", "stimulus": "<p id=\"stim\">5</p>", "internal_node_id": "0.0-172.0-5.0", "time_elapsed": 978687, "key_press": -1, "trial_index": 231}, "uniqueid": "MTK2872:3E1QT0TDFQGX5O7V8S1PVEQJEK48IA", "dateTime": 1519421245108}, {"current_trial": 232, "trialdata": {"rt": -1, "trial_type": "single-stim", "stimulus": "<p id=\"stim\">4</p>", "internal_node_id": "0.0-172.0-6.0", "time_elapsed": 979691, "key_press": -1, "trial_index": 232}, "uniqueid": "MTK2872:3E1QT0TDFQGX5O7V8S1PVEQJEK48IA", "dateTime": 1519421246112}, {"current_trial": 233, "trialdata": {"rt": -1, "trial_type": "single-stim", "stimulus": "<p id=\"stim\">3</p>", "internal_node_id": "0.0-172.0-7.0", "time_elapsed": 980695, "key_press": -1, "trial_index": 233}, "uniqueid": "MTK2872:3E1QT0TDFQGX5O7V8S1PVEQJEK48IA", "dateTime": 1519421247116}, {"current_trial": 234, "trialdata": {"rt": -1, "trial_type": "single-stim", "stimulus": "<p id=\"stim\">2</p>", "internal_node_id": "0.0-172.0-8.0", "time_elapsed": 981700, "key_press": -1, "trial_index": 234}, "uniqueid": "MTK2872:3E1QT0TDFQGX5O7V8S1PVEQJEK48IA", "dateTime": 1519421248121}, {"current_trial": 235, "trialdata": {"rt": -1, "trial_type": "single-stim", "stimulus": "<p id=\"stim\">1</p>", "internal_node_id": "0.0-172.0-9.0", "time_elapsed": 982703, "key_press": -1, "trial_index": 235}, "uniqueid": "MTK2872:3E1QT0TDFQGX5O7V8S1PVEQJEK48IA", "dateTime": 1519421249124}, {"current_trial": 236, "trialdata": {"rt": -1, "trial_type": "single-stim", "stimulus": "<p id=\"stim\">+</p>", "internal_node_id": "0.0-173.0-0.0", "time_elapsed": 984207, "key_press": -1, "type": "FIXATION", "trial_index": 236}, "uniqueid": "MTK2872:3E1QT0TDFQGX5O7V8S1PVEQJEK48IA", "dateTime": 1519421250628}, {"current_trial": 237, "trialdata": {"rt": -1, "trial_type": "single-stim", "word": "pebble", "stimulus": "<p id=\"stim\">PEBBLE</p>", "conditions": [12, 1600, "v", 12000], "internal_node_id": "0.0-174.0", "trial": 6, "time_elapsed": 985808, "serialpos": 0, "key_press": -1, "wordID": 1034, "type": "PRES_VIS", "trial_index": 237}, "uniqueid": "MTK2872:3E1QT0TDFQGX5O7V8S1PVEQJEK48IA", "dateTime": 1519421252229}, {"current_trial": 238, "trialdata": {"rt": -1, "trial_type": "single-stim", "word": "waitress", "stimulus": "<p id=\"stim\">WAITRESS</p>", "conditions": [12, 1600, "v", 12000], "internal_node_id": "0.0-175.0", "trial": 6, "time_elapsed": 988241, "serialpos": 1, "key_press": -1, "wordID": 1580, "type": "PRES_VIS", "trial_index": 238}, "uniqueid": "MTK2872:3E1QT0TDFQGX5O7V8S1PVEQJEK48IA", "dateTime": 1519421254662}, {"current_trial": 239, "trialdata": {"rt": -1, "trial_type": "single-stim", "word": "honey", "stimulus": "<p id=\"stim\">HONEY</p>", "conditions": [12, 1600, "v", 12000], "internal_node_id": "0.0-176.0", "trial": 6, "time_elapsed": 990751, "serialpos": 2, "key_press": -1, "wordID": 712, "type": "PRES_VIS", "trial_index": 239}, "uniqueid": "MTK2872:3E1QT0TDFQGX5O7V8S1PVEQJEK48IA", "dateTime": 1519421257172}, {"current_trial": 240, "trialdata": {"rt": -1, "trial_type": "single-stim", "word": "grape", "stimulus": "<p id=\"stim\">GRAPE</p>", "conditions": [12, 1600, "v", 12000], "internal_node_id": "0.0-177.0", "trial": 6, "time_elapsed": 993174, "serialpos": 3, "key_press": -1, "wordID": 653, "type": "PRES_VIS", "trial_index": 240}, "uniqueid": "MTK2872:3E1QT0TDFQGX5O7V8S1PVEQJEK48IA", "dateTime": 1519421259595}, {"current_trial": 241, "trialdata": {"rt": -1, "trial_type": "single-stim", "word": "beaker", "stimulus": "<p id=\"stim\">BEAKER</p>", "conditions": [12, 1600, "v", 12000], "internal_node_id": "0.0-178.0", "trial": 6, "time_elapsed": 995646, "serialpos": 4, "key_press": -1, "wordID": 103, "type": "PRES_VIS", "trial_index": 241}, "uniqueid": "MTK2872:3E1QT0TDFQGX5O7V8S1PVEQJEK48IA", "dateTime": 1519421262067}, {"current_trial": 242, "trialdata": {"rt": -1, "trial_type": "single-stim", "word": "turkey", "stimulus": "<p id=\"stim\">TURKEY</p>", "conditions": [12, 1600, "v", 12000], "internal_node_id": "0.0-179.0", "trial": 6, "time_elapsed": 998073, "serialpos": 5, "key_press": -1, "wordID": 1519, "type": "PRES_VIS", "trial_index": 242}, "uniqueid": "MTK2872:3E1QT0TDFQGX5O7V8S1PVEQJEK48IA", "dateTime": 1519421264494}, {"current_trial": 243, "trialdata": {"rt": -1, "trial_type": "single-stim", "word": "umpire", "stimulus": "<p id=\"stim\">UMPIRE</p>", "conditions": [12, 1600, "v", 12000], "internal_node_id": "0.0-180.0", "trial": 6, "time_elapsed": 1000488, "serialpos": 6, "key_press": -1, "wordID": 1534, "type": "PRES_VIS", "trial_index": 243}, "uniqueid": "MTK2872:3E1QT0TDFQGX5O7V8S1PVEQJEK48IA", "dateTime": 1519421266909}, {"current_trial": 244, "trialdata": {"rt": -1, "trial_type": "single-stim", "word": "outlaw", "stimulus": "<p id=\"stim\">OUTLAW</p>", "conditions": [12, 1600, "v", 12000], "internal_node_id": "0.0-181.0", "trial": 6, "time_elapsed": 1003265, "serialpos": 7, "key_press": -1, "wordID": 988, "type": "PRES_VIS", "trial_index": 244}, "uniqueid": "MTK2872:3E1QT0TDFQGX5O7V8S1PVEQJEK48IA", "dateTime": 1519421269686}, {"current_trial": 245, "trialdata": {"rt": -1, "trial_type": "single-stim", "word": "bacon", "stimulus": "<p id=\"stim\">BACON</p>", "conditions": [12, 1600, "v", 12000], "internal_node_id": "0.0-182.0", "trial": 6, "time_elapsed": 1005833, "serialpos": 8, "key_press": -1, "wordID": 66, "type": "PRES_VIS", "trial_index": 245}, "uniqueid": "MTK2872:3E1QT0TDFQGX5O7V8S1PVEQJEK48IA", "dateTime": 1519421272255}, {"current_trial": 246, "trialdata": {"rt": -1, "trial_type": "single-stim", "word": "japan", "stimulus": "<p id=\"stim\">JAPAN</p>", "conditions": [12, 1600, "v", 12000], "internal_node_id": "0.0-183.0", "trial": 6, "time_elapsed": 1008604, "serialpos": 9, "key_press": -1, "wordID": 748, "type": "PRES_VIS", "trial_index": 246}, "uniqueid": "MTK2872:3E1QT0TDFQGX5O7V8S1PVEQJEK48IA", "dateTime": 1519421275026}, {"current_trial": 247, "trialdata": {"rt": -1, "trial_type": "single-stim", "word": "jello", "stimulus": "<p id=\"stim\">JELLO</p>", "conditions": [12, 1600, "v", 12000], "internal_node_id": "0.0-184.0", "trial": 6, "time_elapsed": 1011143, "serialpos": 10, "key_press": -1, "wordID": 753, "type": "PRES_VIS", "trial_index": 247}, "uniqueid": "MTK2872:3E1QT0TDFQGX5O7V8S1PVEQJEK48IA", "dateTime": 1519421277565}, {"current_trial": 248, "trialdata": {"rt": -1, "trial_type": "single-stim", "word": "racket", "stimulus": "<p id=\"stim\">RACKET</p>", "conditions": [12, 1600, "v", 12000], "internal_node_id": "0.0-185.0", "trial": 6, "time_elapsed": 1013791, "serialpos": 11, "key_press": -1, "wordID": 1154, "type": "PRES_VIS", "trial_index": 248}, "uniqueid": "MTK2872:3E1QT0TDFQGX5O7V8S1PVEQJEK48IA", "dateTime": 1519421280212}, {"current_trial": 249, "trialdata": {"rt": -1, "trial_type": "single-stim", "stimulus": "", "internal_node_id": "0.0-186.0-0.0", "time_elapsed": 1016095, "key_press": -1, "type": "PRE_RECALL_DELAY", "trial_index": 249}, "uniqueid": "MTK2872:3E1QT0TDFQGX5O7V8S1PVEQJEK48IA", "dateTime": 1519421282516}, {"current_trial": 250, "trialdata": {"rt": -1000, "trial_type": "single-audio", "stimulus": "/static/audio/400Hz.wav", "internal_node_id": "0.0-187.0", "time_elapsed": 1016596, "key_press": -1, "type": "PRE_RECALL_ALERT", "trial_index": 250}, "uniqueid": "MTK2872:3E1QT0TDFQGX5O7V8S1PVEQJEK48IA", "dateTime": 1519421283017}, {"current_trial": 251, "trialdata": {"rt": [2935, 4117], "recwords": ["outlaw", "bacon"], "key_times": [1790, 2031, 2228, 2450, 2557, 2762, 2935, 3343, 3440, 3594, 3695, 3861, 4117], "trial_type": "free-recall", "conditions": [12, 1600, "v", 12000], "internal_node_id": "0.0-188.0-0.0", "key_presses": [79, 85, 84, 76, 65, 87, 13, 66, 65, 67, 79, 78, 13], "trial": 6, "time_elapsed": 1076604, "type": "FREE_RECALL", "trial_index": 251}, "uniqueid": "MTK2872:3E1QT0TDFQGX5O7V8S1PVEQJEK48IA", "dateTime": 1519421343027}, {"current_trial": 252, "trialdata": {"rt": 1344, "trial_type": "text", "internal_node_id": "0.0-189.0", "time_elapsed": 1079954, "key_press": 32, "type": "INSTRUCTIONS", "trial_index": 252}, "uniqueid": "MTK2872:3E1QT0TDFQGX5O7V8S1PVEQJEK48IA", "dateTime": 1519421346375}, {"current_trial": 253, "trialdata": {"rt": [4444, 7319, 10790, 14192, 16718, 19439, 21763], "trial_type": "math-distractor", "key_times": [2312, 2943, 3452, 3796, 4444, 6534, 6755, 7319, 9801, 10219, 10790, 13243, 13597, 14192, 15958, 16374, 16718, 19044, 19199, 19439, 21412, 21561, 21763, 23058, 23221], "responses": ["15", "17", "18", "16", "13", "13", "12"], "num2": [2, 7, 9, 7, 7, 2, 2, 5], "num3": [2, 5, 1, 8, 3, 6, 8, 5], "conditions": [24, 1600, "v", 24000], "internal_node_id": "0.0-190.0", "key_presses": [81, 8, 49, 53, 13, 49, 55, 13, 49, 56, 13, 49, 54, 13, 49, 51, 13, 49, 51, 13, 49, 50, 13, 49, 49], "trial": 7, "time_elapsed": 1105960, "type": "DISTRACTOR", "trial_index": 253, "num1": [9, 5, 8, 1, 3, 5, 2, 1]}, "uniqueid": "MTK2872:3E1QT0TDFQGX5O7V8S1PVEQJEK48IA", "dateTime": 1519421372381}, {"current_trial": 254, "trialdata": {"rt": -1, "trial_type": "single-stim", "stimulus": "<p id=\"stim\">10</p>", "internal_node_id": "0.0-191.0-0.0", "time_elapsed": 1108971, "key_press": -1, "trial_index": 254}, "uniqueid": "MTK2872:3E1QT0TDFQGX5O7V8S1PVEQJEK48IA", "dateTime": 1519421375392}, {"current_trial": 255, "trialdata": {"rt": -1, "trial_type": "single-stim", "stimulus": "<p id=\"stim\">9</p>", "internal_node_id": "0.0-191.0-1.0", "time_elapsed": 1109975, "key_press": -1, "trial_index": 255}, "uniqueid": "MTK2872:3E1QT0TDFQGX5O7V8S1PVEQJEK48IA", "dateTime": 1519421376396}, {"current_trial": 256, "trialdata": {"rt": -1, "trial_type": "single-stim", "stimulus": "<p id=\"stim\">8</p>", "internal_node_id": "0.0-191.0-2.0", "time_elapsed": 1110979, "key_press": -1, "trial_index": 256}, "uniqueid": "MTK2872:3E1QT0TDFQGX5O7V8S1PVEQJEK48IA", "dateTime": 1519421377400}, {"current_trial": 257, "trialdata": {"rt": -1, "trial_type": "single-stim", "stimulus": "<p id=\"stim\">7</p>", "internal_node_id": "0.0-191.0-3.0", "time_elapsed": 1111983, "key_press": -1, "trial_index": 257}, "uniqueid": "MTK2872:3E1QT0TDFQGX5O7V8S1PVEQJEK48IA", "dateTime": 1519421378404}, {"current_trial": 258, "trialdata": {"rt": -1, "trial_type": "single-stim", "stimulus": "<p id=\"stim\">6</p>", "internal_node_id": "0.0-191.0-4.0", "time_elapsed": 1112987, "key_press": -1, "trial_index": 258}, "uniqueid": "MTK2872:3E1QT0TDFQGX5O7V8S1PVEQJEK48IA", "dateTime": 1519421379408}, {"current_trial": 259, "trialdata": {"rt": -1, "trial_type": "single-stim", "stimulus": "<p id=\"stim\">5</p>", "internal_node_id": "0.0-191.0-5.0", "time_elapsed": 1113991, "key_press": -1, "trial_index": 259}, "uniqueid": "MTK2872:3E1QT0TDFQGX5O7V8S1PVEQJEK48IA", "dateTime": 1519421380412}, {"current_trial": 260, "trialdata": {"rt": -1, "trial_type": "single-stim", "stimulus": "<p id=\"stim\">4</p>", "internal_node_id": "0.0-191.0-6.0", "time_elapsed": 1114992, "key_press": -1, "trial_index": 260}, "uniqueid": "MTK2872:3E1QT0TDFQGX5O7V8S1PVEQJEK48IA", "dateTime": 1519421381414}, {"current_trial": 261, "trialdata": {"rt": -1, "trial_type": "single-stim", "stimulus": "<p id=\"stim\">3</p>", "internal_node_id": "0.0-191.0-7.0", "time_elapsed": 1115993, "key_press": -1, "trial_index": 261}, "uniqueid": "MTK2872:3E1QT0TDFQGX5O7V8S1PVEQJEK48IA", "dateTime": 1519421382414}, {"current_trial": 262, "trialdata": {"rt": -1, "trial_type": "single-stim", "stimulus": "<p id=\"stim\">2</p>", "internal_node_id": "0.0-191.0-8.0", "time_elapsed": 1116995, "key_press": -1, "trial_index": 262}, "uniqueid": "MTK2872:3E1QT0TDFQGX5O7V8S1PVEQ