{"assignmentId": "3MTMREQS4WPTP7KFU7PISW5MGVLAWR", "workerId": "MTK2048", "questiondata": {"origin": "India", "strat-rehearsal": "53", "marital": "Married/Domestic Partnership", "education": "Bachelor's degree", "ethnicity": "Not Reported", "color_depth": 24, "distracted": "No", "wrote-notes": "No", "strat-other": "none", "screen_width": 1280, "avail_screen_width": 1280, "avail_screen_height": 680, "strat-image": "60", "language": "English", "gender": "Male", "age": "36", "gender_other": "", "race": ["Asian"], "strat-categorize": "57", "pixel_depth": 24, "strat-spatial": "55", "strat-story": "53", "race_other": "", "screen_height": 720}, "bonus": 0, "hitId": "31KPKEKW4AK3D7QSHCRRRSK4FRQB0T", "counterbalance": 663, "useragent": "Mozilla/5.0 (Windows NT 10.0; Win64; x64) AppleWebKit/537.36 (KHTML, like Gecko) Chrome/63.0.3239.132 Safari/537.36", "eventdata": [{"eventtype": "initialized", "interval": 0, "value": null, "timestamp": 1516661617550}, {"eventtype": "window_resize", "interval": 0, "value": [1283, 672], "timestamp": 1516661617550}, {"eventtype": "window_resize", "interval": 63935, "value": [1280, 630], "timestamp": 1516661681485}, {"eventtype": "focus", "interval": 173575, "value": "off", "timestamp": 1516661855060}, {"eventtype": "focus", "interval": 7860, "value": "on", "timestamp": 1516661862920}, {"eventtype": "focus", "interval": 1312035, "value": "off", "timestamp": 1516663174955}, {"eventtype": "focus", "interval": 4591, "value": "on", "timestamp": 1516663179546}, {"eventtype": "focus", "interval": 363629, "value": "off", "timestamp": 1516663543175}, {"eventtype": "focus", "interval": 6368, "value": "on", "timestamp": 1516663549543}, {"eventtype": "focus", "interval": 130826, "value": "off", "timestamp": 1516663680369}, {"eventtype": "focus", "interval": 29606, "value": "on", "timestamp": 1516663709975}, {"eventtype": "focus", "interval": 1226251, "value": "off", "timestamp": 1516664936226}, {"eventtype": "focus", "interval": 4946974, "value": "on", "timestamp": 1516669883200}, {"eventtype": "focus", "interval": 5334, "value": "off", "timestamp": 1516669888534}, {"eventtype": "focus", "interval": 28127, "value": "on", "timestamp": 1516669916661}], "data": [{"current_trial": 0, "trialdata": {"rt": 2663, "trial_type": "text", "internal_node_id": "0.0-0.0", "time_elapsed": 2665, "key_press": 32, "type": "INSTRUCTIONS", "trial_index": 0}, "uniqueid": "MTK2048:3MTMREQS4WPTP7KFU7PISW5MGVLAWR", "dateTime": 1516661620594}, {"current_trial": 1, "trialdata": {"rt": 10087, "trial_type": "text", "internal_node_id": "0.0-1.0", "time_elapsed": 12754, "key_press": 32, "type": "INSTRUCTIONS", "trial_index": 1}, "uniqueid": "MTK2048:3MTMREQS4WPTP7KFU7PISW5MGVLAWR", "dateTime": 1516661630682}, {"current_trial": 2, "trialdata": {"rt": [11556], "trial_type": "audio-test", "responses": ["ocean"], "internal_node_id": "0.0-2.0", "time_elapsed": 24317, "type": "AUDIO_TEST", "trial_index": 2}, "uniqueid": "MTK2048:3MTMREQS4WPTP7KFU7PISW5MGVLAWR", "dateTime": 1516661642245}, {"current_trial": 3, "trialdata": {"rt": [8874], "trial_type": "audio-test", "responses": ["crystal"], "internal_node_id": "0.0-3.0", "time_elapsed": 33194, "type": "AUDIO_TEST", "trial_index": 3}, "uniqueid": "MTK2048:3MTMREQS4WPTP7KFU7PISW5MGVLAWR", "dateTime": 1516661651122}, {"current_trial": 4, "trialdata": {"rt": [10895], "trial_type": "audio-test", "responses": ["spice"], "internal_node_id": "0.0-4.0", "time_elapsed": 44093, "type": "AUDIO_TEST", "trial_index": 4}, "uniqueid": "MTK2048:3MTMREQS4WPTP7KFU7PISW5MGVLAWR", "dateTime": 1516661662021}, {"current_trial": 5, "trialdata": {"rt": 19789, "trial_type": "survey-text", "responses": "{\"Q0\":\"10 pm\",\"Q1\":\"6 am\",\"Q2\":\"8\"}", "internal_node_id": "0.0-5.0", "time_elapsed": 64634, "type": "SLEEP_SURVEY", "trial_index": 5}, "uniqueid": "MTK2048:3MTMREQS4WPTP7KFU7PISW5MGVLAWR", "dateTime": 1516661682562}, {"current_trial": 6, "trialdata": {"rt": 13883, "trial_type": "text", "internal_node_id": "0.0-6.0", "time_elapsed": 79518, "key_press": 32, "type": "INSTRUCTIONS", "trial_index": 6}, "uniqueid": "MTK2048:3MTMREQS4WPTP7KFU7PISW5MGVLAWR", "dateTime": 1516661697446}, {"current_trial": 7, "trialdata": {"rt": 6413, "trial_type": "text", "internal_node_id": "0.0-7.0", "time_elapsed": 86432, "key_press": 32, "type": "INSTRUCTIONS", "trial_index": 7}, "uniqueid": "MTK2048:3MTMREQS4WPTP7KFU7PISW5MGVLAWR", "dateTime": 1516661704360}, {"current_trial": 8, "trialdata": {"rt": 5994, "trial_type": "text", "internal_node_id": "0.0-8.0", "time_elapsed": 92927, "key_press": 32, "type": "INSTRUCTIONS", "trial_index": 8}, "uniqueid": "MTK2048:3MTMREQS4WPTP7KFU7PISW5MGVLAWR", "dateTime": 1516661710855}, {"current_trial": 9, "trialdata": {"rt": [4631, 7010, 8979, 11588, 15083], "trial_type": "math-distractor", "key_times": [3513, 4119, 4631, 6477, 6796, 7010, 8775, 8979, 10787, 11350, 11588, 14319, 14877, 15083], "responses": ["17", "13", "5", "16", "19"], "num2": [1, 1, 3, 6, 8, 5], "num3": [8, 9, 1, 2, 9, 9], "conditions": [18, 1200, "v", 18000], "internal_node_id": "0.0-9.0", "key_presses": [49, 55, 13, 49, 51, 13, 53, 13, 49, 54, 13, 49, 57, 13], "trial": 0, "time_elapsed": 111930, "type": "DISTRACTOR", "trial_index": 9, "num1": [8, 3, 1, 8, 2, 2]}, "uniqueid": "MTK2048:3MTMREQS4WPTP7KFU7PISW5MGVLAWR", "dateTime": 1516661729858}, {"current_trial": 10, "trialdata": {"rt": -1, "trial_type": "single-stim", "stimulus": "<p id=\"stim\">10</p>", "internal_node_id": "0.0-10.0-0.0", "time_elapsed": 114933, "key_press": -1, "trial_index": 10}, "uniqueid": "MTK2048:3MTMREQS4WPTP7KFU7PISW5MGVLAWR", "dateTime": 1516661732861}, {"current_trial": 11, "trialdata": {"rt": -1, "trial_type": "single-stim", "stimulus": "<p id=\"stim\">9</p>", "internal_node_id": "0.0-10.0-1.0", "time_elapsed": 115934, "key_press": -1, "trial_index": 11}, "uniqueid": "MTK2048:3MTMREQS4WPTP7KFU7PISW5MGVLAWR", "dateTime": 1516661733862}, {"current_trial": 12, "trialdata": {"rt": -1, "trial_type": "single-stim", "stimulus": "<p id=\"stim\">8</p>", "internal_node_id": "0.0-10.0-2.0", "time_elapsed": 116935, "key_press": -1, "trial_index": 12}, "uniqueid": "MTK2048:3MTMREQS4WPTP7KFU7PISW5MGVLAWR", "dateTime": 1516661734863}, {"current_trial": 13, "trialdata": {"rt": -1, "trial_type": "single-stim", "stimulus": "<p id=\"stim\">7</p>", "internal_node_id": "0.0-10.0-3.0", "time_elapsed": 117936, "key_press": -1, "trial_index": 13}, "uniqueid": "MTK2048:3MTMREQS4WPTP7KFU7PISW5MGVLAWR", "dateTime": 1516661735864}, {"current_trial": 14, "trialdata": {"rt": -1, "trial_type": "single-stim", "stimulus": "<p id=\"stim\">6</p>", "internal_node_id": "0.0-10.0-4.0", "time_elapsed": 118937, "key_press": -1, "trial_index": 14}, "uniqueid": "MTK2048:3MTMREQS4WPTP7KFU7PISW5MGVLAWR", "dateTime": 1516661736866}, {"current_trial": 15, "trialdata": {"rt": -1, "trial_type": "single-stim", "stimulus": "<p id=\"stim\">5</p>", "internal_node_id": "0.0-10.0-5.0", "time_elapsed": 119938, "key_press": -1, "trial_index": 15}, "uniqueid": "MTK2048:3MTMREQS4WPTP7KFU7PISW5MGVLAWR", "dateTime": 1516661737867}, {"current_trial": 16, "trialdata": {"rt": -1, "trial_type": "single-stim", "stimulus": "<p id=\"stim\">4</p>", "internal_node_id": "0.0-10.0-6.0", "time_elapsed": 120939, "key_press": -1, "trial_index": 16}, "uniqueid": "MTK2048:3MTMREQS4WPTP7KFU7PISW5MGVLAWR", "dateTime": 1516661738867}, {"current_trial": 17, "trialdata": {"rt": -1, "trial_type": "single-stim", "stimulus": "<p id=\"stim\">3</p>", "internal_node_id": "0.0-10.0-7.0", "time_elapsed": 121940, "key_press": -1, "trial_index": 17}, "uniqueid": "MTK2048:3MTMREQS4WPTP7KFU7PISW5MGVLAWR", "dateTime": 1516661739868}, {"current_trial": 18, "trialdata": {"rt": -1, "trial_type": "single-stim", "stimulus": "<p id=\"stim\">2</p>", "internal_node_id": "0.0-10.0-8.0", "time_elapsed": 122941, "key_press": -1, "trial_index": 18}, "uniqueid": "MTK2048:3MTMREQS4WPTP7KFU7PISW5MGVLAWR", "dateTime": 1516661740870}, {"current_trial": 19, "trialdata": {"rt": -1, "trial_type": "single-stim", "stimulus": "<p id=\"stim\">1</p>", "internal_node_id": "0.0-10.0-9.0", "time_elapsed": 123943, "key_press": -1, "trial_index": 19}, "uniqueid": "MTK2048:3MTMREQS4WPTP7KFU7PISW5MGVLAWR", "dateTime": 1516661741871}, {"current_trial": 20, "trialdata": {"rt": -1, "trial_type": "single-stim", "stimulus": "<p id=\"stim\">+</p>", "internal_node_id": "0.0-11.0-0.0", "time_elapsed": 125444, "key_press": -1, "type": "FIXATION", "trial_index": 20}, "uniqueid": "MTK2048:3MTMREQS4WPTP7KFU7PISW5MGVLAWR", "dateTime": 1516661743372}, {"current_trial": 21, "trialdata": {"rt": -1, "trial_type": "single-stim", "word": "snake", "stimulus": "<p id=\"stim\">SNAKE</p>", "conditions": [18, 1200, "v", 18000], "internal_node_id": "0.0-12.0", "trial": 0, "time_elapsed": 126645, "serialpos": 0, "key_press": -1, "wordID": 1332, "type": "PRES_VIS", "trial_index": 21}, "uniqueid": "MTK2048:3MTMREQS4WPTP7KFU7PISW5MGVLAWR", "dateTime": 1516661744573}, {"current_trial": 22, "trialdata": {"rt": -1, "trial_type": "single-stim", "word": "stream", "stimulus": "<p id=\"stim\">STREAM</p>", "conditions": [18, 1200, "v", 18000], "internal_node_id": "0.0-13.0", "trial": 0, "time_elapsed": 128773, "serialpos": 1, "key_press": -1, "wordID": 1391, "type": "PRES_VIS", "trial_index": 22}, "uniqueid": "MTK2048:3MTMREQS4WPTP7KFU7PISW5MGVLAWR", "dateTime": 1516661746702}, {"current_trial": 23, "trialdata": {"rt": -1, "trial_type": "single-stim", "word": "notebook", "stimulus": "<p id=\"stim\">NOTEBOOK</p>", "conditions": [18, 1200, "v", 18000], "internal_node_id": "0.0-14.0", "trial": 0, "time_elapsed": 131158, "serialpos": 2, "key_press": -1, "wordID": 958, "type": "PRES_VIS", "trial_index": 23}, "uniqueid": "MTK2048:3MTMREQS4WPTP7KFU7PISW5MGVLAWR", "dateTime": 1516661749086}, {"current_trial": 24, "trialdata": {"rt": -1, "trial_type": "single-stim", "word": "zebra", "stimulus": "<p id=\"stim\">ZEBRA</p>", "conditions": [18, 1200, "v", 18000], "internal_node_id": "0.0-15.0", "trial": 0, "time_elapsed": 133339, "serialpos": 3, "key_press": -1, "wordID": 1634, "type": "PRES_VIS", "trial_index": 24}, "uniqueid": "MTK2048:3MTMREQS4WPTP7KFU7PISW5MGVLAWR", "dateTime": 1516661751267}, {"current_trial": 25, "trialdata": {"rt": -1, "trial_type": "single-stim", "word": "grill", "stimulus": "<p id=\"stim\">GRILL</p>", "conditions": [18, 1200, "v", 18000], "internal_node_id": "0.0-16.0", "trial": 0, "time_elapsed": 135571, "serialpos": 4, "key_press": -1, "wordID": 660, "type": "PRES_VIS", "trial_index": 25}, "uniqueid": "MTK2048:3MTMREQS4WPTP7KFU7PISW5MGVLAWR", "dateTime": 1516661753499}, {"current_trial": 26, "trialdata": {"rt": -1, "trial_type": "single-stim", "word": "shirt", "stimulus": "<p id=\"stim\">SHIRT</p>", "conditions": [18, 1200, "v", 18000], "internal_node_id": "0.0-17.0", "trial": 0, "time_elapsed": 137599, "serialpos": 5, "key_press": -1, "wordID": 1286, "type": "PRES_VIS", "trial_index": 26}, "uniqueid": "MTK2048:3MTMREQS4WPTP7KFU7PISW5MGVLAWR", "dateTime": 1516661755527}, {"current_trial": 27, "trialdata": {"rt": -1, "trial_type": "single-stim", "word": "pigeon", "stimulus": "<p id=\"stim\">PIGEON</p>", "conditions": [18, 1200, "v", 18000], "internal_node_id": "0.0-18.0", "trial": 0, "time_elapsed": 139900, "serialpos": 6, "key_press": -1, "wordID": 1064, "type": "PRES_VIS", "trial_index": 27}, "uniqueid": "MTK2048:3MTMREQS4WPTP7KFU7PISW5MGVLAWR", "dateTime": 1516661757828}, {"current_trial": 28, "trialdata": {"rt": -1, "trial_type": "single-stim", "word": "plaza", "stimulus": "<p id=\"stim\">PLAZA</p>", "conditions": [18, 1200, "v", 18000], "internal_node_id": "0.0-19.0", "trial": 0, "time_elapsed": 142214, "serialpos": 7, "key_press": -1, "wordID": 1087, "type": "PRES_VIS", "trial_index": 28}, "uniqueid": "MTK2048:3MTMREQS4WPTP7KFU7PISW5MGVLAWR", "dateTime": 1516661760142}, {"current_trial": 29, "trialdata": {"rt": -1, "trial_type": "single-stim", "word": "robber", "stimulus": "<p id=\"stim\">ROBBER</p>", "conditions": [18, 1200, "v", 18000], "internal_node_id": "0.0-20.0", "trial": 0, "time_elapsed": 144315, "serialpos": 8, "key_press": -1, "wordID": 1196, "type": "PRES_VIS", "trial_index": 29}, "uniqueid": "MTK2048:3MTMREQS4WPTP7KFU7PISW5MGVLAWR", "dateTime": 1516661762243}, {"current_trial": 30, "trialdata": {"rt": -1, "trial_type": "single-stim", "word": "blade", "stimulus": "<p id=\"stim\">BLADE</p>", "conditions": [18, 1200, "v", 18000], "internal_node_id": "0.0-21.0", "trial": 0, "time_elapsed": 146400, "serialpos": 9, "key_press": -1, "wordID": 133, "type": "PRES_VIS", "trial_index": 30}, "uniqueid": "MTK2048:3MTMREQS4WPTP7KFU7PISW5MGVLAWR", "dateTime": 1516661764328}, {"current_trial": 31, "trialdata": {"rt": -1, "trial_type": "single-stim", "word": "dime", "stimulus": "<p id=\"stim\">DIME</p>", "conditions": [18, 1200, "v", 18000], "internal_node_id": "0.0-22.0", "trial": 0, "time_elapsed": 148422, "serialpos": 10, "key_press": -1, "wordID": 465, "type": "PRES_VIS", "trial_index": 31}, "uniqueid": "MTK2048:3MTMREQS4WPTP7KFU7PISW5MGVLAWR", "dateTime": 1516661766350}, {"current_trial": 32, "trialdata": {"rt": -1, "trial_type": "single-stim", "word": "quarter", "stimulus": "<p id=\"stim\">QUARTER</p>", "conditions": [18, 1200, "v", 18000], "internal_node_id": "0.0-23.0", "trial": 0, "time_elapsed": 150712, "serialpos": 11, "key_press": -1, "wordID": 1147, "type": "PRES_VIS", "trial_index": 32}, "uniqueid": "MTK2048:3MTMREQS4WPTP7KFU7PISW5MGVLAWR", "dateTime": 1516661768640}, {"current_trial": 33, "trialdata": {"rt": -1, "trial_type": "single-stim", "word": "arm", "stimulus": "<p id=\"stim\">ARM</p>", "conditions": [18, 1200, "v", 18000], "internal_node_id": "0.0-24.0", "trial": 0, "time_elapsed": 152743, "serialpos": 12, "key_press": -1, "wordID": 37, "type": "PRES_VIS", "trial_index": 33}, "uniqueid": "MTK2048:3MTMREQS4WPTP7KFU7PISW5MGVLAWR", "dateTime": 1516661770671}, {"current_trial": 34, "trialdata": {"rt": -1, "trial_type": "single-stim", "word": "ozone", "stimulus": "<p id=\"stim\">OZONE</p>", "conditions": [18, 1200, "v", 18000], "internal_node_id": "0.0-25.0", "trial": 0, "time_elapsed": 154865, "serialpos": 13, "key_press": -1, "wordID": 995, "type": "PRES_VIS", "trial_index": 34}, "uniqueid": "MTK2048:3MTMREQS4WPTP7KFU7PISW5MGVLAWR", "dateTime": 1516661772793}, {"current_trial": 35, "trialdata": {"rt": -1, "trial_type": "single-stim", "word": "bank", "stimulus": "<p id=\"stim\">BANK</p>", "conditions": [18, 1200, "v", 18000], "internal_node_id": "0.0-26.0", "trial": 0, "time_elapsed": 157118, "serialpos": 14, "key_press": -1, "wordID": 82, "type": "PRES_VIS", "trial_index": 35}, "uniqueid": "MTK2048:3MTMREQS4WPTP7KFU7PISW5MGVLAWR", "dateTime": 1516661775046}, {"current_trial": 36, "trialdata": {"rt": -1, "trial_type": "single-stim", "word": "oyster", "stimulus": "<p id=\"stim\">OYSTER</p>", "conditions": [18, 1200, "v", 18000], "internal_node_id": "0.0-27.0", "trial": 0, "time_elapsed": 159355, "serialpos": 15, "key_press": -1, "wordID": 994, "type": "PRES_VIS", "trial_index": 36}, "uniqueid": "MTK2048:3MTMREQS4WPTP7KFU7PISW5MGVLAWR", "dateTime": 1516661777283}, {"current_trial": 37, "trialdata": {"rt": -1, "trial_type": "single-stim", "word": "milk", "stimulus": "<p id=\"stim\">MILK</p>", "conditions": [18, 1200, "v", 18000], "internal_node_id": "0.0-28.0", "trial": 0, "time_elapsed": 161414, "serialpos": 16, "key_press": -1, "wordID": 894, "type": "PRES_VIS", "trial_index": 37}, "uniqueid": "MTK2048:3MTMREQS4WPTP7KFU7PISW5MGVLAWR", "dateTime": 1516661779343}, {"current_trial": 38, "trialdata": {"rt": -1, "trial_type": "single-stim", "word": "picnic", "stimulus": "<p id=\"stim\">PICNIC</p>", "conditions": [18, 1200, "v", 18000], "internal_node_id": "0.0-29.0", "trial": 0, "time_elapsed": 163657, "serialpos": 17, "key_press": -1, "wordID": 1059, "type": "PRES_VIS", "trial_index": 38}, "uniqueid": "MTK2048:3MTMREQS4WPTP7KFU7PISW5MGVLAWR", "dateTime": 1516661781585}, {"current_trial": 39, "trialdata": {"rt": -1, "trial_type": "single-stim", "stimulus": "", "internal_node_id": "0.0-30.0-0.0", "time_elapsed": 165983, "key_press": -1, "type": "PRE_RECALL_DELAY", "trial_index": 39}, "uniqueid": "MTK2048:3MTMREQS4WPTP7KFU7PISW5MGVLAWR", "dateTime": 1516661783911}, {"current_trial": 40, "trialdata": {"rt": -1000, "trial_type": "single-audio", "stimulus": "/static/audio/400Hz.wav", "internal_node_id": "0.0-31.0", "time_elapsed": 166485, "key_press": -1, "type": "PRE_RECALL_ALERT", "trial_index": 40}, "uniqueid": "MTK2048:3MTMREQS4WPTP7KFU7PISW5MGVLAWR", "dateTime": 1516661784413}, {"current_trial": 41, "trialdata": {"rt": [4179, 7964, 11704, 28320, 31085, 41008, 47955, 48617, 49012, 49610, 49844, 50049, 50286, 50536, 50756, 50965, 51174, 51389, 51608, 51993, 52221, 52413, 55799, 58837], "recwords": ["milk", "picnic", "oyster", "sgfr", "soft", "sing", "bank", "", "", "", "", "", "", "", "", "", "", "", "", "", "", "", "none", "fish"], "key_times": [3004, 3248, 3547, 3748, 4179, 5460, 5803, 6358, 6884, 7103, 7514, 7964, 9128, 10275, 10489, 10749, 10997, 11180, 11704, 26001, 27245, 27489, 27739, 28320, 29703, 29975, 30467, 30639, 31085, 35773, 36072, 36695, 37115, 37994, 38237, 38429, 38615, 38785, 39697, 40021, 40317, 40650, 41008, 46671, 46860, 47104, 47487, 47955, 48617, 49012, 49610, 49844, 50049, 50286, 50536, 50756, 50965, 51174, 51389, 51608, 51993, 52221, 52413, 54510, 54742, 55020, 55505, 55799, 57377, 57816, 58195, 58454, 58837, 59650], "trial_type": "free-recall", "conditions": [18, 1200, "v", 18000], "internal_node_id": "0.0-32.0-0.0", "key_presses": [77, 73, 76, 75, 13, 80, 73, 67, 78, 73, 67, 13, 79, 89, 83, 84, 69, 82, 13, 83, 71, 70, 82, 13, 83, 79, 70, 84, 13, 87, 78, 71, 70, 8, 8, 8, 8, 8, 83, 73, 78, 71, 13, 66, 65, 78, 75, 13, 13, 13, 13, 13, 13, 13, 13, 13, 13, 13, 13, 13, 13, 13, 13, 78, 79, 78, 69, 13, 70, 73, 83, 72, 13, 68], "trial": 0, "time_elapsed": 226488, "type": "FREE_RECALL", "trial_index": 41}, "uniqueid": "MTK2048:3MTMREQS4WPTP7KFU7PISW5MGVLAWR", "dateTime": 1516661844418}, {"current_trial": 42, "trialdata": {"rt": 23040, "trial_type": "text", "internal_node_id": "0.0-33.0", "time_elapsed": 251531, "key_press": 32, "type": "INSTRUCTIONS", "trial_index": 42}, "uniqueid": "MTK2048:3MTMREQS4WPTP7KFU7PISW5MGVLAWR", "dateTime": 1516661869459}, {"current_trial": 43, "trialdata": {"rt": [2677, 6563, 9239, 11890, 14554, 17445], "trial_type": "math-distractor", "key_times": [1662, 2108, 2677, 5902, 6398, 6563, 8637, 9094, 9239, 11498, 11678, 11890, 14168, 14387, 14554, 16886, 17187, 17445], "responses": ["10", "20", "10", "12", "12", "14"], "num2": [2, 8, 2, 3, 5, 7, 2], "num3": [7, 5, 3, 3, 3, 6, 6], "conditions": [18, 1200, "v", 18000], "internal_node_id": "0.0-34.0", "key_presses": [49, 48, 13, 50, 48, 13, 49, 48, 13, 49, 50, 13, 49, 50, 13, 49, 52, 13], "trial": 1, "time_elapsed": 271534, "type": "DISTRACTOR", "trial_index": 43, "num1": [1, 7, 5, 6, 4, 1, 2]}, "uniqueid": "MTK2048:3MTMREQS4WPTP7KFU7PISW5MGVLAWR", "dateTime": 1516661889462}, {"current_trial": 44, "trialdata": {"rt": -1, "trial_type": "single-stim", "stimulus": "<p id=\"stim\">10</p>", "internal_node_id": "0.0-35.0-0.0", "time_elapsed": 274537, "key_press": -1, "trial_index": 44}, "uniqueid": "MTK2048:3MTMREQS4WPTP7KFU7PISW5MGVLAWR", "dateTime": 1516661892465}, {"current_trial": 45, "trialdata": {"rt": -1, "trial_type": "single-stim", "stimulus": "<p id=\"stim\">9</p>", "internal_node_id": "0.0-35.0-1.0", "time_elapsed": 275539, "key_press": -1, "trial_index": 45}, "uniqueid": "MTK2048:3MTMREQS4WPTP7KFU7PISW5MGVLAWR", "dateTime": 1516661893467}, {"current_trial": 46, "trialdata": {"rt": -1, "trial_type": "single-stim", "stimulus": "<p id=\"stim\">8</p>", "internal_node_id": "0.0-35.0-2.0", "time_elapsed": 276541, "key_press": -1, "trial_index": 46}, "uniqueid": "MTK2048:3MTMREQS4WPTP7KFU7PISW5MGVLAWR", "dateTime": 1516661894469}, {"current_trial": 47, "trialdata": {"rt": -1, "trial_type": "single-stim", "stimulus": "<p id=\"stim\">7</p>", "internal_node_id": "0.0-35.0-3.0", "time_elapsed": 277542, "key_press": -1, "trial_index": 47}, "uniqueid": "MTK2048:3MTMREQS4WPTP7KFU7PISW5MGVLAWR", "dateTime": 1516661895471}, {"current_trial": 48, "trialdata": {"rt": -1, "trial_type": "single-stim", "stimulus": "<p id=\"stim\">6</p>", "internal_node_id": "0.0-35.0-4.0", "time_elapsed": 278543, "key_press": -1, "trial_index": 48}, "uniqueid": "MTK2048:3MTMREQS4WPTP7KFU7PISW5MGVLAWR", "dateTime": 1516661896472}, {"current_trial": 49, "trialdata": {"rt": -1, "trial_type": "single-stim", "stimulus": "<p id=\"stim\">5</p>", "internal_node_id": "0.0-35.0-5.0", "time_elapsed": 279545, "key_press": -1, "trial_index": 49}, "uniqueid": "MTK2048:3MTMREQS4WPTP7KFU7PISW5MGVLAWR", "dateTime": 1516661897473}, {"current_trial": 50, "trialdata": {"rt": -1, "trial_type": "single-stim", "stimulus": "<p id=\"stim\">4</p>", "internal_node_id": "0.0-35.0-6.0", "time_elapsed": 280545, "key_press": -1, "trial_index": 50}, "uniqueid": "MTK2048:3MTMREQS4WPTP7KFU7PISW5MGVLAWR", "dateTime": 1516661898473}, {"current_trial": 51, "trialdata": {"rt": -1, "trial_type": "single-stim", "stimulus": "<p id=\"stim\">3</p>", "internal_node_id": "0.0-35.0-7.0", "time_elapsed": 281547, "key_press": -1, "trial_index": 51}, "uniqueid": "MTK2048:3MTMREQS4WPTP7KFU7PISW5MGVLAWR", "dateTime": 1516661899475}, {"current_trial": 52, "trialdata": {"rt": -1, "trial_type": "single-stim", "stimulus": "<p id=\"stim\">2</p>", "internal_node_id": "0.0-35.0-8.0", "time_elapsed": 282548, "key_press": -1, "trial_index": 52}, "uniqueid": "MTK2048:3MTMREQS4WPTP7KFU7PISW5MGVLAWR", "dateTime": 1516661900476}, {"current_trial": 53, "trialdata": {"rt": -1, "trial_type": "single-stim", "stimulus": "<p id=\"stim\">1</p>", "internal_node_id": "0.0-35.0-9.0", "time_elapsed": 283549, "key_press": -1, "trial_index": 53}, "uniqueid": "MTK2048:3MTMREQS4WPTP7KFU7PISW5MGVLAWR", "dateTime": 1516661901477}, {"current_trial": 54, "trialdata": {"rt": -1, "trial_type": "single-stim", "stimulus": "<p id=\"stim\">+</p>", "internal_node_id": "0.0-36.0-0.0", "time_elapsed": 285050, "key_press": -1, "type": "FIXATION", "trial_index": 54}, "uniqueid": "MTK2048:3MTMREQS4WPTP7KFU7PISW5MGVLAWR", "dateTime": 1516661902978}, {"current_trial": 55, "trialdata": {"rt": -1, "trial_type": "single-stim", "word": "flesh", "stimulus": "<p id=\"stim\">FLESH</p>", "conditions": [18, 1200, "v", 18000], "internal_node_id": "0.0-37.0", "trial": 1, "time_elapsed": 286252, "serialpos": 0, "key_press": -1, "wordID": 578, "type": "PRES_VIS", "trial_index": 55}, "uniqueid": "MTK2048:3MTMREQS4WPTP7KFU7PISW5MGVLAWR", "dateTime": 1516661904180}, {"current_trial": 56, "trialdata": {"rt": -1, "trial_type": "single-stim", "word": "portrait", "stimulus": "<p id=\"stim\">PORTRAIT</p>", "conditions": [18, 1200, "v", 18000], "internal_node_id": "0.0-38.0", "trial": 1, "time_elapsed": 288303, "serialpos": 1, "key_press": -1, "wordID": 1110, "type": "PRES_VIS", "trial_index": 56}, "uniqueid": "MTK2048:3MTMREQS4WPTP7KFU7PISW5MGVLAWR", "dateTime": 1516661906231}, {"current_trial": 57, "trialdata": {"rt": -1, "trial_type": "single-stim", "word": "lily", "stimulus": "<p id=\"stim\">LILY</p>", "conditions": [18, 1200, "v", 18000], "internal_node_id": "0.0-39.0", "trial": 1, "time_elapsed": 290336, "serialpos": 2, "key_press": -1, "wordID": 820, "type": "PRES_VIS", "trial_index": 57}, "uniqueid": "MTK2048:3MTMREQS4WPTP7KFU7PISW5MGVLAWR", "dateTime": 1516661908264}, {"current_trial": 58, "trialdata": {"rt": -1, "trial_type": "single-stim", "word": "washer", "stimulus": "<p id=\"stim\">WASHER</p>", "conditions": [18, 1200, "v", 18000], "internal_node_id": "0.0-40.0", "trial": 1, "time_elapsed": 292613, "serialpos": 3, "key_press": -1, "wordID": 1591, "type": "PRES_VIS", "trial_index": 58}, "uniqueid": "MTK2048:3MTMREQS4WPTP7KFU7PISW5MGVLAWR", "dateTime": 1516661910541}, {"current_trial": 59, "trialdata": {"rt": -1, "trial_type": "single-stim", "word": "film", "stimulus": "<p id=\"stim\">FILM</p>", "conditions": [18, 1200, "v", 18000], "internal_node_id": "0.0-41.0", "trial": 1, "time_elapsed": 294661, "serialpos": 4, "key_press": -1, "wordID": 564, "type": "PRES_VIS", "trial_index": 59}, "uniqueid": "MTK2048:3MTMREQS4WPTP7KFU7PISW5MGVLAWR", "dateTime": 1516661912589}, {"current_trial": 60, "trialdata": {"rt": -1, "trial_type": "single-stim", "word": "outlaw", "stimulus": "<p id=\"stim\">OUTLAW</p>", "conditions": [18, 1200, "v", 18000], "internal_node_id": "0.0-42.0", "trial": 1, "time_elapsed": 296717, "serialpos": 5, "key_press": -1, "wordID": 988, "type": "PRES_VIS", "trial_index": 60}, "uniqueid": "MTK2048:3MTMREQS4WPTP7KFU7PISW5MGVLAWR", "dateTime": 1516661914645}, {"current_trial": 61, "trialdata": {"rt": -1, "trial_type": "single-stim", "word": "ground", "stimulus": "<p id=\"stim\">GROUND</p>", "conditions": [18, 1200, "v", 18000], "internal_node_id": "0.0-43.0", "trial": 1, "time_elapsed": 298750, "serialpos": 6, "key_press": -1, "wordID": 665, "type": "PRES_VIS", "trial_index": 61}, "uniqueid": "MTK2048:3MTMREQS4WPTP7KFU7PISW5MGVLAWR", "dateTime": 1516661916678}, {"current_trial": 62, "trialdata": {"rt": -1, "trial_type": "single-stim", "word": "drink", "stimulus": "<p id=\"stim\">DRINK</p>", "conditions": [18, 1200, "v", 18000], "internal_node_id": "0.0-44.0", "trial": 1, "time_elapsed": 300911, "serialpos": 7, "key_press": -1, "wordID": 497, "type": "PRES_VIS", "trial_index": 62}, "uniqueid": "MTK2048:3MTMREQS4WPTP7KFU7PISW5MGVLAWR", "dateTime": 1516661918839}, {"current_trial": 63, "trialdata": {"rt": -1, "trial_type": "single-stim", "word": "honey", "stimulus": "<p id=\"stim\">HONEY</p>", "conditions": [18, 1200, "v", 18000], "internal_node_id": "0.0-45.0", "trial": 1, "time_elapsed": 303057, "serialpos": 8, "key_press": -1, "wordID": 712, "type": "PRES_VIS", "trial_index": 63}, "uniqueid": "MTK2048:3MTMREQS4WPTP7KFU7PISW5MGVLAWR", "dateTime": 1516661920985}, {"current_trial": 64, "trialdata": {"rt": -1, "trial_type": "single-stim", "word": "kidney", "stimulus": "<p id=\"stim\">KIDNEY</p>", "conditions": [18, 1200, "v", 18000], "internal_node_id": "0.0-46.0", "trial": 1, "time_elapsed": 305162, "serialpos": 9, "key_press": -1, "wordID": 775, "type": "PRES_VIS", "trial_index": 64}, "uniqueid": "MTK2048:3MTMREQS4WPTP7KFU7PISW5MGVLAWR", "dateTime": 1516661923091}, {"current_trial": 65, "trialdata": {"rt": -1, "trial_type": "single-stim", "word": "swimmer", "stimulus": "<p id=\"stim\">SWIMMER</p>", "conditions": [18, 1200, "v", 18000], "internal_node_id": "0.0-47.0", "trial": 1, "time_elapsed": 307405, "serialpos": 10, "key_press": -1, "wordID": 1419, "type": "PRES_VIS", "trial_index": 65}, "uniqueid": "MTK2048:3MTMREQS4WPTP7KFU7PISW5MGVLAWR", "dateTime": 1516661925333}, {"current_trial": 66, "trialdata": {"rt": -1, "trial_type": "single-stim", "word": "champagne", "stimulus": "<p id=\"stim\">CHAMPAGNE</p>", "conditions": [18, 1200, "v", 18000], "internal_node_id": "0.0-48.0", "trial": 1, "time_elapsed": 309533, "serialpos": 11, "key_press": -1, "wordID": 277, "type": "PRES_VIS", "trial_index": 66}, "uniqueid": "MTK2048:3MTMREQS4WPTP7KFU7PISW5MGVLAWR", "dateTime": 1516661927461}, {"current_trial": 67, "trialdata": {"rt": -1, "trial_type": "single-stim", "word": "sketch", "stimulus": "<p id=\"stim\">SKETCH</p>", "conditions": [18, 1200, "v", 18000], "internal_node_id": "0.0-49.0", "trial": 1, "time_elapsed": 311789, "serialpos": 12, "key_press": -1, "wordID": 1314, "type": "PRES_VIS", "trial_index": 67}, "uniqueid": "MTK2048:3MTMREQS4WPTP7KFU7PISW5MGVLAWR", "dateTime": 1516661929717}, {"current_trial": 68, "trialdata": {"rt": -1, "trial_type": "single-stim", "word": "crutch", "stimulus": "<p id=\"stim\">CRUTCH</p>", "conditions": [18, 1200, "v", 18000], "internal_node_id": "0.0-50.0", "trial": 1, "time_elapsed": 314060, "serialpos": 13, "key_press": -1, "wordID": 416, "type": "PRES_VIS", "trial_index": 68}, "uniqueid": "MTK2048:3MTMREQS4WPTP7KFU7PISW5MGVLAWR", "dateTime": 1516661931989}, {"current_trial": 69, "trialdata": {"rt": -1, "trial_type": "single-stim", "word": "beast", "stimulus": "<p id=\"stim\">BEAST</p>", "conditions": [18, 1200, "v", 18000], "internal_node_id": "0.0-51.0", "trial": 1, "time_elapsed": 316435, "serialpos": 14, "key_press": -1, "wordID": 107, "type": "PRES_VIS", "trial_index": 69}, "uniqueid": "MTK2048:3MTMREQS4WPTP7KFU7PISW5MGVLAWR", "dateTime": 1516661934363}, {"current_trial": 70, "trialdata": {"rt": -1, "trial_type": "single-stim", "word": "market", "stimulus": "<p id=\"stim\">MARKET</p>", "conditions": [18, 1200, "v", 18000], "internal_node_id": "0.0-52.0", "trial": 1, "time_elapsed": 318784, "serialpos": 15, "key_press": -1, "wordID": 870, "type": "PRES_VIS", "trial_index": 70}, "uniqueid": "MTK2048:3MTMREQS4WPTP7KFU7PISW5MGVLAWR", "dateTime": 1516661936712}, {"current_trial": 71, "trialdata": {"rt": -1, "trial_type": "single-stim", "word": "hostess", "stimulus": "<p id=\"stim\">HOSTESS</p>", "conditions": [18, 1200, "v", 18000], "internal_node_id": "0.0-53.0", "trial": 1, "time_elapsed": 321180, "serialpos": 16, "key_press": -1, "wordID": 722, "type": "PRES_VIS", "trial_index": 71}, "uniqueid": "MTK2048:3MTMREQS4WPTP7KFU7PISW5MGVLAWR", "dateTime": 1516661939108}, {"current_trial": 72, "trialdata": {"rt": -1, "trial_type": "single-stim", "word": "garbage", "stimulus": "<p id=\"stim\">GARBAGE</p>", "conditions": [18, 1200, "v", 18000], "internal_node_id": "0.0-54.0", "trial": 1, "time_elapsed": 323368, "serialpos": 17, "key_press": -1, "wordID": 621, "type": "PRES_VIS", "trial_index": 72}, "uniqueid": "MTK2048:3MTMREQS4WPTP7KFU7PISW5MGVLAWR", "dateTime": 1516661941297}, {"current_trial": 73, "trialdata": {"rt": -1, "trial_type": "single-stim", "stimulus": "", "internal_node_id": "0.0-55.0-0.0", "time_elapsed": 325417, "key_press": -1, "type": "PRE_RECALL_DELAY", "trial_index": 73}, "uniqueid": "MTK2048:3MTMREQS4WPTP7KFU7PISW5MGVLAWR", "dateTime": 1516661943345}, {"current_trial": 74, "trialdata": {"rt": -1000, "trial_type": "single-audio", "stimulus": "/static/audio/400Hz.wav", "internal_node_id": "0.0-56.0", "time_elapsed": 325922, "key_press": -1, "type": "PRE_RECALL_ALERT", "trial_index": 74}, "uniqueid": "MTK2048:3MTMREQS4WPTP7KFU7PISW5MGVLAWR", "dateTime": 1516661943850}, {"current_trial": 75, "trialdata": {"rt": [16798, 20253, 24296, 28799, 34346, 38246, 41860, 45358, 55326], "recwords": ["washer", "film'", "ground", "honey", "swimmer", "sketch", "beast", "market", "gargage"], "key_times": [14971, 15137, 15404, 15862, 16049, 16307, 16798, 18286, 18606, 18804, 19338, 19642, 20253, 22425, 22660, 22955, 23168, 23417, 23852, 24296, 27210, 27422, 27649, 28027, 28416, 28799, 31301, 31545, 32042, 32282, 32460, 32661, 33427, 33557, 33894, 34346, 35738, 36100, 36480, 37070, 37398, 37662, 38246, 39750, 40078, 40290, 40530, 40801, 41860, 42663, 42863, 43138, 43636, 43847, 44101, 44829, 45083, 45358, 50460, 50644, 50967, 51890, 52053, 53014, 53335, 55326], "trial_type": "free-recall", "conditions": [18, 1200, "v", 18000], "internal_node_id": "0.0-57.0-0.0", "key_presses": [87, 65, 83, 72, 69, 82, 13, 70, 73, 76, 77, 222, 13, 71, 82, 79, 85, 78, 68, 13, 72, 79, 78, 69, 89, 13, 83, 87, 73, 77, 77, 87, 8, 69, 82, 13, 83, 75, 69, 84, 67, 72, 13, 66, 69, 65, 83, 84, 13, 77, 65, 82, 75, 69, 89, 8, 84, 13, 71, 65, 82, 71, 65, 71, 69, 13], "trial": 1, "time_elapsed": 385923, "type": "FREE_RECALL", "trial_index": 75}, "uniqueid": "MTK2048:3MTMREQS4WPTP7KFU7PISW5MGVLAWR", "dateTime": 1516662003852}, {"current_trial": 76, "trialdata": {"rt": 262, "trial_type": "text", "internal_node_id": "0.0-58.0", "time_elapsed": 388187, "key_press": 85, "type": "INSTRUCTIONS", "trial_index": 76}, "uniqueid": "MTK2048:3MTMREQS4WPTP7KFU7PISW5MGVLAWR", "dateTime": 1516662006116}, {"current_trial": 77, "trialdata": {"rt": [4481, 9153], "trial_type": "math-distractor", "key_times": [2894, 3318, 4481, 8472, 8874, 9153], "responses": ["20", "24"], "num2": [9, 8, 8], "num3": [4, 9, 7], "conditions": [12, 1600, "v", 12000], "internal_node_id": "0.0-59.0", "key_presses": [50, 48, 13, 50, 52, 13], "trial": 2, "time_elapsed": 401190, "type": "DISTRACTOR", "trial_index": 77, "num1": [7, 7, 4]}, "uniqueid": "MTK2048:3MTMREQS4WPTP7KFU7PISW5MGVLAWR", "dateTime": 1516662019118}, {"current_trial": 78, "trialdata": {"rt": -1, "trial_type": "single-stim", "stimulus": "<p id=\"stim\">10</p>", "internal_node_id": "0.0-60.0-0.0", "time_elapsed": 404192, "key_press": -1, "trial_index": 78}, "uniqueid": "MTK2048:3MTMREQS4WPTP7KFU7PISW5MGVLAWR", "dateTime": 1516662022120}, {"current_trial": 79, "trialdata": {"rt": -1, "trial_type": "single-stim", "stimulus": "<p id=\"stim\">9</p>", "internal_node_id": "0.0-60.0-1.0", "time_elapsed": 405193, "key_press": -1, "trial_index": 79}, "uniqueid": "MTK2048:3MTMREQS4WPTP7KFU7PISW5MGVLAWR", "dateTime": 1516662023121}, {"current_trial": 80, "trialdata": {"rt": -1, "trial_type": "single-stim", "stimulus": "<p id=\"stim\">8</p>", "internal_node_id": "0.0-60.0-2.0", "time_elapsed": 406194, "key_press": -1, "trial_index": 80}, "uniqueid": "MTK2048:3MTMREQS4WPTP7KFU7PISW5MGVLAWR", "dateTime": 1516662024122}, {"current_trial": 81, "trialdata": {"rt": -1, "trial_type": "single-stim", "stimulus": "<p id=\"stim\">7</p>", "internal_node_id": "0.0-60.0-3.0", "time_elapsed": 407196, "key_press": -1, "trial_index": 81}, "uniqueid": "MTK2048:3MTMREQS4WPTP7KFU7PISW5MGVLAWR", "dateTime": 1516662025124}, {"current_trial": 82, "trialdata": {"rt": -1, "trial_type": "single-stim", "stimulus": "<p id=\"stim\">6</p>", "internal_node_id": "0.0-60.0-4.0", "time_elapsed": 408196, "key_press": -1, "trial_index": 82}, "uniqueid": "MTK2048:3MTMREQS4WPTP7KFU7PISW5MGVLAWR", "dateTime": 1516662026125}, {"current_trial": 83, "trialdata": {"rt": -1, "trial_type": "single-stim", "stimulus": "<p id=\"stim\">5</p>", "internal_node_id": "0.0-60.0-5.0", "time_elapsed": 409198, "key_press": -1, "trial_index": 83}, "uniqueid": "MTK2048:3MTMREQS4WPTP7KFU7PISW5MGVLAWR", "dateTime": 1516662027126}, {"current_trial": 84, "trialdata": {"rt": -1, "trial_type": "single-stim", "stimulus": "<p id=\"stim\">4</p>", "internal_node_id": "0.0-60.0-6.0", "time_elapsed": 410199, "key_press": -1, "trial_index": 84}, "uniqueid": "MTK2048:3MTMREQS4WPTP7KFU7PISW5MGVLAWR", "dateTime": 1516662028127}, {"current_trial": 85, "trialdata": {"rt": -1, "trial_type": "single-stim", "stimulus": "<p id=\"stim\">3</p>", "internal_node_id": "0.0-60.0-7.0", "time_elapsed": 411200, "key_press": -1, "trial_index": 85}, "uniqueid": "MTK2048:3MTMREQS4WPTP7KFU7PISW5MGVLAWR", "dateTime": 1516662029128}, {"current_trial": 86, "trialdata": {"rt": -1, "trial_type": "single-stim", "stimulus": "<p id=\"stim\">2</p>", "internal_node_id": "0.0-60.0-8.0", "time_elapsed": 412201, "key_press": -1, "trial_index": 86}, "uniqueid": "MTK2048:3MTMREQS4WPTP7KFU7PISW5MGVLAWR", "dateTime": 1516662030129}, {"current_trial": 87, "trialdata": {"rt": -1, "trial_type": "single-stim", "stimulus": "<p id=\"stim\">1</p>", "internal_node_id": "0.0-60.0-9.0", "time_elapsed": 413202, "key_press": -1, "trial_index": 87}, "uniqueid": "MTK2048:3MTMREQS4WPTP7KFU7PISW5MGVLAWR", "dateTime": 1516662031130}, {"current_trial": 88, "trialdata": {"rt": -1, "trial_type": "single-stim", "stimulus": "<p id=\"stim\">+</p>", "internal_node_id": "0.0-61.0-0.0", "time_elapsed": 414703, "key_press": -1, "type": "FIXATION", "trial_index": 88}, "uniqueid": "MTK2048:3MTMREQS4WPTP7KFU7PISW5MGVLAWR", "dateTime": 1516662032631}, {"current_trial": 89, "trialdata": {"rt": -1, "trial_type": "single-stim", "word": "worker", "stimulus": "<p id=\"stim\">WORKER</p>", "conditions": [12, 1600, "v", 12000], "internal_node_id": "0.0-62.0", "trial": 2, "time_elapsed": 416304, "serialpos": 0, "key_press": -1, "wordID": 1620, "type": "PRES_VIS", "trial_index": 89}, "uniqueid": "MTK2048:3MTMREQS4WPTP7KFU7PISW5MGVLAWR", "dateTime": 1516662034232}, {"current_trial": 90, "trialdata": {"rt": -1, "trial_type": "single-stim", "word": "captive", "stimulus": "<p id=\"stim\">CAPTIVE</p>", "conditions": [12, 1600, "v", 12000], "internal_node_id": "0.0-63.0", "trial": 2, "time_elapsed": 419059, "serialpos": 1, "key_press": -1, "wordID": 239, "type": "PRES_VIS", "trial_index": 90}, "uniqueid": "MTK2048:3MTMREQS4WPTP7KFU7PISW5MGVLAWR", "dateTime": 1516662036987}, {"current_trial": 91, "trialdata": {"rt": -1, "trial_type": "single-stim", "word": "puppy", "stimulus": "<p id=\"stim\">PUPPY</p>", "conditions": [12, 1600, "v", 12000], "internal_node_id": "0.0-64.0", "trial": 2, "time_elapsed": 421745, "serialpos": 2, "key_press": -1, "wordID": 1143, "type": "PRES_VIS", "trial_index": 91}, "uniqueid": "MTK2048:3MTMREQS4WPTP7KFU7PISW5MGVLAWR", "dateTime": 1516662039673}, {"current_trial": 92, "trialdata": {"rt": -1, "trial_type": "single-stim", "word": "raft", "stimulus": "<p id=\"stim\">RAFT</p>", "conditions": [12, 1600, "v", 12000], "internal_node_id": "0.0-65.0", "trial": 2, "time_elapsed": 424491, "serialpos": 3, "key_press": -1, "wordID": 1158, "type": "PRES_VIS", "trial_index": 92}, "uniqueid": "MTK2048:3MTMREQS4WPTP7KFU7PISW5MGVLAWR", "dateTime": 1516662042419}, {"current_trial": 93, "trialdata": {"rt": -1, "trial_type": "single-stim", "word": "fiddle", "stimulus": "<p id=\"stim\">FIDDLE</p>", "conditions": [12, 1600, "v", 12000], "internal_node_id": "0.0-66.0", "trial": 2, "time_elapsed": 427046, "serialpos": 4, "key_press": -1, "wordID": 560, "type": "PRES_VIS", "trial_index": 93}, "uniqueid": "MTK2048:3MTMREQS4WPTP7KFU7PISW5MGVLAWR", "dateTime": 1516662044974}, {"current_trial": 94, "trialdata": {"rt": -1, "trial_type": "single-stim", "word": "daughter", "stimulus": "<p id=\"stim\">DAUGHTER</p>", "conditions": [12, 1600, "v", 12000], "internal_node_id": "0.0-67.0", "trial": 2, "time_elapsed": 429747, "serialpos": 5, "key_press": -1, "wordID": 441, "type": "PRES_VIS", "trial_index": 94}, "uniqueid": "MTK2048:3MTMREQS4WPTP7KFU7PISW5MGVLAWR", "dateTime": 1516662047675}, {"current_trial": 95, "trialdata": {"rt": -1, "trial_type": "single-stim", "word": "baby", "stimulus": "<p id=\"stim\">BABY</p>", "conditions": [12, 1600, "v", 12000], "internal_node_id": "0.0-68.0", "trial": 2, "time_elapsed": 432541, "serialpos": 6, "key_press": -1, "wordID": 63, "type": "PRES_VIS", "trial_index": 95}, "uniqueid": "MTK2048:3MTMREQS4WPTP7KFU7PISW5MGVLAWR", "dateTime": 1516662050469}, {"current_trial": 96, "trialdata": {"rt": -1, "trial_type": "single-stim", "word": "citrus", "stimulus": "<p id=\"stim\">CITRUS</p>", "conditions": [12, 1600, "v", 12000], "internal_node_id": "0.0-69.0", "trial": 2, "time_elapsed": 435006, "serialpos": 7, "key_press": -1, "wordID": 312, "type": "PRES_VIS", "trial_index": 96}, "uniqueid": "MTK2048:3MTMREQS4WPTP7KFU7PISW5MGVLAWR", "dateTime": 1516662052934}, {"current_trial": 97, "trialdata": {"rt": -1, "trial_type": "single-stim", "word": "omelet", "stimulus": "<p id=\"stim\">OMELET</p>", "conditions": [12, 1600, "v", 12000], "internal_node_id": "0.0-70.0", "trial": 2, "time_elapsed": 437665, "serialpos": 8, "key_press": -1, "wordID": 975, "type": "PRES_VIS", "trial_index": 97}, "uniqueid": "MTK2048:3MTMREQS4WPTP7KFU7PISW5MGVLAWR", "dateTime": 1516662055593}, {"current_trial": 98, "trialdata": {"rt": -1, "trial_type": "single-stim", "word": "turtle", "stimulus": "<p id=\"stim\">TURTLE</p>", "conditions": [12, 1600, "v", 12000], "internal_node_id": "0.0-71.0", "trial": 2, "time_elapsed": 440351, "serialpos": 9, "key_press": -1, "wordID": 1521, "type": "PRES_VIS", "trial_index": 98}, "uniqueid": "MTK2048:3MTMREQS4WPTP7KFU7PISW5MGVLAWR", "dateTime": 1516662058279}, {"current_trial": 99, "trialdata": {"rt": -1, "trial_type": "single-stim", "word": "clamp", "stimulus": "<p id=\"stim\">CLAMP</p>", "conditions": [12, 1600, "v", 12000], "internal_node_id": "0.0-72.0", "trial": 2, "time_elapsed": 442908, "serialpos": 10, "key_press": -1, "wordID": 315, "type": "PRES_VIS", "trial_index": 99}, "uniqueid": "MTK2048:3MTMREQS4WPTP7KFU7PISW5MGVLAWR", "dateTime": 1516662060836}, {"current_trial": 100, "trialdata": {"rt": -1, "trial_type": "single-stim", "word": "harp", "stimulus": "<p id=\"stim\">HARP</p>", "conditions": [12, 1600, "v", 12000], "internal_node_id": "0.0-73.0", "trial": 2, "time_elapsed": 445389, "serialpos": 11, "key_press": -1, "wordID": 688, "type": "PRES_VIS", "trial_index": 100}, "uniqueid": "MTK2048:3MTMREQS4WPTP7KFU7PISW5MGVLAWR", "dateTime": 1516662063317}, {"current_trial": 101, "trialdata": {"rt": -1, "trial_type": "single-stim", "stimulus": "", "internal_node_id": "0.0-74.0-0.0", "time_elapsed": 447651, "key_press": -1, "type": "PRE_RECALL_DELAY", "trial_index": 101}, "uniqueid": "MTK2048:3MTMREQS4WPTP7KFU7PISW5MGVLAWR", "dateTime": 1516662065579}, {"current_trial": 102, "trialdata": {"rt": -1000, "trial_type": "single-audio", "stimulus": "/static/audio/400Hz.wav", "internal_node_id": "0.0-75.0", "time_elapsed": 448158, "key_press": -1, "type": "PRE_RECALL_ALERT", "trial_index": 102}, "uniqueid": "MTK2048:3MTMREQS4WPTP7KFU7PISW5MGVLAWR", "dateTime": 1516662066086}, {"current_trial": 103, "trialdata": {"rt": [10189, 21539, 24314, 28671, 31461, 34891, 38671, 41780, 46081, 58911], "recwords": ["washer", "captive", "raft", "fiddle", "baby", "daughter", "omelet", "turtle", "harp", "citrus"], "key_times": [7873, 8102, 8413, 8904, 9289, 9620, 10189, 18406, 18605, 19063, 19502, 19989, 20499, 20798, 21539, 22946, 23175, 23622, 23865, 24314, 26234, 26579, 27130, 27341, 27539, 27762, 28671, 30406, 30578, 30799, 31078, 31461, 32394, 32584, 32962, 33414, 33625, 33872, 34109, 34294, 34891, 35896, 36170, 36938, 37321, 37598, 37815, 38671, 39257, 39708, 40027, 40295, 40845, 41143, 41780, 44056, 44256, 44597, 45166, 46081, 55922, 56219, 56644, 57017, 57552, 57899, 58911], "trial_type": "free-recall", "conditions": [12, 1600, "v", 12000], "internal_node_id": "0.0-76.0-0.0", "key_presses": [87, 65, 83, 72, 69, 82, 13, 67, 65, 80, 84, 73, 86, 69, 13, 82, 65, 70, 84, 13, 70, 73, 68, 68, 76, 69, 13, 66, 65, 66, 89, 13, 68, 65, 85, 71, 72, 84, 69, 82, 13, 79, 77, 69, 76, 69, 84, 13, 84, 85, 82, 84, 76, 69, 13, 72, 65, 82, 80, 13, 67, 73, 84, 82, 85, 83, 13], "trial": 2, "time_elapsed": 508159, "type": "FREE_RECALL", "trial_index": 103}, "uniqueid": "MTK2048:3MTMREQS4WPTP7KFU7PISW5MGVLAWR", "dateTime": 1516662126088}, {"current_trial": 104, "trialdata": {"rt": 2018, "trial_type": "text", "internal_node_id": "0.0-77.0", "time_elapsed": 512179, "key_press": 32, "type": "INSTRUCTIONS", "trial_index": 104}, "uniqueid": "MTK2048:3MTMREQS4WPTP7KFU7PISW5MGVLAWR", "dateTime": 1516662130107}, {"current_trial": 105, "trialdata": {"rt": [3537, 8415], "trial_type": "math-distractor", "key_times": [2685, 3171, 3537, 7822, 8179, 8415, 11578, 11802], "responses": ["15", "24"], "num2": [5, 8, 5], "num3": [4, 9, 9], "conditions": [24, 800, "v", 12000], "internal_node_id": "0.0-78.0", "key_presses": [49, 53, 13, 50, 52, 13, 50, 51], "trial": 3, "time_elapsed": 526183, "type": "DISTRACTOR", "trial_index": 105, "num1": [6, 7, 9]}, "uniqueid": "MTK2048:3MTMREQS4WPTP7KFU7PISW5MGVLAWR", "dateTime": 1516662144111}, {"current_trial": 106, "trialdata": {"rt": -1, "trial_type": "single-stim", "stimulus": "<p id=\"stim\">10</p>", "internal_node_id": "0.0-79.0-0.0", "time_elapsed": 529185, "key_press": -1, "trial_index": 106}, "uniqueid": "MTK2048:3MTMREQS4WPTP7KFU7PISW5MGVLAWR", "dateTime": 1516662147113}, {"current_trial": 107, "trialdata": {"rt": -1, "trial_type": "single-stim", "stimulus": "<p id=\"stim\">9</p>", "internal_node_id": "0.0-79.0-1.0", "time_elapsed": 530186, "key_press": -1, "trial_index": 107}, "uniqueid": "MTK2048:3MTMREQS4WPTP7KFU7PISW5MGVLAWR", "dateTime": 1516662148114}, {"current_trial": 108, "trialdata": {"rt": -1, "trial_type": "single-stim", "stimulus": "<p id=\"stim\">8</p>", "internal_node_id": "0.0-79.0-2.0", "time_elapsed": 531187, "key_press": -1, "trial_index": 108}, "uniqueid": "MTK2048:3MTMREQS4WPTP7KFU7PISW5MGVLAWR", "dateTime": 1516662149115}, {"current_trial": 109, "trialdata": {"rt": -1, "trial_type": "single-stim", "stimulus": "<p id=\"stim\">7</p>", "internal_node_id": "0.0-79.0-3.0", "time_elapsed": 532189, "key_press": -1, "trial_index": 109}, "uniqueid": "MTK2048:3MTMREQS4WPTP7KFU7PISW5MGVLAWR", "dateTime": 1516662150117}, {"current_trial": 110, "trialdata": {"rt": -1, "trial_type": "single-stim", "stimulus": "<p id=\"stim\">6</p>", "internal_node_id": "0.0-79.0-4.0", "time_elapsed": 533189, "key_press": -1, "trial_index": 110}, "uniqueid": "MTK2048:3MTMREQS4WPTP7KFU7PISW5MGVLAWR", "dateTime": 1516662151117}, {"current_trial": 111, "trialdata": {"rt": -1, "trial_type": "single-stim", "stimulus": "<p id=\"stim\">5</p>", "internal_node_id": "0.0-79.0-5.0", "time_elapsed": 534190, "key_press": -1, "trial_index": 111}, "uniqueid": "MTK2048:3MTMREQS4WPTP7KFU7PISW5MGVLAWR", "dateTime": 1516662152118}, {"current_trial": 112, "trialdata": {"rt": -1, "trial_type": "single-stim", "stimulus": "<p id=\"stim\">4</p>", "internal_node_id": "0.0-79.0-6.0", "time_elapsed": 535191, "key_press": -1, "trial_index": 112}, "uniqueid": "MTK2048:3MTMREQS4WPTP7KFU7PISW5MGVLAWR", "dateTime": 1516662153119}, {"current_trial": 113, "trialdata": {"rt": -1, "trial_type": "single-stim", "stimulus": "<p id=\"stim\">3</p>", "internal_node_id": "0.0-79.0-7.0", "time_elapsed": 536192, "key_press": -1, "trial_index": 113}, "uniqueid": "MTK2048:3MTMREQS4WPTP7KFU7PISW5MGVLAWR", "dateTime": 1516662154120}, {"current_trial": 114, "trialdata": {"rt": -1, "trial_type": "single-stim", "stimulus": "<p id=\"stim\">2</p>", "internal_node_id": "0.0-79.0-8.0", "time_elapsed": 537193, "key_press": -1, "trial_index": 114}, "uniqueid": "MTK2048:3MTMREQS4WPTP7KFU7PISW5MGVLAWR", "dateTime": 1516662155121}, {"current_trial": 115, "trialdata": {"rt": -1, "trial_type": "single-stim", "stimulus": "<p id=\"stim\">1</p>", "internal_node_id": "0.0-79.0-9.0", "time_elapsed": 538194, "key_press": -1, "trial_index": 115}, "uniqueid": "MTK2048:3MTMREQS4WPTP7KFU7PISW5MGVLAWR", "dateTime": 1516662156122}, {"current_trial": 116, "trialdata": {"rt": -1, "trial_type": "single-stim", "stimulus": "<p id=\"stim\">+</p>", "internal_node_id": "0.0-80.0-0.0", "time_elapsed": 539695, "key_press": -1, "type": "FIXATION", "trial_index": 116}, "uniqueid": "MTK2048:3MTMREQS4WPTP7KFU7PISW5MGVLAWR", "dateTime": 1516662157623}, {"current_trial": 117, "trialdata": {"rt": -1, "trial_type": "single-stim", "word": "onion", "stimulus": "<p id=\"stim\">ONION</p>", "conditions": [24, 800, "v", 12000], "internal_node_id": "0.0-81.0", "trial": 3, "time_elapsed": 540496, "serialpos": 0, "key_press": -1, "wordID": 976, "type": "PRES_VIS", "trial_index": 117}, "uniqueid": "MTK2048:3MTMREQS4WPTP7KFU7PISW5MGVLAWR", "dateTime": 1516662158424}, {"current_trial": 118, "trialdata": {"rt": -1, "trial_type": "single-stim", "word": "lettuce", "stimulus": "<p id=\"stim\">LETTUCE</p>", "conditions": [24, 800, "v", 12000], "internal_node_id": "0.0-82.0", "trial": 3, "time_elapsed": 542393, "serialpos": 1, "key_press": -1, "wordID": 813, "type": "PRES_VIS", "trial_index": 118}, "uniqueid": "MTK2048:3MTMREQS4WPTP7KFU7PISW5MGVLAWR", "dateTime": 1516662160321}, {"current_trial": 119, "trialdata": {"rt": -1, "trial_type": "single-stim", "word": "rug", "stimulus": "<p id=\"stim\">RUG</p>", "conditions": [24, 800, "v", 12000], "internal_node_id": "0.0-83.0", "trial": 3, "time_elapsed": 544331, "serialpos": 2, "key_press": -1, "wordID": 1214, "type": "PRES_VIS", "trial_index": 119}, "uniqueid": "MTK2048:3MTMREQS4WPTP7KFU7PISW5MGVLAWR", "dateTime": 1516662162259}, {"current_trial": 120, "trialdata": {"rt": -1, "trial_type": "single-stim", "word": "cattle", "stimulus": "<p id=\"stim\">CATTLE</p>", "conditions": [24, 800, "v", 12000], "internal_node_id": "0.0-84.0", "trial": 3, "time_elapsed": 546222, "serialpos": 3, "key_press": -1, "wordID": 260, "type": "PRES_VIS", "trial_index": 120}, "uniqueid": "MTK2048:3MTMREQS4WPTP7KFU7PISW5MGVLAWR", "dateTime": 1516662164150}, {"current_trial": 121, "trialdata": {"rt": -1, "trial_type": "single-stim", "word": "infant", "stimulus": "<p id=\"stim\">INFANT</p>", "conditions": [24, 800, "v", 12000], "internal_node_id": "0.0-85.0", "trial": 3, "time_elapsed": 547969, "serialpos": 4, "key_press": -1, "wordID": 736, "type": "PRES_VIS", "trial_index": 121}, "uniqueid": "MTK2048:3MTMREQS4WPTP7KFU7PISW5MGVLAWR", "dateTime": 1516662165897}, {"current_trial": 122, "trialdata": {"rt": -1, "trial_type": "single-stim", "word": "message", "stimulus": "<p id=\"stim\">MESSAGE</p>", "conditions": [24, 800, "v", 12000], "internal_node_id": "0.0-86.0", "trial": 3, "time_elapsed": 549847, "serialpos": 5, "key_press": -1, "wordID": 887, "type": "PRES_VIS", "trial_index": 122}, "uniqueid": "MTK2048:3MTMREQS4WPTP7KFU7PISW5MGVLAWR", "dateTime": 1516662167775}, {"current_trial": 123, "trialdata": {"rt": -1, "trial_type": "single-stim", "word": "cricket", "stimulus": "<p id=\"stim\">CRICKET</p>", "conditions": [24, 800, "v", 12000], "internal_node_id": "0.0-87.0", "trial": 3, "time_elapsed": 551557, "serialpos": 6, "key_press": -1, "wordID": 407, "type": "PRES_VIS", "trial_index": 123}, "uniqueid": "MTK2048:3MTMREQS4WPTP7KFU7PISW5MGVLAWR", "dateTime": 1516662169485}, {"current_trial": 124, "trialdata": {"rt": -1, "trial_type": "single-stim", "word": "beef", "stimulus": "<p id=\"stim\">BEEF</p>", "conditions": [24, 800, "v", 12000], "internal_node_id": "0.0-88.0", "trial": 3, "time_elapsed": 553173, "serialpos": 7, "key_press": -1, "wordID": 112, "type": "PRES_VIS", "trial_index": 124}, "uniqueid": "MTK2048:3MTMREQS4WPTP7KFU7PISW5MGVLAWR", "dateTime": 1516662171101}, {"current_trial": 125, "trialdata": {"rt": -1, "trial_type": "single-stim", "word": "actress", "stimulus": "<p id=\"stim\">ACTRESS</p>", "conditions": [24, 800, "v", 12000], "internal_node_id": "0.0-89.0", "trial": 3, "time_elapsed": 555036, "serialpos": 8, "key_press": -1, "wordID": 5, "type": "PRES_VIS", "trial_index": 125}, "uniqueid": "MTK2048:3MTMREQS4WPTP7KFU7PISW5MGVLAWR", "dateTime": 1516662172964}, {"current_trial": 126, "trialdata": {"rt": -1, "trial_type": "single-stim", "word": "award", "stimulus": "<p id=\"stim\">AWARD</p>", "conditions": [24, 800, "v", 12000], "internal_node_id": "0.0-90.0", "trial": 3, "time_elapsed": 556762, "serialpos": 9, "key_press": -1, "wordID": 62, "type": "PRES_VIS", "trial_index": 126}, "uniqueid": "MTK2048:3MTMREQS4WPTP7KFU7PISW5MGVLAWR", "dateTime": 1516662174690}, {"current_trial": 127, "trialdata": {"rt": -1, "trial_type": "single-stim", "word": "cloud", "stimulus": "<p id=\"stim\">CLOUD</p>", "conditions": [24, 800, "v", 12000], "internal_node_id": "0.0-91.0", "trial": 3, "time_elapsed": 558696, "serialpos": 10, "key_press": -1, "wordID": 327, "type": "PRES_VIS", "trial_index": 127}, "uniqueid": "MTK2048:3MTMREQS4WPTP7KFU7PISW5MGVLAWR", "dateTime": 1516662176624}, {"current_trial": 128, "trialdata": {"rt": -1, "trial_type": "single-stim", "word": "eyelash", "stimulus": "<p id=\"stim\">EYELASH</p>", "conditions": [24, 800, "v", 12000], "internal_node_id": "0.0-92.0", "trial": 3, "time_elapsed": 560306, "serialpos": 11, "key_press": -1, "wordID": 545, "type": "PRES_VIS", "trial_index": 128}, "uniqueid": "MTK2048:3MTMREQS4WPTP7KFU7PISW5MGVLAWR", "dateTime": 1516662178234}, {"current_trial": 129, "trialdata": {"rt": -1, "trial_type": "single-stim", "word": "hamper", "stimulus": "<p id=\"stim\">HAMPER</p>", "conditions": [24, 800, "v", 12000], "internal_node_id": "0.0-93.0", "trial": 3, "time_elapsed": 561951, "serialpos": 12, "key_press": -1, "wordID": 681, "type": "PRES_VIS", "trial_index": 129}, "uniqueid": "MTK2048:3MTMREQS4WPTP7KFU7PISW5MGVLAWR", "dateTime": 1516662179879}, {"current_trial": 130, "trialdata": {"rt": -1, "trial_type": "single-stim", "word": "orchid", "stimulus": "<p id=\"stim\">ORCHID</p>", "conditions": [24, 800, "v", 12000], "internal_node_id": "0.0-94.0", "trial": 3, "time_elapsed": 563808, "serialpos": 13, "key_press": -1, "wordID": 981, "type": "PRES_VIS", "trial_index": 130}, "uniqueid": "MTK2048:3MTMREQS4WPTP7KFU7PISW5MGVLAWR", "dateTime": 1516662181736}, {"current_trial": 131, "trialdata": {"rt": -1, "trial_type": "single-stim", "word": "salmon", "stimulus": "<p id=\"stim\">SALMON</p>", "conditions": [24, 800, "v", 12000], "internal_node_id": "0.0-95.0", "trial": 3, "time_elapsed": 565697, "serialpos": 14, "key_press": -1, "wordID": 1226, "type": "PRES_VIS", "trial_index": 131}, "uniqueid": "MTK2048:3MTMREQS4WPTP7KFU7PISW5MGVLAWR", "dateTime": 1516662183625}, {"current_trial": 132, "trialdata": {"rt": -1, "trial_type": "single-stim", "word": "missile", "stimulus": "<p id=\"stim\">MISSILE</p>", "conditions": [24, 800, "v", 12000], "internal_node_id": "0.0-96.0", "trial": 3, "time_elapsed": 567404, "serialpos": 15, "key_press": -1, "wordID": 899, "type": "PRES_VIS", "trial_index": 132}, "uniqueid": "MTK2048:3MTMREQS4WPTP7KFU7PISW5MGVLAWR", "dateTime": 1516662185332}, {"current_trial": 133, "trialdata": {"rt": -1, "trial_type": "single-stim", "word": "mailbox", "stimulus": "<p id=\"stim\">MAILBOX</p>", "conditions": [24, 800, "v", 12000], "internal_node_id": "0.0-97.0", "trial": 3, "time_elapsed": 569126, "serialpos": 16, "key_press": -1, "wordID": 856, "type": "PRES_VIS", "trial_index": 133}, "uniqueid": "MTK2048:3MTMREQS4WPTP7KFU7PISW5MGVLAWR", "dateTime": 1516662187054}, {"current_trial": 134, "trialdata": {"rt": -1, "trial_type": "single-stim", "word": "mailman", "stimulus": "<p id=\"stim\">MAILMAN</p>", "conditions": [24, 800, "v", 12000], "internal_node_id": "0.0-98.0", "trial": 3, "time_elapsed": 571016, "serialpos": 17, "key_press": -1, "wordID": 857, "type": "PRES_VIS", "trial_index": 134}, "uniqueid": "MTK2048:3MTMREQS4WPTP7KFU7PISW5MGVLAWR", "dateTime": 1516662188944}, {"current_trial": 135, "trialdata": {"rt": -1, "trial_type": "single-stim", "word": "coffee", "stimulus": "<p id=\"stim\">COFFEE</p>", "conditions": [24, 800, "v", 12000], "internal_node_id": "0.0-99.0", "trial": 3, "time_elapsed": 572868, "serialpos": 18, "key_press": -1, "wordID": 340, "type": "PRES_VIS", "trial_index": 135}, "uniqueid": "MTK2048:3MTMREQS4WPTP7KFU7PISW5MGVLAWR", "dateTime": 1516662190796}, {"current_trial": 136, "trialdata": {"rt": -1, "trial_type": "single-stim", "word": "waiter", "stimulus": "<p id=\"stim\">WAITER</p>", "conditions": [24, 800, "v", 12000], "internal_node_id": "0.0-100.0", "trial": 3, "time_elapsed": 574639, "serialpos": 19, "key_press": -1, "wordID": 1579, "type": "PRES_VIS", "trial_index": 136}, "uniqueid": "MTK2048:3MTMREQS4WPTP7KFU7PISW5MGVLAWR", "dateTime": 1516662192567}, {"current_trial": 137, "trialdata": {"rt": -1, "trial_type": "single-stim", "word": "wardrobe", "stimulus": "<p id=\"stim\">WARDROBE</p>", "conditions": [24, 800, "v", 12000], "internal_node_id": "0.0-101.0", "trial": 3, "time_elapsed": 576274, "serialpos": 20, "key_press": -1, "wordID": 1586, "type": "PRES_VIS", "trial_index": 137}, "uniqueid": "MTK2048:3MTMREQS4WPTP7KFU7PISW5MGVLAWR", "dateTime": 1516662194202}, {"current_trial": 138, "trialdata": {"rt": -1, "trial_type": "single-stim", "word": "patrol", "stimulus": "<p id=\"stim\">PATROL</p>", "conditions": [24, 800, "v", 12000], "internal_node_id": "0.0-102.0", "trial": 3, "time_elapsed": 577967, "serialpos": 21, "key_press": -1, "wordID": 1026, "type": "PRES_VIS", "trial_index": 138}, "uniqueid": "MTK2048:3MTMREQS4WPTP7KFU7PISW5MGVLAWR", "dateTime": 1516662195895}, {"current_trial": 139, "trialdata": {"rt": -1, "trial_type": "single-stim", "word": "soda", "stimulus": "<p id=\"stim\">SODA</p>", "conditions": [24, 800, "v", 12000], "internal_node_id": "0.0-103.0", "trial": 3, "time_elapsed": 579686, "serialpos": 22, "key_press": -1, "wordID": 1340, "type": "PRES_VIS", "trial_index": 139}, "uniqueid": "MTK2048:3MTMREQS4WPTP7KFU7PISW5MGVLAWR", "dateTime": 1516662197614}, {"current_trial": 140, "trialdata": {"rt": -1, "trial_type": "single-stim", "word": "shelf", "stimulus": "<p id=\"stim\">SHELF</p>", "conditions": [24, 800, "v", 12000], "internal_node_id": "0.0-104.0", "trial": 3, "time_elapsed": 581304, "serialpos": 23, "key_press": -1, "wordID": 1279, "type": "PRES_VIS", "trial_index": 140}, "uniqueid": "MTK2048:3MTMREQS4WPTP7KFU7PISW5MGVLAWR", "dateTime": 1516662199232}, {"current_trial": 141, "trialdata": {"rt": -1, "trial_type": "single-stim", "stimulus": "", "internal_node_id": "0.0-105.0-0.0", "time_elapsed": 583564, "key_press": -1, "type": "PRE_RECALL_DELAY", "trial_index": 141}, "uniqueid": "MTK2048:3MTMREQS4WPTP7KFU7PISW5MGVLAWR", "dateTime": 1516662201492}, {"current_trial": 142, "trialdata": {"rt": -1000, "trial_type": "single-audio", "stimulus": "/static/audio/400Hz.wav", "internal_node_id": "0.0-106.0", "time_elapsed": 584065, "key_press": -1, "type": "PRE_RECALL_ALERT", "trial_index": 142}, "uniqueid": "MTK2048:3MTMREQS4WPTP7KFU7PISW5MGVLAWR", "dateTime": 1516662201993}, {"current_trial": 143, "trialdata": {"rt": [14625, 16826, 20767, 24590, 26851, 29472, 32071, 36630, 38897, 44301, 46833, 52562, 57909], "recwords": ["rug", "onion", "cattle", "message", "beef", "award", "cloud", "hamper", "salmon", "mailman", "onion", "patrol", "onion"], "key_times": [11819, 12244, 13819, 14625, 15257, 15532, 15790, 15999, 16255, 16826, 18111, 18289, 18595, 18768, 19446, 19802, 20767, 21406, 21766, 22402, 22553, 22697, 23286, 23673, 24590, 25666, 25898, 26114, 26351, 26851, 27838, 28096, 28371, 28640, 28932, 29472, 30358, 30664, 30839, 31090, 31689, 32071, 33877, 34055, 34299, 35052, 35317, 35555, 36630, 37256, 37416, 37711, 37999, 38250, 38460, 38897, 42502, 42673, 42952, 43198, 43509, 43684, 43950, 44301, 45583, 45836, 46038, 46224, 46473, 46833, 49035, 49260, 49578, 50278, 50843, 51051, 51623, 51875, 52562, 56614, 56884, 57099, 57284, 57525, 57909], "trial_type": "free-recall", "conditions": [24, 800, "v", 12000], "internal_node_id": "0.0-107.0-0.0", "key_presses": [82, 85, 71, 13, 79, 78, 73, 79, 78, 13, 67, 65, 84, 84, 76, 69, 13, 77, 69, 83, 83, 65, 71, 69, 13, 66, 69, 69, 70, 13, 65, 87, 65, 82, 68, 13, 67, 76, 79, 85, 68, 13, 72, 65, 77, 80, 69, 82, 13, 83, 65, 76, 77, 79, 78, 13, 77, 65, 73, 76, 77, 65, 78, 13, 79, 78, 73, 79, 78, 13, 80, 65, 82, 8, 84, 82, 79, 76, 13, 79, 78, 73, 79, 78, 13], "trial": 3, "time_elapsed": 644067, "type": "FREE_RECALL", "trial_index": 143}, "uniqueid": "MTK2048:3MTMREQS4WPTP7KFU7PISW5MGVLAWR", "dateTime": 1516662261997}, {"current_trial": 144, "trialdata": {"rt": 1490, "trial_type": "text", "internal_node_id": "0.0-108.0", "time_elapsed": 647560, "key_press": 32, "type": "INSTRUCTIONS", "trial_index": 144}, "uniqueid": "MTK2048:3MTMREQS4WPTP7KFU7PISW5MGVLAWR", "dateTime": 1516662265488}, {"current_trial": 145, "trialdata": {"rt": [3560, 6511, 10025, 14309, 16533, 19998, 23424], "trial_type": "math-distractor", "key_times": [2832, 3173, 3560, 5691, 6316, 6511, 9428, 10025, 13554, 14053, 14309, 15864, 16294, 16533, 19321, 19776, 19998, 23039, 23230, 23424], "responses": ["14", "18", "1", "10", "10", "15", "22"], "num2": [6, 9, 3, 1, 4, 2, 9, 1], "num3": [3, 2, 9, 6, 1, 4, 6, 1], "conditions": [24, 1600, "v", 24000], "internal_node_id": "0.0-109.0", "key_presses": [49, 52, 13, 49, 56, 13, 49, 13, 49, 48, 13, 49, 48, 13, 49, 53, 13, 50, 50, 13], "trial": 4, "time_elapsed": 673562, "type": "DISTRACTOR", "trial_index": 145, "num1": [5, 7, 5, 3, 5, 9, 7, 7]}, "uniqueid": "MTK2048:3MTMREQS4WPTP7KFU7PISW5MGVLAWR", "dateTime": 1516662291490}, {"current_trial": 146, "trialdata": {"rt": -1, "trial_type": "single-stim", "stimulus": "<p id=\"stim\">10</p>", "internal_node_id": "0.0-110.0-0.0", "time_elapsed": 676564, "key_press": -1, "trial_index": 146}, "uniqueid": "MTK2048:3MTMREQS4WPTP7KFU7PISW5MGVLAWR", "dateTime": 1516662294492}, {"current_trial": 147, "trialdata": {"rt": -1, "trial_type": "single-stim", "stimulus": "<p id=\"stim\">9</p>", "internal_node_id": "0.0-110.0-1.0", "time_elapsed": 677565, "key_press": -1, "trial_index": 147}, "uniqueid": "MTK2048:3MTMREQS4WPTP7KFU7PISW5MGVLAWR", "dateTime": 1516662295493}, {"current_trial": 148, "trialdata": {"rt": -1, "trial_type": "single-stim", "stimulus": "<p id=\"stim\">8</p>", "internal_node_id": "0.0-110.0-2.0", "time_elapsed": 678566, "key_press": -1, "trial_index": 148}, "uniqueid": "MTK2048:3MTMREQS4WPTP7KFU7PISW5MGVLAWR", "dateTime": 1516662296494}, {"current_trial": 149, "trialdata": {"rt": -1, "trial_type": "single-stim", "stimulus": "<p id=\"stim\">7</p>", "internal_node_id": "0.0-110.0-3.0", "time_elapsed": 679567, "key_press": -1, "trial_index": 149}, "uniqueid": "MTK2048:3MTMREQS4WPTP7KFU7PISW5MGVLAWR", "dateTime": 1516662297495}, {"current_trial": 150, "trialdata": {"rt": -1, "trial_type": "single-stim", "stimulus": "<p id=\"stim\">6</p>", "internal_node_id": "0.0-110.0-4.0", "time_elapsed": 680568, "key_press": -1, "trial_index": 150}, "uniqueid": "MTK2048:3MTMREQS4WPTP7KFU7PISW5MGVLAWR", "dateTime": 1516662298496}, {"current_trial": 151, "trialdata": {"rt": -1, "trial_type": "single-stim", "stimulus": "<p id=\"stim\">5</p>", "internal_node_id": "0.0-110.0-5.0", "time_elapsed": 681569, "key_press": -1, "trial_index": 151}, "uniqueid": "MTK2048:3MTMREQS4WPTP7KFU7PISW5MGVLAWR", "dateTime": 1516662299498}, {"current_trial": 152, "trialdata": {"rt": -1, "trial_type": "single-stim", "stimulus": "<p id=\"stim\">4</p>", "internal_node_id": "0.0-110.0-6.0", "time_elapsed": 682570, "key_press": -1, "trial_index": 152}, "uniqueid": "MTK2048:3MTMREQS4WPTP7KFU7PISW5MGVLAWR", "dateTime": 1516662300499}, {"current_trial": 153, "trialdata": {"rt": -1, "trial_type": "single-stim", "stimulus": "<p id=\"stim\">3</p>", "internal_node_id": "0.0-110.0-7.0", "time_elapsed": 683571, "key_press": -1, "trial_index": 153}, "uniqueid": "MTK2048:3MTMREQS4WPTP7KFU7PISW5MGVLAWR", "dateTime": 1516662301499}, {"current_trial": 154, "trialdata": {"rt": -1, "trial_type": "single-stim", "stimulus": "<p id=\"stim\">2</p>", "internal_node_id": "0.0-110.0-8.0", "time_elapsed": 684572, "key_press": -1, "trial_index": 154}, "uniqueid": "MTK2048:3MTMREQS4WPTP7KFU7PISW5MGVLAWR", "dateTime": 1516662302500}, {"current_trial": 155, "trialdata": {"rt": -1, "trial_type": "single-stim", "stimulus": "<p id=\"stim\">1</p>", "internal_node_id": "0.0-110.0-9.0", "time_elapsed": 685574, "key_press": -1, "trial_index": 155}, "uniqueid": "MTK2048:3MTMREQS4WPTP7KFU7PISW5MGVLAWR", "dateTime": 1516662303503}, {"current_trial": 156, "trialdata": {"rt": -1, "trial_type": "single-stim", "stimulus": "<p id=\"stim\">+</p>", "internal_node_id": "0.0-111.0-0.0", "time_elapsed": 687076, "key_press": -1, "type": "FIXATION", "trial_index": 156}, "uniqueid": "MTK2048:3MTMREQS4WPTP7KFU7PISW5MGVLAWR", "dateTime": 1516662305004}, {"current_trial": 157, "trialdata": {"rt": -1, "trial_type": "single-stim", "word": "fireplace", "stimulus": "<p id=\"stim\">FIREPLACE</p>", "conditions": [24, 1600, "v", 24000], "internal_node_id": "0.0-112.0", "trial": 4, "time_elapsed": 688677, "serialpos": 0, "key_press": -1, "wordID": 569, "type": "PRES_VIS", "trial_index": 157}, "uniqueid": "MTK2048:3MTMREQS4WPTP7KFU7PISW5MGVLAWR", "dateTime": 1516662306605}, {"current_trial": 158, "trialdata": {"rt": -1, "trial_type": "single-stim", "word": "pastry", "stimulus": "<p id=\"stim\">PASTRY</p>", "conditions": [24, 1600, "v", 24000], "internal_node_id": "0.0-113.0", "trial": 4, "time_elapsed": 691311, "serialpos": 1, "key_press": -1, "wordID": 1021, "type": "PRES_VIS", "trial_index": 158}, "uniqueid": "MTK2048:3MTMREQS4WPTP7KFU7PISW5MGVLAWR", "dateTime": 1516662309239}, {"current_trial": 159, "trialdata": {"rt": -1, "trial_type": "single-stim", "word": "shortcake", "stimulus": "<p id=\"stim\">SHORTCAKE</p>", "conditions": [24, 1600, "v", 24000], "internal_node_id": "0.0-114.0", "trial": 4, "time_elapsed": 693987, "serialpos": 2, "key_press": -1, "wordID": 1291, "type": "PRES_VIS", "trial_index": 159}, "uniqueid": "MTK2048:3MTMREQS4WPTP7KFU7PISW5MGVLAWR", "dateTime": 1516662311915}, {"current_trial": 160, "trialdata": {"rt": -1, "trial_type": "single-stim", "word": "cashier", "stimulus": "<p id=\"stim\">CASHIER</p>", "conditions": [24, 1600, "v", 24000], "internal_node_id": "0.0-115.0", "trial": 4, "time_elapsed": 696718, "serialpos": 3, "key_press": -1, "wordID": 253, "type": "PRES_VIS", "trial_index": 160}, "uniqueid": "MTK2048:3MTMREQS4WPTP7KFU7PISW5MGVLAWR", "dateTime": 1516662314646}, {"current_trial": 161, "trialdata": {"rt": -1, "trial_type": "single-stim", "word": "maple", "stimulus": "<p id=\"stim\">MAPLE</p>", "conditions": [24, 1600, "v", 24000], "internal_node_id": "0.0-116.0", "trial": 4, "time_elapsed": 699432, "serialpos": 4, "key_press": -1, "wordID": 865, "type": "PRES_VIS", "trial_index": 161}, "uniqueid": "MTK2048:3MTMREQS4WPTP7KFU7PISW5MGVLAWR", "dateTime": 1516662317360}, {"current_trial": 162, "trialdata": {"rt": -1, "trial_type": "single-stim", "word": "slime", "stimulus": "<p id=\"stim\">SLIME</p>", "conditions": [24, 1600, "v", 24000], "internal_node_id": "0.0-117.0", "trial": 4, "time_elapsed": 701861, "serialpos": 5, "key_press": -1, "wordID": 1326, "type": "PRES_VIS", "trial_index": 162}, "uniqueid": "MTK2048:3MTMREQS4WPTP7KFU7PISW5MGVLAWR", "dateTime": 1516662319789}, {"current_trial": 163, "trialdata": {"rt": -1, "trial_type": "single-stim", "word": "egypt", "stimulus": "<p id=\"stim\">EGYPT</p>", "conditions": [24, 1600, "v", 24000], "internal_node_id": "0.0-118.0", "trial": 4, "time_elapsed": 704501, "serialpos": 6, "key_press": -1, "wordID": 518, "type": "PRES_VIS", "trial_index": 163}, "uniqueid": "MTK2048:3MTMREQS4WPTP7KFU7PISW5MGVLAWR", "dateTime": 1516662322429}, {"current_trial": 164, "trialdata": {"rt": -1, "trial_type": "single-stim", "word": "kitchen", "stimulus": "<p id=\"stim\">KITCHEN</p>", "conditions": [24, 1600, "v", 24000], "internal_node_id": "0.0-119.0", "trial": 4, "time_elapsed": 707173, "serialpos": 7, "key_press": -1, "wordID": 777, "type": "PRES_VIS", "trial_index": 164}, "uniqueid": "MTK2048:3MTMREQS4WPTP7KFU7PISW5MGVLAWR", "dateTime": 1516662325101}, {"current_trial": 165, "trialdata": {"rt": -1, "trial_type": "single-stim", "word": "spool", "stimulus": "<p id=\"stim\">SPOOL</p>", "conditions": [24, 1600, "v", 24000], "internal_node_id": "0.0-120.0", "trial": 4, "time_elapsed": 709869, "serialpos": 8, "key_press": -1, "wordID": 1355, "type": "PRES_VIS", "trial_index": 165}, "uniqueid": "MTK2048:3MTMREQS4WPTP7KFU7PISW5MGVLAWR", "dateTime": 1516662327797}, {"current_trial": 166, "trialdata": {"rt": -1, "trial_type": "single-stim", "word": "switch", "stimulus": "<p id=\"stim\">SWITCH</p>", "conditions": [24, 1600, "v", 24000], "internal_node_id": "0.0-121.0", "trial": 4, "time_elapsed": 712435, "serialpos": 9, "key_press": -1, "wordID": 1421, "type": "PRES_VIS", "trial_index": 166}, "uniqueid": "MTK2048:3MTMREQS4WPTP7KFU7PISW5MGVLAWR", "dateTime": 1516662330363}, {"current_trial": 167, "trialdata": {"rt": -1, "trial_type": "single-stim", "word": "panther", "stimulus": "<p id=\"stim\">PANTHER</p>", "conditions": [24, 1600, "v", 24000], "internal_node_id": "0.0-122.0", "trial": 4, "time_elapsed": 715028, "serialpos": 10, "key_press": -1, "wordID": 1008, "type": "PRES_VIS", "trial_index": 167}, "uniqueid": "MTK2048:3MTMREQS4WPTP7KFU7PISW5MGVLAWR", "dateTime": 1516662332956}, {"current_trial": 168, "trialdata": {"rt": -1, "trial_type": "single-stim", "word": "cocktail", "stimulus": "<p id=\"stim\">COCKTAIL</p>", "conditions": [24, 1600, "v", 24000], "internal_node_id": "0.0-123.0", "trial": 4, "time_elapsed": 717495, "serialpos": 11, "key_press": -1, "wordID": 337, "type": "PRES_VIS", "trial_index": 168}, "uniqueid": "MTK2048:3MTMREQS4WPTP7KFU7PISW5MGVLAWR", "dateTime": 1516662335423}, {"current_trial": 169, "trialdata": {"rt": -1, "trial_type": "single-stim", "word": "blouse", "stimulus": "<p id=\"stim\">BLOUSE</p>", "conditions": [24, 1600, "v", 24000], "internal_node_id": "0.0-124.0", "trial": 4, "time_elapsed": 719922, "serialpos": 12, "key_press": -1, "wordID": 138, "type": "PRES_VIS", "trial_index": 169}, "uniqueid": "MTK2048:3MTMREQS4WPTP7KFU7PISW5MGVLAWR", "dateTime": 1516662337850}, {"current_trial": 170, "trialdata": {"rt": -1, "trial_type": "single-stim", "word": "marrow", "stimulus": "<p id=\"stim\">MARROW</p>", "conditions": [24, 1600, "v", 24000], "internal_node_id": "0.0-125.0", "trial": 4, "time_elapsed": 722689, "serialpos": 13, "key_press": -1, "wordID": 871, "type": "PRES_VIS", "trial_index": 170}, "uniqueid": "MTK2048:3MTMREQS4WPTP7KFU7PISW5MGVLAWR", "dateTime": 1516662340617}, {"current_trial": 171, "trialdata": {"rt": -1, "trial_type": "single-stim", "word": "flipper", "stimulus": "<p id=\"stim\">FLIPPER</p>", "conditions": [24, 1600, "v", 24000], "internal_node_id": "0.0-126.0", "trial": 4, "time_elapsed": 725392, "serialpos": 14, "key_press": -1, "wordID": 579, "type": "PRES_VIS", "trial_index": 171}, "uniqueid": "MTK2048:3MTMREQS4WPTP7KFU7PISW5MGVLAWR", "dateTime": 1516662343320}, {"current_trial": 172, "trialdata": {"rt": -1, "trial_type": "single-stim", "word": "eagle", "stimulus": "<p id=\"stim\">EAGLE</p>", "conditions": [24, 1600, "v", 24000], "internal_node_id": "0.0-127.0", "trial": 4, "time_elapsed": 728191, "serialpos": 15, "key_press": -1, "wordID": 511, "type": "PRES_VIS", "trial_index": 172}, "uniqueid": "MTK2048:3MTMREQS4WPTP7KFU7PISW5MGVLAWR", "dateTime": 1516662346119}, {"current_trial": 173, "trialdata": {"rt": -1, "trial_type": "single-stim", "word": "pizza", "stimulus": "<p id=\"stim\">PIZZA</p>", "conditions": [24, 1600, "v", 24000], "internal_node_id": "0.0-128.0", "trial": 4, "time_elapsed": 730875, "serialpos": 16, "key_press": -1, "wordID": 1078, "type": "PRES_VIS", "trial_index": 173}, "uniqueid": "MTK2048:3MTMREQS4WPTP7KFU7PISW5MGVLAWR", "dateTime": 1516662348804}, {"current_trial": 174, "trialdata": {"rt": -1, "trial_type": "single-stim", "word": "farmer", "stimulus": "<p id=\"stim\">FARMER</p>", "conditions": [24, 1600, "v", 24000], "internal_node_id": "0.0-129.0", "trial": 4, "time_elapsed": 733524, "serialpos": 17, "key_press": -1, "wordID": 552, "type": "PRES_VIS", "trial_index": 174}, "uniqueid": "MTK2048:3MTMREQS4WPTP7KFU7PISW5MGVLAWR", "dateTime": 1516662351452}, {"current_trial": 175, "trialdata": {"rt": -1, "trial_type": "single-stim", "word": "tourist", "stimulus": "<p id=\"stim\">TOURIST</p>", "conditions": [24, 1600, "v", 24000], "internal_node_id": "0.0-130.0", "trial": 4, "time_elapsed": 736109, "serialpos": 18, "key_press": -1, "wordID": 1487, "type": "PRES_VIS", "trial_index": 175}, "uniqueid": "MTK2048:3MTMREQS4WPTP7KFU7PISW5MGVLAWR", "dateTime": 1516662354037}, {"current_trial": 176, "trialdata": {"rt": -1, "trial_type": "single-stim", "word": "liver", "stimulus": "<p id=\"stim\">LIVER</p>", "conditions": [24, 1600, "v", 24000], "internal_node_id": "0.0-131.0", "trial": 4, "time_elapsed": 738685, "serialpos": 19, "key_press": -1, "wordID": 832, "type": "PRES_VIS", "trial_index": 176}, "uniqueid": "MTK2048:3MTMREQS4WPTP7KFU7PISW5MGVLAWR", "dateTime": 1516662356613}, {"current_trial": 177, "trialdata": {"rt": -1, "trial_type": "single-stim", "word": "daisy", "stimulus": "<p id=\"stim\">DAISY</p>", "conditions": [24, 1600, "v", 24000], "internal_node_id": "0.0-132.0", "trial": 4, "time_elapsed": 741252, "serialpos": 20, "key_press": -1, "wordID": 434, "type": "PRES_VIS", "trial_index": 177}, "uniqueid": "MTK2048:3MTMREQS4WPTP7KFU7PISW5MGVLAWR", "dateTime": 1516662359180}, {"current_trial": 178, "trialdata": {"rt": -1, "trial_type": "single-stim", "word": "flower", "stimulus": "<p id=\"stim\">FLOWER</p>", "conditions": [24, 1600, "v", 24000], "internal_node_id": "0.0-133.0", "trial": 4, "time_elapsed": 743747, "serialpos": 21, "key_press": -1, "wordID": 583, "type": "PRES_VIS", "trial_index": 178}, "uniqueid": "MTK2048:3MTMREQS4WPTP7KFU7PISW5MGVLAWR", "dateTime": 1516662361676}, {"current_trial": 179, "trialdata": {"rt": -1, "trial_type": "single-stim", "word": "mustard", "stimulus": "<p id=\"stim\">MUSTARD</p>", "conditions": [24, 1600, "v", 24000], "internal_node_id": "0.0-134.0", "trial": 4, "time_elapsed": 746297, "serialpos": 22, "key_press": -1, "wordID": 934, "type": "PRES_VIS", "trial_index": 179}, "uniqueid": "MTK2048:3MTMREQS4WPTP7KFU7PISW5MGVLAWR", "dateTime": 1516662364225}, {"current_trial": 180, "trialdata": {"rt": -1, "trial_type": "single-stim", "word": "velvet", "stimulus": "<p id=\"stim\">VELVET</p>", "conditions": [24, 1600, "v", 24000], "internal_node_id": "0.0-135.0", "trial": 4, "time_elapsed": 749062, "serialpos": 23, "key_press": -1, "wordID": 1554, "type": "PRES_VIS", "trial_index": 180}, "uniqueid": "MTK2048:3MTMREQS4WPTP7KFU7PISW5MGVLAWR", "dateTime": 1516662366990}, {"current_trial": 181, "trialdata": {"rt": -1, "trial_type": "single-stim", "stimulus": "", "internal_node_id": "0.0-136.0-0.0", "time_elapsed": 751480, "key_press": -1, "type": "PRE_RECALL_DELAY", "trial_index": 181}, "uniqueid": "MTK2048:3MTMREQS4WPTP7KFU7PISW5MGVLAWR", "dateTime": 1516662369408}, {"current_trial": 182, "trialdata": {"rt": -1000, "trial_type": "single-audio", "stimulus": "/static/audio/400Hz.wav", "internal_node_id": "0.0-137.0", "time_elapsed": 751981, "key_press": -1, "type": "PRE_RECALL_ALERT", "trial_index": 182}, "uniqueid": "MTK2048:3MTMREQS4WPTP7KFU7PISW5MGVLAWR", "dateTime": 1516662369910}, {"current_trial": 183, "trialdata": {"rt": [10740, 15483, 18484, 25815, 28573, 30618, 37907, 41813, 45342, 48678, 51324, 54641, 58516], "recwords": ["flower", "musturd", "pastry", "shortcake", "maple", "slime", "spool", "switch", "panther", "blouse", "marrow", "flipper", "pizza"], "key_times": [8847, 9126, 9325, 9788, 10000, 10195, 10740, 12752, 13074, 13399, 13676, 14342, 14752, 15092, 15483, 16737, 16994, 17279, 17528, 17785, 18090, 18484, 20379, 20726, 20975, 21430, 21626, 22140, 22312, 23608, 24615, 25096, 25279, 25815, 26696, 26962, 27208, 27434, 27749, 28573, 29115, 29432, 29649, 29923, 30216, 30618, 36470, 36811, 37021, 37185, 37400, 37907, 38987, 39215, 39546, 40044, 40623, 40866, 41813, 42660, 42943, 43327, 43626, 43796, 44081, 44267, 45342, 46338, 46724, 46904, 47279, 47693, 47894, 48678, 49214, 49418, 49735, 49891, 50191, 50633, 51324, 52505, 52793, 53018, 53355, 53530, 53903, 54139, 54641, 56447, 56742, 57451, 57610, 57817, 58516], "trial_type": "free-recall", "conditions": [24, 1600, "v", 24000], "internal_node_id": "0.0-138.0-0.0", "key_presses": [70, 76, 79, 87, 69, 82, 13, 77, 85, 83, 84, 85, 82, 68, 13, 80, 65, 83, 84, 82, 89, 13, 83, 72, 79, 82, 84, 67, 65, 69, 8, 75, 69, 13, 77, 65, 80, 76, 69, 13, 83, 76, 73, 77, 69, 13, 83, 80, 79, 79, 76, 13, 83, 87, 73, 84, 67, 72, 13, 80, 65, 78, 84, 72, 69, 82, 13, 66, 76, 79, 85, 83, 69, 13, 77, 65, 82, 82, 79, 87, 13, 70, 76, 73, 80, 80, 69, 82, 13, 80, 73, 90, 90, 65, 13], "trial": 4, "time_elapsed": 811984, "type": "FREE_RECALL", "trial_index": 183}, "uniqueid": "MTK2048:3MTMREQS4WPTP7KFU7PISW5MGVLAWR", "dateTime": 1516662429913}, {"current_trial": 184, "trialdata": {"rt": 1528, "trial_type": "text", "internal_node_id": "0.0-139.0", "time_elapsed": 815514, "key_press": 32, "type": "INSTRUCTIONS", "trial_index": 184}, "uniqueid": "MTK2048:3MTMREQS4WPTP7KFU7PISW5MGVLAWR", "dateTime": 1516662433442}, {"current_trial": 185, "trialdata": {"rt": [3635, 5534, 7962, 11076, 13256, 16624, 19220, 22184], "trial_type": "math-distractor", "key_times": [3307, 3635, 5333, 5534, 7558, 7796, 7962, 10417, 10875, 11076, 12796, 13023, 13256, 15514, 16353, 16624, 19018, 19220, 21176, 21994, 22184], "responses": ["7", "5", "21", "20", "12", "15", "8", "15"], "num2": [1, 1, 9, 5, 6, 3, 1, 4, 4], "num3": [4, 2, 9, 8, 2, 9, 3, 6, 8], "conditions": [12, 800, "v", 24000], "internal_node_id": "0.0-140.0", "key_presses": [55, 13, 53, 13, 50, 49, 13, 50, 48, 13, 49, 50, 13, 49, 53, 13, 56, 13, 49, 53, 13], "trial": 5, "time_elapsed": 841517, "type": "DISTRACTOR", "trial_index": 185, "num1": [2, 2, 3, 7, 4, 3, 4, 5, 5]}, "uniqueid": "MTK2048:3MTMREQS4WPTP7KFU7PISW5MGVLAWR", "dateTime": 1516662459445}, {"current_trial": 186, "trialdata": {"rt": -1, "trial_type": "single-stim", "stimulus": "<p id=\"stim\">10</p>", "internal_node_id": "0.0-141.0-0.0", "time_elapsed": 844519, "key_press": -1, "trial_index": 186}, "uniqueid": "MTK2048:3MTMREQS4WPTP7KFU7PISW5MGVLAWR", "dateTime": 1516662462447}, {"current_trial": 187, "trialdata": {"rt": -1, "trial_type": "single-stim", "stimulus": "<p id=\"stim\">9</p>", "internal_node_id": "0.0-141.0-1.0", "time_elapsed": 845520, "key_press": -1, "trial_index": 187}, "uniqueid": "MTK2048:3MTMREQS4WPTP7KFU7PISW5MGVLAWR", "dateTime": 1516662463448}, {"current_trial": 188, "trialdata": {"rt": -1, "trial_type": "single-stim", "stimulus": "<p id=\"stim\">8</p>", "internal_node_id": "0.0-141.0-2.0", "time_elapsed": 846521, "key_press": -1, "trial_index": 188}, "uniqueid": "MTK2048:3MTMREQS4WPTP7KFU7PISW5MGVLAWR", "dateTime": 1516662464449}, {"current_trial": 189, "trialdata": {"rt": -1, "trial_type": "single-stim", "stimulus": "<p id=\"stim\">7</p>", "internal_node_id": "0.0-141.0-3.0", "time_elapsed": 847522, "key_press": -1, "trial_index": 189}, "uniqueid": "MTK2048:3MTMREQS4WPTP7KFU7PISW5MGVLAWR", "dateTime": 1516662465450}, {"current_trial": 190, "trialdata": {"rt": -1, "trial_type": "single-stim", "stimulus": "<p id=\"stim\">6</p>", "internal_node_id": "0.0-141.0-4.0", "time_elapsed": 848523, "key_press": -1, "trial_index": 190}, "uniqueid": "MTK2048:3MTMREQS4WPTP7KFU7PISW5MGVLAWR", "dateTime": 1516662466451}, {"current_trial": 191, "trialdata": {"rt": -1, "trial_type": "single-stim", "stimulus": "<p id=\"stim\">5</p>", "internal_node_id": "0.0-141.0-5.0", "time_elapsed": 849524, "key_press": -1, "trial_index": 191}, "uniqueid": "MTK2048:3MTMREQS4WPTP7KFU7PISW5MGVLAWR", "dateTime": 1516662467452}, {"current_trial": 192, "trialdata": {"rt": -1, "trial_type": "single-stim", "stimulus": "<p id=\"stim\">4</p>", "internal_node_id": "0.0-141.0-6.0", "time_elapsed": 850525, "key_press": -1, "trial_index": 192}, "uniqueid": "MTK2048:3MTMREQS4WPTP7KFU7PISW5MGVLAWR", "dateTime": 1516662468453}, {"current_trial": 193, "trialdata": {"rt": -1, "trial_type": "single-stim", "stimulus": "<p id=\"stim\">3</p>", "internal_node_id": "0.0-141.0-7.0", "time_elapsed": 851526, "key_press": -1, "trial_index": 193}, "uniqueid": "MTK2048:3MTMREQS4WPTP7KFU7PISW5MGVLAWR", "dateTime": 1516662469454}, {"current_trial": 194, "trialdata": {"rt": -1, "trial_type": "single-stim", "stimulus": "<p id=\"stim\">2</p>", "internal_node_id": "0.0-141.0-8.0", "time_elapsed": 852527, "key_press": -1, "trial_index": 194}, "uniqueid": "MTK2048:3MTMREQS4WPTP7KFU7PISW5MGVLAWR", "dateTime": 1516662470455}, {"current_trial": 195, "trialdata": {"rt": -1, "trial_type": "single-stim", "stimulus": "<p id=\"stim\">1</p>", "internal_node_id": "0.0-141.0-9.0", "time_elapsed": 853528, "key_press": -1, "trial_index": 195}, "uniqueid": "MTK2048:3MTMREQS4WPTP7KFU7PISW5MGVLAWR", "dateTime": 1516662471456}, {"current_trial": 196, "trialdata": {"rt": -1, "trial_type": "single-stim", "stimulus": "<p id=\"stim\">+</p>", "internal_node_id": "0.0-142.0-0.0", "time_elapsed": 855028, "key_press": -1, "type": "FIXATION", "trial_index": 196}, "uniqueid": "MTK2048:3MTMREQS4WPTP7KFU7PISW5MGVLAWR", "dateTime": 1516662472957}, {"current_trial": 197, "trialdata": {"rt": -1, "trial_type": "single-stim", "word": "outfit", "stimulus": "<p id=\"stim\">OUTFIT</p>", "conditions": [12, 800, "v", 24000], "internal_node_id": "0.0-143.0", "trial": 5, "time_elapsed": 855829, "serialpos": 0, "key_press": -1, "wordID": 987, "type": "PRES_VIS", "trial_index": 197}, "uniqueid": "MTK2048:3MTMREQS4WPTP7KFU7PISW5MGVLAWR", "dateTime": 1516662473757}, {"current_trial": 198, "trialdata": {"rt": -1, "trial_type": "single-stim", "word": "leopard", "stimulus": "<p id=\"stim\">LEOPARD</p>", "conditions": [12, 800, "v", 24000], "internal_node_id": "0.0-144.0", "trial": 5, "time_elapsed": 857631, "serialpos": 1, "key_press": -1, "wordID": 811, "type": "PRES_VIS", "trial_index": 198}, "uniqueid": "MTK2048:3MTMREQS4WPTP7KFU7PISW5MGVLAWR", "dateTime": 1516662475559}, {"current_trial": 199, "trialdata": {"rt": -1, "trial_type": "single-stim", "word": "robin", "stimulus": "<p id=\"stim\">ROBIN</p>", "conditions": [12, 800, "v", 24000], "internal_node_id": "0.0-145.0", "trial": 5, "time_elapsed": 859425, "serialpos": 2, "key_press": -1, "wordID": 1198, "type": "PRES_VIS", "trial_index": 199}, "uniqueid": "MTK2048:3MTMREQS4WPTP7KFU7PISW5MGVLAWR", "dateTime": 1516662477353}, {"current_trial": 200, "trialdata": {"rt": -1, "trial_type": "single-stim", "word": "sunset", "stimulus": "<p id=\"stim\">SUNSET</p>", "conditions": [12, 800, "v", 24000], "internal_node_id": "0.0-146.0", "trial": 5, "time_elapsed": 861028, "serialpos": 3, "key_press": -1, "wordID": 1407, "type": "PRES_VIS", "trial_index": 200}, "uniqueid": "MTK2048:3MTMREQS4WPTP7KFU7PISW5MGVLAWR", "dateTime": 1516662478956}, {"current_trial": 201, "trialdata": {"rt": -1, "trial_type": "single-stim", "word": "necklace", "stimulus": "<p id=\"stim\">NECKLACE</p>", "conditions": [12, 800, "v", 24000], "internal_node_id": "0.0-147.0", "trial": 5, "time_elapsed": 863020, "serialpos": 4, "key_press": -1, "wordID": 939, "type": "PRES_VIS", "trial_index": 201}, "uniqueid": "MTK2048:3MTMREQS4WPTP7KFU7PISW5MGVLAWR", "dateTime": 1516662480948}, {"current_trial": 202, "trialdata": {"rt": -1, "trial_type": "single-stim", "word": "fragrance", "stimulus": "<p id=\"stim\">FRAGRANCE</p>", "conditions": [12, 800, "v", 24000], "internal_node_id": "0.0-148.0", "trial": 5, "time_elapsed": 864661, "serialpos": 5, "key_press": -1, "wordID": 598, "type": "PRES_VIS", "trial_index": 202}, "uniqueid": "MTK2048:3MTMREQS4WPTP7KFU7PISW5MGVLAWR", "dateTime": 1516662482589}, {"current_trial": 203, "trialdata": {"rt": -1, "trial_type": "single-stim", "word": "dress", "stimulus": "<p id=\"stim\">DRESS</p>", "conditions": [12, 800, "v", 24000], "internal_node_id": "0.0-149.0", "trial": 5, "time_elapsed": 866326, "serialpos": 6, "key_press": -1, "wordID": 494, "type": "PRES_VIS", "trial_index": 203}, "uniqueid": "MTK2048:3MTMREQS4WPTP7KFU7PISW5MGVLAWR", "dateTime": 1516662484255}, {"current_trial": 204, "trialdata": {"rt": -1, "trial_type": "single-stim", "word": "widow", "stimulus": "<p id=\"stim\">WIDOW</p>", "conditions": [12, 800, "v", 24000], "internal_node_id": "0.0-150.0", "trial": 5, "time_elapsed": 868153, "serialpos": 7, "key_press": -1, "wordID": 1607, "type": "PRES_VIS", "trial_index": 204}, "uniqueid": "MTK2048:3MTMREQS4WPTP7KFU7PISW5MGVLAWR", "dateTime": 1516662486082}, {"current_trial": 205, "trialdata": {"rt": -1, "trial_type": "single-stim", "word": "suitcase", "stimulus": "<p id=\"stim\">SUITCASE</p>", "conditions": [12, 800, "v", 24000], "internal_node_id": "0.0-151.0", "trial": 5, "time_elapsed": 870125, "serialpos": 8, "key_press": -1, "wordID": 1402, "type": "PRES_VIS", "trial_index": 205}, "uniqueid": "MTK2048:3MTMREQS4WPTP7KFU7PISW5MGVLAWR", "dateTime": 1516662488053}, {"current_trial": 206, "trialdata": {"rt": -1, "trial_type": "single-stim", "word": "handbag", "stimulus": "<p id=\"stim\">HANDBAG</p>", "conditions": [12, 800, "v", 24000], "internal_node_id": "0.0-152.0", "trial": 5, "time_elapsed": 871933, "serialpos": 9, "key_press": -1, "wordID": 683, "type": "PRES_VIS", "trial_index": 206}, "uniqueid": "MTK2048:3MTMREQS4WPTP7KFU7PISW5MGVLAWR", "dateTime": 1516662489861}, {"current_trial": 207, "trialdata": {"rt": -1, "trial_type": "single-stim", "word": "lamp", "stimulus": "<p id=\"stim\">LAMP</p>", "conditions": [12, 800, "v", 24000], "internal_node_id": "0.0-153.0", "trial": 5, "time_elapsed": 873891, "serialpos": 10, "key_press": -1, "wordID": 797, "type": "PRES_VIS", "trial_index": 207}, "uniqueid": "MTK2048:3MTMREQS4WPTP7KFU7PISW5MGVLAWR", "dateTime": 1516662491819}, {"current_trial": 208, "trialdata": {"rt": -1, "trial_type": "single-stim", "word": "sunrise", "stimulus": "<p id=\"stim\">SUNRISE</p>", "conditions": [12, 800, "v", 24000], "internal_node_id": "0.0-154.0", "trial": 5, "time_elapsed": 875699, "serialpos": 11, "key_press": -1, "wordID": 1406, "type": "PRES_VIS", "trial_index": 208}, "uniqueid": "MTK2048:3MTMREQS4WPTP7KFU7PISW5MGVLAWR", "dateTime": 1516662493627}, {"current_trial": 209, "trialdata": {"rt": -1, "trial_type": "single-stim", "stimulus": "", "internal_node_id": "0.0-155.0-0.0", "time_elapsed": 877988, "key_press": -1, "type": "PRE_RECALL_DELAY", "trial_index": 209}, "uniqueid": "MTK2048:3MTMREQS4WPTP7KFU7PISW5MGVLAWR", "dateTime": 1516662495916}, {"current_trial": 210, "trialdata": {"rt": -1000, "trial_type": "single-audio", "stimulus": "/static/audio/400Hz.wav", "internal_node_id": "0.0-156.0", "time_elapsed": 878494, "key_press": -1, "type": "PRE_RECALL_ALERT", "trial_index": 210}, "uniqueid": "MTK2048:3MTMREQS4WPTP7KFU7PISW5MGVLAWR", "dateTime": 1516662496422}, {"current_trial": 211, "trialdata": {"rt": [13286, 16584, 21171, 24607, 28721, 33609, 46682, 51721, 54407, 57910], "recwords": ["outfit", "robin", "necklace", "widow", "handbag", "sunrise", "leopard", "sunset", "dress", "suitcase"], "key_times": [10651, 10951, 11281, 12152, 12426, 12797, 13286, 14759, 15144, 15609, 15899, 16132, 16584, 18395, 18709, 18997, 19647, 19855, 20098, 20479, 20642, 21171, 22713, 23075, 23587, 23872, 24226, 24607, 26425, 26615, 26833, 27165, 27694, 27893, 28245, 28721, 30387, 30732, 30977, 31464, 31790, 32203, 32459, 33609, 42128, 43039, 43285, 43812, 44487, 45725, 46029, 46682, 47581, 48364, 49634, 50127, 50979, 51368, 51721, 52301, 52500, 52704, 53011, 53222, 54407, 54991, 55311, 55491, 55738, 56752, 56944, 57197, 57379, 57910, 59059, 59269, 59550], "trial_type": "free-recall", "conditions": [12, 800, "v", 24000], "internal_node_id": "0.0-157.0-0.0", "key_presses": [79, 85, 84, 70, 73, 84, 13, 82, 79, 66, 73, 78, 13, 78, 69, 67, 75, 76, 65, 67, 69, 13, 87, 73, 68, 79, 87, 13, 72, 65, 78, 68, 66, 65, 71, 13, 83, 85, 78, 82, 73, 83, 69, 13, 76, 69, 79, 80, 65, 82, 68, 13, 83, 85, 78, 83, 69, 84, 13, 68, 82, 69, 83, 83, 13, 83, 85, 73, 84, 67, 65, 83, 69, 13, 72, 65, 78], "trial": 5, "time_elapsed": 938496, "type": "FREE_RECALL", "trial_index": 211}, "uniqueid": "MTK2048:3MTMREQS4WPTP7KFU7PISW5MGVLAWR", "dateTime": 1516662556426}, {"current_trial": 212, "trialdata": {"rt": 2054, "trial_type": "text", "internal_node_id": "0.0-158.0", "time_elapsed": 942553, "key_press": 32, "type": "INSTRUCTIONS", "trial_index": 212}, "uniqueid": "MTK2048:3MTMREQS4WPTP7KFU7PISW5MGVLAWR", "dateTime": 1516662560481}, {"current_trial": 213, "trialdata": {"rt": [3696, 7026, 9459, 11891], "trial_type": "math-distractor", "key_times": [2117, 2576, 3696, 6625, 6897, 7026, 9302, 9459, 11262, 11680, 11891], "responses": ["10", "13", "7", "10"], "num2": [3, 7, 2, 5, 3], "num3": [2, 5, 2, 1, 6], "conditions": [12, 800, "v", 12000], "internal_node_id": "0.0-159.0", "key_presses": [49, 48, 13, 49, 51, 13, 55, 13, 49, 48, 13], "trial": 6, "time_elapsed": 956557, "type": "DISTRACTOR", "trial_index": 213, "num1": [5, 1, 3, 4, 2]}, "uniqueid": "MTK2048:3MTMREQS4WPTP7KFU7PISW5MGVLAWR", "dateTime": 1516662574486}, {"current_trial": 214, "trialdata": {"rt": -1, "trial_type": "single-stim", "stimulus": "<p id=\"stim\">10</p>", "internal_node_id": "0.0-160.0-0.0", "time_elapsed": 959560, "key_press": -1, "trial_index": 214}, "uniqueid": "MTK2048:3MTMREQS4WPTP7KFU7PISW5MGVLAWR", "dateTime": 1516662577488}, {"current_trial": 215, "trialdata": {"rt": -1, "trial_type": "single-stim", "stimulus": "<p id=\"stim\">9</p>", "internal_node_id": "0.0-160.0-1.0", "time_elapsed": 960561, "key_press": -1, "trial_index": 215}, "uniqueid": "MTK2048:3MTMREQS4WPTP7KFU7PISW5MGVLAWR", "dateTime": 1516662578489}, {"current_trial": 216, "trialdata": {"rt": -1, "trial_type": "single-stim", "stimulus": "<p id=\"stim\">8</p>", "internal_node_id": "0.0-160.0-2.0", "time_elapsed": 961562, "key_press": -1, "trial_index": 216}, "uniqueid": "MTK2048:3MTMREQS4WPTP7KFU7PISW5MGVLAWR", "dateTime": 1516662579490}, {"current_trial": 217, "trialdata": {"rt": -1, "trial_type": "single-stim", "stimulus": "<p id=\"stim\">7</p>", "internal_node_id": "0.0-160.0-3.0", "time_elapsed": 962563, "key_press": -1, "trial_index": 217}, "uniqueid": "MTK2048:3MTMREQS4WPTP7KFU7PISW5MGVLAWR", "dateTime": 1516662580491}, {"current_trial": 218, "trialdata": {"rt": -1, "trial_type": "single-stim", "stimulus": "<p id=\"stim\">6</p>", "internal_node_id": "0.0-160.0-4.0", "time_elapsed": 963564, "key_press": -1, "trial_index": 218}, "uniqueid": "MTK2048:3MTMREQS4WPTP7KFU7PISW5MGVLAWR", "dateTime": 1516662581492}, {"current_trial": 219, "trialdata": {"rt": -1, "trial_type": "single-stim", "stimulus": "<p id=\"stim\">5</p>", "internal_node_id": "0.0-160.0-5.0", "time_elapsed": 964565, "key_press": -1, "trial_index": 219}, "uniqueid": "MTK2048:3MTMREQS4WPTP7KFU7PISW5MGVLAWR", "dateTime": 1516662582493}, {"current_trial": 220, "trialdata": {"rt": -1, "trial_type": "single-stim", "stimulus": "<p id=\"stim\">4</p>", "internal_node_id": "0.0-160.0-6.0", "time_elapsed": 965566, "key_press": -1, "trial_index": 220}, "uniqueid": "MTK2048:3MTMREQS4WPTP7KFU7PISW5MGVLAWR", "dateTime": 1516662583494}, {"current_trial": 221, "trialdata": {"rt": -1, "trial_type": "single-stim", "stimulus": "<p id=\"stim\">3</p>", "internal_node_id": "0.0-160.0-7.0", "time_elapsed": 966567, "key_press": -1, "trial_index": 221}, "uniqueid": "MTK2048:3MTMREQS4WPTP7KFU7PISW5MGVLAWR", "dateTime": 1516662584495}, {"current_trial": 222, "trialdata": {"rt": -1, "trial_type": "single-stim", "stimulus": "<p id=\"stim\">2</p>", "internal_node_id": "0.0-160.0-8.0", "time_elapsed": 967568, "key_press": -1, "trial_index": 222}, "uniqueid": "MTK2048:3MTMREQS4WPTP7KFU7PISW5MGVLAWR", "dateTime": 1516662585496}, {"current_trial": 223, "trialdata": {"rt": -1, "trial_type": "single-stim", "stimulus": "<p id=\"stim\">1</p>", "internal_node_id": "0.0-160.0-9.0", "time_elapsed": 968570, "key_press": -1, "trial_index": 223}, "uniqueid": "MTK2048:3MTMREQS4WPTP7KFU7PISW5MGVLAWR", "dateTime": 1516662586498}, {"current_trial": 224, "trialdata": {"rt": -1, "trial_type": "single-stim", "stimulus": "<p id=\"stim\">+</p>", "internal_node_id": "0.0-161.0-0.0", "time_elapsed": 970071, "key_press": -1, "type": "FIXATION", "trial_index": 224}, "uniqueid": "MTK2048:3MTMREQS4WPTP7KFU7PISW5MGVLAWR", "dateTime": 1516662587999}, {"current_trial": 225, "trialdata": {"rt": -1, "trial_type": "single-stim", "word": "woman", "stimulus": "<p id=\"stim\">WOMAN</p>", "conditions": [12, 800, "v", 12000], "internal_node_id": "0.0-162.0", "trial": 6, "time_elapsed": 970872, "serialpos": 0, "key_press": -1, "wordID": 1619, "type": "PRES_VIS", "trial_index": 225}, "uniqueid": "MTK2048:3MTMREQS4WPTP7KFU7PISW5MGVLAWR", "dateTime": 1516662588801}, {"current_trial": 226, "trialdata": {"rt": -1, "trial_type": "single-stim", "word": "transplant", "stimulus": "<p id=\"stim\">TRANSPLANT</p>", "conditions": [12, 800, "v", 12000], "internal_node_id": "0.0-163.0", "trial": 6, "time_elapsed": 972736, "serialpos": 1, "key_press": -1, "wordID": 1495, "type": "PRES_VIS", "trial_index": 226}, "uniqueid": "MTK2048:3MTMREQS4WPTP7KFU7PISW5MGVLAWR", "dateTime": 1516662590664}, {"current_trial": 227, "trialdata": {"rt": -1, "trial_type": "single-stim", "word": "cook", "stimulus": "<p id=\"stim\">COOK</p>", "conditions": [12, 800, "v", 12000], "internal_node_id": "0.0-164.0", "trial": 6, "time_elapsed": 974719, "serialpos": 2, "key_press": -1, "wordID": 371, "type": "PRES_VIS", "trial_index": 227}, "uniqueid": "MTK2048:3MTMREQS4WPTP7KFU7PISW5MGVLAWR", "dateTime": 1516662592647}, {"current_trial": 228, "trialdata": {"rt": -1, "trial_type": "single-stim", "word": "padding", "stimulus": "<p id=\"stim\">PADDING</p>", "conditions": [12, 800, "v", 12000], "internal_node_id": "0.0-165.0", "trial": 6, "time_elapsed": 976481, "serialpos": 3, "key_press": -1, "wordID": 998, "type": "PRES_VIS", "trial_index": 228}, "uniqueid": "MTK2048:3MTMREQS4WPTP7KFU7PISW5MGVLAWR", "dateTime": 1516662594409}, {"current_trial": 229, "trialdata": {"rt": -1, "trial_type": "single-stim", "word": "binder", "stimulus": "<p id=\"stim\">BINDER</p>", "conditions": [12, 800, "v", 12000], "internal_node_id": "0.0-166.0", "trial": 6, "time_elapsed": 978193, "serialpos": 4, "key_press": -1, "wordID": 126, "type": "PRES_VIS", "trial_index": 229}, "uniqueid": "MTK2048:3MTMREQS4WPTP7KFU7PISW5MGVLAWR", "dateTime": 1516662596121}, {"current_trial": 230, "trialdata": {"rt": -1, "trial_type": "single-stim", "word": "fruit", "stimulus": "<p id=\"stim\">FRUIT</p>", "conditions": [12, 800, "v", 12000], "internal_node_id": "0.0-167.0", "trial": 6, "time_elapsed": 979932, "serialpos": 5, "key_press": -1, "wordID": 609, "type": "PRES_VIS", "trial_index": 230}, "uniqueid": "MTK2048:3MTMREQS4WPTP7KFU7PISW5MGVLAWR", "dateTime": 1516662597860}, {"current_trial": 231, "trialdata": {"rt": -1, "trial_type": "single-stim", "word": "victim", "stimulus": "<p id=\"stim\">VICTIM</p>", "conditions": [12, 800, "v", 12000], "internal_node_id": "0.0-168.0", "trial": 6, "time_elapsed": 981540, "serialpos": 6, "key_press": -1, "wordID": 1561, "type": "PRES_VIS", "trial_index": 231}, "uniqueid": "MTK2048:3MTMREQS4WPTP7KFU7PISW5MGVLAWR", "dateTime": 1516662599468}, {"current_trial": 232, "trialdata": {"rt": -1, "trial_type": "single-stim", "word": "banker", "stimulus": "<p id=\"stim\">BANKER</p>", "conditions": [12, 800, "v", 12000], "internal_node_id": "0.0-169.0", "trial": 6, "time_elapsed": 983364, "serialpos": 7, "key_press": -1, "wordID": 83, "type": "PRES_VIS", "trial_index": 232}, "uniqueid": "MTK2048:3MTMREQS4WPTP7KFU7PISW5MGVLAWR", "dateTime": 1516662601292}, {"current_trial": 233, "trialdata": {"rt": -1, "trial_type": "single-stim", "word": "rooster", "stimulus": "<p id=\"stim\">ROOSTER</p>", "conditions": [12, 800, "v", 12000], "internal_node_id": "0.0-170.0", "trial": 6, "time_elapsed": 985067, "serialpos": 8, "key_press": -1, "wordID": 1208, "type": "PRES_VIS", "trial_index": 233}, "uniqueid": "MTK2048:3MTMREQS4WPTP7KFU7PISW5MGVLAWR", "dateTime": 1516662602995}, {"current_trial": 234, "trialdata": {"rt": -1, "trial_type": "single-stim", "word": "dentist", "stimulus": "<p id=\"stim\">DENTIST</p>", "conditions": [12, 800, "v", 12000], "internal_node_id": "0.0-171.0", "trial": 6, "time_elapsed": 986826, "serialpos": 9, "key_press": -1, "wordID": 446, "type": "PRES_VIS", "trial_index": 234}, "uniqueid": "MTK2048:3MTMREQS4WPTP7KFU7PISW5MGVLAWR", "dateTime": 1516662604754}, {"current_trial": 235, "trialdata": {"rt": -1, "trial_type": "single-stim", "word": "pasta", "stimulus": "<p id=\"stim\">PASTA</p>", "conditions": [12, 800, "v", 12000], "internal_node_id": "0.0-172.0", "trial": 6, "time_elapsed": 988821, "serialpos": 10, "key_press": -1, "wordID": 1020, "type": "PRES_VIS", "trial_index": 235}, "uniqueid": "MTK2048:3MTMREQS4WPTP7KFU7PISW5MGVLAWR", "dateTime": 1516662606749}, {"current_trial": 236, "trialdata": {"rt": -1, "trial_type": "single-stim", "word": "sausage", "stimulus": "<p id=\"stim\">SAUSAGE</p>", "conditions": [12, 800, "v", 12000], "internal_node_id": "0.0-173.0", "trial": 6, "time_elapsed": 990762, "serialpos": 11, "key_press": -1, "wordID": 1237, "type": "PRES_VIS", "trial_index": 236}, "uniqueid": "MTK2048:3MTMREQS4WPTP7KFU7PISW5MGVLAWR", "dateTime": 1516662608690}, {"current_trial": 237, "trialdata": {"rt": -1, "trial_type": "single-stim", "stimulus": "", "internal_node_id": "0.0-174.0-0.0", "time_elapsed": 992983, "key_press": -1, "type": "PRE_RECALL_DELAY", "trial_index": 237}, "uniqueid": "MTK2048:3MTMREQS4WPTP7KFU7PISW5MGVLAWR", "dateTime": 1516662610911}, {"current_trial": 238, "trialdata": {"rt": -1000, "trial_type": "single-audio", "stimulus": "/static/audio/400Hz.wav", "internal_node_id": "0.0-175.0", "time_elapsed": 993486, "key_press": -1, "type": "PRE_RECALL_ALERT", "trial_index": 238}, "uniqueid": "MTK2048:3MTMREQS4WPTP7KFU7PISW5MGVLAWR", "dateTime": 1516662611414}, {"current_trial": 239, "trialdata": {"rt": [12746, 24847, 28146, 31324, 35015, 39627, 47818, 51919, 55898], "recwords": ["women", "transplant", "binder", "victim", "baker", "sausage", "fruit", "banker", "dentist"], "key_times": [4463, 9927, 10175, 10662, 11258, 12746, 20794, 21036, 21315, 21694, 22017, 22521, 22722, 22945, 23278, 23699, 24847, 25781, 26109, 26347, 26713, 26905, 27081, 28146, 28845, 29105, 29218, 29771, 30063, 30945, 31324, 31786, 32035, 33026, 33409, 33619, 35015, 37861, 38091, 38371, 38680, 38936, 39141, 39298, 39627, 45503, 45766, 46097, 46290, 47188, 47818, 49357, 49580, 49947, 50371, 50782, 50985, 51919, 52899, 53083, 53548, 53828, 54323, 54661, 54942, 55898, 59780], "trial_type": "free-recall", "conditions": [12, 800, "v", 12000], "internal_node_id": "0.0-176.0-0.0", "key_presses": [87, 79, 77, 69, 78, 13, 84, 82, 65, 78, 83, 80, 76, 65, 78, 84, 13, 66, 73, 78, 68, 69, 82, 13, 86, 73, 67, 84, 73, 77, 13, 66, 65, 75, 69, 82, 13, 83, 65, 85, 83, 65, 71, 69, 13, 70, 82, 85, 73, 84, 13, 66, 65, 78, 75, 69, 82, 13, 68, 69, 78, 84, 73, 83, 84, 13, 67], "trial": 6, "time_elapsed": 1053488, "type": "FREE_RECALL", "trial_index": 239}, "uniqueid": "MTK2048:3MTMREQS4WPTP7KFU7PISW5MGVLAWR", "dateTime": 1516662671417}, {"current_trial": 240, "trialdata": {"rt": 675, "trial_type": "text", "internal_node_id": "0.0-177.0", "time_elapsed": 1056166, "key_press": 32, "type": "INSTRUCTIONS", "trial_index": 240}, "uniqueid": "MTK2048:3MTMREQS4WPTP7KFU7PISW5MGVLAWR", "dateTime": 1516662674095}, {"current_trial": 241, "trialdata": {"rt": [2984, 8287], "trial_type": "math-distractor", "key_times": [2299, 2601, 2984, 5781, 6309, 7566, 7889, 8287, 11905], "responses": ["13", "19"], "num2": [7, 5, 8], "num3": [2, 8, 6], "conditions": [12, 1600, "v", 12000], "internal_node_id": "0.0-178.0", "key_presses": [49, 51, 13, 49, 48, 8, 57, 13, 49], "trial": 7, "time_elapsed": 1070169, "type": "DISTRACTOR", "trial_index": 241, "num1": [4, 6, 3]}, "uniqueid": "MTK2048:3MTMREQS4WPTP7KFU7PISW5MGVLAWR", "dateTime": 1516662688097}, {"current_trial": 242, "trialdata": {"rt": -1, "trial_type": "single-stim", "stimulus": "<p id=\"stim\">10</p>", "internal_node_id": "0.0-179.0-0.0", "time_elapsed": 1073173, "key_press": -1, "trial_index": 242}, "uniqueid": "MTK2048:3MTMREQS4WPTP7KFU7PISW5MGVLAWR", "dateTime": 1516662691101}, {"current_trial": 243, "trialdata": {"rt": -1, "trial_type": "single-stim", "stimulus": "<p id=\"stim\">9</p>", "internal_node_id": "0.0-179.0-1.0", "time_elapsed": 1074174, "key_press": -1, "trial_index": 243}, "uniqueid": "MTK2048:3MTMREQS4WPTP7KFU7PISW5MGVLAWR", "dateTime": 1516662692102}, {"current_trial": 244, "trialdata": {"rt": -1, "trial_type": "single-stim", "stimulus": "<p id=\"stim\">8</p>", "internal_node_id": "0.0-179.0-2.0", "time_elapsed": 1075175, "key_press": -1, "trial_index": 244}, "uniqueid": "MTK2048:3MTMREQS4WPTP7KFU7PISW5MGVLAWR", "dateTime": 1516662693103}, {"current_trial": 245, "trialdata": {"rt": -1, "trial_type": "single-stim", "stimulus": "<p id=\"stim\">7</p>", "internal_node_id": "0.0-179.0-3.0", "time_elapsed": 1076175, "key_press": -1, "trial_index": 245}, "uniqueid": "MTK2048:3MTMREQS4WPTP7KFU7PISW5MGVLAWR", "dateTime": 1516662694104}, {"current_trial": 246, "trialdata": {"rt": -1, "trial_type": "single-stim", "stimulus": "<p id=\"stim\">6</p>", "internal_node_id": "0.0-179.0-4.0", "time_elapsed": 1077177, "key_press": -1, "trial_index": 246}, "uniqueid": "MTK2048:3MTMREQS4WPTP7KFU7PISW5MGVLAWR", "dateTime": 1516662695105}, {"current_trial": 247, "trialdata": {"rt": -1, "trial_type": "single-stim", "stimulus": "<p id=\"stim\">5</p>", "internal_node_id": "0.0-179.0-5.0", "time_elapsed": 1078178, "key_press": -1, "trial_index": 247}, "uniqueid": "MTK2048:3MTMREQS4WPTP7KFU7PISW5MGVLAWR", "dateTime": 1516662696106}, {"current_trial": 248, "trialdata": {"rt": -1, "trial_type": "single-stim", "stimulus": "<p id=\"stim\">4</p>", "internal_node_id": "0.0-179.0-6.0", "time_elapsed": 1079179, "key_press": -1, "trial_index": 248}, "uniqueid": "MTK2048:3MTMREQS4WPTP7KFU7PISW5MGVLAWR", "dateTime": 1516662697107}, {"current_trial": 249, "trialdata": {"rt": -1, "trial_type": "single-stim", "stimulus": "<p id=\"stim\">3</p>", "internal_node_id": "0.0-179.0-7.0", "time_elapsed": 1080180, "key_press": -1, "trial_index": 249}, "uniqueid": "MTK2048:3MTMREQS4W