{"assignmentId": "3ZAK8W07I5LKWQXS75DOL28COAVU0I", "workerId": "MTK2677", "questiondata": {"origin": "United States", "strat-rehearsal": "52", "marital": "Married/Domestic Partnership", "education": "High school diploma", "ethnicity": "Hispanic", "color_depth": 24, "distracted": "No", "wrote-notes": "No", "strat-other": "no", "screen_width": 1366, "avail_screen_width": 1366, "avail_screen_height": 720, "strat-image": "49", "language": "English", "gender": "Male", "age": "51", "gender_other": "", "race": ["White"], "strat-categorize": "81", "pixel_depth": 24, "strat-spatial": "78", "strat-story": "19", "race_other": "", "screen_height": 768}, "bonus": 0, "hitId": "3MJ28H2Y1EFMR812IN2PE7GU3OQO5H", "counterbalance": 1706, "useragent": "Mozilla/5.0 (X11; CrOS x86_64 10176.68.0) AppleWebKit/537.36 (KHTML, like Gecko) Chrome/64.0.3282.144 Safari/537.36", "eventdata": [{"eventtype": "initialized", "interval": 0, "value": null, "timestamp": 1519234495418}, {"eventtype": "window_resize", "interval": 0, "value": [1366, 656], "timestamp": 1519234495418}], "data": [{"current_trial": 0, "trialdata": {"rt": 6546, "trial_type": "text", "internal_node_id": "0.0-0.0", "time_elapsed": 6549, "key_press": 83, "type": "INSTRUCTIONS", "trial_index": 0}, "uniqueid": "MTK2677:3ZAK8W07I5LKWQXS75DOL28COAVU0I", "dateTime": 1519234502302}, {"current_trial": 1, "trialdata": {"rt": 19365, "trial_type": "text", "internal_node_id": "0.0-1.0", "time_elapsed": 25922, "key_press": 83, "type": "INSTRUCTIONS", "trial_index": 1}, "uniqueid": "MTK2677:3ZAK8W07I5LKWQXS75DOL28COAVU0I", "dateTime": 1519234521674}, {"current_trial": 2, "trialdata": {"rt": [45693], "trial_type": "audio-test", "responses": ["ocean"], "internal_node_id": "0.0-2.0", "time_elapsed": 71670, "type": "AUDIO_TEST", "trial_index": 2}, "uniqueid": "MTK2677:3ZAK8W07I5LKWQXS75DOL28COAVU0I", "dateTime": 1519234567422}, {"current_trial": 3, "trialdata": {"rt": [13852], "trial_type": "audio-test", "responses": ["crystal"], "internal_node_id": "0.0-3.0", "time_elapsed": 85545, "type": "AUDIO_TEST", "trial_index": 3}, "uniqueid": "MTK2677:3ZAK8W07I5LKWQXS75DOL28COAVU0I", "dateTime": 1519234581297}, {"current_trial": 4, "trialdata": {"rt": [10302], "trial_type": "audio-test", "responses": ["spice"], "internal_node_id": "0.0-4.0", "time_elapsed": 95859, "type": "AUDIO_TEST", "trial_index": 4}, "uniqueid": "MTK2677:3ZAK8W07I5LKWQXS75DOL28COAVU0I", "dateTime": 1519234591611}, {"current_trial": 5, "trialdata": {"rt": 42872, "trial_type": "survey-text", "responses": "{\"Q0\":\"10:00 pm\",\"Q1\":\"5:00 Am\",\"Q2\":\"5\"}", "internal_node_id": "0.0-5.0", "time_elapsed": 139486, "type": "SLEEP_SURVEY", "trial_index": 5}, "uniqueid": "MTK2677:3ZAK8W07I5LKWQXS75DOL28COAVU0I", "dateTime": 1519234635239}, {"current_trial": 6, "trialdata": {"rt": 169201, "trial_type": "text", "internal_node_id": "0.0-6.0", "time_elapsed": 309692, "key_press": 83, "type": "INSTRUCTIONS", "trial_index": 6}, "uniqueid": "MTK2677:3ZAK8W07I5LKWQXS75DOL28COAVU0I", "dateTime": 1519234805444}, {"current_trial": 7, "trialdata": {"rt": 16821, "trial_type": "text", "internal_node_id": "0.0-7.0", "time_elapsed": 327017, "key_press": 83, "type": "INSTRUCTIONS", "trial_index": 7}, "uniqueid": "MTK2677:3ZAK8W07I5LKWQXS75DOL28COAVU0I", "dateTime": 1519234822770}, {"current_trial": 8, "trialdata": {"rt": 18233, "trial_type": "text", "internal_node_id": "0.0-8.0", "time_elapsed": 345754, "key_press": 83, "type": "INSTRUCTIONS", "trial_index": 8}, "uniqueid": "MTK2677:3ZAK8W07I5LKWQXS75DOL28COAVU0I", "dateTime": 1519234841506}, {"current_trial": 9, "trialdata": {"rt": [3619, 7086, 12160, 14863, 17479], "trial_type": "math-distractor", "key_times": [2016, 2652, 3619, 5847, 6560, 7086, 11478, 11747, 12160, 14406, 14863, 16790, 17090, 17479], "responses": ["19", "10", "24", "9", "12"], "num2": [5, 1, 7, 1, 8, 8], "num3": [9, 1, 9, 3, 1, 5], "conditions": [18, 1200, "v", 18000], "internal_node_id": "0.0-9.0", "key_presses": [49, 57, 13, 49, 48, 13, 50, 52, 13, 57, 13, 49, 50, 13], "trial": 0, "time_elapsed": 364795, "type": "DISTRACTOR", "trial_index": 9, "num1": [5, 8, 8, 5, 3, 7]}, "uniqueid": "MTK2677:3ZAK8W07I5LKWQXS75DOL28COAVU0I", "dateTime": 1519234860547}, {"current_trial": 10, "trialdata": {"rt": -1, "trial_type": "single-stim", "stimulus": "<p id=\"stim\">10</p>", "internal_node_id": "0.0-10.0-0.0", "time_elapsed": 367797, "key_press": -1, "trial_index": 10}, "uniqueid": "MTK2677:3ZAK8W07I5LKWQXS75DOL28COAVU0I", "dateTime": 1519234863549}, {"current_trial": 11, "trialdata": {"rt": -1, "trial_type": "single-stim", "stimulus": "<p id=\"stim\">9</p>", "internal_node_id": "0.0-10.0-1.0", "time_elapsed": 368799, "key_press": -1, "trial_index": 11}, "uniqueid": "MTK2677:3ZAK8W07I5LKWQXS75DOL28COAVU0I", "dateTime": 1519234864551}, {"current_trial": 12, "trialdata": {"rt": -1, "trial_type": "single-stim", "stimulus": "<p id=\"stim\">8</p>", "internal_node_id": "0.0-10.0-2.0", "time_elapsed": 369801, "key_press": -1, "trial_index": 12}, "uniqueid": "MTK2677:3ZAK8W07I5LKWQXS75DOL28COAVU0I", "dateTime": 1519234865553}, {"current_trial": 13, "trialdata": {"rt": -1, "trial_type": "single-stim", "stimulus": "<p id=\"stim\">7</p>", "internal_node_id": "0.0-10.0-3.0", "time_elapsed": 370805, "key_press": -1, "trial_index": 13}, "uniqueid": "MTK2677:3ZAK8W07I5LKWQXS75DOL28COAVU0I", "dateTime": 1519234866558}, {"current_trial": 14, "trialdata": {"rt": -1, "trial_type": "single-stim", "stimulus": "<p id=\"stim\">6</p>", "internal_node_id": "0.0-10.0-4.0", "time_elapsed": 371808, "key_press": -1, "trial_index": 14}, "uniqueid": "MTK2677:3ZAK8W07I5LKWQXS75DOL28COAVU0I", "dateTime": 1519234867560}, {"current_trial": 15, "trialdata": {"rt": -1, "trial_type": "single-stim", "stimulus": "<p id=\"stim\">5</p>", "internal_node_id": "0.0-10.0-5.0", "time_elapsed": 372810, "key_press": -1, "trial_index": 15}, "uniqueid": "MTK2677:3ZAK8W07I5LKWQXS75DOL28COAVU0I", "dateTime": 1519234868563}, {"current_trial": 16, "trialdata": {"rt": -1, "trial_type": "single-stim", "stimulus": "<p id=\"stim\">4</p>", "internal_node_id": "0.0-10.0-6.0", "time_elapsed": 373812, "key_press": -1, "trial_index": 16}, "uniqueid": "MTK2677:3ZAK8W07I5LKWQXS75DOL28COAVU0I", "dateTime": 1519234869564}, {"current_trial": 17, "trialdata": {"rt": -1, "trial_type": "single-stim", "stimulus": "<p id=\"stim\">3</p>", "internal_node_id": "0.0-10.0-7.0", "time_elapsed": 374823, "key_press": -1, "trial_index": 17}, "uniqueid": "MTK2677:3ZAK8W07I5LKWQXS75DOL28COAVU0I", "dateTime": 1519234870575}, {"current_trial": 18, "trialdata": {"rt": -1, "trial_type": "single-stim", "stimulus": "<p id=\"stim\">2</p>", "internal_node_id": "0.0-10.0-8.0", "time_elapsed": 375826, "key_press": -1, "trial_index": 18}, "uniqueid": "MTK2677:3ZAK8W07I5LKWQXS75DOL28COAVU0I", "dateTime": 1519234871578}, {"current_trial": 19, "trialdata": {"rt": -1, "trial_type": "single-stim", "stimulus": "<p id=\"stim\">1</p>", "internal_node_id": "0.0-10.0-9.0", "time_elapsed": 376828, "key_press": -1, "trial_index": 19}, "uniqueid": "MTK2677:3ZAK8W07I5LKWQXS75DOL28COAVU0I", "dateTime": 1519234872580}, {"current_trial": 20, "trialdata": {"rt": -1, "trial_type": "single-stim", "stimulus": "<p id=\"stim\">+</p>", "internal_node_id": "0.0-11.0-0.0", "time_elapsed": 378331, "key_press": -1, "type": "FIXATION", "trial_index": 20}, "uniqueid": "MTK2677:3ZAK8W07I5LKWQXS75DOL28COAVU0I", "dateTime": 1519234874083}, {"current_trial": 21, "trialdata": {"rt": -1, "trial_type": "single-stim", "word": "patient", "stimulus": "<p id=\"stim\">PATIENT</p>", "conditions": [18, 1200, "v", 18000], "internal_node_id": "0.0-12.0", "trial": 0, "time_elapsed": 379541, "serialpos": 0, "key_press": -1, "wordID": 1023, "type": "PRES_VIS", "trial_index": 21}, "uniqueid": "MTK2677:3ZAK8W07I5LKWQXS75DOL28COAVU0I", "dateTime": 1519234875294}, {"current_trial": 22, "trialdata": {"rt": -1, "trial_type": "single-stim", "word": "body", "stimulus": "<p id=\"stim\">BODY</p>", "conditions": [18, 1200, "v", 18000], "internal_node_id": "0.0-13.0", "trial": 0, "time_elapsed": 381784, "serialpos": 1, "key_press": -1, "wordID": 144, "type": "PRES_VIS", "trial_index": 22}, "uniqueid": "MTK2677:3ZAK8W07I5LKWQXS75DOL28COAVU0I", "dateTime": 1519234877536}, {"current_trial": 23, "trialdata": {"rt": -1, "trial_type": "single-stim", "word": "wrist", "stimulus": "<p id=\"stim\">WRIST</p>", "conditions": [18, 1200, "v", 18000], "internal_node_id": "0.0-14.0", "trial": 0, "time_elapsed": 384108, "serialpos": 2, "key_press": -1, "wordID": 1625, "type": "PRES_VIS", "trial_index": 23}, "uniqueid": "MTK2677:3ZAK8W07I5LKWQXS75DOL28COAVU0I", "dateTime": 1519234879861}, {"current_trial": 24, "trialdata": {"rt": -1, "trial_type": "single-stim", "word": "husband", "stimulus": "<p id=\"stim\">HUSBAND</p>", "conditions": [18, 1200, "v", 18000], "internal_node_id": "0.0-15.0", "trial": 0, "time_elapsed": 386308, "serialpos": 3, "key_press": -1, "wordID": 727, "type": "PRES_VIS", "trial_index": 24}, "uniqueid": "MTK2677:3ZAK8W07I5LKWQXS75DOL28COAVU0I", "dateTime": 1519234882060}, {"current_trial": 25, "trialdata": {"rt": -1, "trial_type": "single-stim", "word": "blockade", "stimulus": "<p id=\"stim\">BLOCKADE</p>", "conditions": [18, 1200, "v", 18000], "internal_node_id": "0.0-16.0", "trial": 0, "time_elapsed": 388551, "serialpos": 4, "key_press": -1, "wordID": 136, "type": "PRES_VIS", "trial_index": 25}, "uniqueid": "MTK2677:3ZAK8W07I5LKWQXS75DOL28COAVU0I", "dateTime": 1519234884303}, {"current_trial": 26, "trialdata": {"rt": -1, "trial_type": "single-stim", "word": "fireman", "stimulus": "<p id=\"stim\">FIREMAN</p>", "conditions": [18, 1200, "v", 18000], "internal_node_id": "0.0-17.0", "trial": 0, "time_elapsed": 390954, "serialpos": 5, "key_press": -1, "wordID": 568, "type": "PRES_VIS", "trial_index": 26}, "uniqueid": "MTK2677:3ZAK8W07I5LKWQXS75DOL28COAVU0I", "dateTime": 1519234886706}, {"current_trial": 27, "trialdata": {"rt": -1, "trial_type": "single-stim", "word": "stream", "stimulus": "<p id=\"stim\">STREAM</p>", "conditions": [18, 1200, "v", 18000], "internal_node_id": "0.0-18.0", "trial": 0, "time_elapsed": 392988, "serialpos": 6, "key_press": -1, "wordID": 1391, "type": "PRES_VIS", "trial_index": 27}, "uniqueid": "MTK2677:3ZAK8W07I5LKWQXS75DOL28COAVU0I", "dateTime": 1519234888741}, {"current_trial": 28, "trialdata": {"rt": -1, "trial_type": "single-stim", "word": "driver", "stimulus": "<p id=\"stim\">DRIVER</p>", "conditions": [18, 1200, "v", 18000], "internal_node_id": "0.0-19.0", "trial": 0, "time_elapsed": 395193, "serialpos": 7, "key_press": -1, "wordID": 498, "type": "PRES_VIS", "trial_index": 28}, "uniqueid": "MTK2677:3ZAK8W07I5LKWQXS75DOL28COAVU0I", "dateTime": 1519234890946}, {"current_trial": 29, "trialdata": {"rt": -1, "trial_type": "single-stim", "word": "quail", "stimulus": "<p id=\"stim\">QUAIL</p>", "conditions": [18, 1200, "v", 18000], "internal_node_id": "0.0-20.0", "trial": 0, "time_elapsed": 397583, "serialpos": 8, "key_press": -1, "wordID": 1146, "type": "PRES_VIS", "trial_index": 29}, "uniqueid": "MTK2677:3ZAK8W07I5LKWQXS75DOL28COAVU0I", "dateTime": 1519234893335}, {"current_trial": 30, "trialdata": {"rt": -1, "trial_type": "single-stim", "word": "crown", "stimulus": "<p id=\"stim\">CROWN</p>", "conditions": [18, 1200, "v", 18000], "internal_node_id": "0.0-21.0", "trial": 0, "time_elapsed": 399756, "serialpos": 9, "key_press": -1, "wordID": 414, "type": "PRES_VIS", "trial_index": 30}, "uniqueid": "MTK2677:3ZAK8W07I5LKWQXS75DOL28COAVU0I", "dateTime": 1519234895508}, {"current_trial": 31, "trialdata": {"rt": -1, "trial_type": "single-stim", "word": "rust", "stimulus": "<p id=\"stim\">RUST</p>", "conditions": [18, 1200, "v", 18000], "internal_node_id": "0.0-22.0", "trial": 0, "time_elapsed": 401950, "serialpos": 10, "key_press": -1, "wordID": 1218, "type": "PRES_VIS", "trial_index": 31}, "uniqueid": "MTK2677:3ZAK8W07I5LKWQXS75DOL28COAVU0I", "dateTime": 1519234897702}, {"current_trial": 32, "trialdata": {"rt": -1, "trial_type": "single-stim", "word": "army", "stimulus": "<p id=\"stim\">ARMY</p>", "conditions": [18, 1200, "v", 18000], "internal_node_id": "0.0-23.0", "trial": 0, "time_elapsed": 404147, "serialpos": 11, "key_press": -1, "wordID": 38, "type": "PRES_VIS", "trial_index": 32}, "uniqueid": "MTK2677:3ZAK8W07I5LKWQXS75DOL28COAVU0I", "dateTime": 1519234899900}, {"current_trial": 33, "trialdata": {"rt": -1, "trial_type": "single-stim", "word": "mildew", "stimulus": "<p id=\"stim\">MILDEW</p>", "conditions": [18, 1200, "v", 18000], "internal_node_id": "0.0-24.0", "trial": 0, "time_elapsed": 406176, "serialpos": 12, "key_press": -1, "wordID": 892, "type": "PRES_VIS", "trial_index": 33}, "uniqueid": "MTK2677:3ZAK8W07I5LKWQXS75DOL28COAVU0I", "dateTime": 1519234901928}, {"current_trial": 34, "trialdata": {"rt": -1, "trial_type": "single-stim", "word": "report", "stimulus": "<p id=\"stim\">REPORT</p>", "conditions": [18, 1200, "v", 18000], "internal_node_id": "0.0-25.0", "trial": 0, "time_elapsed": 408306, "serialpos": 13, "key_press": -1, "wordID": 1183, "type": "PRES_VIS", "trial_index": 34}, "uniqueid": "MTK2677:3ZAK8W07I5LKWQXS75DOL28COAVU0I", "dateTime": 1519234904059}, {"current_trial": 35, "trialdata": {"rt": -1, "trial_type": "single-stim", "word": "hood", "stimulus": "<p id=\"stim\">HOOD</p>", "conditions": [18, 1200, "v", 18000], "internal_node_id": "0.0-26.0", "trial": 0, "time_elapsed": 410439, "serialpos": 14, "key_press": -1, "wordID": 713, "type": "PRES_VIS", "trial_index": 35}, "uniqueid": "MTK2677:3ZAK8W07I5LKWQXS75DOL28COAVU0I", "dateTime": 1519234906192}, {"current_trial": 36, "trialdata": {"rt": -1, "trial_type": "single-stim", "word": "dandruff", "stimulus": "<p id=\"stim\">DANDRUFF</p>", "conditions": [18, 1200, "v", 18000], "internal_node_id": "0.0-27.0", "trial": 0, "time_elapsed": 412511, "serialpos": 15, "key_press": -1, "wordID": 438, "type": "PRES_VIS", "trial_index": 36}, "uniqueid": "MTK2677:3ZAK8W07I5LKWQXS75DOL28COAVU0I", "dateTime": 1519234908263}, {"current_trial": 37, "trialdata": {"rt": -1, "trial_type": "single-stim", "word": "juggler", "stimulus": "<p id=\"stim\">JUGGLER</p>", "conditions": [18, 1200, "v", 18000], "internal_node_id": "0.0-28.0", "trial": 0, "time_elapsed": 414681, "serialpos": 16, "key_press": -1, "wordID": 762, "type": "PRES_VIS", "trial_index": 37}, "uniqueid": "MTK2677:3ZAK8W07I5LKWQXS75DOL28COAVU0I", "dateTime": 1519234910433}, {"current_trial": 38, "trialdata": {"rt": -1, "trial_type": "single-stim", "word": "brother", "stimulus": "<p id=\"stim\">BROTHER</p>", "conditions": [18, 1200, "v", 18000], "internal_node_id": "0.0-29.0", "trial": 0, "time_elapsed": 416701, "serialpos": 17, "key_press": -1, "wordID": 178, "type": "PRES_VIS", "trial_index": 38}, "uniqueid": "MTK2677:3ZAK8W07I5LKWQXS75DOL28COAVU0I", "dateTime": 1519234912454}, {"current_trial": 39, "trialdata": {"rt": -1, "trial_type": "single-stim", "stimulus": "", "internal_node_id": "0.0-30.0-0.0", "time_elapsed": 419078, "key_press": -1, "type": "PRE_RECALL_DELAY", "trial_index": 39}, "uniqueid": "MTK2677:3ZAK8W07I5LKWQXS75DOL28COAVU0I", "dateTime": 1519234914831}, {"current_trial": 40, "trialdata": {"rt": -1000, "trial_type": "single-audio", "stimulus": "/static/audio/400Hz.wav", "internal_node_id": "0.0-31.0", "time_elapsed": 419582, "key_press": -1, "type": "PRE_RECALL_ALERT", "trial_index": 40}, "uniqueid": "MTK2677:3ZAK8W07I5LKWQXS75DOL28COAVU0I", "dateTime": 1519234915335}, {"current_trial": 41, "trialdata": {"rt": [6413, 12251, 15593, 18468, 22728, 28050, 33682, 37131, 41224, 44783, 47380, 52165, 55641], "recwords": ["brother", "body", "wrist", "army", "husband", "blockade", "fireman", "driver", "quail", "crown", "hood", "stream", "rust"], "key_times": [2353, 2795, 3290, 3782, 3999, 4366, 4553, 6413, 8200, 8537, 9101, 9456, 10432, 11266, 12251, 13235, 13451, 13985, 14379, 14848, 15593, 16118, 16561, 17188, 17678, 18468, 19615, 19827, 20258, 20694, 21128, 21417, 21892, 22728, 24320, 24640, 24839, 25307, 25817, 26577, 26959, 27168, 28050, 29848, 30472, 30890, 31101, 31812, 32153, 32426, 33682, 35035, 35220, 35634, 36004, 36270, 36452, 37131, 38954, 39355, 40017, 40257, 40510, 41224, 42575, 43008, 43459, 43775, 44178, 44783, 45849, 46134, 46281, 46975, 47380, 50318, 50580, 50776, 50973, 51224, 51638, 52165, 54108, 54414, 54695, 55005, 55641, 58357, 58659, 59242, 59612], "trial_type": "free-recall", "conditions": [18, 1200, "v", 18000], "internal_node_id": "0.0-32.0-0.0", "key_presses": [66, 82, 79, 84, 72, 69, 82, 13, 66, 79, 68, 84, 8, 89, 13, 87, 82, 73, 83, 84, 13, 65, 82, 77, 89, 13, 72, 85, 83, 66, 65, 78, 68, 13, 66, 76, 79, 67, 75, 65, 68, 69, 13, 70, 73, 82, 69, 77, 65, 78, 13, 68, 82, 73, 86, 69, 82, 13, 81, 85, 65, 73, 76, 13, 67, 82, 79, 87, 78, 13, 72, 79, 79, 68, 13, 83, 84, 82, 69, 65, 77, 13, 82, 85, 83, 84, 13, 65, 82, 77, 89], "trial": 0, "time_elapsed": 479592, "type": "FREE_RECALL", "trial_index": 41}, "uniqueid": "MTK2677:3ZAK8W07I5LKWQXS75DOL28COAVU0I", "dateTime": 1519234975354}, {"current_trial": 42, "trialdata": {"rt": 3407, "trial_type": "text", "internal_node_id": "0.0-33.0", "time_elapsed": 485011, "key_press": 68, "type": "INSTRUCTIONS", "trial_index": 42}, "uniqueid": "MTK2677:3ZAK8W07I5LKWQXS75DOL28COAVU0I", "dateTime": 1519234980763}, {"current_trial": 43, "trialdata": {"rt": [2853, 4890, 10605, 12867, 14921, 17877], "trial_type": "math-distractor", "key_times": [2024, 2475, 2853, 4320, 4565, 4890, 9857, 10018, 10605, 12500, 12867, 14273, 14612, 14921, 17065, 17352, 17877], "responses": ["15", "14", "22", "7", "16", "15"], "num2": [5, 5, 7, 1, 1, 8, 3], "num3": [9, 5, 9, 1, 9, 5, 9], "conditions": [18, 1200, "v", 18000], "internal_node_id": "0.0-34.0", "key_presses": [49, 53, 13, 49, 52, 13, 50, 50, 13, 55, 13, 49, 54, 13, 49, 53, 13], "trial": 1, "time_elapsed": 505027, "type": "DISTRACTOR", "trial_index": 43, "num1": [1, 4, 6, 5, 6, 2, 8]}, "uniqueid": "MTK2677:3ZAK8W07I5LKWQXS75DOL28COAVU0I", "dateTime": 1519235000779}, {"current_trial": 44, "trialdata": {"rt": -1, "trial_type": "single-stim", "stimulus": "<p id=\"stim\">10</p>", "internal_node_id": "0.0-35.0-0.0", "time_elapsed": 508029, "key_press": -1, "trial_index": 44}, "uniqueid": "MTK2677:3ZAK8W07I5LKWQXS75DOL28COAVU0I", "dateTime": 1519235003781}, {"current_trial": 45, "trialdata": {"rt": -1, "trial_type": "single-stim", "stimulus": "<p id=\"stim\">9</p>", "internal_node_id": "0.0-35.0-1.0", "time_elapsed": 509032, "key_press": -1, "trial_index": 45}, "uniqueid": "MTK2677:3ZAK8W07I5LKWQXS75DOL28COAVU0I", "dateTime": 1519235004784}, {"current_trial": 46, "trialdata": {"rt": -1, "trial_type": "single-stim", "stimulus": "<p id=\"stim\">8</p>", "internal_node_id": "0.0-35.0-2.0", "time_elapsed": 510036, "key_press": -1, "trial_index": 46}, "uniqueid": "MTK2677:3ZAK8W07I5LKWQXS75DOL28COAVU0I", "dateTime": 1519235005789}, {"current_trial": 47, "trialdata": {"rt": -1, "trial_type": "single-stim", "stimulus": "<p id=\"stim\">7</p>", "internal_node_id": "0.0-35.0-3.0", "time_elapsed": 511040, "key_press": -1, "trial_index": 47}, "uniqueid": "MTK2677:3ZAK8W07I5LKWQXS75DOL28COAVU0I", "dateTime": 1519235006792}, {"current_trial": 48, "trialdata": {"rt": -1, "trial_type": "single-stim", "stimulus": "<p id=\"stim\">6</p>", "internal_node_id": "0.0-35.0-4.0", "time_elapsed": 512043, "key_press": -1, "trial_index": 48}, "uniqueid": "MTK2677:3ZAK8W07I5LKWQXS75DOL28COAVU0I", "dateTime": 1519235007795}, {"current_trial": 49, "trialdata": {"rt": -1, "trial_type": "single-stim", "stimulus": "<p id=\"stim\">5</p>", "internal_node_id": "0.0-35.0-5.0", "time_elapsed": 513046, "key_press": -1, "trial_index": 49}, "uniqueid": "MTK2677:3ZAK8W07I5LKWQXS75DOL28COAVU0I", "dateTime": 1519235008798}, {"current_trial": 50, "trialdata": {"rt": -1, "trial_type": "single-stim", "stimulus": "<p id=\"stim\">4</p>", "internal_node_id": "0.0-35.0-6.0", "time_elapsed": 514048, "key_press": -1, "trial_index": 50}, "uniqueid": "MTK2677:3ZAK8W07I5LKWQXS75DOL28COAVU0I", "dateTime": 1519235009800}, {"current_trial": 51, "trialdata": {"rt": -1, "trial_type": "single-stim", "stimulus": "<p id=\"stim\">3</p>", "internal_node_id": "0.0-35.0-7.0", "time_elapsed": 515050, "key_press": -1, "trial_index": 51}, "uniqueid": "MTK2677:3ZAK8W07I5LKWQXS75DOL28COAVU0I", "dateTime": 1519235010802}, {"current_trial": 52, "trialdata": {"rt": -1, "trial_type": "single-stim", "stimulus": "<p id=\"stim\">2</p>", "internal_node_id": "0.0-35.0-8.0", "time_elapsed": 516053, "key_press": -1, "trial_index": 52}, "uniqueid": "MTK2677:3ZAK8W07I5LKWQXS75DOL28COAVU0I", "dateTime": 1519235011806}, {"current_trial": 53, "trialdata": {"rt": -1, "trial_type": "single-stim", "stimulus": "<p id=\"stim\">1</p>", "internal_node_id": "0.0-35.0-9.0", "time_elapsed": 517056, "key_press": -1, "trial_index": 53}, "uniqueid": "MTK2677:3ZAK8W07I5LKWQXS75DOL28COAVU0I", "dateTime": 1519235012809}, {"current_trial": 54, "trialdata": {"rt": -1, "trial_type": "single-stim", "stimulus": "<p id=\"stim\">+</p>", "internal_node_id": "0.0-36.0-0.0", "time_elapsed": 518558, "key_press": -1, "type": "FIXATION", "trial_index": 54}, "uniqueid": "MTK2677:3ZAK8W07I5LKWQXS75DOL28COAVU0I", "dateTime": 1519235014311}, {"current_trial": 55, "trialdata": {"rt": -1, "trial_type": "single-stim", "word": "yarn", "stimulus": "<p id=\"stim\">YARN</p>", "conditions": [18, 1200, "v", 18000], "internal_node_id": "0.0-37.0", "trial": 1, "time_elapsed": 519761, "serialpos": 0, "key_press": -1, "wordID": 1630, "type": "PRES_VIS", "trial_index": 55}, "uniqueid": "MTK2677:3ZAK8W07I5LKWQXS75DOL28COAVU0I", "dateTime": 1519235015514}, {"current_trial": 56, "trialdata": {"rt": -1, "trial_type": "single-stim", "word": "ankle", "stimulus": "<p id=\"stim\">ANKLE</p>", "conditions": [18, 1200, "v", 18000], "internal_node_id": "0.0-38.0", "trial": 1, "time_elapsed": 522128, "serialpos": 1, "key_press": -1, "wordID": 23, "type": "PRES_VIS", "trial_index": 56}, "uniqueid": "MTK2677:3ZAK8W07I5LKWQXS75DOL28COAVU0I", "dateTime": 1519235017880}, {"current_trial": 57, "trialdata": {"rt": -1, "trial_type": "single-stim", "word": "tribe", "stimulus": "<p id=\"stim\">TRIBE</p>", "conditions": [18, 1200, "v", 18000], "internal_node_id": "0.0-39.0", "trial": 1, "time_elapsed": 524372, "serialpos": 2, "key_press": -1, "wordID": 1504, "type": "PRES_VIS", "trial_index": 57}, "uniqueid": "MTK2677:3ZAK8W07I5LKWQXS75DOL28COAVU0I", "dateTime": 1519235020124}, {"current_trial": 58, "trialdata": {"rt": -1, "trial_type": "single-stim", "word": "heart", "stimulus": "<p id=\"stim\">HEART</p>", "conditions": [18, 1200, "v", 18000], "internal_node_id": "0.0-40.0", "trial": 1, "time_elapsed": 526717, "serialpos": 3, "key_press": -1, "wordID": 696, "type": "PRES_VIS", "trial_index": 58}, "uniqueid": "MTK2677:3ZAK8W07I5LKWQXS75DOL28COAVU0I", "dateTime": 1519235022471}, {"current_trial": 59, "trialdata": {"rt": -1, "trial_type": "single-stim", "word": "motel", "stimulus": "<p id=\"stim\">MOTEL</p>", "conditions": [18, 1200, "v", 18000], "internal_node_id": "0.0-41.0", "trial": 1, "time_elapsed": 528917, "serialpos": 4, "key_press": -1, "wordID": 918, "type": "PRES_VIS", "trial_index": 59}, "uniqueid": "MTK2677:3ZAK8W07I5LKWQXS75DOL28COAVU0I", "dateTime": 1519235024669}, {"current_trial": 60, "trialdata": {"rt": -1, "trial_type": "single-stim", "word": "cashew", "stimulus": "<p id=\"stim\">CASHEW</p>", "conditions": [18, 1200, "v", 18000], "internal_node_id": "0.0-42.0", "trial": 1, "time_elapsed": 531020, "serialpos": 5, "key_press": -1, "wordID": 252, "type": "PRES_VIS", "trial_index": 60}, "uniqueid": "MTK2677:3ZAK8W07I5LKWQXS75DOL28COAVU0I", "dateTime": 1519235026772}, {"current_trial": 61, "trialdata": {"rt": -1, "trial_type": "single-stim", "word": "lipstick", "stimulus": "<p id=\"stim\">LIPSTICK</p>", "conditions": [18, 1200, "v", 18000], "internal_node_id": "0.0-43.0", "trial": 1, "time_elapsed": 533039, "serialpos": 6, "key_press": -1, "wordID": 828, "type": "PRES_VIS", "trial_index": 61}, "uniqueid": "MTK2677:3ZAK8W07I5LKWQXS75DOL28COAVU0I", "dateTime": 1519235028791}, {"current_trial": 62, "trialdata": {"rt": -1, "trial_type": "single-stim", "word": "washer", "stimulus": "<p id=\"stim\">WASHER</p>", "conditions": [18, 1200, "v", 18000], "internal_node_id": "0.0-44.0", "trial": 1, "time_elapsed": 535113, "serialpos": 7, "key_press": -1, "wordID": 1591, "type": "PRES_VIS", "trial_index": 62}, "uniqueid": "MTK2677:3ZAK8W07I5LKWQXS75DOL28COAVU0I", "dateTime": 1519235030865}, {"current_trial": 63, "trialdata": {"rt": -1, "trial_type": "single-stim", "word": "gangster", "stimulus": "<p id=\"stim\">GANGSTER</p>", "conditions": [18, 1200, "v", 18000], "internal_node_id": "0.0-45.0", "trial": 1, "time_elapsed": 537286, "serialpos": 8, "key_press": -1, "wordID": 619, "type": "PRES_VIS", "trial_index": 63}, "uniqueid": "MTK2677:3ZAK8W07I5LKWQXS75DOL28COAVU0I", "dateTime": 1519235033038}, {"current_trial": 64, "trialdata": {"rt": -1, "trial_type": "single-stim", "word": "scotch", "stimulus": "<p id=\"stim\">SCOTCH</p>", "conditions": [18, 1200, "v", 18000], "internal_node_id": "0.0-46.0", "trial": 1, "time_elapsed": 539545, "serialpos": 9, "key_press": -1, "wordID": 1250, "type": "PRES_VIS", "trial_index": 64}, "uniqueid": "MTK2677:3ZAK8W07I5LKWQXS75DOL28COAVU0I", "dateTime": 1519235035298}, {"current_trial": 65, "trialdata": {"rt": -1, "trial_type": "single-stim", "word": "virus", "stimulus": "<p id=\"stim\">VIRUS</p>", "conditions": [18, 1200, "v", 18000], "internal_node_id": "0.0-47.0", "trial": 1, "time_elapsed": 541903, "serialpos": 10, "key_press": -1, "wordID": 1571, "type": "PRES_VIS", "trial_index": 65}, "uniqueid": "MTK2677:3ZAK8W07I5LKWQXS75DOL28COAVU0I", "dateTime": 1519235037656}, {"current_trial": 66, "trialdata": {"rt": -1, "trial_type": "single-stim", "word": "maple", "stimulus": "<p id=\"stim\">MAPLE</p>", "conditions": [18, 1200, "v", 18000], "internal_node_id": "0.0-48.0", "trial": 1, "time_elapsed": 544193, "serialpos": 11, "key_press": -1, "wordID": 865, "type": "PRES_VIS", "trial_index": 66}, "uniqueid": "MTK2677:3ZAK8W07I5LKWQXS75DOL28COAVU0I", "dateTime": 1519235039946}, {"current_trial": 67, "trialdata": {"rt": -1, "trial_type": "single-stim", "word": "message", "stimulus": "<p id=\"stim\">MESSAGE</p>", "conditions": [18, 1200, "v", 18000], "internal_node_id": "0.0-49.0", "trial": 1, "time_elapsed": 546316, "serialpos": 12, "key_press": -1, "wordID": 887, "type": "PRES_VIS", "trial_index": 67}, "uniqueid": "MTK2677:3ZAK8W07I5LKWQXS75DOL28COAVU0I", "dateTime": 1519235042069}, {"current_trial": 68, "trialdata": {"rt": -1, "trial_type": "single-stim", "word": "proton", "stimulus": "<p id=\"stim\">PROTON</p>", "conditions": [18, 1200, "v", 18000], "internal_node_id": "0.0-50.0", "trial": 1, "time_elapsed": 548716, "serialpos": 13, "key_press": -1, "wordID": 1131, "type": "PRES_VIS", "trial_index": 68}, "uniqueid": "MTK2677:3ZAK8W07I5LKWQXS75DOL28COAVU0I", "dateTime": 1519235044486}, {"current_trial": 69, "trialdata": {"rt": -1, "trial_type": "single-stim", "word": "mask", "stimulus": "<p id=\"stim\">MASK</p>", "conditions": [18, 1200, "v", 18000], "internal_node_id": "0.0-51.0", "trial": 1, "time_elapsed": 551075, "serialpos": 14, "key_press": -1, "wordID": 875, "type": "PRES_VIS", "trial_index": 69}, "uniqueid": "MTK2677:3ZAK8W07I5LKWQXS75DOL28COAVU0I", "dateTime": 1519235046827}, {"current_trial": 70, "trialdata": {"rt": -1, "trial_type": "single-stim", "word": "dancer", "stimulus": "<p id=\"stim\">DANCER</p>", "conditions": [18, 1200, "v", 18000], "internal_node_id": "0.0-52.0", "trial": 1, "time_elapsed": 553109, "serialpos": 15, "key_press": -1, "wordID": 436, "type": "PRES_VIS", "trial_index": 70}, "uniqueid": "MTK2677:3ZAK8W07I5LKWQXS75DOL28COAVU0I", "dateTime": 1519235048861}, {"current_trial": 71, "trialdata": {"rt": -1, "trial_type": "single-stim", "word": "liver", "stimulus": "<p id=\"stim\">LIVER</p>", "conditions": [18, 1200, "v", 18000], "internal_node_id": "0.0-53.0", "trial": 1, "time_elapsed": 555337, "serialpos": 16, "key_press": -1, "wordID": 832, "type": "PRES_VIS", "trial_index": 71}, "uniqueid": "MTK2677:3ZAK8W07I5LKWQXS75DOL28COAVU0I", "dateTime": 1519235051090}, {"current_trial": 72, "trialdata": {"rt": -1, "trial_type": "single-stim", "word": "bouquet", "stimulus": "<p id=\"stim\">BOUQUET</p>", "conditions": [18, 1200, "v", 18000], "internal_node_id": "0.0-54.0", "trial": 1, "time_elapsed": 557652, "serialpos": 17, "key_press": -1, "wordID": 156, "type": "PRES_VIS", "trial_index": 72}, "uniqueid": "MTK2677:3ZAK8W07I5LKWQXS75DOL28COAVU0I", "dateTime": 1519235053404}, {"current_trial": 73, "trialdata": {"rt": -1, "trial_type": "single-stim", "stimulus": "", "internal_node_id": "0.0-55.0-0.0", "time_elapsed": 559870, "key_press": -1, "type": "PRE_RECALL_DELAY", "trial_index": 73}, "uniqueid": "MTK2677:3ZAK8W07I5LKWQXS75DOL28COAVU0I", "dateTime": 1519235055622}, {"current_trial": 74, "trialdata": {"rt": -1000, "trial_type": "single-audio", "stimulus": "/static/audio/400Hz.wav", "internal_node_id": "0.0-56.0", "time_elapsed": 560371, "key_press": -1, "type": "PRE_RECALL_ALERT", "trial_index": 74}, "uniqueid": "MTK2677:3ZAK8W07I5LKWQXS75DOL28COAVU0I", "dateTime": 1519235056123}, {"current_trial": 75, "trialdata": {"rt": [4352, 9125, 12059, 15116, 20469, 24180, 29665, 34884, 38490, 40993, 45109, 50316, 59330], "recwords": ["ankle", "heart", "tribe", "washer", "gangster", "motel", "cashew", "virus", "maple", "liver", "message", "proton", "bouquet"], "key_times": [2108, 2432, 3047, 3244, 3800, 4352, 4897, 5230, 5494, 5772, 5953, 9125, 9985, 10174, 10567, 10905, 11227, 12059, 12892, 13076, 13269, 13910, 14253, 14413, 15116, 16785, 17122, 17868, 18204, 18758, 19224, 19476, 19663, 20469, 21366, 21711, 22932, 23291, 23741, 24180, 26443, 26747, 26910, 27872, 28907, 29107, 29665, 31519, 31853, 33114, 33905, 34295, 34884, 35875, 36271, 36700, 36882, 37403, 38490, 39187, 39451, 39913, 40232, 40386, 40993, 43048, 43512, 43734, 43884, 44072, 44557, 44825, 45109, 47569, 47983, 48392, 49158, 49548, 50064, 50316, 53755, 54089, 54349, 55001, 57685, 58026, 58257, 59330], "trial_type": "free-recall", "conditions": [18, 1200, "v", 18000], "internal_node_id": "0.0-57.0-0.0", "key_presses": [65, 78, 75, 76, 69, 13, 72, 69, 65, 82, 84, 13, 84, 82, 73, 66, 69, 13, 87, 65, 83, 72, 69, 82, 13, 71, 65, 78, 71, 83, 84, 69, 82, 13, 77, 79, 84, 69, 76, 13, 67, 65, 83, 72, 69, 87, 13, 86, 73, 82, 85, 83, 13, 77, 65, 80, 76, 69, 13, 76, 73, 86, 69, 82, 13, 77, 69, 83, 83, 65, 71, 69, 32, 80, 82, 79, 84, 79, 78, 32, 66, 79, 85, 81, 85, 69, 84, 13], "trial": 1, "time_elapsed": 620377, "type": "FREE_RECALL", "trial_index": 75}, "uniqueid": "MTK2677:3ZAK8W07I5LKWQXS75DOL28COAVU0I", "dateTime": 1519235116140}, {"current_trial": 76, "trialdata": {"rt": 16534, "trial_type": "text", "internal_node_id": "0.0-58.0", "time_elapsed": 638927, "key_press": 78, "type": "INSTRUCTIONS", "trial_index": 76}, "uniqueid": "MTK2677:3ZAK8W07I5LKWQXS75DOL28COAVU0I", "dateTime": 1519235134679}, {"current_trial": 77, "trialdata": {"rt": [2832, 4520, 7101, 9553], "trial_type": "math-distractor", "key_times": [1986, 2507, 2832, 4321, 4520, 6580, 6920, 7101, 8712, 9325, 9553], "responses": ["10", "8", "14", "20"], "num2": [2, 6, 2, 7, 6], "num3": [1, 1, 8, 8, 6], "conditions": [12, 800, "v", 12000], "internal_node_id": "0.0-59.0", "key_presses": [49, 48, 13, 56, 13, 49, 52, 13, 50, 48, 13], "trial": 2, "time_elapsed": 651936, "type": "DISTRACTOR", "trial_index": 77, "num1": [7, 1, 4, 5, 9]}, "uniqueid": "MTK2677:3ZAK8W07I5LKWQXS75DOL28COAVU0I", "dateTime": 1519235147688}, {"current_trial": 78, "trialdata": {"rt": -1, "trial_type": "single-stim", "stimulus": "<p id=\"stim\">10</p>", "internal_node_id": "0.0-60.0-0.0", "time_elapsed": 654937, "key_press": -1, "trial_index": 78}, "uniqueid": "MTK2677:3ZAK8W07I5LKWQXS75DOL28COAVU0I", "dateTime": 1519235150689}, {"current_trial": 79, "trialdata": {"rt": -1, "trial_type": "single-stim", "stimulus": "<p id=\"stim\">9</p>", "internal_node_id": "0.0-60.0-1.0", "time_elapsed": 655939, "key_press": -1, "trial_index": 79}, "uniqueid": "MTK2677:3ZAK8W07I5LKWQXS75DOL28COAVU0I", "dateTime": 1519235151692}, {"current_trial": 80, "trialdata": {"rt": -1, "trial_type": "single-stim", "stimulus": "<p id=\"stim\">8</p>", "internal_node_id": "0.0-60.0-2.0", "time_elapsed": 656941, "key_press": -1, "trial_index": 80}, "uniqueid": "MTK2677:3ZAK8W07I5LKWQXS75DOL28COAVU0I", "dateTime": 1519235152693}, {"current_trial": 81, "trialdata": {"rt": -1, "trial_type": "single-stim", "stimulus": "<p id=\"stim\">7</p>", "internal_node_id": "0.0-60.0-3.0", "time_elapsed": 657942, "key_press": -1, "trial_index": 81}, "uniqueid": "MTK2677:3ZAK8W07I5LKWQXS75DOL28COAVU0I", "dateTime": 1519235153694}, {"current_trial": 82, "trialdata": {"rt": -1, "trial_type": "single-stim", "stimulus": "<p id=\"stim\">6</p>", "internal_node_id": "0.0-60.0-4.0", "time_elapsed": 658943, "key_press": -1, "trial_index": 82}, "uniqueid": "MTK2677:3ZAK8W07I5LKWQXS75DOL28COAVU0I", "dateTime": 1519235154695}, {"current_trial": 83, "trialdata": {"rt": -1, "trial_type": "single-stim", "stimulus": "<p id=\"stim\">5</p>", "internal_node_id": "0.0-60.0-5.0", "time_elapsed": 659946, "key_press": -1, "trial_index": 83}, "uniqueid": "MTK2677:3ZAK8W07I5LKWQXS75DOL28COAVU0I", "dateTime": 1519235155698}, {"current_trial": 84, "trialdata": {"rt": -1, "trial_type": "single-stim", "stimulus": "<p id=\"stim\">4</p>", "internal_node_id": "0.0-60.0-6.0", "time_elapsed": 660948, "key_press": -1, "trial_index": 84}, "uniqueid": "MTK2677:3ZAK8W07I5LKWQXS75DOL28COAVU0I", "dateTime": 1519235156700}, {"current_trial": 85, "trialdata": {"rt": -1, "trial_type": "single-stim", "stimulus": "<p id=\"stim\">3</p>", "internal_node_id": "0.0-60.0-7.0", "time_elapsed": 661952, "key_press": -1, "trial_index": 85}, "uniqueid": "MTK2677:3ZAK8W07I5LKWQXS75DOL28COAVU0I", "dateTime": 1519235157704}, {"current_trial": 86, "trialdata": {"rt": -1, "trial_type": "single-stim", "stimulus": "<p id=\"stim\">2</p>", "internal_node_id": "0.0-60.0-8.0", "time_elapsed": 662954, "key_press": -1, "trial_index": 86}, "uniqueid": "MTK2677:3ZAK8W07I5LKWQXS75DOL28COAVU0I", "dateTime": 1519235158707}, {"current_trial": 87, "trialdata": {"rt": -1, "trial_type": "single-stim", "stimulus": "<p id=\"stim\">1</p>", "internal_node_id": "0.0-60.0-9.0", "time_elapsed": 663959, "key_press": -1, "trial_index": 87}, "uniqueid": "MTK2677:3ZAK8W07I5LKWQXS75DOL28COAVU0I", "dateTime": 1519235159711}, {"current_trial": 88, "trialdata": {"rt": -1, "trial_type": "single-stim", "stimulus": "<p id=\"stim\">+</p>", "internal_node_id": "0.0-61.0-0.0", "time_elapsed": 665464, "key_press": -1, "type": "FIXATION", "trial_index": 88}, "uniqueid": "MTK2677:3ZAK8W07I5LKWQXS75DOL28COAVU0I", "dateTime": 1519235161216}, {"current_trial": 89, "trialdata": {"rt": -1, "trial_type": "single-stim", "word": "fox", "stimulus": "<p id=\"stim\">FOX</p>", "conditions": [12, 800, "v", 12000], "internal_node_id": "0.0-62.0", "trial": 2, "time_elapsed": 666267, "serialpos": 0, "key_press": -1, "wordID": 597, "type": "PRES_VIS", "trial_index": 89}, "uniqueid": "MTK2677:3ZAK8W07I5LKWQXS75DOL28COAVU0I", "dateTime": 1519235162019}, {"current_trial": 90, "trialdata": {"rt": -1, "trial_type": "single-stim", "word": "hiker", "stimulus": "<p id=\"stim\">HIKER</p>", "conditions": [12, 800, "v", 12000], "internal_node_id": "0.0-63.0", "trial": 2, "time_elapsed": 668106, "serialpos": 1, "key_press": -1, "wordID": 707, "type": "PRES_VIS", "trial_index": 90}, "uniqueid": "MTK2677:3ZAK8W07I5LKWQXS75DOL28COAVU0I", "dateTime": 1519235163860}, {"current_trial": 91, "trialdata": {"rt": -1, "trial_type": "single-stim", "word": "harp", "stimulus": "<p id=\"stim\">HARP</p>", "conditions": [12, 800, "v", 12000], "internal_node_id": "0.0-64.0", "trial": 2, "time_elapsed": 669874, "serialpos": 2, "key_press": -1, "wordID": 688, "type": "PRES_VIS", "trial_index": 91}, "uniqueid": "MTK2677:3ZAK8W07I5LKWQXS75DOL28COAVU0I", "dateTime": 1519235165627}, {"current_trial": 92, "trialdata": {"rt": -1, "trial_type": "single-stim", "word": "dashboard", "stimulus": "<p id=\"stim\">DASHBOARD</p>", "conditions": [12, 800, "v", 12000], "internal_node_id": "0.0-65.0", "trial": 2, "time_elapsed": 671647, "serialpos": 3, "key_press": -1, "wordID": 440, "type": "PRES_VIS", "trial_index": 92}, "uniqueid": "MTK2677:3ZAK8W07I5LKWQXS75DOL28COAVU0I", "dateTime": 1519235167399}, {"current_trial": 93, "trialdata": {"rt": -1, "trial_type": "single-stim", "word": "fiddle", "stimulus": "<p id=\"stim\">FIDDLE</p>", "conditions": [12, 800, "v", 12000], "internal_node_id": "0.0-66.0", "trial": 2, "time_elapsed": 673401, "serialpos": 4, "key_press": -1, "wordID": 560, "type": "PRES_VIS", "trial_index": 93}, "uniqueid": "MTK2677:3ZAK8W07I5LKWQXS75DOL28COAVU0I", "dateTime": 1519235169153}, {"current_trial": 94, "trialdata": {"rt": -1, "trial_type": "single-stim", "word": "trombone", "stimulus": "<p id=\"stim\">TROMBONE</p>", "conditions": [12, 800, "v", 12000], "internal_node_id": "0.0-67.0", "trial": 2, "time_elapsed": 675332, "serialpos": 5, "key_press": -1, "wordID": 1507, "type": "PRES_VIS", "trial_index": 94}, "uniqueid": "MTK2677:3ZAK8W07I5LKWQXS75DOL28COAVU0I", "dateTime": 1519235171084}, {"current_trial": 95, "trialdata": {"rt": -1, "trial_type": "single-stim", "word": "burglar", "stimulus": "<p id=\"stim\">BURGLAR</p>", "conditions": [12, 800, "v", 12000], "internal_node_id": "0.0-68.0", "trial": 2, "time_elapsed": 677148, "serialpos": 6, "key_press": -1, "wordID": 199, "type": "PRES_VIS", "trial_index": 95}, "uniqueid": "MTK2677:3ZAK8W07I5LKWQXS75DOL28COAVU0I", "dateTime": 1519235172900}, {"current_trial": 96, "trialdata": {"rt": -1, "trial_type": "single-stim", "word": "shortcake", "stimulus": "<p id=\"stim\">SHORTCAKE</p>", "conditions": [12, 800, "v", 12000], "internal_node_id": "0.0-69.0", "trial": 2, "time_elapsed": 679077, "serialpos": 7, "key_press": -1, "wordID": 1291, "type": "PRES_VIS", "trial_index": 96}, "uniqueid": "MTK2677:3ZAK8W07I5LKWQXS75DOL28COAVU0I", "dateTime": 1519235174829}, {"current_trial": 97, "trialdata": {"rt": -1, "trial_type": "single-stim", "word": "machine", "stimulus": "<p id=\"stim\">MACHINE</p>", "conditions": [12, 800, "v", 12000], "internal_node_id": "0.0-70.0", "trial": 2, "time_elapsed": 680957, "serialpos": 8, "key_press": -1, "wordID": 851, "type": "PRES_VIS", "trial_index": 97}, "uniqueid": "MTK2677:3ZAK8W07I5LKWQXS75DOL28COAVU0I", "dateTime": 1519235176710}, {"current_trial": 98, "trialdata": {"rt": -1, "trial_type": "single-stim", "word": "fungus", "stimulus": "<p id=\"stim\">FUNGUS</p>", "conditions": [12, 800, "v", 12000], "internal_node_id": "0.0-71.0", "trial": 2, "time_elapsed": 682869, "serialpos": 9, "key_press": -1, "wordID": 613, "type": "PRES_VIS", "trial_index": 98}, "uniqueid": "MTK2677:3ZAK8W07I5LKWQXS75DOL28COAVU0I", "dateTime": 1519235178621}, {"current_trial": 99, "trialdata": {"rt": -1, "trial_type": "single-stim", "word": "fleet", "stimulus": "<p id=\"stim\">FLEET</p>", "conditions": [12, 800, "v", 12000], "internal_node_id": "0.0-72.0", "trial": 2, "time_elapsed": 684831, "serialpos": 10, "key_press": -1, "wordID": 577, "type": "PRES_VIS", "trial_index": 99}, "uniqueid": "MTK2677:3ZAK8W07I5LKWQXS75DOL28COAVU0I", "dateTime": 1519235180583}, {"current_trial": 100, "trialdata": {"rt": -1, "trial_type": "single-stim", "word": "thief", "stimulus": "<p id=\"stim\">THIEF</p>", "conditions": [12, 800, "v", 12000], "internal_node_id": "0.0-73.0", "trial": 2, "time_elapsed": 686818, "serialpos": 11, "key_press": -1, "wordID": 1455, "type": "PRES_VIS", "trial_index": 100}, "uniqueid": "MTK2677:3ZAK8W07I5LKWQXS75DOL28COAVU0I", "dateTime": 1519235182571}, {"current_trial": 101, "trialdata": {"rt": -1, "trial_type": "single-stim", "stimulus": "", "internal_node_id": "0.0-74.0-0.0", "time_elapsed": 689019, "key_press": -1, "type": "PRE_RECALL_DELAY", "trial_index": 101}, "uniqueid": "MTK2677:3ZAK8W07I5LKWQXS75DOL28COAVU0I", "dateTime": 1519235184771}, {"current_trial": 102, "trialdata": {"rt": -1000, "trial_type": "single-audio", "stimulus": "/static/audio/400Hz.wav", "internal_node_id": "0.0-75.0", "time_elapsed": 689521, "key_press": -1, "type": "PRE_RECALL_ALERT", "trial_index": 102}, "uniqueid": "MTK2677:3ZAK8W07I5LKWQXS75DOL28COAVU0I", "dateTime": 1519235185273}, {"current_trial": 103, "trialdata": {"rt": [4623, 6932, 9226, 12424, 16463, 21749, 26750, 30568, 33428, 42243, 46820], "recwords": ["fleet", "fox", "hiker", "dancer", "fiddle", "burglary", "machine", "fungus", "fleet", "showman", "shovel"], "key_times": [1932, 2600, 3019, 3164, 3602, 4623, 5443, 5876, 6539, 6932, 7384, 7645, 7811, 8192, 8364, 9226, 10488, 10711, 11072, 11393, 11663, 11836, 12424, 13809, 14133, 14651, 14804, 15196, 15715, 16463, 17521, 18067, 18516, 18979, 19364, 19780, 20646, 20984, 21749, 23050, 23426, 23695, 24031, 24695, 25094, 25337, 25591, 25968, 26750, 28024, 28400, 28817, 29089, 29319, 29747, 30568, 31404, 31779, 32243, 32388, 32826, 33428, 38776, 39294, 39669, 40403, 40810, 41203, 41588, 42243, 44520, 44979, 45260, 45650, 45929, 46408, 46820, 58503, 58803, 59325, 59666], "trial_type": "free-recall", "conditions": [12, 800, "v", 12000], "internal_node_id": "0.0-76.0-0.0", "key_presses": [70, 76, 69, 69, 84, 13, 70, 79, 88, 13, 72, 73, 75, 69, 82, 13, 68, 65, 78, 67, 69, 82, 13, 70, 73, 68, 68, 76, 69, 13, 66, 85, 82, 71, 76, 65, 82, 89, 13, 77, 65, 67, 74, 8, 72, 73, 78, 69, 13, 70, 85, 78, 71, 85, 83, 13, 70, 76, 69, 69, 84, 13, 83, 72, 79, 87, 77, 65, 78, 13, 83, 72, 79, 86, 69, 76, 13, 66, 85, 78, 71], "trial": 2, "time_elapsed": 749531, "type": "FREE_RECALL", "trial_index": 103}, "uniqueid": "MTK2677:3ZAK8W07I5LKWQXS75DOL28COAVU0I", "dateTime": 1519235245292}, {"current_trial": 104, "trialdata": {"rt": 3334, "trial_type": "text", "internal_node_id": "0.0-77.0", "time_elapsed": 754876, "key_press": 72, "type": "INSTRUCTIONS", "trial_index": 104}, "uniqueid": "MTK2677:3ZAK8W07I5LKWQXS75DOL28COAVU0I", "dateTime": 1519235250628}, {"current_trial": 105, "trialdata": {"rt": [5163, 9299], "trial_type": "math-distractor", "key_times": [3543, 4079, 5163, 8634, 8817, 9299, 11282, 11628], "responses": ["14", "21"], "num2": [9, 7, 5], "num3": [2, 8, 8], "conditions": [24, 800, "v", 12000], "internal_node_id": "0.0-78.0", "key_presses": [49, 52, 13, 50, 49, 13, 49, 52], "trial": 3, "time_elapsed": 768884, "type": "DISTRACTOR", "trial_index": 105, "num1": [3, 6, 1]}, "uniqueid": "MTK2677:3ZAK8W07I5LKWQXS75DOL28COAVU0I", "dateTime": 1519235264636}, {"current_trial": 106, "trialdata": {"rt": -1, "trial_type": "single-stim", "stimulus": "<p id=\"stim\">10</p>", "internal_node_id": "0.0-79.0-0.0", "time_elapsed": 771888, "key_press": -1, "trial_index": 106}, "uniqueid": "MTK2677:3ZAK8W07I5LKWQXS75DOL28COAVU0I", "dateTime": 1519235267640}, {"current_trial": 107, "trialdata": {"rt": -1, "trial_type": "single-stim", "stimulus": "<p id=\"stim\">9</p>", "internal_node_id": "0.0-79.0-1.0", "time_elapsed": 772892, "key_press": -1, "trial_index": 107}, "uniqueid": "MTK2677:3ZAK8W07I5LKWQXS75DOL28COAVU0I", "dateTime": 1519235268644}, {"current_trial": 108, "trialdata": {"rt": -1, "trial_type": "single-stim", "stimulus": "<p id=\"stim\">8</p>", "internal_node_id": "0.0-79.0-2.0", "time_elapsed": 773896, "key_press": -1, "trial_index": 108}, "uniqueid": "MTK2677:3ZAK8W07I5LKWQXS75DOL28COAVU0I", "dateTime": 1519235269649}, {"current_trial": 109, "trialdata": {"rt": -1, "trial_type": "single-stim", "stimulus": "<p id=\"stim\">7</p>", "internal_node_id": "0.0-79.0-3.0", "time_elapsed": 774901, "key_press": -1, "trial_index": 109}, "uniqueid": "MTK2677:3ZAK8W07I5LKWQXS75DOL28COAVU0I", "dateTime": 1519235270654}, {"current_trial": 110, "trialdata": {"rt": -1, "trial_type": "single-stim", "stimulus": "<p id=\"stim\">6</p>", "internal_node_id": "0.0-79.0-4.0", "time_elapsed": 775904, "key_press": -1, "trial_index": 110}, "uniqueid": "MTK2677:3ZAK8W07I5LKWQXS75DOL28COAVU0I", "dateTime": 1519235271657}, {"current_trial": 111, "trialdata": {"rt": -1, "trial_type": "single-stim", "stimulus": "<p id=\"stim\">5</p>", "internal_node_id": "0.0-79.0-5.0", "time_elapsed": 776906, "key_press": -1, "trial_index": 111}, "uniqueid": "MTK2677:3ZAK8W07I5LKWQXS75DOL28COAVU0I", "dateTime": 1519235272658}, {"current_trial": 112, "trialdata": {"rt": -1, "trial_type": "single-stim", "stimulus": "<p id=\"stim\">4</p>", "internal_node_id": "0.0-79.0-6.0", "time_elapsed": 777909, "key_press": -1, "trial_index": 112}, "uniqueid": "MTK2677:3ZAK8W07I5LKWQXS75DOL28COAVU0I", "dateTime": 1519235273661}, {"current_trial": 113, "trialdata": {"rt": -1, "trial_type": "single-stim", "stimulus": "<p id=\"stim\">3</p>", "internal_node_id": "0.0-79.0-7.0", "time_elapsed": 778911, "key_press": -1, "trial_index": 113}, "uniqueid": "MTK2677:3ZAK8W07I5LKWQXS75DOL28COAVU0I", "dateTime": 1519235274663}, {"current_trial": 114, "trialdata": {"rt": -1, "trial_type": "single-stim", "stimulus": "<p id=\"stim\">2</p>", "internal_node_id": "0.0-79.0-8.0", "time_elapsed": 779913, "key_press": -1, "trial_index": 114}, "uniqueid": "MTK2677:3ZAK8W07I5LKWQXS75DOL28COAVU0I", "dateTime": 1519235275666}, {"current_trial": 115, "trialdata": {"rt": -1, "trial_type": "single-stim", "stimulus": "<p id=\"stim\">1</p>", "internal_node_id": "0.0-79.0-9.0", "time_elapsed": 780916, "key_press": -1, "trial_index": 115}, "uniqueid": "MTK2677:3ZAK8W07I5LKWQXS75DOL28COAVU0I", "dateTime": 1519235276668}, {"current_trial": 116, "trialdata": {"rt": -1, "trial_type": "single-stim", "stimulus": "<p id=\"stim\">+</p>", "internal_node_id": "0.0-80.0-0.0", "time_elapsed": 782418, "key_press": -1, "type": "FIXATION", "trial_index": 116}, "uniqueid": "MTK2677:3ZAK8W07I5LKWQXS75DOL28COAVU0I", "dateTime": 1519235278171}, {"current_trial": 117, "trialdata": {"rt": -1, "trial_type": "single-stim", "word": "cloud", "stimulus": "<p id=\"stim\">CLOUD</p>", "conditions": [24, 800, "v", 12000], "internal_node_id": "0.0-81.0", "trial": 3, "time_elapsed": 783220, "serialpos": 0, "key_press": -1, "wordID": 327, "type": "PRES_VIS", "trial_index": 117}, "uniqueid": "MTK2677:3ZAK8W07I5LKWQXS75DOL28COAVU0I", "dateTime": 1519235278972}, {"current_trial": 118, "trialdata": {"rt": -1, "trial_type": "single-stim", "word": "perfume", "stimulus": "<p id=\"stim\">PERFUME</p>", "conditions": [24, 800, "v", 12000], "internal_node_id": "0.0-82.0", "trial": 3, "time_elapsed": 785101, "serialpos": 1, "key_press": -1, "wordID": 1048, "type": "PRES_VIS", "trial_index": 118}, "uniqueid": "MTK2677:3ZAK8W07I5LKWQXS75DOL28COAVU0I", "dateTime": 1519235280854}, {"current_trial": 119, "trialdata": {"rt": -1, "trial_type": "single-stim", "word": "flag", "stimulus": "<p id=\"stim\">FLAG</p>", "conditions": [24, 800, "v", 12000], "internal_node_id": "0.0-83.0", "trial": 3, "time_elapsed": 786880, "serialpos": 2, "key_press": -1, "wordID": 572, "type": "PRES_VIS", "trial_index": 119}, "uniqueid": "MTK2677:3ZAK8W07I5LKWQXS75DOL28COAVU0I", "dateTime": 1519235282632}, {"current_trial": 120, "trialdata": {"rt": -1, "trial_type": "single-stim", "word": "donkey", "stimulus": "<p id=\"stim\">DONKEY</p>", "conditions": [24, 800, "v", 12000], "internal_node_id": "0.0-84.0", "trial": 3, "time_elapsed": 788564, "serialpos": 3, "key_press": -1, "wordID": 483, "type": "PRES_VIS", "trial_index": 120}, "uniqueid": "MTK2677:3ZAK8W07I5LKWQXS75DOL28COAVU0I", "dateTime": 1519235284316}, {"current_trial": 121, "trialdata": {"rt": -1, "trial_type": "single-stim", "word": "fragrance", "stimulus": "<p id=\"stim\">FRAGRANCE</p>", "conditions": [24, 800, "v", 12000], "internal_node_id": "0.0-85.0", "trial": 3, "time_elapsed": 790345, "serialpos": 4, "key_press": -1, "wordID": 598, "type": "PRES_VIS", "trial_index": 121}, "uniqueid": "MTK2677:3ZAK8W07I5LKWQXS75DOL28COAVU0I", "dateTime": 1519235286098}, {"current_trial": 122, "trialdata": {"rt": -1, "trial_type": "single-stim", "word": "lightning", "stimulus": "<p id=\"stim\">LIGHTNING</p>", "conditions": [24, 800, "v", 12000], "internal_node_id": "0.0-86.0", "trial": 3, "time_elapsed": 792148, "serialpos": 5, "key_press": -1, "wordID": 819, "type": "PRES_VIS", "trial_index": 122}, "uniqueid": "MTK2677:3ZAK8W07I5LKWQXS75DOL28COAVU0I", "dateTime": 1519235287900}, {"current_trial": 123, "trialdata": {"rt": -1, "trial_type": "single-stim", "word": "puppy", "stimulus": "<p id=\"stim\">PUPPY</p>", "conditions": [24, 800, "v", 12000], "internal_node_id": "0.0-87.0", "trial": 3, "time_elapsed": 794085, "serialpos": 6, "key_press": -1, "wordID": 1143, "type": "PRES_VIS", "trial_index": 123}, "uniqueid": "MTK2677:3ZAK8W07I5LKWQXS75DOL28COAVU0I", "dateTime": 1519235289838}, {"current_trial": 124, "trialdata": {"rt": -1, "trial_type": "single-stim", "word": "bunny", "stimulus": "<p id=\"stim\">BUNNY</p>", "conditions": [24, 800, "v", 12000], "internal_node_id": "0.0-88.0", "trial": 3, "time_elapsed": 795888, "serialpos": 7, "key_press": -1, "wordID": 197, "type": "PRES_VIS", "trial_index": 124}, "uniqueid": "MTK2677:3ZAK8W07I5LKWQXS75DOL28COAVU0I", "dateTime": 1519235291640}, {"current_trial": 125, "trialdata": {"rt": -1, "trial_type": "single-stim", "word": "shelter", "stimulus": "<p id=\"stim\">SHELTER</p>", "conditions": [24, 800, "v", 12000], "internal_node_id": "0.0-89.0", "trial": 3, "time_elapsed": 797836, "serialpos": 8, "key_press": -1, "wordID": 1281, "type": "PRES_VIS", "trial_index": 125}, "uniqueid": "MTK2677:3ZAK8W07I5LKWQXS75DOL28COAVU0I", "dateTime": 1519235293588}, {"current_trial": 126, "trialdata": {"rt": -1, "trial_type": "single-stim", "word": "bucket", "stimulus": "<p id=\"stim\">BUCKET</p>", "conditions": [24, 800, "v", 12000], "internal_node_id": "0.0-90.0", "trial": 3, "time_elapsed": 799672, "serialpos": 9, "key_press": -1, "wordID": 183, "type": "PRES_VIS", "trial_index": 126}, "uniqueid": "MTK2677:3ZAK8W07I5LKWQXS75DOL28COAVU0I", "dateTime": 1519235295428}, {"current_trial": 127, "trialdata": {"rt": -1, "trial_type": "single-stim", "word": "grape", "stimulus": "<p id=\"stim\">GRAPE</p>", "conditions": [24, 800, "v", 12000], "internal_node_id": "0.0-91.0", "trial": 3, "time_elapsed": 801470, "serialpos": 10, "key_press": -1, "wordID": 653, "type": "PRES_VIS", "trial_index": 127}, "uniqueid": "MTK2677:3ZAK8W07I5LKWQXS75DOL28COAVU0I", "dateTime": 1519235297222}, {"current_trial": 128, "trialdata": {"rt": -1, "trial_type": "single-stim", "word": "pastry", "stimulus": "<p id=\"stim\">PASTRY</p>", "conditions": [24, 800, "v", 12000], "internal_node_id": "0.0-92.0", "trial": 3, "time_elapsed": 803341, "serialpos": 11, "key_press": -1, "wordID": 1021, "type": "PRES_VIS", "trial_index": 128}, "uniqueid": "MTK2677:3ZAK8W07I5LKWQXS75DOL28COAVU0I", "dateTime": 1519235299094}, {"current_trial": 129, "trialdata": {"rt": -1, "trial_type": "single-stim", "word": "badge", "stimulus": "<p id=\"stim\">BADGE</p>", "conditions": [24, 800, "v", 12000], "internal_node_id": "0.0-93.0", "trial": 3, "time_elapsed": 805209, "serialpos": 12, "key_press": -1, "wordID": 67, "type": "PRES_VIS", "trial_index": 129}, "uniqueid": "MTK2677:3ZAK8W07I5LKWQXS75DOL28COAVU0I", "dateTime": 1519235300961}, {"current_trial": 130, "trialdata": {"rt": -1, "trial_type": "single-stim", "word": "sticker", "stimulus": "<p id=\"stim\">STICKER</p>", "conditions": [24, 800, "v", 12000], "internal_node_id": "0.0-94.0", "trial": 3, "time_elapsed": 806979, "serialpos": 13, "key_press": -1, "wordID": 1381, "type": "PRES_VIS", "trial_index": 130}, "uniqueid": "MTK2677:3ZAK8W07I5LKWQXS75DOL28COAVU0I", "dateTime": 1519235302732}, {"current_trial": 131, "trialdata": {"rt": -1, "trial_type": "single-stim", "word": "pigment", "stimulus": "<p id=\"stim\">PIGMENT</p>", "conditions": [24, 800, "v", 12000], "internal_node_id": "0.0-95.0", "trial": 3, "time_elapsed": 808660, "serialpos": 14, "key_press": -1, "wordID": 1065, "type": "PRES_VIS", "trial_index": 131}, "uniqueid": "MTK2677:3ZAK8W07I5LKWQXS75DOL28COAVU0I", "dateTime": 1519235304412}, {"current_trial": 132, "trialdata": {"rt": -1, "trial_type": "single-stim", "word": "tweezers", "stimulus": "<p id=\"stim\">TWEEZERS</p>", "conditions": [24, 800, "v", 12000], "internal_node_id": "0.0-96.0", "trial": 3, "time_elapsed": 810662, "serialpos": 15, "key_press": -1, "wordID": 1525, "type": "PRES_VIS", "trial_index": 132}, "uniqueid": "MTK2677:3ZAK8W07I5LKWQXS75DOL28COAVU0I", "dateTime": 1519235306414}, {"current_trial": 133, "trialdata": {"rt": -1, "trial_type": "single-stim", "word": "robot", "stimulus": "<p id=\"stim\">ROBOT</p>", "conditions": [24, 800, "v", 12000], "internal_node_id": "0.0-97.0", "trial": 3, "time_elapsed": 812551, "serialpos": 16, "key_press": -1, "wordID": 1199, "type": "PRES_VIS", "trial_index": 133}, "uniqueid": "MTK2677:3ZAK8W07I5LKWQXS75DOL28COAVU0I", "dateTime": 1519235308303}, {"current_trial": 134, "trialdata": {"rt": -1, "trial_type": "single-stim", "word": "drug", "stimulus": "<p id=\"stim\">DRUG</p>", "conditions": [24, 800, "v", 12000], "internal_node_id": "0.0-98.0", "trial": 3, "time_elapsed": 814238, "serialpos": 17, "key_press": -1, "wordID": 500, "type": "PRES_VIS", "trial_index": 134}, "uniqueid": "MTK2677:3ZAK8W07I5LKWQXS75DOL28COAVU0I", "dateTime": 1519235309994}, {"current_trial": 135, "trialdata": {"rt": -1, "trial_type": "single-stim", "word": "flask", "stimulus": "<p id=\"stim\">FLASK</p>", "conditions": [24, 800, "v", 12000], "internal_node_id": "0.0-99.0", "trial": 3, "time_elapsed": 816146, "serialpos": 18, "key_press": -1, "wordID": 575, "type": "PRES_VIS", "trial_index": 135}, "uniqueid": "MTK2677:3ZAK8W07I5LKWQXS75DOL28COAVU0I", "dateTime": 1519235311898}, {"current_trial": 136, "trialdata": {"rt": -1, "trial_type": "single-stim", "word": "scissors", "stimulus": "<p id=\"stim\">SCISSORS</p>", "conditions": [24, 800, "v", 12000], "internal_node_id": "0.0-100.0", "trial": 3, "time_elapsed": 818048, "serialpos": 19, "key_press": -1, "wordID": 1249, "type": "PRES_VIS", "trial_index": 136}, "uniqueid": "MTK2677:3ZAK8W07I5LKWQXS75DOL28COAVU0I", "dateTime": 1519235313800}, {"current_trial": 137, "trialdata": {"rt": -1, "trial_type": "single-stim", "word": "cigar", "stimulus": "<p id=\"stim\">CIGAR</p>", "conditions": [24, 800, "v", 12000], "internal_node_id": "0.0-101.0", "trial": 3, "time_elapsed": 819786, "serialpos": 20, "key_press": -1, "wordID": 307, "type": "PRES_VIS", "trial_index": 137}, "uniqueid": "MTK2677:3ZAK8W07I5LKWQXS75DOL28COAVU0I", "dateTime": 1519235315538}, {"current_trial": 138, "trialdata": {"rt": -1, "trial_type": "single-stim", "word": "freckle", "stimulus": "<p id=\"stim\">FRECKLE</p>", "conditions": [24, 800, "v", 12000], "internal_node_id": "0.0-102.0", "trial": 3, "time_elapsed": 821539, "serialpos": 21, "key_press": -1, "wordID": 601, "type": "PRES_VIS", "trial_index": 138}, "uniqueid": "MTK2677:3ZAK8W07I5LKWQXS75DOL28COAVU0I", "dateTime": 1519235317291}, {"current_trial": 139, "trialdata": {"rt": -1, "trial_type": "single-stim", "word": "pliers", "stimulus": "<p id=\"stim\">PLIERS</p>", "conditions": [24, 800, "v", 12000], "internal_node_id": "0.0-103.0", "trial": 3, "time_elapsed": 823185, "serialpos": 22, "key_press": -1, "wordID": 1088, "type": "PRES_VIS", "trial_index": 139}, "uniqueid": "MTK2677:3ZAK8W07I5LKWQXS75DOL28COAVU0I", "dateTime": 1519235318938}, {"current_trial": 140, "trialdata": {"rt": -1, "trial_type": "single-stim", "word": "oyster", "stimulus": "<p id=\"stim\">OYSTER</p>", "conditions": [24, 800, "v", 12000], "internal_node_id": "0.0-104.0", "trial": 3, "time_elapsed": 825034, "serialpos": 23, "key_press": -1, "wordID": 994, "type": "PRES_VIS", "trial_index": 140}, "uniqueid": "MTK2677:3ZAK8W07I5LKWQXS75DOL28COAVU0I", "dateTime": 1519235320786}, {"current_trial": 141, "trialdata": {"rt": -1, "trial_type": "single-stim", "stimulus": "", "internal_node_id": "0.0-105.0-0.0", "time_elapsed": 827186, "key_press": -1, "type": "PRE_RECALL_DELAY", "trial_index": 141}, "uniqueid": "MTK2677:3ZAK8W07I5LKWQXS75DOL28COAVU0I", "dateTime": 1519235322938}, {"current_trial": 142, "trialdata": {"rt": -1000, "trial_type": "single-audio", "stimulus": "/static/audio/400Hz.wav", "internal_node_id": "0.0-106.0", "time_elapsed": 827689, "key_press": -1, "type": "PRE_RECALL_ALERT", "trial_index": 142}, "uniqueid": "MTK2677:3ZAK8W07I5LKWQXS75DOL28COAVU0I", "dateTime": 1519235323441}, {"current_trial": 143, "trialdata": {"rt": [4131, 7434, 11665, 14674, 17640, 22904, 25677, 29998, 34136, 44513, 54837, 59588], "recwords": ["drug", "cloud", "perfume", "flag", "pastry", "shelter", "puppy", "bunny", "badge", "scissors", "pastry", "donkey"], "key_times": [1893, 2102, 2650, 3307, 4131, 4818, 5710, 6248, 6556, 7017, 7434, 8199, 8627, 8801, 9699, 10227, 10584, 10960, 11665, 12621, 12955, 13351, 13923, 14674, 15565, 16019, 16233, 16666, 16860, 17056, 17640, 19455, 19936, 20295, 20775, 21448, 21720, 21892, 22904, 23735, 24183, 24496, 24653, 25295, 25677, 26411, 26908, 27309, 27922, 28381, 28538, 28896, 29998, 31840, 32262, 32494, 32924, 33219, 34136, 39809, 40248, 40777, 41950, 42123, 42858, 43232, 43489, 44513, 45738, 46202, 46546, 47870, 48074, 48272, 54837, 56922, 57287, 57691, 57930, 58416, 58877, 59588], "trial_type": "free-recall", "conditions": [24, 800, "v", 12000], "internal_node_id": "0.0-107.0-0.0", "key_presses": [68, 82, 85, 71, 13, 67, 76, 79, 85, 68, 13, 80, 69, 82, 70, 85, 77, 69, 13, 70, 76, 65, 71, 13, 80, 65, 83, 84, 82, 89, 13, 83, 72, 69, 76, 84, 69, 82, 13, 80, 85, 80, 80, 89, 13, 66, 85, 77, 8, 78, 78, 89, 13, 66, 65, 68, 71, 69, 13, 83, 67, 73, 83, 83, 79, 82, 83, 13, 80, 65, 83, 84, 82, 89, 13, 68, 79, 78, 75, 69, 89, 13], "trial": 3, "time_elapsed": 887694, "type": "FREE_RECALL", "trial_index": 143}, "uniqueid": "MTK2677:3ZAK8W07I5LKWQXS75DOL28COAVU0I", "dateTime": 1519235383456}, {"current_trial": 144, "trialdata": {"rt": 4308, "trial_type": "text", "internal_node_id": "0.0-108.0", "time_elapsed": 894015, "key_press": 75, "type": "INSTRUCTIONS", "trial_index": 144}, "uniqueid": "MTK2677:3ZAK8W07I5LKWQXS75DOL28COAVU0I", "dateTime": 1519235389770}, {"current_trial": 145, "trialdata": {"rt": [2844, 6646, 11095, 13372, 15733, 19093, 22813], "trial_type": "math-distractor", "key_times": [1836, 2243, 2844, 5726, 6193, 6646, 10318, 10556, 11095, 12515, 12941, 13372, 14980, 15270, 15733, 18233, 18678, 19093, 21947, 22312, 22813], "responses": ["14", "17", "12", "16", "13", "17", "12"], "num2": [4, 6, 6, 4, 3, 6, 7, 5], "num3": [6, 3, 3, 8, 6, 5, 4, 2], "conditions": [24, 1600, "v", 24000], "internal_node_id": "0.0-109.0", "key_presses": [49, 52, 13, 49, 55, 13, 49, 50, 13, 49, 54, 13, 49, 51, 13, 49, 55, 13, 49, 50, 13], "trial": 4, "time_elapsed": 920023, "type": "DISTRACTOR", "trial_index": 145, "num1": [4, 8, 3, 4, 4, 6, 1, 6]}, "uniqueid": "MTK2677:3ZAK8W07I5LKWQXS75DOL28COAVU0I", "dateTime": 1519235415775}, {"current_trial": 146, "trialdata": {"rt": -1, "trial_type": "single-stim", "stimulus": "<p id=\"stim\">10</p>", "internal_node_id": "0.0-110.0-0.0", "time_elapsed": 923025, "key_press": -1, "trial_index": 146}, "uniqueid": "MTK2677:3ZAK8W07I5LKWQXS75DOL28COAVU0I", "dateTime": 1519235418778}, {"current_trial": 147, "trialdata": {"rt": -1, "trial_type": "single-stim", "stimulus": "<p id=\"stim\">9</p>", "internal_node_id": "0.0-110.0-1.0", "time_elapsed": 924028, "key_press": -1, "trial_index": 147}, "uniqueid": "MTK2677:3ZAK8W07I5LKWQXS75DOL28COAVU0I", "dateTime": 1519235419781}, {"current_trial": 148, "trialdata": {"rt": -1, "trial_type": "single-stim", "stimulus": "<p id=\"stim\">8</p>", "internal_node_id": "0.0-110.0-2.0", "time_elapsed": 925031, "key_press": -1, "trial_index": 148}, "uniqueid": "MTK2677:3ZAK8W07I5LKWQXS75DOL28COAVU0I", "dateTime": 1519235420783}, {"current_trial": 149, "trialdata": {"rt": -1, "trial_type": "single-stim", "stimulus": "<p id=\"stim\">7</p>", "internal_node_id": "0.0-110.0-3.0", "time_elapsed": 926035, "key_press": -1, "trial_index": 149}, "uniqueid": "MTK2677:3ZAK8W07I5LKWQXS75DOL28COAVU0I", "dateTime": 1519235421788}, {"current_trial": 150, "trialdata": {"rt": -1, "trial_type": "single-stim", "stimulus": "<p id=\"stim\">6</p>", "internal_node_id": "0.0-110.0-4.0", "time_elapsed": 927038, "key_press": -1, "trial_index": 150}, "uniqueid": "MTK2677:3ZAK8W07I5LKWQXS75DOL28COAVU0I", "dateTime": 1519235422790}, {"current_trial": 151, "trialdata": {"rt": -1, "trial_type": "single-stim", "stimulus": "<p id=\"stim\">5</p>", "internal_node_id": "0.0-110.0-5.0", "time_elapsed": 928041, "key_press": -1, "trial_index": 151}, "uniqueid": "MTK2677:3ZAK8W07I5LKWQXS75DOL28COAVU0I", "dateTime": 1519235423793}, {"current_trial": 152, "trialdata": {"rt": -1, "trial_type": "single-stim", "stimulus": "<p id=\"stim\">4</p>", "internal_node_id": "0.0-110.0-6.0", "time_elapsed": 929043, "key_press": -1, "trial_index": 152}, "uniqueid": "MTK2677:3ZAK8W07I5LKWQXS75DOL28COAVU0I", "dateTime": 1519235424796}, {"current_trial": 153, "trialdata": {"rt": -1, "trial_type": "single-stim", "stimulus": "<p id=\"stim\">3</p>", "internal_node_id": "0.0-110.0-7.0", "time_elapsed": 930046, "key_press": -1, "trial_index": 153}, "uniqueid": "MTK2677:3ZAK8W07I5LKWQXS75DOL28COAVU0I", "dateTime": 1519235425798}, {"current_trial": 154, "trialdata": {"rt": -1, "trial_type": "single-stim", "stimulus": "<p id=\"stim\">2</p>", "internal_node_id": "0.0-110.0-8.0", "time_elapsed": 931049, "key_press": -1, "trial_index": 154}, "uniqueid": "MTK2677:3ZAK8W07I5LKWQXS75DOL28COAVU0I", "dateTime": 1519235426801}, {"current_trial": 155, "trialdata": {"rt": -1, "trial_type": "single-stim", "stimulus": "<p id=\"stim\">1</p>", "internal_node_id": "0.0-110.0-9.0", "time_elapsed": 932051, "key_press": -1, "trial_index": 155}, "uniqueid": "MTK2677:3ZAK8W07I5LKWQXS75DOL28COAVU0I", "dateTime": 1519235427804}, {"current_trial": 156, "trialdata": {"rt": -1, "trial_type": "single-stim", "stimulus": "<p id=\"stim\">+</p>", "internal_node_id": "0.0-111.0-0.0", "time_elapsed": 933554, "key_press": -1, "type": "FIXATION", "trial_index": 156}, "uniqueid": "MTK2677:3ZAK8W07I5LKWQXS75DOL28COAVU0I", "dateTime": 1519235429306}, {"current_trial": 157, "trialdata": {"rt": -1, "trial_type": "single-stim", "word": "branch", "stimulus": "<p id=\"stim\">BRANCH</p>", "conditions": [24, 1600, "v", 24000], "internal_node_id": "0.0-112.0", "trial": 4, "time_elapsed": 935157, "serialpos": 0, "key_press": -1, "wordID": 167, "type": "PRES_VIS", "trial_index": 157}, "uniqueid": "MTK2677:3ZAK8W07I5LKWQXS75DOL28COAVU0I", "dateTime": 1519235430909}, {"current_trial": 158, "trialdata": {"rt": -1, "trial_type": "single-stim", "word": "diner", "stimulus": "<p id=\"stim\">DINER</p>", "conditions": [24, 1600, "v", 24000], "internal_node_id": "0.0-113.0", "trial": 4, "time_elapsed": 937809, "serialpos": 1, "key_press": -1, "wordID": 466, "type": "PRES_VIS", "trial_index": 158}, "uniqueid": "MTK2677:3ZAK8W07I5LKWQXS75DOL28COAVU0I", "dateTime": 1519235433561}, {"current_trial": 159, "trialdata": {"rt": -1, "trial_type": "single-stim", "word": "banquet", "stimulus": "<p id=\"stim\">BANQUET</p>", "conditions": [24, 1600, "v", 24000], "internal_node_id": "0.0-114.0", "trial": 4, "time_elapsed": 940397, "serialpos": 2, "key_press": -1, "wordID": 85, "type": "PRES_VIS", "trial_index": 159}, "uniqueid": "MTK2677:3ZAK8W07I5LKWQXS75DOL28COAVU0I", "dateTime": 1519235436149}, {"current_trial": 160, "trialdata": {"rt": -1, "trial_type": "single-stim", "word": "patrol", "stimulus": "<p id=\"stim\">PATROL</p>", "conditions": [24, 1600, "v", 24000], "internal_node_id": "0.0-115.0", "trial": 4, "time_elapsed": 942968, "serialpos": 3, "key_press": -1, "wordID": 1026, "type": "PRES_VIS", "trial_index": 160}, "uniqueid": "MTK2677:3ZAK8W07I5LKWQXS75DOL28COAVU0I", "dateTime": 1519235438720}, {"current_trial": 161, "trialdata": {"rt": -1, "trial_type": "single-stim", "word": "police", "stimulus": "<p id=\"stim\">POLICE</p>", "conditions": [24, 1600, "v", 24000], "internal_node_id": "0.0-116.0", "trial": 4, "time_elapsed": 945504, "serialpos": 4, "key_press": -1, "wordID": 1097, "type": "PRES_VIS", "trial_index": 161}, "uniqueid": "MTK2677:3ZAK8W07I5LKWQXS75DOL28COAVU0I", "dateTime": 1519235441256}, {"current_trial": 162, "trialdata": {"rt": -1, "trial_type": "single-stim", "word": "coffee", "stimulus": "<p id=\"stim\">COFFEE</p>", "conditions": [24, 1600, "v", 24000], "internal_node_id": "0.0-117.0", "trial": 4, "time_elapsed": 948136, "serialpos": 5, "key_press": -1, "wordID": 340, "type": "PRES_VIS", "trial_index": 162}, "uniqueid": "MTK2677:3ZAK8W07I5LKWQXS75DOL28COAVU0I", "dateTime": 1519235443888}, {"current_trial": 163, "trialdata": {"rt": -1, "trial_type": "single-stim", "word": "banjo", "stimulus": "<p id=\"stim\">BANJO</p>", "conditions": [24, 1600, "v", 24000], "internal_node_id": "0.0-118.0", "trial": 4, "time_elapsed": 950740, "serialpos": 6, "key_press": -1, "wordID": 81, "type": "PRES_VIS", "trial_index": 163}, "uniqueid": "MTK2677:3ZAK8W07I5LKWQXS75DOL28COAVU0I", "dateTime": 1519235446492}, {"current_trial": 164, "trialdata": {"rt": -1, "trial_type": "single-stim", "word": "outdoors", "stimulus": "<p id=\"stim\">OUTDOORS</p>", "conditions": [24, 1600, "v", 24000], "internal_node_id": "0.0-119.0", "trial": 4, "time_elapsed": 953200, "serialpos": 7, "key_press": -1, "wordID": 986, "type": "PRES_VIS", "trial_index": 164}, "uniqueid": "MTK2677:3ZAK8W07I5LKWQXS75DOL28COAVU0I", "dateTime": 1519235448952}, {"current_trial": 165, "trialdata": {"rt": -1, "trial_type": "single-stim", "word": "valve", "stimulus": "<p id=\"stim\">VALVE</p>", "conditions": [24, 1600, "v", 24000], "internal_node_id": "0.0-120.0", "trial": 4, "time_elapsed": 955781, "serialpos": 8, "key_press": -1, "wordID": 1545, "type": "PRES_VIS", "trial_index": 165}, "uniqueid": "MTK2677:3ZAK8W07I5LKWQXS75DOL28COAVU0I", "dateTime": 1519235451533}, {"current_trial": 166, "trialdata": {"rt": -1, "trial_type": "single-stim", "word": "creature", "stimulus": "<p id=\"stim\">CREATURE</p>", "conditions": [24, 1600, "v", 24000], "internal_node_id": "0.0-121.0", "trial": 4, "time_elapsed": 958304, "serialpos": 9, "key_press": -1, "wordID": 402, "type": "PRES_VIS", "trial_index": 166}, "uniqueid": "MTK2677:3ZAK8W07I5LKWQXS75DOL28COAVU0I", "dateTime": 1519235454056}, {"current_trial": 167, "trialdata": {"rt": -1, "trial_type": "single-stim", "word": "kitchen", "stimulus": "<p id=\"stim\">KITCHEN</p>", "conditions": [24, 1600, "v", 24000], "internal_node_id": "0.0-122.0", "trial": 4, "time_elapsed": 960980, "serialpos": 10, "key_press": -1, "wordID": 777, "type": "PRES_VIS", "trial_index": 167}, "uniqueid": "MTK2677:3ZAK8W07I5LKWQXS75DOL28COAVU0I", "dateTime": 1519235456733}, {"current_trial": 168, "trialdata": {"rt": -1, "trial_type": "single-stim", "word": "bank", "stimulus": "<p id=\"stim\">BANK</p>", "conditions": [24, 1600, "v", 24000], "internal_node_id": "0.0-123.0", "trial": 4, "time_elapsed": 963785, "serialpos": 11, "key_press": -1, "wordID": 82, "type": "PRES_VIS", "trial_index": 168}, "uniqueid": "MTK2677:3ZAK8W07I5LKWQXS75DOL28COAVU0I", "dateTime": 1519235459538}, {"current_trial": 169, "trialdata": {"rt": -1, "trial_type": "single-stim", "word": "comet", "stimulus": "<p id=\"stim\">COMET</p>", "conditions": [24, 1600, "v", 24000], "internal_node_id": "0.0-124.0", "trial": 4, "time_elapsed": 966257, "serialpos": 12, "key_press": -1, "wordID": 352, "type": "PRES_VIS", "trial_index": 169}, "uniqueid": "MTK2677:3ZAK8W07I5LKWQXS75DOL28COAVU0I", "dateTime": 1519235462009}, {"current_trial": 170, "trialdata": {"rt": -1, "trial_type": "single-stim", "word": "cobra", "stimulus": "<p id=\"stim\">COBRA</p>", "conditions": [24, 1600, "v", 24000], "internal_node_id": "0.0-125.0", "trial": 4, "time_elapsed": 968879, "serialpos": 13, "key_press": -1, "wordID": 335, "type": "PRES_VIS", "trial_index": 170}, "uniqueid": "MTK2677:3ZAK8W07I5LKWQXS75DOL28COAVU0I", "dateTime": 1519235464631}, {"current_trial": 171, "trialdata": {"rt": -1, "trial_type": "single-stim", "word": "pizza", "stimulus": "<p id=\"stim\">PIZZA</p>", "conditions": [24, 1600, "v", 24000], "internal_node_id": "0.0-126.0", "trial": 4, "time_elapsed": 971283, "serialpos": 14, "key_press": -1, "wordID": 1078, "type": "PRES_VIS", "trial_index": 171}, "uniqueid": "MTK2677:3ZAK8W07I5LKWQXS75DOL28COAVU0I", "dateTime": 1519235467036}, {"current_trial": 172, "trialdata": {"rt": -1, "trial_type": "single-stim", "word": "tombstone", "stimulus": "<p id=\"stim\">TOMBSTONE</p>", "conditions": [24, 1600, "v", 24000], "internal_node_id": "0.0-127.0", "trial": 4, "time_elapsed": 973859, "serialpos": 15, "key_press": -1, "wordID": 1477, "type": "PRES_VIS", "trial_index": 172}, "uniqueid": "MTK2677:3ZAK8W07I5LKWQXS75DOL28COAVU0I", "dateTime": 1519235469611}, {"current_trial": 173, "trialdata": {"rt": -1, "trial_type": "single-stim", "word": "crater", "stimulus": "<p id=\"stim\">CRATER</p>", "conditions": [24, 1600, "v", 24000], "internal_node_id": "0.0-128.0", "trial": 4, "time_elapsed": 976538, "serialpos": 16, "key_press": -1, "wordID": 399, "type": "PRES_VIS", "trial_index": 173}, "uniqueid": "MTK2677:3ZAK8W07I5LKWQXS75DOL28COAVU0I", "dateTime": 1519235472290}, {"current_trial": 174, "trialdata": {"rt": -1, "trial_type": "single-stim", "word": "cattle", "stimulus": "<p id=\"stim\">CATTLE</p>", "conditions": [24, 1600, "v", 24000], "internal_node_id": "0.0-129.0", "trial": 4, "time_elapsed": 978967, "serialpos": 17, "key_press": -1, "wordID": 260, "type": "PRES_VIS", "trial_index": 174}, "uniqueid": "MTK2677:3ZAK8W07I5LKWQXS75DOL28COAVU0I", "dateTime": 1519235474719}, {"current_trial": 175, "trialdata": {"rt": -1, "trial_type": "single-stim", "word": "tractor", "stimulus": "<p id=\"stim\">TRACTOR</p>", "conditions": [24, 1600, "v", 24000], "internal_node_id": "0.0-130.0", "trial": 4, "time_elapsed": 981501, "serialpos": 18, "key_press": -1, "wordID": 1492, "type": "PRES_VIS", "trial_index": 175}, "uniqueid": "MTK2677:3ZAK8W07I5LKWQXS75DOL28COAVU0I", "dateTime": 1519235477253}, {"current_trial": 176, "trialdata": {"rt": -1, "trial_type": "single-stim", "word": "knife", "stimulus": "<p id=\"stim\">KNIFE</p>", "conditions": [24, 1600, "v", 24000], "internal_node_id": "0.0-131.0", "trial": 4, "time_elapsed": 984054, "serialpos": 19, "key_press": -1, "wordID": 784, "type": "PRES_VIS", "trial_index": 176}, "uniqueid": "MTK2677:3ZAK8W07I5LKWQXS75DOL28COAVU0I", "dateTime": 1519235479806}, {"current_trial": 177, "trialdata": {"rt": -1, "trial_type": "single-stim", "word": "sword", "stimulus": "<p id=\"stim\">SWORD</p>", "conditions": [24, 1600, "v", 24000], "internal_node_id": "0.0-132.0", "trial": 4, "time_elapsed": 986822, "serialpos": 20, "key_press": -1, "wordID": 1422, "type": "PRES_VIS", "trial_index": 177}, "uniqueid": "MTK2677:3ZAK8W07I5LKWQXS75DOL28COAVU0I", "dateTime": 1519235482574}, {"current_trial": 178, "trialdata": {"rt": -1, "trial_type": "single-stim", "word": "jury", "stimulus": "<p id=\"stim\">JURY</p>", "conditions": [24, 1600, "v", 24000], "internal_node_id": "0.0-133.0", "trial": 4, "time_elapsed": 989262, "serialpos": 21, "key_press": -1, "wordID": 765, "type": "PRES_VIS", "trial_index": 178}, "uniqueid": "MTK2677:3ZAK8W07I5LKWQXS75DOL28COAVU0I", "dateTime": 1519235485014}, {"current_trial": 179, "trialdata": {"rt": -1, "trial_type": "single-stim", "word": "monster", "stimulus": "<p id=\"stim\">MONSTER</p>", "conditions": [24, 1600, "v", 24000], "internal_node_id": "0.0-134.0", "trial": 4, "time_elapsed": 991922, "serialpos": 22, "key_press": -1, "wordID": 911, "type": "PRES_VIS", "trial_index": 179}, "uniqueid": "MTK2677:3ZAK8W07I5LKWQXS75DOL28COAVU0I", "dateTime": 1519235487675}, {"current_trial": 180, "trialdata": {"rt": -1, "trial_type": "single-stim", "word": "casket", "stimulus": "<p id=\"stim\">CASKET</p>", "conditions": [24, 1600, "v", 24000], "internal_node_id": "0.0-135.0", "trial": 4, "time_elapsed": 994608, "serialpos": 23, "key_press": -1, "wordID": 254, "type": "PRES_VIS", "trial_index": 180}, "uniqueid": "MTK2677:3ZAK8W07I5LKWQXS75DOL28COAVU0I", "dateTime": 1519235490361}, {"current_trial": 181, "trialdata": {"rt": -1, "trial_type": "single-stim", "stimulus": "", "internal_node_id": "0.0-136.0-0.0", "time_elapsed": 996819, "key_press": -1, "type": "PRE_RECALL_DELAY", "trial_index": 181}, "uniqueid": "MTK2677:3ZAK8W07I5LKWQXS75DOL28COAVU0I", "dateTime": 1519235492572}, {"current_trial": 182, "trialdata": {"rt": -1000, "trial_type": "single-audio", "stimulus": "/static/audio/400Hz.wav", "internal_node_id": "0.0-137.0", "time_elapsed": 997320, "key_press": -1, "type": "PRE_RECALL_ALERT", "trial_index": 182}, "uniqueid": "MTK2677:3ZAK8W07I5LKWQXS75DOL28COAVU0I", "dateTime": 1519235493073}, {"current_trial": 183, "trialdata": {"rt": [3800, 7119, 10665, 13205, 17385, 20300, 24875, 29208, 32045, 34685, 38489, 44845, 48276, 52724, 57001], "recwords": ["casket", "monster", "branch", "diner", "police", "patrol", "cattle", "cobra", "comet", "bank", "outdoors", "tombstone", "crater", "banjo", "value"], "key_times": [1447, 1755, 1965, 2412, 2867, 3089, 3800, 4326, 4623, 4915, 5277, 5729, 5969, 6151, 7119, 7824, 8180, 8427, 8816, 9286, 9682, 10665, 11664, 12006, 12271, 12615, 12781, 13205, 15265, 15450, 15632, 15837, 16322, 16658, 17385, 17876, 18307, 18773, 18960, 19283, 19492, 20300, 21454, 21742, 22974, 23127, 23413, 23871, 24875, 26942, 27335, 27693, 28022, 28298, 29208, 30342, 30704, 31003, 31384, 31625, 32045, 32628, 32972, 33370, 33807, 34685, 35496, 35795, 36224, 36729, 37148, 37299, 37650, 37909, 38489, 41007, 41320, 41752, 42073, 42473, 42866, 43227, 43536, 43931, 44845, 45766, 46176, 46481, 46951, 47234, 47409, 48276, 50349, 50733, 51157, 51392, 51888, 52724, 54316, 54737, 55214, 55921, 56285, 57001, 58368, 58659, 58877, 59135, 59580, 59971], "trial_type": "free-recall", "conditions": [24, 1600, "v", 24000], "internal_node_id": "0.0-138.0-0.0", "key_presses": [67, 65, 83, 75, 69, 84, 13, 77, 79, 78, 83, 84, 69, 82, 13, 66, 82, 65, 78, 67, 72, 13, 68, 73, 78, 69, 82, 13, 80, 79, 76, 73, 67, 69, 13, 80, 65, 84, 82, 79, 76, 13, 67, 65, 84, 84, 76, 69, 13, 67, 79, 66, 82, 65, 13, 67, 79, 77, 69, 84, 13, 66, 65, 78, 75, 13, 79, 85, 84, 68, 79, 79, 82, 83, 13, 84, 79, 77, 66, 83, 84, 79, 78, 69, 13, 67, 82, 65, 84, 69, 82, 13, 66, 65, 78, 74, 79, 13, 86, 65, 76, 85, 69, 13, 67, 82, 69, 65, 84, 85], "trial": 4, "time_elapsed": 1057325, "type": "FREE_RECALL", "trial_index": 183}, "uniqueid": "MTK2677:3ZAK8W07I5LKWQXS75DOL28COAVU0I", "dateTime": 1519235553082}, {"current_trial": 184, "trialdata": {"rt": 5167, "trial_type": "text", "internal_node_id": "0.0-139.0", "time_elapsed": 1064499, "key_press": 72, "type": "INSTRUCTIONS", "trial_index": 184}, "uniqueid": "MTK2677:3ZAK8W07I5LKWQXS75DOL28COAVU0I", "dateTime": 1519235560251}, {"current_trial": 185, "trialdata": {"rt": [2736, 5864, 8031, 10144, 14140, 16219, 19176, 21047], "trial_type": "math-distractor", "key_times": [1940, 2389, 2736, 5113, 5506, 5864, 7132, 7643, 8031, 9277, 9764, 10144, 11718, 12229, 12885, 13447, 14140, 15533, 15851, 16219, 18647, 18804, 19176, 20527, 20689, 21047], "responses": ["18", "18", "10", "13", "15", "13", "11", "12"], "num2": [6, 3, 2, 1, 5, 7, 1, 2, 9], "num3": [5, 9, 6, 5, 9, 1, 6, 7, 2], "conditions": [24, 800, "v", 24000], "internal_node_id": "0.0-140.0", "key_presses": [49, 56, 13, 49, 56, 13, 49, 48, 13, 49, 51, 13, 49, 51, 8, 53, 13, 49, 51, 13, 49, 49, 13, 49, 50, 13], "trial": 5, "time_elapsed": 1090514, "type": "DISTRACTOR", "trial_index": 185, "num1": [8, 6, 2, 7, 1, 5, 4, 3, 2]}, "uniqueid": "MTK2677:3ZAK8W07I5LKWQXS75DOL28COAVU0I", "dateTime": 1519235586266}, {"current_trial": 186, "trialdata": {"rt": -1, "trial_type": "single-stim", "stimulus": "<p id=\"stim\">10</p>", "internal_node_id": "0.0-141.0-0.0", "time_elapsed": 1093518, "key_press": -1, "trial_index": 186}, "uniqueid": "MTK2677:3ZAK8W07I5LKWQXS75DOL28COAVU0I", "dateTime": 1519235589270}, {"current_trial": 187, "trialdata": {"rt": -1, "trial_type": "single-stim", "stimulus": "<p id=\"stim\">9</p>", "internal_node_id": "0.0-141.0-1.0", "time_elapsed": 1094522, "key_press": -1, "trial_index": 187}, "uniqueid": "MTK2677:3ZAK8W07I5LKWQXS75DOL28COAVU0I", "dateTime": 1519235590274}, {"current_trial": 188, "trialdata": {"rt": -1, "trial_type": "single-stim", "stimulus": "<p id=\"stim\">8</p>", "internal_node_id": "0.0-141.0-2.0", "time_elapsed": 1095524, "key_press": -1, "trial_index": 188}, "uniqueid": "MTK2677:3ZAK8W07I5LKWQXS75DOL28COAVU0I", "dateTime": 1519235591276}, {"current_trial": 189, "trialdata": {"rt": -1, "trial_type": "single-stim", "stimulus": "<p id=\"stim\">7</p>", "internal_node_id": "0.0-141.0-3.0", "time_elapsed": 1096526, "key_press": -1, "trial_index": 189}, "uniqueid": "MTK2677:3ZAK8W07I5LKWQXS75DOL28COAVU0I", "dateTime": 1519235592278}, {"current_trial": 190, "trialdata": {"rt": -1, "trial_type": "single-stim", "stimulus": "<p id=\"stim\">6</p>", "internal_node_id": "0.0-141.0-4.0", "time_elapsed": 1097541, "key_press": -1, "trial_index": 190}, "uniqueid": "MTK2677:3ZAK8W07I5LKWQXS75DOL28COAVU0I", "dateTime": 1519235593293}, {"current_trial": 191, "trialdata": {"rt": -1, "trial_type": "single-stim", "stimulus": "<p id=\"stim\">5</p>", "internal_node_id": "0.0-141.0-5.0", "time_elapsed": 1098545, "key_press": -1, "trial_index": 191}, "uniqueid": "MTK2677:3ZAK8W07I5LKWQXS75DOL28COAVU0I", "dateTime": 1519235594297}, {"current_trial": 192, "trialdata": {"rt": -1, "trial_type": "single-stim", "stimulus": "<p id=\"stim\">4</p>", "internal_node_id": "0.0-141.0-6.0", "time_elapsed": 1099548, "key_press": -1, "trial_index": 192}, "uniqueid": "MTK2677:3ZAK8W07I5LKWQXS75DOL28COAVU0I", "dateTime": 1519235595301}, {"current_trial": 193, "trialdata": {"rt": -1, "trial_type": "single-stim", "stimulus": "<p id=\"stim\">3</p>", "internal_node_id": "0.0-141.0-7.0", "time_elapsed": 1100550, "key_press": -1, "trial_index": 193}, "uniqueid": "MTK2677:3ZAK8W07I5LKWQXS75DOL28COAVU0I", "dateTime": 1519235596303}, {"current_trial": 194, "trialdata": {"rt": -1, "trial_type": "single-stim", "stimulus": "<p id=\"stim\">2</p>", "internal_node_id": "0.0-141.0-8.0", "time_elapsed": 1101552, "key_press": -1, "trial_index": 194}, "uniqueid": "MTK2677:3ZAK8W07I5LKWQXS75DOL28COAVU0I", "dateTime": 1519235597304}, {"current_trial": 195, "trialdata": {"rt": -1, "trial_type": "single-stim", "stimulus": "<p id=\"stim\">1</p>", "internal_node_id": "0.0-141.0-9.0", "time_elapsed": 1102555, "key_press": -1, "trial_index": 195}, "uniqueid": "MTK2677:3ZAK8W07I5LKWQXS75DOL28COAVU0I", "dateTime": 1519235598307}, {"current_trial": 196, "trialdata": {"rt": -1, "trial_type": "single-stim", "stimulus": "<p id=\"stim\">+</p>", "internal_node_id": "0.0-142.0-0.0", "time_elapsed": 1104059, "key_press": -1, "type": "FIXATION", "trial_index": 196}, "uniqueid": "MTK2677:3ZAK8W07I5LKWQXS75DOL28COAVU0I", "dateTime": 1519235599811}, {"current_trial": 197, "trialdata": {"rt": -1, "trial_type": "single-stim", "word": "rod", "stimulus": "<p id=\"stim\">ROD</p>", "conditions": [24, 800, "v", 24000], "internal_node_id": "0.0-143.0", "trial": 5, "time_elapsed": 1104861, "serialpos": 0, "key_press": -1, "wordID": 1202, "type": "PRES_VIS", "trial_index": 197}, "uniqueid": "MTK2677:3ZAK8W07I5LKWQXS75DOL28COAVU0I", "dateTime": 1519235600613}, {"current_trial": 198, "trialdata": {"rt": -1, "trial_type": "single-stim", "word": "child", "stimulus": "<p id=\"stim\">CHILD</p>", "conditions": [24, 800, "v", 24000], "internal_node_id": "0.0-144.0", "trial": 5, "time_elapsed": 1106854, "serialpos": 1, "key_press": -1, "wordID": 298, "type": "PRES_VIS", "trial_index": 198}, "uniqueid": "MTK2677:3ZAK8W07I5LKWQXS75DOL28COAVU0I", "dateTime": 1519235602606}, {"current_trial": 199, "trialdata": {"rt": -1, "trial_type": "single-stim", "word": "garbage", "stimulus": "<p id=\"stim\">GARBAGE</p>", "conditions": [24, 800, "v", 24000], "internal_node_id": "0.0-145.0", "trial": 5, "time_elapsed": 1108781, "serialpos": 2, "key_press": -1, "wordID": 621, "type": "PRES_VIS", "trial_index": 199}, "uniqueid": "MTK2677:3ZAK8W07I5LKWQXS75DOL28COAVU0I", "dateTime": 1519235604536}, {"current_trial": 200, "trialdata": {"rt": -1, "trial_type": "single-stim", "word": "crevice", "stimulus": "<p id=\"stim\">CREVICE</p>", "conditions": [24, 800, "v", 24000], "internal_node_id": "0.0-146.0", "trial": 5, "time_elapsed": 1110525, "serialpos": 3, "key_press": -1, "wordID": 404, "type": "PRES_VIS", "trial_index": 200}, "uniqueid": "MTK2677:3ZAK8W07I5LKWQXS75DOL28COAVU0I", "dateTime": 1519235606277}, {"current_trial": 201, "trialdata": {"rt": -1, "trial_type": "single-stim", "word": "chauffeur", "stimulus": "<p id=\"stim\">CHAUFFEUR</p>", "conditions": [24, 800, "v", 24000], "internal_node_id": "0.0-147.0", "trial": 5, "time_elapsed": 1112175, "serialpos": 4, "key_press": -1, "wordID": 282, "type": "PRES_VIS", "trial_index": 201}, "uniqueid": "MTK2677:3ZAK8W07I5LKWQXS75DOL28COAVU0I", "dateTime": 1519235607927}, {"current_trial": 202, "trialdata": {"rt": -1, "trial_type": "single-stim", "word": "ox", "stimulus": "<p id=\"stim\">OX</p>", "conditions": [24, 800, "v", 24000], "internal_node_id": "0.0-148.0", "trial": 5, "time_elapsed": 1113849, "serialpos": 5, "key_press": -1, "wordID": 993, "type": "PRES_VIS", "trial_index": 202}, "uniqueid": "MTK2677:3ZAK8W07I5LKWQXS75DOL28COAVU0I", "dateTime": 1519235609601}, {"current_trial": 203, "trialdata": {"rt": -1, "trial_type": "single-stim", "word": "tuba", "stimulus": "<p id=\"stim\">TUBA</p>", "conditions": [24, 800, "v", 24000], "internal_node_id": "0.0-149.0", "trial": 5, "time_elapsed": 1115488, "serialpos": 6, "key_press": -1, "wordID": 1514, "type": "PRES_VIS", "trial_index": 203}, "uniqueid": "MTK2677:3ZAK8W07I5LKWQXS75DOL28COAVU0I", "dateTime": 1519235611240}, {"current_trial": 204, "trialdata": {"rt": -1, "trial_type": "single-stim", "word": "piano", "stimulus": "<p id=\"stim\">PIANO</p>", "conditions": [24, 800, "v", 24000], "internal_node_id": "0.0-150.0", "trial": 5, "time_elapsed": 1117132, "serialpos": 7, "key_press": -1, "wordID": 1056, "type": "PRES_VIS", "trial_index": 204}, "uniqueid": "MTK2677:3ZAK8W07I5LKWQXS75DOL28COAVU0I", "dateTime": 1519235612884}, {"current_trial": 205, "trialdata": {"rt": -1, "trial_type": "single-stim", "word": "taxi", "stimulus": "<p id=\"stim\">TAXI</p>", "conditions": [24, 800, "v", 24000], "internal_node_id": "0.0-151.0", "trial": 5, "time_elapsed": 1119032, "serialpos": 8, "key_press": -1, "wordID": 1437, "type": "PRES_VIS", "trial_index": 205}, "uniqueid": "MTK2677:3ZAK8W07I5LKWQXS75DOL28COAVU0I", "dateTime": 1519235614784}, {"current_trial": 206, "trialdata": {"rt": -1, "trial_type": "single-stim", "word": "suitcase", "stimulus": "<p id=\"stim\">SUITCASE</p>", "conditions": [24, 800, "v", 24000], "internal_node_id": "0.0-152.0", "trial": 5, "time_elapsed": 1120854, "serialpos": 9, "key_press": -1, "wordID": 1402, "type": "PRES_VIS", "trial_index": 206}, "uniqueid": "MTK2677:3ZAK8W07I5LKWQXS75DOL28COAVU0I", "dateTime": 1519235616606}, {"current_trial": 207, "trialdata": {"rt": -1, "trial_type": "single-stim", "word": "spool", "stimulus": "<p id=\"stim\">SPOOL</p>", "conditions": [24, 800, "v", 24000], "internal_node_id": "0.0-153.0", "trial": 5, "time_elapsed": 1122498, "serialpos": 10, "key_press": -1, "wordID": 1355, "type": "PRES_VIS", "trial_index": 207}, "uniqueid": "MTK2677:3ZAK8W07I5LKWQXS75DOL28COAVU0I", "dateTime": 1519235618250}, {"current_trial": 208, "trialdata": {"rt": -1, "trial_type": "single-stim", "word": "bison", "stimulus": "<p id=\"stim\">BISON</p>", "conditions": [24, 800, "v", 24000], "internal_node_id": "0.0-154.0", "trial": 5, "time_elapsed": 1124226, "serialpos": 11, "key_press": -1, "wordID": 130, "type": "PRES_VIS", "trial_index": 208}, "uniqueid": "MTK2677:3ZAK8W07I5LKWQXS75DOL28COAVU0I", "dateTime": 1519235619978}, {"current_trial": 209, "trialdata": {"rt": -1, "trial_type": "single-stim", "word": "champagne", "stimulus": "<p id=\"stim\">CHAMPAGNE</p>", "conditions": [24, 800, "v", 24000], "internal_node_id": "0.0-155.0", "trial": 5, "time_elapsed": 1125853, "serialpos": 12, "key_press": -1, "wordID": 277, "type": "PRES_VIS", "trial_index": 209}, "uniqueid": "MTK2677:3ZAK8W07I5LKWQXS75DOL28COAVU0I", "dateTime": 1519235621605}, {"current_trial": 210, "trialdata": {"rt": -1, "trial_type": "single-stim", "word": "brick", "stimulus": "<p id=\"stim\">BRICK</p>", "conditions": [24, 800, "v", 24000], "internal_node_id": "0.0-156.0", "trial": 5, "time_elapsed": 1127743, "serialpos": 13, "key_press": -1, "wordID": 171, "type": "PRES_VIS", "trial_index": 210}, "uniqueid": "MTK2677:3ZAK8W07I5LKWQXS75DOL28COAVU0I", "dateTime": 1519235623496}, {"current_trial": 211, "trialdata": {"rt": -1, "trial_type": "single-stim", "word": "tile", "stimulus": "<p id=\"stim\">TILE</p>", "conditions": [24, 800, "v", 24000], "internal_node_id": "0.0-157.0", "trial": 5, "time_elapsed": 1129429, "serialpos": 14, "key_press": -1, "wordID": 1467, "type": "PRES_VIS", "trial_index": 211}, "uniqueid": "MTK2677:3ZAK8W07I5LKWQXS75DOL28COAVU0I", "dateTime": 1519235625181}, {"current_trial": 212, "trialdata": {"rt": -1, "trial_type": "single-stim", "word": "termite", "stimulus": "<p id=\"stim\">TERMITE</p>", "conditions": [24, 800, "v", 24000], "internal_node_id": "0.0-158.0", "trial": 5, "time_elapsed": 1131178, "serialpos": 15, "key_press": -1, "wordID": 1450, "type": "PRES_VIS", "trial_index": 212}, "uniqueid": "MTK2677:3ZAK8W07I5LKWQXS75DOL28COAVU0I", "dateTime": 1519235626930}, {"current_trial": 213, "trialdata": {"rt": -1, "trial_type": "single-stim", "word": "turtle", "stimulus": "<p id=\"stim\">TURTLE</p>", "conditions": [24, 800, "v", 24000], "internal_node_id": "0.0-159.0", "trial": 5, "time_elapsed": 1133155, "serialpos": 16, "key_press": -1, "wordID": 1521, "type": "PRES_VIS", "trial_index": 213}, "uniqueid": "MTK2677:3ZAK8W07I5LKWQXS75DOL28COAVU0I", "dateTime": 1519235628907}, {"current_trial": 214, "trialdata": {"rt": -1, "trial_type": "single-stim", "word": "flashlight", "stimulus": "<p id=\"stim\">FLASHLIGHT</p>", "conditions": [24, 800, "v", 24000], "internal_node_id": "0.0-160.0", "trial": 5, "time_elapsed": 1134767, "serialpos": 17, "key_press": -1, "wordID": 574, "type": "PRES_VIS", "trial_index": 214}, "uniqueid": "MTK2677:3ZAK8W07I5LKWQXS75DOL28COAVU0I", "dateTime": 1519235630520}, {"current_trial": 215, "trialdata": {"rt": -1, "trial_type": "single-stim", "word": "plaza", "stimulus": "<p id=\"stim\">PLAZA</p>", "conditions": [24, 800, "v", 24000], "internal_node_id": "0.0-161.0", "trial": 5, "time_elapsed": 1136556, "serialpos": 18, "key_press": -1, "wordID": 1087, "type": "PRES_VIS", "trial_index": 215}, "uniqueid": "MTK2677:3ZAK8W07I5LKWQXS75DOL28COAVU0I", "dateTime": 1519235632308}, {"current_trial": 216, "trialdata": {"rt": -1, "trial_type": "single-stim", "word": "dolphin", "stimulus": "<p id=\"stim\">DOLPHIN</p>", "conditions": [24, 800, "v", 24000], "internal_node_id": "0.0-162.0", "trial": 5, "time_elapsed": 1138252, "serialpos": 19, "key_press": -1, "wordID": 482, "type": "PRES_VIS", "trial_index": 216}, "uniqueid": "MTK2677:3ZAK8W07I5LKWQXS75DOL28COAVU0I", "dateTime": 1519235634005}, {"current_trial": 217, "trialdata": {"rt": -1, "trial_type": "single-stim", "word": "flipper", "stimulus": "<p id=\"stim\">FLIPPER</p>", "conditions": [24, 800, "v", 24000], "internal_node_id": "0.0-163.0", "trial": 5, "time_elapsed": 1140082, "serialpos": 20, "key_press": -1, "wordID": 579, "type": "PRES_VIS", "trial_index": 217}, "uniqueid": "MTK2677:3ZAK8W07I5LKWQXS75DOL28COAVU0I", "dateTime": 1519235635835}, {"current_trial": 218, "trialdata": {"rt": -1, "trial_type": "single-stim", "word": "carriage", "stimulus": "<p id=\"stim\">CARRIAGE</p>", "conditions": [24, 800, "v", 24000], "internal_node_id": "0.0-164.0", "trial": 5, "time_elapsed": 1141829, "serialpos": 21, "key_press": -1, "wordID": 247, "type": "PRES_VIS", "trial_index": 218}, "uniqueid": "MTK2677:3ZAK8W07I5LKWQXS75DOL28COAVU0I", "dateTime": 1519235637581}, {"current_trial": 219, "trialdata": {"rt": -1, "trial_type": "single-stim", "word": "camel", "stimulus": "<p id=\"stim\">CAMEL</p>", "conditions": [24, 800, "v", 24000], "internal_node_id": "0.0-165.0", "trial": 5, "time_elapsed": 1143649, "serialpos": 22, "key_press": -1, "wordID": 222, "type": "PRES_VIS", "trial_index": 219}, "uniqueid": "MTK2677:3ZAK8W07I5LKWQXS75DOL28COAVU0I", "dateTime": 1519235639402}, {"current_trial": 220, "trialdata": {"rt": -1, "trial_type": "single-stim", "word": "servant", "stimulus": "<p id=\"stim\">SERVANT</p>", "conditions": [24, 800, "v", 24000], "internal_node_id": "0.0-166.0", "trial": 5, "time_elapsed": 1145294, "serialpos": 23, "key_press": -1, "wordID": 1270, "type": "PRES_VIS", "trial_index": 220}, "uniqueid": "MTK2677:3ZAK8W07I5LKWQXS75DOL28COAVU0I", "dateTime": 1519235641048}, {"current_trial": 221, "trialdata": {"rt": -1, "trial_type": "single-stim", "stimulus": "", "internal_node_id": "0.0-167.0-0.0", "time_elapsed": 1147592, "key_press": -1, "type": "PRE_RECALL_DELAY", "trial_index": 221}, "uniqueid": "MTK2677:3ZAK8W07I5LKWQXS75DOL28COAVU0I", "dateTime": 1519235643344}, {"current_trial": 222, "trialdata": {"rt": -1000, "trial_type": "single-audio", "stimulus": "/static/audio/400Hz.wav", "internal_node_id": "0.0-168.0", "time_elapsed": 1148092, "key_press": -1, "type": "PRE_RECALL_ALERT", "trial_index": 222}, "uniqueid": "MTK2677:3ZAK8W07I5LKWQXS75DOL28COAVU0I", "dateTime": 1519235643845}, {"current_trial": 223, "trialdata": {"rt": [3986, 8288, 11641, 14778, 19287, 23354, 26025, 28390, 31184, 34593, 36834, 39674, 43529, 46913, 51120], "recwords": ["servant", "camel", "suitcase", "plaza", "turtle", "termite", "brick", "tile", "rod", "ox", "tuba", "child", "taxi", "flipper", "chaffuer"], "key_times": [932, 1111, 1301, 2013, 2330, 2774, 3223, 3986, 4819, 5097, 5880, 6455, 6921, 8288, 8986, 9353, 9517, 9903, 10389, 10669, 10835, 11053, 11641, 12739, 12931, 13396, 13961, 14212, 14778, 16059, 16833, 17272, 17902, 18273, 18660, 19287, 20775, 21048, 21223, 21720, 21987, 22603, 22961, 23354, 23869, 24315, 24694, 25109, 25628, 26025, 26925, 27248, 27478, 27865, 28390, 30007, 30444, 30793, 31184, 33074, 33667, 34593, 35270, 35494, 35930, 36295, 36834, 38018, 38447, 38709, 38898, 39287, 39674, 41843, 42210, 42509, 42928, 43529, 44566, 44891, 45144, 45400, 45557, 46260, 46429, 46913, 47649, 47919, 48299, 48697, 48858, 49403, 50198, 50387, 51120, 54494, 54896, 55368, 58986, 59374, 59687, 59995], "trial_type": "free-recall", "conditions": [24, 800, "v", 24000], "internal_node_id": "0.0-169.0-0.0", "key_presses": [83, 69, 82, 86, 65, 78, 84, 32, 67, 65, 77, 69, 76, 13, 83, 85, 73, 84, 67, 65, 83, 69, 13, 80, 76, 65, 90, 65, 13, 84, 85, 82, 84, 76, 69, 13, 84, 69, 82, 77, 73, 84, 69, 13, 66, 82, 73, 67, 75, 13, 84, 73, 76, 69, 13, 82, 79, 68, 13, 79, 88, 13, 84, 85, 66, 65, 13, 67, 72, 73, 76, 68, 13, 84, 65, 88, 73, 13, 70, 76, 73, 80, 80, 69, 82, 13, 67, 72, 65, 70, 70, 85, 69, 82, 13, 71, 65, 82, 66, 65, 71, 69], "trial": 5, "time_elapsed": 1208103, "type": "FREE_RECALL", "trial_index": 223}, "uniqueid": "MTK2677:3ZAK8W07I5LKWQXS75DOL28COAVU0I", "dateTime": 1519235703862}, {"current_trial": 224, "trialdata": {"rt": 1116, "trial_type": "text", "internal_node_id": "0.0-170.0", "time_elapsed": 1211228, "key_press": 74, "type": "INSTRUCTIONS", "trial_index": 224}, "uniqueid": "MTK2677:3ZAK8W07I5LKWQXS75DOL28COAVU0I", "dateTime": 1519235706980}, {"current_trial": 225, "trialdata": {"rt": [2878, 5941, 9271], "trial_type": "math-distractor", "key_times": [2485, 2878, 5221, 5578, 5941, 8409, 8886, 9271], "responses": ["8", "15", "15"], "num2": [3, 7, 6, 5], "num3": [4, 6, 2, 6], "conditions": [12, 1600, "v", 12000], "internal_node_id": "0.0-171.0", "key_presses": [56, 13, 49, 53, 13, 49, 53, 13], "trial": 6, "time_elapsed": 1225231, "type": "DISTRACTOR", "trial_index": 225, "num1": [1, 2, 7, 8]}, "uniqueid": "MTK2677:3ZAK8W07I5LKWQXS75DOL28COAVU0I", "dateTime": 1519235720984}, {"current_trial": 226, "trialdata": {"rt": -1, "trial_type": "single-stim", "stimulus": "<p id=\"stim\">10</p>", "internal_node_id": "0.0-172.0-0.0", "time_elapsed": 1228234, "key_press": -1, "trial_index": 226}, "uniqueid": "MTK2677:3ZAK8W07I5LKWQXS75DOL28COAVU0I", "dateTime": 1519235723987}, {"current_trial": 227, "trialdata": {"rt": -1, "trial_type": "single-stim", "stimulus": "<p id=\"stim\">9</p>", "internal_node_id": "0.0-172.0-1.0", "time_elapsed": 1229239, "key_press": -1, "trial_index": 227}, "uniqueid": "MTK2677:3ZAK8W07I5LKWQXS75DOL28COAVU0I", "dateTime": 1519235724991}, {"current_trial": 228, "trialdata": {"rt": -1, "trial_type": "single-stim", "stimulus": "<p id=\"stim\">8</p>", "internal_node_id": "0.0-172.0-2.0", "time_elapsed": 1230241, "key_press": -1, "trial_index": 228}, "uniqueid": "MTK2677:3ZAK8W07I5LKWQXS75DOL28COAVU0I", "dateTime": 1519235725993}, {"current_trial": 229, "trialdata": {"rt": -1, "trial_type": "single-stim", "stimulus": "<p id=\"stim\">7</p>", "internal_node_id": "0.0-172.0-3.0", "time_elapsed": 1231246, "key_press": -1, "trial_index": 229}, "uniqueid": "MTK2677:3ZAK8W07I5LKWQXS75DOL28COAVU0I", "dateTime": 1519235726999}, {"current_trial": 230, "trialdata": {"rt": -1, "trial_type": "single-stim", "stimulus": "<p id=\"stim\">6</p>", "internal_node_id": "0.0-172.0-4.0", "time_elapsed": 1232249, "key_press": -1, "trial_index": 230}, "uniqueid": "MTK2677:3ZAK8W07I5LKWQXS75DOL28COAVU0I", "dateTime": 1519235728002}, {"current_trial": 231, "trialdata": {"rt": -1, "trial_type": "single-stim", "stimulus": "<p id=\"stim\">5</p>", "internal_node_id": "0.0-172.0-5.0", "time_elapsed": 1233253, "key_press": -1, "trial_index": 231}, "uniqueid": "MTK2677:3ZAK8W07I5LKWQXS75DOL28COAVU0I", "dateTime": 1519235729005}, {"current_trial": 232, "trialdata": {"rt": -1, "trial_type": "single-stim", "stimulus": "<p id=\"stim\">4</p>", "internal_node_id": "0.0-172.0-6.0", "time_elapsed": 1234254, "key_press": -1, "trial_index": 232}, "uniqueid": "MTK2677:3ZAK8W07I5LKWQXS75DOL28COAVU0I", "dateTime": 1519235730006}, {"current_trial": 233, "trialdata": {"rt": -1, "trial_type": "single-stim", "stimulus": "<p id=\"stim\">3</p>", "internal_node_id": "0.0-172.0-7.0", "time_elapsed": 1235256, "key_press": -1, "trial_index": 233}, "uniqueid": "MTK2677:3ZAK8W07I5LKWQXS75DOL28COAVU0I", "dateTime": 1519235731008}, {"current_trial": 234, "trialdata": {"rt": -1, "trial_type": "single-stim", "stimulus": "<p id=\"stim\">2</p>", "internal_node_id": "0.0-172.0-8.0", "time_elapsed": 1236258, "key_press": -1, "trial_index": 234}, "uniqueid": "MTK2677:3ZAK8W07I5LKWQXS75DOL28COAVU0I", "dateTime": 1519235732010}, {"current_trial": 235, "trialdata": {"rt": -1, "trial_type": "single-stim", "stimulus": "<p id=\"stim\">1</p>", "internal_node_id": "0.0-172.0-9.0", "time_elapsed": 1237259, "key_press": -1, "trial_index": 235}, "uniqueid": "MTK2677:3ZAK8W07I5LKWQXS75DOL28COAVU0I", "dateTime": 1519235733012}, {"current_trial": 236, "trialdata": {"rt": -1, "trial_type": "single-stim", "stimulus": "<p id=\"stim\">+</p>", "internal_node_id": "0.0-173.0-0.0", "time_elapsed": 1238763, "key_press": -1, "type": "FIXATION", "trial_index": 236}, "uniqueid": "MTK2677:3ZAK8W07I5LKWQXS75DOL28COAVU0I", "dateTime": 1519235734515}, {"current_trial": 237, "trialdata": {"rt": -1, "trial_type": "single-stim", "word": "airport", "stimulus": "<p id=\"stim\">AIRPORT</p>", "conditions": [12, 1600, "v", 12000], "internal_node_id": "0.0-174.0", "trial": 6, "time_elapsed": 1240367, "serialpos": 0, "key_press": -1, "wordID": 12, "type": "PRES_VIS", "trial_index": 237}, "uniqueid": "MTK2677:3ZAK8W07I5LKWQXS75DOL28COAVU0I", "dateTime": 1519235736119}, {"current_trial": 238, "trialdata": {"rt": -1, "trial_type": "single-stim", "word": "stallion", "stimulus": "<p id=\"stim\">STALLION</p>", "conditions": [12, 1600, "v", 12000], "internal_node_id": "0.0-175.0", "trial": 6, "time_elapsed": 1242952, "serialpos": 1, "key_press": -1, "wordID": 1368, "type": "PRES_VIS", "trial_index": 238}, "uniqueid": "MTK2677:3ZAK8W07I5LKWQXS75DOL28COAVU0I", "dateTime": 1519235738704}, {"current_trial": 239, "trialdata": {"rt": -1, "trial_type": "single-stim", "word": "kidney", "stimulus": "<p id=\"stim\">KIDNEY</p>", "conditions": [12, 1600, "v", 12000], "internal_node_id": "0.0-176.0", "trial": 6, "time_elapsed": 1245618, "serialpos": 2, "key_press": -1, "wordID": 775, "type": "PRES_VIS", "trial_index": 239}, "uniqueid": "MTK2677:3ZAK8W07I5LKWQXS75DOL28COAVU0I", "dateTime": 1519235741370}, {"current_trial": 240, "trialdata": {"rt": -1, "trial_type": "single-stim", "word": "sponge", "stimulus": "<p id=\"stim\">SPONGE</p>", "conditions": [12, 1600, "v", 12000], "internal_node_id": "0.0-177.0", "trial": 6, "time_elapsed": 1248167, "serialpos": 3, "key_press": -1, "wordID": 1354, "type": "PRES_VIS", "trial_index": 240}, "uniqueid": "MTK2677:3ZAK8W07I5LKWQXS75DOL28COAVU0I", "dateTime": 1519235743920}, {"current_trial": 241, "trialdata": {"rt": -1, "trial_type": "single-stim", "word": "subway", "stimulus": "<p id=\"stim\">SUBWAY</p>", "conditions": [12, 1600, "v", 12000], "internal_node_id": "0.0-178.0", "trial": 6, "time_elapsed": 1250653, "serialpos": 4, "key_press": -1, "wordID": 1399, "type": "PRES_VIS", "trial_index": 241}, "uniqueid": "MTK2677:3ZAK8W07I5LKWQXS75DOL28COAVU0I", "dateTime": 1519235746406}, {"current_trial": 242, "trialdata": {"rt": -1, "trial_type": "single-stim", "word": "spider", "stimulus": "<p id=\"stim\">SPIDER</p>", "conditions": [12, 1600, "v", 12000], "internal_node_id": "0.0-179.0", "trial": 6, "time_elapsed": 1253275, "serialpos": 5, "key_press": -1, "wordID": 1350, "type": "PRES_VIS", "trial_index": 242}, "uniqueid": "MTK2677:3ZAK8W07I5LKWQXS75DOL28COAVU0I", "dateTime": 1519235749028}, {"current_trial": 243, "trialdata": {"rt": -1, "trial_type": "single-stim", "word": "rabbit", "stimulus": "<p id=\"stim\">RABBIT</p>", "conditions": [12, 1600, "v", 12000], "internal_node_id": "0.0-180.0", "trial": 6, "time_elapsed": 1255811, "serialpos": 6, "key_press": -1, "wordID": 1151, "type": "PRES_VIS", "trial_index": 243}, "uniqueid": "MTK2677:3ZAK8W07I5LKWQXS75DOL28COAVU0I", "dateTime": 1519235751564}, {"current_trial": 244, "trialdata": {"rt": -1, "trial_type": "single-stim", "word": "world", "stimulus": "<p id=\"stim\">WORLD</p>", "conditions": [12, 1600, "v", 12000], "internal_node_id": "0.0-181.0", "trial": 6, "time_elapsed": 1258521, "serialpos": 7, "key_press": -1, "wordID": 1621, "type": "PRES_VIS", "trial_index": 244}, "uniqueid": "MTK2677:3ZAK8W07I5LKWQXS75DOL28COAVU0I", "dateTime": 1519235754273}, {"current_trial": 245, "trialdata": {"rt": -1, "trial_type": "single-stim", "word": "scribble", "stimulus": "<p id=\"stim\">SCRIBBLE</p>", "conditions": [12, 1600, "v", 12000], "internal_node_id": "0.0-182.0", "trial": 6, "time_elapsed": 1261244, "serialpos": 8, "key_press": -1, "wordID": 1255, "type": "PRES_VIS", "trial_index": 245}, "uniqueid": "MTK2677:3ZAK8W07I5LKWQXS75DOL28COAVU0I", "dateTime": 1519235756996}, {"current_trial": 246, "trialdata": {"rt": -1, "trial_type": "single-stim", "word": "receipt", "stimulus": "<p id=\"stim\">RECEIPT</p>", "conditions": [12, 1600, "v", 12000], "internal_node_id": "0.0-183.0", "trial": 6, "time_elapsed": 1263967, "serialpos": 9, "key_press": -1, "wordID": 1172, "type": "PRES_VIS", "trial_index": 246}, "uniqueid": "MTK2677:3ZAK8W07I5LKWQXS75DOL28COAVU0I", "dateTime": 1519235759719}, {"current_trial": 247, "trialdata": {"rt": -1, "trial_type": "single-stim", "word": "country", "stimulus": "<p id=\"stim\">COUNTRY</p>", "conditions": [12, 1600, "v", 12000], "internal_node_id": "0.0-184.0", "trial": 6, "time_elapsed": 1266412, "serialpos": 10, "key_press": -1, "wordID": 387, "type": "PRES_VIS", "trial_index": 247}, "uniqueid": "MTK2677:3ZAK8W07I5LKWQXS75DOL28COAVU0I", "dateTime": 1519235762164}, {"current_trial": 248, "trialdata": {"rt": -1, "trial_type": "single-stim", "word": "drawing", "stimulus": "<p id=\"stim\">DRAWING</p>", "conditions": [12, 1600, "v", 12000], "internal_node_id": "0.0-185.0", "trial": 6, "time_elapsed": 1269070, "serialpos": 11, "key_press": -1, "wordID": 493, "type": "PRES_VIS", "trial_index": 248}, "uniqueid": "MTK2677:3ZAK8W07I5LKWQXS75DOL28