{"assignmentId": "3EFE17QCRDCFSDBKG8P9CTP5PPOHST", "workerId": "MTK2567", "questiondata": {"origin": "India", "strat-rehearsal": "81", "marital": "Married/Domestic Partnership", "education": "Master's degree", "ethnicity": "Not Hispanic", "color_depth": 24, "distracted": "No", "wrote-notes": "No", "strat-other": "", "screen_width": 1366, "avail_screen_width": 1366, "avail_screen_height": 738, "strat-image": "100", "language": "TELUGU", "gender": "Female", "age": "41", "gender_other": "", "race": ["Asian"], "strat-categorize": "81", "pixel_depth": 24, "strat-spatial": "100", "strat-story": "100", "race_other": "", "screen_height": 768}, "bonus": 0, "hitId": "3XD2A6FGFN1KQNV7SUWFASVXM88S93", "counterbalance": 1696, "useragent": "Mozilla/5.0 (Windows NT 10.0; Win64; x64) AppleWebKit/537.36 (KHTML, like Gecko) Chrome/63.0.3239.132 Safari/537.36", "eventdata": [{"eventtype": "initialized", "interval": 0, "value": null, "timestamp": 1519072014108}, {"eventtype": "window_resize", "interval": 1, "value": [1366, 721], "timestamp": 1519072014109}, {"eventtype": "focus", "interval": 2498, "value": "off", "timestamp": 1519072016607}, {"eventtype": "focus", "interval": 44335, "value": "on", "timestamp": 1519072060942}, {"eventtype": "focus", "interval": 10586, "value": "off", "timestamp": 1519072071528}, {"eventtype": "focus", "interval": 3076, "value": "on", "timestamp": 1519072074604}, {"eventtype": "focus", "interval": 1881386, "value": "off", "timestamp": 1519073955990}, {"eventtype": "focus", "interval": 15835, "value": "on", "timestamp": 1519073971825}, {"eventtype": "focus", "interval": 2160916, "value": "off", "timestamp": 1519076132741}, {"eventtype": "focus", "interval": 64817, "value": "on", "timestamp": 1519076197558}], "data": [{"current_trial": 0, "trialdata": {"rt": 31638, "trial_type": "text", "internal_node_id": "0.0-0.0", "time_elapsed": 31640, "key_press": 32, "type": "INSTRUCTIONS", "trial_index": 0}, "uniqueid": "MTK2567:3EFE17QCRDCFSDBKG8P9CTP5PPOHST", "dateTime": 1519072064272}, {"current_trial": 1, "trialdata": {"rt": 35413, "trial_type": "text", "internal_node_id": "0.0-1.0", "time_elapsed": 67056, "key_press": 32, "type": "INSTRUCTIONS", "trial_index": 1}, "uniqueid": "MTK2567:3EFE17QCRDCFSDBKG8P9CTP5PPOHST", "dateTime": 1519072099687}, {"current_trial": 2, "trialdata": {"rt": [16423], "trial_type": "audio-test", "responses": ["ocean"], "internal_node_id": "0.0-2.0", "time_elapsed": 83498, "type": "AUDIO_TEST", "trial_index": 2}, "uniqueid": "MTK2567:3EFE17QCRDCFSDBKG8P9CTP5PPOHST", "dateTime": 1519072116129}, {"current_trial": 3, "trialdata": {"rt": [7713], "trial_type": "audio-test", "responses": ["crystal"], "internal_node_id": "0.0-3.0", "time_elapsed": 91215, "type": "AUDIO_TEST", "trial_index": 3}, "uniqueid": "MTK2567:3EFE17QCRDCFSDBKG8P9CTP5PPOHST", "dateTime": 1519072123846}, {"current_trial": 4, "trialdata": {"rt": [8092], "trial_type": "audio-test", "responses": ["spice"], "internal_node_id": "0.0-4.0", "time_elapsed": 99311, "type": "AUDIO_TEST", "trial_index": 4}, "uniqueid": "MTK2567:3EFE17QCRDCFSDBKG8P9CTP5PPOHST", "dateTime": 1519072131942}, {"current_trial": 5, "trialdata": {"rt": 35026, "trial_type": "survey-text", "responses": "{\"Q0\":\"10:00 pm\",\"Q1\":\"7:30 am\",\"Q2\":\"5\"}", "internal_node_id": "0.0-5.0", "time_elapsed": 135091, "type": "SLEEP_SURVEY", "trial_index": 5}, "uniqueid": "MTK2567:3EFE17QCRDCFSDBKG8P9CTP5PPOHST", "dateTime": 1519072167723}, {"current_trial": 6, "trialdata": {"rt": 76985, "trial_type": "text", "internal_node_id": "0.0-6.0", "time_elapsed": 213080, "key_press": 40, "type": "INSTRUCTIONS", "trial_index": 6}, "uniqueid": "MTK2567:3EFE17QCRDCFSDBKG8P9CTP5PPOHST", "dateTime": 1519072245712}, {"current_trial": 7, "trialdata": {"rt": 28299, "trial_type": "text", "internal_node_id": "0.0-7.0", "time_elapsed": 241883, "key_press": 32, "type": "INSTRUCTIONS", "trial_index": 7}, "uniqueid": "MTK2567:3EFE17QCRDCFSDBKG8P9CTP5PPOHST", "dateTime": 1519072274514}, {"current_trial": 8, "trialdata": {"rt": 8548, "trial_type": "text", "internal_node_id": "0.0-8.0", "time_elapsed": 250933, "key_press": 32, "type": "INSTRUCTIONS", "trial_index": 8}, "uniqueid": "MTK2567:3EFE17QCRDCFSDBKG8P9CTP5PPOHST", "dateTime": 1519072283565}, {"current_trial": 9, "trialdata": {"rt": [4937, 9016, 13764], "trial_type": "math-distractor", "key_times": [3890, 4295, 4937, 8449, 9016, 12573, 12981, 13764], "responses": ["25", "9", "14"], "num2": [9, 3, 1, 5], "num3": [7, 2, 7, 7], "conditions": [18, 1200, "a", 18000], "internal_node_id": "0.0-9.0", "key_presses": [50, 53, 13, 57, 13, 49, 52, 13], "trial": 0, "time_elapsed": 269943, "type": "DISTRACTOR", "trial_index": 9, "num1": [9, 4, 6, 6]}, "uniqueid": "MTK2567:3EFE17QCRDCFSDBKG8P9CTP5PPOHST", "dateTime": 1519072302576}, {"current_trial": 10, "trialdata": {"rt": -1, "trial_type": "single-stim", "stimulus": "<p id=\"stim\">10</p>", "internal_node_id": "0.0-10.0-0.0", "time_elapsed": 272950, "key_press": -1, "trial_index": 10}, "uniqueid": "MTK2567:3EFE17QCRDCFSDBKG8P9CTP5PPOHST", "dateTime": 1519072305581}, {"current_trial": 11, "trialdata": {"rt": -1, "trial_type": "single-stim", "stimulus": "<p id=\"stim\">9</p>", "internal_node_id": "0.0-10.0-1.0", "time_elapsed": 273952, "key_press": -1, "trial_index": 11}, "uniqueid": "MTK2567:3EFE17QCRDCFSDBKG8P9CTP5PPOHST", "dateTime": 1519072306583}, {"current_trial": 12, "trialdata": {"rt": -1, "trial_type": "single-stim", "stimulus": "<p id=\"stim\">8</p>", "internal_node_id": "0.0-10.0-2.0", "time_elapsed": 274954, "key_press": -1, "trial_index": 12}, "uniqueid": "MTK2567:3EFE17QCRDCFSDBKG8P9CTP5PPOHST", "dateTime": 1519072307585}, {"current_trial": 13, "trialdata": {"rt": -1, "trial_type": "single-stim", "stimulus": "<p id=\"stim\">7</p>", "internal_node_id": "0.0-10.0-3.0", "time_elapsed": 275956, "key_press": -1, "trial_index": 13}, "uniqueid": "MTK2567:3EFE17QCRDCFSDBKG8P9CTP5PPOHST", "dateTime": 1519072308587}, {"current_trial": 14, "trialdata": {"rt": -1, "trial_type": "single-stim", "stimulus": "<p id=\"stim\">6</p>", "internal_node_id": "0.0-10.0-4.0", "time_elapsed": 276958, "key_press": -1, "trial_index": 14}, "uniqueid": "MTK2567:3EFE17QCRDCFSDBKG8P9CTP5PPOHST", "dateTime": 1519072309589}, {"current_trial": 15, "trialdata": {"rt": -1, "trial_type": "single-stim", "stimulus": "<p id=\"stim\">5</p>", "internal_node_id": "0.0-10.0-5.0", "time_elapsed": 277960, "key_press": -1, "trial_index": 15}, "uniqueid": "MTK2567:3EFE17QCRDCFSDBKG8P9CTP5PPOHST", "dateTime": 1519072310592}, {"current_trial": 16, "trialdata": {"rt": -1, "trial_type": "single-stim", "stimulus": "<p id=\"stim\">4</p>", "internal_node_id": "0.0-10.0-6.0", "time_elapsed": 278962, "key_press": -1, "trial_index": 16}, "uniqueid": "MTK2567:3EFE17QCRDCFSDBKG8P9CTP5PPOHST", "dateTime": 1519072311593}, {"current_trial": 17, "trialdata": {"rt": -1, "trial_type": "single-stim", "stimulus": "<p id=\"stim\">3</p>", "internal_node_id": "0.0-10.0-7.0", "time_elapsed": 279964, "key_press": -1, "trial_index": 17}, "uniqueid": "MTK2567:3EFE17QCRDCFSDBKG8P9CTP5PPOHST", "dateTime": 1519072312595}, {"current_trial": 18, "trialdata": {"rt": -1, "trial_type": "single-stim", "stimulus": "<p id=\"stim\">2</p>", "internal_node_id": "0.0-10.0-8.0", "time_elapsed": 280968, "key_press": -1, "trial_index": 18}, "uniqueid": "MTK2567:3EFE17QCRDCFSDBKG8P9CTP5PPOHST", "dateTime": 1519072313599}, {"current_trial": 19, "trialdata": {"rt": -1, "trial_type": "single-stim", "stimulus": "<p id=\"stim\">1</p>", "internal_node_id": "0.0-10.0-9.0", "time_elapsed": 281970, "key_press": -1, "trial_index": 19}, "uniqueid": "MTK2567:3EFE17QCRDCFSDBKG8P9CTP5PPOHST", "dateTime": 1519072314601}, {"current_trial": 20, "trialdata": {"rt": -1, "trial_type": "single-stim", "stimulus": "<p id=\"stim\">+</p>", "internal_node_id": "0.0-11.0-0.0", "time_elapsed": 283473, "key_press": -1, "type": "FIXATION", "trial_index": 20}, "uniqueid": "MTK2567:3EFE17QCRDCFSDBKG8P9CTP5PPOHST", "dateTime": 1519072316104}, {"current_trial": 21, "trialdata": {"rt": -1000, "trial_type": "single-audio", "word": "breast", "stimulus": "/static/audio/wordpool/BREAST.wav", "conditions": [18, 1200, "a", 18000], "internal_node_id": "0.0-12.0", "trial": 0, "time_elapsed": 285754, "serialpos": 0, "key_press": -1, "wordID": 170, "type": "PRES_AUD", "trial_index": 21}, "uniqueid": "MTK2567:3EFE17QCRDCFSDBKG8P9CTP5PPOHST", "dateTime": 1519072318385}, {"current_trial": 22, "trialdata": {"rt": -1000, "trial_type": "single-audio", "word": "donkey", "stimulus": "/static/audio/wordpool/DONKEY.wav", "conditions": [18, 1200, "a", 18000], "internal_node_id": "0.0-13.0", "trial": 0, "time_elapsed": 287829, "serialpos": 1, "key_press": -1, "wordID": 483, "type": "PRES_AUD", "trial_index": 22}, "uniqueid": "MTK2567:3EFE17QCRDCFSDBKG8P9CTP5PPOHST", "dateTime": 1519072320460}, {"current_trial": 23, "trialdata": {"rt": -1000, "trial_type": "single-audio", "word": "flesh", "stimulus": "/static/audio/wordpool/FLESH.wav", "conditions": [18, 1200, "a", 18000], "internal_node_id": "0.0-14.0", "trial": 0, "time_elapsed": 290020, "serialpos": 2, "key_press": -1, "wordID": 578, "type": "PRES_AUD", "trial_index": 23}, "uniqueid": "MTK2567:3EFE17QCRDCFSDBKG8P9CTP5PPOHST", "dateTime": 1519072322652}, {"current_trial": 24, "trialdata": {"rt": -1000, "trial_type": "single-audio", "word": "lava", "stimulus": "/static/audio/wordpool/LAVA.wav", "conditions": [18, 1200, "a", 18000], "internal_node_id": "0.0-15.0", "trial": 0, "time_elapsed": 292329, "serialpos": 3, "key_press": -1, "wordID": 803, "type": "PRES_AUD", "trial_index": 24}, "uniqueid": "MTK2567:3EFE17QCRDCFSDBKG8P9CTP5PPOHST", "dateTime": 1519072324960}, {"current_trial": 25, "trialdata": {"rt": -1000, "trial_type": "single-audio", "word": "japan", "stimulus": "/static/audio/wordpool/JAPAN.wav", "conditions": [18, 1200, "a", 18000], "internal_node_id": "0.0-16.0", "trial": 0, "time_elapsed": 294701, "serialpos": 4, "key_press": -1, "wordID": 748, "type": "PRES_AUD", "trial_index": 25}, "uniqueid": "MTK2567:3EFE17QCRDCFSDBKG8P9CTP5PPOHST", "dateTime": 1519072327332}, {"current_trial": 26, "trialdata": {"rt": -1000, "trial_type": "single-audio", "word": "ankle", "stimulus": "/static/audio/wordpool/ANKLE.wav", "conditions": [18, 1200, "a", 18000], "internal_node_id": "0.0-17.0", "trial": 0, "time_elapsed": 297003, "serialpos": 5, "key_press": -1, "wordID": 23, "type": "PRES_AUD", "trial_index": 26}, "uniqueid": "MTK2567:3EFE17QCRDCFSDBKG8P9CTP5PPOHST", "dateTime": 1519072329634}, {"current_trial": 27, "trialdata": {"rt": -1000, "trial_type": "single-audio", "word": "necklace", "stimulus": "/static/audio/wordpool/NECKLACE.wav", "conditions": [18, 1200, "a", 18000], "internal_node_id": "0.0-18.0", "trial": 0, "time_elapsed": 299067, "serialpos": 6, "key_press": -1, "wordID": 939, "type": "PRES_AUD", "trial_index": 27}, "uniqueid": "MTK2567:3EFE17QCRDCFSDBKG8P9CTP5PPOHST", "dateTime": 1519072331698}, {"current_trial": 28, "trialdata": {"rt": -1000, "trial_type": "single-audio", "word": "driver", "stimulus": "/static/audio/wordpool/DRIVER.wav", "conditions": [18, 1200, "a", 18000], "internal_node_id": "0.0-19.0", "trial": 0, "time_elapsed": 301390, "serialpos": 7, "key_press": -1, "wordID": 498, "type": "PRES_AUD", "trial_index": 28}, "uniqueid": "MTK2567:3EFE17QCRDCFSDBKG8P9CTP5PPOHST", "dateTime": 1519072334022}, {"current_trial": 29, "trialdata": {"rt": -1000, "trial_type": "single-audio", "word": "rifle", "stimulus": "/static/audio/wordpool/RIFLE.wav", "conditions": [18, 1200, "a", 18000], "internal_node_id": "0.0-20.0", "trial": 0, "time_elapsed": 303520, "serialpos": 8, "key_press": -1, "wordID": 1191, "type": "PRES_AUD", "trial_index": 29}, "uniqueid": "MTK2567:3EFE17QCRDCFSDBKG8P9CTP5PPOHST", "dateTime": 1519072336151}, {"current_trial": 30, "trialdata": {"rt": -1000, "trial_type": "single-audio", "word": "flipper", "stimulus": "/static/audio/wordpool/FLIPPER.wav", "conditions": [18, 1200, "a", 18000], "internal_node_id": "0.0-21.0", "trial": 0, "time_elapsed": 305854, "serialpos": 9, "key_press": -1, "wordID": 579, "type": "PRES_AUD", "trial_index": 30}, "uniqueid": "MTK2567:3EFE17QCRDCFSDBKG8P9CTP5PPOHST", "dateTime": 1519072338486}, {"current_trial": 31, "trialdata": {"rt": -1000, "trial_type": "single-audio", "word": "crown", "stimulus": "/static/audio/wordpool/CROWN.wav", "conditions": [18, 1200, "a", 18000], "internal_node_id": "0.0-22.0", "trial": 0, "time_elapsed": 308254, "serialpos": 10, "key_press": -1, "wordID": 414, "type": "PRES_AUD", "trial_index": 31}, "uniqueid": "MTK2567:3EFE17QCRDCFSDBKG8P9CTP5PPOHST", "dateTime": 1519072340886}, {"current_trial": 32, "trialdata": {"rt": -1000, "trial_type": "single-audio", "word": "brick", "stimulus": "/static/audio/wordpool/BRICK.wav", "conditions": [18, 1200, "a", 18000], "internal_node_id": "0.0-23.0", "trial": 0, "time_elapsed": 310417, "serialpos": 11, "key_press": -1, "wordID": 171, "type": "PRES_AUD", "trial_index": 32}, "uniqueid": "MTK2567:3EFE17QCRDCFSDBKG8P9CTP5PPOHST", "dateTime": 1519072343048}, {"current_trial": 33, "trialdata": {"rt": -1000, "trial_type": "single-audio", "word": "highway", "stimulus": "/static/audio/wordpool/HIGHWAY.wav", "conditions": [18, 1200, "a", 18000], "internal_node_id": "0.0-24.0", "trial": 0, "time_elapsed": 312585, "serialpos": 12, "key_press": -1, "wordID": 706, "type": "PRES_AUD", "trial_index": 33}, "uniqueid": "MTK2567:3EFE17QCRDCFSDBKG8P9CTP5PPOHST", "dateTime": 1519072345216}, {"current_trial": 34, "trialdata": {"rt": -1000, "trial_type": "single-audio", "word": "keeper", "stimulus": "/static/audio/wordpool/KEEPER.wav", "conditions": [18, 1200, "a", 18000], "internal_node_id": "0.0-25.0", "trial": 0, "time_elapsed": 314718, "serialpos": 13, "key_press": -1, "wordID": 768, "type": "PRES_AUD", "trial_index": 34}, "uniqueid": "MTK2567:3EFE17QCRDCFSDBKG8P9CTP5PPOHST", "dateTime": 1519072347349}, {"current_trial": 35, "trialdata": {"rt": -1000, "trial_type": "single-audio", "word": "river", "stimulus": "/static/audio/wordpool/RIVER.wav", "conditions": [18, 1200, "a", 18000], "internal_node_id": "0.0-26.0", "trial": 0, "time_elapsed": 316803, "serialpos": 14, "key_press": -1, "wordID": 1193, "type": "PRES_AUD", "trial_index": 35}, "uniqueid": "MTK2567:3EFE17QCRDCFSDBKG8P9CTP5PPOHST", "dateTime": 1519072349434}, {"current_trial": 36, "trialdata": {"rt": -1000, "trial_type": "single-audio", "word": "sword", "stimulus": "/static/audio/wordpool/SWORD.wav", "conditions": [18, 1200, "a", 18000], "internal_node_id": "0.0-27.0", "trial": 0, "time_elapsed": 318941, "serialpos": 15, "key_press": -1, "wordID": 1422, "type": "PRES_AUD", "trial_index": 36}, "uniqueid": "MTK2567:3EFE17QCRDCFSDBKG8P9CTP5PPOHST", "dateTime": 1519072351572}, {"current_trial": 37, "trialdata": {"rt": -1000, "trial_type": "single-audio", "word": "pastry", "stimulus": "/static/audio/wordpool/PASTRY.wav", "conditions": [18, 1200, "a", 18000], "internal_node_id": "0.0-28.0", "trial": 0, "time_elapsed": 321132, "serialpos": 16, "key_press": -1, "wordID": 1021, "type": "PRES_AUD", "trial_index": 37}, "uniqueid": "MTK2567:3EFE17QCRDCFSDBKG8P9CTP5PPOHST", "dateTime": 1519072353764}, {"current_trial": 38, "trialdata": {"rt": -1000, "trial_type": "single-audio", "word": "captive", "stimulus": "/static/audio/wordpool/CAPTIVE.wav", "conditions": [18, 1200, "a", 18000], "internal_node_id": "0.0-29.0", "trial": 0, "time_elapsed": 323453, "serialpos": 17, "key_press": -1, "wordID": 239, "type": "PRES_AUD", "trial_index": 38}, "uniqueid": "MTK2567:3EFE17QCRDCFSDBKG8P9CTP5PPOHST", "dateTime": 1519072356085}, {"current_trial": 39, "trialdata": {"rt": -1, "trial_type": "single-stim", "stimulus": "", "internal_node_id": "0.0-30.0-0.0", "time_elapsed": 324712, "key_press": -1, "type": "PRE_RECALL_DELAY", "trial_index": 39}, "uniqueid": "MTK2567:3EFE17QCRDCFSDBKG8P9CTP5PPOHST", "dateTime": 1519072357344}, {"current_trial": 40, "trialdata": {"rt": -1000, "trial_type": "single-audio", "stimulus": "/static/audio/400Hz.wav", "internal_node_id": "0.0-31.0", "time_elapsed": 325215, "key_press": -1, "type": "PRE_RECALL_ALERT", "trial_index": 40}, "uniqueid": "MTK2567:3EFE17QCRDCFSDBKG8P9CTP5PPOHST", "dateTime": 1519072357846}, {"current_trial": 41, "trialdata": {"rt": [2999, 5086, 7009, 8679, 11070, 15002, 21126, 25274, 28584, 35819, 42352, 47661, 54545], "recwords": ["breast", "flesh", "thorn", "river", "hasty", "japan", "hasty", "pastry", "thorn", "river", "", "thorn", "breast"], "key_times": [1613, 1918, 2037, 2147, 2260, 2476, 2999, 3677, 3875, 4033, 4190, 4469, 5086, 5663, 5888, 6102, 6292, 6621, 7009, 7467, 7626, 7867, 8102, 8300, 8679, 9888, 10023, 10151, 10352, 10690, 11070, 14020, 14159, 14306, 14486, 14651, 15002, 20114, 20253, 20376, 20546, 20740, 21126, 23920, 24056, 24215, 24385, 24678, 24934, 25274, 27469, 27686, 27910, 28069, 28264, 28584, 34844, 35081, 35254, 35398, 35580, 35819, 42352, 46508, 46686, 46920, 47118, 47329, 47661, 53266, 53558, 53708, 53811, 53872, 54100, 54545], "trial_type": "free-recall", "conditions": [18, 1200, "a", 18000], "internal_node_id": "0.0-32.0-0.0", "key_presses": [66, 82, 69, 65, 83, 84, 13, 70, 76, 69, 83, 72, 13, 84, 72, 79, 82, 78, 13, 82, 73, 86, 69, 82, 13, 72, 65, 83, 84, 89, 13, 74, 65, 80, 65, 78, 13, 72, 65, 83, 84, 89, 13, 80, 65, 83, 84, 82, 89, 13, 84, 72, 79, 82, 78, 13, 82, 73, 86, 69, 82, 13, 13, 84, 72, 79, 82, 78, 13, 66, 82, 69, 65, 83, 84, 13], "trial": 0, "time_elapsed": 385220, "type": "FREE_RECALL", "trial_index": 41}, "uniqueid": "MTK2567:3EFE17QCRDCFSDBKG8P9CTP5PPOHST", "dateTime": 1519072417855}, {"current_trial": 42, "trialdata": {"rt": 2040, "trial_type": "text", "internal_node_id": "0.0-33.0", "time_elapsed": 389264, "key_press": 13, "type": "INSTRUCTIONS", "trial_index": 42}, "uniqueid": "MTK2567:3EFE17QCRDCFSDBKG8P9CTP5PPOHST", "dateTime": 1519072421895}, {"current_trial": 43, "trialdata": {"rt": [3031, 8742, 16513], "trial_type": "math-distractor", "key_times": [2432, 3031, 8011, 8252, 8742, 13324, 13664, 14947, 15725, 16513], "responses": ["7", "21", "19"], "num2": [3, 8, 9, 9], "num3": [3, 8, 3, 6], "conditions": [18, 1200, "a", 18000], "internal_node_id": "0.0-34.0", "key_presses": [55, 13, 50, 49, 13, 49, 56, 8, 57, 13], "trial": 1, "time_elapsed": 409271, "type": "DISTRACTOR", "trial_index": 43, "num1": [1, 5, 7, 7]}, "uniqueid": "MTK2567:3EFE17QCRDCFSDBKG8P9CTP5PPOHST", "dateTime": 1519072441902}, {"current_trial": 44, "trialdata": {"rt": -1, "trial_type": "single-stim", "stimulus": "<p id=\"stim\">10</p>", "internal_node_id": "0.0-35.0-0.0", "time_elapsed": 412273, "key_press": -1, "trial_index": 44}, "uniqueid": "MTK2567:3EFE17QCRDCFSDBKG8P9CTP5PPOHST", "dateTime": 1519072444905}, {"current_trial": 45, "trialdata": {"rt": -1, "trial_type": "single-stim", "stimulus": "<p id=\"stim\">9</p>", "internal_node_id": "0.0-35.0-1.0", "time_elapsed": 413276, "key_press": -1, "trial_index": 45}, "uniqueid": "MTK2567:3EFE17QCRDCFSDBKG8P9CTP5PPOHST", "dateTime": 1519072445907}, {"current_trial": 46, "trialdata": {"rt": -1, "trial_type": "single-stim", "stimulus": "<p id=\"stim\">8</p>", "internal_node_id": "0.0-35.0-2.0", "time_elapsed": 414279, "key_press": -1, "trial_index": 46}, "uniqueid": "MTK2567:3EFE17QCRDCFSDBKG8P9CTP5PPOHST", "dateTime": 1519072446910}, {"current_trial": 47, "trialdata": {"rt": -1, "trial_type": "single-stim", "stimulus": "<p id=\"stim\">7</p>", "internal_node_id": "0.0-35.0-3.0", "time_elapsed": 415280, "key_press": -1, "trial_index": 47}, "uniqueid": "MTK2567:3EFE17QCRDCFSDBKG8P9CTP5PPOHST", "dateTime": 1519072447911}, {"current_trial": 48, "trialdata": {"rt": -1, "trial_type": "single-stim", "stimulus": "<p id=\"stim\">6</p>", "internal_node_id": "0.0-35.0-4.0", "time_elapsed": 416282, "key_press": -1, "trial_index": 48}, "uniqueid": "MTK2567:3EFE17QCRDCFSDBKG8P9CTP5PPOHST", "dateTime": 1519072448913}, {"current_trial": 49, "trialdata": {"rt": -1, "trial_type": "single-stim", "stimulus": "<p id=\"stim\">5</p>", "internal_node_id": "0.0-35.0-5.0", "time_elapsed": 417284, "key_press": -1, "trial_index": 49}, "uniqueid": "MTK2567:3EFE17QCRDCFSDBKG8P9CTP5PPOHST", "dateTime": 1519072449915}, {"current_trial": 50, "trialdata": {"rt": -1, "trial_type": "single-stim", "stimulus": "<p id=\"stim\">4</p>", "internal_node_id": "0.0-35.0-6.0", "time_elapsed": 418286, "key_press": -1, "trial_index": 50}, "uniqueid": "MTK2567:3EFE17QCRDCFSDBKG8P9CTP5PPOHST", "dateTime": 1519072450917}, {"current_trial": 51, "trialdata": {"rt": -1, "trial_type": "single-stim", "stimulus": "<p id=\"stim\">3</p>", "internal_node_id": "0.0-35.0-7.0", "time_elapsed": 419287, "key_press": -1, "trial_index": 51}, "uniqueid": "MTK2567:3EFE17QCRDCFSDBKG8P9CTP5PPOHST", "dateTime": 1519072451918}, {"current_trial": 52, "trialdata": {"rt": -1, "trial_type": "single-stim", "stimulus": "<p id=\"stim\">2</p>", "internal_node_id": "0.0-35.0-8.0", "time_elapsed": 420290, "key_press": -1, "trial_index": 52}, "uniqueid": "MTK2567:3EFE17QCRDCFSDBKG8P9CTP5PPOHST", "dateTime": 1519072452921}, {"current_trial": 53, "trialdata": {"rt": -1, "trial_type": "single-stim", "stimulus": "<p id=\"stim\">1</p>", "internal_node_id": "0.0-35.0-9.0", "time_elapsed": 421293, "key_press": -1, "trial_index": 53}, "uniqueid": "MTK2567:3EFE17QCRDCFSDBKG8P9CTP5PPOHST", "dateTime": 1519072453924}, {"current_trial": 54, "trialdata": {"rt": -1, "trial_type": "single-stim", "stimulus": "<p id=\"stim\">+</p>", "internal_node_id": "0.0-36.0-0.0", "time_elapsed": 422794, "key_press": -1, "type": "FIXATION", "trial_index": 54}, "uniqueid": "MTK2567:3EFE17QCRDCFSDBKG8P9CTP5PPOHST", "dateTime": 1519072455425}, {"current_trial": 55, "trialdata": {"rt": -1000, "trial_type": "single-audio", "word": "gavel", "stimulus": "/static/audio/wordpool/GAVEL.wav", "conditions": [18, 1200, "a", 18000], "internal_node_id": "0.0-37.0", "trial": 1, "time_elapsed": 425080, "serialpos": 0, "key_press": -1, "wordID": 626, "type": "PRES_AUD", "trial_index": 55}, "uniqueid": "MTK2567:3EFE17QCRDCFSDBKG8P9CTP5PPOHST", "dateTime": 1519072457711}, {"current_trial": 56, "trialdata": {"rt": -1000, "trial_type": "single-audio", "word": "crutch", "stimulus": "/static/audio/wordpool/CRUTCH.wav", "conditions": [18, 1200, "a", 18000], "internal_node_id": "0.0-38.0", "trial": 1, "time_elapsed": 427294, "serialpos": 1, "key_press": -1, "wordID": 416, "type": "PRES_AUD", "trial_index": 56}, "uniqueid": "MTK2567:3EFE17QCRDCFSDBKG8P9CTP5PPOHST", "dateTime": 1519072459926}, {"current_trial": 57, "trialdata": {"rt": -1000, "trial_type": "single-audio", "word": "clam", "stimulus": "/static/audio/wordpool/CLAM.wav", "conditions": [18, 1200, "a", 18000], "internal_node_id": "0.0-39.0", "trial": 1, "time_elapsed": 429359, "serialpos": 2, "key_press": -1, "wordID": 314, "type": "PRES_AUD", "trial_index": 57}, "uniqueid": "MTK2567:3EFE17QCRDCFSDBKG8P9CTP5PPOHST", "dateTime": 1519072461990}, {"current_trial": 58, "trialdata": {"rt": -1000, "trial_type": "single-audio", "word": "concert", "stimulus": "/static/audio/wordpool/CONCERT.wav", "conditions": [18, 1200, "a", 18000], "internal_node_id": "0.0-40.0", "trial": 1, "time_elapsed": 431515, "serialpos": 3, "key_press": -1, "wordID": 359, "type": "PRES_AUD", "trial_index": 58}, "uniqueid": "MTK2567:3EFE17QCRDCFSDBKG8P9CTP5PPOHST", "dateTime": 1519072464147}, {"current_trial": 59, "trialdata": {"rt": -1000, "trial_type": "single-audio", "word": "skirt", "stimulus": "/static/audio/wordpool/SKIRT.wav", "conditions": [18, 1200, "a", 18000], "internal_node_id": "0.0-41.0", "trial": 1, "time_elapsed": 433615, "serialpos": 4, "key_press": -1, "wordID": 1318, "type": "PRES_AUD", "trial_index": 59}, "uniqueid": "MTK2567:3EFE17QCRDCFSDBKG8P9CTP5PPOHST", "dateTime": 1519072466246}, {"current_trial": 60, "trialdata": {"rt": -1000, "trial_type": "single-audio", "word": "eyelash", "stimulus": "/static/audio/wordpool/EYELASH.wav", "conditions": [18, 1200, "a", 18000], "internal_node_id": "0.0-42.0", "trial": 1, "time_elapsed": 435767, "serialpos": 5, "key_press": -1, "wordID": 545, "type": "PRES_AUD", "trial_index": 60}, "uniqueid": "MTK2567:3EFE17QCRDCFSDBKG8P9CTP5PPOHST", "dateTime": 1519072468399}, {"current_trial": 61, "trialdata": {"rt": -1000, "trial_type": "single-audio", "word": "preacher", "stimulus": "/static/audio/wordpool/PREACHER.wav", "conditions": [18, 1200, "a", 18000], "internal_node_id": "0.0-43.0", "trial": 1, "time_elapsed": 437869, "serialpos": 6, "key_press": -1, "wordID": 1118, "type": "PRES_AUD", "trial_index": 61}, "uniqueid": "MTK2567:3EFE17QCRDCFSDBKG8P9CTP5PPOHST", "dateTime": 1519072470501}, {"current_trial": 62, "trialdata": {"rt": -1000, "trial_type": "single-audio", "word": "jungle", "stimulus": "/static/audio/wordpool/JUNGLE.wav", "conditions": [18, 1200, "a", 18000], "internal_node_id": "0.0-44.0", "trial": 1, "time_elapsed": 440245, "serialpos": 7, "key_press": -1, "wordID": 763, "type": "PRES_AUD", "trial_index": 62}, "uniqueid": "MTK2567:3EFE17QCRDCFSDBKG8P9CTP5PPOHST", "dateTime": 1519072472876}, {"current_trial": 63, "trialdata": {"rt": -1000, "trial_type": "single-audio", "word": "swimmer", "stimulus": "/static/audio/wordpool/SWIMMER.wav", "conditions": [18, 1200, "a", 18000], "internal_node_id": "0.0-45.0", "trial": 1, "time_elapsed": 442436, "serialpos": 8, "key_press": -1, "wordID": 1419, "type": "PRES_AUD", "trial_index": 63}, "uniqueid": "MTK2567:3EFE17QCRDCFSDBKG8P9CTP5PPOHST", "dateTime": 1519072475067}, {"current_trial": 64, "trialdata": {"rt": -1000, "trial_type": "single-audio", "word": "lizard", "stimulus": "/static/audio/wordpool/LIZARD.wav", "conditions": [18, 1200, "a", 18000], "internal_node_id": "0.0-46.0", "trial": 1, "time_elapsed": 444544, "serialpos": 9, "key_press": -1, "wordID": 833, "type": "PRES_AUD", "trial_index": 64}, "uniqueid": "MTK2567:3EFE17QCRDCFSDBKG8P9CTP5PPOHST", "dateTime": 1519072477175}, {"current_trial": 65, "trialdata": {"rt": -1000, "trial_type": "single-audio", "word": "sparrow", "stimulus": "/static/audio/wordpool/SPARROW.wav", "conditions": [18, 1200, "a", 18000], "internal_node_id": "0.0-47.0", "trial": 1, "time_elapsed": 446617, "serialpos": 10, "key_press": -1, "wordID": 1346, "type": "PRES_AUD", "trial_index": 65}, "uniqueid": "MTK2567:3EFE17QCRDCFSDBKG8P9CTP5PPOHST", "dateTime": 1519072479248}, {"current_trial": 66, "trialdata": {"rt": -1000, "trial_type": "single-audio", "word": "agent", "stimulus": "/static/audio/wordpool/AGENT.wav", "conditions": [18, 1200, "a", 18000], "internal_node_id": "0.0-48.0", "trial": 1, "time_elapsed": 448946, "serialpos": 11, "key_press": -1, "wordID": 9, "type": "PRES_AUD", "trial_index": 66}, "uniqueid": "MTK2567:3EFE17QCRDCFSDBKG8P9CTP5PPOHST", "dateTime": 1519072481577}, {"current_trial": 67, "trialdata": {"rt": -1000, "trial_type": "single-audio", "word": "possum", "stimulus": "/static/audio/wordpool/POSSUM.wav", "conditions": [18, 1200, "a", 18000], "internal_node_id": "0.0-49.0", "trial": 1, "time_elapsed": 451250, "serialpos": 12, "key_press": -1, "wordID": 1111, "type": "PRES_AUD", "trial_index": 67}, "uniqueid": "MTK2567:3EFE17QCRDCFSDBKG8P9CTP5PPOHST", "dateTime": 1519072483881}, {"current_trial": 68, "trialdata": {"rt": -1000, "trial_type": "single-audio", "word": "brother", "stimulus": "/static/audio/wordpool/BROTHER.wav", "conditions": [18, 1200, "a", 18000], "internal_node_id": "0.0-50.0", "trial": 1, "time_elapsed": 453465, "serialpos": 13, "key_press": -1, "wordID": 178, "type": "PRES_AUD", "trial_index": 68}, "uniqueid": "MTK2567:3EFE17QCRDCFSDBKG8P9CTP5PPOHST", "dateTime": 1519072486100}, {"current_trial": 69, "trialdata": {"rt": -1000, "trial_type": "single-audio", "word": "wardrobe", "stimulus": "/static/audio/wordpool/WARDROBE.wav", "conditions": [18, 1200, "a", 18000], "internal_node_id": "0.0-51.0", "trial": 1, "time_elapsed": 455555, "serialpos": 14, "key_press": -1, "wordID": 1586, "type": "PRES_AUD", "trial_index": 69}, "uniqueid": "MTK2567:3EFE17QCRDCFSDBKG8P9CTP5PPOHST", "dateTime": 1519072488186}, {"current_trial": 70, "trialdata": {"rt": -1000, "trial_type": "single-audio", "word": "author", "stimulus": "/static/audio/wordpool/AUTHOR.wav", "conditions": [18, 1200, "a", 18000], "internal_node_id": "0.0-52.0", "trial": 1, "time_elapsed": 457861, "serialpos": 15, "key_press": -1, "wordID": 60, "type": "PRES_AUD", "trial_index": 70}, "uniqueid": "MTK2567:3EFE17QCRDCFSDBKG8P9CTP5PPOHST", "dateTime": 1519072490492}, {"current_trial": 71, "trialdata": {"rt": -1000, "trial_type": "single-audio", "word": "atlas", "stimulus": "/static/audio/wordpool/ATLAS.wav", "conditions": [18, 1200, "a", 18000], "internal_node_id": "0.0-53.0", "trial": 1, "time_elapsed": 459889, "serialpos": 16, "key_press": -1, "wordID": 52, "type": "PRES_AUD", "trial_index": 71}, "uniqueid": "MTK2567:3EFE17QCRDCFSDBKG8P9CTP5PPOHST", "dateTime": 1519072492520}, {"current_trial": 72, "trialdata": {"rt": -1000, "trial_type": "single-audio", "word": "dress", "stimulus": "/static/audio/wordpool/DRESS.wav", "conditions": [18, 1200, "a", 18000], "internal_node_id": "0.0-54.0", "trial": 1, "time_elapsed": 461937, "serialpos": 17, "key_press": -1, "wordID": 494, "type": "PRES_AUD", "trial_index": 72}, "uniqueid": "MTK2567:3EFE17QCRDCFSDBKG8P9CTP5PPOHST", "dateTime": 1519072494568}, {"current_trial": 73, "trialdata": {"rt": -1, "trial_type": "single-stim", "stimulus": "", "internal_node_id": "0.0-55.0-0.0", "time_elapsed": 463287, "key_press": -1, "type": "PRE_RECALL_DELAY", "trial_index": 73}, "uniqueid": "MTK2567:3EFE17QCRDCFSDBKG8P9CTP5PPOHST", "dateTime": 1519072495918}, {"current_trial": 74, "trialdata": {"rt": -1000, "trial_type": "single-audio", "stimulus": "/static/audio/400Hz.wav", "internal_node_id": "0.0-56.0", "time_elapsed": 463788, "key_press": -1, "type": "PRE_RECALL_ALERT", "trial_index": 74}, "uniqueid": "MTK2567:3EFE17QCRDCFSDBKG8P9CTP5PPOHST", "dateTime": 1519072496419}, {"current_trial": 75, "trialdata": {"rt": [3820, 7206, 11436, 14476, 17806, 19596, 22625, 30703, 32916, 33794, 37167, 42307, 46030], "recwords": ["gravel", "crutch", "swimmer", "clam", "dress", "atlas", "wardrobe", "agent", "swimmer", "", "jungle", "skirt", "eyelash"], "key_times": [2449, 2713, 2879, 2933, 3157, 3275, 3462, 3820, 5070, 5408, 5810, 6052, 6417, 6599, 7206, 8724, 9121, 10037, 10300, 10504, 10689, 10836, 11436, 13539, 13720, 13940, 14088, 14476, 16589, 16833, 16967, 17111, 17394, 17806, 18382, 18592, 18834, 19026, 19242, 19596, 20596, 20731, 20912, 21191, 21529, 21824, 22063, 22348, 22625, 26272, 26457, 26671, 26938, 27092, 27418, 30409, 30703, 31138, 31398, 31774, 32008, 32206, 32352, 32519, 32916, 33794, 35712, 35918, 36141, 36332, 36479, 36677, 37167, 40981, 41214, 41469, 41646, 41851, 42307, 44184, 44616, 44849, 45125, 45302, 45470, 45693, 46030], "trial_type": "free-recall", "conditions": [18, 1200, "a", 18000], "internal_node_id": "0.0-57.0-0.0", "key_presses": [71, 82, 65, 20, 86, 69, 76, 13, 67, 82, 85, 84, 67, 72, 13, 83, 87, 73, 77, 77, 69, 82, 13, 67, 76, 65, 77, 13, 68, 82, 69, 83, 83, 13, 65, 84, 76, 65, 83, 13, 87, 65, 82, 68, 82, 79, 66, 69, 13, 65, 71, 69, 78, 84, 222, 8, 13, 83, 87, 73, 77, 77, 69, 82, 13, 13, 74, 85, 78, 71, 76, 69, 13, 83, 75, 73, 82, 84, 13, 69, 89, 69, 76, 65, 83, 72, 13], "trial": 1, "time_elapsed": 523791, "type": "FREE_RECALL", "trial_index": 75}, "uniqueid": "MTK2567:3EFE17QCRDCFSDBKG8P9CTP5PPOHST", "dateTime": 1519072556424}, {"current_trial": 76, "trialdata": {"rt": 3886, "trial_type": "text", "internal_node_id": "0.0-58.0", "time_elapsed": 529680, "key_press": 13, "type": "INSTRUCTIONS", "trial_index": 76}, "uniqueid": "MTK2567:3EFE17QCRDCFSDBKG8P9CTP5PPOHST", "dateTime": 1519072562311}, {"current_trial": 77, "trialdata": {"rt": [2785, 6129, 9781], "trial_type": "math-distractor", "key_times": [2232, 2785, 5452, 5747, 6129, 8310, 9487, 9781], "responses": ["6", "20", "14"], "num2": [3, 9, 4, 7], "num3": [2, 7, 9, 2], "conditions": [12, 1600, "a", 12000], "internal_node_id": "0.0-59.0", "key_presses": [54, 13, 50, 48, 13, 49, 52, 13], "trial": 2, "time_elapsed": 542687, "type": "DISTRACTOR", "trial_index": 77, "num1": [1, 4, 1, 9]}, "uniqueid": "MTK2567:3EFE17QCRDCFSDBKG8P9CTP5PPOHST", "dateTime": 1519072575318}, {"current_trial": 78, "trialdata": {"rt": -1, "trial_type": "single-stim", "stimulus": "<p id=\"stim\">10</p>", "internal_node_id": "0.0-60.0-0.0", "time_elapsed": 545690, "key_press": -1, "trial_index": 78}, "uniqueid": "MTK2567:3EFE17QCRDCFSDBKG8P9CTP5PPOHST", "dateTime": 1519072578321}, {"current_trial": 79, "trialdata": {"rt": -1, "trial_type": "single-stim", "stimulus": "<p id=\"stim\">9</p>", "internal_node_id": "0.0-60.0-1.0", "time_elapsed": 546692, "key_press": -1, "trial_index": 79}, "uniqueid": "MTK2567:3EFE17QCRDCFSDBKG8P9CTP5PPOHST", "dateTime": 1519072579323}, {"current_trial": 80, "trialdata": {"rt": -1, "trial_type": "single-stim", "stimulus": "<p id=\"stim\">8</p>", "internal_node_id": "0.0-60.0-2.0", "time_elapsed": 547694, "key_press": -1, "trial_index": 80}, "uniqueid": "MTK2567:3EFE17QCRDCFSDBKG8P9CTP5PPOHST", "dateTime": 1519072580325}, {"current_trial": 81, "trialdata": {"rt": -1, "trial_type": "single-stim", "stimulus": "<p id=\"stim\">7</p>", "internal_node_id": "0.0-60.0-3.0", "time_elapsed": 548697, "key_press": -1, "trial_index": 81}, "uniqueid": "MTK2567:3EFE17QCRDCFSDBKG8P9CTP5PPOHST", "dateTime": 1519072581328}, {"current_trial": 82, "trialdata": {"rt": -1, "trial_type": "single-stim", "stimulus": "<p id=\"stim\">6</p>", "internal_node_id": "0.0-60.0-4.0", "time_elapsed": 549699, "key_press": -1, "trial_index": 82}, "uniqueid": "MTK2567:3EFE17QCRDCFSDBKG8P9CTP5PPOHST", "dateTime": 1519072582330}, {"current_trial": 83, "trialdata": {"rt": -1, "trial_type": "single-stim", "stimulus": "<p id=\"stim\">5</p>", "internal_node_id": "0.0-60.0-5.0", "time_elapsed": 550700, "key_press": -1, "trial_index": 83}, "uniqueid": "MTK2567:3EFE17QCRDCFSDBKG8P9CTP5PPOHST", "dateTime": 1519072583331}, {"current_trial": 84, "trialdata": {"rt": -1, "trial_type": "single-stim", "stimulus": "<p id=\"stim\">4</p>", "internal_node_id": "0.0-60.0-6.0", "time_elapsed": 551702, "key_press": -1, "trial_index": 84}, "uniqueid": "MTK2567:3EFE17QCRDCFSDBKG8P9CTP5PPOHST", "dateTime": 1519072584333}, {"current_trial": 85, "trialdata": {"rt": -1, "trial_type": "single-stim", "stimulus": "<p id=\"stim\">3</p>", "internal_node_id": "0.0-60.0-7.0", "time_elapsed": 552703, "key_press": -1, "trial_index": 85}, "uniqueid": "MTK2567:3EFE17QCRDCFSDBKG8P9CTP5PPOHST", "dateTime": 1519072585334}, {"current_trial": 86, "trialdata": {"rt": -1, "trial_type": "single-stim", "stimulus": "<p id=\"stim\">2</p>", "internal_node_id": "0.0-60.0-8.0", "time_elapsed": 553704, "key_press": -1, "trial_index": 86}, "uniqueid": "MTK2567:3EFE17QCRDCFSDBKG8P9CTP5PPOHST", "dateTime": 1519072586335}, {"current_trial": 87, "trialdata": {"rt": -1, "trial_type": "single-stim", "stimulus": "<p id=\"stim\">1</p>", "internal_node_id": "0.0-60.0-9.0", "time_elapsed": 554706, "key_press": -1, "trial_index": 87}, "uniqueid": "MTK2567:3EFE17QCRDCFSDBKG8P9CTP5PPOHST", "dateTime": 1519072587337}, {"current_trial": 88, "trialdata": {"rt": -1, "trial_type": "single-stim", "stimulus": "<p id=\"stim\">+</p>", "internal_node_id": "0.0-61.0-0.0", "time_elapsed": 556208, "key_press": -1, "type": "FIXATION", "trial_index": 88}, "uniqueid": "MTK2567:3EFE17QCRDCFSDBKG8P9CTP5PPOHST", "dateTime": 1519072588839}, {"current_trial": 89, "trialdata": {"rt": -1000, "trial_type": "single-audio", "word": "denim", "stimulus": "/static/audio/wordpool/DENIM.wav", "conditions": [12, 1600, "a", 12000], "internal_node_id": "0.0-62.0", "trial": 2, "time_elapsed": 558899, "serialpos": 0, "key_press": -1, "wordID": 445, "type": "PRES_AUD", "trial_index": 89}, "uniqueid": "MTK2567:3EFE17QCRDCFSDBKG8P9CTP5PPOHST", "dateTime": 1519072591530}, {"current_trial": 90, "trialdata": {"rt": -1000, "trial_type": "single-audio", "word": "blouse", "stimulus": "/static/audio/wordpool/BLOUSE.wav", "conditions": [12, 1600, "a", 12000], "internal_node_id": "0.0-63.0", "trial": 2, "time_elapsed": 561696, "serialpos": 1, "key_press": -1, "wordID": 138, "type": "PRES_AUD", "trial_index": 90}, "uniqueid": "MTK2567:3EFE17QCRDCFSDBKG8P9CTP5PPOHST", "dateTime": 1519072594327}, {"current_trial": 91, "trialdata": {"rt": -1000, "trial_type": "single-audio", "word": "couch", "stimulus": "/static/audio/wordpool/COUCH.wav", "conditions": [12, 1600, "a", 12000], "internal_node_id": "0.0-64.0", "trial": 2, "time_elapsed": 564197, "serialpos": 2, "key_press": -1, "wordID": 385, "type": "PRES_AUD", "trial_index": 91}, "uniqueid": "MTK2567:3EFE17QCRDCFSDBKG8P9CTP5PPOHST", "dateTime": 1519072596828}, {"current_trial": 92, "trialdata": {"rt": -1000, "trial_type": "single-audio", "word": "costume", "stimulus": "/static/audio/wordpool/COSTUME.wav", "conditions": [12, 1600, "a", 12000], "internal_node_id": "0.0-65.0", "trial": 2, "time_elapsed": 566615, "serialpos": 3, "key_press": -1, "wordID": 382, "type": "PRES_AUD", "trial_index": 92}, "uniqueid": "MTK2567:3EFE17QCRDCFSDBKG8P9CTP5PPOHST", "dateTime": 1519072599246}, {"current_trial": 93, "trialdata": {"rt": -1000, "trial_type": "single-audio", "word": "critic", "stimulus": "/static/audio/wordpool/CRITIC.wav", "conditions": [12, 1600, "a", 12000], "internal_node_id": "0.0-66.0", "trial": 2, "time_elapsed": 569333, "serialpos": 4, "key_press": -1, "wordID": 409, "type": "PRES_AUD", "trial_index": 93}, "uniqueid": "MTK2567:3EFE17QCRDCFSDBKG8P9CTP5PPOHST", "dateTime": 1519072601965}, {"current_trial": 94, "trialdata": {"rt": -1000, "trial_type": "single-audio", "word": "hawk", "stimulus": "/static/audio/wordpool/HAWK.wav", "conditions": [12, 1600, "a", 12000], "internal_node_id": "0.0-67.0", "trial": 2, "time_elapsed": 571953, "serialpos": 5, "key_press": -1, "wordID": 691, "type": "PRES_AUD", "trial_index": 94}, "uniqueid": "MTK2567:3EFE17QCRDCFSDBKG8P9CTP5PPOHST", "dateTime": 1519072604584}, {"current_trial": 95, "trialdata": {"rt": -1000, "trial_type": "single-audio", "word": "nurse", "stimulus": "/static/audio/wordpool/NURSE.wav", "conditions": [12, 1600, "a", 12000], "internal_node_id": "0.0-68.0", "trial": 2, "time_elapsed": 574683, "serialpos": 6, "key_press": -1, "wordID": 962, "type": "PRES_AUD", "trial_index": 95}, "uniqueid": "MTK2567:3EFE17QCRDCFSDBKG8P9CTP5PPOHST", "dateTime": 1519072607314}, {"current_trial": 96, "trialdata": {"rt": -1000, "trial_type": "single-audio", "word": "parent", "stimulus": "/static/audio/wordpool/PARENT.wav", "conditions": [12, 1600, "a", 12000], "internal_node_id": "0.0-69.0", "trial": 2, "time_elapsed": 577371, "serialpos": 7, "key_press": -1, "wordID": 1012, "type": "PRES_AUD", "trial_index": 96}, "uniqueid": "MTK2567:3EFE17QCRDCFSDBKG8P9CTP5PPOHST", "dateTime": 1519072610002}, {"current_trial": 97, "trialdata": {"rt": -1000, "trial_type": "single-audio", "word": "bureau", "stimulus": "/static/audio/wordpool/BUREAU.wav", "conditions": [12, 1600, "a", 12000], "internal_node_id": "0.0-70.0", "trial": 2, "time_elapsed": 580164, "serialpos": 8, "key_press": -1, "wordID": 198, "type": "PRES_AUD", "trial_index": 97}, "uniqueid": "MTK2567:3EFE17QCRDCFSDBKG8P9CTP5PPOHST", "dateTime": 1519072612795}, {"current_trial": 98, "trialdata": {"rt": -1000, "trial_type": "single-audio", "word": "tutu", "stimulus": "/static/audio/wordpool/TUTU.wav", "conditions": [12, 1600, "a", 12000], "internal_node_id": "0.0-71.0", "trial": 2, "time_elapsed": 582806, "serialpos": 9, "key_press": -1, "wordID": 1523, "type": "PRES_AUD", "trial_index": 98}, "uniqueid": "MTK2567:3EFE17QCRDCFSDBKG8P9CTP5PPOHST", "dateTime": 1519072615437}, {"current_trial": 99, "trialdata": {"rt": -1000, "trial_type": "single-audio", "word": "forehead", "stimulus": "/static/audio/wordpool/FOREHEAD.wav", "conditions": [12, 1600, "a", 12000], "internal_node_id": "0.0-72.0", "trial": 2, "time_elapsed": 585600, "serialpos": 10, "key_press": -1, "wordID": 591, "type": "PRES_AUD", "trial_index": 99}, "uniqueid": "MTK2567:3EFE17QCRDCFSDBKG8P9CTP5PPOHST", "dateTime": 1519072618231}, {"current_trial": 100, "trialdata": {"rt": -1000, "trial_type": "single-audio", "word": "parrot", "stimulus": "/static/audio/wordpool/PARROT.wav", "conditions": [12, 1600, "a", 12000], "internal_node_id": "0.0-73.0", "trial": 2, "time_elapsed": 588384, "serialpos": 11, "key_press": -1, "wordID": 1014, "type": "PRES_AUD", "trial_index": 100}, "uniqueid": "MTK2567:3EFE17QCRDCFSDBKG8P9CTP5PPOHST", "dateTime": 1519072621015}, {"current_trial": 101, "trialdata": {"rt": -1, "trial_type": "single-stim", "stimulus": "", "internal_node_id": "0.0-74.0-0.0", "time_elapsed": 589739, "key_press": -1, "type": "PRE_RECALL_DELAY", "trial_index": 101}, "uniqueid": "MTK2567:3EFE17QCRDCFSDBKG8P9CTP5PPOHST", "dateTime": 1519072622370}, {"current_trial": 102, "trialdata": {"rt": -1000, "trial_type": "single-audio", "stimulus": "/static/audio/400Hz.wav", "internal_node_id": "0.0-75.0", "time_elapsed": 590241, "key_press": -1, "type": "PRE_RECALL_ALERT", "trial_index": 102}, "uniqueid": "MTK2567:3EFE17QCRDCFSDBKG8P9CTP5PPOHST", "dateTime": 1519072622872}, {"current_trial": 103, "trialdata": {"rt": [3494, 5427, 7696, 10737, 17235, 20756, 23752, 31229, 33288, 38746, 41228, 45822, 52086, 55352], "recwords": ["denim", "blouse", "costume", "couch", "critic", "costume", "parrot", "forehead", "parrot", "denim", "blouse", "tutu", "forehead", "parrot"], "key_times": [2048, 2279, 2609, 2849, 3092, 3494, 4034, 4370, 4591, 4829, 5030, 5150, 5427, 6016, 6171, 6357, 6611, 6848, 7124, 7448, 7696, 8123, 8363, 8602, 8944, 9139, 9586, 10424, 10737, 14425, 14764, 15000, 15212, 15354, 15719, 17235, 18113, 18399, 18578, 18809, 18962, 19220, 19408, 19667, 20460, 20756, 22582, 22727, 22863, 23099, 23260, 23457, 23752, 25766, 25895, 26112, 26363, 26738, 26900, 27045, 27280, 27600, 29326, 29489, 29651, 30053, 30267, 30471, 30688, 31229, 31989, 32150, 32252, 32496, 32809, 33062, 33288, 36349, 36609, 36875, 37075, 37315, 37627, 38433, 38746, 39711, 40035, 40300, 40534, 40695, 40842, 41228, 44735, 44944, 45153, 45269, 45822, 50016, 50218, 50418, 50612, 50918, 51096, 51258, 51639, 52086, 54147, 54297, 54434, 54655, 54832, 55069, 55352, 59771], "trial_type": "free-recall", "conditions": [12, 1600, "a", 12000], "internal_node_id": "0.0-76.0-0.0", "key_presses": [68, 69, 78, 73, 77, 13, 66, 76, 79, 85, 83, 69, 13, 67, 79, 83, 84, 85, 77, 69, 13, 67, 79, 85, 67, 72, 222, 8, 13, 67, 82, 73, 84, 73, 67, 13, 67, 79, 83, 84, 85, 77, 69, 222, 8, 13, 80, 65, 82, 82, 79, 84, 13, 70, 79, 82, 69, 72, 69, 65, 68, 222, 80, 65, 82, 8, 8, 8, 8, 13, 80, 65, 82, 82, 79, 84, 13, 68, 69, 78, 73, 77, 222, 8, 13, 66, 76, 79, 85, 83, 69, 13, 84, 85, 84, 85, 13, 70, 79, 82, 69, 72, 69, 65, 68, 13, 80, 65, 82, 82, 79, 84, 13, 67], "trial": 2, "time_elapsed": 650244, "type": "FREE_RECALL", "trial_index": 103}, "uniqueid": "MTK2567:3EFE17QCRDCFSDBKG8P9CTP5PPOHST", "dateTime": 1519072682879}, {"current_trial": 104, "trialdata": {"rt": 33177, "trial_type": "text", "internal_node_id": "0.0-77.0", "time_elapsed": 685427, "key_press": 13, "type": "INSTRUCTIONS", "trial_index": 104}, "uniqueid": "MTK2567:3EFE17QCRDCFSDBKG8P9CTP5PPOHST", "dateTime": 1519072718058}, {"current_trial": 105, "trialdata": {"rt": [3159, 6888, 9068, 11450], "trial_type": "math-distractor", "key_times": [2299, 2567, 3159, 5637, 6507, 6888, 8542, 8839, 9068, 10683, 10983, 11450], "responses": ["13", "13", "12", "19"], "num2": [6, 7, 5, 5, 6], "num3": [4, 3, 1, 5, 5], "conditions": [24, 1600, "a", 12000], "internal_node_id": "0.0-78.0", "key_presses": [49, 51, 13, 49, 51, 13, 49, 50, 13, 49, 57, 13], "trial": 3, "time_elapsed": 699430, "type": "DISTRACTOR", "trial_index": 105, "num1": [3, 3, 6, 9, 8]}, "uniqueid": "MTK2567:3EFE17QCRDCFSDBKG8P9CTP5PPOHST", "dateTime": 1519072732061}, {"current_trial": 106, "trialdata": {"rt": -1, "trial_type": "single-stim", "stimulus": "<p id=\"stim\">10</p>", "internal_node_id": "0.0-79.0-0.0", "time_elapsed": 702434, "key_press": -1, "trial_index": 106}, "uniqueid": "MTK2567:3EFE17QCRDCFSDBKG8P9CTP5PPOHST", "dateTime": 1519072735065}, {"current_trial": 107, "trialdata": {"rt": -1, "trial_type": "single-stim", "stimulus": "<p id=\"stim\">9</p>", "internal_node_id": "0.0-79.0-1.0", "time_elapsed": 703437, "key_press": -1, "trial_index": 107}, "uniqueid": "MTK2567:3EFE17QCRDCFSDBKG8P9CTP5PPOHST", "dateTime": 1519072736068}, {"current_trial": 108, "trialdata": {"rt": -1, "trial_type": "single-stim", "stimulus": "<p id=\"stim\">8</p>", "internal_node_id": "0.0-79.0-2.0", "time_elapsed": 704440, "key_press": -1, "trial_index": 108}, "uniqueid": "MTK2567:3EFE17QCRDCFSDBKG8P9CTP5PPOHST", "dateTime": 1519072737071}, {"current_trial": 109, "trialdata": {"rt": -1, "trial_type": "single-stim", "stimulus": "<p id=\"stim\">7</p>", "internal_node_id": "0.0-79.0-3.0", "time_elapsed": 705442, "key_press": -1, "trial_index": 109}, "uniqueid": "MTK2567:3EFE17QCRDCFSDBKG8P9CTP5PPOHST", "dateTime": 1519072738073}, {"current_trial": 110, "trialdata": {"rt": -1, "trial_type": "single-stim", "stimulus": "<p id=\"stim\">6</p>", "internal_node_id": "0.0-79.0-4.0", "time_elapsed": 706444, "key_press": -1, "trial_index": 110}, "uniqueid": "MTK2567:3EFE17QCRDCFSDBKG8P9CTP5PPOHST", "dateTime": 1519072739075}, {"current_trial": 111, "trialdata": {"rt": -1, "trial_type": "single-stim", "stimulus": "<p id=\"stim\">5</p>", "internal_node_id": "0.0-79.0-5.0", "time_elapsed": 707446, "key_press": -1, "trial_index": 111}, "uniqueid": "MTK2567:3EFE17QCRDCFSDBKG8P9CTP5PPOHST", "dateTime": 1519072740077}, {"current_trial": 112, "trialdata": {"rt": -1, "trial_type": "single-stim", "stimulus": "<p id=\"stim\">4</p>", "internal_node_id": "0.0-79.0-6.0", "time_elapsed": 708448, "key_press": -1, "trial_index": 112}, "uniqueid": "MTK2567:3EFE17QCRDCFSDBKG8P9CTP5PPOHST", "dateTime": 1519072741079}, {"current_trial": 113, "trialdata": {"rt": -1, "trial_type": "single-stim", "stimulus": "<p id=\"stim\">3</p>", "internal_node_id": "0.0-79.0-7.0", "time_elapsed": 709450, "key_press": -1, "trial_index": 113}, "uniqueid": "MTK2567:3EFE17QCRDCFSDBKG8P9CTP5PPOHST", "dateTime": 1519072742081}, {"current_trial": 114, "trialdata": {"rt": -1, "trial_type": "single-stim", "stimulus": "<p id=\"stim\">2</p>", "internal_node_id": "0.0-79.0-8.0", "time_elapsed": 710454, "key_press": -1, "trial_index": 114}, "uniqueid": "MTK2567:3EFE17QCRDCFSDBKG8P9CTP5PPOHST", "dateTime": 1519072743085}, {"current_trial": 115, "trialdata": {"rt": -1, "trial_type": "single-stim", "stimulus": "<p id=\"stim\">1</p>", "internal_node_id": "0.0-79.0-9.0", "time_elapsed": 711456, "key_press": -1, "trial_index": 115}, "uniqueid": "MTK2567:3EFE17QCRDCFSDBKG8P9CTP5PPOHST", "dateTime": 1519072744087}, {"current_trial": 116, "trialdata": {"rt": -1, "trial_type": "single-stim", "stimulus": "<p id=\"stim\">+</p>", "internal_node_id": "0.0-80.0-0.0", "time_elapsed": 712958, "key_press": -1, "type": "FIXATION", "trial_index": 116}, "uniqueid": "MTK2567:3EFE17QCRDCFSDBKG8P9CTP5PPOHST", "dateTime": 1519072745589}, {"current_trial": 117, "trialdata": {"rt": -1000, "trial_type": "single-audio", "word": "chest", "stimulus": "/static/audio/wordpool/CHEST.wav", "conditions": [24, 1600, "a", 12000], "internal_node_id": "0.0-81.0", "trial": 3, "time_elapsed": 715386, "serialpos": 0, "key_press": -1, "wordID": 294, "type": "PRES_AUD", "trial_index": 117}, "uniqueid": "MTK2567:3EFE17QCRDCFSDBKG8P9CTP5PPOHST", "dateTime": 1519072748018}, {"current_trial": 118, "trialdata": {"rt": -1000, "trial_type": "single-audio", "word": "foot", "stimulus": "/static/audio/wordpool/FOOT.wav", "conditions": [24, 1600, "a", 12000], "internal_node_id": "0.0-82.0", "trial": 3, "time_elapsed": 717910, "serialpos": 1, "key_press": -1, "wordID": 589, "type": "PRES_AUD", "trial_index": 118}, "uniqueid": "MTK2567:3EFE17QCRDCFSDBKG8P9CTP5PPOHST", "dateTime": 1519072750541}, {"current_trial": 119, "trialdata": {"rt": -1000, "trial_type": "single-audio", "word": "kleenex", "stimulus": "/static/audio/wordpool/KLEENEX.wav", "conditions": [24, 1600, "a", 12000], "internal_node_id": "0.0-83.0", "trial": 3, "time_elapsed": 720375, "serialpos": 2, "key_press": -1, "wordID": 781, "type": "PRES_AUD", "trial_index": 119}, "uniqueid": "MTK2567:3EFE17QCRDCFSDBKG8P9CTP5PPOHST", "dateTime": 1519072753006}, {"current_trial": 120, "trialdata": {"rt": -1000, "trial_type": "single-audio", "word": "crater", "stimulus": "/static/audio/wordpool/CRATER.wav", "conditions": [24, 1600, "a", 12000], "internal_node_id": "0.0-84.0", "trial": 3, "time_elapsed": 723104, "serialpos": 3, "key_press": -1, "wordID": 399, "type": "PRES_AUD", "trial_index": 120}, "uniqueid": "MTK2567:3EFE17QCRDCFSDBKG8P9CTP5PPOHST", "dateTime": 1519072755736}, {"current_trial": 121, "trialdata": {"rt": -1000, "trial_type": "single-audio", "word": "airport", "stimulus": "/static/audio/wordpool/AIRPORT.wav", "conditions": [24, 1600, "a", 12000], "internal_node_id": "0.0-85.0", "trial": 3, "time_elapsed": 725706, "serialpos": 4, "key_press": -1, "wordID": 12, "type": "PRES_AUD", "trial_index": 121}, "uniqueid": "MTK2567:3EFE17QCRDCFSDBKG8P9CTP5PPOHST", "dateTime": 1519072758337}, {"current_trial": 122, "trialdata": {"rt": -1000, "trial_type": "single-audio", "word": "stomach", "stimulus": "/static/audio/wordpool/STOMACH.wav", "conditions": [24, 1600, "a", 12000], "internal_node_id": "0.0-86.0", "trial": 3, "time_elapsed": 728201, "serialpos": 5, "key_press": -1, "wordID": 1383, "type": "PRES_AUD", "trial_index": 122}, "uniqueid": "MTK2567:3EFE17QCRDCFSDBKG8P9CTP5PPOHST", "dateTime": 1519072760832}, {"current_trial": 123, "trialdata": {"rt": -1000, "trial_type": "single-audio", "word": "kitchen", "stimulus": "/static/audio/wordpool/KITCHEN.wav", "conditions": [24, 1600, "a", 12000], "internal_node_id": "0.0-87.0", "trial": 3, "time_elapsed": 730812, "serialpos": 6, "key_press": -1, "wordID": 777, "type": "PRES_AUD", "trial_index": 123}, "uniqueid": "MTK2567:3EFE17QCRDCFSDBKG8P9CTP5PPOHST", "dateTime": 1519072763443}, {"current_trial": 124, "trialdata": {"rt": -1000, "trial_type": "single-audio", "word": "basement", "stimulus": "/static/audio/wordpool/BASEMENT.wav", "conditions": [24, 1600, "a", 12000], "internal_node_id": "0.0-88.0", "trial": 3, "time_elapsed": 733253, "serialpos": 7, "key_press": -1, "wordID": 93, "type": "PRES_AUD", "trial_index": 124}, "uniqueid": "MTK2567:3EFE17QCRDCFSDBKG8P9CTP5PPOHST", "dateTime": 1519072765884}, {"current_trial": 125, "trialdata": {"rt": -1000, "trial_type": "single-audio", "word": "helmet", "stimulus": "/static/audio/wordpool/HELMET.wav", "conditions": [24, 1600, "a", 12000], "internal_node_id": "0.0-89.0", "trial": 3, "time_elapsed": 735961, "serialpos": 8, "key_press": -1, "wordID": 701, "type": "PRES_AUD", "trial_index": 125}, "uniqueid": "MTK2567:3EFE17QCRDCFSDBKG8P9CTP5PPOHST", "dateTime": 1519072768592}, {"current_trial": 126, "trialdata": {"rt": -1000, "trial_type": "single-audio", "word": "switch", "stimulus": "/static/audio/wordpool/SWITCH.wav", "conditions": [24, 1600, "a", 12000], "internal_node_id": "0.0-90.0", "trial": 3, "time_elapsed": 738405, "serialpos": 9, "key_press": -1, "wordID": 1421, "type": "PRES_AUD", "trial_index": 126}, "uniqueid": "MTK2567:3EFE17QCRDCFSDBKG8P9CTP5PPOHST", "dateTime": 1519072771036}, {"current_trial": 127, "trialdata": {"rt": -1000, "trial_type": "single-audio", "word": "valve", "stimulus": "/static/audio/wordpool/VALVE.wav", "conditions": [24, 1600, "a", 12000], "internal_node_id": "0.0-91.0", "trial": 3, "time_elapsed": 741081, "serialpos": 10, "key_press": -1, "wordID": 1545, "type": "PRES_AUD", "trial_index": 127}, "uniqueid": "MTK2567:3EFE17QCRDCFSDBKG8P9CTP5PPOHST", "dateTime": 1519072773712}, {"current_trial": 128, "trialdata": {"rt": -1000, "trial_type": "single-audio", "word": "cyclone", "stimulus": "/static/audio/wordpool/CYCLONE.wav", "conditions": [24, 1600, "a", 12000], "internal_node_id": "0.0-92.0", "trial": 3, "time_elapsed": 743657, "serialpos": 11, "key_press": -1, "wordID": 430, "type": "PRES_AUD", "trial_index": 128}, "uniqueid": "MTK2567:3EFE17QCRDCFSDBKG8P9CTP5PPOHST", "dateTime": 1519072776288}, {"current_trial": 129, "trialdata": {"rt": -1000, "trial_type": "single-audio", "word": "cobra", "stimulus": "/static/audio/wordpool/COBRA.wav", "conditions": [24, 1600, "a", 12000], "internal_node_id": "0.0-93.0", "trial": 3, "time_elapsed": 746167, "serialpos": 12, "key_press": -1, "wordID": 335, "type": "PRES_AUD", "trial_index": 129}, "uniqueid": "MTK2567:3EFE17QCRDCFSDBKG8P9CTP5PPOHST", "dateTime": 1519072778799}, {"current_trial": 130, "trialdata": {"rt": -1000, "trial_type": "single-audio", "word": "fox", "stimulus": "/static/audio/wordpool/FOX.wav", "conditions": [24, 1600, "a", 12000], "internal_node_id": "0.0-94.0", "trial": 3, "time_elapsed": 748769, "serialpos": 13, "key_press": -1, "wordID": 597, "type": "PRES_AUD", "trial_index": 130}, "uniqueid": "MTK2567:3EFE17QCRDCFSDBKG8P9CTP5PPOHST", "dateTime": 1519072781400}, {"current_trial": 131, "trialdata": {"rt": -1000, "trial_type": "single-audio", "word": "snake", "stimulus": "/static/audio/wordpool/SNAKE.wav", "conditions": [24, 1600, "a", 12000], "internal_node_id": "0.0-95.0", "trial": 3, "time_elapsed": 751357, "serialpos": 14, "key_press": -1, "wordID": 1332, "type": "PRES_AUD", "trial_index": 131}, "uniqueid": "MTK2567:3EFE17QCRDCFSDBKG8P9CTP5PPOHST", "dateTime": 1519072783988}, {"current_trial": 132, "trialdata": {"rt": -1000, "trial_type": "single-audio", "word": "velvet", "stimulus": "/static/audio/wordpool/VELVET.wav", "conditions": [24, 1600, "a", 12000], "internal_node_id": "0.0-96.0", "trial": 3, "time_elapsed": 753802, "serialpos": 15, "key_press": -1, "wordID": 1554, "type": "PRES_AUD", "trial_index": 132}, "uniqueid": "MTK2567:3EFE17QCRDCFSDBKG8P9CTP5PPOHST", "dateTime": 1519072786433}, {"current_trial": 133, "trialdata": {"rt": -1000, "trial_type": "single-audio", "word": "robin", "stimulus": "/static/audio/wordpool/ROBIN.wav", "conditions": [24, 1600, "a", 12000], "internal_node_id": "0.0-97.0", "trial": 3, "time_elapsed": 756570, "serialpos": 16, "key_press": -1, "wordID": 1198, "type": "PRES_AUD", "trial_index": 133}, "uniqueid": "MTK2567:3EFE17QCRDCFSDBKG8P9CTP5PPOHST", "dateTime": 1519072789201}, {"current_trial": 134, "trialdata": {"rt": -1000, "trial_type": "single-audio", "word": "razor", "stimulus": "/static/audio/wordpool/RAZOR.wav", "conditions": [24, 1600, "a", 12000], "internal_node_id": "0.0-98.0", "trial": 3, "time_elapsed": 759257, "serialpos": 17, "key_press": -1, "wordID": 1170, "type": "PRES_AUD", "trial_index": 134}, "uniqueid": "MTK2567:3EFE17QCRDCFSDBKG8P9CTP5PPOHST", "dateTime": 1519072791888}, {"current_trial": 135, "trialdata": {"rt": -1000, "trial_type": "single-audio", "word": "cod", "stimulus": "/static/audio/wordpool/COD.wav", "conditions": [24, 1600, "a", 12000], "internal_node_id": "0.0-99.0", "trial": 3, "time_elapsed": 762052, "serialpos": 18, "key_press": -1, "wordID": 339, "type": "PRES_AUD", "trial_index": 135}, "uniqueid": "MTK2567:3EFE17QCRDCFSDBKG8P9CTP5PPOHST", "dateTime": 1519072794683}, {"current_trial": 136, "trialdata": {"rt": -1000, "trial_type": "single-audio", "word": "twig", "stimulus": "/static/audio/wordpool/TWIG.wav", "conditions": [24, 1600, "a", 12000], "internal_node_id": "0.0-100.0", "trial": 3, "time_elapsed": 764829, "serialpos": 19, "key_press": -1, "wordID": 1526, "type": "PRES_AUD", "trial_index": 136}, "uniqueid": "MTK2567:3EFE17QCRDCFSDBKG8P9CTP5PPOHST", "dateTime": 1519072797460}, {"current_trial": 137, "trialdata": {"rt": -1000, "trial_type": "single-audio", "word": "maple", "stimulus": "/static/audio/wordpool/MAPLE.wav", "conditions": [24, 1600, "a", 12000], "internal_node_id": "0.0-101.0", "trial": 3, "time_elapsed": 767487, "serialpos": 20, "key_press": -1, "wordID": 865, "type": "PRES_AUD", "trial_index": 137}, "uniqueid": "MTK2567:3EFE17QCRDCFSDBKG8P9CTP5PPOHST", "dateTime": 1519072800118}, {"current_trial": 138, "trialdata": {"rt": -1000, "trial_type": "single-audio", "word": "scissors", "stimulus": "/static/audio/wordpool/SCISSORS.wav", "conditions": [24, 1600, "a", 12000], "internal_node_id": "0.0-102.0", "trial": 3, "time_elapsed": 769928, "serialpos": 21, "key_press": -1, "wordID": 1249, "type": "PRES_AUD", "trial_index": 138}, "uniqueid": "MTK2567:3EFE17QCRDCFSDBKG8P9CTP5PPOHST", "dateTime": 1519072802559}, {"current_trial": 139, "trialdata": {"rt": -1000, "trial_type": "single-audio", "word": "swamp", "stimulus": "/static/audio/wordpool/SWAMP.wav", "conditions": [24, 1600, "a", 12000], "internal_node_id": "0.0-103.0", "trial": 3, "time_elapsed": 772493, "serialpos": 22, "key_press": -1, "wordID": 1415, "type": "PRES_AUD", "trial_index": 139}, "uniqueid": "MTK2567:3EFE17QCRDCFSDBKG8P9CTP5PPOHST", "dateTime": 1519072805124}, {"current_trial": 140, "trialdata": {"rt": -1000, "trial_type": "single-audio", "word": "cashew", "stimulus": "/static/audio/wordpool/CASHEW.wav", "conditions": [24, 1600, "a", 12000], "internal_node_id": "0.0-104.0", "trial": 3, "time_elapsed": 775172, "serialpos": 23, "key_press": -1, "wordID": 252, "type": "PRES_AUD", "trial_index": 140}, "uniqueid": "MTK2567:3EFE17QCRDCFSDBKG8P9CTP5PPOHST", "dateTime": 1519072807804}, {"current_trial": 141, "trialdata": {"rt": -1, "trial_type": "single-stim", "stimulus": "", "internal_node_id": "0.0-105.0-0.0", "time_elapsed": 776380, "key_press": -1, "type": "PRE_RECALL_DELAY", "trial_index": 141}, "uniqueid": "MTK2567:3EFE17QCRDCFSDBKG8P9CTP5PPOHST", "dateTime": 1519072809012}, {"current_trial": 142, "trialdata": {"rt": -1000, "trial_type": "single-audio", "stimulus": "/static/audio/400Hz.wav", "internal_node_id": "0.0-106.0", "time_elapsed": 776882, "key_press": -1, "type": "PRE_RECALL_ALERT", "trial_index": 142}, "uniqueid": "MTK2567:3EFE17QCRDCFSDBKG8P9CTP5PPOHST", "dateTime": 1519072809513}, {"current_trial": 143, "trialdata": {"rt": [4211, 6310, 9617, 13752, 17066, 19961, 23503, 28351, 31328, 33847, 38885, 42673, 49849, 53513, 57568, 59972], "recwords": ["chest", "foot", "kitchen", "airport", "scissors", "cashew", "twig", "maple", "snake", "fox", "robin", "razor", "cashew", "swamp", "switch", "helmet"], "key_times": [2686, 2995, 3198, 3433, 3711, 4211, 4970, 5194, 5417, 5677, 6310, 7004, 7288, 7464, 7783, 7999, 8163, 8353, 9617, 11786, 12040, 12275, 12405, 12652, 13016, 13242, 13752, 15351, 15639, 15898, 16029, 16252, 16382, 16610, 16828, 17066, 17497, 17737, 17917, 18236, 18681, 18984, 19141, 19319, 19961, 21858, 22039, 22891, 23116, 23503, 24647, 24809, 24957, 25204, 25391, 25786, 28028, 28351, 29982, 30436, 30587, 30846, 31053, 31328, 31333, 32214, 32938, 33129, 33389, 33847, 36940, 37462, 37771, 37984, 38277, 38885, 40000, 40211, 41003, 41810, 42043, 42673, 48402, 48578, 48753, 48963, 49182, 49360, 49849, 52074, 52379, 52562, 52757, 53059, 53513, 55792, 56063, 56486, 56634, 56980, 57165, 57568, 58418, 58648, 58831, 59281, 59445, 59709, 59972], "trial_type": "free-recall", "conditions": [24, 1600, "a", 12000], "internal_node_id": "0.0-107.0-0.0", "key_presses": [67, 72, 69, 83, 84, 13, 70, 79, 79, 84, 13, 75, 73, 84, 67, 72, 69, 78, 13, 65, 73, 82, 80, 79, 82, 84, 13, 83, 67, 73, 83, 83, 79, 82, 83, 13, 67, 65, 83, 74, 8, 72, 69, 87, 13, 84, 87, 73, 71, 13, 77, 65, 80, 76, 69, 222, 8, 13, 83, 78, 65, 75, 69, 13, 222, 8, 70, 79, 88, 13, 82, 79, 66, 73, 78, 13, 82, 65, 90, 79, 82, 13, 67, 65, 83, 72, 69, 87, 13, 83, 87, 65, 77, 80, 13, 83, 87, 73, 84, 67, 72, 13, 72, 69, 76, 77, 69, 84, 13], "trial": 3, "time_elapsed": 836885, "type": "FREE_RECALL", "trial_index": 143}, "uniqueid": "MTK2567:3EFE17QCRDCFSDBKG8P9CTP5PPOHST", "dateTime": 1519072869518}, {"current_trial": 144, "trialdata": {"rt": 2177, "trial_type": "text", "internal_node_id": "0.0-108.0", "time_elapsed": 841066, "key_press": 13, "type": "INSTRUCTIONS", "trial_index": 144}, "uniqueid": "MTK2567:3EFE17QCRDCFSDBKG8P9CTP5PPOHST", "dateTime": 1519072873697}, {"current_trial": 145, "trialdata": {"rt": [2900, 7501, 10757], "trial_type": "math-distractor", "key_times": [2129, 2384, 2900, 6118, 6936, 7501, 9179, 10444, 10757], "responses": ["12", "17", "18"], "num2": [5, 7, 8, 8], "num3": [6, 2, 8, 8], "conditions": [12, 1600, "a", 12000], "internal_node_id": "0.0-109.0", "key_presses": [49, 50, 13, 49, 55, 13, 49, 56, 13], "trial": 4, "time_elapsed": 855072, "type": "DISTRACTOR", "trial_index": 145, "num1": [1, 8, 2, 5]}, "uniqueid": "MTK2567:3EFE17QCRDCFSDBKG8P9CTP5PPOHST", "dateTime": 1519072887703}, {"current_trial": 146, "trialdata": {"rt": -1, "trial_type": "single-stim", "stimulus": "<p id=\"stim\">10</p>", "internal_node_id": "0.0-110.0-0.0", "time_elapsed": 858075, "key_press": -1, "trial_index": 146}, "uniqueid": "MTK2567:3EFE17QCRDCFSDBKG8P9CTP5PPOHST", "dateTime": 1519072890706}, {"current_trial": 147, "trialdata": {"rt": -1, "trial_type": "single-stim", "stimulus": "<p id=\"stim\">9</p>", "internal_node_id": "0.0-110.0-1.0", "time_elapsed": 859076, "key_press": -1, "trial_index": 147}, "uniqueid": "MTK2567:3EFE17QCRDCFSDBKG8P9CTP5PPOHST", "dateTime": 1519072891707}, {"current_trial": 148, "trialdata": {"rt": -1, "trial_type": "single-stim", "stimulus": "<p id=\"stim\">8</p>", "internal_node_id": "0.0-110.0-2.0", "time_elapsed": 860078, "key_press": -1, "trial_index": 148}, "uniqueid": "MTK2567:3EFE17QCRDCFSDBKG8P9CTP5PPOHST", "dateTime": 1519072892709}, {"current_trial": 149, "trialdata": {"rt": -1, "trial_type": "single-stim", "stimulus": "<p id=\"stim\">7</p>", "internal_node_id": "0.0-110.0-3.0", "time_elapsed": 861080, "key_press": -1, "trial_index": 149}, "uniqueid": "MTK2567:3EFE17QCRDCFSDBKG8P9CTP5PPOHST", "dateTime": 1519072893711}, {"current_trial": 150, "trialdata": {"rt": -1, "trial_type": "single-stim", "stimulus": "<p id=\"stim\">6</p>", "internal_node_id": "0.0-110.0-4.0", "time_elapsed": 862082, "key_press": -1, "trial_index": 150}, "uniqueid": "MTK2567:3EFE17QCRDCFSDBKG8P9CTP5PPOHST", "dateTime": 1519072894713}, {"current_trial": 151, "trialdata": {"rt": -1, "trial_type": "single-stim", "stimulus": "<p id=\"stim\">5</p>", "internal_node_id": "0.0-110.0-5.0", "time_elapsed": 863083, "key_press": -1, "trial_index": 151}, "uniqueid": "MTK2567:3EFE17QCRDCFSDBKG8P9CTP5PPOHST", "dateTime": 1519072895715}, {"current_trial": 152, "trialdata": {"rt": -1, "trial_type": "single-stim", "stimulus": "<p id=\"stim\">4</p>", "internal_node_id": "0.0-110.0-6.0", "time_elapsed": 864085, "key_press": -1, "trial_index": 152}, "uniqueid": "MTK2567:3EFE17QCRDCFSDBKG8P9CTP5PPOHST", "dateTime": 1519072896716}, {"current_trial": 153, "trialdata": {"rt": -1, "trial_type": "single-stim", "stimulus": "<p id=\"stim\">3</p>", "internal_node_id": "0.0-110.0-7.0", "time_elapsed": 865087, "key_press": -1, "trial_index": 153}, "uniqueid": "MTK2567:3EFE17QCRDCFSDBKG8P9CTP5PPOHST", "dateTime": 1519072897720}, {"current_trial": 154, "trialdata": {"rt": -1, "trial_type": "single-stim", "stimulus": "<p id=\"stim\">2</p>", "internal_node_id": "0.0-110.0-8.0", "time_elapsed": 866090, "key_press": -1, "trial_index": 154}, "uniqueid": "MTK2567:3EFE17QCRDCFSDBKG8P9CTP5PPOHST", "dateTime": 1519072898722}, {"current_trial": 155, "trialdata": {"rt": -1, "trial_type": "single-stim", "stimulus": "<p id=\"stim\">1</p>", "internal_node_id": "0.0-110.0-9.0", "time_elapsed": 867093, "key_press": -1, "trial_index": 155}, "uniqueid": "MTK2567:3EFE17QCRDCFSDBKG8P9CTP5PPOHST", "dateTime": 1519072899724}, {"current_trial": 156, "trialdata": {"rt": -1, "trial_type": "single-stim", "stimulus": "<p id=\"stim\">+</p>", "internal_node_id": "0.0-111.0-0.0", "time_elapsed": 868595, "key_press": -1, "type": "FIXATION", "trial_index": 156}, "uniqueid": "MTK2567:3EFE17QCRDCFSDBKG8P9CTP5PPOHST", "dateTime": 1519072901226}, {"current_trial": 157, "trialdata": {"rt": -1000, "trial_type": "single-audio", "word": "ghetto", "stimulus": "/static/audio/wordpool/GHETTO.wav", "conditions": [12, 1600, "a", 12000], "internal_node_id": "0.0-112.0", "trial": 4, "time_elapsed": 871339, "serialpos": 0, "key_press": -1, "wordID": 632, "type": "PRES_AUD", "trial_index": 157}, "uniqueid": "MTK2567:3EFE17QCRDCFSDBKG8P9CTP5PPOHST", "dateTime": 1519072903970}, {"current_trial": 158, "trialdata": {"rt": -1000, "trial_type": "single-audio", "word": "suitcase", "stimulus": "/static/audio/wordpool/SUITCASE.wav", "conditions": [12, 1600, "a", 12000], "internal_node_id": "0.0-113.0", "trial": 4, "time_elapsed": 874027, "serialpos": 1, "key_press": -1, "wordID": 1402, "type": "PRES_AUD", "trial_index": 158}, "uniqueid": "MTK2567:3EFE17QCRDCFSDBKG8P9CTP5PPOHST", "dateTime": 1519072906658}, {"current_trial": 159, "trialdata": {"rt": -1000, "trial_type": "single-audio", "word": "rooster", "stimulus": "/static/audio/wordpool/ROOSTER.wav", "conditions": [12, 1600, "a", 12000], "internal_node_id": "0.0-114.0", "trial": 4, "time_elapsed": 876548, "serialpos": 2, "key_press": -1, "wordID": 1208, "type": "PRES_AUD", "trial_index": 159}, "uniqueid": "MTK2567:3EFE17QCRDCFSDBKG8P9CTP5PPOHST", "dateTime": 1519072909179}, {"current_trial": 160, "trialdata": {"rt": -1000, "trial_type": "single-audio", "word": "cook", "stimulus": "/static/audio/wordpool/COOK.wav", "conditions": [12, 1600, "a", 12000], "internal_node_id": "0.0-115.0", "trial": 4, "time_elapsed": 879024, "serialpos": 3, "key_press": -1, "wordID": 371, "type": "PRES_AUD", "trial_index": 160}, "uniqueid": "MTK2567:3EFE17QCRDCFSDBKG8P9CTP5PPOHST", "dateTime": 1519072911655}, {"current_trial": 161, "trialdata": {"rt": -1000, "trial_type": "single-audio", "word": "world", "stimulus": "/static/audio/wordpool/WORLD.wav", "conditions": [12, 1600, "a", 12000], "internal_node_id": "0.0-116.0", "trial": 4, "time_elapsed": 881798, "serialpos": 4, "key_press": -1, "wordID": 1621, "type": "PRES_AUD", "trial_index": 161}, "uniqueid": "MTK2567:3EFE17QCRDCFSDBKG8P9CTP5PPOHST", "dateTime": 1519072914430}, {"current_trial": 162, "trialdata": {"rt": -1000, "trial_type": "single-audio", "word": "country", "stimulus": "/static/audio/wordpool/COUNTRY.wav", "conditions": [12, 1600, "a", 12000], "internal_node_id": "0.0-117.0", "trial": 4, "time_elapsed": 884327, "serialpos": 5, "key_press": -1, "wordID": 387, "type": "PRES_AUD", "trial_index": 162}, "uniqueid": "MTK2567:3EFE17QCRDCFSDBKG8P9CTP5PPOHST", "dateTime": 1519072916958}, {"current_trial": 163, "trialdata": {"rt": -1000, "trial_type": "single-audio", "word": "crevice", "stimulus": "/static/audio/wordpool/CREVICE.wav", "conditions": [12, 1600, "a", 12000], "internal_node_id": "0.0-118.0", "trial": 4, "time_elapsed": 887121, "serialpos": 6, "key_press": -1, "wordID": 404, "type": "PRES_AUD", "trial_index": 163}, "uniqueid": "MTK2567:3EFE17QCRDCFSDBKG8P9CTP5PPOHST", "dateTime": 1519072919752}, {"current_trial": 164, "trialdata": {"rt": -1000, "trial_type": "single-audio", "word": "grill", "stimulus": "/static/audio/wordpool/GRILL.wav", "conditions": [12, 1600, "a", 12000], "internal_node_id": "0.0-119.0", "trial": 4, "time_elapsed": 889660, "serialpos": 7, "key_press": -1, "wordID": 660, "type": "PRES_AUD", "trial_index": 164}, "uniqueid": "MTK2567:3EFE17QCRDCFSDBKG8P9CTP5PPOHST", "dateTime": 1519072922292}, {"current_trial": 165, "trialdata": {"rt": -1000, "trial_type": "single-audio", "word": "iceberg", "stimulus": "/static/audio/wordpool/ICEBERG.wav", "conditions": [12, 1600, "a", 12000], "internal_node_id": "0.0-120.0", "trial": 4, "time_elapsed": 892245, "serialpos": 8, "key_press": -1, "wordID": 730, "type": "PRES_AUD", "trial_index": 165}, "uniqueid": "MTK2567:3EFE17QCRDCFSDBKG8P9CTP5PPOHST", "dateTime": 1519072924876}, {"current_trial": 166, "trialdata": {"rt": -1000, "trial_type": "single-audio", "word": "office", "stimulus": "/static/audio/wordpool/OFFICE.wav", "conditions": [12, 1600, "a", 12000], "internal_node_id": "0.0-121.0", "trial": 4, "time_elapsed": 894647, "serialpos": 9, "key_press": -1, "wordID": 971, "type": "PRES_AUD", "trial_index": 166}, "uniqueid": "MTK2567:3EFE17QCRDCFSDBKG8P9CTP5PPOHST", "dateTime": 1519072927278}, {"current_trial": 167, "trialdata": {"rt": -1000, "trial_type": "single-audio", "word": "camel", "stimulus": "/static/audio/wordpool/CAMEL.wav", "conditions": [12, 1600, "a", 12000], "internal_node_id": "0.0-122.0", "trial": 4, "time_elapsed": 897055, "serialpos": 10, "key_press": -1, "wordID": 222, "type": "PRES_AUD", "trial_index": 167}, "uniqueid": "MTK2567:3EFE17QCRDCFSDBKG8P9CTP5PPOHST", "dateTime": 1519072929686}, {"current_trial": 168, "trialdata": {"rt": -1000, "trial_type": "single-audio", "word": "trench", "stimulus": "/static/audio/wordpool/TRENCH.wav", "conditions": [12, 1600, "a", 12000], "internal_node_id": "0.0-123.0", "trial": 4, "time_elapsed": 899679, "serialpos": 11, "key_press": -1, "wordID": 1502, "type": "PRES_AUD", "trial_index": 168}, "uniqueid": "MTK2567:3EFE17QCRDCFSDBKG8P9CTP5PPOHST", "dateTime": 1519072932310}, {"current_trial": 169, "trialdata": {"rt": -1, "trial_type": "single-stim", "stimulus": "", "internal_node_id": "0.0-124.0-0.0", "time_elapsed": 901032, "key_press": -1, "type": "PRE_RECALL_DELAY", "trial_index": 169}, "uniqueid": "MTK2567:3EFE17QCRDCFSDBKG8P9CTP5PPOHST", "dateTime": 1519072933663}, {"current_trial": 170, "trialdata": {"rt": -1000, "trial_type": "single-audio", "stimulus": "/static/audio/400Hz.wav", "internal_node_id": "0.0-125.0", "time_elapsed": 901534, "key_press": -1, "type": "PRE_RECALL_ALERT", "trial_index": 170}, "uniqueid": "MTK2567:3EFE17QCRDCFSDBKG8P9CTP5PPOHST", "dateTime": 1519072934165}, {"current_trial": 171, "trialdata": {"rt": [3577, 5360, 7540, 10369, 14693, 16649, 20933, 22429, 27021, 30933, 34347, 38164, 43246, 48223, 52818, 56917], "recwords": ["ghetto", "office", "iceberg", "trench", "crevice", "grill", "trench", "camel", "suitcase", "cook", "world", "crevice", "iceburg", "crevice", "trench", "ghetto"], "key_times": [1884, 2135, 2392, 2686, 2935, 3225, 3577, 3996, 4204, 4422, 4572, 4714, 4965, 5360, 5779, 5976, 6253, 6557, 6758, 6933, 7208, 7540, 7585, 8672, 8931, 9183, 9323, 9545, 9707, 9864, 10369, 13077, 13382, 13554, 13956, 14094, 14263, 14530, 14693, 15420, 15699, 15894, 16143, 16347, 16649, 18511, 18778, 18936, 19191, 19356, 19501, 19847, 20576, 20933, 21282, 21455, 21607, 21797, 22098, 22429, 24932, 25238, 25463, 25632, 25934, 26154, 26322, 26494, 27021, 28585, 28876, 29073, 29378, 29675, 30576, 30933, 32502, 33134, 33325, 33578, 33799, 34347, 36189, 36591, 36830, 37368, 37531, 37710, 37987, 38164, 38169, 39093, 41222, 41405, 41692, 42049, 42349, 42543, 42913, 43246, 45616, 45906, 46106, 46414, 46555, 46731, 46996, 47201, 47930, 48223, 50188, 50504, 50675, 50929, 51097, 51230, 51643, 52477, 52818, 54953, 55225, 55418, 55587, 55848, 56472, 56917], "trial_type": "free-recall", "conditions": [12, 1600, "a", 12000], "internal_node_id": "0.0-126.0-0.0", "key_presses": [71, 72, 69, 84, 84, 79, 13, 79, 70, 70, 73, 67, 69, 13, 73, 67, 69, 66, 69, 82, 71, 13, 222, 8, 84, 82, 69, 78, 67, 72, 13, 67, 82, 69, 86, 73, 67, 69, 13, 71, 82, 73, 76, 76, 13, 84, 82, 69, 78, 67, 72, 222, 8, 13, 67, 65, 77, 69, 76, 13, 83, 85, 73, 84, 67, 65, 83, 69, 13, 67, 79, 79, 75, 222, 8, 13, 87, 79, 82, 76, 68, 13, 67, 82, 69, 86, 73, 67, 69, 13, 222, 8, 73, 67, 69, 66, 85, 82, 71, 13, 67, 82, 69, 86, 73, 67, 69, 222, 8, 13, 84, 82, 69, 78, 67, 72, 222, 8, 13, 71, 72, 69, 84, 84, 79, 13], "trial": 4, "time_elapsed": 961538, "type": "FREE_RECALL", "trial_index": 171}, "uniqueid": "MTK2567:3EFE17QCRDCFSDBKG8P9CTP5PPOHST", "dateTime": 1519072994174}, {"current_trial": 172, "trialdata": {"rt": 2527, "trial_type": "text", "internal_node_id": "0.0-127.0", "time_elapsed": 966070, "key_press": 13, "type": "INSTRUCTIONS", "trial_index": 172}, "uniqueid": "MTK2567:3EFE17QCRDCFSDBKG8P9CTP5PPOHST", "dateTime": 1519072998701}, {"current_trial": 173, "trialdata": {"rt": [7417, 11434], "trial_type": "math-distractor", "key_times": [6056, 6502, 7417, 10672, 10927, 11434], "responses": ["17", "18"], "num2": [4, 2, 6], "num3": [5, 8, 1], "conditions": [12, 800, "a", 12000], "internal_node_id": "0.0-128.0", "key_presses": [49, 55, 13, 49, 56, 13], "trial": 5, "time_elapsed": 980074, "type": "DISTRACTOR", "trial_index": 173, "num1": [8, 8, 4]}, "uniqueid": "MTK2567:3EFE17QCRDCFSDBKG8P9CTP5PPOHST", "dateTime": 1519073012706}, {"current_trial": 174, "trialdata": {"rt": -1, "trial_type": "single-stim", "stimulus": "<p id=\"stim\">10</p>", "internal_node_id": "0.0-129.0-0.0", "time_elapsed": 983078, "key_press": -1, "trial_index": 174}, "uniqueid": "MTK2567:3EFE17QCRDCFSDBKG8P9CTP5PPOHST", "dateTime": 1519073015709}, {"current_trial": 175, "trialdata": {"rt": -1, "trial_type": "single-stim", "stimulus": "<p id=\"stim\">9</p>", "internal_node_id": "0.0-129.0-1.0", "time_elapsed": 984081, "key_press": -1, "trial_index": 175}, "uniqueid": "MTK2567:3EFE17QCRDCFSDBKG8P9CTP5PPOHST", "dateTime": 1519073016712}, {"current_trial": 176, "trialdata": {"rt": -1, "trial_type": "single-stim", "stimulus": "<p id=\"stim\">8</p>", "internal_node_id": "0.0-129.0-2.0", "time_elapsed": 985082, "key_press": -1, "trial_index": 176}, "uniqueid": "MTK2567:3EFE17QCRDCFSDBKG8P9CTP5PPOHST", "dateTime": 1519073017713}, {"current_trial": 177, "trialdata": {"rt": -1, "trial_type": "single-stim", "stimulus": "<p id=\"stim\">7</p>", "internal_node_id": "0.0-129.0-3.0", "time_elapsed": 986084, "key_press": -1, "trial_index": 177}, "uniqueid": "MTK2567:3EFE17QCRDCFSDBKG8P9CTP5PPOHST", "dateTime": 1519073018715}, {"current_trial": 178, "trialdata": {"rt": -1, "trial_type": "single-stim", "stimulus": "<p id=\"stim\">6</p>", "internal_node_id": "0.0-129.0-4.0", "time_elapsed": 987087, "key_press": -1, "trial_index": 178}, "uniqueid": "MTK2567:3EFE17QCRDCFSDBKG8P9CTP5PPOHST", "dateTime": 1519073019719}, {"current_trial": 179, "trialdata": {"rt": -1, "trial_type": "single-stim", "stimulus": "<p id=\"stim\">5</p>", "internal_node_id": "0.0-129.0-5.0", "time_elapsed": 988089, "key_press": -1, "trial_index": 179}, "uniqueid": "MTK2567:3EFE17QCRDCFSDBKG8P9CTP5PPOHST", "dateTime": 1519073020721}, {"current_trial": 180, "trialdata": {"rt": -1, "trial_type": "single-stim", "stimulus": "<p id=\"stim\">4</p>", "internal_node_id": "0.0-129.0-6.0", "time_elapsed": 989092, "key_press": -1, "trial_index": 180}, "uniqueid": "MTK2567:3EFE17QCRDCFSDBKG8P9CTP5PPOHST", "dateTime": 1519073021723}, {"current_trial": 181, "trialdata": {"rt": -1, "trial_type": "single-stim", "stimulus": "<p id=\"stim\">3</p>", "internal_node_id": "0.0-129.0-7.0", "time_elapsed": 990093, "key_press": -1, "trial_index": 181}, "uniqueid": "MTK2567:3EFE17QCRDCFSDBKG8P9CTP5PPOHST", "dateTime": 1519073022725}, {"current_trial": 182, "trialdata": {"rt": -1, "trial_type": "single-stim", "stimulus": "<p id=\"stim\">2</p>", "internal_node_id": "0.0-129.0-8.0", "time_elapsed": 991095, "key_press": -1, "trial_index": 182}, "uniqueid": "MTK2567:3EFE17QCRDCFSDBKG8P9CTP5PPOHST", "dateTime": 1519073023726}, {"current_trial": 183, "trialdata": {"rt": -1, "trial_type": "single-stim", "stimulus": "<p id=\"stim\">1</p>", "internal_node_id": "0.0-129.0-9.0", "time_elapsed": 992097, "key_press": -1, "trial_index": 183}, "uniqueid": "MTK2567:3EFE17QCRDCFSDBKG8P9CTP5PPOHST", "dateTime": 1519073024728}, {"current_trial": 184, "trialdata": {"rt": -1, "trial_type": "single-stim", "stimulus": "<p id=\"stim\">+</p>", "internal_node_id": "0.0-130.0-0.0", "time_elapsed": 993599, "key_press": -1, "type": "FIXATION", "trial_index": 184}, "uniqueid": "MTK2567:3EFE17QCRDCFSDBKG8P9CTP5PPOHST", "dateTime": 1519073026230}, {"current_trial": 185, "trialdata": {"rt": -1000, "trial_type": "single-audio", "word": "thief", "stimulus": "/static/audio/wordpool/THIEF.wav", "conditions": [12, 800, "a", 12000], "internal_node_id": "0.0-131.0", "trial": 5, "time_elapsed": 995572, "serialpos": 0, "key_press": -1, "wordID": 1455, "type": "PRES_AUD", "trial_index": 185}, "uniqueid": "MTK2567:3EFE17QCRDCFSDBKG8P9CTP5PPOHST", "dateTime": 1519073028203}, {"current_trial": 186, "trialdata": {"rt": -1000, "trial_type": "single-audio", "word": "stove", "stimulus": "/static/audio/wordpool/STOVE.wav", "conditions": [12, 800, "a", 12000], "internal_node_id": "0.0-132.0", "trial": 5, "time_elapsed": 997251, "serialpos": 1, "key_press": -1, "wordID": 1387, "type": "PRES_AUD", "trial_index": 186}, "uniqueid": "MTK2567:3EFE17QCRDCFSDBKG8P9CTP5PPOHST", "dateTime": 1519073029882}, {"current_trial": 187, "trialdata": {"rt": -1000, "trial_type": "single-audio", "word": "onion", "stimulus": "/static/audio/wordpool/ONION.wav", "conditions": [12, 800, "a", 12000], "internal_node_id": "0.0-133.0", "trial": 5, "time_elapsed": 999107, "serialpos": 2, "key_press": -1, "wordID": 976, "type": "PRES_AUD", "trial_index": 187}, "uniqueid": "MTK2567:3EFE17QCRDCFSDBKG8P9CTP5PPOHST", "dateTime": 1519073031738}, {"current_trial": 188, "trialdata": {"rt": -1000, "trial_type": "single-audio", "word": "garlic", "stimulus": "/static/audio/wordpool/GARLIC.wav", "conditions": [12, 800, "a", 12000], "internal_node_id": "0.0-134.0", "trial": 5, "time_elapsed": 1000930, "serialpos": 3, "key_press": -1, "wordID": 623, "type": "PRES_AUD", "trial_index": 188}, "uniqueid": "MTK2567:3EFE17QCRDCFSDBKG8P9CTP5PPOHST", "dateTime": 1519073033561}, {"current_trial": 189, "trialdata": {"rt": -1000, "trial_type": "single-audio", "word": "carriage", "stimulus": "/static/audio/wordpool/CARRIAGE.wav", "conditions": [12, 800, "a", 12000], "internal_node_id": "0.0-135.0", "trial": 5, "time_elapsed": 1002568, "serialpos": 4, "key_press": -1, "wordID": 247, "type": "PRES_AUD", "trial_index": 189}, "uniqueid": "MTK2567:3EFE17QCRDCFSDBKG8P9CTP5PPOHST", "dateTime": 1519073035200}, {"current_trial": 190, "trialdata": {"rt": -1000, "trial_type": "single-audio", "word": "burglar", "stimulus": "/static/audio/wordpool/BURGLAR.wav", "conditions": [12, 800, "a", 12000], "internal_node_id": "0.0-136.0", "trial": 5, "time_elapsed": 1004552, "serialpos": 5, "key_press": -1, "wordID": 199, "type": "PRES_AUD", "trial_index": 190}, "uniqueid": "MTK2567:3EFE17QCRDCFSDBKG8P9CTP5PPOHST", "dateTime": 1519073037185}, {"current_trial": 191, "trialdata": {"rt": -1000, "trial_type": "single-audio", "word": "police", "stimulus": "/static/audio/wordpool/POLICE.wav", "conditions": [12, 800, "a", 12000], "internal_node_id": "0.0-137.0", "trial": 5, "time_elapsed": 1006243, "serialpos": 6, "key_press": -1, "wordID": 1097, "type": "PRES_AUD", "trial_index": 191}, "uniqueid": "MTK2567:3EFE17QCRDCFSDBKG8P9CTP5PPOHST", "dateTime": 1519073038874}, {"current_trial": 192, "trialdata": {"rt": -1000, "trial_type": "single-audio", "word": "knapsack", "stimulus": "/static/audio/wordpool/KNAPSACK.wav", "conditions": [12, 800, "a", 12000], "internal_node_id": "0.0-138.0", "trial": 5, "time_elapsed": 1008049, "serialpos": 7, "key_press": -1, "wordID": 782, "type": "PRES_AUD", "trial_index": 192}, "uniqueid": "MTK2567:3EFE17QCRDCFSDBKG8P9CTP5PPOHST", "dateTime": 1519073040680}, {"current_trial": 193, "trialdata": {"rt": -1000, "trial_type": "single-audio", "word": "airplane", "stimulus": "/static/audio/wordpool/AIRPLANE.wav", "conditions": [12, 800, "a", 12000], "internal_node_id": "0.0-139.0", "trial": 5, "time_elapsed": 1009787, "serialpos": 8, "key_press": -1, "wordID": 11, "type": "PRES_AUD", "trial_index": 193}, "uniqueid": "MTK2567:3EFE17QCRDCFSDBKG8P9CTP5PPOHST", "dateTime": 1519073042419}, {"current_trial": 194, "trialdata": {"rt": -1000, "trial_type": "single-audio", "word": "citrus", "stimulus": "/static/audio/wordpool/CITRUS.wav", "conditions": [12, 800, "a", 12000], "internal_node_id": "0.0-140.0", "trial": 5, "time_elapsed": 1011716, "serialpos": 9, "key_press": -1, "wordID": 312, "type": "PRES_AUD", "trial_index": 194}, "uniqueid": "MTK2567:3EFE17QCRDCFSDBKG8P9CTP5PPOHST", "dateTime": 1519073044348}, {"current_trial": 195, "trialdata": {"rt": -1000, "trial_type": "single-audio", "word": "dentist", "stimulus": "/static/audio/wordpool/DENTIST.wav", "conditions": [12, 800, "a", 12000], "internal_node_id": "0.0-141.0", "trial": 5, "time_elapsed": 1013608, "serialpos": 10, "key_press": -1, "wordID": 446, "type": "PRES_AUD", "trial_index": 195}, "uniqueid": "MTK2567:3EFE17QCRDCFSDBKG8P9CTP5PPOHST", "dateTime": 1519073046239}, {"current_trial": 196, "trialdata": {"rt": -1000, "trial_type": "single-audio", "word": "antler", "stimulus": "/static/audio/wordpool/ANTLER.wav", "conditions": [12, 800, "a", 12000], "internal_node_id": "0.0-142.0", "trial": 5, "time_elapsed": 1015455, "serialpos": 11, "key_press": -1, "wordID": 28, "type": "PRES_AUD", "trial_index": 196}, "uniqueid": "MTK2567:3EFE17QCRDCFSDBKG8P9CTP5PPOHST", "dateTime": 1519073048086}, {"current_trial": 197, "trialdata": {"rt": -1, "trial_type": "single-stim", "stimulus": "", "internal_node_id": "0.0-143.0-0.0", "time_elapsed": 1016703, "key_press": -1, "type": "PRE_RECALL_DELAY", "trial_index": 197}, "uniqueid": "MTK2567:3EFE17QCRDCFSDBKG8P9CTP5PPOHST", "dateTime": 1519073049335}, {"current_trial": 198, "trialdata": {"rt": -1000, "trial_type": "single-audio", "stimulus": "/static/audio/400Hz.wav", "internal_node_id": "0.0-144.0", "time_elapsed": 1017206, "key_press": -1, "type": "PRE_RECALL_ALERT", "trial_index": 198}, "uniqueid": "MTK2567:3EFE17QCRDCFSDBKG8P9CTP5PPOHST", "dateTime": 1519073049837}, {"current_trial": 199, "trialdata": {"rt": [5849, 7975, 9925, 12009, 15737, 22848, 26489, 29602, 32988, 35604, 38592, 48219, 50265, 54690, 58694], "recwords": ["antler", "police", "airport", "citrus", "dentist", "theieves", "onion", "garlic", "stove", "carriage", "police", "airplane", "citrus", "antler", "dentist"], "key_times": [4068, 4590, 4890, 5194, 5392, 5565, 5849, 6528, 6766, 6978, 7209, 7380, 7724, 7975, 8386, 8630, 8827, 9058, 9274, 9481, 9703, 9925, 10323, 10600, 10786, 11045, 11286, 11508, 12009, 12276, 12508, 12664, 12843, 13045, 13226, 13460, 14810, 15042, 15737, 19813, 20075, 20334, 20467, 21049, 21347, 21504, 21743, 22848, 25149, 25401, 25626, 25822, 26029, 26489, 27120, 27306, 27500, 27689, 27945, 28113, 29602, 31715, 32089, 32351, 32528, 32738, 32988, 33432, 33612, 33823, 34049, 34548, 34760, 34955, 35147, 35604, 37223, 37468, 37675, 37922, 38058, 38353, 38592, 42692, 43128, 43347, 43488, 43721, 43866, 44042, 44316, 44554, 45693, 45990, 46159, 46430, 46855, 47057, 47246, 47438, 47617, 48219, 48676, 49114, 49298, 49541, 49829, 50034, 50265, 52842, 53221, 53486, 53724, 53938, 54138, 54690, 57077, 57301, 57567, 57734, 57908, 58103, 58336, 58694], "trial_type": "free-recall", "conditions": [12, 800, "a", 12000], "internal_node_id": "0.0-145.0-0.0", "key_presses": [65, 78, 84, 76, 69, 82, 13, 80, 79, 76, 73, 67, 69, 13, 65, 73, 82, 80, 79, 82, 84, 13, 67, 73, 84, 82, 85, 83, 13, 68, 69, 78, 84, 73, 83, 72, 8, 84, 13, 84, 72, 69, 73, 69, 86, 69, 83, 13, 79, 78, 73, 79, 78, 13, 71, 65, 82, 76, 73, 67, 13, 83, 84, 79, 86, 69, 13, 67, 65, 82, 82, 73, 65, 71, 69, 13, 80, 79, 76, 73, 67, 69, 13, 65, 73, 82, 80, 76, 65, 78, 69, 222, 67, 73, 84, 82, 8, 8, 8, 8, 8, 13, 67, 73, 84, 82, 85, 83, 13, 65, 78, 84, 76, 69, 82, 13, 68, 69, 78, 84, 73, 83, 84, 13], "trial": 5, "time_elapsed": 1077211, "type": "FREE_RECALL", "trial_index": 199}, "uniqueid": "MTK2567:3EFE17QCRDCFSDBKG8P9CTP5PPOHST", "dateTime": 1519073109848}, {"current_trial": 200, "trialdata": {"rt": 2666, "trial_type": "text", "internal_node_id": "0.0-146.0", "time_elapsed": 1081886, "key_press": 32, "type": "INSTRUCTIONS", "trial_index": 200}, "uniqueid": "MTK2567:3EFE17QCRDCFSDBKG8P9CTP5PPOHST", "dateTime": 1519073114517}, {"current_trial": 201, "trialdata": {"rt": [3252, 9013], "trial_type": "math-distractor", "key_times": [2144, 2646, 3252, 8467, 8706, 9013, 11774], "responses": ["15", "23"], "num2": [3, 8, 6], "num3": [6, 7, 7], "conditions": [24, 1600, "a", 12000], "internal_node_id": "0.0-147.0", "key_presses": [49, 53, 13, 50, 51, 13, 49], "trial": 6, "time_elapsed": 1095891, "type": "DISTRACTOR", "trial_index": 201, "num1": [6, 8, 6]}, "uniqueid": "MTK2567:3EFE17QCRDCFSDBKG8P9CTP5PPOHST", "dateTime": 1519073128523}, {"current_trial": 202, "trialdata": {"rt": -1, "trial_type": "single-stim", "stimulus": "<p id=\"stim\">10</p>", "internal_node_id": "0.0-148.0-0.0", "time_elapsed": 1098895, "key_press": -1, "trial_index": 202}, "uniqueid": "MTK2567:3EFE17QCRDCFSDBKG8P9CTP5PPOHST", "dateTime": 1519073131527}, {"current_trial": 203, "trialdata": {"rt": -1, "trial_type": "single-stim", "stimulus": "<p id=\"stim\">9</p>", "internal_node_id": "0.0-148.0-1.0", "time_elapsed": 1099897, "key_press": -1, "trial_index": 203}, "uniqueid": "MTK2567:3EFE17QCRDCFSDBKG8P9CTP5PPOHST", "dateTime": 1519073132528}, {"current_trial": 204, "trialdata": {"rt": -1, "trial_type": "single-stim", "stimulus": "<p id=\"stim\">8</p>", "internal_node_id": "0.0-148.0-2.0", "time_elapsed": 1100898, "key_press": -1, "trial_index": 204}, "uniqueid": "MTK2567:3EFE17QCRDCFSDBKG8P9CTP5PPOHST", "dateTime": 1519073133530}, {"current_trial": 205, "trialdata": {"rt": -1, "trial_type": "single-stim", "stimulus": "<p id=\"stim\">7</p>", "internal_node_id": "0.0-148.0-3.0", "time_elapsed": 1101900, "key_press": -1, "trial_index": 205}, "uniqueid": "MTK2567:3EFE17QCRDCFSDBKG8P9CTP5PPOHST", "dateTime": 1519073134532}, {"current_trial": 206, "trialdata": {"rt": -1, "trial_type": "single-stim", "stimulus": "<p id=\"stim\">6</p>", "internal_node_id": "0.0-148.0-4.0", "time_elapsed": 1102904, "key_press": -1, "trial_index": 206}, "uniqueid": "MTK2567:3EFE17QCRDCFSDBKG8P9CTP5PPOHST", "dateTime": 1519073135535}, {"current_trial": 207, "trialdata": {"rt": -1, "trial_type": "single-stim", "stimulus": "<p id=\"stim\">5</p>", "internal_node_id": "0.0-148.0-5.0", "time_elapsed": 1103906, "key_press": -1, "trial_index": 207}, "uniqueid": "MTK2567:3EFE17QCRDCFSDBKG8P9CTP5PPOHST", "dateTime": 1519073136537}, {"current_trial": 208, "trialdata": {"rt": -1, "trial_type": "single-stim", "stimulus": "<p id=\"stim\">4</p>", "internal_node_id": "0.0-148.0-6.0", "time_elapsed": 1104908, "key_press": -1, "trial_index": 208}, "uniqueid": "MTK2567:3EFE17QCRDCFSDBKG8P9CTP5PPOHST", "dateTime": 1519073137539}, {"current_trial": 209, "trialdata": {"rt": -1, "trial_type": "single-stim", "stimulus": "<p id=\"stim\">3</p>", "internal_node_id": "0.0-148.0-7.0", "time_elapsed": 1105909, "key_press": -1, "trial_index": 209}, "uniqueid": "MTK2567:3EFE17QCRDCFSDBKG8P9CTP5PPOHST", "dateTime": 1519073138540}, {"current_trial": 210, "trialdata": {"rt": -1, "trial_type": "single-stim", "stimulus": "<p id=\"stim\">2</p>", "internal_node_id": "0.0-148.0-8.0", "time_elapsed": 1106911, "key_press": -1, "trial_index": 210}, "uniqueid": "MTK2567:3EFE17QCRDCFSDBKG8P9CTP5PPOHST", "dateTime": 1519073139542}, {"current_trial": 211, "trialdata": {"rt": -1, "trial_type": "single-stim", "stimulus": "<p id=\"stim\">1</p>", "internal_node_id": "0.0-148.0-9.0", "time_elapsed": 1107912, "key_press": -1, "trial_index": 211}, "uniqueid": "MTK2567:3EFE17QCRDCFSDBKG8P9CTP5PPOHST", "dateTime": 1519073140543}, {"current_trial": 212, "trialdata": {"rt": -1, "trial_type": "single-stim", "stimulus": "<p id=\"stim\">+</p>", "internal_node_id": "0.0-149.0-0.0", "time_elapsed": 1109414, "key_press": -1, "type": "FIXATION", "trial_index": 212}, "uniqueid": "MTK2567:3EFE17QCRDCFSDBKG8P9CTP5PPOHST", "dateTime": 1519073142045}, {"current_trial": 213, "trialdata": {"rt": -1000, "trial_type": "single-audio", "word": "yarn", "stimulus": "/static/audio/wordpool/YARN.wav", "conditions": [24, 1600, "a", 12000], "internal_node_id": "0.0-150.0", "trial": 6, "time_elapsed": 1112069, "serialpos": 0, "key_press": -1, "wordID": 1630, "type": "PRES_AUD", "trial_index": 213}, "uniqueid": "MTK2567:3EFE17QCRDCFSDBKG8P9CTP5PPOHST", "dateTime": 1519073144700}, {"current_trial": 214, "trialdata": {"rt": -1000, "trial_type": "single-audio", "word": "peach", "stimulus": "/static/audio/wordpool/PEACH.wav", "conditions": [24, 1600, "a", 12000], "internal_node_id": "0.0-151.0", "trial": 6, "time_elapsed": 1114781, "serialpos": 1, "key_press": -1, "wordID": 1030, "type": "PRES_AUD", "trial_index": 214}, "uniqueid": "MTK2567:3EFE17QCRDCFSDBKG8P9CTP5PPOHST", "dateTime": 1519073147412}, {"current_trial": 215, "trialdata": {"rt": -1000, "trial_type": "single-audio", "word": "award", "stimulus": "/static/audio/wordpool/AWARD.wav", "conditions": [24, 1600, "a", 12000], "internal_node_id": "0.0-152.0", "trial": 6, "time_elapsed": 1117185, "serialpos": 2, "key_press": -1, "wordID": 62, "type": "PRES_AUD", "trial_index": 215}, "uniqueid": "MTK2567:3EFE17QCRDCFSDBKG8P9CTP5PPOHST", "dateTime": 1519073149816}, {"current_trial": 216, "trialdata": {"rt": -1000, "trial_type": "single-audio", "word": "luggage", "stimulus": "/static/audio/wordpool/LUGGAGE.wav", "conditions": [24, 1600, "a", 12000], "internal_node_id": "0.0-153.0", "trial": 6, "time_elapsed": 1119980, "serialpos": 3, "key_press": -1, "wordID": 846, "type": "PRES_AUD", "trial_index": 216}, "uniqueid": "MTK2567:3EFE17QCRDCFSDBKG8P9CTP5PPOHST", "dateTime": 1519073152611}, {"current_trial": 217, "trialdata": {"rt": -1000, "trial_type": "single-audio", "word": "hornet", "stimulus": "/static/audio/wordpool/HORNET.wav", "conditions": [24, 1600, "a", 12000], "internal_node_id": "0.0-154.0", "trial": 6, "time_elapsed": 1122733, "serialpos": 4, "key_press": -1, "wordID": 717, "type": "PRES_AUD", "trial_index": 217}, "uniqueid": "MTK2567:3EFE17QCRDCFSDBKG8P9CTP5PPOHST", "dateTime": 1519073155364}, {"current_trial": 218, "trialdata": {"rt": -1000, "trial_type": "single-audio", "word": "cupboard", "stimulus": "/static/audio/wordpool/CUPBOARD.wav", "conditions": [24, 1600, "a", 12000], "internal_node_id": "0.0-155.0", "trial": 6, "time_elapsed": 1125333, "serialpos": 5, "key_press": -1, "wordID": 424, "type": "PRES_AUD", "trial_index": 218}, "uniqueid": "MTK2567:3EFE17QCRDCFSDBKG8P9CTP5PPOHST", "dateTime": 1519073157964}, {"current_trial": 219, "trialdata": {"rt": -1000, "trial_type": "single-audio", "word": "flower", "stimulus": "/static/audio/wordpool/FLOWER.wav", "conditions": [24, 1600, "a", 12000], "internal_node_id": "0.0-156.0", "trial": 6, "time_elapsed": 1127766, "serialpos": 6, "key_press": -1, "wordID": 583, "type": "PRES_AUD", "trial_index": 219}, "uniqueid": "MTK2567:3EFE17QCRDCFSDBKG8P9CTP5PPOHST", "dateTime": 1519073160397}, {"current_trial": 220, "trialdata": {"rt": -1000, "trial_type": "single-audio", "word": "college", "stimulus": "/static/audio/wordpool/COLLEGE.wav", "conditions": [24, 1600, "a", 12000], "internal_node_id": "0.0-157.0", "trial": 6, "time_elapsed": 1130390, "serialpos": 7, "key_press": -1, "wordID": 345, "type": "PRES_AUD", "trial_index": 220}, "uniqueid": "MTK2567:3EFE17QCRDCFSDBKG8P9CTP5PPOHST", "dateTime": 1519073163021}, {"current_trial": 221, "trialdata": {"rt": -1000, "trial_type": "single-audio", "word": "student", "stimulus": "/static/audio/wordpool/STUDENT.wav", "conditions": [24, 1600, "a", 12000], "internal_node_id": "0.0-158.0", "trial": 6, "time_elapsed": 1132821, "serialpos": 8, "key_press": -1, "wordID": 1394, "type": "PRES_AUD", "trial_index": 221}, "uniqueid": "MTK2567:3EFE17QCRDCFSDBKG8P9CTP5PPOHST", "dateTime": 1519073165452}, {"current_trial": 222, "trialdata": {"rt": -1000, "trial_type": "single-audio", "word": "france", "stimulus": "/static/audio/wordpool/FRANCE.wav", "conditions": [24, 1600, "a", 12000], "internal_node_id": "0.0-159.0", "trial": 6, "time_elapsed": 1135294, "serialpos": 9, "key_press": -1, "wordID": 600, "type": "PRES_AUD", "trial_index": 222}, "uniqueid": "MTK2567:3EFE17QCRDCFSDBKG8P9CTP5PPOHST", "dateTime": 1519073167925}, {"current_trial": 223, "trialdata": {"rt": -1000, "trial_type": "single-audio", "word": "shrub", "stimulus": "/static/audio/wordpool/SHRUB.wav", "conditions": [24, 1600, "a", 12000], "internal_node_id": "0.0-160.0", "trial": 6, "time_elapsed": 1137953, "serialpos": 10, "key_press": -1, "wordID": 1298, "type": "PRES_AUD", "trial_index": 223}, "uniqueid": "MTK2567:3EFE17QCRDCFSDBKG8P9CTP5PPOHST", "dateTime": 1519073170585}, {"current_trial": 224, "trialdata": {"rt": -1000, "trial_type": "single-audio", "word": "london", "stimulus": "/static/audio/wordpool/LONDON.wav", "conditions": [24, 1600, "a", 12000], "internal_node_id": "0.0-161.0", "trial": 6, "time_elapsed": 1140663, "serialpos": 11, "key_press": -1, "wordID": 842, "type": "PRES_AUD", "trial_index": 224}, "uniqueid": "MTK2567:3EFE17QCRDCFSDBKG8P9CTP5PPOHST", "dateTime": 1519073173294}, {"current_trial": 225, "trialdata": {"rt": -1000, "trial_type": "single-audio", "word": "wife", "stimulus": "/static/audio/wordpool/WIFE.wav", "conditions": [24, 1600, "a", 12000], "internal_node_id": "0.0-162.0", "trial": 6, "time_elapsed": 1143186, "serialpos": 12, "key_press": -1, "wordID": 1608, "type": "PRES_AUD", "trial_index": 225}, "uniqueid": "MTK2567:3EFE17QCRDCFSDBKG8P9CTP5PPOHST", "dateTime": 1519073175817}, {"current_trial": 226, "trialdata": {"rt": -1000, "trial_type": "single-audio", "word": "thread", "stimulus": "/static/audio/wordpool/THREAD.wav", "conditions": [24, 1600, "a", 12000], "internal_node_id": "0.0-163.0", "trial": 6, "time_elapsed": 1145850, "serialpos": 13, "key_press": -1, "wordID": 1459, "type": "PRES_AUD", "trial_index": 226}, "uniqueid": "MTK2567:3EFE17QCRDCFSDBKG8P9CTP5PPOHST", "dateTime": 1519073178481}, {"current_trial": 227, "trialdata": {"rt": -1000, "trial_type": "single-audio", "word": "snack", "stimulus": "/static/audio/wordpool/SNACK.wav", "conditions": [24, 1600, "a", 12000], "internal_node_id": "0.0-164.0", "trial": 6, "time_elapsed": 1148390, "serialpos": 14, "key_press": -1, "wordID": 1330, "type": "PRES_AUD", "trial_index": 227}, "uniqueid": "MTK2567:3EFE17QCRDCFSDBKG8P9CTP5PPOHST", "dateTime": 1519073181021}, {"current_trial": 228, "trialdata": {"rt": -1000, "trial_type": "single-audio", "word": "hostess", "stimulus": "/static/audio/wordpool/HOSTESS.wav", "conditions": [24, 1600, "a", 12000], "internal_node_id": "0.0-165.0", "trial": 6, "time_elapsed": 1151140, "serialpos": 15, "key_press": -1, "wordID": 722, "type": "PRES_AUD", "trial_index": 228}, "uniqueid": "MTK2567:3EFE17QCRDCFSDBKG8P9CTP5PPOHST", "dateTime": 1519073183771}, {"current_trial": 229, "trialdata": {"rt": -1000, "trial_type": "single-audio", "word": "statue", "stimulus": "/static/audio/wordpool/STATUE.wav", "conditions": [24, 1600, "a", 12000], "internal_node_id": "0.0-166.0", "trial": 6, "time_elapsed": 1153543, "serialpos": 16, "key_press": -1, "wordID": 1373, "type": "PRES_AUD", "trial_index": 229}, "uniqueid": "MTK2567:3EFE17QCRDCFSDBKG8P9CTP5PPOHST", "dateTime": 1519073186174}, {"current_trial": 230, "trialdata": {"rt": -1000, "trial_type": "single-audio", "word": "tombstone", "stimulus": "/static/audio/wordpool/TOMBSTONE.wav", "conditions": [24, 1600, "a", 12000], "internal_node_id": "0.0-167.0", "trial": 6, "time_elapsed": 1156116, "serialpos": 17, "key_press": -1, "wordID": 1477, "type": "PRES_AUD", "trial_index": 230}, "uniqueid": "MTK2567:3EFE17QCRDCFSDBKG8P9CTP5PPOHST", "dateTime": 1519073188747}, {"current_trial": 231, "trialdata": {"rt": -1000, "trial_type": "single-audio", "word": "stamp", "stimulus": "/static/audio/wordpool/STAMP.wav", "conditions": [24, 1600, "a", 12000], "internal_node_id": "0.0-168.0", "trial": 6, "time_elapsed": 1158766, "serialpos": 18, "key_press": -1, "wordID": 1369, "type": "PRES_AUD", "trial_index": 231}, "uniqueid": "MTK2567:3EFE17QCRDCFSDBKG8P9CTP5PPOHST", "dateTime": 1519073191397}, {"current_trial": 232, "trialdata": {"rt": -1000, "trial_type": "single-audio", "word": "plaid", "stimulus": "/static/audio/wordpool/PLAID.wav", "conditions": [24, 1600, "a", 12000], "internal_node_id": "0.0-169.0", "trial": 6, "time_elapsed": 1161555, "serialpos": 19, "key_press": -1, "wordID": 1079, "type": "PRES_AUD", "trial_index": 232}, "uniqueid": "MTK2567:3EFE17QCRDCFSDBKG8P9CTP5PPOHST", "dateTime": 1519073194186}, {"current_trial": 233, "trialdata": {"rt": -1000, "trial_type": "single-audio", "word": "zipper", "stimulus": "/static/audio/wordpool/ZIPPER.wav", "conditions": [24, 1600, "a", 12000], "internal_node_id": "0.0-170.0", "trial": 6, "time_elapsed": 1164205, "serialpos": 20, "key_press": -1, "wordID": 1635, "type": "PRES_AUD", "trial_index": 233}, "uniqueid": "MTK2567:3EFE17QCRDCFSDBKG8P9CTP5PPOHST", "dateTime": 1519073196836}, {"current_trial": 234, "trialdata": {"rt": -1000, "trial_type": "single-audio", "word": "hiker", "stimulus": "/static/audio/wordpool/HIKER.wav", "conditions": [24, 1600, "a", 12000], "internal_node_id": "0.0-171.0", "trial": 6, "time_elapsed": 1166881, "serialpos": 21, "key_press": -1, "wordID": 707, "type": "PRES_AUD", "trial_index": 234}, "uniqueid": "MTK2567:3EFE17QCRDCFSDBKG8P9CTP5PPOHST", "dateTime": 1519073199512}, {"current_trial": 235, "trialdata": {"rt": -1000, "trial_type": "single-audio", "word": "sandwich", "stimulus": "/static/audio/wordpool/SANDWICH.wav", "conditions": [24, 1600, "a", 12000], "internal_node_id": "0.0-172.0", "trial": 6, "time_elapsed": 1169396, "serialpos": 22, "key_press": -1, "wordID": 1231, "type": "PRES_AUD", "trial_index": 235}, "uniqueid": "MTK2567:3EFE17QCRDCFSDBKG8P9CTP5PPOHST", "dateTime": 1519073202027}, {"current_trial": 236, "trialdata": {"rt": -1000, "trial_type": "single-audio", "word": "permit", "stimulus": "/static/audio/wordpool/PERMIT.wav", "conditions": [24, 1600, "a", 12000], "internal_node_id": "0.0-173.0", "trial": 6, "time_elapsed": 1172177, "serialpos": 23, "key_press": -1, "wordID": 1050, "type": "PRES_AUD", "trial_index": 236}, "uniqueid": "MTK2567:3EFE17QCRDCFSDBKG8P9CTP5PPOHST", "dateTime": 1519073204808}, {"current_trial": 237, "trialdata": {"rt": -1, "trial_type": "single-stim", "stimulus": "", "internal_node_id": "0.0-174.0-0.0", "time_elapsed": 1173551, "key_press": -1, "type": "PRE_RECALL_DELAY", "trial_index": 237}, "uniqueid": "MTK2567:3EFE17QCRDCFSDBKG8P9CTP5PPOHST", "dateTime": 1519073206182}, {"current_trial": 238, "trialdata": {"rt": -1000, "trial_type": "single-audio", "stimulus": "/static/audio/400Hz.wav", "internal_node_id": "0.0-175.0", "time_elapsed": 1174053, "key_press": -1, "type": "PRE_RECALL_ALERT", "trial_index": 238}, "uniqueid": "MTK2567:3EFE17QCRDCFSDBKG8P9CTP5PPOHST", "dateTime": 1519073206684}, {"current_trial": 239, "trialdata": {"rt": [4863, 5417, 8404, 10636, 14006, 16866, 20894, 28243, 30157, 34053, 36723, 38728, 44139, 46394, 50432, 53669, 55088, 58665], "recwords": ["yarn", "", "peach", "award", "permit", "sandwich", "hiker", "peach", "award", "luggage", "college", "student", "london", "france", "statje", "stamp", "flag", "zipper"], "key_times": [3888, 4018, 4196, 4658, 4863, 5417, 6144, 6283, 6380, 6630, 7724, 8404, 9219, 9456, 9661, 9786, 10075, 10636, 12099, 12230, 12380, 12676, 12939, 13147, 14006, 14524, 14692, 14909, 15124, 15442, 15646, 16354, 16549, 16866, 19118, 19382, 19654, 19844, 20017, 20894, 26936, 27066, 27187, 27465, 27628, 28243, 28844, 29043, 29250, 29345, 29639, 30157, 31890, 32220, 32495, 32712, 32851, 33114, 33287, 34053, 34405, 34612, 34844, 35017, 35137, 35413, 35589, 36723, 37124, 37432, 37684, 37836, 38100, 38252, 38453, 38728, 42315, 42514, 42718, 43295, 43475, 43702, 44139, 44611, 44843, 45409, 45630, 45857, 46104, 46394, 48943, 49137, 49375, 49515, 49780, 50020, 50432, 52028, 52227, 52416, 52806, 53276, 53669, 54213, 54360, 54526, 54726, 55088, 57175, 57615, 57893, 58085, 58141, 58296, 58665, 59512, 59724], "trial_type": "free-recall", "conditions": [24, 1600, "a", 12000], "internal_node_id": "0.0-176.0-0.0", "key_presses": [89, 65, 82, 78, 32, 13, 80, 69, 65, 67, 72, 32, 65, 87, 65, 82, 68, 13, 80, 69, 82, 77, 73, 84, 13, 83, 65, 78, 68, 87, 73, 67, 72, 32, 72, 73, 75, 69, 82, 32, 80, 69, 65, 67, 72, 13, 65, 87, 65, 82, 68, 13, 76, 85, 71, 71, 65, 71, 69, 13, 67, 79, 76, 76, 69, 71, 69, 32, 83, 84, 85, 68, 69, 78, 84, 32, 76, 79, 78, 68, 79, 78, 32, 70, 82, 65, 78, 67, 69, 32, 83, 84, 65, 84, 74, 69, 32, 83, 84, 65, 77, 80, 32, 70, 76, 65, 71, 32, 90, 73, 80, 80, 69, 82, 32, 72, 73], "trial": 6, "time_elapsed": 1234058, "type": "FREE_RECALL", "trial_index": 239}, "uniqueid": "MTK2567:3EFE17QCRDCFSDBKG8P9CTP5PPOHST", "dateTime": 1519073266697}, {"current_trial": 240, "trialdata": {"rt": 1622, "trial_type": "text", "internal_n