{"assignmentId": "3YDTZAI2WYNLMHOVOIQ6M3TSVYQ414", "workerId": "MTK2940", "questiondata": {"origin": "United States", "strat-rehearsal": "30", "marital": "Married/Domestic Partnership", "education": "Some college", "ethnicity": "Not Hispanic", "color_depth": 24, "distracted": "No", "wrote-notes": "No", "strat-other": "", "screen_width": 1920, "avail_screen_width": 1920, "avail_screen_height": 1004, "strat-image": "1", "language": "English", "gender": "Female", "age": "52", "gender_other": "", "race": ["Asian"], "strat-categorize": "5", "pixel_depth": 24, "strat-spatial": "2", "strat-story": "1", "race_other": "", "screen_height": 1080}, "bonus": 0, "hitId": "3ZICQFRS31PWXQZYRKKMJ9UTOWSZZ2", "counterbalance": 859, "useragent": "Mozilla/5.0 (Macintosh; Intel Mac OS X 10_13_3) AppleWebKit/537.36 (KHTML, like Gecko) Chrome/64.0.3282.167 Safari/537.36", "eventdata": [{"eventtype": "initialized", "interval": 0, "value": null, "timestamp": 1519593375574}, {"eventtype": "window_resize", "interval": 0, "value": [1920, 953], "timestamp": 1519593375574}, {"eventtype": "focus", "interval": 2661, "value": "off", "timestamp": 1519593378235}, {"eventtype": "focus", "interval": 1158, "value": "on", "timestamp": 1519593379393}, {"eventtype": "focus", "interval": 15268, "value": "off", "timestamp": 1519593394661}, {"eventtype": "focus", "interval": 170, "value": "on", "timestamp": 1519593394831}, {"eventtype": "focus", "interval": 217678, "value": "off", "timestamp": 1519593612509}, {"eventtype": "focus", "interval": 3722, "value": "on", "timestamp": 1519593616231}, {"eventtype": "focus", "interval": 136979, "value": "off", "timestamp": 1519593753210}, {"eventtype": "focus", "interval": 3963, "value": "on", "timestamp": 1519593757173}, {"eventtype": "focus", "interval": 158442, "value": "off", "timestamp": 1519593915615}, {"eventtype": "focus", "interval": 1613, "value": "on", "timestamp": 1519593917228}, {"eventtype": "focus", "interval": 548697, "value": "off", "timestamp": 1519594465925}, {"eventtype": "focus", "interval": 16611, "value": "on", "timestamp": 1519594482536}, {"eventtype": "focus", "interval": 124267, "value": "off", "timestamp": 1519594606803}, {"eventtype": "focus", "interval": 3740, "value": "on", "timestamp": 1519594610543}, {"eventtype": "focus", "interval": 490317, "value": "off", "timestamp": 1519595100860}, {"eventtype": "focus", "interval": 1943, "value": "on", "timestamp": 1519595102803}, {"eventtype": "focus", "interval": 341101, "value": "off", "timestamp": 1519595443904}, {"eventtype": "focus", "interval": 3373, "value": "on", "timestamp": 1519595447277}, {"eventtype": "focus", "interval": 441072, "value": "off", "timestamp": 1519595888349}, {"eventtype": "focus", "interval": 1597614, "value": "on", "timestamp": 1519597485963}, {"eventtype": "focus", "interval": 110685, "value": "off", "timestamp": 1519597596648}, {"eventtype": "focus", "interval": 2619, "value": "on", "timestamp": 1519597599267}], "data": [{"current_trial": 0, "trialdata": {"rt": 178, "trial_type": "text", "internal_node_id": "0.0-0.0", "time_elapsed": 181, "key_press": 91, "type": "INSTRUCTIONS", "trial_index": 0}, "uniqueid": "MTK2940:3YDTZAI2WYNLMHOVOIQ6M3TSVYQ414", "dateTime": 1519593376752}, {"current_trial": 1, "trialdata": {"rt": 15669, "trial_type": "text", "internal_node_id": "0.0-1.0", "time_elapsed": 15854, "key_press": 32, "type": "INSTRUCTIONS", "trial_index": 1}, "uniqueid": "MTK2940:3YDTZAI2WYNLMHOVOIQ6M3TSVYQ414", "dateTime": 1519593392424}, {"current_trial": 2, "trialdata": {"rt": [244, 7402], "trial_type": "audio-test", "responses": ["", "ocean"], "internal_node_id": "0.0-2.0", "time_elapsed": 23271, "type": "AUDIO_TEST", "trial_index": 2}, "uniqueid": "MTK2940:3YDTZAI2WYNLMHOVOIQ6M3TSVYQ414", "dateTime": 1519593399841}, {"current_trial": 3, "trialdata": {"rt": [6178], "trial_type": "audio-test", "responses": ["crystal"], "internal_node_id": "0.0-3.0", "time_elapsed": 29454, "type": "AUDIO_TEST", "trial_index": 3}, "uniqueid": "MTK2940:3YDTZAI2WYNLMHOVOIQ6M3TSVYQ414", "dateTime": 1519593406024}, {"current_trial": 4, "trialdata": {"rt": [5340], "trial_type": "audio-test", "responses": ["spice"], "internal_node_id": "0.0-4.0", "time_elapsed": 34799, "type": "AUDIO_TEST", "trial_index": 4}, "uniqueid": "MTK2940:3YDTZAI2WYNLMHOVOIQ6M3TSVYQ414", "dateTime": 1519593411369}, {"current_trial": 5, "trialdata": {"rt": 25006, "trial_type": "survey-text", "responses": "{\"Q0\":\"12:00\",\"Q1\":\"7:45\",\"Q2\":\"4\"}", "internal_node_id": "0.0-5.0", "time_elapsed": 60561, "type": "SLEEP_SURVEY", "trial_index": 5}, "uniqueid": "MTK2940:3YDTZAI2WYNLMHOVOIQ6M3TSVYQ414", "dateTime": 1519593437131}, {"current_trial": 6, "trialdata": {"rt": 21385, "trial_type": "text", "internal_node_id": "0.0-6.0", "time_elapsed": 82951, "key_press": 32, "type": "INSTRUCTIONS", "trial_index": 6}, "uniqueid": "MTK2940:3YDTZAI2WYNLMHOVOIQ6M3TSVYQ414", "dateTime": 1519593459521}, {"current_trial": 7, "trialdata": {"rt": 14881, "trial_type": "text", "internal_node_id": "0.0-7.0", "time_elapsed": 98335, "key_press": 32, "type": "INSTRUCTIONS", "trial_index": 7}, "uniqueid": "MTK2940:3YDTZAI2WYNLMHOVOIQ6M3TSVYQ414", "dateTime": 1519593474905}, {"current_trial": 8, "trialdata": {"rt": 9350, "trial_type": "text", "internal_node_id": "0.0-8.0", "time_elapsed": 108190, "key_press": 32, "type": "INSTRUCTIONS", "trial_index": 8}, "uniqueid": "MTK2940:3YDTZAI2WYNLMHOVOIQ6M3TSVYQ414", "dateTime": 1519593484760}, {"current_trial": 9, "trialdata": {"rt": [2945, 5290, 8458, 11362, 13698, 17026], "trial_type": "math-distractor", "key_times": [2275, 2513, 2945, 4690, 4939, 5290, 7897, 8155, 8458, 10809, 11026, 11362, 13090, 13347, 13698, 16442, 16754, 17026], "responses": ["17", "17", "13", "15", "17", "15"], "num2": [3, 7, 1, 2, 4, 1, 9], "num3": [9, 5, 9, 4, 6, 6, 5], "conditions": [18, 1200, "v", 18000], "internal_node_id": "0.0-9.0", "key_presses": [49, 55, 13, 49, 55, 13, 49, 51, 13, 49, 53, 13, 49, 55, 13, 49, 53, 13], "trial": 0, "time_elapsed": 127206, "type": "DISTRACTOR", "trial_index": 9, "num1": [5, 5, 3, 9, 7, 8, 7]}, "uniqueid": "MTK2940:3YDTZAI2WYNLMHOVOIQ6M3TSVYQ414", "dateTime": 1519593503776}, {"current_trial": 10, "trialdata": {"rt": -1, "trial_type": "single-stim", "stimulus": "<p id=\"stim\">10</p>", "internal_node_id": "0.0-10.0-0.0", "time_elapsed": 130214, "key_press": -1, "trial_index": 10}, "uniqueid": "MTK2940:3YDTZAI2WYNLMHOVOIQ6M3TSVYQ414", "dateTime": 1519593506784}, {"current_trial": 11, "trialdata": {"rt": -1, "trial_type": "single-stim", "stimulus": "<p id=\"stim\">9</p>", "internal_node_id": "0.0-10.0-1.0", "time_elapsed": 131219, "key_press": -1, "trial_index": 11}, "uniqueid": "MTK2940:3YDTZAI2WYNLMHOVOIQ6M3TSVYQ414", "dateTime": 1519593507789}, {"current_trial": 12, "trialdata": {"rt": -1, "trial_type": "single-stim", "stimulus": "<p id=\"stim\">8</p>", "internal_node_id": "0.0-10.0-2.0", "time_elapsed": 132222, "key_press": -1, "trial_index": 12}, "uniqueid": "MTK2940:3YDTZAI2WYNLMHOVOIQ6M3TSVYQ414", "dateTime": 1519593508792}, {"current_trial": 13, "trialdata": {"rt": -1, "trial_type": "single-stim", "stimulus": "<p id=\"stim\">7</p>", "internal_node_id": "0.0-10.0-3.0", "time_elapsed": 133226, "key_press": -1, "trial_index": 13}, "uniqueid": "MTK2940:3YDTZAI2WYNLMHOVOIQ6M3TSVYQ414", "dateTime": 1519593509796}, {"current_trial": 14, "trialdata": {"rt": -1, "trial_type": "single-stim", "stimulus": "<p id=\"stim\">6</p>", "internal_node_id": "0.0-10.0-4.0", "time_elapsed": 134230, "key_press": -1, "trial_index": 14}, "uniqueid": "MTK2940:3YDTZAI2WYNLMHOVOIQ6M3TSVYQ414", "dateTime": 1519593510800}, {"current_trial": 15, "trialdata": {"rt": -1, "trial_type": "single-stim", "stimulus": "<p id=\"stim\">5</p>", "internal_node_id": "0.0-10.0-5.0", "time_elapsed": 135235, "key_press": -1, "trial_index": 15}, "uniqueid": "MTK2940:3YDTZAI2WYNLMHOVOIQ6M3TSVYQ414", "dateTime": 1519593511805}, {"current_trial": 16, "trialdata": {"rt": -1, "trial_type": "single-stim", "stimulus": "<p id=\"stim\">4</p>", "internal_node_id": "0.0-10.0-6.0", "time_elapsed": 136239, "key_press": -1, "trial_index": 16}, "uniqueid": "MTK2940:3YDTZAI2WYNLMHOVOIQ6M3TSVYQ414", "dateTime": 1519593512809}, {"current_trial": 17, "trialdata": {"rt": -1, "trial_type": "single-stim", "stimulus": "<p id=\"stim\">3</p>", "internal_node_id": "0.0-10.0-7.0", "time_elapsed": 137242, "key_press": -1, "trial_index": 17}, "uniqueid": "MTK2940:3YDTZAI2WYNLMHOVOIQ6M3TSVYQ414", "dateTime": 1519593513812}, {"current_trial": 18, "trialdata": {"rt": -1, "trial_type": "single-stim", "stimulus": "<p id=\"stim\">2</p>", "internal_node_id": "0.0-10.0-8.0", "time_elapsed": 138247, "key_press": -1, "trial_index": 18}, "uniqueid": "MTK2940:3YDTZAI2WYNLMHOVOIQ6M3TSVYQ414", "dateTime": 1519593514817}, {"current_trial": 19, "trialdata": {"rt": -1, "trial_type": "single-stim", "stimulus": "<p id=\"stim\">1</p>", "internal_node_id": "0.0-10.0-9.0", "time_elapsed": 139251, "key_press": -1, "trial_index": 19}, "uniqueid": "MTK2940:3YDTZAI2WYNLMHOVOIQ6M3TSVYQ414", "dateTime": 1519593515822}, {"current_trial": 20, "trialdata": {"rt": -1, "trial_type": "single-stim", "stimulus": "<p id=\"stim\">+</p>", "internal_node_id": "0.0-11.0-0.0", "time_elapsed": 140755, "key_press": -1, "type": "FIXATION", "trial_index": 20}, "uniqueid": "MTK2940:3YDTZAI2WYNLMHOVOIQ6M3TSVYQ414", "dateTime": 1519593517325}, {"current_trial": 21, "trialdata": {"rt": -1, "trial_type": "single-stim", "word": "dime", "stimulus": "<p id=\"stim\">DIME</p>", "conditions": [18, 1200, "v", 18000], "internal_node_id": "0.0-12.0", "trial": 0, "time_elapsed": 141960, "serialpos": 0, "key_press": -1, "wordID": 465, "type": "PRES_VIS", "trial_index": 21}, "uniqueid": "MTK2940:3YDTZAI2WYNLMHOVOIQ6M3TSVYQ414", "dateTime": 1519593518531}, {"current_trial": 22, "trialdata": {"rt": -1, "trial_type": "single-stim", "word": "dragon", "stimulus": "<p id=\"stim\">DRAGON</p>", "conditions": [18, 1200, "v", 18000], "internal_node_id": "0.0-13.0", "trial": 0, "time_elapsed": 144272, "serialpos": 1, "key_press": -1, "wordID": 491, "type": "PRES_VIS", "trial_index": 22}, "uniqueid": "MTK2940:3YDTZAI2WYNLMHOVOIQ6M3TSVYQ414", "dateTime": 1519593520842}, {"current_trial": 23, "trialdata": {"rt": -1, "trial_type": "single-stim", "word": "slope", "stimulus": "<p id=\"stim\">SLOPE</p>", "conditions": [18, 1200, "v", 18000], "internal_node_id": "0.0-14.0", "trial": 0, "time_elapsed": 146640, "serialpos": 2, "key_press": -1, "wordID": 1327, "type": "PRES_VIS", "trial_index": 23}, "uniqueid": "MTK2940:3YDTZAI2WYNLMHOVOIQ6M3TSVYQ414", "dateTime": 1519593523211}, {"current_trial": 24, "trialdata": {"rt": -1, "trial_type": "single-stim", "word": "salmon", "stimulus": "<p id=\"stim\">SALMON</p>", "conditions": [18, 1200, "v", 18000], "internal_node_id": "0.0-15.0", "trial": 0, "time_elapsed": 148975, "serialpos": 3, "key_press": -1, "wordID": 1226, "type": "PRES_VIS", "trial_index": 24}, "uniqueid": "MTK2940:3YDTZAI2WYNLMHOVOIQ6M3TSVYQ414", "dateTime": 1519593525546}, {"current_trial": 25, "trialdata": {"rt": -1, "trial_type": "single-stim", "word": "snail", "stimulus": "<p id=\"stim\">SNAIL</p>", "conditions": [18, 1200, "v", 18000], "internal_node_id": "0.0-16.0", "trial": 0, "time_elapsed": 151124, "serialpos": 4, "key_press": -1, "wordID": 1331, "type": "PRES_VIS", "trial_index": 25}, "uniqueid": "MTK2940:3YDTZAI2WYNLMHOVOIQ6M3TSVYQ414", "dateTime": 1519593527694}, {"current_trial": 26, "trialdata": {"rt": -1, "trial_type": "single-stim", "word": "flute", "stimulus": "<p id=\"stim\">FLUTE</p>", "conditions": [18, 1200, "v", 18000], "internal_node_id": "0.0-17.0", "trial": 0, "time_elapsed": 153372, "serialpos": 5, "key_press": -1, "wordID": 584, "type": "PRES_VIS", "trial_index": 26}, "uniqueid": "MTK2940:3YDTZAI2WYNLMHOVOIQ6M3TSVYQ414", "dateTime": 1519593529942}, {"current_trial": 27, "trialdata": {"rt": -1, "trial_type": "single-stim", "word": "hawk", "stimulus": "<p id=\"stim\">HAWK</p>", "conditions": [18, 1200, "v", 18000], "internal_node_id": "0.0-18.0", "trial": 0, "time_elapsed": 155608, "serialpos": 6, "key_press": -1, "wordID": 691, "type": "PRES_VIS", "trial_index": 27}, "uniqueid": "MTK2940:3YDTZAI2WYNLMHOVOIQ6M3TSVYQ414", "dateTime": 1519593532179}, {"current_trial": 28, "trialdata": {"rt": -1, "trial_type": "single-stim", "word": "garden", "stimulus": "<p id=\"stim\">GARDEN</p>", "conditions": [18, 1200, "v", 18000], "internal_node_id": "0.0-19.0", "trial": 0, "time_elapsed": 157877, "serialpos": 7, "key_press": -1, "wordID": 622, "type": "PRES_VIS", "trial_index": 28}, "uniqueid": "MTK2940:3YDTZAI2WYNLMHOVOIQ6M3TSVYQ414", "dateTime": 1519593534448}, {"current_trial": 29, "trialdata": {"rt": -1, "trial_type": "single-stim", "word": "temple", "stimulus": "<p id=\"stim\">TEMPLE</p>", "conditions": [18, 1200, "v", 18000], "internal_node_id": "0.0-20.0", "trial": 0, "time_elapsed": 160280, "serialpos": 8, "key_press": -1, "wordID": 1447, "type": "PRES_VIS", "trial_index": 29}, "uniqueid": "MTK2940:3YDTZAI2WYNLMHOVOIQ6M3TSVYQ414", "dateTime": 1519593536851}, {"current_trial": 30, "trialdata": {"rt": -1, "trial_type": "single-stim", "word": "washer", "stimulus": "<p id=\"stim\">WASHER</p>", "conditions": [18, 1200, "v", 18000], "internal_node_id": "0.0-21.0", "trial": 0, "time_elapsed": 162672, "serialpos": 9, "key_press": -1, "wordID": 1591, "type": "PRES_VIS", "trial_index": 30}, "uniqueid": "MTK2940:3YDTZAI2WYNLMHOVOIQ6M3TSVYQ414", "dateTime": 1519593539242}, {"current_trial": 31, "trialdata": {"rt": -1, "trial_type": "single-stim", "word": "message", "stimulus": "<p id=\"stim\">MESSAGE</p>", "conditions": [18, 1200, "v", 18000], "internal_node_id": "0.0-22.0", "trial": 0, "time_elapsed": 164819, "serialpos": 10, "key_press": -1, "wordID": 887, "type": "PRES_VIS", "trial_index": 31}, "uniqueid": "MTK2940:3YDTZAI2WYNLMHOVOIQ6M3TSVYQ414", "dateTime": 1519593541390}, {"current_trial": 32, "trialdata": {"rt": -1, "trial_type": "single-stim", "word": "marsh", "stimulus": "<p id=\"stim\">MARSH</p>", "conditions": [18, 1200, "v", 18000], "internal_node_id": "0.0-23.0", "trial": 0, "time_elapsed": 167211, "serialpos": 11, "key_press": -1, "wordID": 873, "type": "PRES_VIS", "trial_index": 32}, "uniqueid": "MTK2940:3YDTZAI2WYNLMHOVOIQ6M3TSVYQ414", "dateTime": 1519593543781}, {"current_trial": 33, "trialdata": {"rt": -1, "trial_type": "single-stim", "word": "server", "stimulus": "<p id=\"stim\">SERVER</p>", "conditions": [18, 1200, "v", 18000], "internal_node_id": "0.0-24.0", "trial": 0, "time_elapsed": 169323, "serialpos": 12, "key_press": -1, "wordID": 1271, "type": "PRES_VIS", "trial_index": 33}, "uniqueid": "MTK2940:3YDTZAI2WYNLMHOVOIQ6M3TSVYQ414", "dateTime": 1519593545894}, {"current_trial": 34, "trialdata": {"rt": -1, "trial_type": "single-stim", "word": "spider", "stimulus": "<p id=\"stim\">SPIDER</p>", "conditions": [18, 1200, "v", 18000], "internal_node_id": "0.0-25.0", "trial": 0, "time_elapsed": 171592, "serialpos": 13, "key_press": -1, "wordID": 1350, "type": "PRES_VIS", "trial_index": 34}, "uniqueid": "MTK2940:3YDTZAI2WYNLMHOVOIQ6M3TSVYQ414", "dateTime": 1519593548163}, {"current_trial": 35, "trialdata": {"rt": -1, "trial_type": "single-stim", "word": "shortcake", "stimulus": "<p id=\"stim\">SHORTCAKE</p>", "conditions": [18, 1200, "v", 18000], "internal_node_id": "0.0-26.0", "trial": 0, "time_elapsed": 173897, "serialpos": 14, "key_press": -1, "wordID": 1291, "type": "PRES_VIS", "trial_index": 35}, "uniqueid": "MTK2940:3YDTZAI2WYNLMHOVOIQ6M3TSVYQ414", "dateTime": 1519593550467}, {"current_trial": 36, "trialdata": {"rt": -1, "trial_type": "single-stim", "word": "brother", "stimulus": "<p id=\"stim\">BROTHER</p>", "conditions": [18, 1200, "v", 18000], "internal_node_id": "0.0-27.0", "trial": 0, "time_elapsed": 176011, "serialpos": 15, "key_press": -1, "wordID": 178, "type": "PRES_VIS", "trial_index": 36}, "uniqueid": "MTK2940:3YDTZAI2WYNLMHOVOIQ6M3TSVYQ414", "dateTime": 1519593552582}, {"current_trial": 37, "trialdata": {"rt": -1, "trial_type": "single-stim", "word": "river", "stimulus": "<p id=\"stim\">RIVER</p>", "conditions": [18, 1200, "v", 18000], "internal_node_id": "0.0-28.0", "trial": 0, "time_elapsed": 178118, "serialpos": 16, "key_press": -1, "wordID": 1193, "type": "PRES_VIS", "trial_index": 37}, "uniqueid": "MTK2940:3YDTZAI2WYNLMHOVOIQ6M3TSVYQ414", "dateTime": 1519593554688}, {"current_trial": 38, "trialdata": {"rt": -1, "trial_type": "single-stim", "word": "mister", "stimulus": "<p id=\"stim\">MISTER</p>", "conditions": [18, 1200, "v", 18000], "internal_node_id": "0.0-29.0", "trial": 0, "time_elapsed": 180422, "serialpos": 17, "key_press": -1, "wordID": 900, "type": "PRES_VIS", "trial_index": 38}, "uniqueid": "MTK2940:3YDTZAI2WYNLMHOVOIQ6M3TSVYQ414", "dateTime": 1519593556992}, {"current_trial": 39, "trialdata": {"rt": -1, "trial_type": "single-stim", "stimulus": "", "internal_node_id": "0.0-30.0-0.0", "time_elapsed": 182592, "key_press": -1, "type": "PRE_RECALL_DELAY", "trial_index": 39}, "uniqueid": "MTK2940:3YDTZAI2WYNLMHOVOIQ6M3TSVYQ414", "dateTime": 1519593559162}, {"current_trial": 40, "trialdata": {"rt": -1000, "trial_type": "single-audio", "stimulus": "/static/audio/400Hz.wav", "internal_node_id": "0.0-31.0", "time_elapsed": 183097, "key_press": -1, "type": "PRE_RECALL_ALERT", "trial_index": 40}, "uniqueid": "MTK2940:3YDTZAI2WYNLMHOVOIQ6M3TSVYQ414", "dateTime": 1519593559667}, {"current_trial": 41, "trialdata": {"rt": [2508, 4707, 6571, 8650, 10228, 14716, 16683, 22259, 25851, 46996, 58301, 59229], "recwords": ["mister", "dragon", "spice", "dragon", "waste", "river", "snake", "spice", "", "spider", "", ""], "key_times": [1340, 1579, 1691, 1988, 2131, 2219, 2508, 3220, 3435, 3515, 3730, 4155, 4459, 4707, 5018, 5698, 5995, 6091, 6131, 6571, 7235, 7467, 7547, 7746, 7994, 8307, 8650, 9027, 9244, 9277, 9499, 9932, 10228, 13579, 13892, 14093, 14292, 14331, 14716, 15482, 16011, 16131, 16299, 16426, 16683, 20683, 21034, 21331, 21795, 21883, 22259, 25851, 45900, 46027, 46276, 46443, 46596, 46667, 46996, 58301, 59229], "trial_type": "free-recall", "conditions": [18, 1200, "v", 18000], "internal_node_id": "0.0-32.0-0.0", "key_presses": [77, 73, 83, 84, 69, 82, 13, 68, 82, 65, 71, 79, 78, 13, 83, 80, 73, 67, 69, 13, 68, 82, 65, 71, 79, 78, 13, 87, 65, 83, 84, 69, 13, 82, 73, 86, 69, 82, 13, 83, 78, 65, 75, 69, 13, 83, 80, 73, 67, 69, 13, 13, 83, 80, 73, 68, 69, 82, 13, 13, 13], "trial": 0, "time_elapsed": 243106, "type": "FREE_RECALL", "trial_index": 41}, "uniqueid": "MTK2940:3YDTZAI2WYNLMHOVOIQ6M3TSVYQ414", "dateTime": 1519593619680}, {"current_trial": 42, "trialdata": {"rt": 2052, "trial_type": "text", "internal_node_id": "0.0-33.0", "time_elapsed": 247166, "key_press": 32, "type": "INSTRUCTIONS", "trial_index": 42}, "uniqueid": "MTK2940:3YDTZAI2WYNLMHOVOIQ6M3TSVYQ414", "dateTime": 1519593623736}, {"current_trial": 43, "trialdata": {"rt": [3762, 8452, 11091, 14035, 16083], "trial_type": "math-distractor", "key_times": [3306, 3434, 3762, 5986, 7234, 7987, 8163, 8452, 10507, 10700, 11091, 12922, 13266, 14035, 15548, 15779, 16083, 17858], "responses": ["22", "14", "20", "15", "19"], "num2": [6, 1, 7, 1, 2, 4], "num3": [8, 7, 8, 8, 9, 4], "conditions": [18, 1200, "v", 18000], "internal_node_id": "0.0-34.0", "key_presses": [50, 50, 13, 50, 8, 49, 52, 13, 50, 48, 13, 49, 53, 13, 49, 57, 13, 57], "trial": 1, "time_elapsed": 267176, "type": "DISTRACTOR", "trial_index": 43, "num1": [8, 6, 5, 6, 8, 1]}, "uniqueid": "MTK2940:3YDTZAI2WYNLMHOVOIQ6M3TSVYQ414", "dateTime": 1519593643746}, {"current_trial": 44, "trialdata": {"rt": -1, "trial_type": "single-stim", "stimulus": "<p id=\"stim\">10</p>", "internal_node_id": "0.0-35.0-0.0", "time_elapsed": 270182, "key_press": -1, "trial_index": 44}, "uniqueid": "MTK2940:3YDTZAI2WYNLMHOVOIQ6M3TSVYQ414", "dateTime": 1519593646752}, {"current_trial": 45, "trialdata": {"rt": -1, "trial_type": "single-stim", "stimulus": "<p id=\"stim\">9</p>", "internal_node_id": "0.0-35.0-1.0", "time_elapsed": 271187, "key_press": -1, "trial_index": 45}, "uniqueid": "MTK2940:3YDTZAI2WYNLMHOVOIQ6M3TSVYQ414", "dateTime": 1519593647757}, {"current_trial": 46, "trialdata": {"rt": -1, "trial_type": "single-stim", "stimulus": "<p id=\"stim\">8</p>", "internal_node_id": "0.0-35.0-2.0", "time_elapsed": 272190, "key_press": -1, "trial_index": 46}, "uniqueid": "MTK2940:3YDTZAI2WYNLMHOVOIQ6M3TSVYQ414", "dateTime": 1519593648760}, {"current_trial": 47, "trialdata": {"rt": -1, "trial_type": "single-stim", "stimulus": "<p id=\"stim\">7</p>", "internal_node_id": "0.0-35.0-3.0", "time_elapsed": 273195, "key_press": -1, "trial_index": 47}, "uniqueid": "MTK2940:3YDTZAI2WYNLMHOVOIQ6M3TSVYQ414", "dateTime": 1519593649765}, {"current_trial": 48, "trialdata": {"rt": -1, "trial_type": "single-stim", "stimulus": "<p id=\"stim\">6</p>", "internal_node_id": "0.0-35.0-4.0", "time_elapsed": 274199, "key_press": -1, "trial_index": 48}, "uniqueid": "MTK2940:3YDTZAI2WYNLMHOVOIQ6M3TSVYQ414", "dateTime": 1519593650770}, {"current_trial": 49, "trialdata": {"rt": -1, "trial_type": "single-stim", "stimulus": "<p id=\"stim\">5</p>", "internal_node_id": "0.0-35.0-5.0", "time_elapsed": 275202, "key_press": -1, "trial_index": 49}, "uniqueid": "MTK2940:3YDTZAI2WYNLMHOVOIQ6M3TSVYQ414", "dateTime": 1519593651772}, {"current_trial": 50, "trialdata": {"rt": -1, "trial_type": "single-stim", "stimulus": "<p id=\"stim\">4</p>", "internal_node_id": "0.0-35.0-6.0", "time_elapsed": 276207, "key_press": -1, "trial_index": 50}, "uniqueid": "MTK2940:3YDTZAI2WYNLMHOVOIQ6M3TSVYQ414", "dateTime": 1519593652777}, {"current_trial": 51, "trialdata": {"rt": -1, "trial_type": "single-stim", "stimulus": "<p id=\"stim\">3</p>", "internal_node_id": "0.0-35.0-7.0", "time_elapsed": 277211, "key_press": -1, "trial_index": 51}, "uniqueid": "MTK2940:3YDTZAI2WYNLMHOVOIQ6M3TSVYQ414", "dateTime": 1519593653782}, {"current_trial": 52, "trialdata": {"rt": -1, "trial_type": "single-stim", "stimulus": "<p id=\"stim\">2</p>", "internal_node_id": "0.0-35.0-8.0", "time_elapsed": 278216, "key_press": -1, "trial_index": 52}, "uniqueid": "MTK2940:3YDTZAI2WYNLMHOVOIQ6M3TSVYQ414", "dateTime": 1519593654786}, {"current_trial": 53, "trialdata": {"rt": -1, "trial_type": "single-stim", "stimulus": "<p id=\"stim\">1</p>", "internal_node_id": "0.0-35.0-9.0", "time_elapsed": 279219, "key_press": -1, "trial_index": 53}, "uniqueid": "MTK2940:3YDTZAI2WYNLMHOVOIQ6M3TSVYQ414", "dateTime": 1519593655789}, {"current_trial": 54, "trialdata": {"rt": -1, "trial_type": "single-stim", "stimulus": "<p id=\"stim\">+</p>", "internal_node_id": "0.0-36.0-0.0", "time_elapsed": 280722, "key_press": -1, "type": "FIXATION", "trial_index": 54}, "uniqueid": "MTK2940:3YDTZAI2WYNLMHOVOIQ6M3TSVYQ414", "dateTime": 1519593657293}, {"current_trial": 55, "trialdata": {"rt": -1, "trial_type": "single-stim", "word": "silk", "stimulus": "<p id=\"stim\">SILK</p>", "conditions": [18, 1200, "v", 18000], "internal_node_id": "0.0-37.0", "trial": 1, "time_elapsed": 281929, "serialpos": 0, "key_press": -1, "wordID": 1306, "type": "PRES_VIS", "trial_index": 55}, "uniqueid": "MTK2940:3YDTZAI2WYNLMHOVOIQ6M3TSVYQ414", "dateTime": 1519593658499}, {"current_trial": 56, "trialdata": {"rt": -1, "trial_type": "single-stim", "word": "report", "stimulus": "<p id=\"stim\">REPORT</p>", "conditions": [18, 1200, "v", 18000], "internal_node_id": "0.0-38.0", "trial": 1, "time_elapsed": 284072, "serialpos": 1, "key_press": -1, "wordID": 1183, "type": "PRES_VIS", "trial_index": 56}, "uniqueid": "MTK2940:3YDTZAI2WYNLMHOVOIQ6M3TSVYQ414", "dateTime": 1519593660642}, {"current_trial": 57, "trialdata": {"rt": -1, "trial_type": "single-stim", "word": "seafood", "stimulus": "<p id=\"stim\">SEAFOOD</p>", "conditions": [18, 1200, "v", 18000], "internal_node_id": "0.0-39.0", "trial": 1, "time_elapsed": 286248, "serialpos": 2, "key_press": -1, "wordID": 1259, "type": "PRES_VIS", "trial_index": 57}, "uniqueid": "MTK2940:3YDTZAI2WYNLMHOVOIQ6M3TSVYQ414", "dateTime": 1519593662819}, {"current_trial": 58, "trialdata": {"rt": -1, "trial_type": "single-stim", "word": "shorts", "stimulus": "<p id=\"stim\">SHORTS</p>", "conditions": [18, 1200, "v", 18000], "internal_node_id": "0.0-40.0", "trial": 1, "time_elapsed": 288384, "serialpos": 3, "key_press": -1, "wordID": 1292, "type": "PRES_VIS", "trial_index": 58}, "uniqueid": "MTK2940:3YDTZAI2WYNLMHOVOIQ6M3TSVYQ414", "dateTime": 1519593664955}, {"current_trial": 59, "trialdata": {"rt": -1, "trial_type": "single-stim", "word": "helmet", "stimulus": "<p id=\"stim\">HELMET</p>", "conditions": [18, 1200, "v", 18000], "internal_node_id": "0.0-41.0", "trial": 1, "time_elapsed": 290671, "serialpos": 4, "key_press": -1, "wordID": 701, "type": "PRES_VIS", "trial_index": 59}, "uniqueid": "MTK2940:3YDTZAI2WYNLMHOVOIQ6M3TSVYQ414", "dateTime": 1519593667241}, {"current_trial": 60, "trialdata": {"rt": -1, "trial_type": "single-stim", "word": "lady", "stimulus": "<p id=\"stim\">LADY</p>", "conditions": [18, 1200, "v", 18000], "internal_node_id": "0.0-42.0", "trial": 1, "time_elapsed": 292911, "serialpos": 5, "key_press": -1, "wordID": 793, "type": "PRES_VIS", "trial_index": 60}, "uniqueid": "MTK2940:3YDTZAI2WYNLMHOVOIQ6M3TSVYQ414", "dateTime": 1519593669481}, {"current_trial": 61, "trialdata": {"rt": -1, "trial_type": "single-stim", "word": "sunset", "stimulus": "<p id=\"stim\">SUNSET</p>", "conditions": [18, 1200, "v", 18000], "internal_node_id": "0.0-43.0", "trial": 1, "time_elapsed": 295100, "serialpos": 6, "key_press": -1, "wordID": 1407, "type": "PRES_VIS", "trial_index": 61}, "uniqueid": "MTK2940:3YDTZAI2WYNLMHOVOIQ6M3TSVYQ414", "dateTime": 1519593671670}, {"current_trial": 62, "trialdata": {"rt": -1, "trial_type": "single-stim", "word": "jelly", "stimulus": "<p id=\"stim\">JELLY</p>", "conditions": [18, 1200, "v", 18000], "internal_node_id": "0.0-44.0", "trial": 1, "time_elapsed": 297375, "serialpos": 7, "key_press": -1, "wordID": 754, "type": "PRES_VIS", "trial_index": 62}, "uniqueid": "MTK2940:3YDTZAI2WYNLMHOVOIQ6M3TSVYQ414", "dateTime": 1519593673945}, {"current_trial": 63, "trialdata": {"rt": -1, "trial_type": "single-stim", "word": "badge", "stimulus": "<p id=\"stim\">BADGE</p>", "conditions": [18, 1200, "v", 18000], "internal_node_id": "0.0-45.0", "trial": 1, "time_elapsed": 299452, "serialpos": 8, "key_press": -1, "wordID": 67, "type": "PRES_VIS", "trial_index": 63}, "uniqueid": "MTK2940:3YDTZAI2WYNLMHOVOIQ6M3TSVYQ414", "dateTime": 1519593676022}, {"current_trial": 64, "trialdata": {"rt": -1, "trial_type": "single-stim", "word": "ground", "stimulus": "<p id=\"stim\">GROUND</p>", "conditions": [18, 1200, "v", 18000], "internal_node_id": "0.0-46.0", "trial": 1, "time_elapsed": 301532, "serialpos": 9, "key_press": -1, "wordID": 665, "type": "PRES_VIS", "trial_index": 64}, "uniqueid": "MTK2940:3YDTZAI2WYNLMHOVOIQ6M3TSVYQ414", "dateTime": 1519593678102}, {"current_trial": 65, "trialdata": {"rt": -1, "trial_type": "single-stim", "word": "poison", "stimulus": "<p id=\"stim\">POISON</p>", "conditions": [18, 1200, "v", 18000], "internal_node_id": "0.0-47.0", "trial": 1, "time_elapsed": 303881, "serialpos": 10, "key_press": -1, "wordID": 1095, "type": "PRES_VIS", "trial_index": 65}, "uniqueid": "MTK2940:3YDTZAI2WYNLMHOVOIQ6M3TSVYQ414", "dateTime": 1519593680452}, {"current_trial": 66, "trialdata": {"rt": -1, "trial_type": "single-stim", "word": "record", "stimulus": "<p id=\"stim\">RECORD</p>", "conditions": [18, 1200, "v", 18000], "internal_node_id": "0.0-48.0", "trial": 1, "time_elapsed": 306156, "serialpos": 11, "key_press": -1, "wordID": 1175, "type": "PRES_VIS", "trial_index": 66}, "uniqueid": "MTK2940:3YDTZAI2WYNLMHOVOIQ6M3TSVYQ414", "dateTime": 1519593682727}, {"current_trial": 67, "trialdata": {"rt": -1, "trial_type": "single-stim", "word": "turtle", "stimulus": "<p id=\"stim\">TURTLE</p>", "conditions": [18, 1200, "v", 18000], "internal_node_id": "0.0-49.0", "trial": 1, "time_elapsed": 308205, "serialpos": 12, "key_press": -1, "wordID": 1521, "type": "PRES_VIS", "trial_index": 67}, "uniqueid": "MTK2940:3YDTZAI2WYNLMHOVOIQ6M3TSVYQ414", "dateTime": 1519593684776}, {"current_trial": 68, "trialdata": {"rt": -1, "trial_type": "single-stim", "word": "comet", "stimulus": "<p id=\"stim\">COMET</p>", "conditions": [18, 1200, "v", 18000], "internal_node_id": "0.0-50.0", "trial": 1, "time_elapsed": 310255, "serialpos": 13, "key_press": -1, "wordID": 352, "type": "PRES_VIS", "trial_index": 68}, "uniqueid": "MTK2940:3YDTZAI2WYNLMHOVOIQ6M3TSVYQ414", "dateTime": 1519593686826}, {"current_trial": 69, "trialdata": {"rt": -1, "trial_type": "single-stim", "word": "sheriff", "stimulus": "<p id=\"stim\">SHERIFF</p>", "conditions": [18, 1200, "v", 18000], "internal_node_id": "0.0-51.0", "trial": 1, "time_elapsed": 312262, "serialpos": 14, "key_press": -1, "wordID": 1283, "type": "PRES_VIS", "trial_index": 69}, "uniqueid": "MTK2940:3YDTZAI2WYNLMHOVOIQ6M3TSVYQ414", "dateTime": 1519593688832}, {"current_trial": 70, "trialdata": {"rt": -1, "trial_type": "single-stim", "word": "agent", "stimulus": "<p id=\"stim\">AGENT</p>", "conditions": [18, 1200, "v", 18000], "internal_node_id": "0.0-52.0", "trial": 1, "time_elapsed": 314369, "serialpos": 15, "key_press": -1, "wordID": 9, "type": "PRES_VIS", "trial_index": 70}, "uniqueid": "MTK2940:3YDTZAI2WYNLMHOVOIQ6M3TSVYQ414", "dateTime": 1519593690939}, {"current_trial": 71, "trialdata": {"rt": -1, "trial_type": "single-stim", "word": "lodge", "stimulus": "<p id=\"stim\">LODGE</p>", "conditions": [18, 1200, "v", 18000], "internal_node_id": "0.0-53.0", "trial": 1, "time_elapsed": 316644, "serialpos": 16, "key_press": -1, "wordID": 838, "type": "PRES_VIS", "trial_index": 71}, "uniqueid": "MTK2940:3YDTZAI2WYNLMHOVOIQ6M3TSVYQ414", "dateTime": 1519593693214}, {"current_trial": 72, "trialdata": {"rt": -1, "trial_type": "single-stim", "word": "frame", "stimulus": "<p id=\"stim\">FRAME</p>", "conditions": [18, 1200, "v", 18000], "internal_node_id": "0.0-54.0", "trial": 1, "time_elapsed": 318815, "serialpos": 17, "key_press": -1, "wordID": 599, "type": "PRES_VIS", "trial_index": 72}, "uniqueid": "MTK2940:3YDTZAI2WYNLMHOVOIQ6M3TSVYQ414", "dateTime": 1519593695385}, {"current_trial": 73, "trialdata": {"rt": -1, "trial_type": "single-stim", "stimulus": "", "internal_node_id": "0.0-55.0-0.0", "time_elapsed": 321038, "key_press": -1, "type": "PRE_RECALL_DELAY", "trial_index": 73}, "uniqueid": "MTK2940:3YDTZAI2WYNLMHOVOIQ6M3TSVYQ414", "dateTime": 1519593697609}, {"current_trial": 74, "trialdata": {"rt": -1000, "trial_type": "single-audio", "stimulus": "/static/audio/400Hz.wav", "internal_node_id": "0.0-56.0", "time_elapsed": 321540, "key_press": -1, "type": "PRE_RECALL_ALERT", "trial_index": 74}, "uniqueid": "MTK2940:3YDTZAI2WYNLMHOVOIQ6M3TSVYQ414", "dateTime": 1519593698111}, {"current_trial": 75, "trialdata": {"rt": [1994, 4298, 6689, 8819, 12218, 16195, 19059, 21635, 23716, 26195, 28395, 30147, 33219, 35298, 39651, 49035], "recwords": ["lodge", "frame", "silk", "comet", "report", "shorts", "helmet", "sunset", "lady", "ground", "poison", "jelly", "turtle", "comet", "jelly", "shirt"], "key_times": [1021, 1194, 1482, 1762, 1827, 1994, 2762, 3129, 3284, 3490, 3610, 3858, 3962, 4298, 5634, 6027, 6234, 6402, 6689, 7642, 7859, 8074, 8234, 8458, 8819, 11179, 11235, 11443, 11670, 11827, 12027, 12218, 12834, 13147, 13531, 14284, 15139, 15323, 15556, 15779, 16195, 17067, 17162, 17563, 18283, 18428, 18587, 19059, 20475, 20811, 20978, 21098, 21283, 21490, 21635, 22002, 22090, 22211, 22684, 23716, 24531, 24747, 24948, 25027, 25267, 25411, 26195, 27115, 27292, 27492, 27611, 27858, 28052, 28395, 29187, 29315, 29522, 29643, 29787, 30147, 31659, 31939, 32018, 32299, 32491, 32595, 33219, 34186, 34395, 34611, 34746, 34963, 35298, 38154, 38258, 38938, 39059, 39403, 39651, 46043, 46323, 46675, 46851, 47051, 49035], "trial_type": "free-recall", "conditions": [18, 1200, "v", 18000], "internal_node_id": "0.0-57.0-0.0", "key_presses": [76, 79, 68, 71, 69, 32, 82, 8, 70, 82, 65, 77, 69, 13, 83, 73, 76, 75, 13, 67, 79, 77, 69, 84, 13, 82, 69, 80, 79, 82, 84, 13, 83, 72, 73, 8, 79, 82, 84, 83, 13, 72, 69, 76, 77, 69, 84, 13, 83, 85, 78, 83, 69, 84, 13, 76, 65, 68, 89, 13, 71, 82, 79, 85, 78, 68, 13, 80, 79, 73, 83, 79, 78, 13, 74, 69, 76, 76, 89, 13, 84, 85, 82, 84, 76, 69, 13, 67, 79, 77, 69, 84, 13, 74, 69, 76, 76, 89, 13, 83, 72, 73, 82, 84, 13], "trial": 1, "time_elapsed": 381549, "type": "FREE_RECALL", "trial_index": 75}, "uniqueid": "MTK2940:3YDTZAI2WYNLMHOVOIQ6M3TSVYQ414", "dateTime": 1519593758121}, {"current_trial": 76, "trialdata": {"rt": 3631, "trial_type": "text", "internal_node_id": "0.0-58.0", "time_elapsed": 387186, "key_press": 32, "type": "INSTRUCTIONS", "trial_index": 76}, "uniqueid": "MTK2940:3YDTZAI2WYNLMHOVOIQ6M3TSVYQ414", "dateTime": 1519593763756}, {"current_trial": 77, "trialdata": {"rt": [2628, 6668, 8956], "trial_type": "math-distractor", "key_times": [1644, 1908, 2628, 6132, 6668, 8388, 8636, 8956, 10493, 10501, 11876], "responses": ["15", "8", "18"], "num2": [7, 1, 6, 5], "num3": [1, 4, 4, 2], "conditions": [24, 1600, "v", 12000], "internal_node_id": "0.0-59.0", "key_presses": [49, 53, 13, 56, 13, 49, 56, 13, 48, 49, 8], "trial": 2, "time_elapsed": 400196, "type": "DISTRACTOR", "trial_index": 77, "num1": [7, 3, 8, 5]}, "uniqueid": "MTK2940:3YDTZAI2WYNLMHOVOIQ6M3TSVYQ414", "dateTime": 1519593776766}, {"current_trial": 78, "trialdata": {"rt": -1, "trial_type": "single-stim", "stimulus": "<p id=\"stim\">10</p>", "internal_node_id": "0.0-60.0-0.0", "time_elapsed": 403202, "key_press": -1, "trial_index": 78}, "uniqueid": "MTK2940:3YDTZAI2WYNLMHOVOIQ6M3TSVYQ414", "dateTime": 1519593779772}, {"current_trial": 79, "trialdata": {"rt": -1, "trial_type": "single-stim", "stimulus": "<p id=\"stim\">9</p>", "internal_node_id": "0.0-60.0-1.0", "time_elapsed": 404206, "key_press": -1, "trial_index": 79}, "uniqueid": "MTK2940:3YDTZAI2WYNLMHOVOIQ6M3TSVYQ414", "dateTime": 1519593780776}, {"current_trial": 80, "trialdata": {"rt": -1, "trial_type": "single-stim", "stimulus": "<p id=\"stim\">8</p>", "internal_node_id": "0.0-60.0-2.0", "time_elapsed": 405210, "key_press": -1, "trial_index": 80}, "uniqueid": "MTK2940:3YDTZAI2WYNLMHOVOIQ6M3TSVYQ414", "dateTime": 1519593781780}, {"current_trial": 81, "trialdata": {"rt": -1, "trial_type": "single-stim", "stimulus": "<p id=\"stim\">7</p>", "internal_node_id": "0.0-60.0-3.0", "time_elapsed": 406214, "key_press": -1, "trial_index": 81}, "uniqueid": "MTK2940:3YDTZAI2WYNLMHOVOIQ6M3TSVYQ414", "dateTime": 1519593782784}, {"current_trial": 82, "trialdata": {"rt": -1, "trial_type": "single-stim", "stimulus": "<p id=\"stim\">6</p>", "internal_node_id": "0.0-60.0-4.0", "time_elapsed": 407219, "key_press": -1, "trial_index": 82}, "uniqueid": "MTK2940:3YDTZAI2WYNLMHOVOIQ6M3TSVYQ414", "dateTime": 1519593783789}, {"current_trial": 83, "trialdata": {"rt": -1, "trial_type": "single-stim", "stimulus": "<p id=\"stim\">5</p>", "internal_node_id": "0.0-60.0-5.0", "time_elapsed": 408223, "key_press": -1, "trial_index": 83}, "uniqueid": "MTK2940:3YDTZAI2WYNLMHOVOIQ6M3TSVYQ414", "dateTime": 1519593784793}, {"current_trial": 84, "trialdata": {"rt": -1, "trial_type": "single-stim", "stimulus": "<p id=\"stim\">4</p>", "internal_node_id": "0.0-60.0-6.0", "time_elapsed": 409227, "key_press": -1, "trial_index": 84}, "uniqueid": "MTK2940:3YDTZAI2WYNLMHOVOIQ6M3TSVYQ414", "dateTime": 1519593785797}, {"current_trial": 85, "trialdata": {"rt": -1, "trial_type": "single-stim", "stimulus": "<p id=\"stim\">3</p>", "internal_node_id": "0.0-60.0-7.0", "time_elapsed": 410231, "key_press": -1, "trial_index": 85}, "uniqueid": "MTK2940:3YDTZAI2WYNLMHOVOIQ6M3TSVYQ414", "dateTime": 1519593786801}, {"current_trial": 86, "trialdata": {"rt": -1, "trial_type": "single-stim", "stimulus": "<p id=\"stim\">2</p>", "internal_node_id": "0.0-60.0-8.0", "time_elapsed": 411235, "key_press": -1, "trial_index": 86}, "uniqueid": "MTK2940:3YDTZAI2WYNLMHOVOIQ6M3TSVYQ414", "dateTime": 1519593787806}, {"current_trial": 87, "trialdata": {"rt": -1, "trial_type": "single-stim", "stimulus": "<p id=\"stim\">1</p>", "internal_node_id": "0.0-60.0-9.0", "time_elapsed": 412240, "key_press": -1, "trial_index": 87}, "uniqueid": "MTK2940:3YDTZAI2WYNLMHOVOIQ6M3TSVYQ414", "dateTime": 1519593788810}, {"current_trial": 88, "trialdata": {"rt": -1, "trial_type": "single-stim", "stimulus": "<p id=\"stim\">+</p>", "internal_node_id": "0.0-61.0-0.0", "time_elapsed": 413745, "key_press": -1, "type": "FIXATION", "trial_index": 88}, "uniqueid": "MTK2940:3YDTZAI2WYNLMHOVOIQ6M3TSVYQ414", "dateTime": 1519593790315}, {"current_trial": 89, "trialdata": {"rt": -1, "trial_type": "single-stim", "word": "spoon", "stimulus": "<p id=\"stim\">SPOON</p>", "conditions": [24, 1600, "v", 12000], "internal_node_id": "0.0-62.0", "trial": 2, "time_elapsed": 415350, "serialpos": 0, "key_press": -1, "wordID": 1356, "type": "PRES_VIS", "trial_index": 89}, "uniqueid": "MTK2940:3YDTZAI2WYNLMHOVOIQ6M3TSVYQ414", "dateTime": 1519593791920}, {"current_trial": 90, "trialdata": {"rt": -1, "trial_type": "single-stim", "word": "sister", "stimulus": "<p id=\"stim\">SISTER</p>", "conditions": [24, 1600, "v", 12000], "internal_node_id": "0.0-63.0", "trial": 2, "time_elapsed": 417767, "serialpos": 1, "key_press": -1, "wordID": 1311, "type": "PRES_VIS", "trial_index": 90}, "uniqueid": "MTK2940:3YDTZAI2WYNLMHOVOIQ6M3TSVYQ414", "dateTime": 1519593794337}, {"current_trial": 91, "trialdata": {"rt": -1, "trial_type": "single-stim", "word": "apple", "stimulus": "<p id=\"stim\">APPLE</p>", "conditions": [24, 1600, "v", 12000], "internal_node_id": "0.0-64.0", "trial": 2, "time_elapsed": 420545, "serialpos": 2, "key_press": -1, "wordID": 32, "type": "PRES_VIS", "trial_index": 91}, "uniqueid": "MTK2940:3YDTZAI2WYNLMHOVOIQ6M3TSVYQ414", "dateTime": 1519593797115}, {"current_trial": 92, "trialdata": {"rt": -1, "trial_type": "single-stim", "word": "tortoise", "stimulus": "<p id=\"stim\">TORTOISE</p>", "conditions": [24, 1600, "v", 12000], "internal_node_id": "0.0-65.0", "trial": 2, "time_elapsed": 423325, "serialpos": 3, "key_press": -1, "wordID": 1485, "type": "PRES_VIS", "trial_index": 92}, "uniqueid": "MTK2940:3YDTZAI2WYNLMHOVOIQ6M3TSVYQ414", "dateTime": 1519593799895}, {"current_trial": 93, "trialdata": {"rt": -1, "trial_type": "single-stim", "word": "lion", "stimulus": "<p id=\"stim\">LION</p>", "conditions": [24, 1600, "v", 12000], "internal_node_id": "0.0-66.0", "trial": 2, "time_elapsed": 425911, "serialpos": 4, "key_press": -1, "wordID": 826, "type": "PRES_VIS", "trial_index": 93}, "uniqueid": "MTK2940:3YDTZAI2WYNLMHOVOIQ6M3TSVYQ414", "dateTime": 1519593802481}, {"current_trial": 94, "trialdata": {"rt": -1, "trial_type": "single-stim", "word": "twig", "stimulus": "<p id=\"stim\">TWIG</p>", "conditions": [24, 1600, "v", 12000], "internal_node_id": "0.0-67.0", "trial": 2, "time_elapsed": 428502, "serialpos": 5, "key_press": -1, "wordID": 1526, "type": "PRES_VIS", "trial_index": 94}, "uniqueid": "MTK2940:3YDTZAI2WYNLMHOVOIQ6M3TSVYQ414", "dateTime": 1519593805072}, {"current_trial": 95, "trialdata": {"rt": -1, "trial_type": "single-stim", "word": "atlas", "stimulus": "<p id=\"stim\">ATLAS</p>", "conditions": [24, 1600, "v", 12000], "internal_node_id": "0.0-68.0", "trial": 2, "time_elapsed": 431233, "serialpos": 6, "key_press": -1, "wordID": 52, "type": "PRES_VIS", "trial_index": 95}, "uniqueid": "MTK2940:3YDTZAI2WYNLMHOVOIQ6M3TSVYQ414", "dateTime": 1519593807803}, {"current_trial": 96, "trialdata": {"rt": -1, "trial_type": "single-stim", "word": "monster", "stimulus": "<p id=\"stim\">MONSTER</p>", "conditions": [24, 1600, "v", 12000], "internal_node_id": "0.0-69.0", "trial": 2, "time_elapsed": 433915, "serialpos": 7, "key_press": -1, "wordID": 911, "type": "PRES_VIS", "trial_index": 96}, "uniqueid": "MTK2940:3YDTZAI2WYNLMHOVOIQ6M3TSVYQ414", "dateTime": 1519593810485}, {"current_trial": 97, "trialdata": {"rt": -1, "trial_type": "single-stim", "word": "table", "stimulus": "<p id=\"stim\">TABLE</p>", "conditions": [24, 1600, "v", 12000], "internal_node_id": "0.0-70.0", "trial": 2, "time_elapsed": 436384, "serialpos": 8, "key_press": -1, "wordID": 1425, "type": "PRES_VIS", "trial_index": 97}, "uniqueid": "MTK2940:3YDTZAI2WYNLMHOVOIQ6M3TSVYQ414", "dateTime": 1519593812954}, {"current_trial": 98, "trialdata": {"rt": -1, "trial_type": "single-stim", "word": "skillet", "stimulus": "<p id=\"stim\">SKILLET</p>", "conditions": [24, 1600, "v", 12000], "internal_node_id": "0.0-71.0", "trial": 2, "time_elapsed": 439144, "serialpos": 9, "key_press": -1, "wordID": 1316, "type": "PRES_VIS", "trial_index": 98}, "uniqueid": "MTK2940:3YDTZAI2WYNLMHOVOIQ6M3TSVYQ414", "dateTime": 1519593815714}, {"current_trial": 99, "trialdata": {"rt": -1, "trial_type": "single-stim", "word": "suspect", "stimulus": "<p id=\"stim\">SUSPECT</p>", "conditions": [24, 1600, "v", 12000], "internal_node_id": "0.0-72.0", "trial": 2, "time_elapsed": 441637, "serialpos": 10, "key_press": -1, "wordID": 1414, "type": "PRES_VIS", "trial_index": 99}, "uniqueid": "MTK2940:3YDTZAI2WYNLMHOVOIQ6M3TSVYQ414", "dateTime": 1519593818207}, {"current_trial": 100, "trialdata": {"rt": -1, "trial_type": "single-stim", "word": "robber", "stimulus": "<p id=\"stim\">ROBBER</p>", "conditions": [24, 1600, "v", 12000], "internal_node_id": "0.0-73.0", "trial": 2, "time_elapsed": 444432, "serialpos": 11, "key_press": -1, "wordID": 1196, "type": "PRES_VIS", "trial_index": 100}, "uniqueid": "MTK2940:3YDTZAI2WYNLMHOVOIQ6M3TSVYQ414", "dateTime": 1519593821002}, {"current_trial": 101, "trialdata": {"rt": -1, "trial_type": "single-stim", "word": "burglar", "stimulus": "<p id=\"stim\">BURGLAR</p>", "conditions": [24, 1600, "v", 12000], "internal_node_id": "0.0-74.0", "trial": 2, "time_elapsed": 446912, "serialpos": 12, "key_press": -1, "wordID": 199, "type": "PRES_VIS", "trial_index": 101}, "uniqueid": "MTK2940:3YDTZAI2WYNLMHOVOIQ6M3TSVYQ414", "dateTime": 1519593823483}, {"current_trial": 102, "trialdata": {"rt": -1, "trial_type": "single-stim", "word": "convict", "stimulus": "<p id=\"stim\">CONVICT</p>", "conditions": [24, 1600, "v", 12000], "internal_node_id": "0.0-75.0", "trial": 2, "time_elapsed": 449537, "serialpos": 13, "key_press": -1, "wordID": 370, "type": "PRES_VIS", "trial_index": 102}, "uniqueid": "MTK2940:3YDTZAI2WYNLMHOVOIQ6M3TSVYQ414", "dateTime": 1519593826107}, {"current_trial": 103, "trialdata": {"rt": -1, "trial_type": "single-stim", "word": "notebook", "stimulus": "<p id=\"stim\">NOTEBOOK</p>", "conditions": [24, 1600, "v", 12000], "internal_node_id": "0.0-76.0", "trial": 2, "time_elapsed": 451960, "serialpos": 14, "key_press": -1, "wordID": 958, "type": "PRES_VIS", "trial_index": 103}, "uniqueid": "MTK2940:3YDTZAI2WYNLMHOVOIQ6M3TSVYQ414", "dateTime": 1519593828530}, {"current_trial": 104, "trialdata": {"rt": -1, "trial_type": "single-stim", "word": "wardrobe", "stimulus": "<p id=\"stim\">WARDROBE</p>", "conditions": [24, 1600, "v", 12000], "internal_node_id": "0.0-77.0", "trial": 2, "time_elapsed": 454679, "serialpos": 15, "key_press": -1, "wordID": 1586, "type": "PRES_VIS", "trial_index": 104}, "uniqueid": "MTK2940:3YDTZAI2WYNLMHOVOIQ6M3TSVYQ414", "dateTime": 1519593831249}, {"current_trial": 105, "trialdata": {"rt": -1, "trial_type": "single-stim", "word": "quail", "stimulus": "<p id=\"stim\">QUAIL</p>", "conditions": [24, 1600, "v", 12000], "internal_node_id": "0.0-78.0", "trial": 2, "time_elapsed": 457235, "serialpos": 16, "key_press": -1, "wordID": 1146, "type": "PRES_VIS", "trial_index": 105}, "uniqueid": "MTK2940:3YDTZAI2WYNLMHOVOIQ6M3TSVYQ414", "dateTime": 1519593833805}, {"current_trial": 106, "trialdata": {"rt": -1, "trial_type": "single-stim", "word": "grape", "stimulus": "<p id=\"stim\">GRAPE</p>", "conditions": [24, 1600, "v", 12000], "internal_node_id": "0.0-79.0", "trial": 2, "time_elapsed": 459957, "serialpos": 17, "key_press": -1, "wordID": 653, "type": "PRES_VIS", "trial_index": 106}, "uniqueid": "MTK2940:3YDTZAI2WYNLMHOVOIQ6M3TSVYQ414", "dateTime": 1519593836528}, {"current_trial": 107, "trialdata": {"rt": -1, "trial_type": "single-stim", "word": "football", "stimulus": "<p id=\"stim\">FOOTBALL</p>", "conditions": [24, 1600, "v", 12000], "internal_node_id": "0.0-80.0", "trial": 2, "time_elapsed": 462631, "serialpos": 18, "key_press": -1, "wordID": 590, "type": "PRES_VIS", "trial_index": 107}, "uniqueid": "MTK2940:3YDTZAI2WYNLMHOVOIQ6M3TSVYQ414", "dateTime": 1519593839201}, {"current_trial": 108, "trialdata": {"rt": -1, "trial_type": "single-stim", "word": "fox", "stimulus": "<p id=\"stim\">FOX</p>", "conditions": [24, 1600, "v", 12000], "internal_node_id": "0.0-81.0", "trial": 2, "time_elapsed": 465094, "serialpos": 19, "key_press": -1, "wordID": 597, "type": "PRES_VIS", "trial_index": 108}, "uniqueid": "MTK2940:3YDTZAI2WYNLMHOVOIQ6M3TSVYQ414", "dateTime": 1519593841665}, {"current_trial": 109, "trialdata": {"rt": -1, "trial_type": "single-stim", "word": "creature", "stimulus": "<p id=\"stim\">CREATURE</p>", "conditions": [24, 1600, "v", 12000], "internal_node_id": "0.0-82.0", "trial": 2, "time_elapsed": 467897, "serialpos": 20, "key_press": -1, "wordID": 402, "type": "PRES_VIS", "trial_index": 109}, "uniqueid": "MTK2940:3YDTZAI2WYNLMHOVOIQ6M3TSVYQ414", "dateTime": 1519593844467}, {"current_trial": 110, "trialdata": {"rt": -1, "trial_type": "single-stim", "word": "costume", "stimulus": "<p id=\"stim\">COSTUME</p>", "conditions": [24, 1600, "v", 12000], "internal_node_id": "0.0-83.0", "trial": 2, "time_elapsed": 470605, "serialpos": 21, "key_press": -1, "wordID": 382, "type": "PRES_VIS", "trial_index": 110}, "uniqueid": "MTK2940:3YDTZAI2WYNLMHOVOIQ6M3TSVYQ414", "dateTime": 1519593847175}, {"current_trial": 111, "trialdata": {"rt": -1, "trial_type": "single-stim", "word": "puddle", "stimulus": "<p id=\"stim\">PUDDLE</p>", "conditions": [24, 1600, "v", 12000], "internal_node_id": "0.0-84.0", "trial": 2, "time_elapsed": 473342, "serialpos": 22, "key_press": -1, "wordID": 1139, "type": "PRES_VIS", "trial_index": 111}, "uniqueid": "MTK2940:3YDTZAI2WYNLMHOVOIQ6M3TSVYQ414", "dateTime": 1519593849912}, {"current_trial": 112, "trialdata": {"rt": -1, "trial_type": "single-stim", "word": "sunrise", "stimulus": "<p id=\"stim\">SUNRISE</p>", "conditions": [24, 1600, "v", 12000], "internal_node_id": "0.0-85.0", "trial": 2, "time_elapsed": 476093, "serialpos": 23, "key_press": -1, "wordID": 1406, "type": "PRES_VIS", "trial_index": 112}, "uniqueid": "MTK2940:3YDTZAI2WYNLMHOVOIQ6M3TSVYQ414", "dateTime": 1519593852663}, {"current_trial": 113, "trialdata": {"rt": -1, "trial_type": "single-stim", "stimulus": "", "internal_node_id": "0.0-86.0-0.0", "time_elapsed": 478395, "key_press": -1, "type": "PRE_RECALL_DELAY", "trial_index": 113}, "uniqueid": "MTK2940:3YDTZAI2WYNLMHOVOIQ6M3TSVYQ414", "dateTime": 1519593854965}, {"current_trial": 114, "trialdata": {"rt": -1000, "trial_type": "single-audio", "stimulus": "/static/audio/400Hz.wav", "internal_node_id": "0.0-87.0", "time_elapsed": 478897, "key_press": -1, "type": "PRE_RECALL_ALERT", "trial_index": 114}, "uniqueid": "MTK2940:3YDTZAI2WYNLMHOVOIQ6M3TSVYQ414", "dateTime": 1519593855467}, {"current_trial": 115, "trialdata": {"rt": [5362, 7969, 9793, 12937, 15009, 16257, 18825, 20962, 22826, 26481, 29378, 31699, 35195, 37778, 44115, 46259, 50370, 56364], "recwords": ["puddle", "sunrise", "grape", "football", "spoon", "sister", "apple", "lion", "turtle", "monster", "burglar", "convct", "jelly", "skillet", "robber", "burglar", "quail", "fox"], "key_times": [2298, 2537, 2810, 3009, 3449, 3617, 3810, 4497, 4682, 4801, 4961, 5098, 5362, 6162, 6721, 6865, 7097, 7458, 7546, 7737, 7969, 9058, 9281, 9370, 9521, 9617, 9793, 10026, 10209, 10426, 10593, 11363, 11731, 12025, 12242, 12434, 12553, 12937, 13802, 14162, 14377, 14497, 14690, 15009, 15297, 15626, 15705, 15930, 15994, 16097, 16257, 17483, 17849, 17969, 18194, 18578, 18825, 20073, 20345, 20409, 20610, 20962, 21649, 21922, 21993, 22202, 22337, 22442, 22826, 25354, 25562, 25762, 25865, 26050, 26170, 26258, 26481, 27818, 28163, 28305, 28554, 28922, 29002, 29097, 29378, 29642, 30097, 30306, 30401, 30665, 31075, 31699, 34346, 34458, 34722, 34851, 35043, 35195, 35482, 35891, 36154, 36363, 36523, 36754, 36874, 37130, 37346, 37778, 42715, 42996, 43420, 43571, 43907, 43935, 44115, 44770, 45178, 45306, 45514, 45739, 45834, 45915, 46259, 48099, 48379, 48627, 48850, 49323, 49586, 49938, 50370, 55683, 56003, 56091, 56364, 58570, 58868, 59003, 59179, 59436], "trial_type": "free-recall", "conditions": [24, 1600, "v", 12000], "internal_node_id": "0.0-88.0-0.0", "key_presses": [80, 80, 85, 68, 8, 8, 8, 85, 68, 68, 76, 69, 13, 83, 85, 78, 82, 73, 83, 69, 13, 71, 82, 65, 80, 69, 13, 70, 79, 79, 84, 65, 8, 66, 65, 76, 76, 13, 83, 80, 79, 79, 78, 13, 83, 73, 83, 84, 69, 82, 13, 65, 80, 80, 76, 69, 13, 76, 73, 79, 78, 13, 84, 85, 82, 84, 76, 69, 13, 77, 79, 78, 83, 84, 69, 82, 13, 66, 85, 82, 71, 76, 65, 82, 13, 67, 79, 78, 86, 67, 84, 13, 74, 69, 76, 76, 89, 13, 83, 76, 8, 75, 73, 76, 76, 69, 84, 13, 82, 79, 66, 66, 69, 82, 13, 66, 85, 82, 71, 76, 65, 82, 13, 81, 85, 65, 76, 8, 73, 76, 13, 70, 79, 88, 13, 70, 79, 79, 84, 76], "trial": 2, "time_elapsed": 538903, "type": "FREE_RECALL", "trial_index": 115}, "uniqueid": "MTK2940:3YDTZAI2WYNLMHOVOIQ6M3TSVYQ414", "dateTime": 1519593915476}, {"current_trial": 116, "trialdata": {"rt": 16167, "trial_type": "text", "internal_node_id": "0.0-89.0", "time_elapsed": 557078, "key_press": 32, "type": "INSTRUCTIONS", "trial_index": 116}, "uniqueid": "MTK2940:3YDTZAI2WYNLMHOVOIQ6M3TSVYQ414", "dateTime": 1519593933648}, {"current_trial": 117, "trialdata": {"rt": [2409, 4713, 6417, 9713, 11946], "trial_type": "math-distractor", "key_times": [1818, 2065, 2409, 3906, 4210, 4713, 5930, 6097, 6417, 8907, 9346, 9713, 11362, 11635, 11946], "responses": ["19", "17", "10", "19", "17"], "num2": [8, 6, 3, 8, 6, 2], "num3": [9, 4, 3, 7, 5, 1], "conditions": [12, 1600, "v", 12000], "internal_node_id": "0.0-90.0", "key_presses": [49, 57, 13, 49, 55, 13, 49, 48, 13, 49, 57, 13, 49, 55, 13], "trial": 3, "time_elapsed": 571087, "type": "DISTRACTOR", "trial_index": 117, "num1": [2, 7, 4, 4, 6, 2]}, "uniqueid": "MTK2940:3YDTZAI2WYNLMHOVOIQ6M3TSVYQ414", "dateTime": 1519593947658}, {"current_trial": 118, "trialdata": {"rt": -1, "trial_type": "single-stim", "stimulus": "<p id=\"stim\">10</p>", "internal_node_id": "0.0-91.0-0.0", "time_elapsed": 574094, "key_press": -1, "trial_index": 118}, "uniqueid": "MTK2940:3YDTZAI2WYNLMHOVOIQ6M3TSVYQ414", "dateTime": 1519593950664}, {"current_trial": 119, "trialdata": {"rt": -1, "trial_type": "single-stim", "stimulus": "<p id=\"stim\">9</p>", "internal_node_id": "0.0-91.0-1.0", "time_elapsed": 575097, "key_press": -1, "trial_index": 119}, "uniqueid": "MTK2940:3YDTZAI2WYNLMHOVOIQ6M3TSVYQ414", "dateTime": 1519593951668}, {"current_trial": 120, "trialdata": {"rt": -1, "trial_type": "single-stim", "stimulus": "<p id=\"stim\">8</p>", "internal_node_id": "0.0-91.0-2.0", "time_elapsed": 576102, "key_press": -1, "trial_index": 120}, "uniqueid": "MTK2940:3YDTZAI2WYNLMHOVOIQ6M3TSVYQ414", "dateTime": 1519593952672}, {"current_trial": 121, "trialdata": {"rt": -1, "trial_type": "single-stim", "stimulus": "<p id=\"stim\">7</p>", "internal_node_id": "0.0-91.0-3.0", "time_elapsed": 577106, "key_press": -1, "trial_index": 121}, "uniqueid": "MTK2940:3YDTZAI2WYNLMHOVOIQ6M3TSVYQ414", "dateTime": 1519593953676}, {"current_trial": 122, "trialdata": {"rt": -1, "trial_type": "single-stim", "stimulus": "<p id=\"stim\">6</p>", "internal_node_id": "0.0-91.0-4.0", "time_elapsed": 578110, "key_press": -1, "trial_index": 122}, "uniqueid": "MTK2940:3YDTZAI2WYNLMHOVOIQ6M3TSVYQ414", "dateTime": 1519593954680}, {"current_trial": 123, "trialdata": {"rt": -1, "trial_type": "single-stim", "stimulus": "<p id=\"stim\">5</p>", "internal_node_id": "0.0-91.0-5.0", "time_elapsed": 579114, "key_press": -1, "trial_index": 123}, "uniqueid": "MTK2940:3YDTZAI2WYNLMHOVOIQ6M3TSVYQ414", "dateTime": 1519593955684}, {"current_trial": 124, "trialdata": {"rt": -1, "trial_type": "single-stim", "stimulus": "<p id=\"stim\">4</p>", "internal_node_id": "0.0-91.0-6.0", "time_elapsed": 580118, "key_press": -1, "trial_index": 124}, "uniqueid": "MTK2940:3YDTZAI2WYNLMHOVOIQ6M3TSVYQ414", "dateTime": 1519593956689}, {"current_trial": 125, "trialdata": {"rt": -1, "trial_type": "single-stim", "stimulus": "<p id=\"stim\">3</p>", "internal_node_id": "0.0-91.0-7.0", "time_elapsed": 581122, "key_press": -1, "trial_index": 125}, "uniqueid": "MTK2940:3YDTZAI2WYNLMHOVOIQ6M3TSVYQ414", "dateTime": 1519593957692}, {"current_trial": 126, "trialdata": {"rt": -1, "trial_type": "single-stim", "stimulus": "<p id=\"stim\">2</p>", "internal_node_id": "0.0-91.0-8.0", "time_elapsed": 582126, "key_press": -1, "trial_index": 126}, "uniqueid": "MTK2940:3YDTZAI2WYNLMHOVOIQ6M3TSVYQ414", "dateTime": 1519593958696}, {"current_trial": 127, "trialdata": {"rt": -1, "trial_type": "single-stim", "stimulus": "<p id=\"stim\">1</p>", "internal_node_id": "0.0-91.0-9.0", "time_elapsed": 583130, "key_press": -1, "trial_index": 127}, "uniqueid": "MTK2940:3YDTZAI2WYNLMHOVOIQ6M3TSVYQ414", "dateTime": 1519593959700}, {"current_trial": 128, "trialdata": {"rt": -1, "trial_type": "single-stim", "stimulus": "<p id=\"stim\">+</p>", "internal_node_id": "0.0-92.0-0.0", "time_elapsed": 584634, "key_press": -1, "type": "FIXATION", "trial_index": 128}, "uniqueid": "MTK2940:3YDTZAI2WYNLMHOVOIQ6M3TSVYQ414", "dateTime": 1519593961204}, {"current_trial": 129, "trialdata": {"rt": -1, "trial_type": "single-stim", "word": "toaster", "stimulus": "<p id=\"stim\">TOASTER</p>", "conditions": [12, 1600, "v", 12000], "internal_node_id": "0.0-93.0", "trial": 3, "time_elapsed": 586235, "serialpos": 0, "key_press": -1, "wordID": 1471, "type": "PRES_VIS", "trial_index": 129}, "uniqueid": "MTK2940:3YDTZAI2WYNLMHOVOIQ6M3TSVYQ414", "dateTime": 1519593962805}, {"current_trial": 130, "trialdata": {"rt": -1, "trial_type": "single-stim", "word": "picture", "stimulus": "<p id=\"stim\">PICTURE</p>", "conditions": [12, 1600, "v", 12000], "internal_node_id": "0.0-94.0", "trial": 3, "time_elapsed": 588684, "serialpos": 1, "key_press": -1, "wordID": 1060, "type": "PRES_VIS", "trial_index": 130}, "uniqueid": "MTK2940:3YDTZAI2WYNLMHOVOIQ6M3TSVYQ414", "dateTime": 1519593965254}, {"current_trial": 131, "trialdata": {"rt": -1, "trial_type": "single-stim", "word": "plaza", "stimulus": "<p id=\"stim\">PLAZA</p>", "conditions": [12, 1600, "v", 12000], "internal_node_id": "0.0-95.0", "trial": 3, "time_elapsed": 591309, "serialpos": 2, "key_press": -1, "wordID": 1087, "type": "PRES_VIS", "trial_index": 131}, "uniqueid": "MTK2940:3YDTZAI2WYNLMHOVOIQ6M3TSVYQ414", "dateTime": 1519593967879}, {"current_trial": 132, "trialdata": {"rt": -1, "trial_type": "single-stim", "word": "chapel", "stimulus": "<p id=\"stim\">CHAPEL</p>", "conditions": [12, 1600, "v", 12000], "internal_node_id": "0.0-96.0", "trial": 3, "time_elapsed": 593880, "serialpos": 3, "key_press": -1, "wordID": 279, "type": "PRES_VIS", "trial_index": 132}, "uniqueid": "MTK2940:3YDTZAI2WYNLMHOVOIQ6M3TSVYQ414", "dateTime": 1519593970450}, {"current_trial": 133, "trialdata": {"rt": -1, "trial_type": "single-stim", "word": "scissors", "stimulus": "<p id=\"stim\">SCISSORS</p>", "conditions": [12, 1600, "v", 12000], "internal_node_id": "0.0-97.0", "trial": 3, "time_elapsed": 596463, "serialpos": 4, "key_press": -1, "wordID": 1249, "type": "PRES_VIS", "trial_index": 133}, "uniqueid": "MTK2940:3YDTZAI2WYNLMHOVOIQ6M3TSVYQ414", "dateTime": 1519593973033}, {"current_trial": 134, "trialdata": {"rt": -1, "trial_type": "single-stim", "word": "portrait", "stimulus": "<p id=\"stim\">PORTRAIT</p>", "conditions": [12, 1600, "v", 12000], "internal_node_id": "0.0-98.0", "trial": 3, "time_elapsed": 599196, "serialpos": 5, "key_press": -1, "wordID": 1110, "type": "PRES_VIS", "trial_index": 134}, "uniqueid": "MTK2940:3YDTZAI2WYNLMHOVOIQ6M3TSVYQ414", "dateTime": 1519593975766}, {"current_trial": 135, "trialdata": {"rt": -1, "trial_type": "single-stim", "word": "ointment", "stimulus": "<p id=\"stim\">OINTMENT</p>", "conditions": [12, 1600, "v", 12000], "internal_node_id": "0.0-99.0", "trial": 3, "time_elapsed": 601982, "serialpos": 6, "key_press": -1, "wordID": 973, "type": "PRES_VIS", "trial_index": 135}, "uniqueid": "MTK2940:3YDTZAI2WYNLMHOVOIQ6M3TSVYQ414", "dateTime": 1519593978553}, {"current_trial": 136, "trialdata": {"rt": -1, "trial_type": "single-stim", "word": "shark", "stimulus": "<p id=\"stim\">SHARK</p>", "conditions": [12, 1600, "v", 12000], "internal_node_id": "0.0-100.0", "trial": 3, "time_elapsed": 604780, "serialpos": 7, "key_press": -1, "wordID": 1274, "type": "PRES_VIS", "trial_index": 136}, "uniqueid": "MTK2940:3YDTZAI2WYNLMHOVOIQ6M3TSVYQ414", "dateTime": 1519593981350}, {"current_trial": 137, "trialdata": {"rt": -1, "trial_type": "single-stim", "word": "dolphin", "stimulus": "<p id=\"stim\">DOLPHIN</p>", "conditions": [12, 1600, "v", 12000], "internal_node_id": "0.0-101.0", "trial": 3, "time_elapsed": 607484, "serialpos": 8, "key_press": -1, "wordID": 482, "type": "PRES_VIS", "trial_index": 137}, "uniqueid": "MTK2940:3YDTZAI2WYNLMHOVOIQ6M3TSVYQ414", "dateTime": 1519593984054}, {"current_trial": 138, "trialdata": {"rt": -1, "trial_type": "single-stim", "word": "ozone", "stimulus": "<p id=\"stim\">OZONE</p>", "conditions": [12, 1600, "v", 12000], "internal_node_id": "0.0-102.0", "trial": 3, "time_elapsed": 609946, "serialpos": 9, "key_press": -1, "wordID": 995, "type": "PRES_VIS", "trial_index": 138}, "uniqueid": "MTK2940:3YDTZAI2WYNLMHOVOIQ6M3TSVYQ414", "dateTime": 1519593986516}, {"current_trial": 139, "trialdata": {"rt": -1, "trial_type": "single-stim", "word": "bathtub", "stimulus": "<p id=\"stim\">BATHTUB</p>", "conditions": [12, 1600, "v", 12000], "internal_node_id": "0.0-103.0", "trial": 3, "time_elapsed": 612389, "serialpos": 10, "key_press": -1, "wordID": 99, "type": "PRES_VIS", "trial_index": 139}, "uniqueid": "MTK2940:3YDTZAI2WYNLMHOVOIQ6M3TSVYQ414", "dateTime": 1519593988959}, {"current_trial": 140, "trialdata": {"rt": -1, "trial_type": "single-stim", "word": "seagull", "stimulus": "<p id=\"stim\">SEAGULL</p>", "conditions": [12, 1600, "v", 12000], "internal_node_id": "0.0-104.0", "trial": 3, "time_elapsed": 615099, "serialpos": 11, "key_press": -1, "wordID": 1260, "type": "PRES_VIS", "trial_index": 140}, "uniqueid": "MTK2940:3YDTZAI2WYNLMHOVOIQ6M3TSVYQ414", "dateTime": 1519593991669}, {"current_trial": 141, "trialdata": {"rt": -1, "trial_type": "single-stim", "stimulus": "", "internal_node_id": "0.0-105.0-0.0", "time_elapsed": 617590, "key_press": -1, "type": "PRE_RECALL_DELAY", "trial_index": 141}, "uniqueid": "MTK2940:3YDTZAI2WYNLMHOVOIQ6M3TSVYQ414", "dateTime": 1519593994160}, {"current_trial": 142, "trialdata": {"rt": -1000, "trial_type": "single-audio", "stimulus": "/static/audio/400Hz.wav", "internal_node_id": "0.0-106.0", "time_elapsed": 618091, "key_press": -1, "type": "PRE_RECALL_ALERT", "trial_index": 142}, "uniqueid": "MTK2940:3YDTZAI2WYNLMHOVOIQ6M3TSVYQ414", "dateTime": 1519593994661}, {"current_trial": 143, "trialdata": {"rt": [5451, 8899, 11491, 13067, 16019, 19771, 23067, 26899, 28789, 33612, 35428, 39572, 52789], "recwords": ["bathtub'", "ozone", "seagull", "shark", "dolphin", "ointment", "scissors", "plaza", "picture", "chapel", "church", "shark", "ozone"], "key_times": [3516, 3651, 3859, 4003, 4434, 4867, 5099, 5443, 5451, 7459, 8019, 8307, 8587, 8699, 8899, 9195, 9555, 9739, 10435, 10795, 11083, 11212, 11491, 11971, 12311, 12411, 12522, 12867, 13067, 13283, 14084, 14243, 14403, 14867, 15436, 15603, 16019, 18091, 18268, 18451, 18707, 19092, 19203, 19363, 19523, 19771, 21140, 21451, 21827, 22124, 22235, 22444, 22588, 22763, 23067, 24213, 24412, 24492, 24596, 25252, 25522, 26412, 26643, 26899, 27523, 27749, 27869, 28092, 28373, 28436, 28476, 28789, 31453, 32245, 32668, 32940, 33221, 33372, 33612, 34036, 34300, 34508, 34620, 34860, 35116, 35428, 38107, 38340, 38427, 38556, 39052, 39572, 51501, 51845, 52149, 52389, 52556, 52789, 59949], "trial_type": "free-recall", "conditions": [12, 1600, "v", 12000], "internal_node_id": "0.0-107.0-0.0", "key_presses": [66, 65, 84, 72, 84, 85, 66, 222, 13, 79, 90, 79, 78, 69, 13, 83, 69, 65, 71, 85, 76, 76, 13, 83, 72, 65, 82, 75, 13, 68, 79, 76, 80, 72, 73, 78, 13, 79, 73, 78, 84, 77, 69, 78, 84, 13, 83, 67, 73, 83, 83, 79, 82, 83, 13, 80, 76, 65, 83, 8, 16, 90, 65, 13, 80, 73, 67, 84, 85, 82, 69, 13, 67, 72, 65, 80, 69, 76, 13, 67, 72, 85, 82, 67, 72, 13, 83, 72, 65, 82, 75, 13, 79, 90, 79, 78, 69, 13, 83], "trial": 3, "time_elapsed": 678100, "type": "FREE_RECALL", "trial_index": 143}, "uniqueid": "MTK2940:3YDTZAI2WYNLMHOVOIQ6M3TSVYQ414", "dateTime": 1519594054675}, {"current_trial": 144, "trialdata": {"rt": 1613, "trial_type": "text", "internal_node_id": "0.0-108.0", "time_elapsed": 681722, "key_press": 32, "type": "INSTRUCTIONS", "trial_index": 144}, "uniqueid": "MTK2940:3YDTZAI2WYNLMHOVOIQ6M3TSVYQ414", "dateTime": 1519594058292}, {"current_trial": 145, "trialdata": {"rt": [2678, 5036, 7918, 10286], "trial_type": "math-distractor", "key_times": [2036, 2309, 2678, 4581, 4764, 5036, 7486, 7692, 7918, 9492, 9941, 10286], "responses": ["16", "23", "20", "19"], "num2": [1, 8, 5, 5, 5], "num3": [8, 7, 7, 7, 6], "conditions": [24, 800, "v", 12000], "internal_node_id": "0.0-109.0", "key_presses": [49, 54, 13, 50, 51, 13, 50, 48, 13, 49, 57, 13], "trial": 4, "time_elapsed": 695727, "type": "DISTRACTOR", "trial_index": 145, "num1": [7, 8, 8, 7, 8]}, "uniqueid": "MTK2940:3YDTZAI2WYNLMHOVOIQ6M3TSVYQ414", "dateTime": 1519594072297}, {"current_trial": 146, "trialdata": {"rt": -1, "trial_type": "single-stim", "stimulus": "<p id=\"stim\">10</p>", "internal_node_id": "0.0-110.0-0.0", "time_elapsed": 698732, "key_press": -1, "trial_index": 146}, "uniqueid": "MTK2940:3YDTZAI2WYNLMHOVOIQ6M3TSVYQ414", "dateTime": 1519594075303}, {"current_trial": 147, "trialdata": {"rt": -1, "trial_type": "single-stim", "stimulus": "<p id=\"stim\">9</p>", "internal_node_id": "0.0-110.0-1.0", "time_elapsed": 699737, "key_press": -1, "trial_index": 147}, "uniqueid": "MTK2940:3YDTZAI2WYNLMHOVOIQ6M3TSVYQ414", "dateTime": 1519594076307}, {"current_trial": 148, "trialdata": {"rt": -1, "trial_type": "single-stim", "stimulus": "<p id=\"stim\">8</p>", "internal_node_id": "0.0-110.0-2.0", "time_elapsed": 700741, "key_press": -1, "trial_index": 148}, "uniqueid": "MTK2940:3YDTZAI2WYNLMHOVOIQ6M3TSVYQ414", "dateTime": 1519594077311}, {"current_trial": 149, "trialdata": {"rt": -1, "trial_type": "single-stim", "stimulus": "<p id=\"stim\">7</p>", "internal_node_id": "0.0-110.0-3.0", "time_elapsed": 701746, "key_press": -1, "trial_index": 149}, "uniqueid": "MTK2940:3YDTZAI2WYNLMHOVOIQ6M3TSVYQ414", "dateTime": 1519594078316}, {"current_trial": 150, "trialdata": {"rt": -1, "trial_type": "single-stim", "stimulus": "<p id=\"stim\">6</p>", "internal_node_id": "0.0-110.0-4.0", "time_elapsed": 702750, "key_press": -1, "trial_index": 150}, "uniqueid": "MTK2940:3YDTZAI2WYNLMHOVOIQ6M3TSVYQ414", "dateTime": 1519594079320}, {"current_trial": 151, "trialdata": {"rt": -1, "trial_type": "single-stim", "stimulus": "<p id=\"stim\">5</p>", "internal_node_id": "0.0-110.0-5.0", "time_elapsed": 703755, "key_press": -1, "trial_index": 151}, "uniqueid": "MTK2940:3YDTZAI2WYNLMHOVOIQ6M3TSVYQ414", "dateTime": 1519594080326}, {"current_trial": 152, "trialdata": {"rt": -1, "trial_type": "single-stim", "stimulus": "<p id=\"stim\">4</p>", "internal_node_id": "0.0-110.0-6.0", "time_elapsed": 704758, "key_press": -1, "trial_index": 152}, "uniqueid": "MTK2940:3YDTZAI2WYNLMHOVOIQ6M3TSVYQ414", "dateTime": 1519594081328}, {"current_trial": 153, "trialdata": {"rt": -1, "trial_type": "single-stim", "stimulus": "<p id=\"stim\">3</p>", "internal_node_id": "0.0-110.0-7.0", "time_elapsed": 705761, "key_press": -1, "trial_index": 153}, "uniqueid": "MTK2940:3YDTZAI2WYNLMHOVOIQ6M3TSVYQ414", "dateTime": 1519594082332}, {"current_trial": 154, "trialdata": {"rt": -1, "trial_type": "single-stim", "stimulus": "<p id=\"stim\">2</p>", "internal_node_id": "0.0-110.0-8.0", "time_elapsed": 706765, "key_press": -1, "trial_index": 154}, "uniqueid": "MTK2940:3YDTZAI2WYNLMHOVOIQ6M3TSVYQ414", "dateTime": 1519594083335}, {"current_trial": 155, "trialdata": {"rt": -1, "trial_type": "single-stim", "stimulus": "<p id=\"stim\">1</p>", "internal_node_id": "0.0-110.0-9.0", "time_elapsed": 707770, "key_press": -1, "trial_index": 155}, "uniqueid": "MTK2940:3YDTZAI2WYNLMHOVOIQ6M3TSVYQ414", "dateTime": 1519594084340}, {"current_trial": 156, "trialdata": {"rt": -1, "trial_type": "single-stim", "stimulus": "<p id=\"stim\">+</p>", "internal_node_id": "0.0-111.0-0.0", "time_elapsed": 709273, "key_press": -1, "type": "FIXATION", "trial_index": 156}, "uniqueid": "MTK2940:3YDTZAI2WYNLMHOVOIQ6M3TSVYQ414", "dateTime": 1519594085844}, {"current_trial": 157, "trialdata": {"rt": -1, "trial_type": "single-stim", "word": "cocktail", "stimulus": "<p id=\"stim\">COCKTAIL</p>", "conditions": [24, 800, "v", 12000], "internal_node_id": "0.0-112.0", "trial": 4, "time_elapsed": 710079, "serialpos": 0, "key_press": -1, "wordID": 337, "type": "PRES_VIS", "trial_index": 157}, "uniqueid": "MTK2940:3YDTZAI2WYNLMHOVOIQ6M3TSVYQ414", "dateTime": 1519594086650}, {"current_trial": 158, "trialdata": {"rt": -1, "trial_type": "single-stim", "word": "pliers", "stimulus": "<p id=\"stim\">PLIERS</p>", "conditions": [24, 800, "v", 12000], "internal_node_id": "0.0-113.0", "trial": 4, "time_elapsed": 711873, "serialpos": 1, "key_press": -1, "wordID": 1088, "type": "PRES_VIS", "trial_index": 158}, "uniqueid": "MTK2940:3YDTZAI2WYNLMHOVOIQ6M3TSVYQ414", "dateTime": 1519594088444}, {"current_trial": 159, "trialdata": {"rt": -1, "trial_type": "single-stim", "word": "blouse", "stimulus": "<p id=\"stim\">BLOUSE</p>", "conditions": [24, 800, "v", 12000], "internal_node_id": "0.0-114.0", "trial": 4, "time_elapsed": 713533, "serialpos": 2, "key_press": -1, "wordID": 138, "type": "PRES_VIS", "trial_index": 159}, "uniqueid": "MTK2940:3YDTZAI2WYNLMHOVOIQ6M3TSVYQ414", "dateTime": 1519594090103}, {"current_trial": 160, "trialdata": {"rt": -1, "trial_type": "single-stim", "word": "rod", "stimulus": "<p id=\"stim\">ROD</p>", "conditions": [24, 800, "v", 12000], "internal_node_id": "0.0-115.0", "trial": 4, "time_elapsed": 715240, "serialpos": 3, "key_press": -1, "wordID": 1202, "type": "PRES_VIS", "trial_index": 160}, "uniqueid": "MTK2940:3YDTZAI2WYNLMHOVOIQ6M3TSVYQ414", "dateTime": 1519594091810}, {"current_trial": 161, "trialdata": {"rt": -1, "trial_type": "single-stim", "word": "spool", "stimulus": "<p id=\"stim\">SPOOL</p>", "conditions": [24, 800, "v", 12000], "internal_node_id": "0.0-116.0", "trial": 4, "time_elapsed": 717010, "serialpos": 4, "key_press": -1, "wordID": 1355, "type": "PRES_VIS", "trial_index": 161}, "uniqueid": "MTK2940:3YDTZAI2WYNLMHOVOIQ6M3TSVYQ414", "dateTime": 1519594093580}, {"current_trial": 162, "trialdata": {"rt": -1, "trial_type": "single-stim", "word": "patient", "stimulus": "<p id=\"stim\">PATIENT</p>", "conditions": [24, 800, "v", 12000], "internal_node_id": "0.0-117.0", "trial": 4, "time_elapsed": 718896, "serialpos": 5, "key_press": -1, "wordID": 1023, "type": "PRES_VIS", "trial_index": 162}, "uniqueid": "MTK2940:3YDTZAI2WYNLMHOVOIQ6M3TSVYQ414", "dateTime": 1519594095466}, {"current_trial": 163, "trialdata": {"rt": -1, "trial_type": "single-stim", "word": "daughter", "stimulus": "<p id=\"stim\">DAUGHTER</p>", "conditions": [24, 800, "v", 12000], "internal_node_id": "0.0-118.0", "trial": 4, "time_elapsed": 720690, "serialpos": 6, "key_press": -1, "wordID": 441, "type": "PRES_VIS", "trial_index": 163}, "uniqueid": "MTK2940:3YDTZAI2WYNLMHOVOIQ6M3TSVYQ414", "dateTime": 1519594097260}, {"current_trial": 164, "trialdata": {"rt": -1, "trial_type": "single-stim", "word": "fungus", "stimulus": "<p id=\"stim\">FUNGUS</p>", "conditions": [24, 800, "v", 12000], "internal_node_id": "0.0-119.0", "trial": 4, "time_elapsed": 722530, "serialpos": 7, "key_press": -1, "wordID": 613, "type": "PRES_VIS", "trial_index": 164}, "uniqueid": "MTK2940:3YDTZAI2WYNLMHOVOIQ6M3TSVYQ414", "dateTime": 1519594099100}, {"current_trial": 165, "trialdata": {"rt": -1, "trial_type": "single-stim", "word": "liver", "stimulus": "<p id=\"stim\">LIVER</p>", "conditions": [24, 800, "v", 12000], "internal_node_id": "0.0-120.0", "trial": 4, "time_elapsed": 724520, "serialpos": 8, "key_press": -1, "wordID": 832, "type": "PRES_VIS", "trial_index": 165}, "uniqueid": "MTK2940:3YDTZAI2WYNLMHOVOIQ6M3TSVYQ414", "dateTime": 1519594101091}, {"current_trial": 166, "trialdata": {"rt": -1, "trial_type": "single-stim", "word": "jello", "stimulus": "<p id=\"stim\">JELLO</p>", "conditions": [24, 800, "v", 12000], "internal_node_id": "0.0-121.0", "trial": 4, "time_elapsed": 726499, "serialpos": 9, "key_press": -1, "wordID": 753, "type": "PRES_VIS", "trial_index": 166}, "uniqueid": "MTK2940:3YDTZAI2WYNLMHOVOIQ6M3TSVYQ414", "dateTime": 1519594103069}, {"current_trial": 167, "trialdata": {"rt": -1, "trial_type": "single-stim", "word": "cobra", "stimulus": "<p id=\"stim\">COBRA</p>", "conditions": [24, 800, "v", 12000], "internal_node_id": "0.0-122.0", "trial": 4, "time_elapsed": 728334, "serialpos": 10, "key_press": -1, "wordID": 335, "type": "PRES_VIS", "trial_index": 167}, "uniqueid": "MTK2940:3YDTZAI2WYNLMHOVOIQ6M3TSVYQ414", "dateTime": 1519594104904}, {"current_trial": 168, "trialdata": {"rt": -1, "trial_type": "single-stim", "word": "girl", "stimulus": "<p id=\"stim\">GIRL</p>", "conditions": [24, 800, "v", 12000], "internal_node_id": "0.0-123.0", "trial": 4, "time_elapsed": 730186, "serialpos": 11, "key_press": -1, "wordID": 636, "type": "PRES_VIS", "trial_index": 168}, "uniqueid": "MTK2940:3YDTZAI2WYNLMHOVOIQ6M3TSVYQ414", "dateTime": 1519594106756}, {"current_trial": 169, "trialdata": {"rt": -1, "trial_type": "single-stim", "word": "vagrant", "stimulus": "<p id=\"stim\">VAGRANT</p>", "conditions": [24, 800, "v", 12000], "internal_node_id": "0.0-124.0", "trial": 4, "time_elapsed": 732055, "serialpos": 12, "key_press": -1, "wordID": 1543, "type": "PRES_VIS", "trial_index": 169}, "uniqueid": "MTK2940:3YDTZAI2WYNLMHOVOIQ6M3TSVYQ414", "dateTime": 1519594108625}, {"current_trial": 170, "trialdata": {"rt": -1, "trial_type": "single-stim", "word": "market", "stimulus": "<p id=\"stim\">MARKET</p>", "conditions": [24, 800, "v", 12000], "internal_node_id": "0.0-125.0", "trial": 4, "time_elapsed": 733795, "serialpos": 13, "key_press": -1, "wordID": 870, "type": "PRES_VIS", "trial_index": 170}, "uniqueid": "MTK2940:3YDTZAI2WYNLMHOVOIQ6M3TSVYQ414", "dateTime": 1519594110365}, {"current_trial": 171, "trialdata": {"rt": -1, "trial_type": "single-stim", "word": "shirt", "stimulus": "<p id=\"stim\">SHIRT</p>", "conditions": [24, 800, "v", 12000], "internal_node_id": "0.0-126.0", "trial": 4, "time_elapsed": 735635, "serialpos": 14, "key_press": -1, "wordID": 1286, "type": "PRES_VIS", "trial_index": 171}, "uniqueid": "MTK2940:3YDTZAI2WYNLMHOVOIQ6M3TSVYQ414", "dateTime": 1519594112205}, {"current_trial": 172, "trialdata": {"rt": -1, "trial_type": "single-stim", "word": "powder", "stimulus": "<p id=\"stim\">POWDER</p>", "conditions": [24, 800, "v", 12000], "internal_node_id": "0.0-127.0", "trial": 4, "time_elapsed": 737250, "serialpos": 15, "key_press": -1, "wordID": 1116, "type": "PRES_VIS", "trial_index": 172}, "uniqueid": "MTK2940:3YDTZAI2WYNLMHOVOIQ6M3TSVYQ414", "dateTime": 1519594113820}, {"current_trial": 173, "trialdata": {"rt": -1, "trial_type": "single-stim", "word": "tutu", "stimulus": "<p id=\"stim\">TUTU</p>", "conditions": [24, 800, "v", 12000], "internal_node_id": "0.0-128.0", "trial": 4, "time_elapsed": 738880, "serialpos": 16, "key_press": -1, "wordID": 1523, "type": "PRES_VIS", "trial_index": 173}, "uniqueid": "MTK2940:3YDTZAI2WYNLMHOVOIQ6M3TSVYQ414", "dateTime": 1519594115450}, {"current_trial": 174, "trialdata": {"rt": -1, "trial_type": "single-stim", "word": "dress", "stimulus": "<p id=\"stim\">DRESS</p>", "conditions": [24, 800, "v", 12000], "internal_node_id": "0.0-129.0", "trial": 4, "time_elapsed": 740668, "serialpos": 17, "key_press": -1, "wordID": 494, "type": "PRES_VIS", "trial_index": 174}, "uniqueid": "MTK2940:3YDTZAI2WYNLMHOVOIQ6M3TSVYQ414", "dateTime": 1519594117239}, {"current_trial": 175, "trialdata": {"rt": -1, "trial_type": "single-stim", "word": "headband", "stimulus": "<p id=\"stim\">HEADBAND</p>", "conditions": [24, 800, "v", 12000], "internal_node_id": "0.0-130.0", "trial": 4, "time_elapsed": 742629, "serialpos": 18, "key_press": -1, "wordID": 695, "type": "PRES_VIS", "trial_index": 175}, "uniqueid": "MTK2940:3YDTZAI2WYNLMHOVOIQ6M3TSVYQ414", "dateTime": 1519594119199}, {"current_trial": 176, "trialdata": {"rt": -1, "trial_type": "single-stim", "word": "island", "stimulus": "<p id=\"stim\">ISLAND</p>", "conditions": [24, 800, "v", 12000], "internal_node_id": "0.0-131.0", "trial": 4, "time_elapsed": 744597, "serialpos": 19, "key_press": -1, "wordID": 744, "type": "PRES_VIS", "trial_index": 176}, "uniqueid": "MTK2940:3YDTZAI2WYNLMHOVOIQ6M3TSVYQ414", "dateTime": 1519594121167}, {"current_trial": 177, "trialdata": {"rt": -1, "trial_type": "single-stim", "word": "empire", "stimulus": "<p id=\"stim\">EMPIRE</p>", "conditions": [24, 800, "v", 12000], "internal_node_id": "0.0-132.0", "trial": 4, "time_elapsed": 746298, "serialpos": 20, "key_press": -1, "wordID": 529, "type": "PRES_VIS", "trial_index": 177}, "uniqueid": "MTK2940:3YDTZAI2WYNLMHOVOIQ6M3TSVYQ414", "dateTime": 1519594122868}, {"current_trial": 178, "trialdata": {"rt": -1, "trial_type": "single-stim", "word": "airplane", "stimulus": "<p id=\"stim\">AIRPLANE</p>", "conditions": [24, 800, "v", 12000], "internal_node_id": "0.0-133.0", "trial": 4, "time_elapsed": 748097, "serialpos": 21, "key_press": -1, "wordID": 11, "type": "PRES_VIS", "trial_index": 178}, "uniqueid": "MTK2940:3YDTZAI2WYNLMHOVOIQ6M3TSVYQ414", "dateTime": 1519594124668}, {"current_trial": 179, "trialdata": {"rt": -1, "trial_type": "single-stim", "word": "maple", "stimulus": "<p id=\"stim\">MAPLE</p>", "conditions": [24, 800, "v", 12000], "internal_node_id": "0.0-134.0", "trial": 4, "time_elapsed": 749901, "serialpos": 22, "key_press": -1, "wordID": 865, "type": "PRES_VIS", "trial_index": 179}, "uniqueid": "MTK2940:3YDTZAI2WYNLMHOVOIQ6M3TSVYQ414", "dateTime": 1519594126472}, {"current_trial": 180, "trialdata": {"rt": -1, "trial_type": "single-stim", "word": "tablet", "stimulus": "<p id=\"stim\">TABLET</p>", "conditions": [24, 800, "v", 12000], "internal_node_id": "0.0-135.0", "trial": 4, "time_elapsed": 751632, "serialpos": 23, "key_press": -1, "wordID": 1426, "type": "PRES_VIS", "trial_index": 180}, "uniqueid": "MTK2940:3YDTZAI2WYNLMHOVOIQ6M3TSVYQ414", "dateTime": 1519594128202}, {"current_trial": 181, "trialdata": {"rt": -1, "trial_type": "single-stim", "stimulus": "", "internal_node_id": "0.0-136.0-0.0", "time_elapsed": 753936, "key_press": -1, "type": "PRE_RECALL_DELAY", "trial_index": 181}, "uniqueid": "MTK2940:3YDTZAI2WYNLMHOVOIQ6M3TSVYQ414", "dateTime": 1519594130506}, {"current_trial": 182, "trialdata": {"rt": -1000, "trial_type": "single-audio", "stimulus": "/static/audio/400Hz.wav", "internal_node_id": "0.0-137.0", "time_elapsed": 754437, "key_press": -1, "type": "PRE_RECALL_ALERT", "trial_index": 182}, "uniqueid": "MTK2940:3YDTZAI2WYNLMHOVOIQ6M3TSVYQ414", "dateTime": 1519594131007}, {"current_trial": 183, "trialdata": {"rt": [4715, 7964, 9908, 12572, 14468, 15707, 17636, 20356, 21964, 23292, 25620, 27315, 29205, 31853, 34517, 36965, 39197, 44404, 49957, 57109], "recwords": ["airplane", "cocktail", "maple", "island", "dress", "skirt", "shirt", "tutu", "girl", "cobra", "snake", "jello", "liver", "fungus", "patient", "rod", "spool", "blouse", "cocktail", "dress"], "key_times": [2949, 3181, 3419, 3747, 3947, 4076, 4203, 4428, 4715, 6163, 6613, 6684, 6805, 7213, 7339, 7524, 7716, 7964, 8732, 8819, 9084, 9315, 9444, 9908, 11203, 11316, 11459, 11627, 11940, 12059, 12572, 13764, 13951, 13981, 14155, 14292, 14468, 14747, 15084, 15244, 15379, 15579, 15707, 15916, 16523, 16771, 16964, 17171, 17636, 18812, 19420, 19556, 19748, 20356, 21035, 21396, 21540, 21684, 21964, 22301, 22580, 22868, 23004, 23156, 23292, 23507, 23723, 24124, 24468, 24572, 25620, 26388, 26492, 26732, 26876, 27052, 27315, 27949, 28140, 28269, 28501, 28535, 29205, 29885, 30229, 30365, 30572, 30956, 31029, 31324, 31613, 31853, 33284, 33396, 33596, 33812, 33884, 33988, 34084, 34517, 36317, 36613, 36741, 36965, 37236, 37549, 37813, 37916, 38324, 39197, 42685, 43389, 43557, 43829, 43949, 44141, 44404, 47254, 47422, 47597, 47894, 48141, 48245, 48637, 48845, 49460, 49661, 49957, 56189, 56384, 56461, 56766, 56893, 57109], "trial_type": "free-recall", "conditions": [24, 800, "v", 12000], "internal_node_id": "0.0-138.0-0.0", "key_presses": [65, 73, 82, 80, 76, 65, 78, 69, 13, 67, 79, 67, 75, 84, 65, 73, 76, 13, 77, 65, 80, 76, 69, 13, 73, 83, 76, 65, 78, 68, 13, 68, 82, 69, 83, 83, 13, 83, 75, 73, 82, 84, 13, 83, 72, 73, 82, 84, 13, 84, 85, 84, 85, 13, 71, 73, 82, 76, 13, 67, 79, 66, 82, 65, 13, 83, 78, 65, 75, 69, 13, 74, 69, 76, 76, 79, 13, 76, 73, 86, 69, 82, 13, 70, 85, 78, 67, 8, 71, 85, 83, 13, 80, 65, 84, 73, 69, 78, 84, 13, 82, 79, 68, 13, 83, 80, 79, 79, 76, 13, 66, 76, 79, 85, 83, 69, 13, 67, 79, 76, 8, 67, 75, 84, 65, 73, 76, 13, 68, 82, 69, 83, 83, 13], "trial": 4, "time_elapsed": 814444, "type": "FREE_RECALL", "trial_index": 183}, "uniqueid": "MTK2940:3YDTZAI2WYNLMHOVOIQ6M3TSVYQ414", "dateTime": 1519594191017}, {"current_trial": 184, "trialdata": {"rt": 12541, "trial_type": "text", "internal_node_id": "0.0-139.0", "time_elapsed": 828990, "key_press": 32, "type": "INSTRUCTIONS", "trial_index": 184}, "uniqueid": "MTK2940:3YDTZAI2WYNLMHOVOIQ6M3TSVYQ414", "dateTime": 1519594205560}, {"current_trial": 185, "trialdata": {"rt": [2694, 5094, 7053, 9086, 11462], "trial_type": "math-distractor", "key_times": [1949, 2694, 4606, 4814, 5094, 6550, 6749, 7053, 8629, 8822, 9086, 10798, 11173, 11462], "responses": ["7", "18", "14", "14", "17"], "num2": [2, 6, 5, 1, 4, 8], "num3": [4, 4, 5, 7, 7, 7], "conditions": [12, 1600, "v", 12000], "internal_node_id": "0.0-140.0", "key_presses": [55, 13, 49, 56, 13, 49, 52, 13, 49, 52, 13, 49, 55, 13], "trial": 5, "time_elapsed": 842994, "type": "DISTRACTOR", "trial_index": 185, "num1": [1, 8, 4, 6, 6, 8]}, "uniqueid": "MTK2940:3YDTZAI2WYNLMHOVOIQ6M3TSVYQ414", "dateTime": 1519594219565}, {"current_trial": 186, "trialdata": {"rt": -1, "trial_type": "single-stim", "stimulus": "<p id=\"stim\">10</p>", "internal_node_id": "0.0-141.0-0.0", "time_elapsed": 846000, "key_press": -1, "trial_index": 186}, "uniqueid": "MTK2940:3YDTZAI2WYNLMHOVOIQ6M3TSVYQ414", "dateTime": 1519594222570}, {"current_trial": 187, "trialdata": {"rt": -1, "trial_type": "single-stim", "stimulus": "<p id=\"stim\">9</p>", "internal_node_id": "0.0-141.0-1.0", "time_elapsed": 847004, "key_press": -1, "trial_index": 187}, "uniqueid": "MTK2940:3YDTZAI2WYNLMHOVOIQ6M3TSVYQ414", "dateTime": 1519594223575}, {"current_trial": 188, "trialdata": {"rt": -1, "trial_type": "single-stim", "stimulus": "<p id=\"stim\">8</p>", "internal_node_id": "0.0-141.0-2.0", "time_elapsed": 848009, "key_press": -1, "trial_index": 188}, "uniqueid": "MTK2940:3YDTZAI2WYNLMHOVOIQ6M3TSVYQ414", "dateTime": 1519594224579}, {"current_trial": 189, "trialdata": {"rt": -1, "trial_type": "single-stim", "stimulus": "<p id=\"stim\">7</p>", "internal_node_id": "0.0-141.0-3.0", "time_elapsed": 849013, "key_press": -1, "trial_index": 189}, "uniqueid": "MTK2940:3YDTZAI2WYNLMHOVOIQ6M3TSVYQ414", "dateTime": 1519594225583}, {"current_trial": 190, "trialdata": {"rt": -1, "trial_type": "single-stim", "stimulus": "<p id=\"stim\">6</p>", "internal_node_id": "0.0-141.0-4.0", "time_elapsed": 850017, "key_press": -1, "trial_index": 190}, "uniqueid": "MTK2940:3YDTZAI2WYNLMHOVOIQ6M3TSVYQ414", "dateTime": 1519594226587}, {"current_trial": 191, "trialdata": {"rt": -1, "trial_type": "single-stim", "stimulus": "<p id=\"stim\">5</p>", "internal_node_id": "0.0-141.0-5.0", "time_elapsed": 851021, "key_press": -1, "trial_index": 191}, "uniqueid": "MTK2940:3YDTZAI2WYNLMHOVOIQ6M3TSVYQ414", "dateTime": 1519594227591}, {"current_trial": 192, "trialdata": {"rt": -1, "trial_type": "single-stim", "stimulus": "<p id=\"stim\">4</p>", "internal_node_id": "0.0-141.0-6.0", "time_elapsed": 852025, "key_press": -1, "trial_index": 192}, "uniqueid": "MTK2940:3YDTZAI2WYNLMHOVOIQ6M3TSVYQ414", "dateTime": 1519594228595}, {"current_trial": 193, "trialdata": {"rt": -1, "trial_type": "single-stim", "stimulus": "<p id=\"stim\">3</p>", "internal_node_id": "0.0-141.0-7.0", "time_elapsed": 853029, "key_press": -1, "trial_index": 193}, "uniqueid": "MTK2940:3YDTZAI2WYNLMHOVOIQ6M3TSVYQ414", "dateTime": 1519594229599}, {"current_trial": 194, "trialdata": {"rt": -1, "trial_type": "single-stim", "stimulus": "<p id=\"stim\">2</p>", "internal_node_id": "0.0-141.0-8.0", "time_elapsed": 854033, "key_press": -1, "trial_index": 194}, "uniqueid": "MTK2940:3YDTZAI2WYNLMHOVOIQ6M3TSVYQ414", "dateTime": 1519594230604}, {"current_trial": 195, "trialdata": {"rt": -1, "trial_type": "single-stim", "stimulus": "<p id=\"stim\">1</p>", "internal_node_id": "0.0-141.0-9.0", "time_elapsed": 855038, "key_press": -1, "trial_index": 195}, "uniqueid": "MTK2940:3YDTZAI2WYNLMHOVOIQ6M3TSVYQ414", "dateTime": 1519594231608}, {"current_trial": 196, "trialdata": {"rt": -1, "trial_type": "single-stim", "stimulus": "<p id=\"stim\">+</p>", "internal_node_id": "0.0-142.0-0.0", "time_elapsed": 856541, "key_press": -1, "type": "FIXATION", "trial_index": 196}, "uniqueid": "MTK2940:3YDTZAI2WYNLMHOVOIQ6M3TSVYQ414", "dateTime": 1519594233111}, {"current_trial": 197, "trialdata": {"rt": -1, "trial_type": "single-stim", "word": "lamp", "stimulus": "<p id=\"stim\">LAMP</p>", "conditions": [12, 1600, "v", 12000], "internal_node_id": "0.0-143.0", "trial": 5, "time_elapsed": 858143, "serialpos": 0, "key_press": -1, "wordID": 797, "type": "PRES_VIS", "trial_index": 197}, "uniqueid": "MTK2940:3YDTZAI2WYNLMHOVOIQ6M3TSVYQ414", "dateTime": 1519594234713}, {"current_trial": 198, "trialdata": {"rt": -1, "trial_type": "single-stim", "word": "compass", "stimulus": "<p id=\"stim\">COMPASS</p>", "conditions": [12, 1600, "v", 12000], "internal_node_id": "0.0-144.0", "trial": 5, "time_elapsed": 860751, "serialpos": 1, "key_press": -1, "wordID": 357, "type": "PRES_VIS", "trial_index": 198}, "uniqueid": "MTK2940:3YDTZAI2WYNLMHOVOIQ6M3TSVYQ414", "dateTime": 1519594237321}, {"current_trial": 199, "trialdata": {"rt": -1, "trial_type": "single-stim", "word": "igloo", "stimulus": "<p id=\"stim\">IGLOO</p>", "conditions": [12, 1600, "v", 12000], "internal_node_id": "0.0-145.0", "trial": 5, "time_elapsed": 863418, "serialpos": 2, "key_press": -1, "wordID": 733, "type": "PRES_VIS", "trial_index": 199}, "uniqueid": "MTK2940:3YDTZAI2WYNLMHOVOIQ6M3TSVYQ414", "dateTime": 1519594239989}, {"current_trial": 200, "trialdata": {"rt": -1, "trial_type": "single-stim", "word": "crayon", "stimulus": "<p id=\"stim\">CRAYON</p>", "conditions": [12, 1600, "v", 12000], "internal_node_id": "0.0-146.0", "trial": 5, "time_elapsed": 865874, "serialpos": 3, "key_press": -1, "wordID": 400, "type": "PRES_VIS", "trial_index": 200}, "uniqueid": "MTK2940:3YDTZAI2WYNLMHOVOIQ6M3TSVYQ414", "dateTime": 1519594242445}, {"current_trial": 201, "trialdata": {"rt": -1, "trial_type": "single-stim", "word": "perfume", "stimulus": "<p id=\"stim\">PERFUME</p>", "conditions": [12, 1600, "v", 12000], "internal_node_id": "0.0-147.0", "trial": 5, "time_elapsed": 868642, "serialpos": 4, "key_press": -1, "wordID": 1048, "type": "PRES_VIS", "trial_index": 201}, "uniqueid": "MTK2940:3YDTZAI2WYNLMHOVOIQ6M3TSVYQ414", "dateTime": 1519594245212}, {"current_trial": 202, "trialdata": {"rt": -1, "trial_type": "single-stim", "word": "candy", "stimulus": "<p id=\"stim\">CANDY</p>", "conditions": [12, 1600, "v", 12000], "internal_node_id": "0.0-148.0", "trial": 5, "time_elapsed": 871370, "serialpos": 5, "key_press": -1, "wordID": 229, "type": "PRES_VIS", "trial_index": 202}, "uniqueid": "MTK2940:3YDTZAI2WYNLMHOVOIQ6M3TSVYQ414", "dateTime": 1519594247942}, {"current_trial": 203, "trialdata": {"rt": -1, "trial_type": "single-stim", "word": "snack", "stimulus": "<p id=\"stim\">SNACK</p>", "conditions": [12, 1600, "v", 12000], "internal_node_id": "0.0-149.0", "trial": 5, "time_elapsed": 873988, "serialpos": 6, "key_press": -1, "wordID": 1330, "type": "PRES_VIS", "trial_index": 203}, "uniqueid": "MTK2940:3YDTZAI2WYNLMHOVOIQ6M3TSVYQ414", "dateTime": 1519594250558}, {"current_trial": 204, "trialdata": {"rt": -1, "trial_type": "single-stim", "word": "fragrance", "stimulus": "<p id=\"stim\">FRAGRANCE</p>", "conditions": [12, 1600, "v", 12000], "internal_node_id": "0.0-150.0", "trial": 5, "time_elapsed": 876577, "serialpos": 7, "key_press": -1, "wordID": 598, "type": "PRES_VIS", "trial_index": 204}, "uniqueid": "MTK2940:3YDTZAI2WYNLMHOVOIQ6M3TSVYQ414", "dateTime": 1519594253147}, {"current_trial": 205, "trialdata": {"rt": -1, "trial_type": "single-stim", "word": "receipt", "stimulus": "<p id=\"stim\">RECEIPT</p>", "conditions": [12, 1600, "v", 12000], "internal_node_id": "0.0-151.0", "trial": 5, "time_elapsed": 879276, "serialpos": 8, "key_press": -1, "wordID": 1172, "type": "PRES_VIS", "trial_index": 205}, "uniqueid": "MTK2940:3YDTZAI2WYNLMHOVOIQ6M3TSVYQ414", "dateTime": 1519594255846}, {"current_trial": 206, "trialdata": {"rt": -1, "trial_type": "single-stim", "word": "freckle", "stimulus": "<p id=\"stim\">FRECKLE</p>", "conditions": [12, 1600, "v", 12000], "internal_node_id": "0.0-152.0", "trial": 5, "time_elapsed": 881894, "serialpos": 9, "key_press": -1, "wordID": 601, "type": "PRES_VIS", "trial_index": 206}, "uniqueid": "MTK2940:3YDTZAI2WYNLMHOVOIQ6M3TSVYQ414", "dateTime": 1519594258464}, {"current_trial": 207, "trialdata": {"rt": -1, "trial_type": "single-stim", "word": "balloon", "stimulus": "<p id=\"stim\">BALLOON</p>", "conditions": [12, 1600, "v", 12000], "internal_node_id": "0.0-153.0", "trial": 5, "time_elapsed": 884575, "serialpos": 10, "key_press": -1, "wordID": 74, "type": "PRES_VIS", "trial_index": 207}, "uniqueid": "MTK2940:3YDTZAI2WYNLMHOVOIQ6M3TSVYQ414", "dateTime": 1519594261145}, {"current_trial": 208, "trialdata": {"rt": -1, "trial_type": "single-stim", "word": "rug", "stimulus": "<p id=\"stim\">RUG</p>", "conditions": [12, 1600, "v", 12000], "internal_node_id": "0.0-154.0", "trial": 5, "time_elapsed": 887251, "serialpos": 11, "key_press": -1, "wordID": 1214, "type": "PRES_VIS", "trial_index": 208}, "uniqueid": "MTK2940:3YDTZAI2WYNLMHOVOIQ6M3TSVYQ414", "dateTime": 1519594263821}, {"current_trial": 209, "trialdata": {"rt": -1, "trial_type": "single-stim", "stimulus": "", "internal_node_id": "0.0-155.0-0.0", "time_elapsed": 889804, "key_press": -1, "type": "PRE_RECALL_DELAY", "trial_index": 209}, "uniqueid": "MTK2940:3YDTZAI2WYNLMHOVOIQ6M3TSVYQ414", "dateTime": 1519594266374}, {"current_trial": 210, "trialdata": {"rt": -1000, "trial_type": "single-audio", "stimulus": "/static/audio/400Hz.wav", "internal_node_id": "0.0-156.0", "time_elapsed": 890306, "key_press": -1, "type": "PRE_RECALL_ALERT", "trial_index": 210}, "uniqueid": "MTK2940:3YDTZAI2WYNLMHOVOIQ6M3TSVYQ414", "dateTime": 1519594266876}, {"current_trial": 211, "trialdata": {"rt": [2169, 4130, 6402, 8986, 11290, 13858, 15546, 18474, 20667, 25395, 31579, 37339, 55995], "recwords": ["rug", "perfume", "fragrance", "lamp", "igloo", "craon", "rug", "candy", "snack", "compass", "fragrance", "carpet", "light"], "key_times": [1330, 1810, 1946, 2169, 2937, 3049, 3121, 3306, 3634, 3834, 3946, 4130, 4818, 5002, 5082, 5402, 5625, 5724, 5986, 6098, 6162, 6402, 8010, 8154, 8362, 8666, 8986, 10194, 10362, 10610, 10882, 10994, 11290, 12307, 12538, 12650, 13258, 13482, 13858, 14586, 14850, 15090, 15546, 17354, 17467, 17618, 18002, 18338, 18474, 18731, 19316, 19650, 19906, 20034, 20667, 23876, 24180, 24364, 24594, 24724, 24970, 25106, 25395, 28683, 28875, 28964, 29123, 29363, 29491, 29939, 30107, 30148, 30507, 30675, 30851, 31146, 31275, 31332, 31579, 34644, 34755, 34875, 34883, 35371, 35595, 36451, 36722, 36835, 36955, 37339, 54836, 55075, 55332, 55452, 55668, 55995], "trial_type": "free-recall", "conditions": [12, 1600, "v", 12000], "internal_node_id": "0.0-157.0-0.0", "key_presses": [82, 85, 71, 13, 80, 69, 82, 70, 85, 77, 69, 13, 70, 82, 65, 71, 82, 65, 78, 67, 69, 13, 76, 65, 77, 80, 13, 73, 71, 76, 79, 79, 13, 67, 82, 65, 79, 78, 13, 82, 85, 71, 13, 67, 65, 78, 68, 89, 13, 83, 78, 65, 67, 75, 13, 67, 79, 77, 80, 65, 83, 83, 13, 70, 82, 65, 71, 82, 65, 77, 67, 69, 8, 8, 8, 78, 67, 69, 13, 67, 65, 82, 70, 8, 8, 82, 80, 69, 84, 13, 76, 73, 71, 72, 84, 13], "trial": 5, "time_elapsed": 950311, "type": "FREE_RECALL", "trial_index": 211}, "uniqueid": "MTK2940:3YDTZAI2WYNLMHOVOIQ6M3TSVYQ414", "dateTime": 1519594326886}, {"current_trial": 212, "trialdata": {"rt": 1182, "trial_type": "text", "internal_node_id": "0.0-158.0", "time_elapsed": 953503, "key_press": 32, "type": "INSTRUCTIONS", "trial_index": 212}, "uniqueid": "MTK2940:3YDTZAI2WYNLMHOVOIQ6M3TSVYQ414", "dateTime": 1519594330074}, {"current_trial": 213, "trialdata": {"rt": [3962, 6036, 8090, 10067, 13155, 15891, 18676, 20259, 21835], "trial_type": "math-distractor", "key_times": [3518, 3683, 3962, 5547, 5795, 6036, 7602, 7835, 8090, 9690, 9819, 10067, 12731, 12899, 13155, 15363, 15571, 15891, 18172, 18339, 18676, 19820, 20019, 20259, 21508, 21835], "responses": ["21", "19", "19", "22", "21", "25", "12", "10", "7"], "num2": [9, 3, 9, 7, 7, 7, 1, 4, 1, 5], "num3": [4, 7, 7, 8, 5, 9, 3, 4, 1, 3], "conditions": [12, 1600, "v", 24000], "internal_node_id": "0.0-159.0", "key_presses": [50, 49, 13, 49, 57, 13, 49, 57, 13, 50, 50, 13, 50, 49, 13, 50, 53, 13, 49, 50, 13, 49, 48, 13, 55, 13], "trial": 6, "time_elapsed": 979516, "type": "DISTRACTOR", "trial_index": 213, "num1": [8, 9, 3, 7, 9, 9, 8, 2, 5, 9]}, "uniqueid": "MTK2940:3YDTZAI2WYNLMHOVOIQ6M3TSVYQ414", "dateTime": 1519594356086}, {"current_trial": 214, "trialdata": {"rt": -1, "trial_type": "single-stim", "stimulus": "<p id=\"stim\">10</p>", "internal_node_id": "0.0-160.0-0.0", "time_elapsed": 982522, "key_press": -1, "trial_index": 214}, "uniqueid": "MTK2940:3YDTZAI2WYNLMHOVOIQ6M3TSVYQ414", "dateTime": 1519594359092}, {"current_trial": 215, "trialdata": {"rt": -1, "trial_type": "single-stim", "stimulus": "<p id=\"stim\">9</p>", "internal_node_id": "0.0-160.0-1.0", "time_elapsed": 983526, "key_press": -1, "trial_index": 215}, "uniqueid": "MTK2940:3YDTZAI2WYNLMHOVOIQ6M3TSVYQ414", "dateTime": 1519594360096}, {"current_trial": 216, "trialdata": {"rt": -1, "trial_type": "single-stim", "stimulus": "<p id=\"stim\">8</p>", "internal_node_id": "0.0-160.0-2.0", "time_elapsed": 984530, "key_press": -1, "trial_index": 216}, "uniqueid": "MTK2940:3YDTZAI2WYNLMHOVOIQ6M3TSVYQ414", "dateTime": 1519594361100}, {"current_trial": 217, "trialdata": {"rt": -1, "trial_type": "single-stim", "stimulus": "<p id=\"stim\">7</p>", "internal_node_id": "0.0-160.0-3.0", "time_elapsed": 985534, "key_press": -1, "trial_index": 217}, "uniqueid": "MTK2940:3YDTZAI2WYNLMHOVOIQ6M3TSVYQ414", "dateTime": 1519594362104}, {"current_trial": 218, "trialdata": {"rt": -1, "trial_type": "single-stim", "stimulus": "<p id=\"stim\">6</p>", "internal_node_id": "0.0-160.0-4.0", "time_elapsed": 986539, "key_press": -1, "trial_index": 218}, "uniqueid": "MTK2940:3YDTZAI2WYNLMHOVOIQ6M3TSVYQ414", "dateTime": 1519594363109}, {"current_trial": 219, "trialdata": {"rt": -1, "trial_type": "single-stim", "stimulus": "<p id=\"stim\">5</p>", "internal_node_id": "0.0-160.0-5.0", "time_elapsed": 987543, "key_press": -1, "trial_index": 219}, "uniqueid": "MTK2940:3YDTZAI2WYNLMHOVOIQ6M3TSVYQ414", "dateTime": 1519594364113}, {"current_trial": 220, "trialdata": {"rt": -1, "trial_type": "single-stim", "stimulus": "<p id=\"stim\">4</p>", "internal_node_id": "0.0-160.0-6.0", "time_elapsed": 988546, "key_press": -1, "trial_index": 220}, "uniqueid": "MTK2940:3YDTZAI2WYNLMHOVOIQ6M3TSVYQ414", "dateTime": 1519594365117}, {"current_trial": 221, "trialdata": {"rt": -1, "trial_type": "single-stim", "stimulus": "<p id=\"stim\">3</p>", "internal_node_id": "0.0-160.0-7.0", "time_elapsed": 989550, "key_press": -1, "trial_index": 221}, "uniqueid": "MTK2940:3YDTZAI2WYNLMHOVOIQ6M3TSVYQ414", "dateTime": 1519594366121}, {"current_trial": 222, "trialdata": {"rt": -1, "trial_type": "single-stim", "stimulus": "<p id=\"stim\">2</p>", "internal_node_id": "0.0-160.0-8.0", "time_elapsed": 990555, "key_press": -1, "trial_index": 222}, "uniqueid": "MTK2940:3YDTZAI2WYNLMHOVOIQ6M3TSVYQ414", "dateTime": 1519594367125}, {"current_trial": 223, "trialdata": {"rt": -1, "trial_type": "single-stim", "stimulus": "<p id=\"stim\">1</p>", "internal_node_id": "0.0-160.0-9.0", "time_elapsed": 991558, "key_press": -1, "trial_index": 223}, "uniqueid": "MTK2940:3YDTZAI2WYNLMHOVOIQ6M3TSVYQ414", "dateTime": 1519594368129}, {"current_trial": 224, "trialdata": {"rt": -1, "trial_type": "single-stim", "stimulus": "<p id=\"stim\">+</p>", "internal_node_id": "0.0-161.0-0.0", "time_elapsed": 993064, "key_press": -1, "type": "FIXATION", "trial_index": 224}, "uniqueid": "MTK2940:3YDTZAI2WYNLMHOVOIQ6M3TSVYQ414", "dateTime": 1519594369634}, {"current_trial": 225, "trialdata": {"rt": -1, "trial_type": "single-stim", "word": "beaker", "stimulus": "<p id=\"stim\">BEAKER</p>", "conditions": [12, 1600, "v", 24000], "internal_node_id": "0.0-162.0", "trial": 6, "time_elapsed": 994670, "serialpos": 0, "key_press": -1, "wordID": 103, "type": "PRES_VIS", "trial_index": 225}, "uniqueid": "MTK2940:3YDTZAI2WYNLMHOVOIQ6M3TSVYQ414", "dateTime": 1519594371240}, {"current_trial": 226, "trialdata": {"rt": -1, "trial_type": "single-stim", "word": "brick", "stimulus": "<p id=\"stim\">BRICK</p>", "conditions": [12, 1600, "v", 24000], "internal_node_id": "0.0-163.0", "trial": 6, "time_elapsed": 997082, "serialpos": 1, "key_press": -1, "wordID": 171, "type": "PRES_VIS", "trial_index": 226}, "uniqueid": "MTK2940:3YDTZAI2WYNLMHOVOIQ6M3TSVYQ414", "dateTime": 1519594373652}, {"current_trial": 227, "trialdata": {"rt": -1, "trial_type": "single-stim", "word": "bacon", "stimulus": "<p id=\"stim\">BACON</p>", "conditions": [12, 1600, "v", 24000], "internal_node_id": "0.0-164.0", "trial": 6, "time_elapsed": 999615, "serialpos": 2, "key_press": -1, "wordID": 66, "type": "PRES_VIS", "trial_index": 227}, "uniqueid": "MTK2940:3YDTZAI2WYNLMHOVOIQ6M3TSVYQ414", "dateTime": 1519594376185}, {"current_trial": 228, "trialdata": {"rt": -1, "trial_type": "single-stim", "word": "turkey", "stimulus": "<p id=\"stim\">TURKEY</p>", "conditions": [12, 1600, "v", 24000], "internal_node_id": "0.0-165.0", "trial": 6, "time_elapsed": 1002198, "serialpos": 3, "key_press": -1, "wordID": 1519, "type": "PRES_VIS", "trial_index": 228}, "uniqueid": "MTK2940:3YDTZAI2WYNLMHOVOIQ6M3TSVYQ414", "dateTime": 1519594378768}, {"current_trial": 229, "trialdata": {"rt": -1, "trial_type": "single-stim", "word": "sponge", "stimulus": "<p id=\"stim\">SPONGE</p>", "conditions": [12, 1600, "v", 24000], "internal_node_id": "0.0-166.0", "trial": 6, "time_elapsed": 1004780, "serialpos": 4, "key_press": -1, "wordID": 1354, "type": "PRES_VIS", "trial_index": 229}, "uniqueid": "MTK2940:3YDTZAI2WYNLMHOVOIQ6M3TSVYQ414", "dateTime": 1519594381351}, {"current_trial": 230, "trialdata": {"rt": -1, "trial_type": "single-stim", "word": "cocoon", "stimulus": "<p id=\"stim\">COCOON</p>", "conditions": [12, 1600, "v", 24000], "internal_node_id": "0.0-167.0", "trial": 6, "time_elapsed": 1007190, "serialpos": 5, "key_press": -1, "wordID": 338, "type": "PRES_VIS", "trial_index": 230}, "uniqueid": "MTK2940:3YDTZAI2WYNLMHOVOIQ6M3TSVYQ414", "dateTime": 1519594383760}, {"current_trial": 231, "trialdata": {"rt": -1, "trial_type": "single-stim", "word": "bouquet", "stimulus": "<p id=\"stim\">BOUQUET</p>", "conditions": [12, 1600, "v", 24000], "internal_node_id": "0.0-168.0", "trial": 6, "time_elapsed": 1009795, "serialpos": 6, "key_press": -1, "wordID": 156, "type": "PRES_VIS", "trial_index": 231}, "uniqueid": "MTK2940:3YDTZAI2WYNLMHOVOIQ6M3TSVYQ414", "dateTime": 1519594386365}, {"current_trial": 232, "trialdata": {"rt": -1, "trial_type": "single-stim", "word": "award", "stimulus": "<p id=\"stim\">AWARD</p>", "conditions": [12, 1600, "v", 24000], "internal_node_id": "0.0-169.0", "trial": 6, "time_elapsed": 1012558, "serialpos": 7, "key_press": -1, "wordID": 62, "type": "PRES_VIS", "trial_index": 232}, "uniqueid": "MTK2940:3YDTZAI2WYNLMHOVOIQ6M3TSVYQ414", "dateTime": 1519594389128}, {"current_trial": 233, "trialdata": {"rt": -1, "trial_type": "single-stim", "word": "trout", "stimulus": "<p id=\"stim\">TROUT</p>", "conditions": [12, 1600, "v", 24000], "internal_node_id": "0.0-170.0", "trial": 6, "time_elapsed": 1015200, "serialpos": 8, "key_press": -1, "wordID": 1510, "type": "PRES_VIS", "trial_index": 233}, "uniqueid": "MTK2940:3YDTZAI2WYNLMHOVOIQ6M3TSVYQ414", "dateTime": 1519594391770}, {"current_trial": 234, "trialdata": {"rt": -1, "trial_type": "single-stim", "word": "stone", "stimulus": "<p id=\"stim\">STONE</p>", "conditions": [12, 1600, "v", 24000], "internal_node_id": "0.0-171.0", "trial": 6, "time_elapsed": 1017660, "serialpos": 9, "key_press": -1, "wordID": 1384, "type": "PRES_VIS", "trial_index": 234}, "uniqueid": "MTK2940:3YDTZAI2WYNLMHOVOIQ6M3TSVYQ414", "dateTime": 1519594394230}, {"current_trial": 235, "trialdata": {"rt": -1, "trial_type": "single-stim", "word": "garlic", "stimulus": "<p id=\"stim\">GARLIC</p>", "conditions": [12, 1600, "v", 24000], "internal_node_id": "0.0-172.0", "trial": 6, "time_elapsed": 1020280, "serialpos": 10, "key_press": -1, "wordID": 623, "type": "PRES_VIS", "trial_index": 235}, "uniqueid": "MTK2940:3YDTZAI2WYNLMHOVOIQ6M3TSVYQ414", "dateTime": 1519594396850}, {"current_trial": 236, "trialdata": {"rt": -1, "trial_type": "single-stim", "word": "banker", "stimulus": "<p id=\"stim\">BANKER</p>", "conditions": [12, 1600, "v", 24000], "internal_node_id": "0.0-173.0", "trial": 6, "time_elapsed": 1023076, "serialpos": 11, "key_press": -1, "wordID": 83, "type": "PRES_VIS", "trial_index": 236}, "uniqueid": "MTK2940:3YDTZAI2WYNLMHOVOIQ6M3TSVYQ414", "dateTime": 1519594399646}, {"current_trial": 237, "trialdata": {"rt": -1, "trial_type": "single-stim", "stimulus": "", "internal_node_id": "0.0-174.0-0.0", "time_elapsed": 1025362, "key_press": -1, "type": "PRE_RECALL_DELAY", "trial_index": 237}, "uniqueid": "MTK2940:3YDTZAI2WYNLMHOVOIQ6M3TSVYQ414", "dateTime": 1519594401932}, {"current_trial": 238, "trialdata": {"rt": -1000, "trial_type": "single-audio", "stimulus": "/static/audio/400Hz.wav", "internal_node_id": "0.0-175.0", "time_elapsed": 1025863, "key_press": -1, "type": "PRE_RECALL_ALERT", "trial_index": 238}, "uniqueid": "MTK2940:3YDTZAI2WYNLMHOVOIQ6M3TSVYQ414", "dateTime": 1519594402434}, {"current_trial": 239, "trialdata": {"rt": [2416, 4249, 5626, 9368, 11585, 13353, 17395, 20481, 23832, 25754, 28185, 31897, 59369], "recwords": ["garlic", "stone", "beaker", "trout", "brick", "bacon", "turkey", "sponge", "stone", "award", "cocoon", "garlic", "sponge"], "key_times": [1257, 1392, 1480, 1782, 1984, 2112, 2416, 3088, 3281, 3552, 3760, 4080, 4249, 4867, 4960, 5064, 5168, 5361, 5385, 5626, 6825, 6977, 7321, 7969, 8632, 8913, 9049, 9368, 10514, 10785, 11185, 11265, 11361, 11585, 12329, 12425, 12561, 12752, 13017, 13353, 15433, 15728, 15809, 15988, 16152, 16857, 17395, 19009, 19185, 19393, 19721, 20114, 20234, 20481, 22755, 23017, 23194, 23418, 23585, 23832, 24049, 24353, 24456, 25170, 25482, 25754, 26781, 27146, 27273, 27473, 27593, 27793, 28185, 30697, 30857, 30897, 31169, 31393, 31505, 31897, 58083, 58290, 58466, 58737, 58978, 59089, 59369], "trial_type": "free-recall", "conditions": [12, 1600, "v", 24000], "internal_node_id": "0.0-176.0-0.0", "key_presses": [71, 65, 82, 76, 73, 67, 13, 83, 84, 79, 78, 69, 13, 66, 69, 65, 75, 69, 82, 13, 84, 82, 73, 8, 79, 85, 84, 13, 66, 82, 73, 67, 75, 13, 66, 65, 67, 79, 78, 13, 84, 85, 82, 75, 69, 89, 13, 83, 80, 79, 78, 71, 69, 13, 83, 84, 79, 78, 69, 13, 65, 87, 65, 82, 68, 13, 67, 79, 67, 79, 79, 78, 13, 71, 65, 82, 76, 73, 67, 13, 83, 80