{"assignmentId": "34Z02EIMITK5WDI370NEG6MA3DF0TK", "workerId": "MTK2022", "questiondata": {"origin": "United States", "strat-rehearsal": "25", "marital": "Married/Domestic Partnership", "education": "Some college", "ethnicity": "Not Hispanic", "color_depth": 24, "distracted": "No", "wrote-notes": "Yes", "strat-other": "", "screen_width": 1920, "avail_screen_width": 1920, "avail_screen_height": 1040, "strat-image": "40", "language": "English", "gender": "Female", "age": "27", "gender_other": "", "race": ["White"], "strat-categorize": "25", "pixel_depth": 24, "strat-spatial": "16", "strat-story": "95", "race_other": "", "screen_height": 1080}, "bonus": 0, "hitId": "34OWYT6U3WOVW9SBNI216QPADL4I9L", "counterbalance": 2821, "useragent": "Mozilla/5.0 (Windows NT 10.0; Win64; x64) AppleWebKit/537.36 (KHTML, like Gecko) Chrome/63.0.3239.132 Safari/537.36", "eventdata": [{"eventtype": "initialized", "interval": 0, "value": null, "timestamp": 1516651045563}, {"eventtype": "window_resize", "interval": 0, "value": [1920, 1033], "timestamp": 1516651045563}, {"eventtype": "window_resize", "interval": 11706, "value": [1908, 1017], "timestamp": 1516651057269}, {"eventtype": "window_resize", "interval": 1821, "value": [1904, 973], "timestamp": 1516651059090}, {"eventtype": "window_resize", "interval": 1102, "value": [1920, 989], "timestamp": 1516651060192}, {"eventtype": "focus", "interval": 38403, "value": "off", "timestamp": 1516651098595}, {"eventtype": "focus", "interval": 3219, "value": "on", "timestamp": 1516651101814}, {"eventtype": "focus", "interval": 68186, "value": "off", "timestamp": 1516651170000}, {"eventtype": "focus", "interval": 5659, "value": "on", "timestamp": 1516651175659}, {"eventtype": "focus", "interval": 148887, "value": "off", "timestamp": 1516651324546}, {"eventtype": "focus", "interval": 19891, "value": "on", "timestamp": 1516651344437}, {"eventtype": "focus", "interval": 269715, "value": "off", "timestamp": 1516651614152}, {"eventtype": "focus", "interval": 7035, "value": "on", "timestamp": 1516651621187}, {"eventtype": "focus", "interval": 676920, "value": "off", "timestamp": 1516652298107}, {"eventtype": "focus", "interval": 11243, "value": "on", "timestamp": 1516652309350}, {"eventtype": "focus", "interval": 967297, "value": "off", "timestamp": 1516653276647}, {"eventtype": "focus", "interval": 11324, "value": "on", "timestamp": 1516653287971}, {"eventtype": "focus", "interval": 92222, "value": "off", "timestamp": 1516653380193}, {"eventtype": "focus", "interval": 18739, "value": "on", "timestamp": 1516653398932}], "data": [{"current_trial": 0, "trialdata": {"rt": 22294, "trial_type": "text", "internal_node_id": "0.0-0.0", "time_elapsed": 22296, "key_press": 32, "type": "INSTRUCTIONS", "trial_index": 0}, "uniqueid": "MTK2022:34Z02EIMITK5WDI370NEG6MA3DF0TK", "dateTime": 1516651068304}, {"current_trial": 1, "trialdata": {"rt": 12099, "trial_type": "text", "internal_node_id": "0.0-1.0", "time_elapsed": 34397, "key_press": 32, "type": "INSTRUCTIONS", "trial_index": 1}, "uniqueid": "MTK2022:34Z02EIMITK5WDI370NEG6MA3DF0TK", "dateTime": 1516651080404}, {"current_trial": 2, "trialdata": {"rt": [7693], "trial_type": "audio-test", "responses": ["ocean"], "internal_node_id": "0.0-2.0", "time_elapsed": 42096, "type": "AUDIO_TEST", "trial_index": 2}, "uniqueid": "MTK2022:34Z02EIMITK5WDI370NEG6MA3DF0TK", "dateTime": 1516651088103}, {"current_trial": 3, "trialdata": {"rt": [5211], "trial_type": "audio-test", "responses": ["crystal"], "internal_node_id": "0.0-3.0", "time_elapsed": 47309, "type": "AUDIO_TEST", "trial_index": 3}, "uniqueid": "MTK2022:34Z02EIMITK5WDI370NEG6MA3DF0TK", "dateTime": 1516651093317}, {"current_trial": 4, "trialdata": {"rt": [11823], "trial_type": "audio-test", "responses": ["spice"], "internal_node_id": "0.0-4.0", "time_elapsed": 59135, "type": "AUDIO_TEST", "trial_index": 4}, "uniqueid": "MTK2022:34Z02EIMITK5WDI370NEG6MA3DF0TK", "dateTime": 1516651105142}, {"current_trial": 5, "trialdata": {"rt": 24719, "trial_type": "survey-text", "responses": "{\"Q0\":\"10 pm\",\"Q1\":\"8am\",\"Q2\":\"5\"}", "internal_node_id": "0.0-5.0", "time_elapsed": 84605, "type": "SLEEP_SURVEY", "trial_index": 5}, "uniqueid": "MTK2022:34Z02EIMITK5WDI370NEG6MA3DF0TK", "dateTime": 1516651130612}, {"current_trial": 6, "trialdata": {"rt": 45519, "trial_type": "text", "internal_node_id": "0.0-6.0", "time_elapsed": 131126, "key_press": 32, "type": "INSTRUCTIONS", "trial_index": 6}, "uniqueid": "MTK2022:34Z02EIMITK5WDI370NEG6MA3DF0TK", "dateTime": 1516651177133}, {"current_trial": 7, "trialdata": {"rt": 9622, "trial_type": "text", "internal_node_id": "0.0-7.0", "time_elapsed": 141249, "key_press": 32, "type": "INSTRUCTIONS", "trial_index": 7}, "uniqueid": "MTK2022:34Z02EIMITK5WDI370NEG6MA3DF0TK", "dateTime": 1516651187256}, {"current_trial": 8, "trialdata": {"rt": 6221, "trial_type": "text", "internal_node_id": "0.0-8.0", "time_elapsed": 147971, "key_press": 32, "type": "INSTRUCTIONS", "trial_index": 8}, "uniqueid": "MTK2022:34Z02EIMITK5WDI370NEG6MA3DF0TK", "dateTime": 1516651193978}, {"current_trial": 9, "trialdata": {"rt": [6124, 8773, 10117, 14671, 17588], "trial_type": "math-distractor", "key_times": [5110, 5299, 6124, 8434, 8498, 8773, 9912, 10117, 14134, 14157, 14671, 17120, 17349, 17588], "responses": ["21", "13", "3", "21", "14"], "num2": [9, 3, 1, 4, 3, 5], "num3": [5, 1, 1, 8, 7, 3], "conditions": [18, 1200, "v", 18000], "internal_node_id": "0.0-9.0", "key_presses": [50, 49, 13, 49, 51, 13, 51, 13, 50, 49, 13, 49, 52, 13], "trial": 0, "time_elapsed": 166974, "type": "DISTRACTOR", "trial_index": 9, "num1": [7, 9, 1, 9, 4, 6]}, "uniqueid": "MTK2022:34Z02EIMITK5WDI370NEG6MA3DF0TK", "dateTime": 1516651212981}, {"current_trial": 10, "trialdata": {"rt": -1, "trial_type": "single-stim", "stimulus": "<p id=\"stim\">10</p>", "internal_node_id": "0.0-10.0-0.0", "time_elapsed": 169977, "key_press": -1, "trial_index": 10}, "uniqueid": "MTK2022:34Z02EIMITK5WDI370NEG6MA3DF0TK", "dateTime": 1516651215984}, {"current_trial": 11, "trialdata": {"rt": -1, "trial_type": "single-stim", "stimulus": "<p id=\"stim\">9</p>", "internal_node_id": "0.0-10.0-1.0", "time_elapsed": 170978, "key_press": -1, "trial_index": 11}, "uniqueid": "MTK2022:34Z02EIMITK5WDI370NEG6MA3DF0TK", "dateTime": 1516651216985}, {"current_trial": 12, "trialdata": {"rt": -1, "trial_type": "single-stim", "stimulus": "<p id=\"stim\">8</p>", "internal_node_id": "0.0-10.0-2.0", "time_elapsed": 171980, "key_press": -1, "trial_index": 12}, "uniqueid": "MTK2022:34Z02EIMITK5WDI370NEG6MA3DF0TK", "dateTime": 1516651217987}, {"current_trial": 13, "trialdata": {"rt": -1, "trial_type": "single-stim", "stimulus": "<p id=\"stim\">7</p>", "internal_node_id": "0.0-10.0-3.0", "time_elapsed": 172981, "key_press": -1, "trial_index": 13}, "uniqueid": "MTK2022:34Z02EIMITK5WDI370NEG6MA3DF0TK", "dateTime": 1516651218988}, {"current_trial": 14, "trialdata": {"rt": -1, "trial_type": "single-stim", "stimulus": "<p id=\"stim\">6</p>", "internal_node_id": "0.0-10.0-4.0", "time_elapsed": 173982, "key_press": -1, "trial_index": 14}, "uniqueid": "MTK2022:34Z02EIMITK5WDI370NEG6MA3DF0TK", "dateTime": 1516651219989}, {"current_trial": 15, "trialdata": {"rt": -1, "trial_type": "single-stim", "stimulus": "<p id=\"stim\">5</p>", "internal_node_id": "0.0-10.0-5.0", "time_elapsed": 174984, "key_press": -1, "trial_index": 15}, "uniqueid": "MTK2022:34Z02EIMITK5WDI370NEG6MA3DF0TK", "dateTime": 1516651220991}, {"current_trial": 16, "trialdata": {"rt": -1, "trial_type": "single-stim", "stimulus": "<p id=\"stim\">4</p>", "internal_node_id": "0.0-10.0-6.0", "time_elapsed": 175985, "key_press": -1, "trial_index": 16}, "uniqueid": "MTK2022:34Z02EIMITK5WDI370NEG6MA3DF0TK", "dateTime": 1516651221992}, {"current_trial": 17, "trialdata": {"rt": -1, "trial_type": "single-stim", "stimulus": "<p id=\"stim\">3</p>", "internal_node_id": "0.0-10.0-7.0", "time_elapsed": 176986, "key_press": -1, "trial_index": 17}, "uniqueid": "MTK2022:34Z02EIMITK5WDI370NEG6MA3DF0TK", "dateTime": 1516651222993}, {"current_trial": 18, "trialdata": {"rt": -1, "trial_type": "single-stim", "stimulus": "<p id=\"stim\">2</p>", "internal_node_id": "0.0-10.0-8.0", "time_elapsed": 177988, "key_press": -1, "trial_index": 18}, "uniqueid": "MTK2022:34Z02EIMITK5WDI370NEG6MA3DF0TK", "dateTime": 1516651223995}, {"current_trial": 19, "trialdata": {"rt": -1, "trial_type": "single-stim", "stimulus": "<p id=\"stim\">1</p>", "internal_node_id": "0.0-10.0-9.0", "time_elapsed": 178989, "key_press": -1, "trial_index": 19}, "uniqueid": "MTK2022:34Z02EIMITK5WDI370NEG6MA3DF0TK", "dateTime": 1516651224996}, {"current_trial": 20, "trialdata": {"rt": -1, "trial_type": "single-stim", "stimulus": "<p id=\"stim\">+</p>", "internal_node_id": "0.0-11.0-0.0", "time_elapsed": 180490, "key_press": -1, "type": "FIXATION", "trial_index": 20}, "uniqueid": "MTK2022:34Z02EIMITK5WDI370NEG6MA3DF0TK", "dateTime": 1516651226498}, {"current_trial": 21, "trialdata": {"rt": -1, "trial_type": "single-stim", "word": "yarn", "stimulus": "<p id=\"stim\">YARN</p>", "conditions": [18, 1200, "v", 18000], "internal_node_id": "0.0-12.0", "trial": 0, "time_elapsed": 181692, "serialpos": 0, "key_press": -1, "wordID": 1630, "type": "PRES_VIS", "trial_index": 21}, "uniqueid": "MTK2022:34Z02EIMITK5WDI370NEG6MA3DF0TK", "dateTime": 1516651227699}, {"current_trial": 22, "trialdata": {"rt": -1, "trial_type": "single-stim", "word": "blackboard", "stimulus": "<p id=\"stim\">BLACKBOARD</p>", "conditions": [18, 1200, "v", 18000], "internal_node_id": "0.0-13.0", "trial": 0, "time_elapsed": 183822, "serialpos": 1, "key_press": -1, "wordID": 132, "type": "PRES_VIS", "trial_index": 22}, "uniqueid": "MTK2022:34Z02EIMITK5WDI370NEG6MA3DF0TK", "dateTime": 1516651229829}, {"current_trial": 23, "trialdata": {"rt": -1, "trial_type": "single-stim", "word": "valve", "stimulus": "<p id=\"stim\">VALVE</p>", "conditions": [18, 1200, "v", 18000], "internal_node_id": "0.0-14.0", "trial": 0, "time_elapsed": 186092, "serialpos": 2, "key_press": -1, "wordID": 1545, "type": "PRES_VIS", "trial_index": 23}, "uniqueid": "MTK2022:34Z02EIMITK5WDI370NEG6MA3DF0TK", "dateTime": 1516651232099}, {"current_trial": 24, "trialdata": {"rt": -1, "trial_type": "single-stim", "word": "suspect", "stimulus": "<p id=\"stim\">SUSPECT</p>", "conditions": [18, 1200, "v", 18000], "internal_node_id": "0.0-15.0", "trial": 0, "time_elapsed": 188332, "serialpos": 3, "key_press": -1, "wordID": 1414, "type": "PRES_VIS", "trial_index": 24}, "uniqueid": "MTK2022:34Z02EIMITK5WDI370NEG6MA3DF0TK", "dateTime": 1516651234339}, {"current_trial": 25, "trialdata": {"rt": -1, "trial_type": "single-stim", "word": "rebel", "stimulus": "<p id=\"stim\">REBEL</p>", "conditions": [18, 1200, "v", 18000], "internal_node_id": "0.0-16.0", "trial": 0, "time_elapsed": 190478, "serialpos": 4, "key_press": -1, "wordID": 1171, "type": "PRES_VIS", "trial_index": 25}, "uniqueid": "MTK2022:34Z02EIMITK5WDI370NEG6MA3DF0TK", "dateTime": 1516651236485}, {"current_trial": 26, "trialdata": {"rt": -1, "trial_type": "single-stim", "word": "mask", "stimulus": "<p id=\"stim\">MASK</p>", "conditions": [18, 1200, "v", 18000], "internal_node_id": "0.0-17.0", "trial": 0, "time_elapsed": 192860, "serialpos": 5, "key_press": -1, "wordID": 875, "type": "PRES_VIS", "trial_index": 26}, "uniqueid": "MTK2022:34Z02EIMITK5WDI370NEG6MA3DF0TK", "dateTime": 1516651238867}, {"current_trial": 27, "trialdata": {"rt": -1, "trial_type": "single-stim", "word": "grill", "stimulus": "<p id=\"stim\">GRILL</p>", "conditions": [18, 1200, "v", 18000], "internal_node_id": "0.0-18.0", "trial": 0, "time_elapsed": 195062, "serialpos": 6, "key_press": -1, "wordID": 660, "type": "PRES_VIS", "trial_index": 27}, "uniqueid": "MTK2022:34Z02EIMITK5WDI370NEG6MA3DF0TK", "dateTime": 1516651241069}, {"current_trial": 28, "trialdata": {"rt": -1, "trial_type": "single-stim", "word": "journal", "stimulus": "<p id=\"stim\">JOURNAL</p>", "conditions": [18, 1200, "v", 18000], "internal_node_id": "0.0-19.0", "trial": 0, "time_elapsed": 197103, "serialpos": 7, "key_press": -1, "wordID": 759, "type": "PRES_VIS", "trial_index": 28}, "uniqueid": "MTK2022:34Z02EIMITK5WDI370NEG6MA3DF0TK", "dateTime": 1516651243111}, {"current_trial": 29, "trialdata": {"rt": -1, "trial_type": "single-stim", "word": "gymnast", "stimulus": "<p id=\"stim\">GYMNAST</p>", "conditions": [18, 1200, "v", 18000], "internal_node_id": "0.0-20.0", "trial": 0, "time_elapsed": 199178, "serialpos": 8, "key_press": -1, "wordID": 674, "type": "PRES_VIS", "trial_index": 29}, "uniqueid": "MTK2022:34Z02EIMITK5WDI370NEG6MA3DF0TK", "dateTime": 1516651245185}, {"current_trial": 30, "trialdata": {"rt": -1, "trial_type": "single-stim", "word": "cyclone", "stimulus": "<p id=\"stim\">CYCLONE</p>", "conditions": [18, 1200, "v", 18000], "internal_node_id": "0.0-21.0", "trial": 0, "time_elapsed": 201449, "serialpos": 9, "key_press": -1, "wordID": 430, "type": "PRES_VIS", "trial_index": 30}, "uniqueid": "MTK2022:34Z02EIMITK5WDI370NEG6MA3DF0TK", "dateTime": 1516651247456}, {"current_trial": 31, "trialdata": {"rt": -1, "trial_type": "single-stim", "word": "dorm", "stimulus": "<p id=\"stim\">DORM</p>", "conditions": [18, 1200, "v", 18000], "internal_node_id": "0.0-22.0", "trial": 0, "time_elapsed": 203644, "serialpos": 10, "key_press": -1, "wordID": 487, "type": "PRES_VIS", "trial_index": 31}, "uniqueid": "MTK2022:34Z02EIMITK5WDI370NEG6MA3DF0TK", "dateTime": 1516651249651}, {"current_trial": 32, "trialdata": {"rt": -1, "trial_type": "single-stim", "word": "thief", "stimulus": "<p id=\"stim\">THIEF</p>", "conditions": [18, 1200, "v", 18000], "internal_node_id": "0.0-23.0", "trial": 0, "time_elapsed": 206027, "serialpos": 11, "key_press": -1, "wordID": 1455, "type": "PRES_VIS", "trial_index": 32}, "uniqueid": "MTK2022:34Z02EIMITK5WDI370NEG6MA3DF0TK", "dateTime": 1516651252034}, {"current_trial": 33, "trialdata": {"rt": -1, "trial_type": "single-stim", "word": "clam", "stimulus": "<p id=\"stim\">CLAM</p>", "conditions": [18, 1200, "v", 18000], "internal_node_id": "0.0-24.0", "trial": 0, "time_elapsed": 208067, "serialpos": 12, "key_press": -1, "wordID": 314, "type": "PRES_VIS", "trial_index": 33}, "uniqueid": "MTK2022:34Z02EIMITK5WDI370NEG6MA3DF0TK", "dateTime": 1516651254074}, {"current_trial": 34, "trialdata": {"rt": -1, "trial_type": "single-stim", "word": "mister", "stimulus": "<p id=\"stim\">MISTER</p>", "conditions": [18, 1200, "v", 18000], "internal_node_id": "0.0-25.0", "trial": 0, "time_elapsed": 210407, "serialpos": 13, "key_press": -1, "wordID": 900, "type": "PRES_VIS", "trial_index": 34}, "uniqueid": "MTK2022:34Z02EIMITK5WDI370NEG6MA3DF0TK", "dateTime": 1516651256415}, {"current_trial": 35, "trialdata": {"rt": -1, "trial_type": "single-stim", "word": "summit", "stimulus": "<p id=\"stim\">SUMMIT</p>", "conditions": [18, 1200, "v", 18000], "internal_node_id": "0.0-26.0", "trial": 0, "time_elapsed": 212794, "serialpos": 14, "key_press": -1, "wordID": 1404, "type": "PRES_VIS", "trial_index": 35}, "uniqueid": "MTK2022:34Z02EIMITK5WDI370NEG6MA3DF0TK", "dateTime": 1516651258801}, {"current_trial": 36, "trialdata": {"rt": -1, "trial_type": "single-stim", "word": "chest", "stimulus": "<p id=\"stim\">CHEST</p>", "conditions": [18, 1200, "v", 18000], "internal_node_id": "0.0-27.0", "trial": 0, "time_elapsed": 214837, "serialpos": 15, "key_press": -1, "wordID": 294, "type": "PRES_VIS", "trial_index": 36}, "uniqueid": "MTK2022:34Z02EIMITK5WDI370NEG6MA3DF0TK", "dateTime": 1516651260844}, {"current_trial": 37, "trialdata": {"rt": -1, "trial_type": "single-stim", "word": "river", "stimulus": "<p id=\"stim\">RIVER</p>", "conditions": [18, 1200, "v", 18000], "internal_node_id": "0.0-28.0", "trial": 0, "time_elapsed": 216997, "serialpos": 16, "key_press": -1, "wordID": 1193, "type": "PRES_VIS", "trial_index": 37}, "uniqueid": "MTK2022:34Z02EIMITK5WDI370NEG6MA3DF0TK", "dateTime": 1516651263004}, {"current_trial": 38, "trialdata": {"rt": -1, "trial_type": "single-stim", "word": "compass", "stimulus": "<p id=\"stim\">COMPASS</p>", "conditions": [18, 1200, "v", 18000], "internal_node_id": "0.0-29.0", "trial": 0, "time_elapsed": 219074, "serialpos": 17, "key_press": -1, "wordID": 357, "type": "PRES_VIS", "trial_index": 38}, "uniqueid": "MTK2022:34Z02EIMITK5WDI370NEG6MA3DF0TK", "dateTime": 1516651265081}, {"current_trial": 39, "trialdata": {"rt": -1, "trial_type": "single-stim", "stimulus": "", "internal_node_id": "0.0-30.0-0.0", "time_elapsed": 221200, "key_press": -1, "type": "PRE_RECALL_DELAY", "trial_index": 39}, "uniqueid": "MTK2022:34Z02EIMITK5WDI370NEG6MA3DF0TK", "dateTime": 1516651267208}, {"current_trial": 40, "trialdata": {"rt": -1000, "trial_type": "single-audio", "stimulus": "/static/audio/400Hz.wav", "internal_node_id": "0.0-31.0", "time_elapsed": 221702, "key_press": -1, "type": "PRE_RECALL_ALERT", "trial_index": 40}, "uniqueid": "MTK2022:34Z02EIMITK5WDI370NEG6MA3DF0TK", "dateTime": 1516651267709}, {"current_trial": 41, "trialdata": {"rt": [3295, 4761, 6942, 9685, 13000, 16557, 17927, 19890, 21100, 24594, 26569, 52493], "recwords": ["river", "compass", "valve", "suspect", "theif", "blackboard", "grill", "journal", "clam", "chest", "yarn", "mask"], "key_times": [2370, 2507, 2615, 2750, 2834, 3295, 3671, 3839, 3903, 3988, 4157, 4314, 4451, 4761, 5292, 5491, 5607, 5926, 6113, 6394, 6465, 6942, 7615, 7810, 7945, 8096, 8352, 8615, 8863, 9685, 11054, 11146, 11393, 11632, 12072, 12184, 12317, 13000, 14145, 14310, 14332, 14488, 14772, 15522, 15607, 15714, 15777, 15930, 16557, 17012, 17118, 17205, 17411, 17526, 17927, 18582, 18909, 19015, 19190, 19267, 19492, 19603, 19890, 20300, 20395, 20481, 20617, 21100, 22313, 22387, 22470, 22639, 22700, 23065, 23211, 23348, 23483, 23623, 23864, 23974, 24103, 24168, 24372, 24594, 26057, 26185, 26227, 26321, 26569, 47882, 48359, 52035, 52170, 52493], "trial_type": "free-recall", "conditions": [18, 1200, "v", 18000], "internal_node_id": "0.0-32.0-0.0", "key_presses": [82, 73, 86, 69, 82, 13, 67, 79, 77, 80, 65, 83, 83, 13, 86, 65, 76, 86, 65, 8, 69, 13, 83, 85, 83, 80, 69, 67, 84, 13, 84, 72, 69, 70, 8, 73, 70, 13, 66, 76, 65, 67, 75, 66, 79, 65, 82, 68, 13, 71, 82, 73, 76, 76, 13, 74, 79, 85, 82, 78, 65, 76, 13, 67, 76, 65, 77, 13, 82, 73, 86, 69, 82, 8, 8, 8, 8, 8, 67, 72, 69, 83, 84, 13, 89, 65, 82, 78, 13, 77, 65, 83, 75, 13], "trial": 0, "time_elapsed": 281704, "type": "FREE_RECALL", "trial_index": 41}, "uniqueid": "MTK2022:34Z02EIMITK5WDI370NEG6MA3DF0TK", "dateTime": 1516651327712}, {"current_trial": 42, "trialdata": {"rt": 17144, "trial_type": "text", "internal_node_id": "0.0-33.0", "time_elapsed": 300850, "key_press": 32, "type": "INSTRUCTIONS", "trial_index": 42}, "uniqueid": "MTK2022:34Z02EIMITK5WDI370NEG6MA3DF0TK", "dateTime": 1516651346857}, {"current_trial": 43, "trialdata": {"rt": [3997, 11364, 17980], "trial_type": "math-distractor", "key_times": [2131, 2238, 2537, 3997, 10872, 11123, 11364, 17505, 17590, 17980], "responses": ["18 ", "24", "21"], "num2": [5, 9, 9, 8], "num3": [5, 7, 5, 9], "conditions": [18, 1200, "v", 18000], "internal_node_id": "0.0-34.0", "key_presses": [49, 56, 32, 13, 50, 52, 13, 50, 49, 13], "trial": 1, "time_elapsed": 320853, "type": "DISTRACTOR", "trial_index": 43, "num1": [8, 7, 7, 5]}, "uniqueid": "MTK2022:34Z02EIMITK5WDI370NEG6MA3DF0TK", "dateTime": 1516651366860}, {"current_trial": 44, "trialdata": {"rt": -1, "trial_type": "single-stim", "stimulus": "<p id=\"stim\">10</p>", "internal_node_id": "0.0-35.0-0.0", "time_elapsed": 323855, "key_press": -1, "trial_index": 44}, "uniqueid": "MTK2022:34Z02EIMITK5WDI370NEG6MA3DF0TK", "dateTime": 1516651369862}, {"current_trial": 45, "trialdata": {"rt": -1, "trial_type": "single-stim", "stimulus": "<p id=\"stim\">9</p>", "internal_node_id": "0.0-35.0-1.0", "time_elapsed": 324856, "key_press": -1, "trial_index": 45}, "uniqueid": "MTK2022:34Z02EIMITK5WDI370NEG6MA3DF0TK", "dateTime": 1516651370863}, {"current_trial": 46, "trialdata": {"rt": -1, "trial_type": "single-stim", "stimulus": "<p id=\"stim\">8</p>", "internal_node_id": "0.0-35.0-2.0", "time_elapsed": 325857, "key_press": -1, "trial_index": 46}, "uniqueid": "MTK2022:34Z02EIMITK5WDI370NEG6MA3DF0TK", "dateTime": 1516651371864}, {"current_trial": 47, "trialdata": {"rt": -1, "trial_type": "single-stim", "stimulus": "<p id=\"stim\">7</p>", "internal_node_id": "0.0-35.0-3.0", "time_elapsed": 326858, "key_press": -1, "trial_index": 47}, "uniqueid": "MTK2022:34Z02EIMITK5WDI370NEG6MA3DF0TK", "dateTime": 1516651372865}, {"current_trial": 48, "trialdata": {"rt": -1, "trial_type": "single-stim", "stimulus": "<p id=\"stim\">6</p>", "internal_node_id": "0.0-35.0-4.0", "time_elapsed": 327858, "key_press": -1, "trial_index": 48}, "uniqueid": "MTK2022:34Z02EIMITK5WDI370NEG6MA3DF0TK", "dateTime": 1516651373866}, {"current_trial": 49, "trialdata": {"rt": -1, "trial_type": "single-stim", "stimulus": "<p id=\"stim\">5</p>", "internal_node_id": "0.0-35.0-5.0", "time_elapsed": 328860, "key_press": -1, "trial_index": 49}, "uniqueid": "MTK2022:34Z02EIMITK5WDI370NEG6MA3DF0TK", "dateTime": 1516651374867}, {"current_trial": 50, "trialdata": {"rt": -1, "trial_type": "single-stim", "stimulus": "<p id=\"stim\">4</p>", "internal_node_id": "0.0-35.0-6.0", "time_elapsed": 329861, "key_press": -1, "trial_index": 50}, "uniqueid": "MTK2022:34Z02EIMITK5WDI370NEG6MA3DF0TK", "dateTime": 1516651375868}, {"current_trial": 51, "trialdata": {"rt": -1, "trial_type": "single-stim", "stimulus": "<p id=\"stim\">3</p>", "internal_node_id": "0.0-35.0-7.0", "time_elapsed": 330861, "key_press": -1, "trial_index": 51}, "uniqueid": "MTK2022:34Z02EIMITK5WDI370NEG6MA3DF0TK", "dateTime": 1516651376869}, {"current_trial": 52, "trialdata": {"rt": -1, "trial_type": "single-stim", "stimulus": "<p id=\"stim\">2</p>", "internal_node_id": "0.0-35.0-8.0", "time_elapsed": 331863, "key_press": -1, "trial_index": 52}, "uniqueid": "MTK2022:34Z02EIMITK5WDI370NEG6MA3DF0TK", "dateTime": 1516651377870}, {"current_trial": 53, "trialdata": {"rt": -1, "trial_type": "single-stim", "stimulus": "<p id=\"stim\">1</p>", "internal_node_id": "0.0-35.0-9.0", "time_elapsed": 332864, "key_press": -1, "trial_index": 53}, "uniqueid": "MTK2022:34Z02EIMITK5WDI370NEG6MA3DF0TK", "dateTime": 1516651378871}, {"current_trial": 54, "trialdata": {"rt": -1, "trial_type": "single-stim", "stimulus": "<p id=\"stim\">+</p>", "internal_node_id": "0.0-36.0-0.0", "time_elapsed": 334365, "key_press": -1, "type": "FIXATION", "trial_index": 54}, "uniqueid": "MTK2022:34Z02EIMITK5WDI370NEG6MA3DF0TK", "dateTime": 1516651380372}, {"current_trial": 55, "trialdata": {"rt": -1, "trial_type": "single-stim", "word": "flute", "stimulus": "<p id=\"stim\">FLUTE</p>", "conditions": [18, 1200, "v", 18000], "internal_node_id": "0.0-37.0", "trial": 1, "time_elapsed": 335567, "serialpos": 0, "key_press": -1, "wordID": 584, "type": "PRES_VIS", "trial_index": 55}, "uniqueid": "MTK2022:34Z02EIMITK5WDI370NEG6MA3DF0TK", "dateTime": 1516651381575}, {"current_trial": 56, "trialdata": {"rt": -1, "trial_type": "single-stim", "word": "rifle", "stimulus": "<p id=\"stim\">RIFLE</p>", "conditions": [18, 1200, "v", 18000], "internal_node_id": "0.0-38.0", "trial": 1, "time_elapsed": 337941, "serialpos": 1, "key_press": -1, "wordID": 1191, "type": "PRES_VIS", "trial_index": 56}, "uniqueid": "MTK2022:34Z02EIMITK5WDI370NEG6MA3DF0TK", "dateTime": 1516651383948}, {"current_trial": 57, "trialdata": {"rt": -1, "trial_type": "single-stim", "word": "daughter", "stimulus": "<p id=\"stim\">DAUGHTER</p>", "conditions": [18, 1200, "v", 18000], "internal_node_id": "0.0-39.0", "trial": 1, "time_elapsed": 340114, "serialpos": 2, "key_press": -1, "wordID": 441, "type": "PRES_VIS", "trial_index": 57}, "uniqueid": "MTK2022:34Z02EIMITK5WDI370NEG6MA3DF0TK", "dateTime": 1516651386121}, {"current_trial": 58, "trialdata": {"rt": -1, "trial_type": "single-stim", "word": "wrist", "stimulus": "<p id=\"stim\">WRIST</p>", "conditions": [18, 1200, "v", 18000], "internal_node_id": "0.0-40.0", "trial": 1, "time_elapsed": 342345, "serialpos": 3, "key_press": -1, "wordID": 1625, "type": "PRES_VIS", "trial_index": 58}, "uniqueid": "MTK2022:34Z02EIMITK5WDI370NEG6MA3DF0TK", "dateTime": 1516651388352}, {"current_trial": 59, "trialdata": {"rt": -1, "trial_type": "single-stim", "word": "harp", "stimulus": "<p id=\"stim\">HARP</p>", "conditions": [18, 1200, "v", 18000], "internal_node_id": "0.0-41.0", "trial": 1, "time_elapsed": 344524, "serialpos": 4, "key_press": -1, "wordID": 688, "type": "PRES_VIS", "trial_index": 59}, "uniqueid": "MTK2022:34Z02EIMITK5WDI370NEG6MA3DF0TK", "dateTime": 1516651390532}, {"current_trial": 60, "trialdata": {"rt": -1, "trial_type": "single-stim", "word": "peanut", "stimulus": "<p id=\"stim\">PEANUT</p>", "conditions": [18, 1200, "v", 18000], "internal_node_id": "0.0-42.0", "trial": 1, "time_elapsed": 346600, "serialpos": 5, "key_press": -1, "wordID": 1031, "type": "PRES_VIS", "trial_index": 60}, "uniqueid": "MTK2022:34Z02EIMITK5WDI370NEG6MA3DF0TK", "dateTime": 1516651392607}, {"current_trial": 61, "trialdata": {"rt": -1, "trial_type": "single-stim", "word": "slug", "stimulus": "<p id=\"stim\">SLUG</p>", "conditions": [18, 1200, "v", 18000], "internal_node_id": "0.0-43.0", "trial": 1, "time_elapsed": 348978, "serialpos": 6, "key_press": -1, "wordID": 1328, "type": "PRES_VIS", "trial_index": 61}, "uniqueid": "MTK2022:34Z02EIMITK5WDI370NEG6MA3DF0TK", "dateTime": 1516651394985}, {"current_trial": 62, "trialdata": {"rt": -1, "trial_type": "single-stim", "word": "doughnut", "stimulus": "<p id=\"stim\">DOUGHNUT</p>", "conditions": [18, 1200, "v", 18000], "internal_node_id": "0.0-44.0", "trial": 1, "time_elapsed": 351022, "serialpos": 7, "key_press": -1, "wordID": 489, "type": "PRES_VIS", "trial_index": 62}, "uniqueid": "MTK2022:34Z02EIMITK5WDI370NEG6MA3DF0TK", "dateTime": 1516651397029}, {"current_trial": 63, "trialdata": {"rt": -1, "trial_type": "single-stim", "word": "portrait", "stimulus": "<p id=\"stim\">PORTRAIT</p>", "conditions": [18, 1200, "v", 18000], "internal_node_id": "0.0-45.0", "trial": 1, "time_elapsed": 353290, "serialpos": 8, "key_press": -1, "wordID": 1110, "type": "PRES_VIS", "trial_index": 63}, "uniqueid": "MTK2022:34Z02EIMITK5WDI370NEG6MA3DF0TK", "dateTime": 1516651399297}, {"current_trial": 64, "trialdata": {"rt": -1, "trial_type": "single-stim", "word": "basement", "stimulus": "<p id=\"stim\">BASEMENT</p>", "conditions": [18, 1200, "v", 18000], "internal_node_id": "0.0-46.0", "trial": 1, "time_elapsed": 355499, "serialpos": 9, "key_press": -1, "wordID": 93, "type": "PRES_VIS", "trial_index": 64}, "uniqueid": "MTK2022:34Z02EIMITK5WDI370NEG6MA3DF0TK", "dateTime": 1516651401506}, {"current_trial": 65, "trialdata": {"rt": -1, "trial_type": "single-stim", "word": "goblin", "stimulus": "<p id=\"stim\">GOBLIN</p>", "conditions": [18, 1200, "v", 18000], "internal_node_id": "0.0-47.0", "trial": 1, "time_elapsed": 357789, "serialpos": 10, "key_press": -1, "wordID": 644, "type": "PRES_VIS", "trial_index": 65}, "uniqueid": "MTK2022:34Z02EIMITK5WDI370NEG6MA3DF0TK", "dateTime": 1516651403796}, {"current_trial": 66, "trialdata": {"rt": -1, "trial_type": "single-stim", "word": "canal", "stimulus": "<p id=\"stim\">CANAL</p>", "conditions": [18, 1200, "v", 18000], "internal_node_id": "0.0-48.0", "trial": 1, "time_elapsed": 360121, "serialpos": 11, "key_press": -1, "wordID": 225, "type": "PRES_VIS", "trial_index": 66}, "uniqueid": "MTK2022:34Z02EIMITK5WDI370NEG6MA3DF0TK", "dateTime": 1516651406128}, {"current_trial": 67, "trialdata": {"rt": -1, "trial_type": "single-stim", "word": "judge", "stimulus": "<p id=\"stim\">JUDGE</p>", "conditions": [18, 1200, "v", 18000], "internal_node_id": "0.0-49.0", "trial": 1, "time_elapsed": 362382, "serialpos": 12, "key_press": -1, "wordID": 760, "type": "PRES_VIS", "trial_index": 67}, "uniqueid": "MTK2022:34Z02EIMITK5WDI370NEG6MA3DF0TK", "dateTime": 1516651408389}, {"current_trial": 68, "trialdata": {"rt": -1, "trial_type": "single-stim", "word": "umpire", "stimulus": "<p id=\"stim\">UMPIRE</p>", "conditions": [18, 1200, "v", 18000], "internal_node_id": "0.0-50.0", "trial": 1, "time_elapsed": 364637, "serialpos": 13, "key_press": -1, "wordID": 1534, "type": "PRES_VIS", "trial_index": 68}, "uniqueid": "MTK2022:34Z02EIMITK5WDI370NEG6MA3DF0TK", "dateTime": 1516651410645}, {"current_trial": 69, "trialdata": {"rt": -1, "trial_type": "single-stim", "word": "female", "stimulus": "<p id=\"stim\">FEMALE</p>", "conditions": [18, 1200, "v", 18000], "internal_node_id": "0.0-51.0", "trial": 1, "time_elapsed": 366734, "serialpos": 14, "key_press": -1, "wordID": 558, "type": "PRES_VIS", "trial_index": 69}, "uniqueid": "MTK2022:34Z02EIMITK5WDI370NEG6MA3DF0TK", "dateTime": 1516651412741}, {"current_trial": 70, "trialdata": {"rt": -1, "trial_type": "single-stim", "word": "bullet", "stimulus": "<p id=\"stim\">BULLET</p>", "conditions": [18, 1200, "v", 18000], "internal_node_id": "0.0-52.0", "trial": 1, "time_elapsed": 368919, "serialpos": 15, "key_press": -1, "wordID": 193, "type": "PRES_VIS", "trial_index": 70}, "uniqueid": "MTK2022:34Z02EIMITK5WDI370NEG6MA3DF0TK", "dateTime": 1516651414926}, {"current_trial": 71, "trialdata": {"rt": -1, "trial_type": "single-stim", "word": "bouquet", "stimulus": "<p id=\"stim\">BOUQUET</p>", "conditions": [18, 1200, "v", 18000], "internal_node_id": "0.0-53.0", "trial": 1, "time_elapsed": 371050, "serialpos": 16, "key_press": -1, "wordID": 156, "type": "PRES_VIS", "trial_index": 71}, "uniqueid": "MTK2022:34Z02EIMITK5WDI370NEG6MA3DF0TK", "dateTime": 1516651417057}, {"current_trial": 72, "trialdata": {"rt": -1, "trial_type": "single-stim", "word": "banjo", "stimulus": "<p id=\"stim\">BANJO</p>", "conditions": [18, 1200, "v", 18000], "internal_node_id": "0.0-54.0", "trial": 1, "time_elapsed": 373201, "serialpos": 17, "key_press": -1, "wordID": 81, "type": "PRES_VIS", "trial_index": 72}, "uniqueid": "MTK2022:34Z02EIMITK5WDI370NEG6MA3DF0TK", "dateTime": 1516651419208}, {"current_trial": 73, "trialdata": {"rt": -1, "trial_type": "single-stim", "stimulus": "", "internal_node_id": "0.0-55.0-0.0", "time_elapsed": 375404, "key_press": -1, "type": "PRE_RECALL_DELAY", "trial_index": 73}, "uniqueid": "MTK2022:34Z02EIMITK5WDI370NEG6MA3DF0TK", "dateTime": 1516651421411}, {"current_trial": 74, "trialdata": {"rt": -1000, "trial_type": "single-audio", "stimulus": "/static/audio/400Hz.wav", "internal_node_id": "0.0-56.0", "time_elapsed": 375905, "key_press": -1, "type": "PRE_RECALL_ALERT", "trial_index": 74}, "uniqueid": "MTK2022:34Z02EIMITK5WDI370NEG6MA3DF0TK", "dateTime": 1516651421912}, {"current_trial": 75, "trialdata": {"rt": [2871, 4447, 6520, 8540, 10798, 13265, 17153, 22140, 45450], "recwords": ["daughter", "flute", "banjo", "harp", "slug", "peanut", "doughnut", "bouquet", "rifle"], "key_times": [1575, 1618, 1760, 1880, 2009, 2095, 2245, 2310, 2871, 3459, 3560, 3772, 3950, 4012, 4447, 5442, 5651, 5769, 5993, 6191, 6520, 7300, 7433, 7531, 7682, 8540, 9750, 9873, 10106, 10272, 10798, 11998, 12106, 12287, 12403, 12507, 12684, 13265, 14075, 14228, 14271, 14586, 14686, 15463, 15571, 16023, 16344, 16467, 17153, 17953, 18544, 20217, 20709, 20984, 21217, 21398, 22140, 43124, 43233, 43708, 44031, 44165, 44345, 44545, 44755, 44905, 45450], "trial_type": "free-recall", "conditions": [18, 1200, "v", 18000], "internal_node_id": "0.0-57.0-0.0", "key_presses": [68, 65, 85, 71, 72, 84, 69, 82, 13, 70, 76, 85, 84, 69, 13, 66, 65, 78, 74, 79, 13, 72, 65, 82, 80, 13, 83, 76, 85, 71, 13, 80, 69, 65, 78, 85, 84, 13, 68, 79, 85, 71, 72, 78, 73, 8, 85, 84, 13, 66, 79, 85, 81, 85, 69, 84, 13, 82, 85, 73, 8, 8, 73, 70, 76, 69, 13], "trial": 1, "time_elapsed": 435907, "type": "FREE_RECALL", "trial_index": 75}, "uniqueid": "MTK2022:34Z02EIMITK5WDI370NEG6MA3DF0TK", "dateTime": 1516651481915}, {"current_trial": 76, "trialdata": {"rt": 2677, "trial_type": "text", "internal_node_id": "0.0-58.0", "time_elapsed": 440586, "key_press": 32, "type": "INSTRUCTIONS", "trial_index": 76}, "uniqueid": "MTK2022:34Z02EIMITK5WDI370NEG6MA3DF0TK", "dateTime": 1516651486593}, {"current_trial": 77, "trialdata": {"rt": [3168, 5111, 8398, 14558, 17296, 19989, 23648], "trial_type": "math-distractor", "key_times": [2730, 2816, 3168, 4603, 4809, 5111, 8097, 8243, 8398, 13607, 14236, 14558, 16755, 17050, 17296, 19650, 19989, 22967, 23347, 23648], "responses": ["20", "12", "11", "17", "15", "7", "16"], "num2": [3, 9, 4, 5, 8, 3, 9, 4], "num3": [8, 2, 2, 4, 6, 2, 2, 1], "conditions": [12, 1600, "v", 24000], "internal_node_id": "0.0-59.0", "key_presses": [50, 48, 13, 49, 50, 13, 49, 49, 13, 49, 55, 13, 49, 53, 13, 55, 13, 49, 54, 13], "trial": 2, "time_elapsed": 465590, "type": "DISTRACTOR", "trial_index": 77, "num1": [9, 1, 5, 8, 1, 2, 5, 4]}, "uniqueid": "MTK2022:34Z02EIMITK5WDI370NEG6MA3DF0TK", "dateTime": 1516651511597}, {"current_trial": 78, "trialdata": {"rt": -1, "trial_type": "single-stim", "stimulus": "<p id=\"stim\">10</p>", "internal_node_id": "0.0-60.0-0.0", "time_elapsed": 468592, "key_press": -1, "trial_index": 78}, "uniqueid": "MTK2022:34Z02EIMITK5WDI370NEG6MA3DF0TK", "dateTime": 1516651514599}, {"current_trial": 79, "trialdata": {"rt": -1, "trial_type": "single-stim", "stimulus": "<p id=\"stim\">9</p>", "internal_node_id": "0.0-60.0-1.0", "time_elapsed": 469594, "key_press": -1, "trial_index": 79}, "uniqueid": "MTK2022:34Z02EIMITK5WDI370NEG6MA3DF0TK", "dateTime": 1516651515601}, {"current_trial": 80, "trialdata": {"rt": -1, "trial_type": "single-stim", "stimulus": "<p id=\"stim\">8</p>", "internal_node_id": "0.0-60.0-2.0", "time_elapsed": 470595, "key_press": -1, "trial_index": 80}, "uniqueid": "MTK2022:34Z02EIMITK5WDI370NEG6MA3DF0TK", "dateTime": 1516651516603}, {"current_trial": 81, "trialdata": {"rt": -1, "trial_type": "single-stim", "stimulus": "<p id=\"stim\">7</p>", "internal_node_id": "0.0-60.0-3.0", "time_elapsed": 471596, "key_press": -1, "trial_index": 81}, "uniqueid": "MTK2022:34Z02EIMITK5WDI370NEG6MA3DF0TK", "dateTime": 1516651517603}, {"current_trial": 82, "trialdata": {"rt": -1, "trial_type": "single-stim", "stimulus": "<p id=\"stim\">6</p>", "internal_node_id": "0.0-60.0-4.0", "time_elapsed": 472597, "key_press": -1, "trial_index": 82}, "uniqueid": "MTK2022:34Z02EIMITK5WDI370NEG6MA3DF0TK", "dateTime": 1516651518604}, {"current_trial": 83, "trialdata": {"rt": -1, "trial_type": "single-stim", "stimulus": "<p id=\"stim\">5</p>", "internal_node_id": "0.0-60.0-5.0", "time_elapsed": 473598, "key_press": -1, "trial_index": 83}, "uniqueid": "MTK2022:34Z02EIMITK5WDI370NEG6MA3DF0TK", "dateTime": 1516651519605}, {"current_trial": 84, "trialdata": {"rt": -1, "trial_type": "single-stim", "stimulus": "<p id=\"stim\">4</p>", "internal_node_id": "0.0-60.0-6.0", "time_elapsed": 474599, "key_press": -1, "trial_index": 84}, "uniqueid": "MTK2022:34Z02EIMITK5WDI370NEG6MA3DF0TK", "dateTime": 1516651520606}, {"current_trial": 85, "trialdata": {"rt": -1, "trial_type": "single-stim", "stimulus": "<p id=\"stim\">3</p>", "internal_node_id": "0.0-60.0-7.0", "time_elapsed": 475600, "key_press": -1, "trial_index": 85}, "uniqueid": "MTK2022:34Z02EIMITK5WDI370NEG6MA3DF0TK", "dateTime": 1516651521607}, {"current_trial": 86, "trialdata": {"rt": -1, "trial_type": "single-stim", "stimulus": "<p id=\"stim\">2</p>", "internal_node_id": "0.0-60.0-8.0", "time_elapsed": 476601, "key_press": -1, "trial_index": 86}, "uniqueid": "MTK2022:34Z02EIMITK5WDI370NEG6MA3DF0TK", "dateTime": 1516651522608}, {"current_trial": 87, "trialdata": {"rt": -1, "trial_type": "single-stim", "stimulus": "<p id=\"stim\">1</p>", "internal_node_id": "0.0-60.0-9.0", "time_elapsed": 477603, "key_press": -1, "trial_index": 87}, "uniqueid": "MTK2022:34Z02EIMITK5WDI370NEG6MA3DF0TK", "dateTime": 1516651523610}, {"current_trial": 88, "trialdata": {"rt": -1, "trial_type": "single-stim", "stimulus": "<p id=\"stim\">+</p>", "internal_node_id": "0.0-61.0-0.0", "time_elapsed": 479104, "key_press": -1, "type": "FIXATION", "trial_index": 88}, "uniqueid": "MTK2022:34Z02EIMITK5WDI370NEG6MA3DF0TK", "dateTime": 1516651525111}, {"current_trial": 89, "trialdata": {"rt": -1, "trial_type": "single-stim", "word": "monster", "stimulus": "<p id=\"stim\">MONSTER</p>", "conditions": [12, 1600, "v", 24000], "internal_node_id": "0.0-62.0", "trial": 2, "time_elapsed": 480705, "serialpos": 0, "key_press": -1, "wordID": 911, "type": "PRES_VIS", "trial_index": 89}, "uniqueid": "MTK2022:34Z02EIMITK5WDI370NEG6MA3DF0TK", "dateTime": 1516651526712}, {"current_trial": 90, "trialdata": {"rt": -1, "trial_type": "single-stim", "word": "egypt", "stimulus": "<p id=\"stim\">EGYPT</p>", "conditions": [12, 1600, "v", 24000], "internal_node_id": "0.0-63.0", "trial": 2, "time_elapsed": 483326, "serialpos": 1, "key_press": -1, "wordID": 518, "type": "PRES_VIS", "trial_index": 90}, "uniqueid": "MTK2022:34Z02EIMITK5WDI370NEG6MA3DF0TK", "dateTime": 1516651529333}, {"current_trial": 91, "trialdata": {"rt": -1, "trial_type": "single-stim", "word": "victim", "stimulus": "<p id=\"stim\">VICTIM</p>", "conditions": [12, 1600, "v", 24000], "internal_node_id": "0.0-64.0", "trial": 2, "time_elapsed": 485777, "serialpos": 2, "key_press": -1, "wordID": 1561, "type": "PRES_VIS", "trial_index": 91}, "uniqueid": "MTK2022:34Z02EIMITK5WDI370NEG6MA3DF0TK", "dateTime": 1516651531784}, {"current_trial": 92, "trialdata": {"rt": -1, "trial_type": "single-stim", "word": "viking", "stimulus": "<p id=\"stim\">VIKING</p>", "conditions": [12, 1600, "v", 24000], "internal_node_id": "0.0-65.0", "trial": 2, "time_elapsed": 488248, "serialpos": 3, "key_press": -1, "wordID": 1564, "type": "PRES_VIS", "trial_index": 92}, "uniqueid": "MTK2022:34Z02EIMITK5WDI370NEG6MA3DF0TK", "dateTime": 1516651534255}, {"current_trial": 93, "trialdata": {"rt": -1, "trial_type": "single-stim", "word": "custard", "stimulus": "<p id=\"stim\">CUSTARD</p>", "conditions": [12, 1600, "v", 24000], "internal_node_id": "0.0-66.0", "trial": 2, "time_elapsed": 490751, "serialpos": 4, "key_press": -1, "wordID": 428, "type": "PRES_VIS", "trial_index": 93}, "uniqueid": "MTK2022:34Z02EIMITK5WDI370NEG6MA3DF0TK", "dateTime": 1516651536758}, {"current_trial": 94, "trialdata": {"rt": -1, "trial_type": "single-stim", "word": "pastry", "stimulus": "<p id=\"stim\">PASTRY</p>", "conditions": [12, 1600, "v", 24000], "internal_node_id": "0.0-67.0", "trial": 2, "time_elapsed": 493478, "serialpos": 5, "key_press": -1, "wordID": 1021, "type": "PRES_VIS", "trial_index": 94}, "uniqueid": "MTK2022:34Z02EIMITK5WDI370NEG6MA3DF0TK", "dateTime": 1516651539485}, {"current_trial": 95, "trialdata": {"rt": -1, "trial_type": "single-stim", "word": "stream", "stimulus": "<p id=\"stim\">STREAM</p>", "conditions": [12, 1600, "v", 24000], "internal_node_id": "0.0-68.0", "trial": 2, "time_elapsed": 496206, "serialpos": 6, "key_press": -1, "wordID": 1391, "type": "PRES_VIS", "trial_index": 95}, "uniqueid": "MTK2022:34Z02EIMITK5WDI370NEG6MA3DF0TK", "dateTime": 1516651542213}, {"current_trial": 96, "trialdata": {"rt": -1, "trial_type": "single-stim", "word": "fox", "stimulus": "<p id=\"stim\">FOX</p>", "conditions": [12, 1600, "v", 24000], "internal_node_id": "0.0-69.0", "trial": 2, "time_elapsed": 498689, "serialpos": 7, "key_press": -1, "wordID": 597, "type": "PRES_VIS", "trial_index": 96}, "uniqueid": "MTK2022:34Z02EIMITK5WDI370NEG6MA3DF0TK", "dateTime": 1516651544696}, {"current_trial": 97, "trialdata": {"rt": -1, "trial_type": "single-stim", "word": "crown", "stimulus": "<p id=\"stim\">CROWN</p>", "conditions": [12, 1600, "v", 24000], "internal_node_id": "0.0-70.0", "trial": 2, "time_elapsed": 501413, "serialpos": 8, "key_press": -1, "wordID": 414, "type": "PRES_VIS", "trial_index": 97}, "uniqueid": "MTK2022:34Z02EIMITK5WDI370NEG6MA3DF0TK", "dateTime": 1516651547420}, {"current_trial": 98, "trialdata": {"rt": -1, "trial_type": "single-stim", "word": "eyelash", "stimulus": "<p id=\"stim\">EYELASH</p>", "conditions": [12, 1600, "v", 24000], "internal_node_id": "0.0-71.0", "trial": 2, "time_elapsed": 503916, "serialpos": 9, "key_press": -1, "wordID": 545, "type": "PRES_VIS", "trial_index": 98}, "uniqueid": "MTK2022:34Z02EIMITK5WDI370NEG6MA3DF0TK", "dateTime": 1516651549923}, {"current_trial": 99, "trialdata": {"rt": -1, "trial_type": "single-stim", "word": "panther", "stimulus": "<p id=\"stim\">PANTHER</p>", "conditions": [12, 1600, "v", 24000], "internal_node_id": "0.0-72.0", "trial": 2, "time_elapsed": 506554, "serialpos": 10, "key_press": -1, "wordID": 1008, "type": "PRES_VIS", "trial_index": 99}, "uniqueid": "MTK2022:34Z02EIMITK5WDI370NEG6MA3DF0TK", "dateTime": 1516651552561}, {"current_trial": 100, "trialdata": {"rt": -1, "trial_type": "single-stim", "word": "blueprint", "stimulus": "<p id=\"stim\">BLUEPRINT</p>", "conditions": [12, 1600, "v", 24000], "internal_node_id": "0.0-73.0", "trial": 2, "time_elapsed": 509052, "serialpos": 11, "key_press": -1, "wordID": 141, "type": "PRES_VIS", "trial_index": 100}, "uniqueid": "MTK2022:34Z02EIMITK5WDI370NEG6MA3DF0TK", "dateTime": 1516651555059}, {"current_trial": 101, "trialdata": {"rt": -1, "trial_type": "single-stim", "stimulus": "", "internal_node_id": "0.0-74.0-0.0", "time_elapsed": 511239, "key_press": -1, "type": "PRE_RECALL_DELAY", "trial_index": 101}, "uniqueid": "MTK2022:34Z02EIMITK5WDI370NEG6MA3DF0TK", "dateTime": 1516651557247}, {"current_trial": 102, "trialdata": {"rt": -1000, "trial_type": "single-audio", "stimulus": "/static/audio/400Hz.wav", "internal_node_id": "0.0-75.0", "time_elapsed": 511741, "key_press": -1, "type": "PRE_RECALL_ALERT", "trial_index": 102}, "uniqueid": "MTK2022:34Z02EIMITK5WDI370NEG6MA3DF0TK", "dateTime": 1516651557748}, {"current_trial": 103, "trialdata": {"rt": [3828, 6970, 9091, 12762, 18912, 24386, 29347, 31748, 33348, 38994, 42366], "recwords": ["monster", "egypt", "victim", "viking", "custard", "pastry", "river", "fox", "crown", "panther", "blueprint"], "key_times": [1979, 2064, 2242, 2351, 2589, 2774, 2857, 3828, 4308, 4600, 4900, 5449, 5625, 6970, 7541, 7677, 7873, 8118, 8229, 8357, 9091, 11202, 11404, 11638, 11809, 11894, 12136, 12762, 16858, 16971, 17132, 17475, 18069, 18183, 18396, 18912, 20836, 21040, 21173, 21406, 21573, 22109, 22254, 22391, 22552, 23217, 23548, 23592, 24386, 27635, 27743, 27905, 28403, 28489, 29347, 30323, 30528, 30841, 31748, 31957, 32166, 32289, 32396, 32557, 33348, 33930, 34165, 34359, 34550, 34658, 35291, 35356, 38994, 39389, 39546, 39776, 40138, 40412, 41033, 41191, 41255, 41362, 42366], "trial_type": "free-recall", "conditions": [12, 1600, "v", 24000], "internal_node_id": "0.0-76.0-0.0", "key_presses": [77, 79, 78, 83, 84, 69, 82, 13, 69, 71, 89, 80, 84, 13, 86, 73, 67, 84, 73, 77, 13, 86, 73, 75, 73, 78, 71, 13, 67, 85, 83, 84, 65, 82, 68, 13, 80, 65, 82, 84, 89, 8, 8, 8, 83, 84, 82, 89, 13, 82, 73, 86, 69, 82, 13, 70, 79, 88, 13, 67, 82, 79, 87, 78, 13, 80, 65, 78, 84, 72, 69, 82, 13, 66, 76, 85, 69, 80, 82, 73, 78, 84, 13], "trial": 2, "time_elapsed": 571743, "type": "FREE_RECALL", "trial_index": 103}, "uniqueid": "MTK2022:34Z02EIMITK5WDI370NEG6MA3DF0TK", "dateTime": 1516651617751}, {"current_trial": 104, "trialdata": {"rt": 2389, "trial_type": "text", "internal_node_id": "0.0-77.0", "time_elapsed": 576135, "key_press": 32, "type": "INSTRUCTIONS", "trial_index": 104}, "uniqueid": "MTK2022:34Z02EIMITK5WDI370NEG6MA3DF0TK", "dateTime": 1516651622142}, {"current_trial": 105, "trialdata": {"rt": [2007, 6910, 11634], "trial_type": "math-distractor", "key_times": [1541, 2007, 6341, 6660, 6910, 11271, 11375, 11634], "responses": ["9", "19", "22"], "num2": [7, 8, 5, 9], "num3": [1, 4, 8, 2], "conditions": [24, 800, "v", 12000], "internal_node_id": "0.0-78.0", "key_presses": [57, 13, 49, 57, 13, 50, 50, 13], "trial": 3, "time_elapsed": 590138, "type": "DISTRACTOR", "trial_index": 105, "num1": [1, 7, 9, 2]}, "uniqueid": "MTK2022:34Z02EIMITK5WDI370NEG6MA3DF0TK", "dateTime": 1516651636145}, {"current_trial": 106, "trialdata": {"rt": -1, "trial_type": "single-stim", "stimulus": "<p id=\"stim\">10</p>", "internal_node_id": "0.0-79.0-0.0", "time_elapsed": 593140, "key_press": -1, "trial_index": 106}, "uniqueid": "MTK2022:34Z02EIMITK5WDI370NEG6MA3DF0TK", "dateTime": 1516651639147}, {"current_trial": 107, "trialdata": {"rt": -1, "trial_type": "single-stim", "stimulus": "<p id=\"stim\">9</p>", "internal_node_id": "0.0-79.0-1.0", "time_elapsed": 594140, "key_press": -1, "trial_index": 107}, "uniqueid": "MTK2022:34Z02EIMITK5WDI370NEG6MA3DF0TK", "dateTime": 1516651640147}, {"current_trial": 108, "trialdata": {"rt": -1, "trial_type": "single-stim", "stimulus": "<p id=\"stim\">8</p>", "internal_node_id": "0.0-79.0-2.0", "time_elapsed": 595141, "key_press": -1, "trial_index": 108}, "uniqueid": "MTK2022:34Z02EIMITK5WDI370NEG6MA3DF0TK", "dateTime": 1516651641149}, {"current_trial": 109, "trialdata": {"rt": -1, "trial_type": "single-stim", "stimulus": "<p id=\"stim\">7</p>", "internal_node_id": "0.0-79.0-3.0", "time_elapsed": 596143, "key_press": -1, "trial_index": 109}, "uniqueid": "MTK2022:34Z02EIMITK5WDI370NEG6MA3DF0TK", "dateTime": 1516651642150}, {"current_trial": 110, "trialdata": {"rt": -1, "trial_type": "single-stim", "stimulus": "<p id=\"stim\">6</p>", "internal_node_id": "0.0-79.0-4.0", "time_elapsed": 597144, "key_press": -1, "trial_index": 110}, "uniqueid": "MTK2022:34Z02EIMITK5WDI370NEG6MA3DF0TK", "dateTime": 1516651643151}, {"current_trial": 111, "trialdata": {"rt": -1, "trial_type": "single-stim", "stimulus": "<p id=\"stim\">5</p>", "internal_node_id": "0.0-79.0-5.0", "time_elapsed": 598145, "key_press": -1, "trial_index": 111}, "uniqueid": "MTK2022:34Z02EIMITK5WDI370NEG6MA3DF0TK", "dateTime": 1516651644152}, {"current_trial": 112, "trialdata": {"rt": -1, "trial_type": "single-stim", "stimulus": "<p id=\"stim\">4</p>", "internal_node_id": "0.0-79.0-6.0", "time_elapsed": 599147, "key_press": -1, "trial_index": 112}, "uniqueid": "MTK2022:34Z02EIMITK5WDI370NEG6MA3DF0TK", "dateTime": 1516651645154}, {"current_trial": 113, "trialdata": {"rt": -1, "trial_type": "single-stim", "stimulus": "<p id=\"stim\">3</p>", "internal_node_id": "0.0-79.0-7.0", "time_elapsed": 600148, "key_press": -1, "trial_index": 113}, "uniqueid": "MTK2022:34Z02EIMITK5WDI370NEG6MA3DF0TK", "dateTime": 1516651646155}, {"current_trial": 114, "trialdata": {"rt": -1, "trial_type": "single-stim", "stimulus": "<p id=\"stim\">2</p>", "internal_node_id": "0.0-79.0-8.0", "time_elapsed": 601149, "key_press": -1, "trial_index": 114}, "uniqueid": "MTK2022:34Z02EIMITK5WDI370NEG6MA3DF0TK", "dateTime": 1516651647157}, {"current_trial": 115, "trialdata": {"rt": -1, "trial_type": "single-stim", "stimulus": "<p id=\"stim\">1</p>", "internal_node_id": "0.0-79.0-9.0", "time_elapsed": 602151, "key_press": -1, "trial_index": 115}, "uniqueid": "MTK2022:34Z02EIMITK5WDI370NEG6MA3DF0TK", "dateTime": 1516651648158}, {"current_trial": 116, "trialdata": {"rt": -1, "trial_type": "single-stim", "stimulus": "<p id=\"stim\">+</p>", "internal_node_id": "0.0-80.0-0.0", "time_elapsed": 603652, "key_press": -1, "type": "FIXATION", "trial_index": 116}, "uniqueid": "MTK2022:34Z02EIMITK5WDI370NEG6MA3DF0TK", "dateTime": 1516651649659}, {"current_trial": 117, "trialdata": {"rt": -1, "trial_type": "single-stim", "word": "suitcase", "stimulus": "<p id=\"stim\">SUITCASE</p>", "conditions": [24, 800, "v", 12000], "internal_node_id": "0.0-81.0", "trial": 3, "time_elapsed": 604452, "serialpos": 0, "key_press": -1, "wordID": 1402, "type": "PRES_VIS", "trial_index": 117}, "uniqueid": "MTK2022:34Z02EIMITK5WDI370NEG6MA3DF0TK", "dateTime": 1516651650460}, {"current_trial": 118, "trialdata": {"rt": -1, "trial_type": "single-stim", "word": "luggage", "stimulus": "<p id=\"stim\">LUGGAGE</p>", "conditions": [24, 800, "v", 12000], "internal_node_id": "0.0-82.0", "trial": 3, "time_elapsed": 606427, "serialpos": 1, "key_press": -1, "wordID": 846, "type": "PRES_VIS", "trial_index": 118}, "uniqueid": "MTK2022:34Z02EIMITK5WDI370NEG6MA3DF0TK", "dateTime": 1516651652434}, {"current_trial": 119, "trialdata": {"rt": -1, "trial_type": "single-stim", "word": "barley", "stimulus": "<p id=\"stim\">BARLEY</p>", "conditions": [24, 800, "v", 12000], "internal_node_id": "0.0-83.0", "trial": 3, "time_elapsed": 608373, "serialpos": 2, "key_press": -1, "wordID": 87, "type": "PRES_VIS", "trial_index": 119}, "uniqueid": "MTK2022:34Z02EIMITK5WDI370NEG6MA3DF0TK", "dateTime": 1516651654380}, {"current_trial": 120, "trialdata": {"rt": -1, "trial_type": "single-stim", "word": "diner", "stimulus": "<p id=\"stim\">DINER</p>", "conditions": [24, 800, "v", 12000], "internal_node_id": "0.0-84.0", "trial": 3, "time_elapsed": 610059, "serialpos": 3, "key_press": -1, "wordID": 466, "type": "PRES_VIS", "trial_index": 120}, "uniqueid": "MTK2022:34Z02EIMITK5WDI370NEG6MA3DF0TK", "dateTime": 1516651656066}, {"current_trial": 121, "trialdata": {"rt": -1, "trial_type": "single-stim", "word": "island", "stimulus": "<p id=\"stim\">ISLAND</p>", "conditions": [24, 800, "v", 12000], "internal_node_id": "0.0-85.0", "trial": 3, "time_elapsed": 611670, "serialpos": 4, "key_press": -1, "wordID": 744, "type": "PRES_VIS", "trial_index": 121}, "uniqueid": "MTK2022:34Z02EIMITK5WDI370NEG6MA3DF0TK", "dateTime": 1516651657677}, {"current_trial": 122, "trialdata": {"rt": -1, "trial_type": "single-stim", "word": "driver", "stimulus": "<p id=\"stim\">DRIVER</p>", "conditions": [24, 800, "v", 12000], "internal_node_id": "0.0-86.0", "trial": 3, "time_elapsed": 613521, "serialpos": 5, "key_press": -1, "wordID": 498, "type": "PRES_VIS", "trial_index": 122}, "uniqueid": "MTK2022:34Z02EIMITK5WDI370NEG6MA3DF0TK", "dateTime": 1516651659528}, {"current_trial": 123, "trialdata": {"rt": -1, "trial_type": "single-stim", "word": "cocktail", "stimulus": "<p id=\"stim\">COCKTAIL</p>", "conditions": [24, 800, "v", 12000], "internal_node_id": "0.0-87.0", "trial": 3, "time_elapsed": 615294, "serialpos": 6, "key_press": -1, "wordID": 337, "type": "PRES_VIS", "trial_index": 123}, "uniqueid": "MTK2022:34Z02EIMITK5WDI370NEG6MA3DF0TK", "dateTime": 1516651661301}, {"current_trial": 124, "trialdata": {"rt": -1, "trial_type": "single-stim", "word": "turtle", "stimulus": "<p id=\"stim\">TURTLE</p>", "conditions": [24, 800, "v", 12000], "internal_node_id": "0.0-88.0", "trial": 3, "time_elapsed": 617127, "serialpos": 7, "key_press": -1, "wordID": 1521, "type": "PRES_VIS", "trial_index": 124}, "uniqueid": "MTK2022:34Z02EIMITK5WDI370NEG6MA3DF0TK", "dateTime": 1516651663134}, {"current_trial": 125, "trialdata": {"rt": -1, "trial_type": "single-stim", "word": "onion", "stimulus": "<p id=\"stim\">ONION</p>", "conditions": [24, 800, "v", 12000], "internal_node_id": "0.0-89.0", "trial": 3, "time_elapsed": 619099, "serialpos": 8, "key_press": -1, "wordID": 976, "type": "PRES_VIS", "trial_index": 125}, "uniqueid": "MTK2022:34Z02EIMITK5WDI370NEG6MA3DF0TK", "dateTime": 1516651665107}, {"current_trial": 126, "trialdata": {"rt": -1, "trial_type": "single-stim", "word": "star", "stimulus": "<p id=\"stim\">STAR</p>", "conditions": [24, 800, "v", 12000], "internal_node_id": "0.0-90.0", "trial": 3, "time_elapsed": 621064, "serialpos": 9, "key_press": -1, "wordID": 1372, "type": "PRES_VIS", "trial_index": 126}, "uniqueid": "MTK2022:34Z02EIMITK5WDI370NEG6MA3DF0TK", "dateTime": 1516651667071}, {"current_trial": 127, "trialdata": {"rt": -1, "trial_type": "single-stim", "word": "truck", "stimulus": "<p id=\"stim\">TRUCK</p>", "conditions": [24, 800, "v", 12000], "internal_node_id": "0.0-91.0", "trial": 3, "time_elapsed": 622769, "serialpos": 10, "key_press": -1, "wordID": 1511, "type": "PRES_VIS", "trial_index": 127}, "uniqueid": "MTK2022:34Z02EIMITK5WDI370NEG6MA3DF0TK", "dateTime": 1516651668776}, {"current_trial": 128, "trialdata": {"rt": -1, "trial_type": "single-stim", "word": "glass", "stimulus": "<p id=\"stim\">GLASS</p>", "conditions": [24, 800, "v", 12000], "internal_node_id": "0.0-92.0", "trial": 3, "time_elapsed": 624463, "serialpos": 11, "key_press": -1, "wordID": 638, "type": "PRES_VIS", "trial_index": 128}, "uniqueid": "MTK2022:34Z02EIMITK5WDI370NEG6MA3DF0TK", "dateTime": 1516651670470}, {"current_trial": 129, "trialdata": {"rt": -1, "trial_type": "single-stim", "word": "dime", "stimulus": "<p id=\"stim\">DIME</p>", "conditions": [24, 800, "v", 12000], "internal_node_id": "0.0-93.0", "trial": 3, "time_elapsed": 626141, "serialpos": 12, "key_press": -1, "wordID": 465, "type": "PRES_VIS", "trial_index": 129}, "uniqueid": "MTK2022:34Z02EIMITK5WDI370NEG6MA3DF0TK", "dateTime": 1516651672148}, {"current_trial": 130, "trialdata": {"rt": -1, "trial_type": "single-stim", "word": "helmet", "stimulus": "<p id=\"stim\">HELMET</p>", "conditions": [24, 800, "v", 12000], "internal_node_id": "0.0-94.0", "trial": 3, "time_elapsed": 628053, "serialpos": 13, "key_press": -1, "wordID": 701, "type": "PRES_VIS", "trial_index": 130}, "uniqueid": "MTK2022:34Z02EIMITK5WDI370NEG6MA3DF0TK", "dateTime": 1516651674060}, {"current_trial": 131, "trialdata": {"rt": -1, "trial_type": "single-stim", "word": "leg", "stimulus": "<p id=\"stim\">LEG</p>", "conditions": [24, 800, "v", 12000], "internal_node_id": "0.0-95.0", "trial": 3, "time_elapsed": 629957, "serialpos": 14, "key_press": -1, "wordID": 808, "type": "PRES_VIS", "trial_index": 131}, "uniqueid": "MTK2022:34Z02EIMITK5WDI370NEG6MA3DF0TK", "dateTime": 1516651675964}, {"current_trial": 132, "trialdata": {"rt": -1, "trial_type": "single-stim", "word": "girl", "stimulus": "<p id=\"stim\">GIRL</p>", "conditions": [24, 800, "v", 12000], "internal_node_id": "0.0-96.0", "trial": 3, "time_elapsed": 631722, "serialpos": 15, "key_press": -1, "wordID": 636, "type": "PRES_VIS", "trial_index": 132}, "uniqueid": "MTK2022:34Z02EIMITK5WDI370NEG6MA3DF0TK", "dateTime": 1516651677730}, {"current_trial": 133, "trialdata": {"rt": -1, "trial_type": "single-stim", "word": "grape", "stimulus": "<p id=\"stim\">GRAPE</p>", "conditions": [24, 800, "v", 12000], "internal_node_id": "0.0-97.0", "trial": 3, "time_elapsed": 633414, "serialpos": 16, "key_press": -1, "wordID": 653, "type": "PRES_VIS", "trial_index": 133}, "uniqueid": "MTK2022:34Z02EIMITK5WDI370NEG6MA3DF0TK", "dateTime": 1516651679422}, {"current_trial": 134, "trialdata": {"rt": -1, "trial_type": "single-stim", "word": "arm", "stimulus": "<p id=\"stim\">ARM</p>", "conditions": [24, 800, "v", 12000], "internal_node_id": "0.0-98.0", "trial": 3, "time_elapsed": 635294, "serialpos": 17, "key_press": -1, "wordID": 37, "type": "PRES_VIS", "trial_index": 134}, "uniqueid": "MTK2022:34Z02EIMITK5WDI370NEG6MA3DF0TK", "dateTime": 1516651681301}, {"current_trial": 135, "trialdata": {"rt": -1, "trial_type": "single-stim", "word": "shirt", "stimulus": "<p id=\"stim\">SHIRT</p>", "conditions": [24, 800, "v", 12000], "internal_node_id": "0.0-99.0", "trial": 3, "time_elapsed": 637257, "serialpos": 18, "key_press": -1, "wordID": 1286, "type": "PRES_VIS", "trial_index": 135}, "uniqueid": "MTK2022:34Z02EIMITK5WDI370NEG6MA3DF0TK", "dateTime": 1516651683264}, {"current_trial": 136, "trialdata": {"rt": -1, "trial_type": "single-stim", "word": "headband", "stimulus": "<p id=\"stim\">HEADBAND</p>", "conditions": [24, 800, "v", 12000], "internal_node_id": "0.0-100.0", "trial": 3, "time_elapsed": 639014, "serialpos": 19, "key_press": -1, "wordID": 695, "type": "PRES_VIS", "trial_index": 136}, "uniqueid": "MTK2022:34Z02EIMITK5WDI370NEG6MA3DF0TK", "dateTime": 1516651685021}, {"current_trial": 137, "trialdata": {"rt": -1, "trial_type": "single-stim", "word": "pebble", "stimulus": "<p id=\"stim\">PEBBLE</p>", "conditions": [24, 800, "v", 12000], "internal_node_id": "0.0-101.0", "trial": 3, "time_elapsed": 640735, "serialpos": 20, "key_press": -1, "wordID": 1034, "type": "PRES_VIS", "trial_index": 137}, "uniqueid": "MTK2022:34Z02EIMITK5WDI370NEG6MA3DF0TK", "dateTime": 1516651686742}, {"current_trial": 138, "trialdata": {"rt": -1, "trial_type": "single-stim", "word": "inmate", "stimulus": "<p id=\"stim\">INMATE</p>", "conditions": [24, 800, "v", 12000], "internal_node_id": "0.0-102.0", "trial": 3, "time_elapsed": 642497, "serialpos": 21, "key_press": -1, "wordID": 737, "type": "PRES_VIS", "trial_index": 138}, "uniqueid": "MTK2022:34Z02EIMITK5WDI370NEG6MA3DF0TK", "dateTime": 1516651688504}, {"current_trial": 139, "trialdata": {"rt": -1, "trial_type": "single-stim", "word": "infant", "stimulus": "<p id=\"stim\">INFANT</p>", "conditions": [24, 800, "v", 12000], "internal_node_id": "0.0-103.0", "trial": 3, "time_elapsed": 644101, "serialpos": 22, "key_press": -1, "wordID": 736, "type": "PRES_VIS", "trial_index": 139}, "uniqueid": "MTK2022:34Z02EIMITK5WDI370NEG6MA3DF0TK", "dateTime": 1516651690108}, {"current_trial": 140, "trialdata": {"rt": -1, "trial_type": "single-stim", "word": "crib", "stimulus": "<p id=\"stim\">CRIB</p>", "conditions": [24, 800, "v", 12000], "internal_node_id": "0.0-104.0", "trial": 3, "time_elapsed": 645847, "serialpos": 23, "key_press": -1, "wordID": 406, "type": "PRES_VIS", "trial_index": 140}, "uniqueid": "MTK2022:34Z02EIMITK5WDI370NEG6MA3DF0TK", "dateTime": 1516651691854}, {"current_trial": 141, "trialdata": {"rt": -1, "trial_type": "single-stim", "stimulus": "", "internal_node_id": "0.0-105.0-0.0", "time_elapsed": 647956, "key_press": -1, "type": "PRE_RECALL_DELAY", "trial_index": 141}, "uniqueid": "MTK2022:34Z02EIMITK5WDI370NEG6MA3DF0TK", "dateTime": 1516651693963}, {"current_trial": 142, "trialdata": {"rt": -1000, "trial_type": "single-audio", "stimulus": "/static/audio/400Hz.wav", "internal_node_id": "0.0-106.0", "time_elapsed": 648456, "key_press": -1, "type": "PRE_RECALL_ALERT", "trial_index": 142}, "uniqueid": "MTK2022:34Z02EIMITK5WDI370NEG6MA3DF0TK", "dateTime": 1516651694464}, {"current_trial": 143, "trialdata": {"rt": [5845, 7987, 9701, 11789, 12863, 16117, 22249, 24165, 26586, 28389, 30280, 35830, 40416, 44149], "recwords": ["turtle", "suitcase", "luggage", "island", "driver", "cocktail", "girl", "pebble", "inmate", "infant", "crib", "headband", "shirt", "grape"], "key_times": [3627, 3724, 3953, 4278, 4713, 4835, 4933, 5205, 5363, 5486, 5845, 6310, 6434, 6596, 6703, 6913, 6934, 7156, 7220, 7987, 8370, 8595, 8795, 8896, 9080, 9247, 9309, 9701, 10341, 10580, 10693, 10915, 11051, 11337, 11789, 12004, 12185, 12326, 12412, 12572, 12655, 12863, 13178, 13447, 13770, 14227, 14338, 14572, 15224, 15288, 15451, 15621, 16117, 21304, 21420, 21554, 21651, 22249, 22458, 22621, 23127, 23238, 23428, 23559, 24165, 25292, 25358, 25833, 25958, 26203, 26287, 26586, 27201, 27265, 27466, 27603, 27790, 27953, 28389, 28603, 28933, 29027, 29257, 29620, 29830, 30280, 32882, 33011, 33094, 33225, 33441, 33850, 35040, 35186, 35313, 35423, 35830, 39667, 39791, 39896, 40023, 40066, 40416, 42983, 43108, 43152, 43329, 43469, 44149], "trial_type": "free-recall", "conditions": [24, 800, "v", 12000], "internal_node_id": "0.0-107.0-0.0", "key_presses": [84, 85, 84, 76, 8, 8, 82, 84, 76, 69, 13, 83, 85, 73, 84, 67, 65, 83, 69, 13, 76, 85, 71, 71, 65, 71, 69, 13, 73, 83, 76, 65, 78, 68, 13, 68, 82, 73, 86, 69, 82, 13, 67, 67, 8, 79, 67, 75, 84, 65, 73, 76, 13, 71, 73, 82, 76, 13, 80, 69, 66, 66, 76, 69, 13, 73, 78, 77, 65, 84, 69, 13, 73, 78, 70, 65, 78, 84, 13, 83, 8, 67, 82, 73, 66, 13, 72, 69, 65, 68, 78, 8, 66, 65, 78, 68, 13, 83, 72, 73, 82, 84, 13, 71, 82, 65, 80, 69, 13], "trial": 3, "time_elapsed": 708459, "type": "FREE_RECALL", "trial_index": 143}, "uniqueid": "MTK2022:34Z02EIMITK5WDI370NEG6MA3DF0TK", "dateTime": 1516651754467}, {"current_trial": 144, "trialdata": {"rt": 770, "trial_type": "text", "internal_node_id": "0.0-108.0", "time_elapsed": 711231, "key_press": 32, "type": "INSTRUCTIONS", "trial_index": 144}, "uniqueid": "MTK2022:34Z02EIMITK5WDI370NEG6MA3DF0TK", "dateTime": 1516651757238}, {"current_trial": 145, "trialdata": {"rt": [7342, 9867], "trial_type": "math-distractor", "key_times": [4869, 5064, 6513, 7109, 7342, 9270, 9616, 9867], "responses": ["18", "15"], "num2": [2, 8, 8], "num3": [7, 2, 6], "conditions": [12, 1600, "v", 12000], "internal_node_id": "0.0-109.0", "key_presses": [49, 57, 8, 56, 13, 49, 53, 13], "trial": 4, "time_elapsed": 725234, "type": "DISTRACTOR", "trial_index": 145, "num1": [9, 5, 4]}, "uniqueid": "MTK2022:34Z02EIMITK5WDI370NEG6MA3DF0TK", "dateTime": 1516651771241}, {"current_trial": 146, "trialdata": {"rt": -1, "trial_type": "single-stim", "stimulus": "<p id=\"stim\">10</p>", "internal_node_id": "0.0-110.0-0.0", "time_elapsed": 728236, "key_press": -1, "trial_index": 146}, "uniqueid": "MTK2022:34Z02EIMITK5WDI370NEG6MA3DF0TK", "dateTime": 1516651774244}, {"current_trial": 147, "trialdata": {"rt": -1, "trial_type": "single-stim", "stimulus": "<p id=\"stim\">9</p>", "internal_node_id": "0.0-110.0-1.0", "time_elapsed": 729237, "key_press": -1, "trial_index": 147}, "uniqueid": "MTK2022:34Z02EIMITK5WDI370NEG6MA3DF0TK", "dateTime": 1516651775244}, {"current_trial": 148, "trialdata": {"rt": -1, "trial_type": "single-stim", "stimulus": "<p id=\"stim\">8</p>", "internal_node_id": "0.0-110.0-2.0", "time_elapsed": 730238, "key_press": -1, "trial_index": 148}, "uniqueid": "MTK2022:34Z02EIMITK5WDI370NEG6MA3DF0TK", "dateTime": 1516651776245}, {"current_trial": 149, "trialdata": {"rt": -1, "trial_type": "single-stim", "stimulus": "<p id=\"stim\">7</p>", "internal_node_id": "0.0-110.0-3.0", "time_elapsed": 731239, "key_press": -1, "trial_index": 149}, "uniqueid": "MTK2022:34Z02EIMITK5WDI370NEG6MA3DF0TK", "dateTime": 1516651777246}, {"current_trial": 150, "trialdata": {"rt": -1, "trial_type": "single-stim", "stimulus": "<p id=\"stim\">6</p>", "internal_node_id": "0.0-110.0-4.0", "time_elapsed": 732240, "key_press": -1, "trial_index": 150}, "uniqueid": "MTK2022:34Z02EIMITK5WDI370NEG6MA3DF0TK", "dateTime": 1516651778247}, {"current_trial": 151, "trialdata": {"rt": -1, "trial_type": "single-stim", "stimulus": "<p id=\"stim\">5</p>", "internal_node_id": "0.0-110.0-5.0", "time_elapsed": 733241, "key_press": -1, "trial_index": 151}, "uniqueid": "MTK2022:34Z02EIMITK5WDI370NEG6MA3DF0TK", "dateTime": 1516651779248}, {"current_trial": 152, "trialdata": {"rt": -1, "trial_type": "single-stim", "stimulus": "<p id=\"stim\">4</p>", "internal_node_id": "0.0-110.0-6.0", "time_elapsed": 734242, "key_press": -1, "trial_index": 152}, "uniqueid": "MTK2022:34Z02EIMITK5WDI370NEG6MA3DF0TK", "dateTime": 1516651780250}, {"current_trial": 153, "trialdata": {"rt": -1, "trial_type": "single-stim", "stimulus": "<p id=\"stim\">3</p>", "internal_node_id": "0.0-110.0-7.0", "time_elapsed": 735244, "key_press": -1, "trial_index": 153}, "uniqueid": "MTK2022:34Z02EIMITK5WDI370NEG6MA3DF0TK", "dateTime": 1516651781251}, {"current_trial": 154, "trialdata": {"rt": -1, "trial_type": "single-stim", "stimulus": "<p id=\"stim\">2</p>", "internal_node_id": "0.0-110.0-8.0", "time_elapsed": 736245, "key_press": -1, "trial_index": 154}, "uniqueid": "MTK2022:34Z02EIMITK5WDI370NEG6MA3DF0TK", "dateTime": 1516651782252}, {"current_trial": 155, "trialdata": {"rt": -1, "trial_type": "single-stim", "stimulus": "<p id=\"stim\">1</p>", "internal_node_id": "0.0-110.0-9.0", "time_elapsed": 737246, "key_press": -1, "trial_index": 155}, "uniqueid": "MTK2022:34Z02EIMITK5WDI370NEG6MA3DF0TK", "dateTime": 1516651783254}, {"current_trial": 156, "trialdata": {"rt": -1, "trial_type": "single-stim", "stimulus": "<p id=\"stim\">+</p>", "internal_node_id": "0.0-111.0-0.0", "time_elapsed": 738748, "key_press": -1, "type": "FIXATION", "trial_index": 156}, "uniqueid": "MTK2022:34Z02EIMITK5WDI370NEG6MA3DF0TK", "dateTime": 1516651784755}, {"current_trial": 157, "trialdata": {"rt": -1, "trial_type": "single-stim", "word": "branch", "stimulus": "<p id=\"stim\">BRANCH</p>", "conditions": [12, 1600, "v", 12000], "internal_node_id": "0.0-112.0", "trial": 4, "time_elapsed": 740348, "serialpos": 0, "key_press": -1, "wordID": 167, "type": "PRES_VIS", "trial_index": 157}, "uniqueid": "MTK2022:34Z02EIMITK5WDI370NEG6MA3DF0TK", "dateTime": 1516651786356}, {"current_trial": 158, "trialdata": {"rt": -1, "trial_type": "single-stim", "word": "shrub", "stimulus": "<p id=\"stim\">SHRUB</p>", "conditions": [12, 1600, "v", 12000], "internal_node_id": "0.0-113.0", "trial": 4, "time_elapsed": 742957, "serialpos": 1, "key_press": -1, "wordID": 1298, "type": "PRES_VIS", "trial_index": 158}, "uniqueid": "MTK2022:34Z02EIMITK5WDI370NEG6MA3DF0TK", "dateTime": 1516651788964}, {"current_trial": 159, "trialdata": {"rt": -1, "trial_type": "single-stim", "word": "shelf", "stimulus": "<p id=\"stim\">SHELF</p>", "conditions": [12, 1600, "v", 12000], "internal_node_id": "0.0-114.0", "trial": 4, "time_elapsed": 745577, "serialpos": 2, "key_press": -1, "wordID": 1279, "type": "PRES_VIS", "trial_index": 159}, "uniqueid": "MTK2022:34Z02EIMITK5WDI370NEG6MA3DF0TK", "dateTime": 1516651791585}, {"current_trial": 160, "trialdata": {"rt": -1, "trial_type": "single-stim", "word": "stone", "stimulus": "<p id=\"stim\">STONE</p>", "conditions": [12, 1600, "v", 12000], "internal_node_id": "0.0-115.0", "trial": 4, "time_elapsed": 748114, "serialpos": 3, "key_press": -1, "wordID": 1384, "type": "PRES_VIS", "trial_index": 160}, "uniqueid": "MTK2022:34Z02EIMITK5WDI370NEG6MA3DF0TK", "dateTime": 1516651794121}, {"current_trial": 161, "trialdata": {"rt": -1, "trial_type": "single-stim", "word": "pliers", "stimulus": "<p id=\"stim\">PLIERS</p>", "conditions": [12, 1600, "v", 12000], "internal_node_id": "0.0-116.0", "trial": 4, "time_elapsed": 750750, "serialpos": 4, "key_press": -1, "wordID": 1088, "type": "PRES_VIS", "trial_index": 161}, "uniqueid": "MTK2022:34Z02EIMITK5WDI370NEG6MA3DF0TK", "dateTime": 1516651796757}, {"current_trial": 162, "trialdata": {"rt": -1, "trial_type": "single-stim", "word": "oyster", "stimulus": "<p id=\"stim\">OYSTER</p>", "conditions": [12, 1600, "v", 12000], "internal_node_id": "0.0-117.0", "trial": 4, "time_elapsed": 753219, "serialpos": 5, "key_press": -1, "wordID": 994, "type": "PRES_VIS", "trial_index": 162}, "uniqueid": "MTK2022:34Z02EIMITK5WDI370NEG6MA3DF0TK", "dateTime": 1516651799226}, {"current_trial": 163, "trialdata": {"rt": -1, "trial_type": "single-stim", "word": "seafood", "stimulus": "<p id=\"stim\">SEAFOOD</p>", "conditions": [12, 1600, "v", 12000], "internal_node_id": "0.0-118.0", "trial": 4, "time_elapsed": 756012, "serialpos": 6, "key_press": -1, "wordID": 1259, "type": "PRES_VIS", "trial_index": 163}, "uniqueid": "MTK2022:34Z02EIMITK5WDI370NEG6MA3DF0TK", "dateTime": 1516651802019}, {"current_trial": 164, "trialdata": {"rt": -1, "trial_type": "single-stim", "word": "mattress", "stimulus": "<p id=\"stim\">MATTRESS</p>", "conditions": [12, 1600, "v", 12000], "internal_node_id": "0.0-119.0", "trial": 4, "time_elapsed": 758719, "serialpos": 7, "key_press": -1, "wordID": 878, "type": "PRES_VIS", "trial_index": 164}, "uniqueid": "MTK2022:34Z02EIMITK5WDI370NEG6MA3DF0TK", "dateTime": 1516651804726}, {"current_trial": 165, "trialdata": {"rt": -1, "trial_type": "single-stim", "word": "slide", "stimulus": "<p id=\"stim\">SLIDE</p>", "conditions": [12, 1600, "v", 12000], "internal_node_id": "0.0-120.0", "trial": 4, "time_elapsed": 761132, "serialpos": 8, "key_press": -1, "wordID": 1325, "type": "PRES_VIS", "trial_index": 165}, "uniqueid": "MTK2022:34Z02EIMITK5WDI370NEG6MA3DF0TK", "dateTime": 1516651807139}, {"current_trial": 166, "trialdata": {"rt": -1, "trial_type": "single-stim", "word": "mop", "stimulus": "<p id=\"stim\">MOP</p>", "conditions": [12, 1600, "v", 12000], "internal_node_id": "0.0-121.0", "trial": 4, "time_elapsed": 763920, "serialpos": 9, "key_press": -1, "wordID": 915, "type": "PRES_VIS", "trial_index": 166}, "uniqueid": "MTK2022:34Z02EIMITK5WDI370NEG6MA3DF0TK", "dateTime": 1516651809928}, {"current_trial": 167, "trialdata": {"rt": -1, "trial_type": "single-stim", "word": "blender", "stimulus": "<p id=\"stim\">BLENDER</p>", "conditions": [12, 1600, "v", 12000], "internal_node_id": "0.0-122.0", "trial": 4, "time_elapsed": 766701, "serialpos": 10, "key_press": -1, "wordID": 135, "type": "PRES_VIS", "trial_index": 167}, "uniqueid": "MTK2022:34Z02EIMITK5WDI370NEG6MA3DF0TK", "dateTime": 1516651812708}, {"current_trial": 168, "trialdata": {"rt": -1, "trial_type": "single-stim", "word": "brick", "stimulus": "<p id=\"stim\">BRICK</p>", "conditions": [12, 1600, "v", 12000], "internal_node_id": "0.0-123.0", "trial": 4, "time_elapsed": 769331, "serialpos": 11, "key_press": -1, "wordID": 171, "type": "PRES_VIS", "trial_index": 168}, "uniqueid": "MTK2022:34Z02EIMITK5WDI370NEG6MA3DF0TK", "dateTime": 1516651815338}, {"current_trial": 169, "trialdata": {"rt": -1, "trial_type": "single-stim", "stimulus": "", "internal_node_id": "0.0-124.0-0.0", "time_elapsed": 771678, "key_press": -1, "type": "PRE_RECALL_DELAY", "trial_index": 169}, "uniqueid": "MTK2022:34Z02EIMITK5WDI370NEG6MA3DF0TK", "dateTime": 1516651817686}, {"current_trial": 170, "trialdata": {"rt": -1000, "trial_type": "single-audio", "stimulus": "/static/audio/400Hz.wav", "internal_node_id": "0.0-125.0", "time_elapsed": 772181, "key_press": -1, "type": "PRE_RECALL_ALERT", "trial_index": 170}, "uniqueid": "MTK2022:34Z02EIMITK5WDI370NEG6MA3DF0TK", "dateTime": 1516651818188}, {"current_trial": 171, "trialdata": {"rt": [3786, 5111, 6414, 8029, 10074, 10267, 12151, 15767, 18079, 19559, 20762, 22799, 24738], "recwords": ["branch", "shrub", "shelf", "stone", "pliers", "", "oyster", "seafood", "matress", "slide", "mop", "blender", "brick"], "key_times": [2263, 2385, 2470, 2556, 2953, 3093, 3786, 4151, 4273, 4447, 4529, 4685, 5111, 5455, 5558, 5664, 5775, 5950, 6414, 6923, 7132, 7262, 7324, 7413, 8029, 8995, 9060, 9257, 9396, 9463, 9609, 10074, 10267, 10838, 11236, 11400, 11607, 11743, 11787, 12151, 14319, 14541, 14606, 15006, 15150, 15281, 15384, 15767, 16164, 16281, 16485, 16633, 16822, 17003, 17127, 18079, 18525, 18645, 18773, 18944, 19029, 19559, 19992, 20202, 20328, 20762, 21697, 21888, 21988, 22132, 22173, 22318, 22382, 22799, 23092, 23190, 23284, 23402, 23497, 24738], "trial_type": "free-recall", "conditions": [12, 1600, "v", 12000], "internal_node_id": "0.0-126.0-0.0", "key_presses": [66, 82, 65, 78, 67, 72, 13, 83, 72, 82, 85, 66, 13, 83, 72, 69, 76, 70, 13, 83, 84, 79, 78, 69, 13, 80, 76, 73, 69, 82, 83, 13, 13, 79, 89, 83, 84, 69, 82, 13, 83, 69, 65, 70, 79, 79, 68, 13, 77, 65, 84, 82, 69, 83, 83, 13, 83, 76, 73, 68, 69, 13, 77, 79, 80, 13, 66, 76, 69, 78, 68, 69, 82, 13, 66, 82, 73, 67, 75, 13], "trial": 4, "time_elapsed": 832183, "type": "FREE_RECALL", "trial_index": 171}, "uniqueid": "MTK2022:34Z02EIMITK5WDI370NEG6MA3DF0TK", "dateTime": 1516651878191}, {"current_trial": 172, "trialdata": {"rt": 713, "trial_type": "text", "internal_node_id": "0.0-127.0", "time_elapsed": 834899, "key_press": 32, "type": "INSTRUCTIONS", "trial_index": 172}, "uniqueid": "MTK2022:34Z02EIMITK5WDI370NEG6MA3DF0TK", "dateTime": 1516651880906}, {"current_trial": 173, "trialdata": {"rt": [4100, 5505, 7247, 9677, 11896, 17250, 19350, 22350], "trial_type": "math-distractor", "key_times": [3700, 3873, 4100, 5250, 5372, 5505, 6993, 7090, 7247, 9489, 9677, 11782, 11896, 16958, 17042, 17250, 18892, 18978, 19350, 22182, 22350, 23574, 23808], "responses": ["19", "11", "19", "8", "7", "15", "15", "7"], "num2": [4, 7, 3, 2, 1, 4, 4, 4, 5], "num3": [6, 3, 7, 3, 2, 3, 4, 1, 5], "conditions": [24, 800, "v", 24000], "internal_node_id": "0.0-128.0", "key_presses": [49, 57, 13, 49, 49, 13, 49, 57, 13, 56, 13, 55, 13, 49, 53, 13, 49, 53, 13, 55, 13, 49, 56], "trial": 5, "time_elapsed": 860901, "type": "DISTRACTOR", "trial_index": 173, "num1": [9, 1, 9, 3, 4, 8, 7, 2, 8]}, "uniqueid": "MTK2022:34Z02EIMITK5WDI370NEG6MA3DF0TK", "dateTime": 1516651906908}, {"current_trial": 174, "trialdata": {"rt": -1, "trial_type": "single-stim", "stimulus": "<p id=\"stim\">10</p>", "internal_node_id": "0.0-129.0-0.0", "time_elapsed": 863903, "key_press": -1, "trial_index": 174}, "uniqueid": "MTK2022:34Z02EIMITK5WDI370NEG6MA3DF0TK", "dateTime": 1516651909910}, {"current_trial": 175, "trialdata": {"rt": -1, "trial_type": "single-stim", "stimulus": "<p id=\"stim\">9</p>", "internal_node_id": "0.0-129.0-1.0", "time_elapsed": 864904, "key_press": -1, "trial_index": 175}, "uniqueid": "MTK2022:34Z02EIMITK5WDI370NEG6MA3DF0TK", "dateTime": 1516651910911}, {"current_trial": 176, "trialdata": {"rt": -1, "trial_type": "single-stim", "stimulus": "<p id=\"stim\">8</p>", "internal_node_id": "0.0-129.0-2.0", "time_elapsed": 865905, "key_press": -1, "trial_index": 176}, "uniqueid": "MTK2022:34Z02EIMITK5WDI370NEG6MA3DF0TK", "dateTime": 1516651911912}, {"current_trial": 177, "trialdata": {"rt": -1, "trial_type": "single-stim", "stimulus": "<p id=\"stim\">7</p>", "internal_node_id": "0.0-129.0-3.0", "time_elapsed": 866906, "key_press": -1, "trial_index": 177}, "uniqueid": "MTK2022:34Z02EIMITK5WDI370NEG6MA3DF0TK", "dateTime": 1516651912913}, {"current_trial": 178, "trialdata": {"rt": -1, "trial_type": "single-stim", "stimulus": "<p id=\"stim\">6</p>", "internal_node_id": "0.0-129.0-4.0", "time_elapsed": 867908, "key_press": -1, "trial_index": 178}, "uniqueid": "MTK2022:34Z02EIMITK5WDI370NEG6MA3DF0TK", "dateTime": 1516651913915}, {"current_trial": 179, "trialdata": {"rt": -1, "trial_type": "single-stim", "stimulus": "<p id=\"stim\">5</p>", "internal_node_id": "0.0-129.0-5.0", "time_elapsed": 868910, "key_press": -1, "trial_index": 179}, "uniqueid": "MTK2022:34Z02EIMITK5WDI370NEG6MA3DF0TK", "dateTime": 1516651914917}, {"current_trial": 180, "trialdata": {"rt": -1, "trial_type": "single-stim", "stimulus": "<p id=\"stim\">4</p>", "internal_node_id": "0.0-129.0-6.0", "time_elapsed": 869911, "key_press": -1, "trial_index": 180}, "uniqueid": "MTK2022:34Z02EIMITK5WDI370NEG6MA3DF0TK", "dateTime": 1516651915918}, {"current_trial": 181, "trialdata": {"rt": -1, "trial_type": "single-stim", "stimulus": "<p id=\"stim\">3</p>", "internal_node_id": "0.0-129.0-7.0", "time_elapsed": 870912, "key_press": -1, "trial_index": 181}, "uniqueid": "MTK2022:34Z02EIMITK5WDI370NEG6MA3DF0TK", "dateTime": 1516651916919}, {"current_trial": 182, "trialdata": {"rt": -1, "trial_type": "single-stim", "stimulus": "<p id=\"stim\">2</p>", "internal_node_id": "0.0-129.0-8.0", "time_elapsed": 871914, "key_press": -1, "trial_index": 182}, "uniqueid": "MTK2022:34Z02EIMITK5WDI370NEG6MA3DF0TK", "dateTime": 1516651917921}, {"current_trial": 183, "trialdata": {"rt": -1, "trial_type": "single-stim", "stimulus": "<p id=\"stim\">1</p>", "internal_node_id": "0.0-129.0-9.0", "time_elapsed": 872915, "key_press": -1, "trial_index": 183}, "uniqueid": "MTK2022:34Z02EIMITK5WDI370NEG6MA3DF0TK", "dateTime": 1516651918922}, {"current_trial": 184, "trialdata": {"rt": -1, "trial_type": "single-stim", "stimulus": "<p id=\"stim\">+</p>", "internal_node_id": "0.0-130.0-0.0", "time_elapsed": 874416, "key_press": -1, "type": "FIXATION", "trial_index": 184}, "uniqueid": "MTK2022:34Z02EIMITK5WDI370NEG6MA3DF0TK", "dateTime": 1516651920423}, {"current_trial": 185, "trialdata": {"rt": -1, "trial_type": "single-stim", "word": "cross", "stimulus": "<p id=\"stim\">CROSS</p>", "conditions": [24, 800, "v", 24000], "internal_node_id": "0.0-131.0", "trial": 5, "time_elapsed": 875218, "serialpos": 0, "key_press": -1, "wordID": 412, "type": "PRES_VIS", "trial_index": 185}, "uniqueid": "MTK2022:34Z02EIMITK5WDI370NEG6MA3DF0TK", "dateTime": 1516651921225}, {"current_trial": 186, "trialdata": {"rt": -1, "trial_type": "single-stim", "word": "supper", "stimulus": "<p id=\"stim\">SUPPER</p>", "conditions": [24, 800, "v", 24000], "internal_node_id": "0.0-132.0", "trial": 5, "time_elapsed": 877070, "serialpos": 1, "key_press": -1, "wordID": 1410, "type": "PRES_VIS", "trial_index": 186}, "uniqueid": "MTK2022:34Z02EIMITK5WDI370NEG6MA3DF0TK", "dateTime": 1516651923077}, {"current_trial": 187, "trialdata": {"rt": -1, "trial_type": "single-stim", "word": "lunch", "stimulus": "<p id=\"stim\">LUNCH</p>", "conditions": [24, 800, "v", 24000], "internal_node_id": "0.0-133.0", "trial": 5, "time_elapsed": 878692, "serialpos": 2, "key_press": -1, "wordID": 848, "type": "PRES_VIS", "trial_index": 187}, "uniqueid": "MTK2022:34Z02EIMITK5WDI370NEG6MA3DF0TK", "dateTime": 1516651924700}, {"current_trial": 188, "trialdata": {"rt": -1, "trial_type": "single-stim", "word": "cocoon", "stimulus": "<p id=\"stim\">COCOON</p>", "conditions": [24, 800, "v", 24000], "internal_node_id": "0.0-134.0", "trial": 5, "time_elapsed": 880649, "serialpos": 3, "key_press": -1, "wordID": 338, "type": "PRES_VIS", "trial_index": 188}, "uniqueid": "MTK2022:34Z02EIMITK5WDI370NEG6MA3DF0TK", "dateTime": 1516651926656}, {"current_trial": 189, "trialdata": {"rt": -1, "trial_type": "single-stim", "word": "hiker", "stimulus": "<p id=\"stim\">HIKER</p>", "conditions": [24, 800, "v", 24000], "internal_node_id": "0.0-135.0", "trial": 5, "time_elapsed": 882257, "serialpos": 4, "key_press": -1, "wordID": 707, "type": "PRES_VIS", "trial_index": 189}, "uniqueid": "MTK2022:34Z02EIMITK5WDI370NEG6MA3DF0TK", "dateTime": 1516651928264}, {"current_trial": 190, "trialdata": {"rt": -1, "trial_type": "single-stim", "word": "denim", "stimulus": "<p id=\"stim\">DENIM</p>", "conditions": [24, 800, "v", 24000], "internal_node_id": "0.0-136.0", "trial": 5, "time_elapsed": 884202, "serialpos": 5, "key_press": -1, "wordID": 445, "type": "PRES_VIS", "trial_index": 190}, "uniqueid": "MTK2022:34Z02EIMITK5WDI370NEG6MA3DF0TK", "dateTime": 1516651930209}, {"current_trial": 191, "trialdata": {"rt": -1, "trial_type": "single-stim", "word": "actor", "stimulus": "<p id=\"stim\">ACTOR</p>", "conditions": [24, 800, "v", 24000], "internal_node_id": "0.0-137.0", "trial": 5, "time_elapsed": 886020, "serialpos": 6, "key_press": -1, "wordID": 4, "type": "PRES_VIS", "trial_index": 191}, "uniqueid": "MTK2022:34Z02EIMITK5WDI370NEG6MA3DF0TK", "dateTime": 1516651932027}, {"current_trial": 192, "trialdata": {"rt": -1, "trial_type": "single-stim", "word": "drill", "stimulus": "<p id=\"stim\">DRILL</p>", "conditions": [24, 800, "v", 24000], "internal_node_id": "0.0-138.0", "trial": 5, "time_elapsed": 887881, "serialpos": 7, "key_press": -1, "wordID": 496, "type": "PRES_VIS", "trial_index": 192}, "uniqueid": "MTK2022:34Z02EIMITK5WDI370NEG6MA3DF0TK", "dateTime": 1516651933888}, {"current_trial": 193, "trialdata": {"rt": -1, "trial_type": "single-stim", "word": "dragon", "stimulus": "<p id=\"stim\">DRAGON</p>", "conditions": [24, 800, "v", 24000], "internal_node_id": "0.0-139.0", "trial": 5, "time_elapsed": 889547, "serialpos": 8, "key_press": -1, "wordID": 491, "type": "PRES_VIS", "trial_index": 193}, "uniqueid": "MTK2022:34Z02EIMITK5WDI370NEG6MA3DF0TK", "dateTime": 1516651935554}, {"current_trial": 194, "trialdata": {"rt": -1, "trial_type": "single-stim", "word": "maple", "stimulus": "<p id=\"stim\">MAPLE</p>", "conditions": [24, 800, "v", 24000], "internal_node_id": "0.0-140.0", "trial": 5, "time_elapsed": 891514, "serialpos": 9, "key_press": -1, "wordID": 865, "type": "PRES_VIS", "trial_index": 194}, "uniqueid": "MTK2022:34Z02EIMITK5WDI370NEG6MA3DF0TK", "dateTime": 1516651937521}, {"current_trial": 195, "trialdata": {"rt": -1, "trial_type": "single-stim", "word": "dress", "stimulus": "<p id=\"stim\">DRESS</p>", "conditions": [24, 800, "v", 24000], "internal_node_id": "0.0-141.0", "trial": 5, "time_elapsed": 893493, "serialpos": 10, "key_press": -1, "wordID": 494, "type": "PRES_VIS", "trial_index": 195}, "uniqueid": "MTK2022:34Z02EIMITK5WDI370NEG6MA3DF0TK", "dateTime": 1516651939500}, {"current_trial": 196, "trialdata": {"rt": -1, "trial_type": "single-stim", "word": "snake", "stimulus": "<p id=\"stim\">SNAKE</p>", "conditions": [24, 800, "v", 24000], "internal_node_id": "0.0-142.0", "trial": 5, "time_elapsed": 895436, "serialpos": 11, "key_press": -1, "wordID": 1332, "type": "PRES_VIS", "trial_index": 196}, "uniqueid": "MTK2022:34Z02EIMITK5WDI370NEG6MA3DF0TK", "dateTime": 1516651941443}, {"current_trial": 197, "trialdata": {"rt": -1, "trial_type": "single-stim", "word": "iceberg", "stimulus": "<p id=\"stim\">ICEBERG</p>", "conditions": [24, 800, "v", 24000], "internal_node_id": "0.0-143.0", "trial": 5, "time_elapsed": 897154, "serialpos": 12, "key_press": -1, "wordID": 730, "type": "PRES_VIS", "trial_index": 197}, "uniqueid": "MTK2022:34Z02EIMITK5WDI370NEG6MA3DF0TK", "dateTime": 1516651943161}, {"current_trial": 198, "trialdata": {"rt": -1, "trial_type": "single-stim", "word": "cabbage", "stimulus": "<p id=\"stim\">CABBAGE</p>", "conditions": [24, 800, "v", 24000], "internal_node_id": "0.0-144.0", "trial": 5, "time_elapsed": 898776, "serialpos": 13, "key_press": -1, "wordID": 209, "type": "PRES_VIS", "trial_index": 198}, "uniqueid": "MTK2022:34Z02EIMITK5WDI370NEG6MA3DF0TK", "dateTime": 1516651944783}, {"current_trial": 199, "trialdata": {"rt": -1, "trial_type": "single-stim", "word": "jello", "stimulus": "<p id=\"stim\">JELLO</p>", "conditions": [24, 800, "v", 24000], "internal_node_id": "0.0-145.0", "trial": 5, "time_elapsed": 900573, "serialpos": 14, "key_press": -1, "wordID": 753, "type": "PRES_VIS", "trial_index": 199}, "uniqueid": "MTK2022:34Z02EIMITK5WDI370NEG6MA3DF0TK", "dateTime": 1516651946580}, {"current_trial": 200, "trialdata": {"rt": -1, "trial_type": "single-stim", "word": "japan", "stimulus": "<p id=\"stim\">JAPAN</p>", "conditions": [24, 800, "v", 24000], "internal_node_id": "0.0-146.0", "trial": 5, "time_elapsed": 902303, "serialpos": 15, "key_press": -1, "wordID": 748, "type": "PRES_VIS", "trial_index": 200}, "uniqueid": "MTK2022:34Z02EIMITK5WDI370NEG6MA3DF0TK", "dateTime": 1516651948310}, {"current_trial": 201, "trialdata": {"rt": -1, "trial_type": "single-stim", "word": "cashier", "stimulus": "<p id=\"stim\">CASHIER</p>", "conditions": [24, 800, "v", 24000], "internal_node_id": "0.0-147.0", "trial": 5, "time_elapsed": 904282, "serialpos": 16, "key_press": -1, "wordID": 253, "type": "PRES_VIS", "trial_index": 201}, "uniqueid": "MTK2022:34Z02EIMITK5WDI370NEG6MA3DF0TK", "dateTime": 1516651950289}, {"current_trial": 202, "trialdata": {"rt": -1, "trial_type": "single-stim", "word": "princess", "stimulus": "<p id=\"stim\">PRINCESS</p>", "conditions": [24, 800, "v", 24000], "internal_node_id": "0.0-148.0", "trial": 5, "time_elapsed": 905963, "serialpos": 17, "key_press": -1, "wordID": 1124, "type": "PRES_VIS", "trial_index": 202}, "uniqueid": "MTK2022:34Z02EIMITK5WDI370NEG6MA3DF0TK", "dateTime": 1516651951970}, {"current_trial": 203, "trialdata": {"rt": -1, "trial_type": "single-stim", "word": "queen", "stimulus": "<p id=\"stim\">QUEEN</p>", "conditions": [24, 800, "v", 24000], "internal_node_id": "0.0-149.0", "trial": 5, "time_elapsed": 907798, "serialpos": 18, "key_press": -1, "wordID": 1148, "type": "PRES_VIS", "trial_index": 203}, "uniqueid": "MTK2022:34Z02EIMITK5WDI370NEG6MA3DF0TK", "dateTime": 1516651953805}, {"current_trial": 204, "trialdata": {"rt": -1, "trial_type": "single-stim", "word": "donkey", "stimulus": "<p id=\"stim\">DONKEY</p>", "conditions": [24, 800, "v", 24000], "internal_node_id": "0.0-150.0", "trial": 5, "time_elapsed": 909536, "serialpos": 19, "key_press": -1, "wordID": 483, "type": "PRES_VIS", "trial_index": 204}, "uniqueid": "MTK2022:34Z02EIMITK5WDI370NEG6MA3DF0TK", "dateTime": 1516651955543}, {"current_trial": 205, "trialdata": {"rt": -1, "trial_type": "single-stim", "word": "london", "stimulus": "<p id=\"stim\">LONDON</p>", "conditions": [24, 800, "v", 24000], "internal_node_id": "0.0-151.0", "trial": 5, "time_elapsed": 911220, "serialpos": 20, "key_press": -1, "wordID": 842, "type": "PRES_VIS", "trial_index": 205}, "uniqueid": "MTK2022:34Z02EIMITK5WDI370NEG6MA3DF0TK", "dateTime": 1516651957227}, {"current_trial": 206, "trialdata": {"rt": -1, "trial_type": "single-stim", "word": "chemist", "stimulus": "<p id=\"stim\">CHEMIST</p>", "conditions": [24, 800, "v", 24000], "internal_node_id": "0.0-152.0", "trial": 5, "time_elapsed": 912885, "serialpos": 21, "key_press": -1, "wordID": 291, "type": "PRES_VIS", "trial_index": 206}, "uniqueid": "MTK2022:34Z02EIMITK5WDI370NEG6MA3DF0TK", "dateTime": 1516651958892}, {"current_trial": 207, "trialdata": {"rt": -1, "trial_type": "single-stim", "word": "pudding", "stimulus": "<p id=\"stim\">PUDDING</p>", "conditions": [24, 800, "v", 24000], "internal_node_id": "0.0-153.0", "trial": 5, "time_elapsed": 914523, "serialpos": 22, "key_press": -1, "wordID": 1138, "type": "PRES_VIS", "trial_index": 207}, "uniqueid": "MTK2022:34Z02EIMITK5WDI370NEG6MA3DF0TK", "dateTime": 1516651960530}, {"current_trial": 208, "trialdata": {"rt": -1, "trial_type": "single-stim", "word": "europe", "stimulus": "<p id=\"stim\">EUROPE</p>", "conditions": [24, 800, "v", 24000], "internal_node_id": "0.0-154.0", "trial": 5, "time_elapsed": 916193, "serialpos": 23, "key_press": -1, "wordID": 540, "type": "PRES_VIS", "trial_index": 208}, "uniqueid": "MTK2022:34Z02EIMITK5WDI370NEG6MA3DF0TK", "dateTime": 1516651962200}, {"current_trial": 209, "trialdata": {"rt": -1, "trial_type": "single-stim", "stimulus": "", "internal_node_id": "0.0-155.0-0.0", "time_elapsed": 918454, "key_press": -1, "type": "PRE_RECALL_DELAY", "trial_index": 209}, "uniqueid": "MTK2022:34Z02EIMITK5WDI370NEG6MA3DF0TK", "dateTime": 1516651964461}, {"current_trial": 210, "trialdata": {"rt": -1000, "trial_type": "single-audio", "stimulus": "/static/audio/400Hz.wav", "internal_node_id": "0.0-156.0", "time_elapsed": 918956, "key_press": -1, "type": "PRE_RECALL_ALERT", "trial_index": 210}, "uniqueid": "MTK2022:34Z02EIMITK5WDI370NEG6MA3DF0TK", "dateTime": 1516651964963}, {"current_trial": 211, "trialdata": {"rt": [7924, 10229, 12287, 15332, 18335, 20657, 23151, 29134, 31216, 33233, 36575, 39315, 40906, 43764, 48996, 51164, 57463], "recwords": ["cashier", "princess", "queen", "donkey", "london", "chemist", "pudding", "cross", "dinner", "supper", "cabbage", "jello", "japan", "europe", "hiker", "denim", "actor"], "key_times": [5729, 6070, 6135, 6229, 6670, 6835, 6921, 7924, 8544, 8894, 9037, 9098, 9205, 9269, 9531, 9651, 10229, 11103, 11259, 11405, 11519, 11624, 12287, 13026, 13165, 13208, 13770, 14293, 14437, 15332, 16836, 17026, 17235, 17658, 17786, 17830, 18335, 19306, 19432, 19551, 19687, 19770, 19932, 20146, 20657, 21474, 21756, 21927, 22038, 22181, 22243, 22380, 23151, 28069, 28261, 28404, 28508, 28626, 29134, 30042, 30112, 30334, 30448, 30568, 30612, 31216, 31959, 32078, 32316, 32423, 32568, 32653, 33233, 34849, 34954, 35180, 35306, 35502, 35939, 36025, 36575, 38207, 38321, 38466, 38582, 38749, 39315, 39663, 39766, 39982, 40101, 40304, 40906, 41861, 42104, 42307, 42487, 42508, 43258, 43764, 47921, 47984, 48174, 48311, 48395, 48996, 49646, 49733, 50168, 50352, 50588, 51164, 55317, 55483, 55706, 55839, 55902, 57463], "trial_type": "free-recall", "conditions": [24, 800, "v", 24000], "internal_node_id": "0.0-157.0-0.0", "key_presses": [67, 65, 83, 72, 73, 69, 82, 13, 80, 82, 73, 78, 67, 69, 83, 83, 13, 81, 85, 69, 69, 78, 13, 68, 79, 78, 75, 69, 89, 13, 76, 79, 78, 68, 79, 78, 13, 67, 72, 69, 77, 73, 83, 84, 13, 80, 85, 68, 68, 73, 78, 71, 13, 67, 82, 79, 83, 83, 13, 68, 73, 78, 78, 69, 82, 13, 83, 85, 80, 80, 69, 82, 13, 67, 65, 66, 66, 65, 71, 69, 13, 74, 69, 76, 76, 79, 13, 74, 65, 80, 65, 78, 13, 69, 85, 82, 79, 80, 69, 13, 72, 73, 75, 69, 82, 13, 68, 69, 78, 73, 77, 13, 65, 67, 84, 79, 82, 13], "trial": 5, "time_elapsed": 978958, "type": "FREE_RECALL", "trial_index": 211}, "uniqueid": "MTK2022:34Z02EIMITK5WDI370NEG6MA3DF0TK", "dateTime": 1516652024967}, {"current_trial": 212, "trialdata": {"rt": 6037, "trial_type": "text", "internal_node_id": "0.0-158.0", "time_elapsed": 986999, "key_press": 32, "type": "INSTRUCTIONS", "trial_index": 212}, "uniqueid": "MTK2022:34Z02EIMITK5WDI370NEG6MA3DF0TK", "dateTime": 1516652033006}, {"current_trial": 213, "trialdata": {"rt": [2665, 5901, 10418, 14139], "trial_type": "math-distractor", "key_times": [2199, 2305, 2665, 5490, 5675, 5901, 9256, 9531, 10418, 12902, 13406, 14139], "responses": ["10", "12", "14", "17"], "num2": [5, 3, 5, 6, 9], "num3": [3, 4, 8, 2, 7], "conditions": [24, 1600, "v", 24000], "internal_node_id": "0.0-159.0", "key_presses": [49, 48, 13, 49, 50, 13, 49, 52, 13, 49, 55, 13], "trial": 6, "time_elapsed": 1013001, "type": "DISTRACTOR", "trial_index": 213, "num1": [2, 5, 1, 9, 6]}, "uniqueid": "MTK2022:34Z02EIMITK5WDI370NEG6MA3DF0TK", "dateTime": 1516652059008}, {"current_trial": 214, "trialdata": {"rt": -1, "trial_type": "single-stim", "stimulus": "<p id=\"stim\">10</p>", "internal_node_id": "0.0-160.0-0.0", "time_elapsed": 1016003, "key_press": -1, "trial_index": 214}, "uniqueid": "MTK2022:34Z02EIMITK5WDI370NEG6MA3DF0TK", "dateTime": 1516652062010}, {"current_trial": 215, "trialdata": {"rt": -1, "trial_type": "single-stim", "stimulus": "<p id=\"stim\">9</p>", "internal_node_id": "0.0-160.0-1.0", "time_elapsed": 1017005, "key_press": -1, "trial_index": 215}, "uniqueid": "MTK2022:34Z02EIMITK5WDI370NEG6MA3DF0TK", "dateTime": 1516652063012}, {"current_trial": 216, "trialdata": {"rt": -1, "trial_type": "single-stim", "stimulus": "<p id=\"stim\">8</p>", "internal_node_id": "0.0-160.0-2.0", "time_elapsed": 1018006, "key_press": -1, "trial_index": 216}, "uniqueid": "MTK2022:34Z02EIMITK5WDI370NEG6MA3DF0TK", "dateTime": 1516652064013}, {"current_trial": 217, "trialdata": {"rt": -1, "trial_type": "single-stim", "stimulus": "<p id=\"stim\">7</p>", "internal_node_id": "0.0-160.0-3.0", "time_elapsed": 1019007, "key_press": -1, "trial_index": 217}, "uniqueid": "MTK2022:34Z02EIMITK5WDI370NEG6MA3DF0TK", "dateTime": 1516652065014}, {"current_trial": 218, "trialdata": {"rt": -1, "trial_type": "single-stim", "stimulus": "<p id=\"stim\">6</p>", "internal_node_id": "0.0-160.0-4.0", "time_elapsed": 1020009, "key_press": -1, "trial_index": 218}, "uniqueid": "MTK2022:34Z02EIMITK5WDI370NEG6MA3DF0TK", "dateTime": 1516652066016}, {"current_trial": 219, "trialdata": {"rt": -1, "trial_type": "single-stim", "stimulus": "<p id=\"stim\">5</p>", "internal_node_id": "0.0-160.0-5.0", "time_elapsed": 1021010, "key_press": -1, "trial_index": 219}, "uniqueid": "MTK2022:34Z02EIMITK5WDI370NEG6MA3DF0TK", "dateTime": 1516652067017}, {"current_trial": 220, "trialdata": {"rt": -1, "trial_type": "single-stim", "stimulus": "<p id=\"stim\">4</p>", "internal_node_id": "0.0-160.0-6.0", "time_elapsed": 1022011, "key_press": -1, "trial_index": 220}, "uniqueid": "MTK2022:34Z02EIMITK5WDI370NEG6MA3DF0TK", "dateTime": 1516652068018}, {"current_trial": 221, "trialdata": {"rt": -1, "trial_type": "single-stim", "stimulus": "<p id=\"stim\">3</p>", "internal_node_id": "0.0-160.0-7.0", "time_elapsed": 1023013, "key_press": -1, "trial_index": 221}, "uniqueid": "MTK2022:34Z02EIMITK5WDI370NEG6MA3DF0TK", "dateTime": 1516652069020}, {"current_trial": 222, "trialdata": {"rt": -1, "trial_type": "single-stim", "stimulus": "<p id=\"stim\">2</p>", "internal_node_id": "0.0-160.0-8.0", "time_elapsed": 1024014, "key_press": -1, "trial_index": 222}, "uniqueid": "MTK2022:34Z02EIMITK5WDI370NEG6MA3DF0TK", "dateTime": 1516652070021}, {"current_trial": 223, "trialdata": {"rt": -1, "trial_type": "single-stim", "stimulus": "<p id=\"stim\">1</p>", "internal_node_id": "0.0-160.0-9.0", "time_elapsed": 1025015, "key_press": -1, "trial_index": 223}, "uniqueid": "MTK2022:34Z02EIMITK5WDI370NEG6MA3DF0TK", "dateTime": 1516652071022}, {"current_trial": 224, "trialdata": {"rt": -1, "trial_type": "single-stim", "stimulus": "<p id=\"stim\">+</p>", "internal_node_id": "0.0-161.0-0.0", "time_elapsed": 1026516, "key_press": -1, "type": "FIXATION", "trial_index": 224}, "uniqueid": "MTK2022:34Z02EIMITK5WDI370NEG6MA3DF0TK", "dateTime": 1516652072523}, {"current_trial": 225, "trialdata": {"rt": -1, "trial_type": "single-stim", "word": "actress", "stimulus": "<p id=\"stim\">ACTRESS</p>", "conditions": [24, 1600, "v", 24000], "internal_node_id": "0.0-162.0", "trial": 6, "time_elapsed": 1028117, "serialpos": 0, "key_press": -1, "wordID": 5, "type": "PRES_VIS", "trial_index": 225}, "uniqueid": "MTK2022:34Z02EIMITK5WDI370NEG6MA3DF0TK", "dateTime": 1516652074124}, {"current_trial": 226, "trialdata": {"rt": -1, "trial_type": "single-stim", "word": "nurse", "stimulus": "<p id=\"stim\">NURSE</p>", "conditions": [24, 1600, "v", 24000], "internal_node_id": "0.0-163.0", "trial": 6, "time_elapsed": 1030545, "serialpos": 1, "key_press": -1, "wordID": 962, "type": "PRES_VIS", "trial_index": 226}, "uniqueid": "MTK2022:34Z02EIMITK5WDI370NEG6MA3DF0TK", "dateTime": 1516652076552}, {"current_trial": 227, "trialdata": {"rt": -1, "trial_type": "single-stim", "word": "switch", "stimulus": "<p id=\"stim\">SWITCH</p>", "conditions": [24, 1600, "v", 24000], "internal_node_id": "0.0-164.0", "trial": 6, "time_elapsed": 1033166, "serialpos": 2, "key_press": -1, "wordID": 1421, "type": "PRES_VIS", "trial_index": 227}, "uniqueid": "MTK2022:34Z02EIMITK5WDI370NEG6MA3DF0TK", "dateTime": 1516652079173}, {"current_trial": 228, "trialdata": {"rt": -1, "trial_type": "single-stim", "word": "flower", "stimulus": "<p id=\"stim\">FLOWER</p>", "conditions": [24, 1600, "v", 24000], "internal_node_id": "0.0-165.0", "trial": 6, "time_elapsed": 1035719, "serialpos": 3, "key_press": -1, "wordID": 583, "type": "PRES_VIS", "trial_index": 228}, "uniqueid": "MTK2022:34Z02EIMITK5WDI370NEG6MA3DF0TK", "dateTime": 1516652081726}, {"current_trial": 229, "trialdata": {"rt": -1, "trial_type": "single-stim", "word": "window", "stimulus": "<p id=\"stim\">WINDOW</p>", "conditions": [24, 1600, "v", 24000], "internal_node_id": "0.0-166.0", "trial": 6, "time_elapsed": 1038212, "serialpos": 4, "key_press": -1, "wordID": 1610, "type": "PRES_VIS", "trial_index": 229}, "uniqueid": "MTK2022:34Z02EIMITK5WDI370NEG6MA3DF0TK", "dateTime": 1516652084219}, {"current_trial": 230, "trialdata": {"rt": -1, "trial_type": "single-stim", "word": "forehead", "stimulus": "<p id=\"stim\">FOREHEAD</p>", "conditions": [24, 1600, "v", 24000], "internal_node_id": "0.0-167.0", "trial": 6, "time_elapsed": 1040804, "serialpos": 5, "key_press": -1, "wordID": 591, "type": "PRES_VIS", "trial_index": 230}, "uniqueid": "MTK2022:34Z02EIMITK5WDI370NEG6MA3DF0TK", "dateTime": 1516652086811}, {"current_trial": 231, "trialdata": {"rt": -1, "trial_type": "single-stim", "word": "convict", "stimulus": "<p id=\"stim\">CONVICT</p>", "conditions": [24, 1600, "v", 24000], "internal_node_id": "0.0-168.0", "trial": 6, "time_elapsed": 1043311, "serialpos": 6, "key_press": -1, "wordID": 370, "type": "PRES_VIS", "trial_index": 231}, "uniqueid": "MTK2022:34Z02EIMITK5WDI370NEG6MA3DF0TK", "dateTime": 1516652089318}, {"current_trial": 232, "trialdata": {"rt": -1, "trial_type": "single-stim", "word": "servant", "stimulus": "<p id=\"stim\">SERVANT</p>", "conditions": [24, 1600, "v", 24000], "internal_node_id": "0.0-169.0", "trial": 6, "time_elapsed": 1046068, "serialpos": 7, "key_press": -1, "wordID": 1270, "type": "PRES_VIS", "trial_index": 232}, "uniqueid": "MTK2022:34Z02EIMITK5WDI370NEG6MA3DF0TK", "dateTime": 1516652092075}, {"current_trial": 233, "trialdata": {"rt": -1, "trial_type": "single-stim", "word": "lily", "stimulus": "<p id=\"stim\">LILY</p>", "conditions": [24, 1600, "v", 24000], "internal_node_id": "0.0-170.0", "trial": 6, "time_elapsed": 1048750, "serialpos": 8, "key_press": -1, "wordID": 820, "type": "PRES_VIS", "trial_index": 233}, "uniqueid": "MTK2022:34Z02EIMITK5WDI370NEG6MA3DF0TK", "dateTime": 1516652094757}, {"current_trial": 234, "trialdata": {"rt": -1, "trial_type": "single-stim", "word": "daisy", "stimulus": "<p id=\"stim\">DAISY</p>", "conditions": [24, 1600, "v", 24000], "internal_node_id": "0.0-171.0", "trial": 6, "time_elapsed": 1051423, "serialpos": 9, "key_press": -1, "wordID": 434, "type": "PRES_VIS", "trial_index": 234}, "uniqueid": "MTK2022:34Z02EIMITK5WDI370NEG6MA3DF0TK", "dateTime": 1516652097430}, {"current_trial": 235, "trialdata": {"rt": -1, "trial_type": "single-stim", "word": "robin", "stimulus": "<p id=\"stim\">ROBIN</p>", "conditions": [24, 1600, "v", 24000], "internal_node_id": "0.0-172.0", "trial": 6, "time_elapsed": 1054185, "serialpos": 10, "key_press": -1, "wordID": 1198, "type": "PRES_VIS", "trial_index": 235}, "uniqueid": "MTK2022:34Z02EIMITK5WDI370NEG6MA3DF0TK", "dateTime": 1516652100192}, {"current_trial": 236, "trialdata": {"rt": -1, "trial_type": "single-stim", "word": "patient", "stimulus": "<p id=\"stim\">PATIENT</p>", "conditions": [24, 1600, "v", 24000], "internal_node_id": "0.0-173.0", "trial": 6, "time_elapsed": 1056686, "serialpos": 11, "key_press": -1, "wordID": 1023, "type": "PRES_VIS", "trial_index": 236}, "uniqueid": "MTK2022:34Z02EIMITK5WDI370NEG6MA3DF0TK", "dateTime": 1516652102693}, {"current_trial": 237, "trialdata": {"rt": -1, "trial_type": "single-stim", "word": "silk", "stimulus": "<p id=\"stim\">SILK</p>", "conditions": [24, 1600, "v", 24000], "internal_node_id": "0.0-174.0", "trial": 6, "time_elapsed": 1059404, "serialpos": 12, "key_press": -1, "wordID": 1306, "type": "PRES_VIS", "trial_index": 237}, "uniqueid": "MTK2022:34Z02EIMITK5WDI370NEG6MA3DF0TK", "dateTime": 1516652105411}, {"current_trial": 238, "trialdata": {"rt": -1, "trial_type": "single-stim", "word": "liver", "stimulus": "<p id=\"stim\">LIVER</p>", "conditions": [24, 1600, "v", 24000], "internal_node_id": "0.0-175.0", "trial": 6, "time_elapsed": 1062034, "serialpos": 13, "key_press": -1, "wordID": 832, "type": "PRES_VIS", "trial_index": 238}, "uniqueid": "MTK2022:34Z02EIMITK5WDI370NEG6MA3DF0TK", "dateTime": 1516652108041}, {"current_trial": 239, "trialdata": {"rt": -1, "trial_type": "single-stim", "word": "salmon", "stimulus": "<p id=\"stim\">SALMON</p>", "conditions": [24, 1600, "v", 24000], "internal_node_id": "0.0-176.0", "trial": 6, "time_elapsed": 1064831, "serialpos": 14, "key_press": -1, "wordID": 1226, "type": "PRES_VIS", "trial_index": 239}, "uniqueid": "MTK2022:34Z02EIMITK5WDI370NEG6MA3DF0TK", "dateTime": 1516652110838}, {"current_trial": 240, "trialdata": {"rt": -1, "trial_type": "single-stim", "word": "bucket", "stimulus": "<p id=\"stim\">BUCKET</p>", "conditions": [24, 1600, "v", 24000], "internal_node_id": "0.0-177.0", "trial": 6, "time_elapsed": 1067280, "serialpos": 15, "key_press": -1, "wordID": 183, "type": "PRES_VIS", "trial_index": 240}, "uniqueid": "MTK2022:34Z02EIMITK5WDI370NEG6MA3DF0TK", "dateTime": 1516652113287}, {"current_trial": 241, "trialdata": {"rt": -1, "trial_type": "single-stim", "word": "parsley", "stimulus": "<p id=\"stim\">PARSLEY</p>", "conditions": [24, 1600, "v", 24000], "internal_node_id": "0.0-178.0", "trial": 6, "time_elapsed": 1069764, "serialpos": 16, "key_press": -1, "wordID": 1015, "type": "PRES_VIS", "trial_index": 241}, "uniqueid": "MTK2022:34Z02EIMITK5WDI370NEG6MA3DF0TK", "dateTime": 1516652115771}, {"current_trial": 242, "trialdata": {"rt": -1, "trial_type": "single-stim", "word": "peach", "stimulus": "<p id=\"stim\">PEACH</p>", "conditions": [24, 1600, "v", 24000], "internal_node_id": "0.0-179.0", "trial": 6, "time_elapsed": 1072543, "serialpos": 17, "key_press": -1, "wordID": 1030, "type": "PRES_VIS", "trial_index": 242}, "uniqueid": "MTK2022:34Z02EIMITK5WDI370NEG6MA3DF0TK", "dateTime": 1516652118550}, {"current_trial": 243, "trialdata": {"rt": -1, "trial_type": "single-stim", "word": "citrus", "stimulus": "<p id=\"stim\">CITRUS</p>", "conditions": [24, 1600, "v", 24000], "internal_node_id": "0.0-180.0", "trial": 6, "time_elapsed": 1075116, "serialpos": 18, "key_press": -1, "wordID": 312, "type": "PRES_VIS", "trial_index": 243}, "uniqueid": "MTK2022:34Z02EIMITK5WDI370NEG6MA3DF0TK", "dateTime": 1516652121123}, {"current_trial": 244, "trialdata": {"rt": -1, "trial_type": "single-stim", "word": "garlic", "stimulus": "<p id=\"stim\">GARLIC</p>", "conditions": [24, 1600, "v", 24000], "internal_node_id": "0.0-181.0", "trial": 6, "time_elapsed": 1077729, "serialpos": 19, "key_press": -1, "wordID": 623, "type": "PRES_VIS", "trial_index": 244}, "uniqueid": "MTK2022:34Z02EIMITK5WDI370NEG6MA3DF0TK", "dateTime": 1516652123736}, {"current_trial": 245, "trialdata": {"rt": -1, "trial_type": "single-stim", "word": "ankle", "stimulus": "<p id=\"stim\">ANKLE</p>", "conditions": [24, 1600, "v", 24000], "internal_node_id": "0.0-182.0", "trial": 6, "time_elapsed": 1080421, "serialpos": 20, "key_press": -1, "wordID": 23, "type": "PRES_VIS", "trial_index": 245}, "uniqueid": "MTK2022:34Z02EIMITK5WDI370NEG6MA3DF0TK", "dateTime": 1516652126429}, {"current_trial": 246, "trialdata": {"rt": -1, "trial_type": "single-stim", "word": "frame", "stimulus": "<p id=\"stim\">FR