{"assignmentId": "3PEIJLRY6U05LKS85HHWC4GKJUWXWE", "workerId": "MTK2616", "questiondata": {"avail_screen_height": 683, "color_depth": 24, "screen_width": 1280, "pixel_depth": 24, "avail_screen_width": 1280, "screen_height": 720}, "bonus": 0, "hitId": "33NOQL7T9O6HDUYBIUK96PXPPIB8ZM", "counterbalance": 2107, "useragent": "Mozilla/5.0 (Windows NT 6.1; Win64; x64; rv:58.0) Gecko/20100101 Firefox/58.0", "eventdata": [{"eventtype": "initialized", "interval": 0, "value": null, "timestamp": 1519155696352}, {"eventtype": "window_resize", "interval": 0, "value": [1267, 598], "timestamp": 1519155696352}, {"eventtype": "focus", "interval": 3229, "value": "off", "timestamp": 1519155699581}, {"eventtype": "focus", "interval": 23996, "value": "on", "timestamp": 1519155723577}], "data": [{"current_trial": 0, "trialdata": {"rt": 8796, "trial_type": "text", "internal_node_id": "0.0-0.0", "time_elapsed": 8799, "key_press": 32, "type": "INSTRUCTIONS", "trial_index": 0}, "uniqueid": "MTK2616:3PEIJLRY6U05LKS85HHWC4GKJUWXWE", "dateTime": 1519155724831}, {"current_trial": 1, "trialdata": {"rt": 51074, "trial_type": "text", "internal_node_id": "0.0-1.0", "time_elapsed": 59878, "key_press": 32, "type": "INSTRUCTIONS", "trial_index": 1}, "uniqueid": "MTK2616:3PEIJLRY6U05LKS85HHWC4GKJUWXWE", "dateTime": 1519155775910}, {"current_trial": 2, "trialdata": {"rt": [18006], "trial_type": "audio-test", "responses": ["ocean"], "internal_node_id": "0.0-2.0", "time_elapsed": 78050, "type": "AUDIO_TEST", "trial_index": 2}, "uniqueid": "MTK2616:3PEIJLRY6U05LKS85HHWC4GKJUWXWE", "dateTime": 1519155794082}, {"current_trial": 3, "trialdata": {"rt": [11141], "trial_type": "audio-test", "responses": ["crystal"], "internal_node_id": "0.0-3.0", "time_elapsed": 89232, "type": "AUDIO_TEST", "trial_index": 3}, "uniqueid": "MTK2616:3PEIJLRY6U05LKS85HHWC4GKJUWXWE", "dateTime": 1519155805263}, {"current_trial": 4, "trialdata": {"rt": [8098], "trial_type": "audio-test", "responses": ["spice"], "internal_node_id": "0.0-4.0", "time_elapsed": 97360, "type": "AUDIO_TEST", "trial_index": 4}, "uniqueid": "MTK2616:3PEIJLRY6U05LKS85HHWC4GKJUWXWE", "dateTime": 1519155813391}, {"current_trial": 5, "trialdata": {"rt": 43689, "trial_type": "survey-text", "responses": "{\"Q0\":\"11:00PM\",\"Q1\":\"5:30AM\",\"Q2\":\"5\"}", "internal_node_id": "0.0-5.0", "time_elapsed": 141803, "type": "SLEEP_SURVEY", "trial_index": 5}, "uniqueid": "MTK2616:3PEIJLRY6U05LKS85HHWC4GKJUWXWE", "dateTime": 1519155857835}, {"current_trial": 6, "trialdata": {"rt": 64922, "trial_type": "text", "internal_node_id": "0.0-6.0", "time_elapsed": 207733, "key_press": 32, "type": "INSTRUCTIONS", "trial_index": 6}, "uniqueid": "MTK2616:3PEIJLRY6U05LKS85HHWC4GKJUWXWE", "dateTime": 1519155923764}, {"current_trial": 7, "trialdata": {"rt": 24172, "trial_type": "text", "internal_node_id": "0.0-7.0", "time_elapsed": 232413, "key_press": 32, "type": "INSTRUCTIONS", "trial_index": 7}, "uniqueid": "MTK2616:3PEIJLRY6U05LKS85HHWC4GKJUWXWE", "dateTime": 1519155948444}, {"current_trial": 8, "trialdata": {"rt": 31287, "trial_type": "text", "internal_node_id": "0.0-8.0", "time_elapsed": 264205, "key_press": 32, "type": "INSTRUCTIONS", "trial_index": 8}, "uniqueid": "MTK2616:3PEIJLRY6U05LKS85HHWC4GKJUWXWE", "dateTime": 1519155980236}, {"current_trial": 9, "trialdata": {"rt": [7049, 10565, 13357, 15397], "trial_type": "math-distractor", "key_times": [2870, 3037, 4261, 7049, 9565, 9854, 10565, 12670, 12853, 13357, 14854, 15061, 15397, 17933], "responses": ["13 ", "17", "13", "13"], "num2": [6, 6, 6, 3, 2], "num3": [4, 9, 2, 3, 7], "conditions": [18, 1200, "a", 18000], "internal_node_id": "0.0-9.0", "key_presses": [97, 99, 32, 13, 97, 103, 13, 97, 99, 13, 97, 99, 13, 97], "trial": 0, "time_elapsed": 283223, "type": "DISTRACTOR", "trial_index": 9, "num1": [3, 2, 5, 7, 6]}, "uniqueid": "MTK2616:3PEIJLRY6U05LKS85HHWC4GKJUWXWE", "dateTime": 1519155999254}, {"current_trial": 10, "trialdata": {"rt": -1, "trial_type": "single-stim", "stimulus": "<p id=\"stim\">10</p>", "internal_node_id": "0.0-10.0-0.0", "time_elapsed": 286235, "key_press": -1, "trial_index": 10}, "uniqueid": "MTK2616:3PEIJLRY6U05LKS85HHWC4GKJUWXWE", "dateTime": 1519156002266}, {"current_trial": 11, "trialdata": {"rt": -1, "trial_type": "single-stim", "stimulus": "<p id=\"stim\">9</p>", "internal_node_id": "0.0-10.0-1.0", "time_elapsed": 287237, "key_press": -1, "trial_index": 11}, "uniqueid": "MTK2616:3PEIJLRY6U05LKS85HHWC4GKJUWXWE", "dateTime": 1519156003268}, {"current_trial": 12, "trialdata": {"rt": -1, "trial_type": "single-stim", "stimulus": "<p id=\"stim\">8</p>", "internal_node_id": "0.0-10.0-2.0", "time_elapsed": 288247, "key_press": -1, "trial_index": 12}, "uniqueid": "MTK2616:3PEIJLRY6U05LKS85HHWC4GKJUWXWE", "dateTime": 1519156004279}, {"current_trial": 13, "trialdata": {"rt": -1, "trial_type": "single-stim", "stimulus": "<p id=\"stim\">7</p>", "internal_node_id": "0.0-10.0-3.0", "time_elapsed": 289257, "key_press": -1, "trial_index": 13}, "uniqueid": "MTK2616:3PEIJLRY6U05LKS85HHWC4GKJUWXWE", "dateTime": 1519156005288}, {"current_trial": 14, "trialdata": {"rt": -1, "trial_type": "single-stim", "stimulus": "<p id=\"stim\">6</p>", "internal_node_id": "0.0-10.0-4.0", "time_elapsed": 290261, "key_press": -1, "trial_index": 14}, "uniqueid": "MTK2616:3PEIJLRY6U05LKS85HHWC4GKJUWXWE", "dateTime": 1519156006292}, {"current_trial": 15, "trialdata": {"rt": -1, "trial_type": "single-stim", "stimulus": "<p id=\"stim\">5</p>", "internal_node_id": "0.0-10.0-5.0", "time_elapsed": 291271, "key_press": -1, "trial_index": 15}, "uniqueid": "MTK2616:3PEIJLRY6U05LKS85HHWC4GKJUWXWE", "dateTime": 1519156007302}, {"current_trial": 16, "trialdata": {"rt": -1, "trial_type": "single-stim", "stimulus": "<p id=\"stim\">4</p>", "internal_node_id": "0.0-10.0-6.0", "time_elapsed": 292281, "key_press": -1, "trial_index": 16}, "uniqueid": "MTK2616:3PEIJLRY6U05LKS85HHWC4GKJUWXWE", "dateTime": 1519156008312}, {"current_trial": 17, "trialdata": {"rt": -1, "trial_type": "single-stim", "stimulus": "<p id=\"stim\">3</p>", "internal_node_id": "0.0-10.0-7.0", "time_elapsed": 293283, "key_press": -1, "trial_index": 17}, "uniqueid": "MTK2616:3PEIJLRY6U05LKS85HHWC4GKJUWXWE", "dateTime": 1519156009314}, {"current_trial": 18, "trialdata": {"rt": -1, "trial_type": "single-stim", "stimulus": "<p id=\"stim\">2</p>", "internal_node_id": "0.0-10.0-8.0", "time_elapsed": 294287, "key_press": -1, "trial_index": 18}, "uniqueid": "MTK2616:3PEIJLRY6U05LKS85HHWC4GKJUWXWE", "dateTime": 1519156010318}, {"current_trial": 19, "trialdata": {"rt": -1, "trial_type": "single-stim", "stimulus": "<p id=\"stim\">1</p>", "internal_node_id": "0.0-10.0-9.0", "time_elapsed": 295288, "key_press": -1, "trial_index": 19}, "uniqueid": "MTK2616:3PEIJLRY6U05LKS85HHWC4GKJUWXWE", "dateTime": 1519156011320}, {"current_trial": 20, "trialdata": {"rt": -1, "trial_type": "single-stim", "stimulus": "<p id=\"stim\">+</p>", "internal_node_id": "0.0-11.0-0.0", "time_elapsed": 296797, "key_press": -1, "type": "FIXATION", "trial_index": 20}, "uniqueid": "MTK2616:3PEIJLRY6U05LKS85HHWC4GKJUWXWE", "dateTime": 1519156012829}, {"current_trial": 21, "trialdata": {"rt": -1000, "trial_type": "single-audio", "word": "cobra", "stimulus": "/static/audio/wordpool/COBRA.wav", "conditions": [18, 1200, "a", 18000], "internal_node_id": "0.0-12.0", "trial": 0, "time_elapsed": 299159, "serialpos": 0, "key_press": -1, "wordID": 335, "type": "PRES_AUD", "trial_index": 21}, "uniqueid": "MTK2616:3PEIJLRY6U05LKS85HHWC4GKJUWXWE", "dateTime": 1519156015190}, {"current_trial": 22, "trialdata": {"rt": -1000, "trial_type": "single-audio", "word": "honey", "stimulus": "/static/audio/wordpool/HONEY.wav", "conditions": [18, 1200, "a", 18000], "internal_node_id": "0.0-13.0", "trial": 0, "time_elapsed": 301518, "serialpos": 1, "key_press": -1, "wordID": 712, "type": "PRES_AUD", "trial_index": 22}, "uniqueid": "MTK2616:3PEIJLRY6U05LKS85HHWC4GKJUWXWE", "dateTime": 1519156017549}, {"current_trial": 23, "trialdata": {"rt": -1000, "trial_type": "single-audio", "word": "trout", "stimulus": "/static/audio/wordpool/TROUT.wav", "conditions": [18, 1200, "a", 18000], "internal_node_id": "0.0-14.0", "trial": 0, "time_elapsed": 303555, "serialpos": 2, "key_press": -1, "wordID": 1510, "type": "PRES_AUD", "trial_index": 23}, "uniqueid": "MTK2616:3PEIJLRY6U05LKS85HHWC4GKJUWXWE", "dateTime": 1519156019586}, {"current_trial": 24, "trialdata": {"rt": -1000, "trial_type": "single-audio", "word": "patient", "stimulus": "/static/audio/wordpool/PATIENT.wav", "conditions": [18, 1200, "a", 18000], "internal_node_id": "0.0-15.0", "trial": 0, "time_elapsed": 305791, "serialpos": 3, "key_press": -1, "wordID": 1023, "type": "PRES_AUD", "trial_index": 24}, "uniqueid": "MTK2616:3PEIJLRY6U05LKS85HHWC4GKJUWXWE", "dateTime": 1519156021822}, {"current_trial": 25, "trialdata": {"rt": -1000, "trial_type": "single-audio", "word": "handbag", "stimulus": "/static/audio/wordpool/HANDBAG.wav", "conditions": [18, 1200, "a", 18000], "internal_node_id": "0.0-16.0", "trial": 0, "time_elapsed": 307795, "serialpos": 4, "key_press": -1, "wordID": 683, "type": "PRES_AUD", "trial_index": 25}, "uniqueid": "MTK2616:3PEIJLRY6U05LKS85HHWC4GKJUWXWE", "dateTime": 1519156023826}, {"current_trial": 26, "trialdata": {"rt": -1000, "trial_type": "single-audio", "word": "country", "stimulus": "/static/audio/wordpool/COUNTRY.wav", "conditions": [18, 1200, "a", 18000], "internal_node_id": "0.0-17.0", "trial": 0, "time_elapsed": 310105, "serialpos": 5, "key_press": -1, "wordID": 387, "type": "PRES_AUD", "trial_index": 26}, "uniqueid": "MTK2616:3PEIJLRY6U05LKS85HHWC4GKJUWXWE", "dateTime": 1519156026136}, {"current_trial": 27, "trialdata": {"rt": -1000, "trial_type": "single-audio", "word": "infant", "stimulus": "/static/audio/wordpool/INFANT.wav", "conditions": [18, 1200, "a", 18000], "internal_node_id": "0.0-18.0", "trial": 0, "time_elapsed": 312121, "serialpos": 6, "key_press": -1, "wordID": 736, "type": "PRES_AUD", "trial_index": 27}, "uniqueid": "MTK2616:3PEIJLRY6U05LKS85HHWC4GKJUWXWE", "dateTime": 1519156028152}, {"current_trial": 28, "trialdata": {"rt": -1000, "trial_type": "single-audio", "word": "cousin", "stimulus": "/static/audio/wordpool/COUSIN.wav", "conditions": [18, 1200, "a", 18000], "internal_node_id": "0.0-19.0", "trial": 0, "time_elapsed": 314187, "serialpos": 7, "key_press": -1, "wordID": 391, "type": "PRES_AUD", "trial_index": 28}, "uniqueid": "MTK2616:3PEIJLRY6U05LKS85HHWC4GKJUWXWE", "dateTime": 1519156030218}, {"current_trial": 29, "trialdata": {"rt": -1000, "trial_type": "single-audio", "word": "lumber", "stimulus": "/static/audio/wordpool/LUMBER.wav", "conditions": [18, 1200, "a", 18000], "internal_node_id": "0.0-20.0", "trial": 0, "time_elapsed": 316215, "serialpos": 8, "key_press": -1, "wordID": 847, "type": "PRES_AUD", "trial_index": 29}, "uniqueid": "MTK2616:3PEIJLRY6U05LKS85HHWC4GKJUWXWE", "dateTime": 1519156032246}, {"current_trial": 30, "trialdata": {"rt": -1000, "trial_type": "single-audio", "word": "mustard", "stimulus": "/static/audio/wordpool/MUSTARD.wav", "conditions": [18, 1200, "a", 18000], "internal_node_id": "0.0-21.0", "trial": 0, "time_elapsed": 318303, "serialpos": 9, "key_press": -1, "wordID": 934, "type": "PRES_AUD", "trial_index": 30}, "uniqueid": "MTK2616:3PEIJLRY6U05LKS85HHWC4GKJUWXWE", "dateTime": 1519156034334}, {"current_trial": 31, "trialdata": {"rt": -1000, "trial_type": "single-audio", "word": "canyon", "stimulus": "/static/audio/wordpool/CANYON.wav", "conditions": [18, 1200, "a", 18000], "internal_node_id": "0.0-22.0", "trial": 0, "time_elapsed": 320412, "serialpos": 10, "key_press": -1, "wordID": 234, "type": "PRES_AUD", "trial_index": 31}, "uniqueid": "MTK2616:3PEIJLRY6U05LKS85HHWC4GKJUWXWE", "dateTime": 1519156036443}, {"current_trial": 32, "trialdata": {"rt": -1000, "trial_type": "single-audio", "word": "notebook", "stimulus": "/static/audio/wordpool/NOTEBOOK.wav", "conditions": [18, 1200, "a", 18000], "internal_node_id": "0.0-23.0", "trial": 0, "time_elapsed": 322733, "serialpos": 11, "key_press": -1, "wordID": 958, "type": "PRES_AUD", "trial_index": 32}, "uniqueid": "MTK2616:3PEIJLRY6U05LKS85HHWC4GKJUWXWE", "dateTime": 1519156038764}, {"current_trial": 33, "trialdata": {"rt": -1000, "trial_type": "single-audio", "word": "turtle", "stimulus": "/static/audio/wordpool/TURTLE.wav", "conditions": [18, 1200, "a", 18000], "internal_node_id": "0.0-24.0", "trial": 0, "time_elapsed": 325087, "serialpos": 12, "key_press": -1, "wordID": 1521, "type": "PRES_AUD", "trial_index": 33}, "uniqueid": "MTK2616:3PEIJLRY6U05LKS85HHWC4GKJUWXWE", "dateTime": 1519156041118}, {"current_trial": 34, "trialdata": {"rt": -1000, "trial_type": "single-audio", "word": "saddle", "stimulus": "/static/audio/wordpool/SADDLE.wav", "conditions": [18, 1200, "a", 18000], "internal_node_id": "0.0-25.0", "trial": 0, "time_elapsed": 327429, "serialpos": 13, "key_press": -1, "wordID": 1220, "type": "PRES_AUD", "trial_index": 34}, "uniqueid": "MTK2616:3PEIJLRY6U05LKS85HHWC4GKJUWXWE", "dateTime": 1519156043460}, {"current_trial": 35, "trialdata": {"rt": -1000, "trial_type": "single-audio", "word": "yacht", "stimulus": "/static/audio/wordpool/YACHT.wav", "conditions": [18, 1200, "a", 18000], "internal_node_id": "0.0-26.0", "trial": 0, "time_elapsed": 329529, "serialpos": 14, "key_press": -1, "wordID": 1628, "type": "PRES_AUD", "trial_index": 35}, "uniqueid": "MTK2616:3PEIJLRY6U05LKS85HHWC4GKJUWXWE", "dateTime": 1519156045560}, {"current_trial": 36, "trialdata": {"rt": -1000, "trial_type": "single-audio", "word": "woman", "stimulus": "/static/audio/wordpool/WOMAN.wav", "conditions": [18, 1200, "a", 18000], "internal_node_id": "0.0-27.0", "trial": 0, "time_elapsed": 331849, "serialpos": 15, "key_press": -1, "wordID": 1619, "type": "PRES_AUD", "trial_index": 36}, "uniqueid": "MTK2616:3PEIJLRY6U05LKS85HHWC4GKJUWXWE", "dateTime": 1519156047880}, {"current_trial": 37, "trialdata": {"rt": -1000, "trial_type": "single-audio", "word": "treat", "stimulus": "/static/audio/wordpool/TREAT.wav", "conditions": [18, 1200, "a", 18000], "internal_node_id": "0.0-28.0", "trial": 0, "time_elapsed": 334165, "serialpos": 16, "key_press": -1, "wordID": 1500, "type": "PRES_AUD", "trial_index": 37}, "uniqueid": "MTK2616:3PEIJLRY6U05LKS85HHWC4GKJUWXWE", "dateTime": 1519156050196}, {"current_trial": 38, "trialdata": {"rt": -1000, "trial_type": "single-audio", "word": "palace", "stimulus": "/static/audio/wordpool/PALACE.wav", "conditions": [18, 1200, "a", 18000], "internal_node_id": "0.0-29.0", "trial": 0, "time_elapsed": 336233, "serialpos": 17, "key_press": -1, "wordID": 1005, "type": "PRES_AUD", "trial_index": 38}, "uniqueid": "MTK2616:3PEIJLRY6U05LKS85HHWC4GKJUWXWE", "dateTime": 1519156052264}, {"current_trial": 39, "trialdata": {"rt": -1, "trial_type": "single-stim", "stimulus": "", "internal_node_id": "0.0-30.0-0.0", "time_elapsed": 337629, "key_press": -1, "type": "PRE_RECALL_DELAY", "trial_index": 39}, "uniqueid": "MTK2616:3PEIJLRY6U05LKS85HHWC4GKJUWXWE", "dateTime": 1519156053660}, {"current_trial": 40, "trialdata": {"rt": -1000, "trial_type": "single-audio", "stimulus": "/static/audio/400Hz.wav", "internal_node_id": "0.0-31.0", "time_elapsed": 338131, "key_press": -1, "type": "PRE_RECALL_ALERT", "trial_index": 40}, "uniqueid": "MTK2616:3PEIJLRY6U05LKS85HHWC4GKJUWXWE", "dateTime": 1519156054162}, {"current_trial": 41, "trialdata": {"rt": [4758, 8430, 11910, 23806, 28147, 51342, 55598], "recwords": ["palace", "woman", "cobra", "treat", "honey", "trout", "patience"], "key_times": [2392, 2431, 2641, 2767, 3158, 3326, 4758, 5975, 6143, 6886, 7079, 7751, 8430, 9526, 9702, 10566, 10774, 11166, 11910, 22583, 22719, 22878, 23118, 23318, 23806, 26503, 26679, 26894, 27135, 27398, 28147, 49863, 50038, 50278, 50446, 50687, 51342, 52230, 52351, 53054, 53446, 53654, 54007, 54134, 54238, 55598, 58848, 58991, 59096, 59286, 59511, 59662, 59830], "trial_type": "free-recall", "conditions": [18, 1200, "a", 18000], "internal_node_id": "0.0-32.0-0.0", "key_presses": [80, 65, 76, 65, 67, 69, 32, 87, 79, 77, 65, 78, 32, 67, 79, 66, 82, 65, 32, 84, 82, 69, 65, 84, 32, 72, 79, 78, 69, 89, 32, 84, 82, 79, 85, 84, 32, 80, 65, 84, 73, 69, 78, 67, 69, 32, 67, 79, 85, 78, 84, 82, 89], "trial": 0, "time_elapsed": 398141, "type": "FREE_RECALL", "trial_index": 41}, "uniqueid": "MTK2616:3PEIJLRY6U05LKS85HHWC4GKJUWXWE", "dateTime": 1519156114179}, {"current_trial": 42, "trialdata": {"rt": 3189, "trial_type": "text", "internal_node_id": "0.0-33.0", "time_elapsed": 403341, "key_press": 32, "type": "INSTRUCTIONS", "trial_index": 42}, "uniqueid": "MTK2616:3PEIJLRY6U05LKS85HHWC4GKJUWXWE", "dateTime": 1519156119372}, {"current_trial": 43, "trialdata": {"rt": [5930, 8426, 11011, 13746, 17818], "trial_type": "math-distractor", "key_times": [5531, 5692, 5930, 8058, 8211, 8426, 10602, 10786, 11011, 13298, 13506, 13746, 17122, 17346, 17818], "responses": ["11", "11", "21", "16", "24"], "num2": [4, 5, 7, 8, 9, 7], "num3": [4, 5, 6, 3, 7, 9], "conditions": [18, 1200, "a", 18000], "internal_node_id": "0.0-34.0", "key_presses": [97, 97, 13, 97, 97, 13, 98, 97, 13, 97, 102, 13, 98, 100, 13], "trial": 1, "time_elapsed": 423361, "type": "DISTRACTOR", "trial_index": 43, "num1": [3, 1, 8, 5, 8, 5]}, "uniqueid": "MTK2616:3PEIJLRY6U05LKS85HHWC4GKJUWXWE", "dateTime": 1519156139392}, {"current_trial": 44, "trialdata": {"rt": -1, "trial_type": "single-stim", "stimulus": "<p id=\"stim\">10</p>", "internal_node_id": "0.0-35.0-0.0", "time_elapsed": 426373, "key_press": -1, "trial_index": 44}, "uniqueid": "MTK2616:3PEIJLRY6U05LKS85HHWC4GKJUWXWE", "dateTime": 1519156142404}, {"current_trial": 45, "trialdata": {"rt": -1, "trial_type": "single-stim", "stimulus": "<p id=\"stim\">9</p>", "internal_node_id": "0.0-35.0-1.0", "time_elapsed": 427375, "key_press": -1, "trial_index": 45}, "uniqueid": "MTK2616:3PEIJLRY6U05LKS85HHWC4GKJUWXWE", "dateTime": 1519156143406}, {"current_trial": 46, "trialdata": {"rt": -1, "trial_type": "single-stim", "stimulus": "<p id=\"stim\">8</p>", "internal_node_id": "0.0-35.0-2.0", "time_elapsed": 428377, "key_press": -1, "trial_index": 46}, "uniqueid": "MTK2616:3PEIJLRY6U05LKS85HHWC4GKJUWXWE", "dateTime": 1519156144408}, {"current_trial": 47, "trialdata": {"rt": -1, "trial_type": "single-stim", "stimulus": "<p id=\"stim\">7</p>", "internal_node_id": "0.0-35.0-3.0", "time_elapsed": 429387, "key_press": -1, "trial_index": 47}, "uniqueid": "MTK2616:3PEIJLRY6U05LKS85HHWC4GKJUWXWE", "dateTime": 1519156145418}, {"current_trial": 48, "trialdata": {"rt": -1, "trial_type": "single-stim", "stimulus": "<p id=\"stim\">6</p>", "internal_node_id": "0.0-35.0-4.0", "time_elapsed": 430398, "key_press": -1, "trial_index": 48}, "uniqueid": "MTK2616:3PEIJLRY6U05LKS85HHWC4GKJUWXWE", "dateTime": 1519156146429}, {"current_trial": 49, "trialdata": {"rt": -1, "trial_type": "single-stim", "stimulus": "<p id=\"stim\">5</p>", "internal_node_id": "0.0-35.0-5.0", "time_elapsed": 431407, "key_press": -1, "trial_index": 49}, "uniqueid": "MTK2616:3PEIJLRY6U05LKS85HHWC4GKJUWXWE", "dateTime": 1519156147438}, {"current_trial": 50, "trialdata": {"rt": -1, "trial_type": "single-stim", "stimulus": "<p id=\"stim\">4</p>", "internal_node_id": "0.0-35.0-6.0", "time_elapsed": 432417, "key_press": -1, "trial_index": 50}, "uniqueid": "MTK2616:3PEIJLRY6U05LKS85HHWC4GKJUWXWE", "dateTime": 1519156148448}, {"current_trial": 51, "trialdata": {"rt": -1, "trial_type": "single-stim", "stimulus": "<p id=\"stim\">3</p>", "internal_node_id": "0.0-35.0-7.0", "time_elapsed": 433427, "key_press": -1, "trial_index": 51}, "uniqueid": "MTK2616:3PEIJLRY6U05LKS85HHWC4GKJUWXWE", "dateTime": 1519156149458}, {"current_trial": 52, "trialdata": {"rt": -1, "trial_type": "single-stim", "stimulus": "<p id=\"stim\">2</p>", "internal_node_id": "0.0-35.0-8.0", "time_elapsed": 434429, "key_press": -1, "trial_index": 52}, "uniqueid": "MTK2616:3PEIJLRY6U05LKS85HHWC4GKJUWXWE", "dateTime": 1519156150460}, {"current_trial": 53, "trialdata": {"rt": -1, "trial_type": "single-stim", "stimulus": "<p id=\"stim\">1</p>", "internal_node_id": "0.0-35.0-9.0", "time_elapsed": 435439, "key_press": -1, "trial_index": 53}, "uniqueid": "MTK2616:3PEIJLRY6U05LKS85HHWC4GKJUWXWE", "dateTime": 1519156151470}, {"current_trial": 54, "trialdata": {"rt": -1, "trial_type": "single-stim", "stimulus": "<p id=\"stim\">+</p>", "internal_node_id": "0.0-36.0-0.0", "time_elapsed": 436941, "key_press": -1, "type": "FIXATION", "trial_index": 54}, "uniqueid": "MTK2616:3PEIJLRY6U05LKS85HHWC4GKJUWXWE", "dateTime": 1519156152972}, {"current_trial": 55, "trialdata": {"rt": -1000, "trial_type": "single-audio", "word": "gavel", "stimulus": "/static/audio/wordpool/GAVEL.wav", "conditions": [18, 1200, "a", 18000], "internal_node_id": "0.0-37.0", "trial": 1, "time_elapsed": 439123, "serialpos": 0, "key_press": -1, "wordID": 626, "type": "PRES_AUD", "trial_index": 55}, "uniqueid": "MTK2616:3PEIJLRY6U05LKS85HHWC4GKJUWXWE", "dateTime": 1519156155154}, {"current_trial": 56, "trialdata": {"rt": -1000, "trial_type": "single-audio", "word": "cashier", "stimulus": "/static/audio/wordpool/CASHIER.wav", "conditions": [18, 1200, "a", 18000], "internal_node_id": "0.0-38.0", "trial": 1, "time_elapsed": 441425, "serialpos": 1, "key_press": -1, "wordID": 253, "type": "PRES_AUD", "trial_index": 56}, "uniqueid": "MTK2616:3PEIJLRY6U05LKS85HHWC4GKJUWXWE", "dateTime": 1519156157456}, {"current_trial": 57, "trialdata": {"rt": -1000, "trial_type": "single-audio", "word": "plaid", "stimulus": "/static/audio/wordpool/PLAID.wav", "conditions": [18, 1200, "a", 18000], "internal_node_id": "0.0-39.0", "trial": 1, "time_elapsed": 443549, "serialpos": 2, "key_press": -1, "wordID": 1079, "type": "PRES_AUD", "trial_index": 57}, "uniqueid": "MTK2616:3PEIJLRY6U05LKS85HHWC4GKJUWXWE", "dateTime": 1519156159580}, {"current_trial": 58, "trialdata": {"rt": -1000, "trial_type": "single-audio", "word": "machine", "stimulus": "/static/audio/wordpool/MACHINE.wav", "conditions": [18, 1200, "a", 18000], "internal_node_id": "0.0-40.0", "trial": 1, "time_elapsed": 445648, "serialpos": 3, "key_press": -1, "wordID": 851, "type": "PRES_AUD", "trial_index": 58}, "uniqueid": "MTK2616:3PEIJLRY6U05LKS85HHWC4GKJUWXWE", "dateTime": 1519156161679}, {"current_trial": 59, "trialdata": {"rt": -1000, "trial_type": "single-audio", "word": "glass", "stimulus": "/static/audio/wordpool/GLASS.wav", "conditions": [18, 1200, "a", 18000], "internal_node_id": "0.0-41.0", "trial": 1, "time_elapsed": 447712, "serialpos": 4, "key_press": -1, "wordID": 638, "type": "PRES_AUD", "trial_index": 59}, "uniqueid": "MTK2616:3PEIJLRY6U05LKS85HHWC4GKJUWXWE", "dateTime": 1519156163743}, {"current_trial": 60, "trialdata": {"rt": -1000, "trial_type": "single-audio", "word": "lapel", "stimulus": "/static/audio/wordpool/LAPEL.wav", "conditions": [18, 1200, "a", 18000], "internal_node_id": "0.0-42.0", "trial": 1, "time_elapsed": 449787, "serialpos": 5, "key_press": -1, "wordID": 799, "type": "PRES_AUD", "trial_index": 60}, "uniqueid": "MTK2616:3PEIJLRY6U05LKS85HHWC4GKJUWXWE", "dateTime": 1519156165818}, {"current_trial": 61, "trialdata": {"rt": -1000, "trial_type": "single-audio", "word": "yarn", "stimulus": "/static/audio/wordpool/YARN.wav", "conditions": [18, 1200, "a", 18000], "internal_node_id": "0.0-43.0", "trial": 1, "time_elapsed": 452178, "serialpos": 6, "key_press": -1, "wordID": 1630, "type": "PRES_AUD", "trial_index": 61}, "uniqueid": "MTK2616:3PEIJLRY6U05LKS85HHWC4GKJUWXWE", "dateTime": 1519156168209}, {"current_trial": 62, "trialdata": {"rt": -1000, "trial_type": "single-audio", "word": "gangster", "stimulus": "/static/audio/wordpool/GANGSTER.wav", "conditions": [18, 1200, "a", 18000], "internal_node_id": "0.0-44.0", "trial": 1, "time_elapsed": 454377, "serialpos": 7, "key_press": -1, "wordID": 619, "type": "PRES_AUD", "trial_index": 62}, "uniqueid": "MTK2616:3PEIJLRY6U05LKS85HHWC4GKJUWXWE", "dateTime": 1519156170408}, {"current_trial": 63, "trialdata": {"rt": -1000, "trial_type": "single-audio", "word": "outdoors", "stimulus": "/static/audio/wordpool/OUTDOORS.wav", "conditions": [18, 1200, "a", 18000], "internal_node_id": "0.0-45.0", "trial": 1, "time_elapsed": 456661, "serialpos": 8, "key_press": -1, "wordID": 986, "type": "PRES_AUD", "trial_index": 63}, "uniqueid": "MTK2616:3PEIJLRY6U05LKS85HHWC4GKJUWXWE", "dateTime": 1519156172692}, {"current_trial": 64, "trialdata": {"rt": -1000, "trial_type": "single-audio", "word": "mummy", "stimulus": "/static/audio/wordpool/MUMMY.wav", "conditions": [18, 1200, "a", 18000], "internal_node_id": "0.0-46.0", "trial": 1, "time_elapsed": 458673, "serialpos": 9, "key_press": -1, "wordID": 931, "type": "PRES_AUD", "trial_index": 64}, "uniqueid": "MTK2616:3PEIJLRY6U05LKS85HHWC4GKJUWXWE", "dateTime": 1519156174704}, {"current_trial": 65, "trialdata": {"rt": -1000, "trial_type": "single-audio", "word": "egypt", "stimulus": "/static/audio/wordpool/EGYPT.wav", "conditions": [18, 1200, "a", 18000], "internal_node_id": "0.0-47.0", "trial": 1, "time_elapsed": 460857, "serialpos": 10, "key_press": -1, "wordID": 518, "type": "PRES_AUD", "trial_index": 65}, "uniqueid": "MTK2616:3PEIJLRY6U05LKS85HHWC4GKJUWXWE", "dateTime": 1519156176888}, {"current_trial": 66, "trialdata": {"rt": -1000, "trial_type": "single-audio", "word": "flower", "stimulus": "/static/audio/wordpool/FLOWER.wav", "conditions": [18, 1200, "a", 18000], "internal_node_id": "0.0-48.0", "trial": 1, "time_elapsed": 463121, "serialpos": 11, "key_press": -1, "wordID": 583, "type": "PRES_AUD", "trial_index": 66}, "uniqueid": "MTK2616:3PEIJLRY6U05LKS85HHWC4GKJUWXWE", "dateTime": 1519156179152}, {"current_trial": 67, "trialdata": {"rt": -1000, "trial_type": "single-audio", "word": "lipstick", "stimulus": "/static/audio/wordpool/LIPSTICK.wav", "conditions": [18, 1200, "a", 18000], "internal_node_id": "0.0-49.0", "trial": 1, "time_elapsed": 465228, "serialpos": 12, "key_press": -1, "wordID": 828, "type": "PRES_AUD", "trial_index": 67}, "uniqueid": "MTK2616:3PEIJLRY6U05LKS85HHWC4GKJUWXWE", "dateTime": 1519156181259}, {"current_trial": 68, "trialdata": {"rt": -1000, "trial_type": "single-audio", "word": "lily", "stimulus": "/static/audio/wordpool/LILY.wav", "conditions": [18, 1200, "a", 18000], "internal_node_id": "0.0-50.0", "trial": 1, "time_elapsed": 467403, "serialpos": 13, "key_press": -1, "wordID": 820, "type": "PRES_AUD", "trial_index": 68}, "uniqueid": "MTK2616:3PEIJLRY6U05LKS85HHWC4GKJUWXWE", "dateTime": 1519156183434}, {"current_trial": 69, "trialdata": {"rt": -1000, "trial_type": "single-audio", "word": "shark", "stimulus": "/static/audio/wordpool/SHARK.wav", "conditions": [18, 1200, "a", 18000], "internal_node_id": "0.0-51.0", "trial": 1, "time_elapsed": 469429, "serialpos": 14, "key_press": -1, "wordID": 1274, "type": "PRES_AUD", "trial_index": 69}, "uniqueid": "MTK2616:3PEIJLRY6U05LKS85HHWC4GKJUWXWE", "dateTime": 1519156185461}, {"current_trial": 70, "trialdata": {"rt": -1000, "trial_type": "single-audio", "word": "rust", "stimulus": "/static/audio/wordpool/RUST.wav", "conditions": [18, 1200, "a", 18000], "internal_node_id": "0.0-52.0", "trial": 1, "time_elapsed": 471747, "serialpos": 15, "key_press": -1, "wordID": 1218, "type": "PRES_AUD", "trial_index": 70}, "uniqueid": "MTK2616:3PEIJLRY6U05LKS85HHWC4GKJUWXWE", "dateTime": 1519156187778}, {"current_trial": 71, "trialdata": {"rt": -1000, "trial_type": "single-audio", "word": "dentist", "stimulus": "/static/audio/wordpool/DENTIST.wav", "conditions": [18, 1200, "a", 18000], "internal_node_id": "0.0-53.0", "trial": 1, "time_elapsed": 473873, "serialpos": 16, "key_press": -1, "wordID": 446, "type": "PRES_AUD", "trial_index": 71}, "uniqueid": "MTK2616:3PEIJLRY6U05LKS85HHWC4GKJUWXWE", "dateTime": 1519156189904}, {"current_trial": 72, "trialdata": {"rt": -1000, "trial_type": "single-audio", "word": "london", "stimulus": "/static/audio/wordpool/LONDON.wav", "conditions": [18, 1200, "a", 18000], "internal_node_id": "0.0-54.0", "trial": 1, "time_elapsed": 476070, "serialpos": 17, "key_press": -1, "wordID": 842, "type": "PRES_AUD", "trial_index": 72}, "uniqueid": "MTK2616:3PEIJLRY6U05LKS85HHWC4GKJUWXWE", "dateTime": 1519156192101}, {"current_trial": 73, "trialdata": {"rt": -1, "trial_type": "single-stim", "stimulus": "", "internal_node_id": "0.0-55.0-0.0", "time_elapsed": 477403, "key_press": -1, "type": "PRE_RECALL_DELAY", "trial_index": 73}, "uniqueid": "MTK2616:3PEIJLRY6U05LKS85HHWC4GKJUWXWE", "dateTime": 1519156193434}, {"current_trial": 74, "trialdata": {"rt": -1000, "trial_type": "single-audio", "stimulus": "/static/audio/400Hz.wav", "internal_node_id": "0.0-56.0", "time_elapsed": 477913, "key_press": -1, "type": "PRE_RECALL_ALERT", "trial_index": 74}, "uniqueid": "MTK2616:3PEIJLRY6U05LKS85HHWC4GKJUWXWE", "dateTime": 1519156193944}, {"current_trial": 75, "trialdata": {"rt": [8025, 13640, 23040, 32056, 40200, 43728, 48728, 53696], "recwords": ["lipstick", "lilly", "flag", "machine", "mummy", "outdoors", "gangster", "rust"], "key_times": [4056, 4304, 5200, 5840, 6224, 6577, 6800, 6976, 8025, 8544, 8784, 9104, 9249, 9728, 13640, 21617, 21768, 22032, 22496, 23040, 28744, 28825, 29080, 29201, 29368, 30464, 30705, 32056, 38266, 38472, 38704, 38840, 39329, 40200, 40720, 40904, 41248, 41976, 42253, 42393, 42600, 42896, 43728, 45449, 45568, 45680, 46649, 46992, 47233, 47593, 47712, 47888, 48096, 48728, 52161, 52312, 52384, 52601, 53696], "trial_type": "free-recall", "conditions": [18, 1200, "a", 18000], "internal_node_id": "0.0-57.0-0.0", "key_presses": [76, 73, 80, 83, 84, 73, 67, 75, 32, 76, 73, 76, 76, 89, 32, 70, 76, 65, 71, 13, 77, 65, 67, 72, 73, 78, 69, 32, 77, 85, 77, 77, 89, 32, 79, 85, 84, 68, 79, 79, 82, 83, 32, 71, 65, 71, 8, 78, 71, 83, 84, 69, 82, 13, 82, 85, 83, 84, 32], "trial": 1, "time_elapsed": 537918, "type": "FREE_RECALL", "trial_index": 75}, "uniqueid": "MTK2616:3PEIJLRY6U05LKS85HHWC4GKJUWXWE", "dateTime": 1519156253953}, {"current_trial": 76, "trialdata": {"rt": 5246, "trial_type": "text", "internal_node_id": "0.0-58.0", "time_elapsed": 545173, "key_press": 32, "type": "INSTRUCTIONS", "trial_index": 76}, "uniqueid": "MTK2616:3PEIJLRY6U05LKS85HHWC4GKJUWXWE", "dateTime": 1519156261204}, {"current_trial": 77, "trialdata": {"rt": [3082, 8779, 11107], "trial_type": "math-distractor", "key_times": [2218, 2402, 3082, 8322, 8514, 8779, 10506, 10797, 11107], "responses": ["19", "14", "17"], "num2": [6, 3, 3, 6], "num3": [8, 5, 7, 5], "conditions": [24, 1600, "a", 12000], "internal_node_id": "0.0-59.0", "key_presses": [97, 105, 13, 97, 100, 13, 97, 103, 13], "trial": 2, "time_elapsed": 558193, "type": "DISTRACTOR", "trial_index": 77, "num1": [5, 6, 7, 9]}, "uniqueid": "MTK2616:3PEIJLRY6U05LKS85HHWC4GKJUWXWE", "dateTime": 1519156274225}, {"current_trial": 78, "trialdata": {"rt": -1, "trial_type": "single-stim", "stimulus": "<p id=\"stim\">10</p>", "internal_node_id": "0.0-60.0-0.0", "time_elapsed": 561222, "key_press": -1, "trial_index": 78}, "uniqueid": "MTK2616:3PEIJLRY6U05LKS85HHWC4GKJUWXWE", "dateTime": 1519156277253}, {"current_trial": 79, "trialdata": {"rt": -1, "trial_type": "single-stim", "stimulus": "<p id=\"stim\">9</p>", "internal_node_id": "0.0-60.0-1.0", "time_elapsed": 562224, "key_press": -1, "trial_index": 79}, "uniqueid": "MTK2616:3PEIJLRY6U05LKS85HHWC4GKJUWXWE", "dateTime": 1519156278255}, {"current_trial": 80, "trialdata": {"rt": -1, "trial_type": "single-stim", "stimulus": "<p id=\"stim\">8</p>", "internal_node_id": "0.0-60.0-2.0", "time_elapsed": 563233, "key_press": -1, "trial_index": 80}, "uniqueid": "MTK2616:3PEIJLRY6U05LKS85HHWC4GKJUWXWE", "dateTime": 1519156279264}, {"current_trial": 81, "trialdata": {"rt": -1, "trial_type": "single-stim", "stimulus": "<p id=\"stim\">7</p>", "internal_node_id": "0.0-60.0-3.0", "time_elapsed": 564243, "key_press": -1, "trial_index": 81}, "uniqueid": "MTK2616:3PEIJLRY6U05LKS85HHWC4GKJUWXWE", "dateTime": 1519156280275}, {"current_trial": 82, "trialdata": {"rt": -1, "trial_type": "single-stim", "stimulus": "<p id=\"stim\">6</p>", "internal_node_id": "0.0-60.0-4.0", "time_elapsed": 565245, "key_press": -1, "trial_index": 82}, "uniqueid": "MTK2616:3PEIJLRY6U05LKS85HHWC4GKJUWXWE", "dateTime": 1519156281277}, {"current_trial": 83, "trialdata": {"rt": -1, "trial_type": "single-stim", "stimulus": "<p id=\"stim\">5</p>", "internal_node_id": "0.0-60.0-5.0", "time_elapsed": 566266, "key_press": -1, "trial_index": 83}, "uniqueid": "MTK2616:3PEIJLRY6U05LKS85HHWC4GKJUWXWE", "dateTime": 1519156282297}, {"current_trial": 84, "trialdata": {"rt": -1, "trial_type": "single-stim", "stimulus": "<p id=\"stim\">4</p>", "internal_node_id": "0.0-60.0-6.0", "time_elapsed": 567275, "key_press": -1, "trial_index": 84}, "uniqueid": "MTK2616:3PEIJLRY6U05LKS85HHWC4GKJUWXWE", "dateTime": 1519156283307}, {"current_trial": 85, "trialdata": {"rt": -1, "trial_type": "single-stim", "stimulus": "<p id=\"stim\">3</p>", "internal_node_id": "0.0-60.0-7.0", "time_elapsed": 568277, "key_press": -1, "trial_index": 85}, "uniqueid": "MTK2616:3PEIJLRY6U05LKS85HHWC4GKJUWXWE", "dateTime": 1519156284309}, {"current_trial": 86, "trialdata": {"rt": -1, "trial_type": "single-stim", "stimulus": "<p id=\"stim\">2</p>", "internal_node_id": "0.0-60.0-8.0", "time_elapsed": 569279, "key_press": -1, "trial_index": 86}, "uniqueid": "MTK2616:3PEIJLRY6U05LKS85HHWC4GKJUWXWE", "dateTime": 1519156285311}, {"current_trial": 87, "trialdata": {"rt": -1, "trial_type": "single-stim", "stimulus": "<p id=\"stim\">1</p>", "internal_node_id": "0.0-60.0-9.0", "time_elapsed": 570291, "key_press": -1, "trial_index": 87}, "uniqueid": "MTK2616:3PEIJLRY6U05LKS85HHWC4GKJUWXWE", "dateTime": 1519156286322}, {"current_trial": 88, "trialdata": {"rt": -1, "trial_type": "single-stim", "stimulus": "<p id=\"stim\">+</p>", "internal_node_id": "0.0-61.0-0.0", "time_elapsed": 571807, "key_press": -1, "type": "FIXATION", "trial_index": 88}, "uniqueid": "MTK2616:3PEIJLRY6U05LKS85HHWC4GKJUWXWE", "dateTime": 1519156287839}, {"current_trial": 89, "trialdata": {"rt": -1000, "trial_type": "single-audio", "word": "truck", "stimulus": "/static/audio/wordpool/TRUCK.wav", "conditions": [24, 1600, "a", 12000], "internal_node_id": "0.0-62.0", "trial": 2, "time_elapsed": 574564, "serialpos": 0, "key_press": -1, "wordID": 1511, "type": "PRES_AUD", "trial_index": 89}, "uniqueid": "MTK2616:3PEIJLRY6U05LKS85HHWC4GKJUWXWE", "dateTime": 1519156290596}, {"current_trial": 90, "trialdata": {"rt": -1000, "trial_type": "single-audio", "word": "cabbage", "stimulus": "/static/audio/wordpool/CABBAGE.wav", "conditions": [24, 1600, "a", 12000], "internal_node_id": "0.0-63.0", "trial": 2, "time_elapsed": 577147, "serialpos": 1, "key_press": -1, "wordID": 209, "type": "PRES_AUD", "trial_index": 90}, "uniqueid": "MTK2616:3PEIJLRY6U05LKS85HHWC4GKJUWXWE", "dateTime": 1519156293179}, {"current_trial": 91, "trialdata": {"rt": -1000, "trial_type": "single-audio", "word": "turnip", "stimulus": "/static/audio/wordpool/TURNIP.wav", "conditions": [24, 1600, "a", 12000], "internal_node_id": "0.0-64.0", "trial": 2, "time_elapsed": 579626, "serialpos": 2, "key_press": -1, "wordID": 1520, "type": "PRES_AUD", "trial_index": 91}, "uniqueid": "MTK2616:3PEIJLRY6U05LKS85HHWC4GKJUWXWE", "dateTime": 1519156295657}, {"current_trial": 92, "trialdata": {"rt": -1000, "trial_type": "single-audio", "word": "hiker", "stimulus": "/static/audio/wordpool/HIKER.wav", "conditions": [24, 1600, "a", 12000], "internal_node_id": "0.0-65.0", "trial": 2, "time_elapsed": 582419, "serialpos": 3, "key_press": -1, "wordID": 707, "type": "PRES_AUD", "trial_index": 92}, "uniqueid": "MTK2616:3PEIJLRY6U05LKS85HHWC4GKJUWXWE", "dateTime": 1519156298450}, {"current_trial": 93, "trialdata": {"rt": -1000, "trial_type": "single-audio", "word": "tractor", "stimulus": "/static/audio/wordpool/TRACTOR.wav", "conditions": [24, 1600, "a", 12000], "internal_node_id": "0.0-66.0", "trial": 2, "time_elapsed": 584931, "serialpos": 4, "key_press": -1, "wordID": 1492, "type": "PRES_AUD", "trial_index": 93}, "uniqueid": "MTK2616:3PEIJLRY6U05LKS85HHWC4GKJUWXWE", "dateTime": 1519156300962}, {"current_trial": 94, "trialdata": {"rt": -1000, "trial_type": "single-audio", "word": "parsley", "stimulus": "/static/audio/wordpool/PARSLEY.wav", "conditions": [24, 1600, "a", 12000], "internal_node_id": "0.0-67.0", "trial": 2, "time_elapsed": 587691, "serialpos": 5, "key_press": -1, "wordID": 1015, "type": "PRES_AUD", "trial_index": 94}, "uniqueid": "MTK2616:3PEIJLRY6U05LKS85HHWC4GKJUWXWE", "dateTime": 1519156303722}, {"current_trial": 95, "trialdata": {"rt": -1000, "trial_type": "single-audio", "word": "award", "stimulus": "/static/audio/wordpool/AWARD.wav", "conditions": [24, 1600, "a", 12000], "internal_node_id": "0.0-68.0", "trial": 2, "time_elapsed": 590423, "serialpos": 6, "key_press": -1, "wordID": 62, "type": "PRES_AUD", "trial_index": 95}, "uniqueid": "MTK2616:3PEIJLRY6U05LKS85HHWC4GKJUWXWE", "dateTime": 1519156306454}, {"current_trial": 96, "trialdata": {"rt": -1000, "trial_type": "single-audio", "word": "climber", "stimulus": "/static/audio/wordpool/CLIMBER.wav", "conditions": [24, 1600, "a", 12000], "internal_node_id": "0.0-69.0", "trial": 2, "time_elapsed": 592913, "serialpos": 7, "key_press": -1, "wordID": 322, "type": "PRES_AUD", "trial_index": 96}, "uniqueid": "MTK2616:3PEIJLRY6U05LKS85HHWC4GKJUWXWE", "dateTime": 1519156308945}, {"current_trial": 97, "trialdata": {"rt": -1000, "trial_type": "single-audio", "word": "flipper", "stimulus": "/static/audio/wordpool/FLIPPER.wav", "conditions": [24, 1600, "a", 12000], "internal_node_id": "0.0-70.0", "trial": 2, "time_elapsed": 595622, "serialpos": 8, "key_press": -1, "wordID": 579, "type": "PRES_AUD", "trial_index": 97}, "uniqueid": "MTK2616:3PEIJLRY6U05LKS85HHWC4GKJUWXWE", "dateTime": 1519156311653}, {"current_trial": 98, "trialdata": {"rt": -1000, "trial_type": "single-audio", "word": "elbow", "stimulus": "/static/audio/wordpool/ELBOW.wav", "conditions": [24, 1600, "a", 12000], "internal_node_id": "0.0-71.0", "trial": 2, "time_elapsed": 598425, "serialpos": 9, "key_press": -1, "wordID": 519, "type": "PRES_AUD", "trial_index": 98}, "uniqueid": "MTK2616:3PEIJLRY6U05LKS85HHWC4GKJUWXWE", "dateTime": 1519156314456}, {"current_trial": 99, "trialdata": {"rt": -1000, "trial_type": "single-audio", "word": "mailman", "stimulus": "/static/audio/wordpool/MAILMAN.wav", "conditions": [24, 1600, "a", 12000], "internal_node_id": "0.0-72.0", "trial": 2, "time_elapsed": 600891, "serialpos": 10, "key_press": -1, "wordID": 857, "type": "PRES_AUD", "trial_index": 99}, "uniqueid": "MTK2616:3PEIJLRY6U05LKS85HHWC4GKJUWXWE", "dateTime": 1519156316923}, {"current_trial": 100, "trialdata": {"rt": -1000, "trial_type": "single-audio", "word": "fleet", "stimulus": "/static/audio/wordpool/FLEET.wav", "conditions": [24, 1600, "a", 12000], "internal_node_id": "0.0-73.0", "trial": 2, "time_elapsed": 603476, "serialpos": 11, "key_press": -1, "wordID": 577, "type": "PRES_AUD", "trial_index": 100}, "uniqueid": "MTK2616:3PEIJLRY6U05LKS85HHWC4GKJUWXWE", "dateTime": 1519156319507}, {"current_trial": 101, "trialdata": {"rt": -1000, "trial_type": "single-audio", "word": "church", "stimulus": "/static/audio/wordpool/CHURCH.wav", "conditions": [24, 1600, "a", 12000], "internal_node_id": "0.0-74.0", "trial": 2, "time_elapsed": 605956, "serialpos": 12, "key_press": -1, "wordID": 306, "type": "PRES_AUD", "trial_index": 101}, "uniqueid": "MTK2616:3PEIJLRY6U05LKS85HHWC4GKJUWXWE", "dateTime": 1519156321987}, {"current_trial": 102, "trialdata": {"rt": -1000, "trial_type": "single-audio", "word": "grill", "stimulus": "/static/audio/wordpool/GRILL.wav", "conditions": [24, 1600, "a", 12000], "internal_node_id": "0.0-75.0", "trial": 2, "time_elapsed": 608365, "serialpos": 13, "key_press": -1, "wordID": 660, "type": "PRES_AUD", "trial_index": 102}, "uniqueid": "MTK2616:3PEIJLRY6U05LKS85HHWC4GKJUWXWE", "dateTime": 1519156324397}, {"current_trial": 103, "trialdata": {"rt": -1000, "trial_type": "single-audio", "word": "cook", "stimulus": "/static/audio/wordpool/COOK.wav", "conditions": [24, 1600, "a", 12000], "internal_node_id": "0.0-76.0", "trial": 2, "time_elapsed": 611114, "serialpos": 14, "key_press": -1, "wordID": 371, "type": "PRES_AUD", "trial_index": 103}, "uniqueid": "MTK2616:3PEIJLRY6U05LKS85HHWC4GKJUWXWE", "dateTime": 1519156327145}, {"current_trial": 104, "trialdata": {"rt": -1000, "trial_type": "single-audio", "word": "finger", "stimulus": "/static/audio/wordpool/FINGER.wav", "conditions": [24, 1600, "a", 12000], "internal_node_id": "0.0-77.0", "trial": 2, "time_elapsed": 613555, "serialpos": 15, "key_press": -1, "wordID": 566, "type": "PRES_AUD", "trial_index": 104}, "uniqueid": "MTK2616:3PEIJLRY6U05LKS85HHWC4GKJUWXWE", "dateTime": 1519156329586}, {"current_trial": 105, "trialdata": {"rt": -1000, "trial_type": "single-audio", "word": "blouse", "stimulus": "/static/audio/wordpool/BLOUSE.wav", "conditions": [24, 1600, "a", 12000], "internal_node_id": "0.0-78.0", "trial": 2, "time_elapsed": 616339, "serialpos": 16, "key_press": -1, "wordID": 138, "type": "PRES_AUD", "trial_index": 105}, "uniqueid": "MTK2616:3PEIJLRY6U05LKS85HHWC4GKJUWXWE", "dateTime": 1519156332371}, {"current_trial": 106, "trialdata": {"rt": -1000, "trial_type": "single-audio", "word": "frame", "stimulus": "/static/audio/wordpool/FRAME.wav", "conditions": [24, 1600, "a", 12000], "internal_node_id": "0.0-79.0", "trial": 2, "time_elapsed": 618785, "serialpos": 17, "key_press": -1, "wordID": 599, "type": "PRES_AUD", "trial_index": 106}, "uniqueid": "MTK2616:3PEIJLRY6U05LKS85HHWC4GKJUWXWE", "dateTime": 1519156334817}, {"current_trial": 107, "trialdata": {"rt": -1000, "trial_type": "single-audio", "word": "backbone", "stimulus": "/static/audio/wordpool/BACKBONE.wav", "conditions": [24, 1600, "a", 12000], "internal_node_id": "0.0-80.0", "trial": 2, "time_elapsed": 621323, "serialpos": 18, "key_press": -1, "wordID": 65, "type": "PRES_AUD", "trial_index": 107}, "uniqueid": "MTK2616:3PEIJLRY6U05LKS85HHWC4GKJUWXWE", "dateTime": 1519156337355}, {"current_trial": 108, "trialdata": {"rt": -1000, "trial_type": "single-audio", "word": "beaker", "stimulus": "/static/audio/wordpool/BEAKER.wav", "conditions": [24, 1600, "a", 12000], "internal_node_id": "0.0-81.0", "trial": 2, "time_elapsed": 623980, "serialpos": 19, "key_press": -1, "wordID": 103, "type": "PRES_AUD", "trial_index": 108}, "uniqueid": "MTK2616:3PEIJLRY6U05LKS85HHWC4GKJUWXWE", "dateTime": 1519156340011}, {"current_trial": 109, "trialdata": {"rt": -1000, "trial_type": "single-audio", "word": "lizard", "stimulus": "/static/audio/wordpool/LIZARD.wav", "conditions": [24, 1600, "a", 12000], "internal_node_id": "0.0-82.0", "trial": 2, "time_elapsed": 626526, "serialpos": 20, "key_press": -1, "wordID": 833, "type": "PRES_AUD", "trial_index": 109}, "uniqueid": "MTK2616:3PEIJLRY6U05LKS85HHWC4GKJUWXWE", "dateTime": 1519156342557}, {"current_trial": 110, "trialdata": {"rt": -1000, "trial_type": "single-audio", "word": "outlaw", "stimulus": "/static/audio/wordpool/OUTLAW.wav", "conditions": [24, 1600, "a", 12000], "internal_node_id": "0.0-83.0", "trial": 2, "time_elapsed": 629248, "serialpos": 21, "key_press": -1, "wordID": 988, "type": "PRES_AUD", "trial_index": 110}, "uniqueid": "MTK2616:3PEIJLRY6U05LKS85HHWC4GKJUWXWE", "dateTime": 1519156345279}, {"current_trial": 111, "trialdata": {"rt": -1000, "trial_type": "single-audio", "word": "suitcase", "stimulus": "/static/audio/wordpool/SUITCASE.wav", "conditions": [24, 1600, "a", 12000], "internal_node_id": "0.0-84.0", "trial": 2, "time_elapsed": 632041, "serialpos": 22, "key_press": -1, "wordID": 1402, "type": "PRES_AUD", "trial_index": 111}, "uniqueid": "MTK2616:3PEIJLRY6U05LKS85HHWC4GKJUWXWE", "dateTime": 1519156348073}, {"current_trial": 112, "trialdata": {"rt": -1000, "trial_type": "single-audio", "word": "wardrobe", "stimulus": "/static/audio/wordpool/WARDROBE.wav", "conditions": [24, 1600, "a", 12000], "internal_node_id": "0.0-85.0", "trial": 2, "time_elapsed": 634490, "serialpos": 23, "key_press": -1, "wordID": 1586, "type": "PRES_AUD", "trial_index": 112}, "uniqueid": "MTK2616:3PEIJLRY6U05LKS85HHWC4GKJUWXWE", "dateTime": 1519156350522}, {"current_trial": 113, "trialdata": {"rt": -1, "trial_type": "single-stim", "stimulus": "", "internal_node_id": "0.0-86.0-0.0", "time_elapsed": 635887, "key_press": -1, "type": "PRE_RECALL_DELAY", "trial_index": 113}, "uniqueid": "MTK2616:3PEIJLRY6U05LKS85HHWC4GKJUWXWE", "dateTime": 1519156351919}, {"current_trial": 114, "trialdata": {"rt": -1000, "trial_type": "single-audio", "stimulus": "/static/audio/400Hz.wav", "internal_node_id": "0.0-87.0", "time_elapsed": 636398, "key_press": -1, "type": "PRE_RECALL_ALERT", "trial_index": 114}, "uniqueid": "MTK2616:3PEIJLRY6U05LKS85HHWC4GKJUWXWE", "dateTime": 1519156352429}, {"current_trial": 115, "trialdata": {"rt": [4779, 6683, 10915, 20292, 26244, 32292, 38779, 43132, 50859], "recwords": ["grill", "cook", "finger", "elbow", "fleet", "tractor", "cabbage", "turnip", "blouse"], "key_times": [3331, 3549, 3731, 4067, 4228, 4779, 5187, 5403, 5540, 5875, 6683, 7620, 7795, 7963, 8372, 8515, 8747, 10915, 17523, 17819, 18355, 18523, 18852, 20292, 24349, 24469, 24611, 24723, 24964, 26244, 30453, 30581, 30868, 30987, 31131, 31643, 31923, 32292, 37035, 37131, 37348, 37499, 37635, 38299, 38483, 38779, 40339, 40571, 40723, 41155, 41755, 42075, 43132, 48916, 49035, 49239, 49379, 49611, 49796, 50859], "trial_type": "free-recall", "conditions": [24, 1600, "a", 12000], "internal_node_id": "0.0-88.0-0.0", "key_presses": [71, 82, 73, 76, 76, 32, 67, 79, 79, 75, 32, 70, 73, 78, 71, 69, 82, 32, 69, 76, 66, 79, 87, 32, 70, 76, 69, 69, 84, 32, 84, 82, 65, 67, 84, 79, 82, 32, 67, 65, 66, 66, 65, 71, 69, 32, 84, 85, 82, 78, 73, 80, 32, 66, 76, 79, 85, 83, 69, 13], "trial": 2, "time_elapsed": 696404, "type": "FREE_RECALL", "trial_index": 115}, "uniqueid": "MTK2616:3PEIJLRY6U05LKS85HHWC4GKJUWXWE", "dateTime": 1519156412440}, {"current_trial": 116, "trialdata": {"rt": 2041, "trial_type": "text", "internal_node_id": "0.0-89.0", "time_elapsed": 700452, "key_press": 32, "type": "INSTRUCTIONS", "trial_index": 116}, "uniqueid": "MTK2616:3PEIJLRY6U05LKS85HHWC4GKJUWXWE", "dateTime": 1519156416484}, {"current_trial": 117, "trialdata": {"rt": [5757, 7804, 9588], "trial_type": "math-distractor", "key_times": [5381, 5540, 5757, 7348, 7597, 7804, 9229, 9404, 9588, 11724, 11885], "responses": ["12", "17", "10"], "num2": [3, 6, 4, 3], "num3": [4, 4, 2, 3], "conditions": [24, 800, "a", 12000], "internal_node_id": "0.0-90.0", "key_presses": [97, 98, 13, 97, 103, 13, 97, 96, 13, 97, 101], "trial": 3, "time_elapsed": 714467, "type": "DISTRACTOR", "trial_index": 117, "num1": [5, 7, 4, 9]}, "uniqueid": "MTK2616:3PEIJLRY6U05LKS85HHWC4GKJUWXWE", "dateTime": 1519156430498}, {"current_trial": 118, "trialdata": {"rt": -1, "trial_type": "single-stim", "stimulus": "<p id=\"stim\">10</p>", "internal_node_id": "0.0-91.0-0.0", "time_elapsed": 717468, "key_press": -1, "trial_index": 118}, "uniqueid": "MTK2616:3PEIJLRY6U05LKS85HHWC4GKJUWXWE", "dateTime": 1519156433499}, {"current_trial": 119, "trialdata": {"rt": -1, "trial_type": "single-stim", "stimulus": "<p id=\"stim\">9</p>", "internal_node_id": "0.0-91.0-1.0", "time_elapsed": 718496, "key_press": -1, "trial_index": 119}, "uniqueid": "MTK2616:3PEIJLRY6U05LKS85HHWC4GKJUWXWE", "dateTime": 1519156434527}, {"current_trial": 120, "trialdata": {"rt": -1, "trial_type": "single-stim", "stimulus": "<p id=\"stim\">8</p>", "internal_node_id": "0.0-91.0-2.0", "time_elapsed": 719500, "key_press": -1, "trial_index": 120}, "uniqueid": "MTK2616:3PEIJLRY6U05LKS85HHWC4GKJUWXWE", "dateTime": 1519156435531}, {"current_trial": 121, "trialdata": {"rt": -1, "trial_type": "single-stim", "stimulus": "<p id=\"stim\">7</p>", "internal_node_id": "0.0-91.0-3.0", "time_elapsed": 720502, "key_press": -1, "trial_index": 121}, "uniqueid": "MTK2616:3PEIJLRY6U05LKS85HHWC4GKJUWXWE", "dateTime": 1519156436533}, {"current_trial": 122, "trialdata": {"rt": -1, "trial_type": "single-stim", "stimulus": "<p id=\"stim\">6</p>", "internal_node_id": "0.0-91.0-4.0", "time_elapsed": 721512, "key_press": -1, "trial_index": 122}, "uniqueid": "MTK2616:3PEIJLRY6U05LKS85HHWC4GKJUWXWE", "dateTime": 1519156437543}, {"current_trial": 123, "trialdata": {"rt": -1, "trial_type": "single-stim", "stimulus": "<p id=\"stim\">5</p>", "internal_node_id": "0.0-91.0-5.0", "time_elapsed": 722514, "key_press": -1, "trial_index": 123}, "uniqueid": "MTK2616:3PEIJLRY6U05LKS85HHWC4GKJUWXWE", "dateTime": 1519156438545}, {"current_trial": 124, "trialdata": {"rt": -1, "trial_type": "single-stim", "stimulus": "<p id=\"stim\">4</p>", "internal_node_id": "0.0-91.0-6.0", "time_elapsed": 723524, "key_press": -1, "trial_index": 124}, "uniqueid": "MTK2616:3PEIJLRY6U05LKS85HHWC4GKJUWXWE", "dateTime": 1519156439555}, {"current_trial": 125, "trialdata": {"rt": -1, "trial_type": "single-stim", "stimulus": "<p id=\"stim\">3</p>", "internal_node_id": "0.0-91.0-7.0", "time_elapsed": 724534, "key_press": -1, "trial_index": 125}, "uniqueid": "MTK2616:3PEIJLRY6U05LKS85HHWC4GKJUWXWE", "dateTime": 1519156440565}, {"current_trial": 126, "trialdata": {"rt": -1, "trial_type": "single-stim", "stimulus": "<p id=\"stim\">2</p>", "internal_node_id": "0.0-91.0-8.0", "time_elapsed": 725536, "key_press": -1, "trial_index": 126}, "uniqueid": "MTK2616:3PEIJLRY6U05LKS85HHWC4GKJUWXWE", "dateTime": 1519156441567}, {"current_trial": 127, "trialdata": {"rt": -1, "trial_type": "single-stim", "stimulus": "<p id=\"stim\">1</p>", "internal_node_id": "0.0-91.0-9.0", "time_elapsed": 726540, "key_press": -1, "trial_index": 127}, "uniqueid": "MTK2616:3PEIJLRY6U05LKS85HHWC4GKJUWXWE", "dateTime": 1519156442571}, {"current_trial": 128, "trialdata": {"rt": -1, "trial_type": "single-stim", "stimulus": "<p id=\"stim\">+</p>", "internal_node_id": "0.0-92.0-0.0", "time_elapsed": 728044, "key_press": -1, "type": "FIXATION", "trial_index": 128}, "uniqueid": "MTK2616:3PEIJLRY6U05LKS85HHWC4GKJUWXWE", "dateTime": 1519156444075}, {"current_trial": 129, "trialdata": {"rt": -1000, "trial_type": "single-audio", "word": "lady", "stimulus": "/static/audio/wordpool/LADY.wav", "conditions": [24, 800, "a", 12000], "internal_node_id": "0.0-93.0", "trial": 3, "time_elapsed": 729954, "serialpos": 0, "key_press": -1, "wordID": 793, "type": "PRES_AUD", "trial_index": 129}, "uniqueid": "MTK2616:3PEIJLRY6U05LKS85HHWC4GKJUWXWE", "dateTime": 1519156445985}, {"current_trial": 130, "trialdata": {"rt": -1000, "trial_type": "single-audio", "word": "casket", "stimulus": "/static/audio/wordpool/CASKET.wav", "conditions": [24, 800, "a", 12000], "internal_node_id": "0.0-94.0", "trial": 3, "time_elapsed": 731624, "serialpos": 1, "key_press": -1, "wordID": 254, "type": "PRES_AUD", "trial_index": 130}, "uniqueid": "MTK2616:3PEIJLRY6U05LKS85HHWC4GKJUWXWE", "dateTime": 1519156447655}, {"current_trial": 131, "trialdata": {"rt": -1000, "trial_type": "single-audio", "word": "bacon", "stimulus": "/static/audio/wordpool/BACON.wav", "conditions": [24, 800, "a", 12000], "internal_node_id": "0.0-95.0", "trial": 3, "time_elapsed": 733416, "serialpos": 2, "key_press": -1, "wordID": 66, "type": "PRES_AUD", "trial_index": 131}, "uniqueid": "MTK2616:3PEIJLRY6U05LKS85HHWC4GKJUWXWE", "dateTime": 1519156449447}, {"current_trial": 132, "trialdata": {"rt": -1000, "trial_type": "single-audio", "word": "citrus", "stimulus": "/static/audio/wordpool/CITRUS.wav", "conditions": [24, 800, "a", 12000], "internal_node_id": "0.0-96.0", "trial": 3, "time_elapsed": 735223, "serialpos": 3, "key_press": -1, "wordID": 312, "type": "PRES_AUD", "trial_index": 132}, "uniqueid": "MTK2616:3PEIJLRY6U05LKS85HHWC4GKJUWXWE", "dateTime": 1519156451254}, {"current_trial": 133, "trialdata": {"rt": -1000, "trial_type": "single-audio", "word": "stove", "stimulus": "/static/audio/wordpool/STOVE.wav", "conditions": [24, 800, "a", 12000], "internal_node_id": "0.0-97.0", "trial": 3, "time_elapsed": 737002, "serialpos": 4, "key_press": -1, "wordID": 1387, "type": "PRES_AUD", "trial_index": 133}, "uniqueid": "MTK2616:3PEIJLRY6U05LKS85HHWC4GKJUWXWE", "dateTime": 1519156453033}, {"current_trial": 134, "trialdata": {"rt": -1000, "trial_type": "single-audio", "word": "sidewalk", "stimulus": "/static/audio/wordpool/SIDEWALK.wav", "conditions": [24, 800, "a", 12000], "internal_node_id": "0.0-98.0", "trial": 3, "time_elapsed": 738906, "serialpos": 5, "key_press": -1, "wordID": 1302, "type": "PRES_AUD", "trial_index": 134}, "uniqueid": "MTK2616:3PEIJLRY6U05LKS85HHWC4GKJUWXWE", "dateTime": 1519156454937}, {"current_trial": 135, "trialdata": {"rt": -1000, "trial_type": "single-audio", "word": "pigment", "stimulus": "/static/audio/wordpool/PIGMENT.wav", "conditions": [24, 800, "a", 12000], "internal_node_id": "0.0-99.0", "trial": 3, "time_elapsed": 740600, "serialpos": 6, "key_press": -1, "wordID": 1065, "type": "PRES_AUD", "trial_index": 135}, "uniqueid": "MTK2616:3PEIJLRY6U05LKS85HHWC4GKJUWXWE", "dateTime": 1519156456631}, {"current_trial": 136, "trialdata": {"rt": -1000, "trial_type": "single-audio", "word": "victim", "stimulus": "/static/audio/wordpool/VICTIM.wav", "conditions": [24, 800, "a", 12000], "internal_node_id": "0.0-100.0", "trial": 3, "time_elapsed": 742338, "serialpos": 7, "key_press": -1, "wordID": 1561, "type": "PRES_AUD", "trial_index": 136}, "uniqueid": "MTK2616:3PEIJLRY6U05LKS85HHWC4GKJUWXWE", "dateTime": 1519156458370}, {"current_trial": 137, "trialdata": {"rt": -1000, "trial_type": "single-audio", "word": "fireplace", "stimulus": "/static/audio/wordpool/FIREPLACE.wav", "conditions": [24, 800, "a", 12000], "internal_node_id": "0.0-101.0", "trial": 3, "time_elapsed": 743956, "serialpos": 8, "key_press": -1, "wordID": 569, "type": "PRES_AUD", "trial_index": 137}, "uniqueid": "MTK2616:3PEIJLRY6U05LKS85HHWC4GKJUWXWE", "dateTime": 1519156459987}, {"current_trial": 138, "trialdata": {"rt": -1000, "trial_type": "single-audio", "word": "spoon", "stimulus": "/static/audio/wordpool/SPOON.wav", "conditions": [24, 800, "a", 12000], "internal_node_id": "0.0-102.0", "trial": 3, "time_elapsed": 745930, "serialpos": 9, "key_press": -1, "wordID": 1356, "type": "PRES_AUD", "trial_index": 138}, "uniqueid": "MTK2616:3PEIJLRY6U05LKS85HHWC4GKJUWXWE", "dateTime": 1519156461961}, {"current_trial": 139, "trialdata": {"rt": -1000, "trial_type": "single-audio", "word": "kitchen", "stimulus": "/static/audio/wordpool/KITCHEN.wav", "conditions": [24, 800, "a", 12000], "internal_node_id": "0.0-103.0", "trial": 3, "time_elapsed": 747622, "serialpos": 10, "key_press": -1, "wordID": 777, "type": "PRES_AUD", "trial_index": 139}, "uniqueid": "MTK2616:3PEIJLRY6U05LKS85HHWC4GKJUWXWE", "dateTime": 1519156463653}, {"current_trial": 140, "trialdata": {"rt": -1000, "trial_type": "single-audio", "word": "cupboard", "stimulus": "/static/audio/wordpool/CUPBOARD.wav", "conditions": [24, 800, "a", 12000], "internal_node_id": "0.0-104.0", "trial": 3, "time_elapsed": 749624, "serialpos": 11, "key_press": -1, "wordID": 424, "type": "PRES_AUD", "trial_index": 140}, "uniqueid": "MTK2616:3PEIJLRY6U05LKS85HHWC4GKJUWXWE", "dateTime": 1519156465655}, {"current_trial": 141, "trialdata": {"rt": -1000, "trial_type": "single-audio", "word": "mildew", "stimulus": "/static/audio/wordpool/MILDEW.wav", "conditions": [24, 800, "a", 12000], "internal_node_id": "0.0-105.0", "trial": 3, "time_elapsed": 751438, "serialpos": 12, "key_press": -1, "wordID": 892, "type": "PRES_AUD", "trial_index": 141}, "uniqueid": "MTK2616:3PEIJLRY6U05LKS85HHWC4GKJUWXWE", "dateTime": 1519156467469}, {"current_trial": 142, "trialdata": {"rt": -1000, "trial_type": "single-audio", "word": "zebra", "stimulus": "/static/audio/wordpool/ZEBRA.wav", "conditions": [24, 800, "a", 12000], "internal_node_id": "0.0-106.0", "trial": 3, "time_elapsed": 753144, "serialpos": 13, "key_press": -1, "wordID": 1634, "type": "PRES_AUD", "trial_index": 142}, "uniqueid": "MTK2616:3PEIJLRY6U05LKS85HHWC4GKJUWXWE", "dateTime": 1519156469175}, {"current_trial": 143, "trialdata": {"rt": -1000, "trial_type": "single-audio", "word": "rabbit", "stimulus": "/static/audio/wordpool/RABBIT.wav", "conditions": [24, 800, "a", 12000], "internal_node_id": "0.0-107.0", "trial": 3, "time_elapsed": 754950, "serialpos": 14, "key_press": -1, "wordID": 1151, "type": "PRES_AUD", "trial_index": 143}, "uniqueid": "MTK2616:3PEIJLRY6U05LKS85HHWC4GKJUWXWE", "dateTime": 1519156470981}, {"current_trial": 144, "trialdata": {"rt": -1000, "trial_type": "single-audio", "word": "princess", "stimulus": "/static/audio/wordpool/PRINCESS.wav", "conditions": [24, 800, "a", 12000], "internal_node_id": "0.0-108.0", "trial": 3, "time_elapsed": 756596, "serialpos": 15, "key_press": -1, "wordID": 1124, "type": "PRES_AUD", "trial_index": 144}, "uniqueid": "MTK2616:3PEIJLRY6U05LKS85HHWC4GKJUWXWE", "dateTime": 1519156472627}, {"current_trial": 145, "trialdata": {"rt": -1000, "trial_type": "single-audio", "word": "market", "stimulus": "/static/audio/wordpool/MARKET.wav", "conditions": [24, 800, "a", 12000], "internal_node_id": "0.0-109.0", "trial": 3, "time_elapsed": 758409, "serialpos": 16, "key_press": -1, "wordID": 870, "type": "PRES_AUD", "trial_index": 145}, "uniqueid": "MTK2616:3PEIJLRY6U05LKS85HHWC4GKJUWXWE", "dateTime": 1519156474440}, {"current_trial": 146, "trialdata": {"rt": -1000, "trial_type": "single-audio", "word": "glove", "stimulus": "/static/audio/wordpool/GLOVE.wav", "conditions": [24, 800, "a", 12000], "internal_node_id": "0.0-110.0", "trial": 3, "time_elapsed": 760162, "serialpos": 17, "key_press": -1, "wordID": 641, "type": "PRES_AUD", "trial_index": 146}, "uniqueid": "MTK2616:3PEIJLRY6U05LKS85HHWC4GKJUWXWE", "dateTime": 1519156476193}, {"current_trial": 147, "trialdata": {"rt": -1000, "trial_type": "single-audio", "word": "salmon", "stimulus": "/static/audio/wordpool/SALMON.wav", "conditions": [24, 800, "a", 12000], "internal_node_id": "0.0-111.0", "trial": 3, "time_elapsed": 761836, "serialpos": 18, "key_press": -1, "wordID": 1226, "type": "PRES_AUD", "trial_index": 147}, "uniqueid": "MTK2616:3PEIJLRY6U05LKS85HHWC4GKJUWXWE", "dateTime": 1519156477867}, {"current_trial": 148, "trialdata": {"rt": -1000, "trial_type": "single-audio", "word": "cod", "stimulus": "/static/audio/wordpool/COD.wav", "conditions": [24, 800, "a", 12000], "internal_node_id": "0.0-112.0", "trial": 3, "time_elapsed": 763609, "serialpos": 19, "key_press": -1, "wordID": 339, "type": "PRES_AUD", "trial_index": 148}, "uniqueid": "MTK2616:3PEIJLRY6U05LKS85HHWC4GKJUWXWE", "dateTime": 1519156479640}, {"current_trial": 149, "trialdata": {"rt": -1000, "trial_type": "single-audio", "word": "bike", "stimulus": "/static/audio/wordpool/BIKE.wav", "conditions": [24, 800, "a", 12000], "internal_node_id": "0.0-113.0", "trial": 3, "time_elapsed": 765500, "serialpos": 20, "key_press": -1, "wordID": 124, "type": "PRES_AUD", "trial_index": 149}, "uniqueid": "MTK2616:3PEIJLRY6U05LKS85HHWC4GKJUWXWE", "dateTime": 1519156481531}, {"current_trial": 150, "trialdata": {"rt": -1000, "trial_type": "single-audio", "word": "leopard", "stimulus": "/static/audio/wordpool/LEOPARD.wav", "conditions": [24, 800, "a", 12000], "internal_node_id": "0.0-114.0", "trial": 3, "time_elapsed": 767154, "serialpos": 21, "key_press": -1, "wordID": 811, "type": "PRES_AUD", "trial_index": 150}, "uniqueid": "MTK2616:3PEIJLRY6U05LKS85HHWC4GKJUWXWE", "dateTime": 1519156483185}, {"current_trial": 151, "trialdata": {"rt": -1000, "trial_type": "single-audio", "word": "binder", "stimulus": "/static/audio/wordpool/BINDER.wav", "conditions": [24, 800, "a", 12000], "internal_node_id": "0.0-115.0", "trial": 3, "time_elapsed": 769120, "serialpos": 22, "key_press": -1, "wordID": 126, "type": "PRES_AUD", "trial_index": 151}, "uniqueid": "MTK2616:3PEIJLRY6U05LKS85HHWC4GKJUWXWE", "dateTime": 1519156485151}, {"current_trial": 152, "trialdata": {"rt": -1000, "trial_type": "single-audio", "word": "garlic", "stimulus": "/static/audio/wordpool/GARLIC.wav", "conditions": [24, 800, "a", 12000], "internal_node_id": "0.0-116.0", "trial": 3, "time_elapsed": 770759, "serialpos": 23, "key_press": -1, "wordID": 623, "type": "PRES_AUD", "trial_index": 152}, "uniqueid": "MTK2616:3PEIJLRY6U05LKS85HHWC4GKJUWXWE", "dateTime": 1519156486790}, {"current_trial": 153, "trialdata": {"rt": -1, "trial_type": "single-stim", "stimulus": "", "internal_node_id": "0.0-117.0-0.0", "time_elapsed": 772076, "key_press": -1, "type": "PRE_RECALL_DELAY", "trial_index": 153}, "uniqueid": "MTK2616:3PEIJLRY6U05LKS85HHWC4GKJUWXWE", "dateTime": 1519156488107}, {"current_trial": 154, "trialdata": {"rt": -1000, "trial_type": "single-audio", "stimulus": "/static/audio/400Hz.wav", "internal_node_id": "0.0-118.0", "time_elapsed": 772578, "key_press": -1, "type": "PRE_RECALL_ALERT", "trial_index": 154}, "uniqueid": "MTK2616:3PEIJLRY6U05LKS85HHWC4GKJUWXWE", "dateTime": 1519156488609}, {"current_trial": 155, "trialdata": {"rt": [5311, 9527, 14231, 19136, 23903, 37639, 47295, 57559], "recwords": ["bacon", "victim", "lady", "salmon", "cod", "kitchen", "rabbit", "bike"], "key_times": [3392, 3487, 3975, 4095, 4463, 5311, 7656, 7831, 8279, 8615, 8767, 8969, 9527, 12456, 12583, 12856, 13458, 14231, 16804, 16967, 17495, 17719, 17927, 18192, 19136, 22671, 22872, 23152, 23903, 30888, 31055, 33191, 33335, 35679, 35839, 36031, 36440, 36576, 36709, 36840, 37639, 45760, 46026, 46511, 46663, 46823, 46943, 47295, 56471, 56647, 56815, 56963, 57559], "trial_type": "free-recall", "conditions": [24, 800, "a", 12000], "internal_node_id": "0.0-119.0-0.0", "key_presses": [66, 65, 67, 79, 78, 32, 86, 73, 67, 84, 73, 77, 13, 76, 65, 68, 89, 32, 83, 65, 76, 77, 79, 78, 32, 67, 79, 68, 32, 86, 73, 8, 8, 75, 73, 84, 67, 72, 69, 78, 32, 82, 65, 66, 66, 73, 84, 32, 66, 73, 75, 69, 32], "trial": 3, "time_elapsed": 832585, "type": "FREE_RECALL", "trial_index": 155}, "uniqueid": "MTK2616:3PEIJLRY6U05LKS85HHWC4GKJUWXWE", "dateTime": 1519156548620}, {"current_trial": 156, "trialdata": {"rt": 4296, "trial_type": "text", "internal_node_id": "0.0-120.0", "time_elapsed": 838893, "key_press": 32, "type": "INSTRUCTIONS", "trial_index": 156}, "uniqueid": "MTK2616:3PEIJLRY6U05LKS85HHWC4GKJUWXWE", "dateTime": 1519156554924}, {"current_trial": 157, "trialdata": {"rt": [2159, 4498, 6802, 9194, 11314, 13538, 16770, 18843, 20954, 23938], "trial_type": "math-distractor", "key_times": [1674, 1866, 2159, 4130, 4282, 4498, 6419, 6593, 6802, 8721, 8946, 9194, 10906, 11106, 11314, 13130, 13325, 13538, 16290, 16523, 16770, 18579, 18843, 20562, 20738, 20954, 23562, 23739, 23938], "responses": ["19", "13", "13", "17", "14", "15", "17", "9", "23", "23"], "num2": [3, 8, 1, 4, 6, 9, 9, 7, 9, 8, 9], "num3": [9, 2, 6, 5, 1, 1, 4, 1, 5, 6, 4], "conditions": [12, 800, "a", 24000], "internal_node_id": "0.0-121.0", "key_presses": [97, 105, 13, 97, 99, 13, 97, 99, 13, 97, 103, 13, 97, 100, 13, 97, 101, 13, 97, 103, 13, 105, 13, 98, 99, 13, 98, 99, 13], "trial": 4, "time_elapsed": 864911, "type": "DISTRACTOR", "trial_index": 157, "num1": [7, 3, 6, 8, 7, 5, 4, 1, 9, 9, 6]}, "uniqueid": "MTK2616:3PEIJLRY6U05LKS85HHWC4GKJUWXWE", "dateTime": 1519156580942}, {"current_trial": 158, "trialdata": {"rt": -1, "trial_type": "single-stim", "stimulus": "<p id=\"stim\">10</p>", "internal_node_id": "0.0-122.0-0.0", "time_elapsed": 867922, "key_press": -1, "trial_index": 158}, "uniqueid": "MTK2616:3PEIJLRY6U05LKS85HHWC4GKJUWXWE", "dateTime": 1519156583954}, {"current_trial": 159, "trialdata": {"rt": -1, "trial_type": "single-stim", "stimulus": "<p id=\"stim\">9</p>", "internal_node_id": "0.0-122.0-1.0", "time_elapsed": 868932, "key_press": -1, "trial_index": 159}, "uniqueid": "MTK2616:3PEIJLRY6U05LKS85HHWC4GKJUWXWE", "dateTime": 1519156584963}, {"current_trial": 160, "trialdata": {"rt": -1, "trial_type": "single-stim", "stimulus": "<p id=\"stim\">8</p>", "internal_node_id": "0.0-122.0-2.0", "time_elapsed": 869934, "key_press": -1, "trial_index": 160}, "uniqueid": "MTK2616:3PEIJLRY6U05LKS85HHWC4GKJUWXWE", "dateTime": 1519156585965}, {"current_trial": 161, "trialdata": {"rt": -1, "trial_type": "single-stim", "stimulus": "<p id=\"stim\">7</p>", "internal_node_id": "0.0-122.0-3.0", "time_elapsed": 870936, "key_press": -1, "trial_index": 161}, "uniqueid": "MTK2616:3PEIJLRY6U05LKS85HHWC4GKJUWXWE", "dateTime": 1519156586968}, {"current_trial": 162, "trialdata": {"rt": -1, "trial_type": "single-stim", "stimulus": "<p id=\"stim\">6</p>", "internal_node_id": "0.0-122.0-4.0", "time_elapsed": 871938, "key_press": -1, "trial_index": 162}, "uniqueid": "MTK2616:3PEIJLRY6U05LKS85HHWC4GKJUWXWE", "dateTime": 1519156587970}, {"current_trial": 163, "trialdata": {"rt": -1, "trial_type": "single-stim", "stimulus": "<p id=\"stim\">5</p>", "internal_node_id": "0.0-122.0-5.0", "time_elapsed": 872948, "key_press": -1, "trial_index": 163}, "uniqueid": "MTK2616:3PEIJLRY6U05LKS85HHWC4GKJUWXWE", "dateTime": 1519156588980}, {"current_trial": 164, "trialdata": {"rt": -1, "trial_type": "single-stim", "stimulus": "<p id=\"stim\">4</p>", "internal_node_id": "0.0-122.0-6.0", "time_elapsed": 873950, "key_press": -1, "trial_index": 164}, "uniqueid": "MTK2616:3PEIJLRY6U05LKS85HHWC4GKJUWXWE", "dateTime": 1519156589982}, {"current_trial": 165, "trialdata": {"rt": -1, "trial_type": "single-stim", "stimulus": "<p id=\"stim\">3</p>", "internal_node_id": "0.0-122.0-7.0", "time_elapsed": 874966, "key_press": -1, "trial_index": 165}, "uniqueid": "MTK2616:3PEIJLRY6U05LKS85HHWC4GKJUWXWE", "dateTime": 1519156590997}, {"current_trial": 166, "trialdata": {"rt": -1, "trial_type": "single-stim", "stimulus": "<p id=\"stim\">2</p>", "internal_node_id": "0.0-122.0-8.0", "time_elapsed": 875984, "key_press": -1, "trial_index": 166}, "uniqueid": "MTK2616:3PEIJLRY6U05LKS85HHWC4GKJUWXWE", "dateTime": 1519156592016}, {"current_trial": 167, "trialdata": {"rt": -1, "trial_type": "single-stim", "stimulus": "<p id=\"stim\">1</p>", "internal_node_id": "0.0-122.0-9.0", "time_elapsed": 876988, "key_press": -1, "trial_index": 167}, "uniqueid": "MTK2616:3PEIJLRY6U05LKS85HHWC4GKJUWXWE", "dateTime": 1519156593020}, {"current_trial": 168, "trialdata": {"rt": -1, "trial_type": "single-stim", "stimulus": "<p id=\"stim\">+</p>", "internal_node_id": "0.0-123.0-0.0", "time_elapsed": 878496, "key_press": -1, "type": "FIXATION", "trial_index": 168}, "uniqueid": "MTK2616:3PEIJLRY6U05LKS85HHWC4GKJUWXWE", "dateTime": 1519156594528}, {"current_trial": 169, "trialdata": {"rt": -1000, "trial_type": "single-audio", "word": "paddle", "stimulus": "/static/audio/wordpool/PADDLE.wav", "conditions": [12, 800, "a", 24000], "internal_node_id": "0.0-124.0", "trial": 4, "time_elapsed": 880479, "serialpos": 0, "key_press": -1, "wordID": 999, "type": "PRES_AUD", "trial_index": 169}, "uniqueid": "MTK2616:3PEIJLRY6U05LKS85HHWC4GKJUWXWE", "dateTime": 1519156596510}, {"current_trial": 170, "trialdata": {"rt": -1000, "trial_type": "single-audio", "word": "burglar", "stimulus": "/static/audio/wordpool/BURGLAR.wav", "conditions": [12, 800, "a", 24000], "internal_node_id": "0.0-125.0", "trial": 4, "time_elapsed": 882118, "serialpos": 1, "key_press": -1, "wordID": 199, "type": "PRES_AUD", "trial_index": 170}, "uniqueid": "MTK2616:3PEIJLRY6U05LKS85HHWC4GKJUWXWE", "dateTime": 1519156598149}, {"current_trial": 171, "trialdata": {"rt": -1000, "trial_type": "single-audio", "word": "rod", "stimulus": "/static/audio/wordpool/ROD.wav", "conditions": [12, 800, "a", 24000], "internal_node_id": "0.0-126.0", "trial": 4, "time_elapsed": 884064, "serialpos": 2, "key_press": -1, "wordID": 1202, "type": "PRES_AUD", "trial_index": 171}, "uniqueid": "MTK2616:3PEIJLRY6U05LKS85HHWC4GKJUWXWE", "dateTime": 1519156600095}, {"current_trial": 172, "trialdata": {"rt": -1000, "trial_type": "single-audio", "word": "bunny", "stimulus": "/static/audio/wordpool/BUNNY.wav", "conditions": [12, 800, "a", 24000], "internal_node_id": "0.0-127.0", "trial": 4, "time_elapsed": 885764, "serialpos": 3, "key_press": -1, "wordID": 197, "type": "PRES_AUD", "trial_index": 172}, "uniqueid": "MTK2616:3PEIJLRY6U05LKS85HHWC4GKJUWXWE", "dateTime": 1519156601795}, {"current_trial": 173, "trialdata": {"rt": -1000, "trial_type": "single-audio", "word": "bison", "stimulus": "/static/audio/wordpool/BISON.wav", "conditions": [12, 800, "a", 24000], "internal_node_id": "0.0-128.0", "trial": 4, "time_elapsed": 887558, "serialpos": 4, "key_press": -1, "wordID": 130, "type": "PRES_AUD", "trial_index": 173}, "uniqueid": "MTK2616:3PEIJLRY6U05LKS85HHWC4GKJUWXWE", "dateTime": 1519156603590}, {"current_trial": 174, "trialdata": {"rt": -1000, "trial_type": "single-audio", "word": "barley", "stimulus": "/static/audio/wordpool/BARLEY.wav", "conditions": [12, 800, "a", 24000], "internal_node_id": "0.0-129.0", "trial": 4, "time_elapsed": 889172, "serialpos": 5, "key_press": -1, "wordID": 87, "type": "PRES_AUD", "trial_index": 174}, "uniqueid": "MTK2616:3PEIJLRY6U05LKS85HHWC4GKJUWXWE", "dateTime": 1519156605203}, {"current_trial": 175, "trialdata": {"rt": -1000, "trial_type": "single-audio", "word": "grape", "stimulus": "/static/audio/wordpool/GRAPE.wav", "conditions": [12, 800, "a", 24000], "internal_node_id": "0.0-130.0", "trial": 4, "time_elapsed": 891157, "serialpos": 6, "key_press": -1, "wordID": 653, "type": "PRES_AUD", "trial_index": 175}, "uniqueid": "MTK2616:3PEIJLRY6U05LKS85HHWC4GKJUWXWE", "dateTime": 1519156607188}, {"current_trial": 176, "trialdata": {"rt": -1000, "trial_type": "single-audio", "word": "ozone", "stimulus": "/static/audio/wordpool/OZONE.wav", "conditions": [12, 800, "a", 24000], "internal_node_id": "0.0-131.0", "trial": 4, "time_elapsed": 892921, "serialpos": 7, "key_press": -1, "wordID": 995, "type": "PRES_AUD", "trial_index": 176}, "uniqueid": "MTK2616:3PEIJLRY6U05LKS85HHWC4GKJUWXWE", "dateTime": 1519156608952}, {"current_trial": 177, "trialdata": {"rt": -1000, "trial_type": "single-audio", "word": "chipmunk", "stimulus": "/static/audio/wordpool/CHIPMUNK.wav", "conditions": [12, 800, "a", 24000], "internal_node_id": "0.0-132.0", "trial": 4, "time_elapsed": 894754, "serialpos": 8, "key_press": -1, "wordID": 303, "type": "PRES_AUD", "trial_index": 177}, "uniqueid": "MTK2616:3PEIJLRY6U05LKS85HHWC4GKJUWXWE", "dateTime": 1519156610785}, {"current_trial": 178, "trialdata": {"rt": -1000, "trial_type": "single-audio", "word": "salad", "stimulus": "/static/audio/wordpool/SALAD.wav", "conditions": [12, 800, "a", 24000], "internal_node_id": "0.0-133.0", "trial": 4, "time_elapsed": 896546, "serialpos": 9, "key_press": -1, "wordID": 1223, "type": "PRES_AUD", "trial_index": 178}, "uniqueid": "MTK2616:3PEIJLRY6U05LKS85HHWC4GKJUWXWE", "dateTime": 1519156612578}, {"current_trial": 179, "trialdata": {"rt": -1000, "trial_type": "single-audio", "word": "possum", "stimulus": "/static/audio/wordpool/POSSUM.wav", "conditions": [12, 800, "a", 24000], "internal_node_id": "0.0-134.0", "trial": 4, "time_elapsed": 898432, "serialpos": 10, "key_press": -1, "wordID": 1111, "type": "PRES_AUD", "trial_index": 179}, "uniqueid": "MTK2616:3PEIJLRY6U05LKS85HHWC4GKJUWXWE", "dateTime": 1519156614463}, {"current_trial": 180, "trialdata": {"rt": -1000, "trial_type": "single-audio", "word": "canal", "stimulus": "/static/audio/wordpool/CANAL.wav", "conditions": [12, 800, "a", 24000], "internal_node_id": "0.0-135.0", "trial": 4, "time_elapsed": 900356, "serialpos": 11, "key_press": -1, "wordID": 225, "type": "PRES_AUD", "trial_index": 180}, "uniqueid": "MTK2616:3PEIJLRY6U05LKS85HHWC4GKJUWXWE", "dateTime": 1519156616388}, {"current_trial": 181, "trialdata": {"rt": -1, "trial_type": "single-stim", "stimulus": "", "internal_node_id": "0.0-136.0-0.0", "time_elapsed": 901610, "key_press": -1, "type": "PRE_RECALL_DELAY", "trial_index": 181}, "uniqueid": "MTK2616:3PEIJLRY6U05LKS85HHWC4GKJUWXWE", "dateTime": 1519156617642}, {"current_trial": 182, "trialdata": {"rt": -1000, "trial_type": "single-audio", "stimulus": "/static/audio/400Hz.wav", "internal_node_id": "0.0-137.0", "time_elapsed": 902112, "key_press": -1, "type": "PRE_RECALL_ALERT", "trial_index": 182}, "uniqueid": "MTK2616:3PEIJLRY6U05LKS85HHWC4GKJUWXWE", "dateTime": 1519156618144}, {"current_trial": 183, "trialdata": {"rt": [7817, 12282, 18106, 24738, 43121, 55522], "recwords": ["bison", "bunny", "chipmonk", "possum", "barly", "canal"], "key_times": [4578, 4828, 5169, 5361, 5777, 7817, 10234, 10466, 10657, 10809, 11098, 12282, 15401, 15521, 15737, 15986, 16361, 16556, 16786, 17137, 18106, 22450, 22625, 22897, 23041, 23410, 23793, 24738, 41473, 41577, 41858, 42089, 42513, 43121, 54418, 54537, 54862, 54953, 55113, 55522], "trial_type": "free-recall", "conditions": [12, 800, "a", 24000], "internal_node_id": "0.0-138.0-0.0", "key_presses": [66, 73, 83, 79, 78, 32, 66, 85, 78, 78, 89, 32, 67, 72, 73, 80, 77, 79, 78, 75, 32, 80, 79, 83, 83, 85, 77, 32, 66, 65, 82, 76, 89, 32, 67, 65, 78, 65, 76, 13], "trial": 4, "time_elapsed": 962117, "type": "FREE_RECALL", "trial_index": 183}, "uniqueid": "MTK2616:3PEIJLRY6U05LKS85HHWC4GKJUWXWE", "dateTime": 1519156678152}, {"current_trial": 184, "trialdata": {"rt": 1850, "trial_type": "text", "internal_node_id": "0.0-139.0", "time_elapsed": 965973, "key_press": 32, "type": "INSTRUCTIONS", "trial_index": 184}, "uniqueid": "MTK2616:3PEIJLRY6U05LKS85HHWC4GKJUWXWE", "dateTime": 1519156682004}, {"current_trial": 185, "trialdata": {"rt": [2407, 4600, 6999, 8879, 12129, 14255, 17199, 19071, 21399, 23343], "trial_type": "math-distractor", "key_times": [2023, 2192, 2407, 4232, 4431, 4600, 6592, 6767, 6999, 8504, 8663, 8879, 11783, 11951, 12129, 13799, 14016, 14255, 16595, 16783, 17199, 18640, 18839, 19071, 21127, 21399, 22800, 23071, 23343], "responses": ["16", "21", "11", "12", "21", "19", "19", "12", "8", "18"], "num2": [6, 8, 6, 5, 9, 6, 8, 5, 5, 7, 4], "num3": [2, 5, 3, 3, 8, 6, 9, 5, 1, 4, 4], "conditions": [12, 800, "a", 24000], "internal_node_id": "0.0-140.0", "key_presses": [97, 102, 13, 98, 97, 13, 97, 97, 13, 97, 98, 13, 98, 97, 13, 97, 105, 13, 97, 105, 13, 97, 98, 13, 104, 13, 97, 104, 13], "trial": 5, "time_elapsed": 991984, "type": "DISTRACTOR", "trial_index": 185, "num1": [8, 8, 2, 4, 4, 7, 3, 2, 2, 7, 7]}, "uniqueid": "MTK2616:3PEIJLRY6U05LKS85HHWC4GKJUWXWE", "dateTime": 1519156708015}, {"current_trial": 186, "trialdata": {"rt": -1, "trial_type": "single-stim", "stimulus": "<p id=\"stim\">10</p>", "internal_node_id": "0.0-141.0-0.0", "time_elapsed": 994999, "key_press": -1, "trial_index": 186}, "uniqueid": "MTK2616:3PEIJLRY6U05LKS85HHWC4GKJUWXWE", "dateTime": 1519156711030}, {"current_trial": 187, "trialdata": {"rt": -1, "trial_type": "single-stim", "stimulus": "<p id=\"stim\">9</p>", "internal_node_id": "0.0-141.0-1.0", "time_elapsed": 996009, "key_press": -1, "trial_index": 187}, "uniqueid": "MTK2616:3PEIJLRY6U05LKS85HHWC4GKJUWXWE", "dateTime": 1519156712040}, {"current_trial": 188, "trialdata": {"rt": -1, "trial_type": "single-stim", "stimulus": "<p id=\"stim\">8</p>", "internal_node_id": "0.0-141.0-2.0", "time_elapsed": 997019, "key_press": -1, "trial_index": 188}, "uniqueid": "MTK2616:3PEIJLRY6U05LKS85HHWC4GKJUWXWE", "dateTime": 1519156713050}, {"current_trial": 189, "trialdata": {"rt": -1, "trial_type": "single-stim", "stimulus": "<p id=\"stim\">7</p>", "internal_node_id": "0.0-141.0-3.0", "time_elapsed": 998021, "key_press": -1, "trial_index": 189}, "uniqueid": "MTK2616:3PEIJLRY6U05LKS85HHWC4GKJUWXWE", "dateTime": 1519156714052}, {"current_trial": 190, "trialdata": {"rt": -1, "trial_type": "single-stim", "stimulus": "<p id=\"stim\">6</p>", "internal_node_id": "0.0-141.0-4.0", "time_elapsed": 999023, "key_press": -1, "trial_index": 190}, "uniqueid": "MTK2616:3PEIJLRY6U05LKS85HHWC4GKJUWXWE", "dateTime": 1519156715054}, {"current_trial": 191, "trialdata": {"rt": -1, "trial_type": "single-stim", "stimulus": "<p id=\"stim\">5</p>", "internal_node_id": "0.0-141.0-5.0", "time_elapsed": 1000033, "key_press": -1, "trial_index": 191}, "uniqueid": "MTK2616:3PEIJLRY6U05LKS85HHWC4GKJUWXWE", "dateTime": 1519156716064}, {"current_trial": 192, "trialdata": {"rt": -1, "trial_type": "single-stim", "stimulus": "<p id=\"stim\">4</p>", "internal_node_id": "0.0-141.0-6.0", "time_elapsed": 1001043, "key_press": -1, "trial_index": 192}, "uniqueid": "MTK2616:3PEIJLRY6U05LKS85HHWC4GKJUWXWE", "dateTime": 1519156717074}, {"current_trial": 193, "trialdata": {"rt": -1, "trial_type": "single-stim", "stimulus": "<p id=\"stim\">3</p>", "internal_node_id": "0.0-141.0-7.0", "time_elapsed": 1002045, "key_press": -1, "trial_index": 193}, "uniqueid": "MTK2616:3PEIJLRY6U05LKS85HHWC4GKJUWXWE", "dateTime": 1519156718076}, {"current_trial": 194, "trialdata": {"rt": -1, "trial_type": "single-stim", "stimulus": "<p id=\"stim\">2</p>", "internal_node_id": "0.0-141.0-8.0", "time_elapsed": 1003047, "key_press": -1, "trial_index": 194}, "uniqueid": "MTK2616:3PEIJLRY6U05LKS85HHWC4GKJUWXWE", "dateTime": 1519156719078}, {"current_trial": 195, "trialdata": {"rt": -1, "trial_type": "single-stim", "stimulus": "<p id=\"stim\">1</p>", "internal_node_id": "0.0-141.0-9.0", "time_elapsed": 1004057, "key_press": -1, "trial_index": 195}, "uniqueid": "MTK2616:3PEIJLRY6U05LKS85HHWC4GKJUWXWE", "dateTime": 1519156720088}, {"current_trial": 196, "trialdata": {"rt": -1, "trial_type": "single-stim", "stimulus": "<p id=\"stim\">+</p>", "internal_node_id": "0.0-142.0-0.0", "time_elapsed": 1005559, "key_press": -1, "type": "FIXATION", "trial_index": 196}, "uniqueid": "MTK2616:3PEIJLRY6U05LKS85HHWC4GKJUWXWE", "dateTime": 1519156721590}, {"current_trial": 197, "trialdata": {"rt": -1000, "trial_type": "single-audio", "word": "diner", "stimulus": "/static/audio/wordpool/DINER.wav", "conditions": [12, 800, "a", 24000], "internal_node_id": "0.0-143.0", "trial": 5, "time_elapsed": 1007250, "serialpos": 0, "key_press": -1, "wordID": 466, "type": "PRES_AUD", "trial_index": 197}, "uniqueid": "MTK2616:3PEIJLRY6U05LKS85HHWC4GKJUWXWE", "dateTime": 1519156723282}, {"current_trial": 198, "trialdata": {"rt": -1000, "trial_type": "single-audio", "word": "drill", "stimulus": "/static/audio/wordpool/DRILL.wav", "conditions": [12, 800, "a", 24000], "internal_node_id": "0.0-144.0", "trial": 5, "time_elapsed": 1009166, "serialpos": 1, "key_press": -1, "wordID": 496, "type": "PRES_AUD", "trial_index": 198}, "uniqueid": "MTK2616:3PEIJLRY6U05LKS85HHWC4GKJUWXWE", "dateTime": 1519156725197}, {"current_trial": 199, "trialdata": {"rt": -1000, "trial_type": "single-audio", "word": "playground", "stimulus": "/static/audio/wordpool/PLAYGROUND.wav", "conditions": [12, 800, "a", 24000], "internal_node_id": "0.0-145.0", "trial": 5, "time_elapsed": 1010985, "serialpos": 2, "key_press": -1, "wordID": 1086, "type": "PRES_AUD", "trial_index": 199}, "uniqueid": "MTK2616:3PEIJLRY6U05LKS85HHWC4GKJUWXWE", "dateTime": 1519156727016}, {"current_trial": 200, "trialdata": {"rt": -1000, "trial_type": "single-audio", "word": "cafe", "stimulus": "/static/audio/wordpool/CAFE.wav", "conditions": [12, 800, "a", 24000], "internal_node_id": "0.0-146.0", "trial": 5, "time_elapsed": 1012787, "serialpos": 3, "key_press": -1, "wordID": 215, "type": "PRES_AUD", "trial_index": 200}, "uniqueid": "MTK2616:3PEIJLRY6U05LKS85HHWC4GKJUWXWE", "dateTime": 1519156728818}, {"current_trial": 201, "trialdata": {"rt": -1000, "trial_type": "single-audio", "word": "poet", "stimulus": "/static/audio/wordpool/POET.wav", "conditions": [12, 800, "a", 24000], "internal_node_id": "0.0-147.0", "trial": 5, "time_elapsed": 1014543, "serialpos": 4, "key_press": -1, "wordID": 1094, "type": "PRES_AUD", "trial_index": 201}, "uniqueid": "MTK2616:3PEIJLRY6U05LKS85HHWC4GKJUWXWE", "dateTime": 1519156730574}, {"current_trial": 202, "trialdata": {"rt": -1000, "trial_type": "single-audio", "word": "leader", "stimulus": "/static/audio/wordpool/LEADER.wav", "conditions": [12, 800, "a", 24000], "internal_node_id": "0.0-148.0", "trial": 5, "time_elapsed": 1016309, "serialpos": 5, "key_press": -1, "wordID": 806, "type": "PRES_AUD", "trial_index": 202}, "uniqueid": "MTK2616:3PEIJLRY6U05LKS85HHWC4GKJUWXWE", "dateTime": 1519156732340}, {"current_trial": 203, "trialdata": {"rt": -1000, "trial_type": "single-audio", "word": "flag", "stimulus": "/static/audio/wordpool/FLAG.wav", "conditions": [12, 800, "a", 24000], "internal_node_id": "0.0-149.0", "trial": 5, "time_elapsed": 1018211, "serialpos": 6, "key_press": -1, "wordID": 572, "type": "PRES_AUD", "trial_index": 203}, "uniqueid": "MTK2616:3PEIJLRY6U05LKS85HHWC4GKJUWXWE", "dateTime": 1519156734242}, {"current_trial": 204, "trialdata": {"rt": -1000, "trial_type": "single-audio", "word": "quail", "stimulus": "/static/audio/wordpool/QUAIL.wav", "conditions": [12, 800, "a", 24000], "internal_node_id": "0.0-150.0", "trial": 5, "time_elapsed": 1020145, "serialpos": 7, "key_press": -1, "wordID": 1146, "type": "PRES_AUD", "trial_index": 204}, "uniqueid": "MTK2616:3PEIJLRY6U05LKS85HHWC4GKJUWXWE", "dateTime": 1519156736176}, {"current_trial": 205, "trialdata": {"rt": -1000, "trial_type": "single-audio", "word": "turkey", "stimulus": "/static/audio/wordpool/TURKEY.wav", "conditions": [12, 800, "a", 24000], "internal_node_id": "0.0-151.0", "trial": 5, "time_elapsed": 1021969, "serialpos": 8, "key_press": -1, "wordID": 1519, "type": "PRES_AUD", "trial_index": 205}, "uniqueid": "MTK2616:3PEIJLRY6U05LKS85HHWC4GKJUWXWE", "dateTime": 1519156738000}, {"current_trial": 206, "trialdata": {"rt": -1000, "trial_type": "single-audio", "word": "parent", "stimulus": "/static/audio/wordpool/PARENT.wav", "conditions": [12, 800, "a", 24000], "internal_node_id": "0.0-152.0", "trial": 5, "time_elapsed": 1023975, "serialpos": 9, "key_press": -1, "wordID": 1012, "type": "PRES_AUD", "trial_index": 206}, "uniqueid": "MTK2616:3PEIJLRY6U05LKS85HHWC4GKJUWXWE", "dateTime": 1519156740006}, {"current_trial": 207, "trialdata": {"rt": -1000, "trial_type": "single-audio", "word": "daughter", "stimulus": "/static/audio/wordpool/DAUGHTER.wav", "conditions": [12, 800, "a", 24000], "internal_node_id": "0.0-153.0", "trial": 5, "time_elapsed": 1025857, "serialpos": 10, "key_press": -1, "wordID": 441, "type": "PRES_AUD", "trial_index": 207}, "uniqueid": "MTK2616:3PEIJLRY6U05LKS85HHWC4GKJUWXWE", "dateTime": 1519156741888}, {"current_trial": 208, "trialdata": {"rt": -1000, "trial_type": "single-audio", "word": "staple", "stimulus": "/static/audio/wordpool/STAPLE.wav", "conditions": [12, 800, "a", 24000], "internal_node_id": "0.0-154.0", "trial": 5, "time_elapsed": 1027723, "serialpos": 11, "key_press": -1, "wordID": 1370, "type": "PRES_AUD", "trial_index": 208}, "uniqueid": "MTK2616:3PEIJLRY6U05LKS85HHWC4GKJUWXWE", "dateTime": 1519156743754}, {"current_trial": 209, "trialdata": {"rt": -1, "trial_type": "single-stim", "stimulus": "", "internal_node_id": "0.0-155.0-0.0", "time_elapsed": 1029027, "key_press": -1, "type": "PRE_RECALL_DELAY", "trial_index": 209}, "uniqueid": "MTK2616:3PEIJLRY6U05LKS85HHWC4GKJUWXWE", "dateTime": 1519156745058}, {"current_trial": 210, "trialdata": {"rt": -1000, "trial_type": "single-audio", "stimulus": "/static/audio/400Hz.wav", "internal_node_id": "0.0-156.0", "time_elapsed": 1029537, "key_press": -1, "type": "PRE_RECALL_ALERT", "trial_index": 210}, "uniqueid": "MTK2616:3PEIJLRY6U05LKS85HHWC4GKJUWXWE", "dateTime": 1519156745568}, {"current_trial": 211, "trialdata": {"rt": [5024, 8710, 13065, 24025, 27282, 31120], "recwords": ["diner", "drill", "cafe", "flag", "church", "sister"], "key_times": [3035, 3192, 3400, 3857, 4080, 5024, 7152, 7360, 7528, 7889, 8045, 8710, 11912, 12040, 12424, 12601, 13065, 21153, 21280, 22032, 23728, 24025, 25665, 25801, 25880, 26130, 26352, 26536, 27282, 29776, 29896, 30016, 30280, 30592, 30787, 31120], "trial_type": "free-recall", "conditions": [12, 800, "a", 24000], "internal_node_id": "0.0-157.0-0.0", "key_presses": [68, 73, 78, 69, 82, 32, 68, 82, 73, 76, 76, 32, 67, 65, 70, 69, 32, 70, 76, 65, 71, 32, 67, 72, 85, 82, 67, 72, 32, 83, 73, 83, 84, 69, 82, 32], "trial": 5, "time_elapsed": 1089546, "type": "FREE_RECALL", "trial_index": 211}, "uniqueid": "MTK2616:3PEIJLRY6U05LKS85HHWC4GKJUWXWE", "dateTime": 1519156805582}, {"current_trial": 212, "trialdata": {"rt": 1678, "trial_type": "text", "internal_node_id": "0.0-158.0", "time_elapsed": 1093237, "key_press": 32, "type": "INSTRUCTIONS", "trial_index": 212}, "uniqueid": "MTK2616:3PEIJLRY6U05LKS85HHWC4GKJUWXWE", "dateTime": 1519156809269}, {"current_trial": 213, "trialdata": {"rt": [2181, 3823, 6141, 8094, 10429, 13349, 15405, 17485, 20101, 22261], "trial_type": "math-distractor", "key_times": [1773, 1957, 2181, 3429, 3613, 3823, 5709, 5924, 6141, 7621, 7837, 8094, 10013, 10213, 10429, 13005, 13149, 13349, 14885, 15157, 15405, 16822, 17181, 17485, 19750, 19901, 20101, 21886, 22086, 22261], "responses": ["15", "15", "14", "14", "14", "13", "17", "19", "13", "10"], "num2": [8, 1, 4, 7, 3, 2, 7, 7, 2, 4, 9], "num3": [4, 5, 7, 4, 5, 3, 7, 8, 9, 1, 8], "conditions": [12, 1600, "a", 24000], "internal_node_id": "0.0-159.0", "key_presses": [97, 101, 13, 97, 101, 13, 97, 100, 13, 97, 100, 13, 97, 100, 13, 97, 99, 13, 97, 103, 13, 97, 105, 13, 97, 99, 13, 97, 96, 13], "trial": 6, "time_elapsed": 1119249, "type": "DISTRACTOR", "trial_index": 213, "num1": [3, 9, 3, 3, 6, 8, 4, 4, 2, 5, 5]}, "uniqueid": "MTK2616:3PEIJLRY6U05LKS85HHWC4GKJUWXWE", "dateTime": 1519156835280}, {"current_trial": 214, "trialdata": {"rt": -1, "trial_type": "single-stim", "stimulus": "<p id=\"stim\">10</p>", "internal_node_id": "0.0-160.0-0.0", "time_elapsed": 1122271, "key_press": -1, "trial_index": 214}, "uniqueid": "MTK2616:3PEIJLRY6U05LKS85HHWC4GKJUWXWE", "dateTime": 1519156838302}, {"current_trial": 215, "trialdata": {"rt": -1, "trial_type": "single-stim", "stimulus": "<p id=\"stim\">9</p>", "internal_node_id": "0.0-160.0-1.0", "time_elapsed": 1123281, "key_press": -1, "trial_index": 215}, "uniqueid": "MTK2616:3PEIJLRY6U05LKS85HHWC4GKJUWXWE", "dateTime": 1519156839312}, {"current_trial": 216, "trialdata": {"rt": -1, "trial_type": "single-stim", "stimulus": "<p id=\"stim\">8</p>", "internal_node_id": "0.0-160.0-2.0", "time_elapsed": 1124294, "key_press": -1, "trial_index": 216}, "uniqueid": "MTK2616:3PEIJLRY6U05LKS85HHWC4GKJUWXWE", "dateTime": 1519156840325}, {"current_trial": 217, "trialdata": {"rt": -1, "trial_type": "single-stim", "stimulus": "<p id=\"stim\">7</p>", "internal_node_id": "0.0-160.0-3.0", "time_elapsed": 1125301, "key_press": -1, "trial_index": 217}, "uniqueid": "MTK2616:3PEIJLRY6U05LKS85HHWC4GKJUWXWE", "dateTime": 1519156841332}, {"current_trial": 218, "trialdata": {"rt": -1, "trial_type": "single-stim", "stimulus": "<p id=\"stim\">6</p>", "internal_node_id": "0.0-160.0-4.0", "time_elapsed": 1126303, "key_press": -1, "trial_index": 218}, "uniqueid": "MTK2616:3PEIJLRY6U05LKS85HHWC4GKJUWXWE", "dateTime": 1519156842334}, {"current_trial": 219, "trialdata": {"rt": -1, "trial_type": "single-stim", "stimulus": "<p id=\"stim\">5</p>", "internal_node_id": "0.0-160.0-5.0", "time_elapsed": 1127315, "key_press": -1, "trial_index": 219}, "uniqueid": "MTK2616:3PEIJLRY6U05LKS85HHWC4GKJUWXWE", "dateTime": 1519156843346}, {"current_trial": 220, "trialdata": {"rt": -1, "trial_type": "single-stim", "stimulus": "<p id=\"stim\">4</p>", "internal_node_id": "0.0-160.0-6.0", "time_elapsed": 1128337, "key_press": -1, "trial_index": 220}, "uniqueid": "MTK2616:3PEIJLRY6U05LKS85HHWC4GKJUWXWE", "dateTime": 1519156844369}, {"current_trial": 221, "trialdata": {"rt": -1, "trial_type": "single-stim", "stimulus": "<p id=\"stim\">3</p>", "internal_node_id": "0.0-160.0-7.0", "time_elapsed": 1129345, "key_press": -1, "trial_index": 221}, "uniqueid": "MTK2616:3PEIJLRY6U05LKS85HHWC4GKJUWXWE", "dateTime": 1519156845377}, {"current_trial": 222, "trialdata": {"rt": -1, "trial_type": "single-stim", "stimulus": "<p id=\"stim\">2</p>", "internal_node_id": "0.0-160.0-8.0", "time_elapsed": 1130355, "key_press": -1, "trial_index": 222}, "uniqueid": "MTK2616:3PEIJLRY6U05LKS85HHWC4GKJUWXWE", "dateTime": 1519156846387}, {"current_trial": 223, "trialdata": {"rt": -1, "trial_type": "single-stim", "stimulus": "<p id=\"stim\">1</p>", "internal_node_id": "0.0-160.0-9.0", "time_elapsed": 1131357, "key_press": -1, "trial_index": 223}, "uniqueid": "MTK2616:3PEIJLRY6U05LKS85HHWC4GKJUWXWE", "dateTime": 1519156847388}, {"current_trial": 224, "trialdata": {"rt": -1, "trial_type": "single-stim", "stimulus": "<p id=\"stim\">+</p>", "internal_node_id": "0.0-161.0-0.0", "time_elapsed": 1132863, "key_press": -1, "type": "FIXATION", "trial_index": 224}, "uniqueid": "MTK2616:3PEIJLRY6U05LKS85HHWC4GKJUWXWE", "dateTime": 1519156848894}, {"current_trial": 225, "trialdata": {"rt": -1000, "trial_type": "single-audio", "word": "sunrise", "stimulus": "/static/audio/wordpool/SUNRISE.wav", "conditions": [12, 1600, "a", 24000], "internal_node_id": "0.0-162.0", "trial": 6, "time_elapsed": 1135582, "serialpos": 0, "key_press": -1, "wordID": 1406, "type": "PRES_AUD", "trial_index": 225}, "uniqueid": "MTK2616:3PEIJLRY6U05LKS85HHWC4GKJUWXWE", "dateTime": 1519156851614}, {"current_trial": 226, "trialdata": {"rt": -1000, "trial_type": "single-audio", "word": "wife", "stimulus": "/static/audio/wordpool/WIFE.wav", "conditions": [12, 1600, "a", 24000], "internal_node_id": "0.0-163.0", "trial": 6, "time_elapsed": 1138025, "serialpos": 1, "key_press": -1, "wordID": 1608, "type": "PRES_AUD", "trial_index": 226}, "uniqueid": "MTK2616:3PEIJLRY6U05LKS85HHWC4GKJUWXWE", "dateTime": 1519156854056}, {"current_trial": 227, "trialdata": {"rt": -1000, "trial_type": "single-audio", "word": "cattle", "stimulus": "/static/audio/wordpool/CATTLE.wav", "conditions": [12, 1600, "a", 24000], "internal_node_id": "0.0-164.0", "trial": 6, "time_elapsed": 1140464, "serialpos": 2, "key_press": -1, "wordID": 260, "type": "PRES_AUD", "trial_index": 227}, "uniqueid": "MTK2616:3PEIJLRY6U05LKS85HHWC4GKJUWXWE", "dateTime": 1519156856495}, {"current_trial": 228, "trialdata": {"rt": -1000, "trial_type": "single-audio", "word": "beef", "stimulus": "/static/audio/wordpool/BEEF.wav", "conditions": [12, 1600, "a", 24000], "internal_node_id": "0.0-165.0", "trial": 6, "time_elapsed": 1143167, "serialpos": 3, "key_press": -1, "wordID": 112, "type": "PRES_AUD", "trial_index": 228}, "uniqueid": "MTK2616:3PEIJLRY6U05LKS85HHWC4GKJUWXWE", "dateTime": 1519156859198}, {"current_trial": 229, "trialdata": {"rt": -1000, "trial_type": "single-audio", "word": "stamp", "stimulus": "/static/audio/wordpool/STAMP.wav", "conditions": [12, 1600, "a", 24000], "internal_node_id": "0.0-166.0", "trial": 6, "time_elapsed": 1145779, "serialpos": 4, "key_press": -1, "wordID": 1369, "type": "PRES_AUD", "trial_index": 229}, "uniqueid": "MTK2616:3PEIJLRY6U05LKS85HHWC4GKJUWXWE", "dateTime": 1519156861810}, {"current_trial": 230, "trialdata": {"rt": -1000, "trial_type": "single-audio", "word": "transplant", "stimulus": "/static/audio/wordpool/TRANSPLANT.wav", "conditions": [12, 1600, "a", 24000], "internal_node_id": "0.0-167.0", "trial": 6, "time_elapsed": 1148551, "serialpos": 5, "key_press": -1, "wordID": 1495, "type": "PRES_AUD", "trial_index": 230}, "uniqueid": "MTK2616:3PEIJLRY6U05LKS85HHWC4GKJUWXWE", "dateTime": 1519156864582}, {"current_trial": 231, "trialdata": {"rt": -1000, "trial_type": "single-audio", "word": "pistol", "stimulus": "/static/audio/wordpool/PISTOL.wav", "conditions": [12, 1600, "a", 24000], "internal_node_id": "0.0-168.0", "trial": 6, "time_elapsed": 1151339, "serialpos": 6, "key_press": -1, "wordID": 1074, "type": "PRES_AUD", "trial_index": 231}, "uniqueid": "MTK2616:3PEIJLRY6U05LKS85HHWC4GKJUWXWE", "dateTime": 1519156867370}, {"current_trial": 232, "trialdata": {"rt": -1000, "trial_type": "single-audio", "word": "braces", "stimulus": "/static/audio/wordpool/BRACES.wav", "conditions": [12, 1600, "a", 24000], "internal_node_id": "0.0-169.0", "trial": 6, "time_elapsed": 1154005, "serialpos": 7, "key_press": -1, "wordID": 163, "type": "PRES_AUD", "trial_index": 232}, "uniqueid": "MTK2616:3PEIJLRY6U05LKS85HHWC4GKJUWXWE", "dateTime": 1519156870036}, {"current_trial": 233, "trialdata": {"rt": -1000, "trial_type": "single-audio", "word": "sunset", "stimulus": "/static/audio/wordpool/SUNSET.wav", "conditions": [12, 1600, "a", 24000], "internal_node_id": "0.0-170.0", "trial": 6, "time_elapsed": 1156653, "serialpos": 8, "key_press": -1, "wordID": 1407, "type": "PRES_AUD", "trial_index": 233}, "uniqueid": "MTK2616:3PEIJLRY6U05LKS85HHWC4GKJUWXWE", "dateTime": 1519156872684}, {"current_trial": 234, "trialdata": {"rt": -1000, "trial_type": "single-audio", "word": "piano", "stimulus": "/static/audio/wordpool/PIANO.wav", "conditions": [12, 1600, "a", 24000], "internal_node_id": "0.0-171.0", "trial": 6, "time_elapsed": 1159202, "serialpos": 9, "key_press": -1, "wordID": 1056, "type": "PRES_AUD", "trial_index": 234}, "uniqueid": "MTK2616:3PEIJLRY6U05LKS85HHWC4GKJUWXWE", "dateTime": 1519156875233}, {"current_trial": 235, "trialdata": {"rt": -1000, "trial_type": "single-audio", "word": "orchid", "stimulus": "/static/audio/wordpool/ORCHID.wav", "conditions": [12, 1600, "a", 24000], "internal_node_id": "0.0-172.0", "trial": 6, "time_elapsed": 1161631, "serialpos": 10, "key_press": -1, "wordID": 981, "type": "PRES_AUD", "trial_index": 235}, "uniqueid": "MTK2616:3PEIJLRY6U05LKS85HHWC4GKJUWXWE", "dateTime": 1519156877662}, {"current_trial": 236, "trialdata": {"rt": -1000, "trial_type": "single-audio", "word": "fungus", "stimulus": "/static/audio/wordpool/FUNGUS.wav", "conditions": [12, 1600, "a", 24000], "internal_node_id": "0.0-173.0", "trial": 6, "time_elapsed": 1164243, "serialpos": 11, "key_press": -1, "wordID": 613, "type": "PRES_AUD", "trial_index": 236}, "uniqueid": "MTK2616:3PEIJLRY6U05LKS85HHWC4GKJUWXWE", "dateTime": 1519156880274}, {"current_trial": 237, "trialdata": {"rt": -1, "trial_type": "single-stim", "stimulus": "", "internal_node_id": "0.0-174.0-0.0", "time_elapsed": 1165597, "key_press": -1, "type": "PRE_RECALL_DELAY", "trial_index": 237}, "uniqueid": "MTK2616:3PEIJLRY6U05LKS85HHWC4GKJUWXWE", "dateTime": 1519156881628}, {"current_trial": 238, "trialdata": {"rt": -1000, "trial_type": "single-audio", "stimulus": "/static/audio/400Hz.wav", "internal_node_id": "0.0-175.0", "time_elapsed": 1166107, "key_press": -1, "type": "PRE_RECALL_ALERT", "trial_index": 238}, "uniqueid": "MTK2616:3PEIJLRY6U05LKS85HHWC4GKJUWXWE", "dateTime": 1519156882138}, {"current_trial": 239, "trialdata": {"rt": [5238, 10854, 15926, 47527, 52670], "recwords": ["wife", "beef", "pistol", "braclet", "fungus"], "key_times": [3823, 4134, 4551, 4670, 5238, 8543, 8758, 8908, 9102, 10854, 12702, 12910, 13134, 13470, 13814, 14222, 15926, 21183, 21383, 21582, 22318, 22480, 22670, 38111, 38231, 38399, 38950, 39367, 39543, 39790, 41750, 41920, 42071, 42214, 42473, 43398, 43832, 44070, 46166, 46414, 47527, 50663, 50823, 50970, 51398, 51734, 51926, 52670], "trial_type": "free-recall", "conditions": [12, 1600, "a", 24000], "internal_node_id": "0.0-176.0-0.0", "key_presses": [87, 73, 70, 69, 32, 66, 69, 69, 70, 32, 80, 73, 83, 84, 79, 76, 32, 83, 85, 78, 8, 8, 8, 66, 82, 69, 67, 76, 69, 84, 37, 37, 37, 37, 37, 39, 8, 83, 8, 65, 32, 70, 85, 78, 71, 85, 83, 32], "trial": 6, "time_elapsed": 1226112, "type": "FREE_RECALL", "trial_index": 239}, "uniqueid": "MTK2616:3PEIJLRY6U05LKS85HHWC4GKJUWXWE", "dateTime": 1519156942148}, {"current_trial": 240, "trialdata": {"rt": 4082, "trial_type": "text", "internal_node_id": "0.0-177.0", "time_elapsed": 1232205, "key_press": 32, "type": "INSTRUCTIONS", "trial_index": 240}, "uniqueid": "MTK2616:3PEIJLRY6U05LKS85HHWC4GKJUWXWE", "dateTime": 1519156948236}, {"current_trial": 241, "trialdata": {"rt": [2625, 4709, 7513, 9688, 11841], "trial_type": "math-distractor", "key_times": [2232, 2401, 2625, 4296, 4464, 4709, 7032, 7264, 7513, 9320, 9490, 9688, 11408, 11600, 11841], "responses": ["12", "13", "18", "12", "15"], "num2": [2, 4, 4, 3, 2, 7], "num3": [1, 6, 5, 4, 4, 7], "conditions": [12, 1600, "a", 12000], "internal_node_id": "0.0-178.0", "key_presses": [97, 98, 13, 97, 99, 13, 97, 104, 13, 97, 98, 13, 97, 101, 13], "trial": 7, "time_elapsed": 1246222, "type": "DISTRACTOR", "trial_index": 241, "num1": [9, 3, 9, 5, 9, 4]}, "uniqueid": "MTK2616:3PEIJLRY6U05LKS85HHWC4GKJUWXWE", "dateTime": 1519156962253}, {"current_trial": 242, "trialdata": {"rt": -1, "trial_type": "single-stim", "stimulus": "<p id=\"stim\">10</p>", "internal_node_id": "0.0-179.0-0.0", "time_elapsed": 1249238, "key_press": -1, "trial_index": 242}, "uniqueid": "MTK2616:3PEIJLRY6U05LKS85HHWC4GKJUWXWE", "dateTime": 1519156965269}, {"current_trial": 243, "trialdata": {"rt": -1, "trial_type": "single-stim", "stimulus": "<p id=\"stim\">9</p>", "internal_node_id": "0.0-179.0-1.0", "time_elapsed": 1250241, "key_press": -1, "trial_index": 243}, "uniqueid": "MTK2616:3PEIJLRY6U05LKS85HHWC4GKJUWXWE", "dateTime": 1519156966272}, {"current_trial": 244, "trialdata": {"rt": -1, "trial_type": "single-stim", "stimulus": "<p id=\"stim\">8</p>", "internal_node_id": "0.0-179.0-2.0", "time_elapsed": 1251244, "key_press": -1, "trial_index": 244}, "uniqueid": "MTK2616:3PEIJLRY6U05LKS85HHWC4GKJUWXWE", "dateTime": 1519156967275}, {"current_trial": 245, "trialdata": {"rt": -1, "trial_type": "single-stim", "stimulus": "<p id=\"stim\">7</p>", "internal_node_id": "0.0-179.0-3.0", "time_elapsed": 1252245, "key_press": -1, "trial_index": 245}, "uniqueid": "MTK2616:3PEIJLRY6U05LKS85HHWC4GKJUWXWE", "dateTime": 1519156968277}, {"current_trial": 246, "trialdata": {"rt": -1, "trial_type": "single-stim", "stimulus": "<p id=\"stim\">6</p>", "internal_node_id": "0.0-179.0-4.0", "time_elapsed": 1253247, "key_press": -1, "trial_index": 246}, "uniqueid": "MTK2616:3PEIJLRY6U05LKS85HHWC4GKJUWXWE", "dateTime": 1519156969279}, {"current_trial": 247, "trialdata": {"rt": -1, "trial_type": "single-stim", "stimulus": "<p id=\"stim\">5</p>", "internal_node_id": "0.0-179.0-5.0", "time_elapsed": 1254249, "key_press": -1, "trial_index": 247}, "uniqueid": "MTK2616:3PEIJLRY6U05LKS85HHWC4GKJUWXWE", "dateTime": 1519156970281}, {"current_trial": 248, "trialdata": {"rt": -1, "trial_type": "single-stim", "stimulus": "<p id=\"stim\">4</p>", "internal_node_id": "0.0-179.0-6.0", "time_elapsed": 1255251, "key_press": -1, "trial_index": 248}, "uniqueid": "MTK2616:3PEIJLRY6U05LKS85HHWC4GKJUWXWE", "dateTime": 1519156971283}, {"current_trial": 249, "trialdata": {"rt": -1, "trial_type": "single-stim", "stimulus": "<p id=\"stim\">3</p>", "internal_node_id": "0.0-179.0-7.0", "time_elapsed": 1256262, "key_press": -1, "trial_index": 249}, "uniqueid": "MTK2616:3PEIJLRY6U05LKS85HHWC4GKJUWXWE", "dateTime": 1519156972293}, {"current_trial": 250, "trialdata": {"rt": -1, "trial_type": "single-stim", "stimulus": "<p id=\"stim\">2</p>", "internal_node_id": "0.0-179.0-8.0", "time_elapsed": 1257271, "key_press": -1, "trial_index": 250}, "uniqueid": "MTK2616:3PEIJLRY6U05LKS85HHWC4GKJUWXWE", "dateTime": 1519156973303}, {"current_trial": 251, "trialdata": {"rt": -1, "trial_type": "single-stim", "stimulus": "<p id=\"stim\">1</p>", "internal_node_id": "0.0-179.0-9.0", "time_elapsed": 1258282, "key_press": -1, "trial_index": 251}, "uniqueid": "MTK2616:3PEIJLRY6U05LKS85HHWC4GKJUWXWE", "dateTime": 1519156974313}, {"current_trial": 252, "trialdata": {"rt": -1, "trial_type": "single-stim", "stimulus": "<p id=\"stim\">+</p>", "internal_node_id": "0.0-180.0-0.0", "time_elapsed": 1259785, "key_press": -1, "type": "FIXATION", "trial_index": 252}, "uniqueid": "MTK2616:3PEIJLRY6U05LKS85HHWC4GKJUWXWE", "dateTime": 1519156975817}, {"current_trial": 253, "trialdata": {"rt": -1000, "trial_type": "single-audio", "word": "xerox", "stimulus": "/static/audio/wordpool/XEROX.wav", "conditions": [12, 1600, "a", 12000], "internal_node_id": "0.0-181.0", "trial": 7, "time_elapsed": 1262544, "serialpos": 0, "key_press": -1, "wordID": 1627, "type": "PRES_AUD", "trial_index": 253}, "uniqueid": "MTK2616:3PEIJLRY6U05LKS85HHWC4GKJUWXWE", "dateTime": 1519156978575}, {"current_trial": 254, "trialdata": {"rt": -1000, "trial_type": "single-audio", "word": "girl", "stimulus": "/static/audio/wordpool/GIRL.wav", "conditions": [12, 1600, "a", 12000], "internal_node_id": "0.0-182.0", "trial": 7, "time_elapsed": 1265289, "serialpos": 1, "key_press": -1, "wordID": 636, "type": "PRES_AUD", "trial_index": 254}, "uniqueid": "MTK2616:3PEIJLRY6U05LKS85HHWC4GKJUWXWE"