{"assignmentId": "3DQQ64TANHS0CBQHJQ7FIRUHHW6WPA", "workerId": "MTK2639", "questiondata": {"avail_screen_height": 738, "color_depth": 16, "screen_width": 1366, "pixel_depth": 16, "avail_screen_width": 1366, "screen_height": 768}, "bonus": 0, "hitId": "3W9XHF7WGK25MJRDLRSUA65ZZMOTKF", "counterbalance": 2491, "useragent": "Mozilla/5.0 (Windows NT 6.0; rv:52.0) Gecko/20100101 Firefox/52.0", "eventdata": [{"eventtype": "initialized", "interval": 0, "value": null, "timestamp": 1519165720421}, {"eventtype": "window_resize", "interval": 1, "value": [1350, 677], "timestamp": 1519165720422}, {"eventtype": "window_resize", "interval": 68189, "value": [1366, 693], "timestamp": 1519165788611}], "data": [{"current_trial": 0, "trialdata": {"rt": 2900, "trial_type": "text", "internal_node_id": "0.0-0.0", "time_elapsed": 2904, "key_press": 32, "type": "INSTRUCTIONS", "trial_index": 0}, "uniqueid": "MTK2639:3DQQ64TANHS0CBQHJQ7FIRUHHW6WPA", "dateTime": 1519165773527}, {"current_trial": 1, "trialdata": {"rt": 9179, "trial_type": "text", "internal_node_id": "0.0-1.0", "time_elapsed": 12087, "key_press": 0, "type": "INSTRUCTIONS", "trial_index": 1}, "uniqueid": "MTK2639:3DQQ64TANHS0CBQHJQ7FIRUHHW6WPA", "dateTime": 1519165782709}, {"current_trial": 2, "trialdata": {"rt": [19336], "trial_type": "audio-test", "responses": ["ocean"], "internal_node_id": "0.0-2.0", "time_elapsed": 31576, "type": "AUDIO_TEST", "trial_index": 2}, "uniqueid": "MTK2639:3DQQ64TANHS0CBQHJQ7FIRUHHW6WPA", "dateTime": 1519165802197}, {"current_trial": 3, "trialdata": {"rt": [7401], "trial_type": "audio-test", "responses": ["crystal"], "internal_node_id": "0.0-3.0", "time_elapsed": 39007, "type": "AUDIO_TEST", "trial_index": 3}, "uniqueid": "MTK2639:3DQQ64TANHS0CBQHJQ7FIRUHHW6WPA", "dateTime": 1519165809629}, {"current_trial": 4, "trialdata": {"rt": [4983], "trial_type": "audio-test", "responses": ["spice"], "internal_node_id": "0.0-4.0", "time_elapsed": 44020, "type": "AUDIO_TEST", "trial_index": 4}, "uniqueid": "MTK2639:3DQQ64TANHS0CBQHJQ7FIRUHHW6WPA", "dateTime": 1519165814642}, {"current_trial": 5, "trialdata": {"rt": 19824, "trial_type": "survey-text", "responses": "{\"Q0\":\"11:30 pm\",\"Q1\":\"9 am\",\"Q2\":\"5\"}", "internal_node_id": "0.0-5.0", "time_elapsed": 64601, "type": "SLEEP_SURVEY", "trial_index": 5}, "uniqueid": "MTK2639:3DQQ64TANHS0CBQHJQ7FIRUHHW6WPA", "dateTime": 1519165835223}, {"current_trial": 6, "trialdata": {"rt": 34932, "trial_type": "text", "internal_node_id": "0.0-6.0", "time_elapsed": 100537, "key_press": 40, "type": "INSTRUCTIONS", "trial_index": 6}, "uniqueid": "MTK2639:3DQQ64TANHS0CBQHJQ7FIRUHHW6WPA", "dateTime": 1519165871158}, {"current_trial": 7, "trialdata": {"rt": 11184, "trial_type": "text", "internal_node_id": "0.0-7.0", "time_elapsed": 112224, "key_press": 40, "type": "INSTRUCTIONS", "trial_index": 7}, "uniqueid": "MTK2639:3DQQ64TANHS0CBQHJQ7FIRUHHW6WPA", "dateTime": 1519165882846}, {"current_trial": 8, "trialdata": {"rt": 6925, "trial_type": "text", "internal_node_id": "0.0-8.0", "time_elapsed": 119654, "key_press": 40, "type": "INSTRUCTIONS", "trial_index": 8}, "uniqueid": "MTK2639:3DQQ64TANHS0CBQHJQ7FIRUHHW6WPA", "dateTime": 1519165890275}, {"current_trial": 9, "trialdata": {"rt": [2881, 5020, 8177, 10384, 14173, 15968], "trial_type": "math-distractor", "key_times": [2098, 2372, 2881, 4459, 5020, 6636, 7322, 7920, 8177, 9921, 10134, 10384, 13546, 13872, 14173, 15519, 15682, 15968, 17905], "responses": ["14", "4", "8", "15", "13", "12"], "num2": [6, 2, 1, 8, 2, 1, 8], "num3": [4, 1, 3, 2, 2, 2, 9], "conditions": [18, 1200, "a", 18000], "internal_node_id": "0.0-9.0", "key_presses": [97, 100, 13, 100, 13, 100, 8, 104, 13, 97, 101, 13, 97, 99, 13, 97, 98, 13, 97], "trial": 0, "time_elapsed": 138666, "type": "DISTRACTOR", "trial_index": 9, "num1": [4, 1, 4, 5, 9, 9, 1]}, "uniqueid": "MTK2639:3DQQ64TANHS0CBQHJQ7FIRUHHW6WPA", "dateTime": 1519165909288}, {"current_trial": 10, "trialdata": {"rt": -1, "trial_type": "single-stim", "stimulus": "<p id=\"stim\">10</p>", "internal_node_id": "0.0-10.0-0.0", "time_elapsed": 141689, "key_press": -1, "trial_index": 10}, "uniqueid": "MTK2639:3DQQ64TANHS0CBQHJQ7FIRUHHW6WPA", "dateTime": 1519165912311}, {"current_trial": 11, "trialdata": {"rt": -1, "trial_type": "single-stim", "stimulus": "<p id=\"stim\">9</p>", "internal_node_id": "0.0-10.0-1.0", "time_elapsed": 142691, "key_press": -1, "trial_index": 11}, "uniqueid": "MTK2639:3DQQ64TANHS0CBQHJQ7FIRUHHW6WPA", "dateTime": 1519165913313}, {"current_trial": 12, "trialdata": {"rt": -1, "trial_type": "single-stim", "stimulus": "<p id=\"stim\">8</p>", "internal_node_id": "0.0-10.0-2.0", "time_elapsed": 143693, "key_press": -1, "trial_index": 12}, "uniqueid": "MTK2639:3DQQ64TANHS0CBQHJQ7FIRUHHW6WPA", "dateTime": 1519165914314}, {"current_trial": 13, "trialdata": {"rt": -1, "trial_type": "single-stim", "stimulus": "<p id=\"stim\">7</p>", "internal_node_id": "0.0-10.0-3.0", "time_elapsed": 144696, "key_press": -1, "trial_index": 13}, "uniqueid": "MTK2639:3DQQ64TANHS0CBQHJQ7FIRUHHW6WPA", "dateTime": 1519165915317}, {"current_trial": 14, "trialdata": {"rt": -1, "trial_type": "single-stim", "stimulus": "<p id=\"stim\">6</p>", "internal_node_id": "0.0-10.0-4.0", "time_elapsed": 145697, "key_press": -1, "trial_index": 14}, "uniqueid": "MTK2639:3DQQ64TANHS0CBQHJQ7FIRUHHW6WPA", "dateTime": 1519165916319}, {"current_trial": 15, "trialdata": {"rt": -1, "trial_type": "single-stim", "stimulus": "<p id=\"stim\">5</p>", "internal_node_id": "0.0-10.0-5.0", "time_elapsed": 146698, "key_press": -1, "trial_index": 15}, "uniqueid": "MTK2639:3DQQ64TANHS0CBQHJQ7FIRUHHW6WPA", "dateTime": 1519165917320}, {"current_trial": 16, "trialdata": {"rt": -1, "trial_type": "single-stim", "stimulus": "<p id=\"stim\">4</p>", "internal_node_id": "0.0-10.0-6.0", "time_elapsed": 147700, "key_press": -1, "trial_index": 16}, "uniqueid": "MTK2639:3DQQ64TANHS0CBQHJQ7FIRUHHW6WPA", "dateTime": 1519165918321}, {"current_trial": 17, "trialdata": {"rt": -1, "trial_type": "single-stim", "stimulus": "<p id=\"stim\">3</p>", "internal_node_id": "0.0-10.0-7.0", "time_elapsed": 148702, "key_press": -1, "trial_index": 17}, "uniqueid": "MTK2639:3DQQ64TANHS0CBQHJQ7FIRUHHW6WPA", "dateTime": 1519165919325}, {"current_trial": 18, "trialdata": {"rt": -1, "trial_type": "single-stim", "stimulus": "<p id=\"stim\">2</p>", "internal_node_id": "0.0-10.0-8.0", "time_elapsed": 149706, "key_press": -1, "trial_index": 18}, "uniqueid": "MTK2639:3DQQ64TANHS0CBQHJQ7FIRUHHW6WPA", "dateTime": 1519165920327}, {"current_trial": 19, "trialdata": {"rt": -1, "trial_type": "single-stim", "stimulus": "<p id=\"stim\">1</p>", "internal_node_id": "0.0-10.0-9.0", "time_elapsed": 150713, "key_press": -1, "trial_index": 19}, "uniqueid": "MTK2639:3DQQ64TANHS0CBQHJQ7FIRUHHW6WPA", "dateTime": 1519165921334}, {"current_trial": 20, "trialdata": {"rt": -1, "trial_type": "single-stim", "stimulus": "<p id=\"stim\">+</p>", "internal_node_id": "0.0-11.0-0.0", "time_elapsed": 152215, "key_press": -1, "type": "FIXATION", "trial_index": 20}, "uniqueid": "MTK2639:3DQQ64TANHS0CBQHJQ7FIRUHHW6WPA", "dateTime": 1519165922836}, {"current_trial": 21, "trialdata": {"rt": -1000, "trial_type": "single-audio", "word": "cabin", "stimulus": "/static/audio/wordpool/CABIN.wav", "conditions": [18, 1200, "a", 18000], "internal_node_id": "0.0-12.0", "trial": 0, "time_elapsed": 154238, "serialpos": 0, "key_press": -1, "wordID": 210, "type": "PRES_AUD", "trial_index": 21}, "uniqueid": "MTK2639:3DQQ64TANHS0CBQHJQ7FIRUHHW6WPA", "dateTime": 1519165924860}, {"current_trial": 22, "trialdata": {"rt": -1000, "trial_type": "single-audio", "word": "victim", "stimulus": "/static/audio/wordpool/VICTIM.wav", "conditions": [18, 1200, "a", 18000], "internal_node_id": "0.0-13.0", "trial": 0, "time_elapsed": 156562, "serialpos": 1, "key_press": -1, "wordID": 1561, "type": "PRES_AUD", "trial_index": 22}, "uniqueid": "MTK2639:3DQQ64TANHS0CBQHJQ7FIRUHHW6WPA", "dateTime": 1519165927183}, {"current_trial": 23, "trialdata": {"rt": -1000, "trial_type": "single-audio", "word": "scribble", "stimulus": "/static/audio/wordpool/SCRIBBLE.wav", "conditions": [18, 1200, "a", 18000], "internal_node_id": "0.0-14.0", "trial": 0, "time_elapsed": 158800, "serialpos": 2, "key_press": -1, "wordID": 1255, "type": "PRES_AUD", "trial_index": 23}, "uniqueid": "MTK2639:3DQQ64TANHS0CBQHJQ7FIRUHHW6WPA", "dateTime": 1519165929422}, {"current_trial": 24, "trialdata": {"rt": -1000, "trial_type": "single-audio", "word": "kleenex", "stimulus": "/static/audio/wordpool/KLEENEX.wav", "conditions": [18, 1200, "a", 18000], "internal_node_id": "0.0-15.0", "trial": 0, "time_elapsed": 160860, "serialpos": 3, "key_press": -1, "wordID": 781, "type": "PRES_AUD", "trial_index": 24}, "uniqueid": "MTK2639:3DQQ64TANHS0CBQHJQ7FIRUHHW6WPA", "dateTime": 1519165931481}, {"current_trial": 25, "trialdata": {"rt": -1000, "trial_type": "single-audio", "word": "temple", "stimulus": "/static/audio/wordpool/TEMPLE.wav", "conditions": [18, 1200, "a", 18000], "internal_node_id": "0.0-16.0", "trial": 0, "time_elapsed": 162891, "serialpos": 4, "key_press": -1, "wordID": 1447, "type": "PRES_AUD", "trial_index": 25}, "uniqueid": "MTK2639:3DQQ64TANHS0CBQHJQ7FIRUHHW6WPA", "dateTime": 1519165933512}, {"current_trial": 26, "trialdata": {"rt": -1000, "trial_type": "single-audio", "word": "outfit", "stimulus": "/static/audio/wordpool/OUTFIT.wav", "conditions": [18, 1200, "a", 18000], "internal_node_id": "0.0-17.0", "trial": 0, "time_elapsed": 165249, "serialpos": 5, "key_press": -1, "wordID": 987, "type": "PRES_AUD", "trial_index": 26}, "uniqueid": "MTK2639:3DQQ64TANHS0CBQHJQ7FIRUHHW6WPA", "dateTime": 1519165935870}, {"current_trial": 27, "trialdata": {"rt": -1000, "trial_type": "single-audio", "word": "hound", "stimulus": "/static/audio/wordpool/HOUND.wav", "conditions": [18, 1200, "a", 18000], "internal_node_id": "0.0-18.0", "trial": 0, "time_elapsed": 167262, "serialpos": 6, "key_press": -1, "wordID": 723, "type": "PRES_AUD", "trial_index": 27}, "uniqueid": "MTK2639:3DQQ64TANHS0CBQHJQ7FIRUHHW6WPA", "dateTime": 1519165937883}, {"current_trial": 28, "trialdata": {"rt": -1000, "trial_type": "single-audio", "word": "catcher", "stimulus": "/static/audio/wordpool/CATCHER.wav", "conditions": [18, 1200, "a", 18000], "internal_node_id": "0.0-19.0", "trial": 0, "time_elapsed": 169589, "serialpos": 7, "key_press": -1, "wordID": 257, "type": "PRES_AUD", "trial_index": 28}, "uniqueid": "MTK2639:3DQQ64TANHS0CBQHJQ7FIRUHHW6WPA", "dateTime": 1519165940210}, {"current_trial": 29, "trialdata": {"rt": -1000, "trial_type": "single-audio", "word": "nomad", "stimulus": "/static/audio/wordpool/NOMAD.wav", "conditions": [18, 1200, "a", 18000], "internal_node_id": "0.0-20.0", "trial": 0, "time_elapsed": 171697, "serialpos": 8, "key_press": -1, "wordID": 954, "type": "PRES_AUD", "trial_index": 29}, "uniqueid": "MTK2639:3DQQ64TANHS0CBQHJQ7FIRUHHW6WPA", "dateTime": 1519165942318}, {"current_trial": 30, "trialdata": {"rt": -1000, "trial_type": "single-audio", "word": "spouse", "stimulus": "/static/audio/wordpool/SPOUSE.wav", "conditions": [18, 1200, "a", 18000], "internal_node_id": "0.0-21.0", "trial": 0, "time_elapsed": 173821, "serialpos": 9, "key_press": -1, "wordID": 1357, "type": "PRES_AUD", "trial_index": 30}, "uniqueid": "MTK2639:3DQQ64TANHS0CBQHJQ7FIRUHHW6WPA", "dateTime": 1519165944443}, {"current_trial": 31, "trialdata": {"rt": -1000, "trial_type": "single-audio", "word": "robin", "stimulus": "/static/audio/wordpool/ROBIN.wav", "conditions": [18, 1200, "a", 18000], "internal_node_id": "0.0-22.0", "trial": 0, "time_elapsed": 176072, "serialpos": 10, "key_press": -1, "wordID": 1198, "type": "PRES_AUD", "trial_index": 31}, "uniqueid": "MTK2639:3DQQ64TANHS0CBQHJQ7FIRUHHW6WPA", "dateTime": 1519165946693}, {"current_trial": 32, "trialdata": {"rt": -1000, "trial_type": "single-audio", "word": "jello", "stimulus": "/static/audio/wordpool/JELLO.wav", "conditions": [18, 1200, "a", 18000], "internal_node_id": "0.0-23.0", "trial": 0, "time_elapsed": 178468, "serialpos": 11, "key_press": -1, "wordID": 753, "type": "PRES_AUD", "trial_index": 32}, "uniqueid": "MTK2639:3DQQ64TANHS0CBQHJQ7FIRUHHW6WPA", "dateTime": 1519165949089}, {"current_trial": 33, "trialdata": {"rt": -1000, "trial_type": "single-audio", "word": "lava", "stimulus": "/static/audio/wordpool/LAVA.wav", "conditions": [18, 1200, "a", 18000], "internal_node_id": "0.0-24.0", "trial": 0, "time_elapsed": 180502, "serialpos": 12, "key_press": -1, "wordID": 803, "type": "PRES_AUD", "trial_index": 33}, "uniqueid": "MTK2639:3DQQ64TANHS0CBQHJQ7FIRUHHW6WPA", "dateTime": 1519165951124}, {"current_trial": 34, "trialdata": {"rt": -1000, "trial_type": "single-audio", "word": "hood", "stimulus": "/static/audio/wordpool/HOOD.wav", "conditions": [18, 1200, "a", 18000], "internal_node_id": "0.0-25.0", "trial": 0, "time_elapsed": 182528, "serialpos": 13, "key_press": -1, "wordID": 713, "type": "PRES_AUD", "trial_index": 34}, "uniqueid": "MTK2639:3DQQ64TANHS0CBQHJQ7FIRUHHW6WPA", "dateTime": 1519165953149}, {"current_trial": 35, "trialdata": {"rt": -1000, "trial_type": "single-audio", "word": "champagne", "stimulus": "/static/audio/wordpool/CHAMPAGNE.wav", "conditions": [18, 1200, "a", 18000], "internal_node_id": "0.0-26.0", "trial": 0, "time_elapsed": 184857, "serialpos": 14, "key_press": -1, "wordID": 277, "type": "PRES_AUD", "trial_index": 35}, "uniqueid": "MTK2639:3DQQ64TANHS0CBQHJQ7FIRUHHW6WPA", "dateTime": 1519165955478}, {"current_trial": 36, "trialdata": {"rt": -1000, "trial_type": "single-audio", "word": "clamp", "stimulus": "/static/audio/wordpool/CLAMP.wav", "conditions": [18, 1200, "a", 18000], "internal_node_id": "0.0-27.0", "trial": 0, "time_elapsed": 186960, "serialpos": 15, "key_press": -1, "wordID": 315, "type": "PRES_AUD", "trial_index": 36}, "uniqueid": "MTK2639:3DQQ64TANHS0CBQHJQ7FIRUHHW6WPA", "dateTime": 1519165957582}, {"current_trial": 37, "trialdata": {"rt": -1000, "trial_type": "single-audio", "word": "shortcake", "stimulus": "/static/audio/wordpool/SHORTCAKE.wav", "conditions": [18, 1200, "a", 18000], "internal_node_id": "0.0-28.0", "trial": 0, "time_elapsed": 189170, "serialpos": 16, "key_press": -1, "wordID": 1291, "type": "PRES_AUD", "trial_index": 37}, "uniqueid": "MTK2639:3DQQ64TANHS0CBQHJQ7FIRUHHW6WPA", "dateTime": 1519165959792}, {"current_trial": 38, "trialdata": {"rt": -1000, "trial_type": "single-audio", "word": "postage", "stimulus": "/static/audio/wordpool/POSTAGE.wav", "conditions": [18, 1200, "a", 18000], "internal_node_id": "0.0-29.0", "trial": 0, "time_elapsed": 191516, "serialpos": 17, "key_press": -1, "wordID": 1112, "type": "PRES_AUD", "trial_index": 38}, "uniqueid": "MTK2639:3DQQ64TANHS0CBQHJQ7FIRUHHW6WPA", "dateTime": 1519165962137}, {"current_trial": 39, "trialdata": {"rt": -1, "trial_type": "single-stim", "stimulus": "", "internal_node_id": "0.0-30.0-0.0", "time_elapsed": 192817, "key_press": -1, "type": "PRE_RECALL_DELAY", "trial_index": 39}, "uniqueid": "MTK2639:3DQQ64TANHS0CBQHJQ7FIRUHHW6WPA", "dateTime": 1519165963438}, {"current_trial": 40, "trialdata": {"rt": -1000, "trial_type": "single-audio", "stimulus": "/static/audio/400Hz.wav", "internal_node_id": "0.0-31.0", "time_elapsed": 193319, "key_press": -1, "type": "PRE_RECALL_ALERT", "trial_index": 40}, "uniqueid": "MTK2639:3DQQ64TANHS0CBQHJQ7FIRUHHW6WPA", "dateTime": 1519165963941}, {"current_trial": 41, "trialdata": {"rt": [4471, 7408, 9490, 16575, 30088, 37832], "recwords": ["cabain", "yellow", "jelly", "champagne", "", "outfit"], "key_times": [1769, 1963, 2150, 2446, 2796, 3264, 3456, 3776, 3907, 4156, 4471, 5162, 5609, 5735, 5961, 6167, 6383, 6598, 6738, 7408, 7778, 8022, 8173, 8364, 8758, 9490, 14500, 14748, 15022, 15173, 15455, 15650, 15799, 16038, 16184, 16575, 30088, 36578, 36820, 36948, 37185, 37325, 37534, 37832], "trial_type": "free-recall", "conditions": [18, 1200, "a", 18000], "internal_node_id": "0.0-32.0-0.0", "key_presses": [67, 65, 66, 73, 65, 8, 8, 65, 73, 78, 13, 84, 8, 89, 69, 76, 76, 79, 87, 13, 74, 69, 76, 76, 89, 13, 67, 72, 65, 77, 80, 65, 71, 78, 69, 13, 13, 79, 85, 84, 70, 73, 84, 13], "trial": 0, "time_elapsed": 253328, "type": "FREE_RECALL", "trial_index": 41}, "uniqueid": "MTK2639:3DQQ64TANHS0CBQHJQ7FIRUHHW6WPA", "dateTime": 1519166023958}, {"current_trial": 42, "trialdata": {"rt": 1408, "trial_type": "text", "internal_node_id": "0.0-33.0", "time_elapsed": 256746, "key_press": 70, "type": "INSTRUCTIONS", "trial_index": 42}, "uniqueid": "MTK2639:3DQQ64TANHS0CBQHJQ7FIRUHHW6WPA", "dateTime": 1519166027367}, {"current_trial": 43, "trialdata": {"rt": [4458, 7033, 8892, 11022, 14108, 16529], "trial_type": "math-distractor", "key_times": [1323, 2653, 3887, 4109, 4458, 6454, 6705, 7033, 8382, 8616, 8892, 10287, 10576, 11022, 13471, 13706, 14108, 15907, 16116, 16529], "responses": ["15", "19", "16", "12", "14", "12"], "num2": [6, 7, 9, 2, 4, 2, 7], "num3": [5, 3, 1, 2, 2, 6, 9], "conditions": [18, 1200, "a", 18000], "internal_node_id": "0.0-34.0", "key_presses": [107, 8, 97, 101, 13, 97, 105, 13, 97, 102, 13, 97, 98, 13, 97, 100, 13, 97, 98, 13], "trial": 1, "time_elapsed": 276752, "type": "DISTRACTOR", "trial_index": 43, "num1": [4, 9, 6, 8, 8, 4, 5]}, "uniqueid": "MTK2639:3DQQ64TANHS0CBQHJQ7FIRUHHW6WPA", "dateTime": 1519166047373}, {"current_trial": 44, "trialdata": {"rt": -1, "trial_type": "single-stim", "stimulus": "<p id=\"stim\">10</p>", "internal_node_id": "0.0-35.0-0.0", "time_elapsed": 279754, "key_press": -1, "trial_index": 44}, "uniqueid": "MTK2639:3DQQ64TANHS0CBQHJQ7FIRUHHW6WPA", "dateTime": 1519166050375}, {"current_trial": 45, "trialdata": {"rt": -1, "trial_type": "single-stim", "stimulus": "<p id=\"stim\">9</p>", "internal_node_id": "0.0-35.0-1.0", "time_elapsed": 280755, "key_press": -1, "trial_index": 45}, "uniqueid": "MTK2639:3DQQ64TANHS0CBQHJQ7FIRUHHW6WPA", "dateTime": 1519166051376}, {"current_trial": 46, "trialdata": {"rt": -1, "trial_type": "single-stim", "stimulus": "<p id=\"stim\">8</p>", "internal_node_id": "0.0-35.0-2.0", "time_elapsed": 281756, "key_press": -1, "trial_index": 46}, "uniqueid": "MTK2639:3DQQ64TANHS0CBQHJQ7FIRUHHW6WPA", "dateTime": 1519166052377}, {"current_trial": 47, "trialdata": {"rt": -1, "trial_type": "single-stim", "stimulus": "<p id=\"stim\">7</p>", "internal_node_id": "0.0-35.0-3.0", "time_elapsed": 282757, "key_press": -1, "trial_index": 47}, "uniqueid": "MTK2639:3DQQ64TANHS0CBQHJQ7FIRUHHW6WPA", "dateTime": 1519166053378}, {"current_trial": 48, "trialdata": {"rt": -1, "trial_type": "single-stim", "stimulus": "<p id=\"stim\">6</p>", "internal_node_id": "0.0-35.0-4.0", "time_elapsed": 283759, "key_press": -1, "trial_index": 48}, "uniqueid": "MTK2639:3DQQ64TANHS0CBQHJQ7FIRUHHW6WPA", "dateTime": 1519166054380}, {"current_trial": 49, "trialdata": {"rt": -1, "trial_type": "single-stim", "stimulus": "<p id=\"stim\">5</p>", "internal_node_id": "0.0-35.0-5.0", "time_elapsed": 284760, "key_press": -1, "trial_index": 49}, "uniqueid": "MTK2639:3DQQ64TANHS0CBQHJQ7FIRUHHW6WPA", "dateTime": 1519166055381}, {"current_trial": 50, "trialdata": {"rt": -1, "trial_type": "single-stim", "stimulus": "<p id=\"stim\">4</p>", "internal_node_id": "0.0-35.0-6.0", "time_elapsed": 285761, "key_press": -1, "trial_index": 50}, "uniqueid": "MTK2639:3DQQ64TANHS0CBQHJQ7FIRUHHW6WPA", "dateTime": 1519166056382}, {"current_trial": 51, "trialdata": {"rt": -1, "trial_type": "single-stim", "stimulus": "<p id=\"stim\">3</p>", "internal_node_id": "0.0-35.0-7.0", "time_elapsed": 286763, "key_press": -1, "trial_index": 51}, "uniqueid": "MTK2639:3DQQ64TANHS0CBQHJQ7FIRUHHW6WPA", "dateTime": 1519166057384}, {"current_trial": 52, "trialdata": {"rt": -1, "trial_type": "single-stim", "stimulus": "<p id=\"stim\">2</p>", "internal_node_id": "0.0-35.0-8.0", "time_elapsed": 287764, "key_press": -1, "trial_index": 52}, "uniqueid": "MTK2639:3DQQ64TANHS0CBQHJQ7FIRUHHW6WPA", "dateTime": 1519166058385}, {"current_trial": 53, "trialdata": {"rt": -1, "trial_type": "single-stim", "stimulus": "<p id=\"stim\">1</p>", "internal_node_id": "0.0-35.0-9.0", "time_elapsed": 288766, "key_press": -1, "trial_index": 53}, "uniqueid": "MTK2639:3DQQ64TANHS0CBQHJQ7FIRUHHW6WPA", "dateTime": 1519166059388}, {"current_trial": 54, "trialdata": {"rt": -1, "trial_type": "single-stim", "stimulus": "<p id=\"stim\">+</p>", "internal_node_id": "0.0-36.0-0.0", "time_elapsed": 290268, "key_press": -1, "type": "FIXATION", "trial_index": 54}, "uniqueid": "MTK2639:3DQQ64TANHS0CBQHJQ7FIRUHHW6WPA", "dateTime": 1519166060889}, {"current_trial": 55, "trialdata": {"rt": -1000, "trial_type": "single-audio", "word": "salad", "stimulus": "/static/audio/wordpool/SALAD.wav", "conditions": [18, 1200, "a", 18000], "internal_node_id": "0.0-37.0", "trial": 1, "time_elapsed": 292608, "serialpos": 0, "key_press": -1, "wordID": 1223, "type": "PRES_AUD", "trial_index": 55}, "uniqueid": "MTK2639:3DQQ64TANHS0CBQHJQ7FIRUHHW6WPA", "dateTime": 1519166063229}, {"current_trial": 56, "trialdata": {"rt": -1000, "trial_type": "single-audio", "word": "wardrobe", "stimulus": "/static/audio/wordpool/WARDROBE.wav", "conditions": [18, 1200, "a", 18000], "internal_node_id": "0.0-38.0", "trial": 1, "time_elapsed": 294824, "serialpos": 1, "key_press": -1, "wordID": 1586, "type": "PRES_AUD", "trial_index": 56}, "uniqueid": "MTK2639:3DQQ64TANHS0CBQHJQ7FIRUHHW6WPA", "dateTime": 1519166065446}, {"current_trial": 57, "trialdata": {"rt": -1000, "trial_type": "single-audio", "word": "dashboard", "stimulus": "/static/audio/wordpool/DASHBOARD.wav", "conditions": [18, 1200, "a", 18000], "internal_node_id": "0.0-39.0", "trial": 1, "time_elapsed": 297201, "serialpos": 2, "key_press": -1, "wordID": 440, "type": "PRES_AUD", "trial_index": 57}, "uniqueid": "MTK2639:3DQQ64TANHS0CBQHJQ7FIRUHHW6WPA", "dateTime": 1519166067822}, {"current_trial": 58, "trialdata": {"rt": -1000, "trial_type": "single-audio", "word": "lion", "stimulus": "/static/audio/wordpool/LION.wav", "conditions": [18, 1200, "a", 18000], "internal_node_id": "0.0-40.0", "trial": 1, "time_elapsed": 299523, "serialpos": 3, "key_press": -1, "wordID": 826, "type": "PRES_AUD", "trial_index": 58}, "uniqueid": "MTK2639:3DQQ64TANHS0CBQHJQ7FIRUHHW6WPA", "dateTime": 1519166070144}, {"current_trial": 59, "trialdata": {"rt": -1000, "trial_type": "single-audio", "word": "mailbox", "stimulus": "/static/audio/wordpool/MAILBOX.wav", "conditions": [18, 1200, "a", 18000], "internal_node_id": "0.0-41.0", "trial": 1, "time_elapsed": 301542, "serialpos": 4, "key_press": -1, "wordID": 856, "type": "PRES_AUD", "trial_index": 59}, "uniqueid": "MTK2639:3DQQ64TANHS0CBQHJQ7FIRUHHW6WPA", "dateTime": 1519166072163}, {"current_trial": 60, "trialdata": {"rt": -1000, "trial_type": "single-audio", "word": "powder", "stimulus": "/static/audio/wordpool/POWDER.wav", "conditions": [18, 1200, "a", 18000], "internal_node_id": "0.0-42.0", "trial": 1, "time_elapsed": 303646, "serialpos": 5, "key_press": -1, "wordID": 1116, "type": "PRES_AUD", "trial_index": 60}, "uniqueid": "MTK2639:3DQQ64TANHS0CBQHJQ7FIRUHHW6WPA", "dateTime": 1519166074267}, {"current_trial": 61, "trialdata": {"rt": -1000, "trial_type": "single-audio", "word": "smog", "stimulus": "/static/audio/wordpool/SMOG.wav", "conditions": [18, 1200, "a", 18000], "internal_node_id": "0.0-43.0", "trial": 1, "time_elapsed": 305677, "serialpos": 6, "key_press": -1, "wordID": 1329, "type": "PRES_AUD", "trial_index": 61}, "uniqueid": "MTK2639:3DQQ64TANHS0CBQHJQ7FIRUHHW6WPA", "dateTime": 1519166076298}, {"current_trial": 62, "trialdata": {"rt": -1000, "trial_type": "single-audio", "word": "stream", "stimulus": "/static/audio/wordpool/STREAM.wav", "conditions": [18, 1200, "a", 18000], "internal_node_id": "0.0-44.0", "trial": 1, "time_elapsed": 307820, "serialpos": 7, "key_press": -1, "wordID": 1391, "type": "PRES_AUD", "trial_index": 62}, "uniqueid": "MTK2639:3DQQ64TANHS0CBQHJQ7FIRUHHW6WPA", "dateTime": 1519166078441}, {"current_trial": 63, "trialdata": {"rt": -1000, "trial_type": "single-audio", "word": "bullet", "stimulus": "/static/audio/wordpool/BULLET.wav", "conditions": [18, 1200, "a", 18000], "internal_node_id": "0.0-45.0", "trial": 1, "time_elapsed": 310152, "serialpos": 8, "key_press": -1, "wordID": 193, "type": "PRES_AUD", "trial_index": 63}, "uniqueid": "MTK2639:3DQQ64TANHS0CBQHJQ7FIRUHHW6WPA", "dateTime": 1519166080774}, {"current_trial": 64, "trialdata": {"rt": -1000, "trial_type": "single-audio", "word": "expert", "stimulus": "/static/audio/wordpool/EXPERT.wav", "conditions": [18, 1200, "a", 18000], "internal_node_id": "0.0-46.0", "trial": 1, "time_elapsed": 312321, "serialpos": 9, "key_press": -1, "wordID": 542, "type": "PRES_AUD", "trial_index": 64}, "uniqueid": "MTK2639:3DQQ64TANHS0CBQHJQ7FIRUHHW6WPA", "dateTime": 1519166082942}, {"current_trial": 65, "trialdata": {"rt": -1000, "trial_type": "single-audio", "word": "asia", "stimulus": "/static/audio/wordpool/ASIA.wav", "conditions": [18, 1200, "a", 18000], "internal_node_id": "0.0-47.0", "trial": 1, "time_elapsed": 314704, "serialpos": 10, "key_press": -1, "wordID": 45, "type": "PRES_AUD", "trial_index": 65}, "uniqueid": "MTK2639:3DQQ64TANHS0CBQHJQ7FIRUHHW6WPA", "dateTime": 1519166085326}, {"current_trial": 66, "trialdata": {"rt": -1000, "trial_type": "single-audio", "word": "freezer", "stimulus": "/static/audio/wordpool/FREEZER.wav", "conditions": [18, 1200, "a", 18000], "internal_node_id": "0.0-48.0", "trial": 1, "time_elapsed": 316779, "serialpos": 11, "key_press": -1, "wordID": 603, "type": "PRES_AUD", "trial_index": 66}, "uniqueid": "MTK2639:3DQQ64TANHS0CBQHJQ7FIRUHHW6WPA", "dateTime": 1519166087400}, {"current_trial": 67, "trialdata": {"rt": -1000, "trial_type": "single-audio", "word": "rebel", "stimulus": "/static/audio/wordpool/REBEL.wav", "conditions": [18, 1200, "a", 18000], "internal_node_id": "0.0-49.0", "trial": 1, "time_elapsed": 319169, "serialpos": 12, "key_press": -1, "wordID": 1171, "type": "PRES_AUD", "trial_index": 67}, "uniqueid": "MTK2639:3DQQ64TANHS0CBQHJQ7FIRUHHW6WPA", "dateTime": 1519166089790}, {"current_trial": 68, "trialdata": {"rt": -1000, "trial_type": "single-audio", "word": "parrot", "stimulus": "/static/audio/wordpool/PARROT.wav", "conditions": [18, 1200, "a", 18000], "internal_node_id": "0.0-50.0", "trial": 1, "time_elapsed": 321319, "serialpos": 13, "key_press": -1, "wordID": 1014, "type": "PRES_AUD", "trial_index": 68}, "uniqueid": "MTK2639:3DQQ64TANHS0CBQHJQ7FIRUHHW6WPA", "dateTime": 1519166091940}, {"current_trial": 69, "trialdata": {"rt": -1000, "trial_type": "single-audio", "word": "penguin", "stimulus": "/static/audio/wordpool/PENGUIN.wav", "conditions": [18, 1200, "a", 18000], "internal_node_id": "0.0-51.0", "trial": 1, "time_elapsed": 323630, "serialpos": 14, "key_press": -1, "wordID": 1043, "type": "PRES_AUD", "trial_index": 69}, "uniqueid": "MTK2639:3DQQ64TANHS0CBQHJQ7FIRUHHW6WPA", "dateTime": 1519166094251}, {"current_trial": 70, "trialdata": {"rt": -1000, "trial_type": "single-audio", "word": "widow", "stimulus": "/static/audio/wordpool/WIDOW.wav", "conditions": [18, 1200, "a", 18000], "internal_node_id": "0.0-52.0", "trial": 1, "time_elapsed": 325637, "serialpos": 15, "key_press": -1, "wordID": 1607, "type": "PRES_AUD", "trial_index": 70}, "uniqueid": "MTK2639:3DQQ64TANHS0CBQHJQ7FIRUHHW6WPA", "dateTime": 1519166096258}, {"current_trial": 71, "trialdata": {"rt": -1000, "trial_type": "single-audio", "word": "piston", "stimulus": "/static/audio/wordpool/PISTON.wav", "conditions": [18, 1200, "a", 18000], "internal_node_id": "0.0-53.0", "trial": 1, "time_elapsed": 327987, "serialpos": 16, "key_press": -1, "wordID": 1075, "type": "PRES_AUD", "trial_index": 71}, "uniqueid": "MTK2639:3DQQ64TANHS0CBQHJQ7FIRUHHW6WPA", "dateTime": 1519166098608}, {"current_trial": 72, "trialdata": {"rt": -1000, "trial_type": "single-audio", "word": "yacht", "stimulus": "/static/audio/wordpool/YACHT.wav", "conditions": [18, 1200, "a", 18000], "internal_node_id": "0.0-54.0", "trial": 1, "time_elapsed": 330006, "serialpos": 17, "key_press": -1, "wordID": 1628, "type": "PRES_AUD", "trial_index": 72}, "uniqueid": "MTK2639:3DQQ64TANHS0CBQHJQ7FIRUHHW6WPA", "dateTime": 1519166100628}, {"current_trial": 73, "trialdata": {"rt": -1, "trial_type": "single-stim", "stimulus": "", "internal_node_id": "0.0-55.0-0.0", "time_elapsed": 331386, "key_press": -1, "type": "PRE_RECALL_DELAY", "trial_index": 73}, "uniqueid": "MTK2639:3DQQ64TANHS0CBQHJQ7FIRUHHW6WPA", "dateTime": 1519166102007}, {"current_trial": 74, "trialdata": {"rt": -1000, "trial_type": "single-audio", "stimulus": "/static/audio/400Hz.wav", "internal_node_id": "0.0-56.0", "time_elapsed": 331888, "key_press": -1, "type": "PRE_RECALL_ALERT", "trial_index": 74}, "uniqueid": "MTK2639:3DQQ64TANHS0CBQHJQ7FIRUHHW6WPA", "dateTime": 1519166102509}, {"current_trial": 75, "trialdata": {"rt": [3222, 5148, 7200, 14487, 34895, 37349], "recwords": ["penguin", "widow", "yatch", "wardrobe", "freezer", "expert"], "key_times": [1543, 1702, 1840, 2188, 2329, 2467, 2747, 3222, 4003, 4124, 4346, 4441, 4668, 5148, 5920, 6085, 6307, 6479, 6656, 7200, 10637, 10891, 11156, 11365, 13084, 13316, 13576, 13757, 14487, 33112, 33326, 33552, 33758, 34046, 34336, 34601, 34895, 36090, 36397, 36554, 36664, 36843, 37142, 37349], "trial_type": "free-recall", "conditions": [18, 1200, "a", 18000], "internal_node_id": "0.0-57.0-0.0", "key_presses": [80, 69, 78, 71, 85, 73, 78, 13, 87, 73, 68, 79, 87, 13, 89, 65, 84, 67, 72, 13, 87, 65, 82, 68, 82, 79, 66, 69, 13, 70, 82, 69, 69, 90, 69, 82, 13, 69, 88, 80, 69, 82, 84, 13], "trial": 1, "time_elapsed": 391894, "type": "FREE_RECALL", "trial_index": 75}, "uniqueid": "MTK2639:3DQQ64TANHS0CBQHJQ7FIRUHHW6WPA", "dateTime": 1519166162520}, {"current_trial": 76, "trialdata": {"rt": 2490, "trial_type": "text", "internal_node_id": "0.0-58.0", "time_elapsed": 396420, "key_press": 32, "type": "INSTRUCTIONS", "trial_index": 76}, "uniqueid": "MTK2639:3DQQ64TANHS0CBQHJQ7FIRUHHW6WPA", "dateTime": 1519166167041}, {"current_trial": 77, "trialdata": {"rt": [3481, 5436, 9478, 11557, 14829, 18078, 23056], "trial_type": "math-distractor", "key_times": [2342, 2615, 3481, 4650, 4992, 5436, 8443, 9048, 9478, 10994, 11246, 11557, 14317, 14536, 14829, 16553, 16951, 18078, 20109, 20376, 23056], "responses": ["17", "17", "16", "14", "11", "13", "12"], "num2": [4, 6, 4, 2, 2, 2, 3, 8], "num3": [7, 4, 5, 8, 6, 3, 2, 8], "conditions": [12, 800, "a", 24000], "internal_node_id": "0.0-59.0", "key_presses": [97, 103, 13, 97, 103, 13, 97, 102, 13, 97, 100, 13, 97, 97, 13, 97, 99, 13, 97, 98, 13], "trial": 2, "time_elapsed": 421427, "type": "DISTRACTOR", "trial_index": 77, "num1": [6, 7, 7, 4, 3, 8, 7, 1]}, "uniqueid": "MTK2639:3DQQ64TANHS0CBQHJQ7FIRUHHW6WPA", "dateTime": 1519166192048}, {"current_trial": 78, "trialdata": {"rt": -1, "trial_type": "single-stim", "stimulus": "<p id=\"stim\">10</p>", "internal_node_id": "0.0-60.0-0.0", "time_elapsed": 424429, "key_press": -1, "trial_index": 78}, "uniqueid": "MTK2639:3DQQ64TANHS0CBQHJQ7FIRUHHW6WPA", "dateTime": 1519166195050}, {"current_trial": 79, "trialdata": {"rt": -1, "trial_type": "single-stim", "stimulus": "<p id=\"stim\">9</p>", "internal_node_id": "0.0-60.0-1.0", "time_elapsed": 425430, "key_press": -1, "trial_index": 79}, "uniqueid": "MTK2639:3DQQ64TANHS0CBQHJQ7FIRUHHW6WPA", "dateTime": 1519166196051}, {"current_trial": 80, "trialdata": {"rt": -1, "trial_type": "single-stim", "stimulus": "<p id=\"stim\">8</p>", "internal_node_id": "0.0-60.0-2.0", "time_elapsed": 426431, "key_press": -1, "trial_index": 80}, "uniqueid": "MTK2639:3DQQ64TANHS0CBQHJQ7FIRUHHW6WPA", "dateTime": 1519166197052}, {"current_trial": 81, "trialdata": {"rt": -1, "trial_type": "single-stim", "stimulus": "<p id=\"stim\">7</p>", "internal_node_id": "0.0-60.0-3.0", "time_elapsed": 427432, "key_press": -1, "trial_index": 81}, "uniqueid": "MTK2639:3DQQ64TANHS0CBQHJQ7FIRUHHW6WPA", "dateTime": 1519166198053}, {"current_trial": 82, "trialdata": {"rt": -1, "trial_type": "single-stim", "stimulus": "<p id=\"stim\">6</p>", "internal_node_id": "0.0-60.0-4.0", "time_elapsed": 428433, "key_press": -1, "trial_index": 82}, "uniqueid": "MTK2639:3DQQ64TANHS0CBQHJQ7FIRUHHW6WPA", "dateTime": 1519166199054}, {"current_trial": 83, "trialdata": {"rt": -1, "trial_type": "single-stim", "stimulus": "<p id=\"stim\">5</p>", "internal_node_id": "0.0-60.0-5.0", "time_elapsed": 429434, "key_press": -1, "trial_index": 83}, "uniqueid": "MTK2639:3DQQ64TANHS0CBQHJQ7FIRUHHW6WPA", "dateTime": 1519166200056}, {"current_trial": 84, "trialdata": {"rt": -1, "trial_type": "single-stim", "stimulus": "<p id=\"stim\">4</p>", "internal_node_id": "0.0-60.0-6.0", "time_elapsed": 430435, "key_press": -1, "trial_index": 84}, "uniqueid": "MTK2639:3DQQ64TANHS0CBQHJQ7FIRUHHW6WPA", "dateTime": 1519166201056}, {"current_trial": 85, "trialdata": {"rt": -1, "trial_type": "single-stim", "stimulus": "<p id=\"stim\">3</p>", "internal_node_id": "0.0-60.0-7.0", "time_elapsed": 431436, "key_press": -1, "trial_index": 85}, "uniqueid": "MTK2639:3DQQ64TANHS0CBQHJQ7FIRUHHW6WPA", "dateTime": 1519166202058}, {"current_trial": 86, "trialdata": {"rt": -1, "trial_type": "single-stim", "stimulus": "<p id=\"stim\">2</p>", "internal_node_id": "0.0-60.0-8.0", "time_elapsed": 432437, "key_press": -1, "trial_index": 86}, "uniqueid": "MTK2639:3DQQ64TANHS0CBQHJQ7FIRUHHW6WPA", "dateTime": 1519166203059}, {"current_trial": 87, "trialdata": {"rt": -1, "trial_type": "single-stim", "stimulus": "<p id=\"stim\">1</p>", "internal_node_id": "0.0-60.0-9.0", "time_elapsed": 433438, "key_press": -1, "trial_index": 87}, "uniqueid": "MTK2639:3DQQ64TANHS0CBQHJQ7FIRUHHW6WPA", "dateTime": 1519166204060}, {"current_trial": 88, "trialdata": {"rt": -1, "trial_type": "single-stim", "stimulus": "<p id=\"stim\">+</p>", "internal_node_id": "0.0-61.0-0.0", "time_elapsed": 434939, "key_press": -1, "type": "FIXATION", "trial_index": 88}, "uniqueid": "MTK2639:3DQQ64TANHS0CBQHJQ7FIRUHHW6WPA", "dateTime": 1519166205561}, {"current_trial": 89, "trialdata": {"rt": -1000, "trial_type": "single-audio", "word": "sponge", "stimulus": "/static/audio/wordpool/SPONGE.wav", "conditions": [12, 800, "a", 24000], "internal_node_id": "0.0-62.0", "trial": 2, "time_elapsed": 436747, "serialpos": 0, "key_press": -1, "wordID": 1354, "type": "PRES_AUD", "trial_index": 89}, "uniqueid": "MTK2639:3DQQ64TANHS0CBQHJQ7FIRUHHW6WPA", "dateTime": 1519166207369}, {"current_trial": 90, "trialdata": {"rt": -1000, "trial_type": "single-audio", "word": "scissors", "stimulus": "/static/audio/wordpool/SCISSORS.wav", "conditions": [12, 800, "a", 24000], "internal_node_id": "0.0-63.0", "trial": 2, "time_elapsed": 438666, "serialpos": 1, "key_press": -1, "wordID": 1249, "type": "PRES_AUD", "trial_index": 90}, "uniqueid": "MTK2639:3DQQ64TANHS0CBQHJQ7FIRUHHW6WPA", "dateTime": 1519166209287}, {"current_trial": 91, "trialdata": {"rt": -1000, "trial_type": "single-audio", "word": "tweezers", "stimulus": "/static/audio/wordpool/TWEEZERS.wav", "conditions": [12, 800, "a", 24000], "internal_node_id": "0.0-64.0", "trial": 2, "time_elapsed": 440436, "serialpos": 2, "key_press": -1, "wordID": 1525, "type": "PRES_AUD", "trial_index": 91}, "uniqueid": "MTK2639:3DQQ64TANHS0CBQHJQ7FIRUHHW6WPA", "dateTime": 1519166211057}, {"current_trial": 92, "trialdata": {"rt": -1000, "trial_type": "single-audio", "word": "ointment", "stimulus": "/static/audio/wordpool/OINTMENT.wav", "conditions": [12, 800, "a", 24000], "internal_node_id": "0.0-65.0", "trial": 2, "time_elapsed": 442146, "serialpos": 3, "key_press": -1, "wordID": 973, "type": "PRES_AUD", "trial_index": 92}, "uniqueid": "MTK2639:3DQQ64TANHS0CBQHJQ7FIRUHHW6WPA", "dateTime": 1519166212767}, {"current_trial": 93, "trialdata": {"rt": -1000, "trial_type": "single-audio", "word": "jury", "stimulus": "/static/audio/wordpool/JURY.wav", "conditions": [12, 800, "a", 24000], "internal_node_id": "0.0-66.0", "trial": 2, "time_elapsed": 443866, "serialpos": 4, "key_press": -1, "wordID": 765, "type": "PRES_AUD", "trial_index": 93}, "uniqueid": "MTK2639:3DQQ64TANHS0CBQHJQ7FIRUHHW6WPA", "dateTime": 1519166214487}, {"current_trial": 94, "trialdata": {"rt": -1000, "trial_type": "single-audio", "word": "picture", "stimulus": "/static/audio/wordpool/PICTURE.wav", "conditions": [12, 800, "a", 24000], "internal_node_id": "0.0-67.0", "trial": 2, "time_elapsed": 445587, "serialpos": 5, "key_press": -1, "wordID": 1060, "type": "PRES_AUD", "trial_index": 94}, "uniqueid": "MTK2639:3DQQ64TANHS0CBQHJQ7FIRUHHW6WPA", "dateTime": 1519166216208}, {"current_trial": 95, "trialdata": {"rt": -1000, "trial_type": "single-audio", "word": "umpire", "stimulus": "/static/audio/wordpool/UMPIRE.wav", "conditions": [12, 800, "a", 24000], "internal_node_id": "0.0-68.0", "trial": 2, "time_elapsed": 447206, "serialpos": 6, "key_press": -1, "wordID": 1534, "type": "PRES_AUD", "trial_index": 95}, "uniqueid": "MTK2639:3DQQ64TANHS0CBQHJQ7FIRUHHW6WPA", "dateTime": 1519166217828}, {"current_trial": 96, "trialdata": {"rt": -1000, "trial_type": "single-audio", "word": "marsh", "stimulus": "/static/audio/wordpool/MARSH.wav", "conditions": [12, 800, "a", 24000], "internal_node_id": "0.0-69.0", "trial": 2, "time_elapsed": 449077, "serialpos": 7, "key_press": -1, "wordID": 873, "type": "PRES_AUD", "trial_index": 96}, "uniqueid": "MTK2639:3DQQ64TANHS0CBQHJQ7FIRUHHW6WPA", "dateTime": 1519166219698}, {"current_trial": 97, "trialdata": {"rt": -1000, "trial_type": "single-audio", "word": "portrait", "stimulus": "/static/audio/wordpool/PORTRAIT.wav", "conditions": [12, 800, "a", 24000], "internal_node_id": "0.0-70.0", "trial": 2, "time_elapsed": 450720, "serialpos": 8, "key_press": -1, "wordID": 1110, "type": "PRES_AUD", "trial_index": 97}, "uniqueid": "MTK2639:3DQQ64TANHS0CBQHJQ7FIRUHHW6WPA", "dateTime": 1519166221341}, {"current_trial": 98, "trialdata": {"rt": -1000, "trial_type": "single-audio", "word": "daughter", "stimulus": "/static/audio/wordpool/DAUGHTER.wav", "conditions": [12, 800, "a", 24000], "internal_node_id": "0.0-71.0", "trial": 2, "time_elapsed": 452661, "serialpos": 9, "key_press": -1, "wordID": 441, "type": "PRES_AUD", "trial_index": 98}, "uniqueid": "MTK2639:3DQQ64TANHS0CBQHJQ7FIRUHHW6WPA", "dateTime": 1519166223283}, {"current_trial": 99, "trialdata": {"rt": -1000, "trial_type": "single-audio", "word": "belly", "stimulus": "/static/audio/wordpool/BELLY.wav", "conditions": [12, 800, "a", 24000], "internal_node_id": "0.0-72.0", "trial": 2, "time_elapsed": 454412, "serialpos": 10, "key_press": -1, "wordID": 118, "type": "PRES_AUD", "trial_index": 99}, "uniqueid": "MTK2639:3DQQ64TANHS0CBQHJQ7FIRUHHW6WPA", "dateTime": 1519166225033}, {"current_trial": 100, "trialdata": {"rt": -1000, "trial_type": "single-audio", "word": "dandruff", "stimulus": "/static/audio/wordpool/DANDRUFF.wav", "conditions": [12, 800, "a", 24000], "internal_node_id": "0.0-73.0", "trial": 2, "time_elapsed": 456394, "serialpos": 11, "key_press": -1, "wordID": 438, "type": "PRES_AUD", "trial_index": 100}, "uniqueid": "MTK2639:3DQQ64TANHS0CBQHJQ7FIRUHHW6WPA", "dateTime": 1519166227015}, {"current_trial": 101, "trialdata": {"rt": -1, "trial_type": "single-stim", "stimulus": "", "internal_node_id": "0.0-74.0-0.0", "time_elapsed": 457783, "key_press": -1, "type": "PRE_RECALL_DELAY", "trial_index": 101}, "uniqueid": "MTK2639:3DQQ64TANHS0CBQHJQ7FIRUHHW6WPA", "dateTime": 1519166228404}, {"current_trial": 102, "trialdata": {"rt": -1000, "trial_type": "single-audio", "stimulus": "/static/audio/400Hz.wav", "internal_node_id": "0.0-75.0", "time_elapsed": 458284, "key_press": -1, "type": "PRE_RECALL_ALERT", "trial_index": 102}, "uniqueid": "MTK2639:3DQQ64TANHS0CBQHJQ7FIRUHHW6WPA", "dateTime": 1519166228905}, {"current_trial": 103, "trialdata": {"rt": [11442, 14591, 17982, 20997, 24547, 27606, 31918], "recwords": ["scissors", "jury", "picture", "empire", "portrait", "belly", "daughter"], "key_times": [7987, 8500, 9018, 9337, 9516, 9847, 10228, 10482, 11442, 12439, 12678, 13146, 13543, 14591, 15021, 15244, 15693, 16104, 16320, 16606, 16820, 17982, 18605, 19078, 19399, 19640, 19950, 20242, 20997, 21599, 21794, 22177, 22454, 22763, 23048, 23528, 23779, 24547, 25131, 25485, 25917, 26108, 26377, 27606, 28497, 28752, 29414, 29718, 29936, 30199, 30438, 31108, 31918], "trial_type": "free-recall", "conditions": [12, 800, "a", 24000], "internal_node_id": "0.0-76.0-0.0", "key_presses": [83, 67, 73, 83, 83, 79, 82, 83, 13, 74, 85, 82, 89, 13, 80, 73, 67, 84, 85, 82, 69, 13, 69, 77, 80, 73, 82, 69, 13, 80, 79, 82, 84, 82, 65, 73, 84, 13, 66, 69, 76, 76, 89, 13, 68, 65, 85, 71, 72, 84, 69, 82, 13], "trial": 2, "time_elapsed": 518290, "type": "FREE_RECALL", "trial_index": 103}, "uniqueid": "MTK2639:3DQQ64TANHS0CBQHJQ7FIRUHHW6WPA", "dateTime": 1519166288916}, {"current_trial": 104, "trialdata": {"rt": 1891, "trial_type": "text", "internal_node_id": "0.0-77.0", "time_elapsed": 522188, "key_press": 99, "type": "INSTRUCTIONS", "trial_index": 104}, "uniqueid": "MTK2639:3DQQ64TANHS0CBQHJQ7FIRUHHW6WPA", "dateTime": 1519166292809}, {"current_trial": 105, "trialdata": {"rt": [], "trial_type": "math-distractor", "key_times": [], "responses": [], "num2": [5], "num3": [8], "conditions": [12, 1600, "a", 12000], "internal_node_id": "0.0-78.0", "key_presses": [], "trial": 3, "time_elapsed": 536193, "type": "DISTRACTOR", "trial_index": 105, "num1": [9]}, "uniqueid": "MTK2639:3DQQ64TANHS0CBQHJQ7FIRUHHW6WPA", "dateTime": 1519166306814}, {"current_trial": 106, "trialdata": {"rt": -1, "trial_type": "single-stim", "stimulus": "<p id=\"stim\">10</p>", "internal_node_id": "0.0-79.0-0.0", "time_elapsed": 539195, "key_press": -1, "trial_index": 106}, "uniqueid": "MTK2639:3DQQ64TANHS0CBQHJQ7FIRUHHW6WPA", "dateTime": 1519166309816}, {"current_trial": 107, "trialdata": {"rt": -1, "trial_type": "single-stim", "stimulus": "<p id=\"stim\">9</p>", "internal_node_id": "0.0-79.0-1.0", "time_elapsed": 540220, "key_press": -1, "trial_index": 107}, "uniqueid": "MTK2639:3DQQ64TANHS0CBQHJQ7FIRUHHW6WPA", "dateTime": 1519166310842}, {"current_trial": 108, "trialdata": {"rt": -1, "trial_type": "single-stim", "stimulus": "<p id=\"stim\">8</p>", "internal_node_id": "0.0-79.0-2.0", "time_elapsed": 541254, "key_press": -1, "trial_index": 108}, "uniqueid": "MTK2639:3DQQ64TANHS0CBQHJQ7FIRUHHW6WPA", "dateTime": 1519166311876}, {"current_trial": 109, "trialdata": {"rt": -1, "trial_type": "single-stim", "stimulus": "<p id=\"stim\">7</p>", "internal_node_id": "0.0-79.0-3.0", "time_elapsed": 542263, "key_press": -1, "trial_index": 109}, "uniqueid": "MTK2639:3DQQ64TANHS0CBQHJQ7FIRUHHW6WPA", "dateTime": 1519166312884}, {"current_trial": 110, "trialdata": {"rt": -1, "trial_type": "single-stim", "stimulus": "<p id=\"stim\">6</p>", "internal_node_id": "0.0-79.0-4.0", "time_elapsed": 543264, "key_press": -1, "trial_index": 110}, "uniqueid": "MTK2639:3DQQ64TANHS0CBQHJQ7FIRUHHW6WPA", "dateTime": 1519166313885}, {"current_trial": 111, "trialdata": {"rt": -1, "trial_type": "single-stim", "stimulus": "<p id=\"stim\">5</p>", "internal_node_id": "0.0-79.0-5.0", "time_elapsed": 544265, "key_press": -1, "trial_index": 111}, "uniqueid": "MTK2639:3DQQ64TANHS0CBQHJQ7FIRUHHW6WPA", "dateTime": 1519166314886}, {"current_trial": 112, "trialdata": {"rt": -1, "trial_type": "single-stim", "stimulus": "<p id=\"stim\">4</p>", "internal_node_id": "0.0-79.0-6.0", "time_elapsed": 545266, "key_press": -1, "trial_index": 112}, "uniqueid": "MTK2639:3DQQ64TANHS0CBQHJQ7FIRUHHW6WPA", "dateTime": 1519166315887}, {"current_trial": 113, "trialdata": {"rt": -1, "trial_type": "single-stim", "stimulus": "<p id=\"stim\">3</p>", "internal_node_id": "0.0-79.0-7.0", "time_elapsed": 546267, "key_press": -1, "trial_index": 113}, "uniqueid": "MTK2639:3DQQ64TANHS0CBQHJQ7FIRUHHW6WPA", "dateTime": 1519166316888}, {"current_trial": 114, "trialdata": {"rt": -1, "trial_type": "single-stim", "stimulus": "<p id=\"stim\">2</p>", "internal_node_id": "0.0-79.0-8.0", "time_elapsed": 547272, "key_press": -1, "trial_index": 114}, "uniqueid": "MTK2639:3DQQ64TANHS0CBQHJQ7FIRUHHW6WPA", "dateTime": 1519166317894}, {"current_trial": 115, "trialdata": {"rt": -1, "trial_type": "single-stim", "stimulus": "<p id=\"stim\">1</p>", "internal_node_id": "0.0-79.0-9.0", "time_elapsed": 548274, "key_press": -1, "trial_index": 115}, "uniqueid": "MTK2639:3DQQ64TANHS0CBQHJQ7FIRUHHW6WPA", "dateTime": 1519166318895}, {"current_trial": 116, "trialdata": {"rt": -1, "trial_type": "single-stim", "stimulus": "<p id=\"stim\">+</p>", "internal_node_id": "0.0-80.0-0.0", "time_elapsed": 549775, "key_press": -1, "type": "FIXATION", "trial_index": 116}, "uniqueid": "MTK2639:3DQQ64TANHS0CBQHJQ7FIRUHHW6WPA", "dateTime": 1519166320396}, {"current_trial": 117, "trialdata": {"rt": -1000, "trial_type": "single-audio", "word": "popcorn", "stimulus": "/static/audio/wordpool/POPCORN.wav", "conditions": [12, 1600, "a", 12000], "internal_node_id": "0.0-81.0", "trial": 3, "time_elapsed": 552529, "serialpos": 0, "key_press": -1, "wordID": 1103, "type": "PRES_AUD", "trial_index": 117}, "uniqueid": "MTK2639:3DQQ64TANHS0CBQHJQ7FIRUHHW6WPA", "dateTime": 1519166323150}, {"current_trial": 118, "trialdata": {"rt": -1000, "trial_type": "single-audio", "word": "baby", "stimulus": "/static/audio/wordpool/BABY.wav", "conditions": [12, 1600, "a", 12000], "internal_node_id": "0.0-82.0", "trial": 3, "time_elapsed": 555092, "serialpos": 1, "key_press": -1, "wordID": 63, "type": "PRES_AUD", "trial_index": 118}, "uniqueid": "MTK2639:3DQQ64TANHS0CBQHJQ7FIRUHHW6WPA", "dateTime": 1519166325713}, {"current_trial": 119, "trialdata": {"rt": -1000, "trial_type": "single-audio", "word": "mummy", "stimulus": "/static/audio/wordpool/MUMMY.wav", "conditions": [12, 1600, "a", 12000], "internal_node_id": "0.0-83.0", "trial": 3, "time_elapsed": 557571, "serialpos": 2, "key_press": -1, "wordID": 931, "type": "PRES_AUD", "trial_index": 119}, "uniqueid": "MTK2639:3DQQ64TANHS0CBQHJQ7FIRUHHW6WPA", "dateTime": 1519166328193}, {"current_trial": 120, "trialdata": {"rt": -1000, "trial_type": "single-audio", "word": "termite", "stimulus": "/static/audio/wordpool/TERMITE.wav", "conditions": [12, 1600, "a", 12000], "internal_node_id": "0.0-84.0", "trial": 3, "time_elapsed": 560210, "serialpos": 3, "key_press": -1, "wordID": 1450, "type": "PRES_AUD", "trial_index": 120}, "uniqueid": "MTK2639:3DQQ64TANHS0CBQHJQ7FIRUHHW6WPA", "dateTime": 1519166330831}, {"current_trial": 121, "trialdata": {"rt": -1000, "trial_type": "single-audio", "word": "teacher", "stimulus": "/static/audio/wordpool/TEACHER.wav", "conditions": [12, 1600, "a", 12000], "internal_node_id": "0.0-85.0", "trial": 3, "time_elapsed": 562882, "serialpos": 4, "key_press": -1, "wordID": 1439, "type": "PRES_AUD", "trial_index": 121}, "uniqueid": "MTK2639:3DQQ64TANHS0CBQHJQ7FIRUHHW6WPA", "dateTime": 1519166333503}, {"current_trial": 122, "trialdata": {"rt": -1000, "trial_type": "single-audio", "word": "trench", "stimulus": "/static/audio/wordpool/TRENCH.wav", "conditions": [12, 1600, "a", 12000], "internal_node_id": "0.0-86.0", "trial": 3, "time_elapsed": 565636, "serialpos": 5, "key_press": -1, "wordID": 1502, "type": "PRES_AUD", "trial_index": 122}, "uniqueid": "MTK2639:3DQQ64TANHS0CBQHJQ7FIRUHHW6WPA", "dateTime": 1519166336257}, {"current_trial": 123, "trialdata": {"rt": -1000, "trial_type": "single-audio", "word": "bubble", "stimulus": "/static/audio/wordpool/BUBBLE.wav", "conditions": [12, 1600, "a", 12000], "internal_node_id": "0.0-87.0", "trial": 3, "time_elapsed": 568107, "serialpos": 6, "key_press": -1, "wordID": 182, "type": "PRES_AUD", "trial_index": 123}, "uniqueid": "MTK2639:3DQQ64TANHS0CBQHJQ7FIRUHHW6WPA", "dateTime": 1519166338728}, {"current_trial": 124, "trialdata": {"rt": -1000, "trial_type": "single-audio", "word": "jelly", "stimulus": "/static/audio/wordpool/JELLY.wav", "conditions": [12, 1600, "a", 12000], "internal_node_id": "0.0-88.0", "trial": 3, "time_elapsed": 570823, "serialpos": 7, "key_press": -1, "wordID": 754, "type": "PRES_AUD", "trial_index": 124}, "uniqueid": "MTK2639:3DQQ64TANHS0CBQHJQ7FIRUHHW6WPA", "dateTime": 1519166341444}, {"current_trial": 125, "trialdata": {"rt": -1000, "trial_type": "single-audio", "word": "custard", "stimulus": "/static/audio/wordpool/CUSTARD.wav", "conditions": [12, 1600, "a", 12000], "internal_node_id": "0.0-89.0", "trial": 3, "time_elapsed": 573452, "serialpos": 8, "key_press": -1, "wordID": 428, "type": "PRES_AUD", "trial_index": 125}, "uniqueid": "MTK2639:3DQQ64TANHS0CBQHJQ7FIRUHHW6WPA", "dateTime": 1519166344074}, {"current_trial": 126, "trialdata": {"rt": -1000, "trial_type": "single-audio", "word": "crib", "stimulus": "/static/audio/wordpool/CRIB.wav", "conditions": [12, 1600, "a", 12000], "internal_node_id": "0.0-90.0", "trial": 3, "time_elapsed": 575989, "serialpos": 9, "key_press": -1, "wordID": 406, "type": "PRES_AUD", "trial_index": 126}, "uniqueid": "MTK2639:3DQQ64TANHS0CBQHJQ7FIRUHHW6WPA", "dateTime": 1519166346611}, {"current_trial": 127, "trialdata": {"rt": -1000, "trial_type": "single-audio", "word": "velvet", "stimulus": "/static/audio/wordpool/VELVET.wav", "conditions": [12, 1600, "a", 12000], "internal_node_id": "0.0-91.0", "trial": 3, "time_elapsed": 578759, "serialpos": 10, "key_press": -1, "wordID": 1554, "type": "PRES_AUD", "trial_index": 127}, "uniqueid": "MTK2639:3DQQ64TANHS0CBQHJQ7FIRUHHW6WPA", "dateTime": 1519166349380}, {"current_trial": 128, "trialdata": {"rt": -1000, "trial_type": "single-audio", "word": "doughnut", "stimulus": "/static/audio/wordpool/DOUGHNUT.wav", "conditions": [12, 1600, "a", 12000], "internal_node_id": "0.0-92.0", "trial": 3, "time_elapsed": 581351, "serialpos": 11, "key_press": -1, "wordID": 489, "type": "PRES_AUD", "trial_index": 128}, "uniqueid": "MTK2639:3DQQ64TANHS0CBQHJQ7FIRUHHW6WPA", "dateTime": 1519166351984}, {"current_trial": 129, "trialdata": {"rt": -1, "trial_type": "single-stim", "stimulus": "", "internal_node_id": "0.0-93.0-0.0", "time_elapsed": 582743, "key_press": -1, "type": "PRE_RECALL_DELAY", "trial_index": 129}, "uniqueid": "MTK2639:3DQQ64TANHS0CBQHJQ7FIRUHHW6WPA", "dateTime": 1519166353365}, {"current_trial": 130, "trialdata": {"rt": -1000, "trial_type": "single-audio", "stimulus": "/static/audio/400Hz.wav", "internal_node_id": "0.0-94.0", "time_elapsed": 583246, "key_press": -1, "type": "PRE_RECALL_ALERT", "trial_index": 130}, "uniqueid": "MTK2639:3DQQ64TANHS0CBQHJQ7FIRUHHW6WPA", "dateTime": 1519166353867}, {"current_trial": 131, "trialdata": {"rt": [6440, 9167, 11641, 15328, 18826, 21773, 23975, 28439, 30944], "recwords": ["popcorn", "baby", "mummy", "teacher", "bubble", "jelly", "crib", "velvet", "donut"], "key_times": [2078, 2449, 2759, 3248, 4565, 4872, 5344, 6440, 7068, 7374, 7817, 8181, 9167, 9692, 9962, 10342, 10544, 10842, 11641, 12216, 12476, 12723, 13285, 13544, 13838, 14045, 15328, 16035, 16271, 16650, 17205, 17433, 18077, 18826, 19560, 19970, 20450, 20683, 21057, 21773, 22487, 22769, 23241, 23530, 23975, 24384, 24712, 25123, 25388, 25668, 26359, 27305, 27645, 28439, 29252, 29669, 30122, 30385, 30636, 30944], "trial_type": "free-recall", "conditions": [12, 1600, "a", 12000], "internal_node_id": "0.0-95.0-0.0", "key_presses": [80, 79, 80, 67, 79, 82, 78, 13, 66, 65, 66, 89, 13, 77, 85, 77, 77, 89, 13, 84, 69, 65, 67, 72, 69, 82, 13, 66, 85, 66, 66, 76, 69, 13, 74, 69, 76, 76, 89, 13, 67, 82, 73, 66, 13, 86, 69, 76, 86, 69, 89, 8, 84, 13, 68, 79, 78, 85, 84, 13], "trial": 3, "time_elapsed": 643252, "type": "FREE_RECALL", "trial_index": 131}, "uniqueid": "MTK2639:3DQQ64TANHS0CBQHJQ7FIRUHHW6WPA", "dateTime": 1519166413878}, {"current_trial": 132, "trialdata": {"rt": 1436, "trial_type": "text", "internal_node_id": "0.0-96.0", "time_elapsed": 646694, "key_press": 77, "type": "INSTRUCTIONS", "trial_index": 132}, "uniqueid": "MTK2639:3DQQ64TANHS0CBQHJQ7FIRUHHW6WPA", "dateTime": 1519166417315}, {"current_trial": 133, "trialdata": {"rt": [2519, 5492, 15987, 19785], "trial_type": "math-distractor", "key_times": [2002, 2212, 2519, 4989, 5218, 5492, 15257, 15469, 15987, 17376, 17741, 19785, 23873], "responses": ["18", "15", "15", "13"], "num2": [4, 8, 5, 9, 7], "num3": [8, 6, 3, 1, 9], "conditions": [24, 1600, "a", 24000], "internal_node_id": "0.0-97.0", "key_presses": [97, 104, 13, 97, 101, 13, 97, 101, 13, 97, 99, 13, 97], "trial": 4, "time_elapsed": 672699, "type": "DISTRACTOR", "trial_index": 133, "num1": [6, 1, 7, 3, 1]}, "uniqueid": "MTK2639:3DQQ64TANHS0CBQHJQ7FIRUHHW6WPA", "dateTime": 1519166443321}, {"current_trial": 134, "trialdata": {"rt": -1, "trial_type": "single-stim", "stimulus": "<p id=\"stim\">10</p>", "internal_node_id": "0.0-98.0-0.0", "time_elapsed": 675701, "key_press": -1, "trial_index": 134}, "uniqueid": "MTK2639:3DQQ64TANHS0CBQHJQ7FIRUHHW6WPA", "dateTime": 1519166446323}, {"current_trial": 135, "trialdata": {"rt": -1, "trial_type": "single-stim", "stimulus": "<p id=\"stim\">9</p>", "internal_node_id": "0.0-98.0-1.0", "time_elapsed": 676702, "key_press": -1, "trial_index": 135}, "uniqueid": "MTK2639:3DQQ64TANHS0CBQHJQ7FIRUHHW6WPA", "dateTime": 1519166447324}, {"current_trial": 136, "trialdata": {"rt": -1, "trial_type": "single-stim", "stimulus": "<p id=\"stim\">8</p>", "internal_node_id": "0.0-98.0-2.0", "time_elapsed": 677704, "key_press": -1, "trial_index": 136}, "uniqueid": "MTK2639:3DQQ64TANHS0CBQHJQ7FIRUHHW6WPA", "dateTime": 1519166448325}, {"current_trial": 137, "trialdata": {"rt": -1, "trial_type": "single-stim", "stimulus": "<p id=\"stim\">7</p>", "internal_node_id": "0.0-98.0-3.0", "time_elapsed": 678704, "key_press": -1, "trial_index": 137}, "uniqueid": "MTK2639:3DQQ64TANHS0CBQHJQ7FIRUHHW6WPA", "dateTime": 1519166449326}, {"current_trial": 138, "trialdata": {"rt": -1, "trial_type": "single-stim", "stimulus": "<p id=\"stim\">6</p>", "internal_node_id": "0.0-98.0-4.0", "time_elapsed": 679705, "key_press": -1, "trial_index": 138}, "uniqueid": "MTK2639:3DQQ64TANHS0CBQHJQ7FIRUHHW6WPA", "dateTime": 1519166450327}, {"current_trial": 139, "trialdata": {"rt": -1, "trial_type": "single-stim", "stimulus": "<p id=\"stim\">5</p>", "internal_node_id": "0.0-98.0-5.0", "time_elapsed": 680707, "key_press": -1, "trial_index": 139}, "uniqueid": "MTK2639:3DQQ64TANHS0CBQHJQ7FIRUHHW6WPA", "dateTime": 1519166451328}, {"current_trial": 140, "trialdata": {"rt": -1, "trial_type": "single-stim", "stimulus": "<p id=\"stim\">4</p>", "internal_node_id": "0.0-98.0-6.0", "time_elapsed": 681708, "key_press": -1, "trial_index": 140}, "uniqueid": "MTK2639:3DQQ64TANHS0CBQHJQ7FIRUHHW6WPA", "dateTime": 1519166452329}, {"current_trial": 141, "trialdata": {"rt": -1, "trial_type": "single-stim", "stimulus": "<p id=\"stim\">3</p>", "internal_node_id": "0.0-98.0-7.0", "time_elapsed": 682709, "key_press": -1, "trial_index": 141}, "uniqueid": "MTK2639:3DQQ64TANHS0CBQHJQ7FIRUHHW6WPA", "dateTime": 1519166453330}, {"current_trial": 142, "trialdata": {"rt": -1, "trial_type": "single-stim", "stimulus": "<p id=\"stim\">2</p>", "internal_node_id": "0.0-98.0-8.0", "time_elapsed": 683710, "key_press": -1, "trial_index": 142}, "uniqueid": "MTK2639:3DQQ64TANHS0CBQHJQ7FIRUHHW6WPA", "dateTime": 1519166454331}, {"current_trial": 143, "trialdata": {"rt": -1, "trial_type": "single-stim", "stimulus": "<p id=\"stim\">1</p>", "internal_node_id": "0.0-98.0-9.0", "time_elapsed": 684711, "key_press": -1, "trial_index": 143}, "uniqueid": "MTK2639:3DQQ64TANHS0CBQHJQ7FIRUHHW6WPA", "dateTime": 1519166455332}, {"current_trial": 144, "trialdata": {"rt": -1, "trial_type": "single-stim", "stimulus": "<p id=\"stim\">+</p>", "internal_node_id": "0.0-99.0-0.0", "time_elapsed": 686212, "key_press": -1, "type": "FIXATION", "trial_index": 144}, "uniqueid": "MTK2639:3DQQ64TANHS0CBQHJQ7FIRUHHW6WPA", "dateTime": 1519166456833}, {"current_trial": 145, "trialdata": {"rt": -1000, "trial_type": "single-audio", "word": "rifle", "stimulus": "/static/audio/wordpool/RIFLE.wav", "conditions": [24, 1600, "a", 24000], "internal_node_id": "0.0-100.0", "trial": 4, "time_elapsed": 688999, "serialpos": 0, "key_press": -1, "wordID": 1191, "type": "PRES_AUD", "trial_index": 145}, "uniqueid": "MTK2639:3DQQ64TANHS0CBQHJQ7FIRUHHW6WPA", "dateTime": 1519166459620}, {"current_trial": 146, "trialdata": {"rt": -1000, "trial_type": "single-audio", "word": "shoulder", "stimulus": "/static/audio/wordpool/SHOULDER.wav", "conditions": [24, 1600, "a", 24000], "internal_node_id": "0.0-101.0", "trial": 4, "time_elapsed": 691502, "serialpos": 1, "key_press": -1, "wordID": 1293, "type": "PRES_AUD", "trial_index": 146}, "uniqueid": "MTK2639:3DQQ64TANHS0CBQHJQ7FIRUHHW6WPA", "dateTime": 1519166462125}, {"current_trial": 147, "trialdata": {"rt": -1000, "trial_type": "single-audio", "word": "subway", "stimulus": "/static/audio/wordpool/SUBWAY.wav", "conditions": [24, 1600, "a", 24000], "internal_node_id": "0.0-102.0", "trial": 4, "time_elapsed": 694059, "serialpos": 2, "key_press": -1, "wordID": 1399, "type": "PRES_AUD", "trial_index": 147}, "uniqueid": "MTK2639:3DQQ64TANHS0CBQHJQ7FIRUHHW6WPA", "dateTime": 1519166464681}, {"current_trial": 148, "trialdata": {"rt": -1000, "trial_type": "single-audio", "word": "orange", "stimulus": "/static/audio/wordpool/ORANGE.wav", "conditions": [24, 1600, "a", 24000], "internal_node_id": "0.0-103.0", "trial": 4, "time_elapsed": 696664, "serialpos": 3, "key_press": -1, "wordID": 979, "type": "PRES_AUD", "trial_index": 148}, "uniqueid": "MTK2639:3DQQ64TANHS0CBQHJQ7FIRUHHW6WPA", "dateTime": 1519166467286}, {"current_trial": 149, "trialdata": {"rt": -1000, "trial_type": "single-audio", "word": "soda", "stimulus": "/static/audio/wordpool/SODA.wav", "conditions": [24, 1600, "a", 24000], "internal_node_id": "0.0-104.0", "trial": 4, "time_elapsed": 699114, "serialpos": 4, "key_press": -1, "wordID": 1340, "type": "PRES_AUD", "trial_index": 149}, "uniqueid": "MTK2639:3DQQ64TANHS0CBQHJQ7FIRUHHW6WPA", "dateTime": 1519166469735}, {"current_trial": 150, "trialdata": {"rt": -1000, "trial_type": "single-audio", "word": "sister", "stimulus": "/static/audio/wordpool/SISTER.wav", "conditions": [24, 1600, "a", 24000], "internal_node_id": "0.0-105.0", "trial": 4, "time_elapsed": 701567, "serialpos": 5, "key_press": -1, "wordID": 1311, "type": "PRES_AUD", "trial_index": 150}, "uniqueid": "MTK2639:3DQQ64TANHS0CBQHJQ7FIRUHHW6WPA", "dateTime": 1519166472188}, {"current_trial": 151, "trialdata": {"rt": -1000, "trial_type": "single-audio", "word": "parent", "stimulus": "/static/audio/wordpool/PARENT.wav", "conditions": [24, 1600, "a", 24000], "internal_node_id": "0.0-106.0", "trial": 4, "time_elapsed": 704083, "serialpos": 6, "key_press": -1, "wordID": 1012, "type": "PRES_AUD", "trial_index": 151}, "uniqueid": "MTK2639:3DQQ64TANHS0CBQHJQ7FIRUHHW6WPA", "dateTime": 1519166474705}, {"current_trial": 152, "trialdata": {"rt": -1000, "trial_type": "single-audio", "word": "candy", "stimulus": "/static/audio/wordpool/CANDY.wav", "conditions": [24, 1600, "a", 24000], "internal_node_id": "0.0-107.0", "trial": 4, "time_elapsed": 706557, "serialpos": 7, "key_press": -1, "wordID": 229, "type": "PRES_AUD", "trial_index": 152}, "uniqueid": "MTK2639:3DQQ64TANHS0CBQHJQ7FIRUHHW6WPA", "dateTime": 1519166477178}, {"current_trial": 153, "trialdata": {"rt": -1000, "trial_type": "single-audio", "word": "citrus", "stimulus": "/static/audio/wordpool/CITRUS.wav", "conditions": [24, 1600, "a", 24000], "internal_node_id": "0.0-108.0", "trial": 4, "time_elapsed": 709292, "serialpos": 8, "key_press": -1, "wordID": 312, "type": "PRES_AUD", "trial_index": 153}, "uniqueid": "MTK2639:3DQQ64TANHS0CBQHJQ7FIRUHHW6WPA", "dateTime": 1519166479914}, {"current_trial": 154, "trialdata": {"rt": -1000, "trial_type": "single-audio", "word": "fruit", "stimulus": "/static/audio/wordpool/FRUIT.wav", "conditions": [24, 1600, "a", 24000], "internal_node_id": "0.0-109.0", "trial": 4, "time_elapsed": 711959, "serialpos": 9, "key_press": -1, "wordID": 609, "type": "PRES_AUD", "trial_index": 154}, "uniqueid": "MTK2639:3DQQ64TANHS0CBQHJQ7FIRUHHW6WPA", "dateTime": 1519166482580}, {"current_trial": 155, "trialdata": {"rt": -1000, "trial_type": "single-audio", "word": "playground", "stimulus": "/static/audio/wordpool/PLAYGROUND.wav", "conditions": [24, 1600, "a", 24000], "internal_node_id": "0.0-110.0", "trial": 4, "time_elapsed": 714736, "serialpos": 10, "key_press": -1, "wordID": 1086, "type": "PRES_AUD", "trial_index": 155}, "uniqueid": "MTK2639:3DQQ64TANHS0CBQHJQ7FIRUHHW6WPA", "dateTime": 1519166485358}, {"current_trial": 156, "trialdata": {"rt": -1000, "trial_type": "single-audio", "word": "mustard", "stimulus": "/static/audio/wordpool/MUSTARD.wav", "conditions": [24, 1600, "a", 24000], "internal_node_id": "0.0-111.0", "trial": 4, "time_elapsed": 717419, "serialpos": 11, "key_press": -1, "wordID": 934, "type": "PRES_AUD", "trial_index": 156}, "uniqueid": "MTK2639:3DQQ64TANHS0CBQHJQ7FIRUHHW6WPA", "dateTime": 1519166488042}, {"current_trial": 157, "trialdata": {"rt": -1000, "trial_type": "single-audio", "word": "silk", "stimulus": "/static/audio/wordpool/SILK.wav", "conditions": [24, 1600, "a", 24000], "internal_node_id": "0.0-112.0", "trial": 4, "time_elapsed": 720184, "serialpos": 12, "key_press": -1, "wordID": 1306, "type": "PRES_AUD", "trial_index": 157}, "uniqueid": "MTK2639:3DQQ64TANHS0CBQHJQ7FIRUHHW6WPA", "dateTime": 1519166490806}, {"current_trial": 158, "trialdata": {"rt": -1000, "trial_type": "single-audio", "word": "snack", "stimulus": "/static/audio/wordpool/SNACK.wav", "conditions": [24, 1600, "a", 24000], "internal_node_id": "0.0-113.0", "trial": 4, "time_elapsed": 722893, "serialpos": 13, "key_press": -1, "wordID": 1330, "type": "PRES_AUD", "trial_index": 158}, "uniqueid": "MTK2639:3DQQ64TANHS0CBQHJQ7FIRUHHW6WPA", "dateTime": 1519166493514}, {"current_trial": 159, "trialdata": {"rt": -1000, "trial_type": "single-audio", "word": "brook", "stimulus": "/static/audio/wordpool/BROOK.wav", "conditions": [24, 1600, "a", 24000], "internal_node_id": "0.0-114.0", "trial": 4, "time_elapsed": 725563, "serialpos": 14, "key_press": -1, "wordID": 176, "type": "PRES_AUD", "trial_index": 159}, "uniqueid": "MTK2639:3DQQ64TANHS0CBQHJQ7FIRUHHW6WPA", "dateTime": 1519166496184}, {"current_trial": 160, "trialdata": {"rt": -1000, "trial_type": "single-audio", "word": "waitress", "stimulus": "/static/audio/wordpool/WAITRESS.wav", "conditions": [24, 1600, "a", 24000], "internal_node_id": "0.0-115.0", "trial": 4, "time_elapsed": 728092, "serialpos": 15, "key_press": -1, "wordID": 1580, "type": "PRES_AUD", "trial_index": 160}, "uniqueid": "MTK2639:3DQQ64TANHS0CBQHJQ7FIRUHHW6WPA", "dateTime": 1519166498713}, {"current_trial": 161, "trialdata": {"rt": -1000, "trial_type": "single-audio", "word": "police", "stimulus": "/static/audio/wordpool/POLICE.wav", "conditions": [24, 1600, "a", 24000], "internal_node_id": "0.0-116.0", "trial": 4, "time_elapsed": 730676, "serialpos": 16, "key_press": -1, "wordID": 1097, "type": "PRES_AUD", "trial_index": 161}, "uniqueid": "MTK2639:3DQQ64TANHS0CBQHJQ7FIRUHHW6WPA", "dateTime": 1519166501297}, {"current_trial": 162, "trialdata": {"rt": -1000, "trial_type": "single-audio", "word": "queen", "stimulus": "/static/audio/wordpool/QUEEN.wav", "conditions": [24, 1600, "a", 24000], "internal_node_id": "0.0-117.0", "trial": 4, "time_elapsed": 733152, "serialpos": 17, "key_press": -1, "wordID": 1148, "type": "PRES_AUD", "trial_index": 162}, "uniqueid": "MTK2639:3DQQ64TANHS0CBQHJQ7FIRUHHW6WPA", "dateTime": 1519166503774}, {"current_trial": 163, "trialdata": {"rt": -1000, "trial_type": "single-audio", "word": "cloud", "stimulus": "/static/audio/wordpool/CLOUD.wav", "conditions": [24, 1600, "a", 24000], "internal_node_id": "0.0-118.0", "trial": 4, "time_elapsed": 735752, "serialpos": 18, "key_press": -1, "wordID": 327, "type": "PRES_AUD", "trial_index": 163}, "uniqueid": "MTK2639:3DQQ64TANHS0CBQHJQ7FIRUHHW6WPA", "dateTime": 1519166506374}, {"current_trial": 164, "trialdata": {"rt": -1000, "trial_type": "single-audio", "word": "river", "stimulus": "/static/audio/wordpool/RIVER.wav", "conditions": [24, 1600, "a", 24000], "internal_node_id": "0.0-119.0", "trial": 4, "time_elapsed": 738267, "serialpos": 19, "key_press": -1, "wordID": 1193, "type": "PRES_AUD", "trial_index": 164}, "uniqueid": "MTK2639:3DQQ64TANHS0CBQHJQ7FIRUHHW6WPA", "dateTime": 1519166508889}, {"current_trial": 165, "trialdata": {"rt": -1000, "trial_type": "single-audio", "word": "snail", "stimulus": "/static/audio/wordpool/SNAIL.wav", "conditions": [24, 1600, "a", 24000], "internal_node_id": "0.0-120.0", "trial": 4, "time_elapsed": 740747, "serialpos": 20, "key_press": -1, "wordID": 1331, "type": "PRES_AUD", "trial_index": 165}, "uniqueid": "MTK2639:3DQQ64TANHS0CBQHJQ7FIRUHHW6WPA", "dateTime": 1519166511368}, {"current_trial": 166, "trialdata": {"rt": -1000, "trial_type": "single-audio", "word": "tortoise", "stimulus": "/static/audio/wordpool/TORTOISE.wav", "conditions": [24, 1600, "a", 24000], "internal_node_id": "0.0-121.0", "trial": 4, "time_elapsed": 743280, "serialpos": 21, "key_press": -1, "wordID": 1485, "type": "PRES_AUD", "trial_index": 166}, "uniqueid": "MTK2639:3DQQ64TANHS0CBQHJQ7FIRUHHW6WPA", "dateTime": 1519166513901}, {"current_trial": 167, "trialdata": {"rt": -1000, "trial_type": "single-audio", "word": "whistle", "stimulus": "/static/audio/wordpool/WHISTLE.wav", "conditions": [24, 1600, "a", 24000], "internal_node_id": "0.0-122.0", "trial": 4, "time_elapsed": 745886, "serialpos": 22, "key_press": -1, "wordID": 1605, "type": "PRES_AUD", "trial_index": 167}, "uniqueid": "MTK2639:3DQQ64TANHS0CBQHJQ7FIRUHHW6WPA", "dateTime": 1519166516507}, {"current_trial": 168, "trialdata": {"rt": -1000, "trial_type": "single-audio", "word": "fleet", "stimulus": "/static/audio/wordpool/FLEET.wav", "conditions": [24, 1600, "a", 24000], "internal_node_id": "0.0-123.0", "trial": 4, "time_elapsed": 748312, "serialpos": 23, "key_press": -1, "wordID": 577, "type": "PRES_AUD", "trial_index": 168}, "uniqueid": "MTK2639:3DQQ64TANHS0CBQHJQ7FIRUHHW6WPA", "dateTime": 1519166518933}, {"current_trial": 169, "trialdata": {"rt": -1, "trial_type": "single-stim", "stimulus": "", "internal_node_id": "0.0-124.0-0.0", "time_elapsed": 749537, "key_press": -1, "type": "PRE_RECALL_DELAY", "trial_index": 169}, "uniqueid": "MTK2639:3DQQ64TANHS0CBQHJQ7FIRUHHW6WPA", "dateTime": 1519166520158}, {"current_trial": 170, "trialdata": {"rt": -1000, "trial_type": "single-audio", "stimulus": "/static/audio/400Hz.wav", "internal_node_id": "0.0-125.0", "time_elapsed": 750039, "key_press": -1, "type": "PRE_RECALL_ALERT", "trial_index": 170}, "uniqueid": "MTK2639:3DQQ64TANHS0CBQHJQ7FIRUHHW6WPA", "dateTime": 1519166520660}, {"current_trial": 171, "trialdata": {"rt": [6219, 9089, 11114, 13312, 18813, 21806, 23553, 25700, 27669, 30061, 31881, 35276, 37776], "recwords": ["shoulder", "subway", "orange", "sister", "parent", "candy", "river", "queen", "cloud", "police", "snack", "playground", "sock"], "key_times": [2543, 2596, 2828, 3141, 3448, 3655, 4155, 5601, 6219, 6600, 6995, 7361, 7716, 8091, 8419, 9089, 9644, 9864, 10292, 10472, 10754, 10924, 11114, 11437, 11550, 11953, 12134, 12319, 12782, 13312, 13912, 14101, 14430, 14780, 14923, 15102, 16027, 16251, 16420, 16598, 17003, 17199, 18017, 18397, 18813, 19310, 19836, 19999, 20173, 20361, 21806, 22509, 22727, 22855, 23118, 23315, 23553, 24095, 24319, 24543, 24798, 25027, 25700, 26397, 26539, 26784, 27016, 27190, 27669, 28280, 28515, 28842, 29111, 29325, 29702, 30061, 30336, 30446, 30674, 30987, 31179, 31881, 32844, 33185, 33307, 33635, 34081, 34299, 34411, 34591, 34835, 34946, 35276, 36526, 36657, 36948, 37156, 37776], "trial_type": "free-recall", "conditions": [24, 1600, "a", 24000], "internal_node_id": "0.0-126.0-0.0", "key_presses": [83, 72, 79, 85, 76, 68, 69, 82, 13, 83, 85, 66, 87, 65, 89, 13, 79, 82, 65, 78, 71, 69, 13, 83, 73, 83, 84, 69, 82, 13, 80, 83, 82, 69, 78, 84, 37, 37, 37, 37, 8, 83, 8, 65, 13, 67, 65, 78, 68, 89, 13, 82, 73, 86, 69, 82, 13, 81, 85, 69, 69, 78, 13, 67, 76, 79, 85, 68, 13, 80, 79, 76, 73, 67, 69, 13, 83, 78, 65, 67, 75, 13, 80, 76, 65, 89, 71, 82, 79, 85, 78, 68, 13, 83, 79, 67, 75, 13], "trial": 4, "time_elapsed": 810055, "type": "FREE_RECALL", "trial_index": 171}, "uniqueid": "MTK2639:3DQQ64TANHS0CBQHJQ7FIRUHHW6WPA", "dateTime": 1519166580685}, {"current_trial": 172, "trialdata": {"rt": 41376, "trial_type": "text", "internal_node_id": "0.0-127.0", "time_elapsed": 853460, "key_press": 13, "type": "INSTRUCTIONS", "trial_index": 172}, "uniqueid": "MTK2639:3DQQ64TANHS0CBQHJQ7FIRUHHW6WPA", "dateTime": 1519166624081}, {"current_trial": 173, "trialdata": {"rt": [4655, 9012], "trial_type": "math-distractor", "key_times": [4048, 4341, 4655, 8419, 8733, 9012], "responses": ["18", "15"], "num2": [3, 4, 8], "num3": [6, 9, 9], "conditions": [24, 800, "a", 12000], "internal_node_id": "0.0-128.0", "key_presses": [97, 104, 13, 97, 101, 13], "trial": 5, "time_elapsed": 867469, "type": "DISTRACTOR", "trial_index": 173, "num1": [9, 2, 3]}, "uniqueid": "MTK2639:3DQQ64TANHS0CBQHJQ7FIRUHHW6WPA", "dateTime": 1519166638091}, {"current_trial": 174, "trialdata": {"rt": -1, "trial_type": "single-stim", "stimulus": "<p id=\"stim\">10</p>", "internal_node_id": "0.0-129.0-0.0", "time_elapsed": 870473, "key_press": -1, "trial_index": 174}, "uniqueid": "MTK2639:3DQQ64TANHS0CBQHJQ7FIRUHHW6WPA", "dateTime": 1519166641095}, {"current_trial": 175, "trialdata": {"rt": -1, "trial_type": "single-stim", "stimulus": "<p id=\"stim\">9</p>", "internal_node_id": "0.0-129.0-1.0", "time_elapsed": 871475, "key_press": -1, "trial_index": 175}, "uniqueid": "MTK2639:3DQQ64TANHS0CBQHJQ7FIRUHHW6WPA", "dateTime": 1519166642097}, {"current_trial": 176, "trialdata": {"rt": -1, "trial_type": "single-stim", "stimulus": "<p id=\"stim\">8</p>", "internal_node_id": "0.0-129.0-2.0", "time_elapsed": 872477, "key_press": -1, "trial_index": 176}, "uniqueid": "MTK2639:3DQQ64TANHS0CBQHJQ7FIRUHHW6WPA", "dateTime": 1519166643099}, {"current_trial": 177, "trialdata": {"rt": -1, "trial_type": "single-stim", "stimulus": "<p id=\"stim\">7</p>", "internal_node_id": "0.0-129.0-3.0", "time_elapsed": 873480, "key_press": -1, "trial_index": 177}, "uniqueid": "MTK2639:3DQQ64TANHS0CBQHJQ7FIRUHHW6WPA", "dateTime": 1519166644101}, {"current_trial": 178, "trialdata": {"rt": -1, "trial_type": "single-stim", "stimulus": "<p id=\"stim\">6</p>", "internal_node_id": "0.0-129.0-4.0", "time_elapsed": 874482, "key_press": -1, "trial_index": 178}, "uniqueid": "MTK2639:3DQQ64TANHS0CBQHJQ7FIRUHHW6WPA", "dateTime": 1519166645103}, {"current_trial": 179, "trialdata": {"rt": -1, "trial_type": "single-stim", "stimulus": "<p id=\"stim\">5</p>", "internal_node_id": "0.0-129.0-5.0", "time_elapsed": 875483, "key_press": -1, "trial_index": 179}, "uniqueid": "MTK2639:3DQQ64TANHS0CBQHJQ7FIRUHHW6WPA", "dateTime": 1519166646105}, {"current_trial": 180, "trialdata": {"rt": -1, "trial_type": "single-stim", "stimulus": "<p id=\"stim\">4</p>", "internal_node_id": "0.0-129.0-6.0", "time_elapsed": 876486, "key_press": -1, "trial_index": 180}, "uniqueid": "MTK2639:3DQQ64TANHS0CBQHJQ7FIRUHHW6WPA", "dateTime": 1519166647107}, {"current_trial": 181, "trialdata": {"rt": -1, "trial_type": "single-stim", "stimulus": "<p id=\"stim\">3</p>", "internal_node_id": "0.0-129.0-7.0", "time_elapsed": 877488, "key_press": -1, "trial_index": 181}, "uniqueid": "MTK2639:3DQQ64TANHS0CBQHJQ7FIRUHHW6WPA", "dateTime": 1519166648110}, {"current_trial": 182, "trialdata": {"rt": -1, "trial_type": "single-stim", "stimulus": "<p id=\"stim\">2</p>", "internal_node_id": "0.0-129.0-8.0", "time_elapsed": 878491, "key_press": -1, "trial_index": 182}, "uniqueid": "MTK2639:3DQQ64TANHS0CBQHJQ7FIRUHHW6WPA", "dateTime": 1519166649112}, {"current_trial": 183, "trialdata": {"rt": -1, "trial_type": "single-stim", "stimulus": "<p id=\"stim\">1</p>", "internal_node_id": "0.0-129.0-9.0", "time_elapsed": 879493, "key_press": -1, "trial_index": 183}, "uniqueid": "MTK2639:3DQQ64TANHS0CBQHJQ7FIRUHHW6WPA", "dateTime": 1519166650114}, {"current_trial": 184, "trialdata": {"rt": -1, "trial_type": "single-stim", "stimulus": "<p id=\"stim\">+</p>", "internal_node_id": "0.0-130.0-0.0", "time_elapsed": 880995, "key_press": -1, "type": "FIXATION", "trial_index": 184}, "uniqueid": "MTK2639:3DQQ64TANHS0CBQHJQ7FIRUHHW6WPA", "dateTime": 1519166651616}, {"current_trial": 185, "trialdata": {"rt": -1000, "trial_type": "single-audio", "word": "mammal", "stimulus": "/static/audio/wordpool/MAMMAL.wav", "conditions": [24, 800, "a", 12000], "internal_node_id": "0.0-131.0", "trial": 5, "time_elapsed": 882738, "serialpos": 0, "key_press": -1, "wordID": 860, "type": "PRES_AUD", "trial_index": 185}, "uniqueid": "MTK2639:3DQQ64TANHS0CBQHJQ7FIRUHHW6WPA", "dateTime": 1519166653359}, {"current_trial": 186, "trialdata": {"rt": -1000, "trial_type": "single-audio", "word": "bucket", "stimulus": "/static/audio/wordpool/BUCKET.wav", "conditions": [24, 800, "a", 12000], "internal_node_id": "0.0-132.0", "trial": 5, "time_elapsed": 884430, "serialpos": 1, "key_press": -1, "wordID": 183, "type": "PRES_AUD", "trial_index": 186}, "uniqueid": "MTK2639:3DQQ64TANHS0CBQHJQ7FIRUHHW6WPA", "dateTime": 1519166655051}, {"current_trial": 187, "trialdata": {"rt": -1000, "trial_type": "single-audio", "word": "lover", "stimulus": "/static/audio/wordpool/LOVER.wav", "conditions": [24, 800, "a", 12000], "internal_node_id": "0.0-133.0", "trial": 5, "time_elapsed": 886239, "serialpos": 2, "key_press": -1, "wordID": 845, "type": "PRES_AUD", "trial_index": 187}, "uniqueid": "MTK2639:3DQQ64TANHS0CBQHJQ7FIRUHHW6WPA", "dateTime": 1519166656860}, {"current_trial": 188, "trialdata": {"rt": -1000, "trial_type": "single-audio", "word": "camel", "stimulus": "/static/audio/wordpool/CAMEL.wav", "conditions": [24, 800, "a", 12000], "internal_node_id": "0.0-134.0", "trial": 5, "time_elapsed": 888077, "serialpos": 3, "key_press": -1, "wordID": 222, "type": "PRES_AUD", "trial_index": 188}, "uniqueid": "MTK2639:3DQQ64TANHS0CBQHJQ7FIRUHHW6WPA", "dateTime": 1519166658698}, {"current_trial": 189, "trialdata": {"rt": -1000, "trial_type": "single-audio", "word": "donkey", "stimulus": "/static/audio/wordpool/DONKEY.wav", "conditions": [24, 800, "a", 12000], "internal_node_id": "0.0-135.0", "trial": 5, "time_elapsed": 889798, "serialpos": 4, "key_press": -1, "wordID": 483, "type": "PRES_AUD", "trial_index": 189}, "uniqueid": "MTK2639:3DQQ64TANHS0CBQHJQ7FIRUHHW6WPA", "dateTime": 1519166660420}, {"current_trial": 190, "trialdata": {"rt": -1000, "trial_type": "single-audio", "word": "arm", "stimulus": "/static/audio/wordpool/ARM.wav", "conditions": [24, 800, "a", 12000], "internal_node_id": "0.0-136.0", "trial": 5, "time_elapsed": 891656, "serialpos": 5, "key_press": -1, "wordID": 37, "type": "PRES_AUD", "trial_index": 190}, "uniqueid": "MTK2639:3DQQ64TANHS0CBQHJQ7FIRUHHW6WPA", "dateTime": 1519166662278}, {"current_trial": 191, "trialdata": {"rt": -1000, "trial_type": "single-audio", "word": "shark", "stimulus": "/static/audio/wordpool/SHARK.wav", "conditions": [24, 800, "a", 12000], "internal_node_id": "0.0-137.0", "trial": 5, "time_elapsed": 893274, "serialpos": 6, "key_press": -1, "wordID": 1274, "type": "PRES_AUD", "trial_index": 191}, "uniqueid": "MTK2639:3DQQ64TANHS0CBQHJQ7FIRUHHW6WPA", "dateTime": 1519166663896}, {"current_trial": 192, "trialdata": {"rt": -1000, "trial_type": "single-audio", "word": "cigar", "stimulus": "/static/audio/wordpool/CIGAR.wav", "conditions": [24, 800, "a", 12000], "internal_node_id": "0.0-138.0", "trial": 5, "time_elapsed": 895088, "serialpos": 7, "key_press": -1, "wordID": 307, "type": "PRES_AUD", "trial_index": 192}, "uniqueid": "MTK2639:3DQQ64TANHS0CBQHJQ7FIRUHHW6WPA", "dateTime": 1519166665710}, {"current_trial": 193, "trialdata": {"rt": -1000, "trial_type": "single-audio", "word": "dime", "stimulus": "/static/audio/wordpool/DIME.wav", "conditions": [24, 800, "a", 12000], "internal_node_id": "0.0-139.0", "trial": 5, "time_elapsed": 897044, "serialpos": 8, "key_press": -1, "wordID": 465, "type": "PRES_AUD", "trial_index": 193}, "uniqueid": "MTK2639:3DQQ64TANHS0CBQHJQ7FIRUHHW6WPA", "dateTime": 1519166667665}, {"current_trial": 194, "trialdata": {"rt": -1000, "trial_type": "single-audio", "word": "coin", "stimulus": "/static/audio/wordpool/COIN.wav", "conditions": [24, 800, "a", 12000], "internal_node_id": "0.0-140.0", "trial": 5, "time_elapsed": 898974, "serialpos": 9, "key_press": -1, "wordID": 342, "type": "PRES_AUD", "trial_index": 194}, "uniqueid": "MTK2639:3DQQ64TANHS0CBQHJQ7FIRUHHW6WPA", "dateTime": 1519166669595}, {"current_trial": 195, "trialdata": {"rt": -1000, "trial_type": "single-audio", "word": "leg", "stimulus": "/static/audio/wordpool/LEG.wav", "conditions": [24, 800, "a", 12000], "internal_node_id": "0.0-141.0", "trial": 5, "time_elapsed": 900728, "serialpos": 10, "key_press": -1, "wordID": 808, "type": "PRES_AUD", "trial_index": 195}, "uniqueid": "MTK2639:3DQQ64TANHS0CBQHJQ7FIRUHHW6WPA", "dateTime": 1519166671349}, {"current_trial": 196, "trialdata": {"rt": -1000, "trial_type": "single-audio", "word": "harp", "stimulus": "/static/audio/wordpool/HARP.wav", "conditions": [24, 800, "a", 12000], "internal_node_id": "0.0-142.0", "trial": 5, "time_elapsed": 902444, "serialpos": 11, "key_press": -1, "wordID": 688, "type": "PRES_AUD", "trial_index": 196}, "uniqueid": "MTK2639:3DQQ64TANHS0CBQHJQ7FIRUHHW6WPA", "dateTime": 1519166673066}, {"current_trial": 197, "trialdata": {"rt": -1000, "trial_type": "single-audio", "word": "lizard", "stimulus": "/static/audio/wordpool/LIZARD.wav", "conditions": [24, 800, "a", 12000], "internal_node_id": "0.0-143.0", "trial": 5, "time_elapsed": 904303, "serialpos": 12, "key_press": -1, "wordID": 833, "type": "PRES_AUD", "trial_index": 197}, "uniqueid": "MTK2639:3DQQ64TANHS0CBQHJQ7FIRUHHW6WPA", "dateTime": 1519166674924}, {"current_trial": 198, "trialdata": {"rt": -1000, "trial_type": "single-audio", "word": "market", "stimulus": "/static/audio/wordpool/MARKET.wav", "conditions": [24, 800, "a", 12000], "internal_node_id": "0.0-144.0", "trial": 5, "time_elapsed": 906017, "serialpos": 13, "key_press": -1, "wordID": 870, "type": "PRES_AUD", "trial_index": 198}, "uniqueid": "MTK2639:3DQQ64TANHS0CBQHJQ7FIRUHHW6WPA", "dateTime": 1519166676638}, {"current_trial": 199, "trialdata": {"rt": -1000, "trial_type": "single-audio", "word": "airplane", "stimulus": "/static/audio/wordpool/AIRPLANE.wav", "conditions": [24, 800, "a", 12000], "internal_node_id": "0.0-145.0", "trial": 5, "time_elapsed": 907746, "serialpos": 14, "key_press": -1, "wordID": 11, "type": "PRES_AUD", "trial_index": 199}, "uniqueid": "MTK2639:3DQQ64TANHS0CBQHJQ7FIRUHHW6WPA", "dateTime": 1519166678367}, {"current_trial": 200, "trialdata": {"rt": -1000, "trial_type": "single-audio", "word": "pigeon", "stimulus": "/static/audio/wordpool/PIGEON.wav", "conditions": [24, 800, "a", 12000], "internal_node_id": "0.0-146.0", "trial": 5, "time_elapsed": 909743, "serialpos": 15, "key_press": -1, "wordID": 1064, "type": "PRES_AUD", "trial_index": 200}, "uniqueid": "MTK2639:3DQQ64TANHS0CBQHJQ7FIRUHHW6WPA", "dateTime": 1519166680365}, {"current_trial": 201, "trialdata": {"rt": -1000, "trial_type": "single-audio", "word": "spider", "stimulus": "/static/audio/wordpool/SPIDER.wav", "conditions": [24, 800, "a", 12000], "internal_node_id": "0.0-147.0", "trial": 5, "time_elapsed": 911587, "serialpos": 16, "key_press": -1, "wordID": 1350, "type": "PRES_AUD", "trial_index": 201}, "uniqueid": "MTK2639:3DQQ64TANHS0CBQHJQ7FIRUHHW6WPA", "dateTime": 1519166682208}, {"current_trial": 202, "trialdata": {"rt": -1000, "trial_type": "single-audio", "word": "gangster", "stimulus": "/static/audio/wordpool/GANGSTER.wav", "conditions": [24, 800, "a", 12000], "internal_node_id": "0.0-148.0", "trial": 5, "time_elapsed": 913198, "serialpos": 17, "key_press": -1, "wordID": 619, "type": "PRES_AUD", "trial_index": 202}, "uniqueid": "MTK2639:3DQQ64TANHS0CBQHJQ7FIRUHHW6WPA", "dateTime": 1519166683820}, {"current_trial": 203, "trialdata": {"rt": -1000, "trial_type": "single-audio", "word": "oyster", "stimulus": "/static/audio/wordpool/OYSTER.wav", "conditions": [24, 800, "a", 12000], "internal_node_id": "0.0-149.0", "trial": 5, "time_elapsed": 914848, "serialpos": 18, "key_press": -1, "wordID": 994, "type": "PRES_AUD", "trial_index": 203}, "uniqueid": "MTK2639:3DQQ64TANHS0CBQHJQ7FIRUHHW6WPA", "dateTime": 1519166685470}, {"current_trial": 204, "trialdata": {"rt": -1000, "trial_type": "single-audio", "word": "seafood", "stimulus": "/static/audio/wordpool/SEAFOOD.wav", "conditions": [24, 800, "a", 12000], "internal_node_id": "0.0-150.0", "trial": 5, "time_elapsed": 916775, "serialpos": 19, "key_press": -1, "wordID": 1259, "type": "PRES_AUD", "trial_index": 204}, "uniqueid": "MTK2639:3DQQ64TANHS0CBQHJQ7FIRUHHW6WPA", "dateTime": 1519166687396}, {"current_trial": 205, "trialdata": {"rt": -1000, "trial_type": "single-audio", "word": "poison", "stimulus": "/static/audio/wordpool/POISON.wav", "conditions": [24, 800, "a", 12000], "internal_node_id": "0.0-151.0", "trial": 5, "time_elapsed": 918522, "serialpos": 20, "key_press": -1, "wordID": 1095, "type": "PRES_AUD", "trial_index": 205}, "uniqueid": "MTK2639:3DQQ64TANHS0CBQHJQ7FIRUHHW6WPA", "dateTime": 1519166689143}, {"current_trial": 206, "trialdata": {"rt": -1000, "trial_type": "single-audio", "word": "robber", "stimulus": "/static/audio/wordpool/ROBBER.wav", "conditions": [24, 800, "a", 12000], "internal_node_id": "0.0-152.0", "trial": 5, "time_elapsed": 920227, "serialpos": 21, "key_press": -1, "wordID": 1196, "type": "PRES_AUD", "trial_index": 206}, "uniqueid": "MTK2639:3DQQ64TANHS0CBQHJQ7FIRUHHW6WPA", "dateTime": 1519166690848}, {"current_trial": 207, "trialdata": {"rt": -1000, "trial_type": "single-audio", "word": "item", "stimulus": "/static/audio/wordpool/ITEM.wav", "conditions": [24, 800, "a", 12000], "internal_node_id": "0.0-153.0", "trial": 5, "time_elapsed": 922008, "serialpos": 22, "key_press": -1, "wordID": 745, "type": "PRES_AUD", "trial_index": 207}, "uniqueid": "MTK2639:3DQQ64TANHS0CBQHJQ7FIRUHHW6WPA", "dateTime": 1519166692630}, {"current_trial": 208, "trialdata": {"rt": -1000, "trial_type": "single-audio", "word": "brandy", "stimulus": "/static/audio/wordpool/BRANDY.wav", "conditions": [24, 800, "a", 12000], "internal_node_id": "0.0-154.0", "trial": 5, "time_elapsed": 923645, "serialpos": 23, "key_press": -1, "wordID": 168, "type": "PRES_AUD", "trial_index": 208}, "uniqueid": "MTK2639:3DQQ64TANHS0CBQHJQ7FIRUHHW6WPA", "dateTime": 1519166694267}, {"current_trial": 209, "trialdata": {"rt": -1, "trial_type": "single-stim", "stimulus": "", "internal_node_id": "0.0-155.0-0.0", "time_elapsed": 924947, "key_press": -1, "type": "PRE_RECALL_DELAY", "trial_index": 209}, "uniqueid": "MTK2639:3DQQ64TANHS0CBQHJQ7FIRUHHW6WPA", "dateTime": 1519166695569}, {"current_trial": 210, "trialdata": {"rt": -1000, "trial_type": "single-audio", "stimulus": "/static/audio/400Hz.wav", "internal_node_id": "0.0-156.0", "time_elapsed": 925449, "key_press": -1, "type": "PRE_RECALL_ALERT", "trial_index": 210}, "uniqueid": "MTK2639:3DQQ64TANHS0CBQHJQ7FIRUHHW6WPA", "dateTime": 1519166696071}, {"current_trial": 211, "trialdata": {"rt": [3596, 7822, 11270, 15682, 19297, 21881, 25092, 27544, 29938, 34228], "recwords": ["item", "gangster", "spider", "bucket", "lover", "arm", "camel", "coin", "leg", "lizard"], "key_times": [1346, 1741, 1984, 2387, 3596, 4714, 5018, 5771, 6039, 6356, 6718, 6969, 7159, 7822, 8408, 9011, 9181, 9570, 9881, 10203, 11270, 11756, 12067, 12409, 12942, 13308, 13619, 15682, 17427, 17650, 17958, 18228, 18454, 19297, 20342, 20952, 21450, 21881, 22628, 22885, 23342, 23704, 24511, 25092, 26036, 26708, 26946, 27220, 27544, 27850, 28432, 28766, 29938, 30464, 30790, 31195, 31577, 32119, 32481, 34228], "trial_type": "free-recall", "conditions": [24, 800, "a", 12000], "internal_node_id": "0.0-157.0-0.0", "key_presses": [73, 84, 69, 77, 13, 71, 65, 78, 71, 83, 84, 69, 82, 13, 83, 80, 73, 68, 69, 82, 13, 66, 85, 67, 75, 69, 84, 13, 76, 79, 86, 69, 82, 13, 65, 82, 77, 13, 67, 65, 77, 69, 76, 13, 67, 79, 73, 78, 13, 76, 69, 71, 13, 76, 73, 90, 65, 82, 68, 13], "trial": 5, "time_elapsed": 985455, "type": "FREE_RECALL", "trial_index": 211}, "uniqueid": "MTK2639:3DQQ64TANHS0CBQHJQ7FIRUHHW6WPA", "dateTime": 1519166756084}, {"current_trial": 212, "trialdata": {"rt": 3261, "trial_type": "text", "internal_node_id": "0.0-158.0", "time_elapsed": 990725, "key_press": 13, "type": "INSTRUCTIONS", "trial_index": 212}, "uniqueid": "MTK2639:3DQQ64TANHS0CBQHJQ7FIRUHHW6WPA", "dateTime": 1519166761346}, {"current_trial": 213, "trialdata": {"rt": [2436, 4623, 8720], "trial_type": "math-distractor", "key_times": [1813, 2027, 2436, 3765, 4111, 4623, 6044, 7583, 8200, 8720, 11001, 11820], "responses": ["11", "14", "9"], "num2": [2, 6, 3, 6], "num3": [1, 4, 1, 1], "conditions": [12, 800, "a", 12000], "internal_node_id": "0.0-159.0", "key_presses": [97, 97, 13, 97, 100, 13, 97, 8, 105, 13, 97, 99], "trial": 6, "time_elapsed": 1004740, "type": "DISTRACTOR", "trial_index": 213, "num1": [8, 4, 5, 6]}, "uniqueid": "MTK2639:3DQQ64TANHS0CBQHJQ7FIRUHHW6WPA", "dateTime": 1519166775362}, {"current_trial": 214, "trialdata": {"rt": -1, "trial_type": "single-stim", "stimulus": "<p id=\"stim\">10</p>", "internal_node_id": "0.0-160.0-0.0", "time_elapsed": 1007762, "key_press": -1, "trial_index": 214}, "uniqueid": "MTK2639:3DQQ64TANHS0CBQHJQ7FIRUHHW6WPA", "dateTime": 1519166778383}, {"current_trial": 215, "trialdata": {"rt": -1, "trial_type": "single-stim", "stimulus": "<p id=\"stim\">9</p>", "internal_node_id": "0.0-160.0-1.0", "time_elapsed": 1008766, "key_press": -1, "trial_index": 215}, "uniqueid": "MTK2639:3DQQ64TANHS0CBQHJQ7FIRUHHW6WPA", "dateTime": 1519166779387}, {"current_trial": 216, "trialdata": {"rt": -1, "trial_type": "single-stim", "stimulus": "<p id=\"stim\">8</p>", "internal_node_id": "0.0-160.0-2.0", "time_elapsed": 1009767, "key_press": -1, "trial_index": 216}, "uniqueid": "MTK2639:3DQQ64TANHS0CBQHJQ7FIRUHHW6WPA", "dateTime": 1519166780388}, {"current_trial": 217, "trialdata": {"rt": -1, "trial_type": "single-stim", "stimulus": "<p id=\"stim\">7</p>", "internal_node_id": "0.0-160.0-3.0", "time_elapsed": 1010768, "key_press": -1, "trial_index": 217}, "uniqueid": "MTK2639:3DQQ64TANHS0CBQHJQ7FIRUHHW6WPA", "dateTime": 1519166781389}, {"current_trial": 218, "trialdata": {"rt": -1, "trial_type": "single-stim", "stimulus": "<p id=\"stim\">6</p>", "internal_node_id": "0.0-160.0-4.0", "time_elapsed": 1011769, "key_press": -1, "trial_index": 218}, "uniqueid": "MTK2639:3DQQ64TANHS0CBQHJQ7FIRUHHW6WPA", "dateTime": 1519166782391}, {"current_trial": 219, "trialdata": {"rt": -1, "trial_type": "single-stim", "stimulus": "<p id=\"stim\">5</p>", "internal_node_id": "0.0-160.0-5.0", "time_elapsed": 1012771, "key_press": -1, "trial_index": 219}, "uniqueid": "MTK2639:3DQQ64TANHS0CBQHJQ7FIRUHHW6WPA", "dateTime": 1519166783393}, {"current_trial": 220, "trialdata": {"rt": -1, "trial_type": "single-stim", "stimulus": "<p id=\"stim\">4</p>", "internal_node_id": "0.0-160.0-6.0", "time_elapsed": 1013772, "key_press": -1, "trial_index": 220}, "uniqueid": "MTK2639:3DQQ64TANHS0CBQHJQ7FIRUHHW6WPA", "dateTime": 1519166784394}, {"current_trial": 221, "trialdata": {"rt": -1, "trial_type": "single-stim", "stimulus": "<p id=\"stim\">3</p>", "internal_node_id": "0.0-160.0-7.0", "time_elapsed": 1014773, "key_press": -1, "trial_index": 221}, "uniqueid": "MTK2639:3DQQ64TANHS0CBQHJQ7FIRUHHW6WPA", "dateTime": 1519166785395}, {"current_trial": 222, "trialdata": {"rt": -1, "trial_type": "single-stim", "stimulus": "<p id=\"stim\">2</p>", "internal_node_id": "0.0-160.0-8.0", "time_elapsed": 1015774, "key_press": -1, "trial_index": 222}, "uniqueid": "MTK2639:3DQQ64TANHS0CBQHJQ7FIRUHHW6WPA", "dateTime": 1519166786396}, {"current_trial": 223, "trialdata": {"rt": -1, "trial_type": "single-stim", "stimulus": "<p id=\"stim\">1</p>", "internal_node_id": "0.0-160.0-9.0", "time_elapsed": 1016775, "key_press": -1, "trial_index": 223}, "uniqueid": "MTK2639:3DQQ64TANHS0CBQHJQ7FIRUHHW6WPA", "dateTime": 1519166787397}, {"current_trial": 224, "trialdata": {"rt": -1, "trial_type": "single-stim", "stimulus": "<p id=\"stim\">+</p>", "internal_node_id": "0.0-161.0-0.0", "time_elapsed": 1018277, "key_press": -1, "type": "FIXATION", "trial_index": 224}, "uniqueid": "MTK2639:3DQQ64TANHS0CBQHJQ7FIRUHHW6WPA", "dateTime": 1519166788898}, {"current_trial": 225, "trialdata": {"rt": -1000, "trial_type": "single-audio", "word": "tourist", "stimulus": "/static/audio/wordpool/TOURIST.wav", "conditions": [12, 800, "a", 12000], "internal_node_id": "0.0-162.0", "trial": 6, "time_elapsed": 1020024, "serialpos": 0, "key_press": -1, "wordID": 1487, "type": "PRES_AUD", "trial_index": 225}, "uniqueid": "MTK2639:3DQQ64TANHS0CBQHJQ7FIRUHHW6WPA", "dateTime": 1519166790646}, {"current_trial": 226, "trialdata": {"rt": -1000, "trial_type": "single-audio", "word": "knapsack", "stimulus": "/static/audio/wordpool/KNAPSACK.wav", "conditions": [12, 800, "a", 12000], "internal_node_id": "0.0-163.0", "trial": 6, "time_elapsed": 1021758, "serialpos": 1, "key_press": -1, "wordID": 782, "type": "PRES_AUD", "trial_index": 226}, "uniqueid": "MTK2639:3DQQ64TANHS0CBQHJQ7FIRUHHW6WPA", "dateTime": 1519166792379}, {"current_trial": 227, "trialdata": {"rt": -1000, "trial_type": "single-audio", "word": "chipmunk", "stimulus": "/static/audio/wordpool/CHIPMUNK.wav", "conditions": [12, 800, "a", 12000], "internal_node_id": "0.0-164.0", "trial": 6, "time_elapsed": 1023721, "serialpos": 2, "key_press": -1, "wordID": 303, "type": "PRES_AUD", "trial_index": 227}, "uniqueid": "MTK2639:3DQQ64TANHS0CBQHJQ7FIRUHHW6WPA", "dateTime": 1519166794342}, {"current_trial": 228, "trialdata": {"rt": -1000, "trial_type": "single-audio", "word": "trombone", "stimulus": "/static/audio/wordpool/TROMBONE.wav", "conditions": [12, 800, "a", 12000], "internal_node_id": "0.0-165.0", "trial": 6, "time_elapsed": 1025479, "serialpos": 3, "key_press": -1, "wordID": 1507, "type": "PRES_AUD", "trial_index": 228}, "uniqueid": "MTK2639:3DQQ64TANHS0CBQHJQ7FIRUHHW6WPA", "dateTime": 1519166796100}, {"current_trial": 229, "trialdata": {"rt": -1000, "trial_type": "single-audio", "word": "turnip", "stimulus": "/static/audio/wordpool/TURNIP.wav", "conditions": [12, 800, "a", 12000], "internal_node_id": "0.0-166.0", "trial": 6, "time_elapsed": 1027462, "serialpos": 4, "key_press": -1, "wordID": 1520, "type": "PRES_AUD", "trial_index": 229}, "uniqueid": "MTK2639:3DQQ64TANHS0CBQHJQ7FIRUHHW6WPA", "dateTime": 1519166798083}, {"current_trial": 230, "trialdata": {"rt": -1000, "trial_type": "single-audio", "word": "buggy", "stimulus": "/static/audio/wordpool/BUGGY.wav", "conditions": [12, 800, "a", 12000], "internal_node_id": "0.0-167.0", "trial": 6, "time_elapsed": 1029121, "serialpos": 5, "key_press": -1, "wordID": 187, "type": "PRES_AUD", "trial_index": 230}, "uniqueid": "MTK2639:3DQQ64TANHS0CBQHJQ7FIRUHHW6WPA", "dateTime": 1519166799742}, {"current_trial": 231, "trialdata": {"rt": -1000, "trial_type": "single-audio", "word": "suitcase", "stimulus": "/static/audio/wordpool/SUITCASE.wav", "conditions": [12, 800, "a", 12000], "internal_node_id": "0.0-168.0", "trial": 6, "time_elapsed": 1030988, "serialpos": 6, "key_press": -1, "wordID": 1402, "type": "PRES_AUD", "trial_index": 231}, "uniqueid": "MTK2639:3DQQ64TANHS0CBQHJQ7FIRUHHW6WPA", "dateTime": 1519166801610}, {"current_trial": 232, "trialdata": {"rt": -1000, "trial_type": "single-audio", "word": "sphinx", "stimulus": "/static/audio/wordpool/SPHINX.wav", "conditions": [12, 800, "a", 12000], "internal_node_id": "0.0-169.0", "trial": 6, "time_elapsed": 1032953, "serialpos": 7, "key_press": -1, "wordID": 1348, "type": "PRES_AUD", "trial_index": 232}, "uniqueid": "MTK2639:3DQQ64TANHS0CBQHJQ7FIRUHHW6WPA", "dateTime": 1519166803575}, {"current_trial": 233, "trialdata": {"rt": -1000, "trial_type": "single-audio", "word": "college", "stimulus": "/static/audio/wordpool/COLLEGE.wav", "conditions": [12, 800, "a", 12000], "internal_node_id": "0.0-170.0", "trial": 6, "time_elapsed": 1034675, "serialpos": 8, "key_press": -1, "wordID": 345, "type": "PRES_AUD", "trial_index": 233}, "uniqueid": "MTK2639:3DQQ64TANHS0CBQHJQ7FIRUHHW6WPA", "dateTime": 1519166805297}, {"current_trial": 234, "trialdata": {"rt": -1000, "trial_type": "single-audio", "word": "package", "stimulus": "/static/audio/wordpool/PACKAGE.wav", "conditions": [12, 800, "a", 12000], "internal_node_id": "0.0-171.0", "trial": 6, "time_elapsed": 1036523, "serialpos": 9, "key_press": -1, "wordID": 996, "type": "PRES_AUD", "trial_index": 234}, "uniqueid": "MTK2639:3DQQ64TANHS0CBQHJQ7FIRUHHW6WPA", "dateTime": 1519166807145}, {"current_trial": 235, "trialdata": {"rt": -1000, "trial_type": "single-audio", "word": "beef", "stimulus": "/static/audio/wordpool/BEEF.wav", "conditions": [12, 800, "a", 12000], "internal_node_id": "0.0-172.0", "trial": 6, "time_elapsed": 1038234, "serialpos": 10, "key_press": -1, "wordID": 112, "type": "PRES_AUD", "trial_index": 235}, "uniqueid": "MTK2639:3DQQ64TANHS0CBQHJQ7FIRUHHW6WPA", "dateTime": 1519166808855}, {"current_trial": 236, "trialdata": {"rt": -1000, "trial_type": "single-audio", "word": "cattle", "stimulus": "/static/audio/wordpool/CATTLE.wav", "conditions": [12, 800, "a", 12000], "internal_node_id": "0.0-173.0", "trial": 6, "time_elapsed": 1040083, "serialpos": 11, "key_press": -1, "wordID": 260, "type": "PRES_AUD", "trial_index": 236}, "uniqueid": "MTK2639:3DQQ64TANHS0CBQHJQ7FIRUHHW6WPA", "dateTime": 1519166810704}, {"current_trial": 237, "trialdata": {"rt": -1, "trial_type": "single-stim", "stimulus": "", "internal_node_id": "0.0-174.0-0.0", "time_elapsed": 1041365, "key_press": -1, "type": "PRE_RECALL_DELAY", "trial_index": 237}, "uniqueid": "MTK2639:3DQQ64TANHS0CBQHJQ7FIRUHHW6WPA", "dateTime": 1519166811986}, {"current_trial": 238, "trialdata": {"rt": -1000, "trial_type": "single-audio", "stimulus": "/static/audio/400Hz.wav", "internal_node_id": "0.0-175.0", "time_elapsed": 1041866, "key_press": -1, "type": "PRE_RECALL_ALERT", "trial_index": 238}, "uniqueid": "MTK2639:3DQQ64TANHS0CBQHJQ7FIRUHHW6WPA", "dateTime": 1519166812487}, {"current_trial": 239, "trialdata": {"rt": [5133, 7876, 14851, 18893], "recwords": ["trombone", "buggy", "package", "suitcase"], "key_times": [2195, 2402, 2872, 3141, 3420, 3630, 3915, 4297, 5133, 5930, 6212, 6619, 6792, 7003, 7876, 8466, 8870, 9409, 9739, 10798, 11183, 11483, 12367, 12591, 12764, 13222, 13907, 14851, 16211, 16683, 16903, 17169, 17432, 17715, 17972, 18291, 18893], "trial_type": "free-recall", "conditions": [12, 800, "a", 12000], "internal_node_id": "0.0-176.0-0.0", "key_presses": [84, 82, 79, 77, 66, 79, 78, 69, 13, 66, 85, 71, 71, 89, 13, 80, 65, 67, 72, 65, 71, 69, 37, 37, 37, 8, 75, 13, 83, 85, 73, 84, 67, 65, 83, 69, 13], "trial": 6, "time_elapsed": 1101872, "type": "FREE_RECALL", "trial_index": 239}, "uniqueid": "MTK2639:3DQQ64TANHS0CBQHJQ7FIRUHHW6WPA", "dateTime": 1519166872500}, {"current_trial": 240, "trialdata": {"rt": 6005, "trial_type": "text", "internal_node_id": "0.0-177.0", "time_elapsed": 1109887, "key_press": 32, "type": "INSTRUCTIONS", "trial_index": 240}, "uniqueid": "MTK2639:3DQQ64TANHS0CBQHJQ7FIRUHHW6WPA", "dateTime": 1519166880508}, {"current_trial": 241, "trialdata": {"rt": [4305, 7597, 9432, 11404, 13947, 16050, 18182, 23478], "trial_type": "math-distractor", "key_times": [3783, 3999, 4305, 7073, 7329, 7597, 8832, 9094, 9432, 10807, 11043, 11404, 13377, 13636, 13947, 15370, 15642, 16050, 17630, 17865, 18182, 22919, 23136, 23478], "responses": ["13", "15", "13", "15", "16", "15", "17", "12"], "num2": [2, 6, 7, 1, 2, 4, 9, 4, 1], "num3": [5, 6, 3, 9, 8, 6, 7, 5, 1], "conditions": [12, 1600, "a", 24000], "internal_node_id": "0.0-178.0", "key_presses": [97, 99, 13, 97, 101, 13, 97, 99, 13, 97, 101, 13, 97, 102, 13, 97, 101, 13, 97, 103, 13, 97, 98, 13], "trial": 7, "time_elapsed": 1135892, "type": "DISTRACTOR", "trial_index": 241, "num1": [6, 3, 3, 5, 6, 5, 1, 3, 6]}, "uniqueid": "MTK2639:3DQQ64TANHS0CBQHJQ7FIRUHHW6WPA", "dateTime": 1519166906513}, {"current_trial": 242, "trialdata": {"rt": -1, "trial_type": "single-stim", "stimulus": "<p id=\"stim\">10</p>", "internal_node_id": "0.0-179.0-0.0", "time_elapsed": 1138895, "key_press": -1, "trial_index": 242}, "uniqueid": "MTK2639:3DQQ64TANHS0CBQHJQ7FIRUHHW6WPA", "dateTime": 1519166909516}, {"current_trial": 243, "trialdata": {"rt": -1, "trial_type": "single-stim", "stimulus": "<p id=\"stim\">9</p>", "internal_node_id": "0.0-179.0-1.0", "time_elapsed": 1139896, "key_press": -1, "trial_index": 243}, "uniqueid": "MTK2639:3DQQ64TANHS0CBQHJQ7FIRUHHW6WPA", "dateTime": 1519166910518}, {"current_trial": 244, "trialdata": {"rt": -1, "trial_type": "single-stim", "stimulus": "<p id=\"stim\">8</p>", "internal_node_id": "0.0-179.0-2.0", "time_elapsed": 1140898, "key_press": -1, "trial_index": 244}, "uniqueid": "MTK2639:3DQQ64TANHS0CBQHJQ7FIRUHHW6WPA", "dateTime": 1519166911519}, {"current_trial": 245, "trialdata": {"rt": -1, "trial_type": "single-stim", "stimulus": "<p id=\"stim\">7</p>", "internal_node_id": "0.0-179.0-3.0", "time_elapsed": 1141899, "key_press": -1, "trial_index": 245}, "uniqueid": "MTK2639:3DQQ64TANHS0CBQHJQ7FIRUHHW6WPA", "dateTime": 1519166912520}, {"current_trial": 246, "trialdata": {"rt": -1, "trial_type": "single-stim", "stimulus": "<p id=\"stim\">6</p>", "internal_node_id": "0.0-179.0-4.0", "time_elapsed": 1142900, "key_press": -1, "trial_index": 246}, "uniqueid": "MTK2639:3DQQ64TANHS0CBQHJQ7FIRUHHW6WPA", "dateTime": 1519166913521}, {"current_trial": 247, "trialdata": {"rt": -1, "trial_type": "single-stim", "stimulus": "<p id=\"stim\">5</p>", "internal_node_id": "0.0-179.0-5.0", "time_elapsed": 1143901, "key_press": -1, "trial_index": 247}, "uniqueid": "MTK2639:3DQQ64TANHS0CBQHJQ7FIRUHHW6WPA", "dateTime": 1519166914522}, {"current_trial": 248, "trialdata": {"rt": -1, "trial_type": "single-stim", "stimulus": "<p id=\"stim\">4</p>", "internal_node_id": "0.0-179.0-6.0", "time_elapsed": 1144902, "key_press": -1, "trial_index": 248}, "uniqueid": "MTK2639:3DQQ64TANHS0CBQHJQ7FIRUHHW6WPA", "dateTime": 1519166915523}, {"current_trial": 249, "trialdata": {"rt": -1, "trial_type": "single-stim", "stimulus": "<p id=\"stim\">3</p>", "internal_node_id": "0.0-179.0-7.0", "time_elapsed": 1145903, "key_press": -1, "trial_index": 249}, "uniqueid": "MTK2639:3DQQ64TANHS0CBQHJQ7FIRUHHW6WPA", "dateTime": 1519166916524}, {"current_trial": 250, "trialdata": {"rt": -1, "trial_type": "single-stim", "stimulus": "<p id=\"stim\">2</p>", "internal_node_id": "0.0-179.0-8.0", "time_elapsed": 1146904, "key_press": -1, "trial_index": 250}, "uniqueid": "MTK2639:3DQQ64TANHS0CBQHJQ7FIRUHHW6WPA", "dateTime": 1519166917525}, {"current_trial": 251, "trialdata": {"rt": -1, "trial_type": "single-stim", "stimulus": "<p id=\"stim\">1</p>", "internal_node_id": "0.0-179.0-9.0", "time_elapsed": 1147905, "key_press": -1, "trial_index": 251}, "uniqueid": "MTK2639:3DQQ64TANHS0CBQHJQ7FIRUHHW6WPA", "dateTime": 1519166918539}, {"current_trial": 252, "trialdata": {"rt": -1, "trial_type": "single-stim", "stimulus": "<p id=\"stim\">+</p>", "internal_node_id": "0.0-180.0-0.0", "time_elapsed": 1149420, "key_press": -1, "type": "FIXATION", "trial_index": 252}, "uniqueid": "MTK2639:3DQQ64TANHS0CBQHJQ7FIRUHHW6WPA", "dateTime": 1519166920041}, {"current_trial": 253, "trialdata": {"rt": -1000, "trial_type": "single-audio", "word": "motel", "stimulus": "/static/audio/wordpool/MOTEL.wav", "conditions": [12, 1600, "a", 24000], "internal_node_id": "0.0-181.0", "trial": 7, "time_elapsed": 1152087, "serialpos": 0, "key_press": -1, "wordID": 918, "type": "PRES_AUD", "trial_index": 253}, "uniqueid": "MTK2639:3DQQ64TANHS0CBQHJQ7FIRUHHW6WPA", "dateTime": 1519166922709}, {"current_trial": 254, "trialdata": {"rt": -1000, "trial_type": "single-audio", "word": "infant", "stimulus": "/static/audio/wordpool/INFANT.wav", "conditions": [12, 1600, "a", 24000], "internal_node_id": "0.0-182.0", "trial": 7, "time_elapsed": 1154515, "serialpos": 1, "key_press": -1, "wordID": 736, "type": "PRES_AUD", "trial_index": 254}, "uniqueid": "MTK2639:3DQQ64TANHS0CBQHJQ7FIRUHHW6WPA", "dateTime": 1519166925137}, {"current_trial": 255, "trialdata": {"rt": -1000, "trial_type": "single-audio", "word": "lily", "stimulus": "/static/audio/wordpool/LILY.wav", "conditi