{"assignmentId": "33ISQZVXPQT84OB8XUL8MXO7OWSCCI", "workerId": "MTK2202", "questiondata": {"origin": "United States", "strat-rehearsal": "0", "marital": "Single", "education": "Some college", "ethnicity": "Not Hispanic", "color_depth": 24, "distracted": "No", "wrote-notes": "No", "strat-other": "", "screen_width": 1366, "avail_screen_width": 1366, "avail_screen_height": 728, "strat-image": "60", "language": "english", "gender": "Male", "age": "34", "gender_other": "", "race": ["White"], "strat-categorize": "11", "pixel_depth": 24, "strat-spatial": "0", "strat-story": "13", "race_other": "", "screen_height": 768}, "bonus": 0, "hitId": "3X878VYTIEP78Z2S7DYWPXLC29G7FB", "counterbalance": 2730, "useragent": "Mozilla/5.0 (Windows NT 10.0; Win64; x64) AppleWebKit/537.36 (KHTML, like Gecko) Chrome/63.0.3239.132 Safari/537.36", "eventdata": [{"eventtype": "initialized", "interval": 0, "value": null, "timestamp": 1516824550474}, {"eventtype": "window_resize", "interval": 0, "value": [1362, 713], "timestamp": 1516824550474}, {"eventtype": "window_resize", "interval": 1797549, "value": [1366, 677], "timestamp": 1516826348023}, {"eventtype": "focus", "interval": 447869, "value": "off", "timestamp": 1516826795892}, {"eventtype": "focus", "interval": 8665, "value": "on", "timestamp": 1516826804557}, {"eventtype": "focus", "interval": 1435, "value": "off", "timestamp": 1516826805992}, {"eventtype": "focus", "interval": 37900, "value": "on", "timestamp": 1516826843892}, {"eventtype": "focus", "interval": 79383, "value": "off", "timestamp": 1516826923275}, {"eventtype": "focus", "interval": 56190, "value": "on", "timestamp": 1516826979465}, {"eventtype": "focus", "interval": 1350, "value": "off", "timestamp": 1516826980815}, {"eventtype": "focus", "interval": 28498, "value": "on", "timestamp": 1516827009313}, {"eventtype": "focus", "interval": 140968, "value": "off", "timestamp": 1516827150281}, {"eventtype": "focus", "interval": 33546, "value": "on", "timestamp": 1516827183827}, {"eventtype": "focus", "interval": 87131, "value": "off", "timestamp": 1516827270958}, {"eventtype": "focus", "interval": 642536, "value": "on", "timestamp": 1516827913494}], "data": [{"current_trial": 0, "trialdata": {"rt": 2372, "trial_type": "text", "internal_node_id": "0.0-0.0", "time_elapsed": 2375, "key_press": 32, "type": "INSTRUCTIONS", "trial_index": 0}, "uniqueid": "MTK2202:33ISQZVXPQT84OB8XUL8MXO7OWSCCI", "dateTime": 1516824553743}, {"current_trial": 1, "trialdata": {"rt": 27455, "trial_type": "text", "internal_node_id": "0.0-1.0", "time_elapsed": 29833, "key_press": 32, "type": "INSTRUCTIONS", "trial_index": 1}, "uniqueid": "MTK2202:33ISQZVXPQT84OB8XUL8MXO7OWSCCI", "dateTime": 1516824581201}, {"current_trial": 2, "trialdata": {"rt": [10920], "trial_type": "audio-test", "responses": ["ocean"], "internal_node_id": "0.0-2.0", "time_elapsed": 40783, "type": "AUDIO_TEST", "trial_index": 2}, "uniqueid": "MTK2202:33ISQZVXPQT84OB8XUL8MXO7OWSCCI", "dateTime": 1516824592150}, {"current_trial": 3, "trialdata": {"rt": [7270], "trial_type": "audio-test", "responses": ["crystal"], "internal_node_id": "0.0-3.0", "time_elapsed": 48057, "type": "AUDIO_TEST", "trial_index": 3}, "uniqueid": "MTK2202:33ISQZVXPQT84OB8XUL8MXO7OWSCCI", "dateTime": 1516824599424}, {"current_trial": 4, "trialdata": {"rt": [6637], "trial_type": "audio-test", "responses": ["spice"], "internal_node_id": "0.0-4.0", "time_elapsed": 54698, "type": "AUDIO_TEST", "trial_index": 4}, "uniqueid": "MTK2202:33ISQZVXPQT84OB8XUL8MXO7OWSCCI", "dateTime": 1516824606065}, {"current_trial": 5, "trialdata": {"rt": 20437, "trial_type": "survey-text", "responses": "{\"Q0\":\"2am\",\"Q1\":\"10am\",\"Q2\":\"4\"}", "internal_node_id": "0.0-5.0", "time_elapsed": 75889, "type": "SLEEP_SURVEY", "trial_index": 5}, "uniqueid": "MTK2202:33ISQZVXPQT84OB8XUL8MXO7OWSCCI", "dateTime": 1516824627256}, {"current_trial": 6, "trialdata": {"rt": 38053, "trial_type": "text", "internal_node_id": "0.0-6.0", "time_elapsed": 114945, "key_press": 40, "type": "INSTRUCTIONS", "trial_index": 6}, "uniqueid": "MTK2202:33ISQZVXPQT84OB8XUL8MXO7OWSCCI", "dateTime": 1516824666312}, {"current_trial": 7, "trialdata": {"rt": 28501, "trial_type": "text", "internal_node_id": "0.0-7.0", "time_elapsed": 143947, "key_press": 32, "type": "INSTRUCTIONS", "trial_index": 7}, "uniqueid": "MTK2202:33ISQZVXPQT84OB8XUL8MXO7OWSCCI", "dateTime": 1516824695315}, {"current_trial": 8, "trialdata": {"rt": 17062, "trial_type": "text", "internal_node_id": "0.0-8.0", "time_elapsed": 161511, "key_press": 32, "type": "INSTRUCTIONS", "trial_index": 8}, "uniqueid": "MTK2202:33ISQZVXPQT84OB8XUL8MXO7OWSCCI", "dateTime": 1516824712878}, {"current_trial": 9, "trialdata": {"rt": [6355, 10231, 14809], "trial_type": "math-distractor", "key_times": [5130, 5505, 6355, 9615, 10231, 14083, 14270, 14809], "responses": ["13", "8", "20"], "num2": [7, 3, 9, 9], "num3": [3, 4, 3, 2], "conditions": [18, 1200, "v", 18000], "internal_node_id": "0.0-9.0", "key_presses": [49, 51, 13, 56, 13, 50, 48, 13], "trial": 0, "time_elapsed": 180518, "type": "DISTRACTOR", "trial_index": 9, "num1": [3, 1, 8, 5]}, "uniqueid": "MTK2202:33ISQZVXPQT84OB8XUL8MXO7OWSCCI", "dateTime": 1516824731885}, {"current_trial": 10, "trialdata": {"rt": 114, "trial_type": "single-stim", "stimulus": "<p id=\"stim\">10</p>", "internal_node_id": "0.0-10.0-0.0", "time_elapsed": 183521, "key_press": 13, "trial_index": 10}, "uniqueid": "MTK2202:33ISQZVXPQT84OB8XUL8MXO7OWSCCI", "dateTime": 1516824734888}, {"current_trial": 11, "trialdata": {"rt": -1, "trial_type": "single-stim", "stimulus": "<p id=\"stim\">9</p>", "internal_node_id": "0.0-10.0-1.0", "time_elapsed": 184524, "key_press": -1, "trial_index": 11}, "uniqueid": "MTK2202:33ISQZVXPQT84OB8XUL8MXO7OWSCCI", "dateTime": 1516824735891}, {"current_trial": 12, "trialdata": {"rt": -1, "trial_type": "single-stim", "stimulus": "<p id=\"stim\">8</p>", "internal_node_id": "0.0-10.0-2.0", "time_elapsed": 185526, "key_press": -1, "trial_index": 12}, "uniqueid": "MTK2202:33ISQZVXPQT84OB8XUL8MXO7OWSCCI", "dateTime": 1516824736893}, {"current_trial": 13, "trialdata": {"rt": -1, "trial_type": "single-stim", "stimulus": "<p id=\"stim\">7</p>", "internal_node_id": "0.0-10.0-3.0", "time_elapsed": 186527, "key_press": -1, "trial_index": 13}, "uniqueid": "MTK2202:33ISQZVXPQT84OB8XUL8MXO7OWSCCI", "dateTime": 1516824737894}, {"current_trial": 14, "trialdata": {"rt": -1, "trial_type": "single-stim", "stimulus": "<p id=\"stim\">6</p>", "internal_node_id": "0.0-10.0-4.0", "time_elapsed": 187529, "key_press": -1, "trial_index": 14}, "uniqueid": "MTK2202:33ISQZVXPQT84OB8XUL8MXO7OWSCCI", "dateTime": 1516824738897}, {"current_trial": 15, "trialdata": {"rt": -1, "trial_type": "single-stim", "stimulus": "<p id=\"stim\">5</p>", "internal_node_id": "0.0-10.0-5.0", "time_elapsed": 188531, "key_press": -1, "trial_index": 15}, "uniqueid": "MTK2202:33ISQZVXPQT84OB8XUL8MXO7OWSCCI", "dateTime": 1516824739898}, {"current_trial": 16, "trialdata": {"rt": -1, "trial_type": "single-stim", "stimulus": "<p id=\"stim\">4</p>", "internal_node_id": "0.0-10.0-6.0", "time_elapsed": 189532, "key_press": -1, "trial_index": 16}, "uniqueid": "MTK2202:33ISQZVXPQT84OB8XUL8MXO7OWSCCI", "dateTime": 1516824740899}, {"current_trial": 17, "trialdata": {"rt": -1, "trial_type": "single-stim", "stimulus": "<p id=\"stim\">3</p>", "internal_node_id": "0.0-10.0-7.0", "time_elapsed": 190534, "key_press": -1, "trial_index": 17}, "uniqueid": "MTK2202:33ISQZVXPQT84OB8XUL8MXO7OWSCCI", "dateTime": 1516824741902}, {"current_trial": 18, "trialdata": {"rt": -1, "trial_type": "single-stim", "stimulus": "<p id=\"stim\">2</p>", "internal_node_id": "0.0-10.0-8.0", "time_elapsed": 191536, "key_press": -1, "trial_index": 18}, "uniqueid": "MTK2202:33ISQZVXPQT84OB8XUL8MXO7OWSCCI", "dateTime": 1516824742903}, {"current_trial": 19, "trialdata": {"rt": -1, "trial_type": "single-stim", "stimulus": "<p id=\"stim\">1</p>", "internal_node_id": "0.0-10.0-9.0", "time_elapsed": 192538, "key_press": -1, "trial_index": 19}, "uniqueid": "MTK2202:33ISQZVXPQT84OB8XUL8MXO7OWSCCI", "dateTime": 1516824743905}, {"current_trial": 20, "trialdata": {"rt": -1, "trial_type": "single-stim", "stimulus": "<p id=\"stim\">+</p>", "internal_node_id": "0.0-11.0-0.0", "time_elapsed": 194039, "key_press": -1, "type": "FIXATION", "trial_index": 20}, "uniqueid": "MTK2202:33ISQZVXPQT84OB8XUL8MXO7OWSCCI", "dateTime": 1516824745406}, {"current_trial": 21, "trialdata": {"rt": -1, "trial_type": "single-stim", "word": "gavel", "stimulus": "<p id=\"stim\">GAVEL</p>", "conditions": [18, 1200, "v", 18000], "internal_node_id": "0.0-12.0", "trial": 0, "time_elapsed": 195241, "serialpos": 0, "key_press": -1, "wordID": 626, "type": "PRES_VIS", "trial_index": 21}, "uniqueid": "MTK2202:33ISQZVXPQT84OB8XUL8MXO7OWSCCI", "dateTime": 1516824746608}, {"current_trial": 22, "trialdata": {"rt": -1, "trial_type": "single-stim", "word": "eyelash", "stimulus": "<p id=\"stim\">EYELASH</p>", "conditions": [18, 1200, "v", 18000], "internal_node_id": "0.0-13.0", "trial": 0, "time_elapsed": 197285, "serialpos": 1, "key_press": -1, "wordID": 545, "type": "PRES_VIS", "trial_index": 22}, "uniqueid": "MTK2202:33ISQZVXPQT84OB8XUL8MXO7OWSCCI", "dateTime": 1516824748652}, {"current_trial": 23, "trialdata": {"rt": -1, "trial_type": "single-stim", "word": "custard", "stimulus": "<p id=\"stim\">CUSTARD</p>", "conditions": [18, 1200, "v", 18000], "internal_node_id": "0.0-14.0", "trial": 0, "time_elapsed": 199655, "serialpos": 2, "key_press": -1, "wordID": 428, "type": "PRES_VIS", "trial_index": 23}, "uniqueid": "MTK2202:33ISQZVXPQT84OB8XUL8MXO7OWSCCI", "dateTime": 1516824751023}, {"current_trial": 24, "trialdata": {"rt": -1, "trial_type": "single-stim", "word": "jury", "stimulus": "<p id=\"stim\">JURY</p>", "conditions": [18, 1200, "v", 18000], "internal_node_id": "0.0-15.0", "trial": 0, "time_elapsed": 202060, "serialpos": 3, "key_press": -1, "wordID": 765, "type": "PRES_VIS", "trial_index": 24}, "uniqueid": "MTK2202:33ISQZVXPQT84OB8XUL8MXO7OWSCCI", "dateTime": 1516824753427}, {"current_trial": 25, "trialdata": {"rt": -1, "trial_type": "single-stim", "word": "fleet", "stimulus": "<p id=\"stim\">FLEET</p>", "conditions": [18, 1200, "v", 18000], "internal_node_id": "0.0-16.0", "trial": 0, "time_elapsed": 204445, "serialpos": 4, "key_press": -1, "wordID": 577, "type": "PRES_VIS", "trial_index": 25}, "uniqueid": "MTK2202:33ISQZVXPQT84OB8XUL8MXO7OWSCCI", "dateTime": 1516824755812}, {"current_trial": 26, "trialdata": {"rt": -1, "trial_type": "single-stim", "word": "keeper", "stimulus": "<p id=\"stim\">KEEPER</p>", "conditions": [18, 1200, "v", 18000], "internal_node_id": "0.0-17.0", "trial": 0, "time_elapsed": 206770, "serialpos": 5, "key_press": -1, "wordID": 768, "type": "PRES_VIS", "trial_index": 26}, "uniqueid": "MTK2202:33ISQZVXPQT84OB8XUL8MXO7OWSCCI", "dateTime": 1516824758137}, {"current_trial": 27, "trialdata": {"rt": -1, "trial_type": "single-stim", "word": "carriage", "stimulus": "<p id=\"stim\">CARRIAGE</p>", "conditions": [18, 1200, "v", 18000], "internal_node_id": "0.0-18.0", "trial": 0, "time_elapsed": 208843, "serialpos": 6, "key_press": -1, "wordID": 247, "type": "PRES_VIS", "trial_index": 27}, "uniqueid": "MTK2202:33ISQZVXPQT84OB8XUL8MXO7OWSCCI", "dateTime": 1516824760211}, {"current_trial": 28, "trialdata": {"rt": -1, "trial_type": "single-stim", "word": "hound", "stimulus": "<p id=\"stim\">HOUND</p>", "conditions": [18, 1200, "v", 18000], "internal_node_id": "0.0-19.0", "trial": 0, "time_elapsed": 211045, "serialpos": 7, "key_press": -1, "wordID": 723, "type": "PRES_VIS", "trial_index": 28}, "uniqueid": "MTK2202:33ISQZVXPQT84OB8XUL8MXO7OWSCCI", "dateTime": 1516824762413}, {"current_trial": 29, "trialdata": {"rt": -1, "trial_type": "single-stim", "word": "diner", "stimulus": "<p id=\"stim\">DINER</p>", "conditions": [18, 1200, "v", 18000], "internal_node_id": "0.0-20.0", "trial": 0, "time_elapsed": 213301, "serialpos": 8, "key_press": -1, "wordID": 466, "type": "PRES_VIS", "trial_index": 29}, "uniqueid": "MTK2202:33ISQZVXPQT84OB8XUL8MXO7OWSCCI", "dateTime": 1516824764668}, {"current_trial": 30, "trialdata": {"rt": -1, "trial_type": "single-stim", "word": "skirt", "stimulus": "<p id=\"stim\">SKIRT</p>", "conditions": [18, 1200, "v", 18000], "internal_node_id": "0.0-21.0", "trial": 0, "time_elapsed": 215400, "serialpos": 9, "key_press": -1, "wordID": 1318, "type": "PRES_VIS", "trial_index": 30}, "uniqueid": "MTK2202:33ISQZVXPQT84OB8XUL8MXO7OWSCCI", "dateTime": 1516824766767}, {"current_trial": 31, "trialdata": {"rt": -1, "trial_type": "single-stim", "word": "pastry", "stimulus": "<p id=\"stim\">PASTRY</p>", "conditions": [18, 1200, "v", 18000], "internal_node_id": "0.0-22.0", "trial": 0, "time_elapsed": 217477, "serialpos": 10, "key_press": -1, "wordID": 1021, "type": "PRES_VIS", "trial_index": 31}, "uniqueid": "MTK2202:33ISQZVXPQT84OB8XUL8MXO7OWSCCI", "dateTime": 1516824768844}, {"current_trial": 32, "trialdata": {"rt": -1, "trial_type": "single-stim", "word": "wife", "stimulus": "<p id=\"stim\">WIFE</p>", "conditions": [18, 1200, "v", 18000], "internal_node_id": "0.0-23.0", "trial": 0, "time_elapsed": 219533, "serialpos": 11, "key_press": -1, "wordID": 1608, "type": "PRES_VIS", "trial_index": 32}, "uniqueid": "MTK2202:33ISQZVXPQT84OB8XUL8MXO7OWSCCI", "dateTime": 1516824770900}, {"current_trial": 33, "trialdata": {"rt": -1, "trial_type": "single-stim", "word": "hawk", "stimulus": "<p id=\"stim\">HAWK</p>", "conditions": [18, 1200, "v", 18000], "internal_node_id": "0.0-24.0", "trial": 0, "time_elapsed": 221549, "serialpos": 12, "key_press": -1, "wordID": 691, "type": "PRES_VIS", "trial_index": 33}, "uniqueid": "MTK2202:33ISQZVXPQT84OB8XUL8MXO7OWSCCI", "dateTime": 1516824772916}, {"current_trial": 34, "trialdata": {"rt": -1, "trial_type": "single-stim", "word": "wardrobe", "stimulus": "<p id=\"stim\">WARDROBE</p>", "conditions": [18, 1200, "v", 18000], "internal_node_id": "0.0-25.0", "trial": 0, "time_elapsed": 223642, "serialpos": 13, "key_press": -1, "wordID": 1586, "type": "PRES_VIS", "trial_index": 34}, "uniqueid": "MTK2202:33ISQZVXPQT84OB8XUL8MXO7OWSCCI", "dateTime": 1516824775009}, {"current_trial": 35, "trialdata": {"rt": -1, "trial_type": "single-stim", "word": "freezer", "stimulus": "<p id=\"stim\">FREEZER</p>", "conditions": [18, 1200, "v", 18000], "internal_node_id": "0.0-26.0", "trial": 0, "time_elapsed": 226020, "serialpos": 14, "key_press": -1, "wordID": 603, "type": "PRES_VIS", "trial_index": 35}, "uniqueid": "MTK2202:33ISQZVXPQT84OB8XUL8MXO7OWSCCI", "dateTime": 1516824777387}, {"current_trial": 36, "trialdata": {"rt": -1, "trial_type": "single-stim", "word": "patient", "stimulus": "<p id=\"stim\">PATIENT</p>", "conditions": [18, 1200, "v", 18000], "internal_node_id": "0.0-27.0", "trial": 0, "time_elapsed": 228264, "serialpos": 15, "key_press": -1, "wordID": 1023, "type": "PRES_VIS", "trial_index": 36}, "uniqueid": "MTK2202:33ISQZVXPQT84OB8XUL8MXO7OWSCCI", "dateTime": 1516824779631}, {"current_trial": 37, "trialdata": {"rt": -1, "trial_type": "single-stim", "word": "tutu", "stimulus": "<p id=\"stim\">TUTU</p>", "conditions": [18, 1200, "v", 18000], "internal_node_id": "0.0-28.0", "trial": 0, "time_elapsed": 230447, "serialpos": 16, "key_press": -1, "wordID": 1523, "type": "PRES_VIS", "trial_index": 37}, "uniqueid": "MTK2202:33ISQZVXPQT84OB8XUL8MXO7OWSCCI", "dateTime": 1516824781814}, {"current_trial": 38, "trialdata": {"rt": -1, "trial_type": "single-stim", "word": "crown", "stimulus": "<p id=\"stim\">CROWN</p>", "conditions": [18, 1200, "v", 18000], "internal_node_id": "0.0-29.0", "trial": 0, "time_elapsed": 232671, "serialpos": 17, "key_press": -1, "wordID": 414, "type": "PRES_VIS", "trial_index": 38}, "uniqueid": "MTK2202:33ISQZVXPQT84OB8XUL8MXO7OWSCCI", "dateTime": 1516824784038}, {"current_trial": 39, "trialdata": {"rt": -1, "trial_type": "single-stim", "stimulus": "", "internal_node_id": "0.0-30.0-0.0", "time_elapsed": 234995, "key_press": -1, "type": "PRE_RECALL_DELAY", "trial_index": 39}, "uniqueid": "MTK2202:33ISQZVXPQT84OB8XUL8MXO7OWSCCI", "dateTime": 1516824786362}, {"current_trial": 40, "trialdata": {"rt": -1000, "trial_type": "single-audio", "stimulus": "/static/audio/400Hz.wav", "internal_node_id": "0.0-31.0", "time_elapsed": 235509, "key_press": -1, "type": "PRE_RECALL_ALERT", "trial_index": 40}, "uniqueid": "MTK2202:33ISQZVXPQT84OB8XUL8MXO7OWSCCI", "dateTime": 1516824786876}, {"current_trial": 41, "trialdata": {"rt": [1752, 3278, 4784, 17875, 20472, 23704, 34276, 35765, 51416], "recwords": ["wife", "crown", "gavel", "wordrobe", "", "", "'", "", ""], "key_times": [961, 1093, 1261, 1465, 1752, 2268, 2511, 2637, 2781, 2974, 3278, 3820, 3960, 4194, 4347, 4519, 4784, 13890, 14346, 14902, 15239, 15472, 15605, 15910, 16116, 17875, 20472, 23704, 33063, 34276, 35765, 51416, 53271, 53645, 54348, 54865, 55496, 58980, 59386], "trial_type": "free-recall", "conditions": [18, 1200, "v", 18000], "internal_node_id": "0.0-32.0-0.0", "key_presses": [87, 73, 70, 69, 13, 67, 82, 79, 87, 78, 13, 71, 65, 86, 69, 76, 13, 87, 79, 82, 68, 82, 79, 66, 69, 13, 13, 13, 222, 13, 13, 32, 38, 40, 39, 37, 16, 16, 56], "trial": 0, "time_elapsed": 295512, "type": "FREE_RECALL", "trial_index": 41}, "uniqueid": "MTK2202:33ISQZVXPQT84OB8XUL8MXO7OWSCCI", "dateTime": 1516824846882}, {"current_trial": 42, "trialdata": {"rt": 1736, "trial_type": "text", "internal_node_id": "0.0-33.0", "time_elapsed": 299253, "key_press": 32, "type": "INSTRUCTIONS", "trial_index": 42}, "uniqueid": "MTK2202:33ISQZVXPQT84OB8XUL8MXO7OWSCCI", "dateTime": 1516824850620}, {"current_trial": 43, "trialdata": {"rt": [3681, 6487, 9992, 16928], "trial_type": "math-distractor", "key_times": [2691, 3108, 3681, 5564, 5863, 6487, 9148, 9420, 9992, 16124, 16450, 16928], "responses": ["10", "16", "17", "16"], "num2": [2, 7, 1, 4, 5], "num3": [3, 2, 9, 3, 8], "conditions": [18, 1200, "v", 18000], "internal_node_id": "0.0-34.0", "key_presses": [49, 48, 13, 49, 54, 13, 49, 55, 13, 49, 54, 13], "trial": 1, "time_elapsed": 319257, "type": "DISTRACTOR", "trial_index": 43, "num1": [5, 7, 7, 9, 9]}, "uniqueid": "MTK2202:33ISQZVXPQT84OB8XUL8MXO7OWSCCI", "dateTime": 1516824870624}, {"current_trial": 44, "trialdata": {"rt": -1, "trial_type": "single-stim", "stimulus": "<p id=\"stim\">10</p>", "internal_node_id": "0.0-35.0-0.0", "time_elapsed": 322259, "key_press": -1, "trial_index": 44}, "uniqueid": "MTK2202:33ISQZVXPQT84OB8XUL8MXO7OWSCCI", "dateTime": 1516824873626}, {"current_trial": 45, "trialdata": {"rt": -1, "trial_type": "single-stim", "stimulus": "<p id=\"stim\">9</p>", "internal_node_id": "0.0-35.0-1.0", "time_elapsed": 323261, "key_press": -1, "trial_index": 45}, "uniqueid": "MTK2202:33ISQZVXPQT84OB8XUL8MXO7OWSCCI", "dateTime": 1516824874628}, {"current_trial": 46, "trialdata": {"rt": -1, "trial_type": "single-stim", "stimulus": "<p id=\"stim\">8</p>", "internal_node_id": "0.0-35.0-2.0", "time_elapsed": 324262, "key_press": -1, "trial_index": 46}, "uniqueid": "MTK2202:33ISQZVXPQT84OB8XUL8MXO7OWSCCI", "dateTime": 1516824875629}, {"current_trial": 47, "trialdata": {"rt": -1, "trial_type": "single-stim", "stimulus": "<p id=\"stim\">7</p>", "internal_node_id": "0.0-35.0-3.0", "time_elapsed": 325263, "key_press": -1, "trial_index": 47}, "uniqueid": "MTK2202:33ISQZVXPQT84OB8XUL8MXO7OWSCCI", "dateTime": 1516824876630}, {"current_trial": 48, "trialdata": {"rt": -1, "trial_type": "single-stim", "stimulus": "<p id=\"stim\">6</p>", "internal_node_id": "0.0-35.0-4.0", "time_elapsed": 326266, "key_press": -1, "trial_index": 48}, "uniqueid": "MTK2202:33ISQZVXPQT84OB8XUL8MXO7OWSCCI", "dateTime": 1516824877633}, {"current_trial": 49, "trialdata": {"rt": -1, "trial_type": "single-stim", "stimulus": "<p id=\"stim\">5</p>", "internal_node_id": "0.0-35.0-5.0", "time_elapsed": 327267, "key_press": -1, "trial_index": 49}, "uniqueid": "MTK2202:33ISQZVXPQT84OB8XUL8MXO7OWSCCI", "dateTime": 1516824878634}, {"current_trial": 50, "trialdata": {"rt": -1, "trial_type": "single-stim", "stimulus": "<p id=\"stim\">4</p>", "internal_node_id": "0.0-35.0-6.0", "time_elapsed": 328268, "key_press": -1, "trial_index": 50}, "uniqueid": "MTK2202:33ISQZVXPQT84OB8XUL8MXO7OWSCCI", "dateTime": 1516824879635}, {"current_trial": 51, "trialdata": {"rt": -1, "trial_type": "single-stim", "stimulus": "<p id=\"stim\">3</p>", "internal_node_id": "0.0-35.0-7.0", "time_elapsed": 329271, "key_press": -1, "trial_index": 51}, "uniqueid": "MTK2202:33ISQZVXPQT84OB8XUL8MXO7OWSCCI", "dateTime": 1516824880638}, {"current_trial": 52, "trialdata": {"rt": -1, "trial_type": "single-stim", "stimulus": "<p id=\"stim\">2</p>", "internal_node_id": "0.0-35.0-8.0", "time_elapsed": 330272, "key_press": -1, "trial_index": 52}, "uniqueid": "MTK2202:33ISQZVXPQT84OB8XUL8MXO7OWSCCI", "dateTime": 1516824881639}, {"current_trial": 53, "trialdata": {"rt": -1, "trial_type": "single-stim", "stimulus": "<p id=\"stim\">1</p>", "internal_node_id": "0.0-35.0-9.0", "time_elapsed": 331273, "key_press": -1, "trial_index": 53}, "uniqueid": "MTK2202:33ISQZVXPQT84OB8XUL8MXO7OWSCCI", "dateTime": 1516824882641}, {"current_trial": 54, "trialdata": {"rt": -1, "trial_type": "single-stim", "stimulus": "<p id=\"stim\">+</p>", "internal_node_id": "0.0-36.0-0.0", "time_elapsed": 332775, "key_press": -1, "type": "FIXATION", "trial_index": 54}, "uniqueid": "MTK2202:33ISQZVXPQT84OB8XUL8MXO7OWSCCI", "dateTime": 1516824884142}, {"current_trial": 55, "trialdata": {"rt": -1, "trial_type": "single-stim", "word": "lizard", "stimulus": "<p id=\"stim\">LIZARD</p>", "conditions": [18, 1200, "v", 18000], "internal_node_id": "0.0-37.0", "trial": 1, "time_elapsed": 333976, "serialpos": 0, "key_press": -1, "wordID": 833, "type": "PRES_VIS", "trial_index": 55}, "uniqueid": "MTK2202:33ISQZVXPQT84OB8XUL8MXO7OWSCCI", "dateTime": 1516824885343}, {"current_trial": 56, "trialdata": {"rt": -1, "trial_type": "single-stim", "word": "sidewalk", "stimulus": "<p id=\"stim\">SIDEWALK</p>", "conditions": [18, 1200, "v", 18000], "internal_node_id": "0.0-38.0", "trial": 1, "time_elapsed": 336005, "serialpos": 1, "key_press": -1, "wordID": 1302, "type": "PRES_VIS", "trial_index": 56}, "uniqueid": "MTK2202:33ISQZVXPQT84OB8XUL8MXO7OWSCCI", "dateTime": 1516824887372}, {"current_trial": 57, "trialdata": {"rt": -1, "trial_type": "single-stim", "word": "lace", "stimulus": "<p id=\"stim\">LACE</p>", "conditions": [18, 1200, "v", 18000], "internal_node_id": "0.0-39.0", "trial": 1, "time_elapsed": 338197, "serialpos": 2, "key_press": -1, "wordID": 791, "type": "PRES_VIS", "trial_index": 57}, "uniqueid": "MTK2202:33ISQZVXPQT84OB8XUL8MXO7OWSCCI", "dateTime": 1516824889564}, {"current_trial": 58, "trialdata": {"rt": -1, "trial_type": "single-stim", "word": "ozone", "stimulus": "<p id=\"stim\">OZONE</p>", "conditions": [18, 1200, "v", 18000], "internal_node_id": "0.0-40.0", "trial": 1, "time_elapsed": 340229, "serialpos": 3, "key_press": -1, "wordID": 995, "type": "PRES_VIS", "trial_index": 58}, "uniqueid": "MTK2202:33ISQZVXPQT84OB8XUL8MXO7OWSCCI", "dateTime": 1516824891596}, {"current_trial": 59, "trialdata": {"rt": -1, "trial_type": "single-stim", "word": "viking", "stimulus": "<p id=\"stim\">VIKING</p>", "conditions": [18, 1200, "v", 18000], "internal_node_id": "0.0-41.0", "trial": 1, "time_elapsed": 342391, "serialpos": 4, "key_press": -1, "wordID": 1564, "type": "PRES_VIS", "trial_index": 59}, "uniqueid": "MTK2202:33ISQZVXPQT84OB8XUL8MXO7OWSCCI", "dateTime": 1516824893758}, {"current_trial": 60, "trialdata": {"rt": -1, "trial_type": "single-stim", "word": "shovel", "stimulus": "<p id=\"stim\">SHOVEL</p>", "conditions": [18, 1200, "v", 18000], "internal_node_id": "0.0-42.0", "trial": 1, "time_elapsed": 344441, "serialpos": 5, "key_press": -1, "wordID": 1294, "type": "PRES_VIS", "trial_index": 60}, "uniqueid": "MTK2202:33ISQZVXPQT84OB8XUL8MXO7OWSCCI", "dateTime": 1516824895808}, {"current_trial": 61, "trialdata": {"rt": -1, "trial_type": "single-stim", "word": "swamp", "stimulus": "<p id=\"stim\">SWAMP</p>", "conditions": [18, 1200, "v", 18000], "internal_node_id": "0.0-43.0", "trial": 1, "time_elapsed": 346482, "serialpos": 6, "key_press": -1, "wordID": 1415, "type": "PRES_VIS", "trial_index": 61}, "uniqueid": "MTK2202:33ISQZVXPQT84OB8XUL8MXO7OWSCCI", "dateTime": 1516824897849}, {"current_trial": 62, "trialdata": {"rt": -1, "trial_type": "single-stim", "word": "umpire", "stimulus": "<p id=\"stim\">UMPIRE</p>", "conditions": [18, 1200, "v", 18000], "internal_node_id": "0.0-44.0", "trial": 1, "time_elapsed": 348715, "serialpos": 7, "key_press": -1, "wordID": 1534, "type": "PRES_VIS", "trial_index": 62}, "uniqueid": "MTK2202:33ISQZVXPQT84OB8XUL8MXO7OWSCCI", "dateTime": 1516824900082}, {"current_trial": 63, "trialdata": {"rt": -1, "trial_type": "single-stim", "word": "hero", "stimulus": "<p id=\"stim\">HERO</p>", "conditions": [18, 1200, "v", 18000], "internal_node_id": "0.0-45.0", "trial": 1, "time_elapsed": 351030, "serialpos": 8, "key_press": -1, "wordID": 705, "type": "PRES_VIS", "trial_index": 63}, "uniqueid": "MTK2202:33ISQZVXPQT84OB8XUL8MXO7OWSCCI", "dateTime": 1516824902397}, {"current_trial": 64, "trialdata": {"rt": -1, "trial_type": "single-stim", "word": "scallop", "stimulus": "<p id=\"stim\">SCALLOP</p>", "conditions": [18, 1200, "v", 18000], "internal_node_id": "0.0-46.0", "trial": 1, "time_elapsed": 353406, "serialpos": 9, "key_press": -1, "wordID": 1241, "type": "PRES_VIS", "trial_index": 64}, "uniqueid": "MTK2202:33ISQZVXPQT84OB8XUL8MXO7OWSCCI", "dateTime": 1516824904774}, {"current_trial": 65, "trialdata": {"rt": -1, "trial_type": "single-stim", "word": "brick", "stimulus": "<p id=\"stim\">BRICK</p>", "conditions": [18, 1200, "v", 18000], "internal_node_id": "0.0-47.0", "trial": 1, "time_elapsed": 355801, "serialpos": 10, "key_press": -1, "wordID": 171, "type": "PRES_VIS", "trial_index": 65}, "uniqueid": "MTK2202:33ISQZVXPQT84OB8XUL8MXO7OWSCCI", "dateTime": 1516824907168}, {"current_trial": 66, "trialdata": {"rt": -1, "trial_type": "single-stim", "word": "stomach", "stimulus": "<p id=\"stim\">STOMACH</p>", "conditions": [18, 1200, "v", 18000], "internal_node_id": "0.0-48.0", "trial": 1, "time_elapsed": 357835, "serialpos": 11, "key_press": -1, "wordID": 1383, "type": "PRES_VIS", "trial_index": 66}, "uniqueid": "MTK2202:33ISQZVXPQT84OB8XUL8MXO7OWSCCI", "dateTime": 1516824909203}, {"current_trial": 67, "trialdata": {"rt": -1, "trial_type": "single-stim", "word": "elbow", "stimulus": "<p id=\"stim\">ELBOW</p>", "conditions": [18, 1200, "v", 18000], "internal_node_id": "0.0-49.0", "trial": 1, "time_elapsed": 360185, "serialpos": 12, "key_press": -1, "wordID": 519, "type": "PRES_VIS", "trial_index": 67}, "uniqueid": "MTK2202:33ISQZVXPQT84OB8XUL8MXO7OWSCCI", "dateTime": 1516824911553}, {"current_trial": 68, "trialdata": {"rt": -1, "trial_type": "single-stim", "word": "princess", "stimulus": "<p id=\"stim\">PRINCESS</p>", "conditions": [18, 1200, "v", 18000], "internal_node_id": "0.0-50.0", "trial": 1, "time_elapsed": 362296, "serialpos": 13, "key_press": -1, "wordID": 1124, "type": "PRES_VIS", "trial_index": 68}, "uniqueid": "MTK2202:33ISQZVXPQT84OB8XUL8MXO7OWSCCI", "dateTime": 1516824913665}, {"current_trial": 69, "trialdata": {"rt": -1, "trial_type": "single-stim", "word": "lunch", "stimulus": "<p id=\"stim\">LUNCH</p>", "conditions": [18, 1200, "v", 18000], "internal_node_id": "0.0-51.0", "trial": 1, "time_elapsed": 364394, "serialpos": 14, "key_press": -1, "wordID": 848, "type": "PRES_VIS", "trial_index": 69}, "uniqueid": "MTK2202:33ISQZVXPQT84OB8XUL8MXO7OWSCCI", "dateTime": 1516824915761}, {"current_trial": 70, "trialdata": {"rt": -1, "trial_type": "single-stim", "word": "spoon", "stimulus": "<p id=\"stim\">SPOON</p>", "conditions": [18, 1200, "v", 18000], "internal_node_id": "0.0-52.0", "trial": 1, "time_elapsed": 366703, "serialpos": 15, "key_press": -1, "wordID": 1356, "type": "PRES_VIS", "trial_index": 70}, "uniqueid": "MTK2202:33ISQZVXPQT84OB8XUL8MXO7OWSCCI", "dateTime": 1516824918070}, {"current_trial": 71, "trialdata": {"rt": -1, "trial_type": "single-stim", "word": "clamp", "stimulus": "<p id=\"stim\">CLAMP</p>", "conditions": [18, 1200, "v", 18000], "internal_node_id": "0.0-53.0", "trial": 1, "time_elapsed": 369034, "serialpos": 16, "key_press": -1, "wordID": 315, "type": "PRES_VIS", "trial_index": 71}, "uniqueid": "MTK2202:33ISQZVXPQT84OB8XUL8MXO7OWSCCI", "dateTime": 1516824920401}, {"current_trial": 72, "trialdata": {"rt": -1, "trial_type": "single-stim", "word": "ankle", "stimulus": "<p id=\"stim\">ANKLE</p>", "conditions": [18, 1200, "v", 18000], "internal_node_id": "0.0-54.0", "trial": 1, "time_elapsed": 371240, "serialpos": 17, "key_press": -1, "wordID": 23, "type": "PRES_VIS", "trial_index": 72}, "uniqueid": "MTK2202:33ISQZVXPQT84OB8XUL8MXO7OWSCCI", "dateTime": 1516824922607}, {"current_trial": 73, "trialdata": {"rt": -1, "trial_type": "single-stim", "stimulus": "", "internal_node_id": "0.0-55.0-0.0", "time_elapsed": 373300, "key_press": -1, "type": "PRE_RECALL_DELAY", "trial_index": 73}, "uniqueid": "MTK2202:33ISQZVXPQT84OB8XUL8MXO7OWSCCI", "dateTime": 1516824924667}, {"current_trial": 74, "trialdata": {"rt": -1000, "trial_type": "single-audio", "stimulus": "/static/audio/400Hz.wav", "internal_node_id": "0.0-56.0", "time_elapsed": 373813, "key_press": -1, "type": "PRE_RECALL_ALERT", "trial_index": 74}, "uniqueid": "MTK2202:33ISQZVXPQT84OB8XUL8MXO7OWSCCI", "dateTime": 1516824925181}, {"current_trial": 75, "trialdata": {"rt": [2502, 4448, 5867, 8398, 11267, 18570, 21793, 43277, 56552, 57420], "recwords": ["ankle", "lizard", "spoon", "gavel", "elbow", "*", "*", "clamp", "", ""], "key_times": [1214, 1377, 1585, 1805, 1989, 2502, 3076, 3274, 3494, 3890, 4029, 4280, 4448, 4843, 4996, 5216, 5362, 5587, 5867, 7097, 7251, 7447, 7575, 8126, 8398, 9713, 10382, 10691, 10813, 10950, 11267, 17169, 17927, 18570, 20892, 21429, 21793, 42413, 42577, 42705, 42843, 43017, 43277, 56552, 57420, 58715], "trial_type": "free-recall", "conditions": [18, 1200, "v", 18000], "internal_node_id": "0.0-57.0-0.0", "key_presses": [65, 78, 75, 76, 69, 13, 76, 73, 90, 65, 82, 68, 13, 83, 80, 79, 79, 78, 13, 71, 65, 86, 69, 76, 13, 69, 76, 66, 79, 87, 13, 16, 56, 13, 16, 56, 13, 67, 76, 65, 77, 80, 13, 13, 13, 16], "trial": 1, "time_elapsed": 433817, "type": "FREE_RECALL", "trial_index": 75}, "uniqueid": "MTK2202:33ISQZVXPQT84OB8XUL8MXO7OWSCCI", "dateTime": 1516824985188}, {"current_trial": 76, "trialdata": {"rt": 4451, "trial_type": "text", "internal_node_id": "0.0-58.0", "time_elapsed": 440274, "key_press": 32, "type": "INSTRUCTIONS", "trial_index": 76}, "uniqueid": "MTK2202:33ISQZVXPQT84OB8XUL8MXO7OWSCCI", "dateTime": 1516824991642}, {"current_trial": 77, "trialdata": {"rt": [6330, 10160], "trial_type": "math-distractor", "key_times": [5443, 5770, 6330, 9640, 9852, 10160], "responses": ["16", "10"], "num2": [5, 5, 3], "num3": [9, 2, 3], "conditions": [12, 1600, "v", 12000], "internal_node_id": "0.0-59.0", "key_presses": [49, 54, 13, 49, 48, 13], "trial": 2, "time_elapsed": 453277, "type": "DISTRACTOR", "trial_index": 77, "num1": [2, 3, 2]}, "uniqueid": "MTK2202:33ISQZVXPQT84OB8XUL8MXO7OWSCCI", "dateTime": 1516825004644}, {"current_trial": 78, "trialdata": {"rt": -1, "trial_type": "single-stim", "stimulus": "<p id=\"stim\">10</p>", "internal_node_id": "0.0-60.0-0.0", "time_elapsed": 456279, "key_press": -1, "trial_index": 78}, "uniqueid": "MTK2202:33ISQZVXPQT84OB8XUL8MXO7OWSCCI", "dateTime": 1516825007646}, {"current_trial": 79, "trialdata": {"rt": -1, "trial_type": "single-stim", "stimulus": "<p id=\"stim\">9</p>", "internal_node_id": "0.0-60.0-1.0", "time_elapsed": 457280, "key_press": -1, "trial_index": 79}, "uniqueid": "MTK2202:33ISQZVXPQT84OB8XUL8MXO7OWSCCI", "dateTime": 1516825008647}, {"current_trial": 80, "trialdata": {"rt": -1, "trial_type": "single-stim", "stimulus": "<p id=\"stim\">8</p>", "internal_node_id": "0.0-60.0-2.0", "time_elapsed": 458281, "key_press": -1, "trial_index": 80}, "uniqueid": "MTK2202:33ISQZVXPQT84OB8XUL8MXO7OWSCCI", "dateTime": 1516825009648}, {"current_trial": 81, "trialdata": {"rt": -1, "trial_type": "single-stim", "stimulus": "<p id=\"stim\">7</p>", "internal_node_id": "0.0-60.0-3.0", "time_elapsed": 459282, "key_press": -1, "trial_index": 81}, "uniqueid": "MTK2202:33ISQZVXPQT84OB8XUL8MXO7OWSCCI", "dateTime": 1516825010649}, {"current_trial": 82, "trialdata": {"rt": -1, "trial_type": "single-stim", "stimulus": "<p id=\"stim\">6</p>", "internal_node_id": "0.0-60.0-4.0", "time_elapsed": 460284, "key_press": -1, "trial_index": 82}, "uniqueid": "MTK2202:33ISQZVXPQT84OB8XUL8MXO7OWSCCI", "dateTime": 1516825011652}, {"current_trial": 83, "trialdata": {"rt": -1, "trial_type": "single-stim", "stimulus": "<p id=\"stim\">5</p>", "internal_node_id": "0.0-60.0-5.0", "time_elapsed": 461286, "key_press": -1, "trial_index": 83}, "uniqueid": "MTK2202:33ISQZVXPQT84OB8XUL8MXO7OWSCCI", "dateTime": 1516825012653}, {"current_trial": 84, "trialdata": {"rt": -1, "trial_type": "single-stim", "stimulus": "<p id=\"stim\">4</p>", "internal_node_id": "0.0-60.0-6.0", "time_elapsed": 462287, "key_press": -1, "trial_index": 84}, "uniqueid": "MTK2202:33ISQZVXPQT84OB8XUL8MXO7OWSCCI", "dateTime": 1516825013654}, {"current_trial": 85, "trialdata": {"rt": -1, "trial_type": "single-stim", "stimulus": "<p id=\"stim\">3</p>", "internal_node_id": "0.0-60.0-7.0", "time_elapsed": 463290, "key_press": -1, "trial_index": 85}, "uniqueid": "MTK2202:33ISQZVXPQT84OB8XUL8MXO7OWSCCI", "dateTime": 1516825014657}, {"current_trial": 86, "trialdata": {"rt": -1, "trial_type": "single-stim", "stimulus": "<p id=\"stim\">2</p>", "internal_node_id": "0.0-60.0-8.0", "time_elapsed": 464291, "key_press": -1, "trial_index": 86}, "uniqueid": "MTK2202:33ISQZVXPQT84OB8XUL8MXO7OWSCCI", "dateTime": 1516825015658}, {"current_trial": 87, "trialdata": {"rt": -1, "trial_type": "single-stim", "stimulus": "<p id=\"stim\">1</p>", "internal_node_id": "0.0-60.0-9.0", "time_elapsed": 465292, "key_press": -1, "trial_index": 87}, "uniqueid": "MTK2202:33ISQZVXPQT84OB8XUL8MXO7OWSCCI", "dateTime": 1516825016659}, {"current_trial": 88, "trialdata": {"rt": -1, "trial_type": "single-stim", "stimulus": "<p id=\"stim\">+</p>", "internal_node_id": "0.0-61.0-0.0", "time_elapsed": 466793, "key_press": -1, "type": "FIXATION", "trial_index": 88}, "uniqueid": "MTK2202:33ISQZVXPQT84OB8XUL8MXO7OWSCCI", "dateTime": 1516825018161}, {"current_trial": 89, "trialdata": {"rt": -1, "trial_type": "single-stim", "word": "picnic", "stimulus": "<p id=\"stim\">PICNIC</p>", "conditions": [12, 1600, "v", 12000], "internal_node_id": "0.0-62.0", "trial": 2, "time_elapsed": 468395, "serialpos": 0, "key_press": -1, "wordID": 1059, "type": "PRES_VIS", "trial_index": 89}, "uniqueid": "MTK2202:33ISQZVXPQT84OB8XUL8MXO7OWSCCI", "dateTime": 1516825019762}, {"current_trial": 90, "trialdata": {"rt": -1, "trial_type": "single-stim", "word": "wasp", "stimulus": "<p id=\"stim\">WASP</p>", "conditions": [12, 1600, "v", 12000], "internal_node_id": "0.0-63.0", "trial": 2, "time_elapsed": 471180, "serialpos": 1, "key_press": -1, "wordID": 1592, "type": "PRES_VIS", "trial_index": 90}, "uniqueid": "MTK2202:33ISQZVXPQT84OB8XUL8MXO7OWSCCI", "dateTime": 1516825022547}, {"current_trial": 91, "trialdata": {"rt": -1, "trial_type": "single-stim", "word": "hornet", "stimulus": "<p id=\"stim\">HORNET</p>", "conditions": [12, 1600, "v", 12000], "internal_node_id": "0.0-64.0", "trial": 2, "time_elapsed": 473637, "serialpos": 2, "key_press": -1, "wordID": 717, "type": "PRES_VIS", "trial_index": 91}, "uniqueid": "MTK2202:33ISQZVXPQT84OB8XUL8MXO7OWSCCI", "dateTime": 1516825025004}, {"current_trial": 92, "trialdata": {"rt": -1, "trial_type": "single-stim", "word": "supper", "stimulus": "<p id=\"stim\">SUPPER</p>", "conditions": [12, 1600, "v", 12000], "internal_node_id": "0.0-65.0", "trial": 2, "time_elapsed": 476068, "serialpos": 3, "key_press": -1, "wordID": 1410, "type": "PRES_VIS", "trial_index": 92}, "uniqueid": "MTK2202:33ISQZVXPQT84OB8XUL8MXO7OWSCCI", "dateTime": 1516825027435}, {"current_trial": 93, "trialdata": {"rt": -1, "trial_type": "single-stim", "word": "racket", "stimulus": "<p id=\"stim\">RACKET</p>", "conditions": [12, 1600, "v", 12000], "internal_node_id": "0.0-66.0", "trial": 2, "time_elapsed": 478835, "serialpos": 4, "key_press": -1, "wordID": 1154, "type": "PRES_VIS", "trial_index": 93}, "uniqueid": "MTK2202:33ISQZVXPQT84OB8XUL8MXO7OWSCCI", "dateTime": 1516825030202}, {"current_trial": 94, "trialdata": {"rt": -1, "trial_type": "single-stim", "word": "hiker", "stimulus": "<p id=\"stim\">HIKER</p>", "conditions": [12, 1600, "v", 12000], "internal_node_id": "0.0-67.0", "trial": 2, "time_elapsed": 481579, "serialpos": 5, "key_press": -1, "wordID": 707, "type": "PRES_VIS", "trial_index": 94}, "uniqueid": "MTK2202:33ISQZVXPQT84OB8XUL8MXO7OWSCCI", "dateTime": 1516825032946}, {"current_trial": 95, "trialdata": {"rt": -1, "trial_type": "single-stim", "word": "turtle", "stimulus": "<p id=\"stim\">TURTLE</p>", "conditions": [12, 1600, "v", 12000], "internal_node_id": "0.0-68.0", "trial": 2, "time_elapsed": 484129, "serialpos": 6, "key_press": -1, "wordID": 1521, "type": "PRES_VIS", "trial_index": 95}, "uniqueid": "MTK2202:33ISQZVXPQT84OB8XUL8MXO7OWSCCI", "dateTime": 1516825035496}, {"current_trial": 96, "trialdata": {"rt": -1, "trial_type": "single-stim", "word": "sparrow", "stimulus": "<p id=\"stim\">SPARROW</p>", "conditions": [12, 1600, "v", 12000], "internal_node_id": "0.0-69.0", "trial": 2, "time_elapsed": 486598, "serialpos": 7, "key_press": -1, "wordID": 1346, "type": "PRES_VIS", "trial_index": 96}, "uniqueid": "MTK2202:33ISQZVXPQT84OB8XUL8MXO7OWSCCI", "dateTime": 1516825037965}, {"current_trial": 97, "trialdata": {"rt": -1, "trial_type": "single-stim", "word": "patrol", "stimulus": "<p id=\"stim\">PATROL</p>", "conditions": [12, 1600, "v", 12000], "internal_node_id": "0.0-70.0", "trial": 2, "time_elapsed": 489344, "serialpos": 8, "key_press": -1, "wordID": 1026, "type": "PRES_VIS", "trial_index": 97}, "uniqueid": "MTK2202:33ISQZVXPQT84OB8XUL8MXO7OWSCCI", "dateTime": 1516825040711}, {"current_trial": 98, "trialdata": {"rt": -1, "trial_type": "single-stim", "word": "sandwich", "stimulus": "<p id=\"stim\">SANDWICH</p>", "conditions": [12, 1600, "v", 12000], "internal_node_id": "0.0-71.0", "trial": 2, "time_elapsed": 491882, "serialpos": 9, "key_press": -1, "wordID": 1231, "type": "PRES_VIS", "trial_index": 98}, "uniqueid": "MTK2202:33ISQZVXPQT84OB8XUL8MXO7OWSCCI", "dateTime": 1516825043249}, {"current_trial": 99, "trialdata": {"rt": -1, "trial_type": "single-stim", "word": "quail", "stimulus": "<p id=\"stim\">QUAIL</p>", "conditions": [12, 1600, "v", 12000], "internal_node_id": "0.0-72.0", "trial": 2, "time_elapsed": 494505, "serialpos": 10, "key_press": -1, "wordID": 1146, "type": "PRES_VIS", "trial_index": 99}, "uniqueid": "MTK2202:33ISQZVXPQT84OB8XUL8MXO7OWSCCI", "dateTime": 1516825045872}, {"current_trial": 100, "trialdata": {"rt": -1, "trial_type": "single-stim", "word": "forehead", "stimulus": "<p id=\"stim\">FOREHEAD</p>", "conditions": [12, 1600, "v", 12000], "internal_node_id": "0.0-73.0", "trial": 2, "time_elapsed": 497002, "serialpos": 11, "key_press": -1, "wordID": 591, "type": "PRES_VIS", "trial_index": 100}, "uniqueid": "MTK2202:33ISQZVXPQT84OB8XUL8MXO7OWSCCI", "dateTime": 1516825048369}, {"current_trial": 101, "trialdata": {"rt": -1, "trial_type": "single-stim", "stimulus": "", "internal_node_id": "0.0-74.0-0.0", "time_elapsed": 499313, "key_press": -1, "type": "PRE_RECALL_DELAY", "trial_index": 101}, "uniqueid": "MTK2202:33ISQZVXPQT84OB8XUL8MXO7OWSCCI", "dateTime": 1516825050681}, {"current_trial": 102, "trialdata": {"rt": -1000, "trial_type": "single-audio", "stimulus": "/static/audio/400Hz.wav", "internal_node_id": "0.0-75.0", "time_elapsed": 499825, "key_press": -1, "type": "PRE_RECALL_ALERT", "trial_index": 102}, "uniqueid": "MTK2202:33ISQZVXPQT84OB8XUL8MXO7OWSCCI", "dateTime": 1516825051192}, {"current_trial": 103, "trialdata": {"rt": [2533, 5154, 6942, 14794, 44879, 49176], "recwords": ["forhead", "picnic", "wasp", "hiker", "hornet", "turtle"], "key_times": [663, 838, 963, 1175, 1287, 1425, 1678, 2533, 3083, 3467, 3693, 4008, 4209, 4614, 5154, 5701, 5829, 6019, 6295, 6942, 12020, 12218, 12644, 13324, 14455, 14794, 43070, 43520, 43854, 44186, 44383, 44623, 44879, 46928, 47517, 47822, 47927, 48055, 48496, 48610, 48767, 49176], "trial_type": "free-recall", "conditions": [12, 1600, "v", 12000], "internal_node_id": "0.0-76.0-0.0", "key_presses": [70, 79, 82, 72, 69, 65, 68, 13, 80, 73, 67, 78, 73, 67, 13, 87, 65, 83, 80, 13, 72, 73, 75, 69, 82, 13, 72, 79, 82, 78, 69, 84, 13, 74, 8, 84, 85, 82, 84, 76, 69, 13], "trial": 2, "time_elapsed": 559828, "type": "FREE_RECALL", "trial_index": 103}, "uniqueid": "MTK2202:33ISQZVXPQT84OB8XUL8MXO7OWSCCI", "dateTime": 1516825111197}, {"current_trial": 104, "trialdata": {"rt": 4665, "trial_type": "text", "internal_node_id": "0.0-77.0", "time_elapsed": 566497, "key_press": 32, "type": "INSTRUCTIONS", "trial_index": 104}, "uniqueid": "MTK2202:33ISQZVXPQT84OB8XUL8MXO7OWSCCI", "dateTime": 1516825117864}, {"current_trial": 105, "trialdata": {"rt": [3850, 7445, 13524, 18751], "trial_type": "math-distractor", "key_times": [3328, 3559, 3850, 6396, 6618, 7445, 10938, 12719, 12859, 13143, 13524, 17480, 17826, 18138, 18751], "responses": ["13", "13", "20", "19"], "num2": [7, 3, 5, 9, 8], "num3": [2, 9, 8, 2, 9], "conditions": [12, 800, "v", 24000], "internal_node_id": "0.0-78.0", "key_presses": [49, 51, 13, 49, 51, 13, 49, 8, 50, 48, 13, 49, 57, 34, 13], "trial": 3, "time_elapsed": 592502, "type": "DISTRACTOR", "trial_index": 105, "num1": [4, 1, 7, 8, 5]}, "uniqueid": "MTK2202:33ISQZVXPQT84OB8XUL8MXO7OWSCCI", "dateTime": 1516825143869}, {"current_trial": 106, "trialdata": {"rt": -1, "trial_type": "single-stim", "stimulus": "<p id=\"stim\">10</p>", "internal_node_id": "0.0-79.0-0.0", "time_elapsed": 595504, "key_press": -1, "trial_index": 106}, "uniqueid": "MTK2202:33ISQZVXPQT84OB8XUL8MXO7OWSCCI", "dateTime": 1516825146871}, {"current_trial": 107, "trialdata": {"rt": -1, "trial_type": "single-stim", "stimulus": "<p id=\"stim\">9</p>", "internal_node_id": "0.0-79.0-1.0", "time_elapsed": 596507, "key_press": -1, "trial_index": 107}, "uniqueid": "MTK2202:33ISQZVXPQT84OB8XUL8MXO7OWSCCI", "dateTime": 1516825147874}, {"current_trial": 108, "trialdata": {"rt": -1, "trial_type": "single-stim", "stimulus": "<p id=\"stim\">8</p>", "internal_node_id": "0.0-79.0-2.0", "time_elapsed": 597508, "key_press": -1, "trial_index": 108}, "uniqueid": "MTK2202:33ISQZVXPQT84OB8XUL8MXO7OWSCCI", "dateTime": 1516825148876}, {"current_trial": 109, "trialdata": {"rt": -1, "trial_type": "single-stim", "stimulus": "<p id=\"stim\">7</p>", "internal_node_id": "0.0-79.0-3.0", "time_elapsed": 598510, "key_press": -1, "trial_index": 109}, "uniqueid": "MTK2202:33ISQZVXPQT84OB8XUL8MXO7OWSCCI", "dateTime": 1516825149877}, {"current_trial": 110, "trialdata": {"rt": -1, "trial_type": "single-stim", "stimulus": "<p id=\"stim\">6</p>", "internal_node_id": "0.0-79.0-4.0", "time_elapsed": 599512, "key_press": -1, "trial_index": 110}, "uniqueid": "MTK2202:33ISQZVXPQT84OB8XUL8MXO7OWSCCI", "dateTime": 1516825150879}, {"current_trial": 111, "trialdata": {"rt": -1, "trial_type": "single-stim", "stimulus": "<p id=\"stim\">5</p>", "internal_node_id": "0.0-79.0-5.0", "time_elapsed": 600515, "key_press": -1, "trial_index": 111}, "uniqueid": "MTK2202:33ISQZVXPQT84OB8XUL8MXO7OWSCCI", "dateTime": 1516825151882}, {"current_trial": 112, "trialdata": {"rt": -1, "trial_type": "single-stim", "stimulus": "<p id=\"stim\">4</p>", "internal_node_id": "0.0-79.0-6.0", "time_elapsed": 601517, "key_press": -1, "trial_index": 112}, "uniqueid": "MTK2202:33ISQZVXPQT84OB8XUL8MXO7OWSCCI", "dateTime": 1516825152884}, {"current_trial": 113, "trialdata": {"rt": -1, "trial_type": "single-stim", "stimulus": "<p id=\"stim\">3</p>", "internal_node_id": "0.0-79.0-7.0", "time_elapsed": 602518, "key_press": -1, "trial_index": 113}, "uniqueid": "MTK2202:33ISQZVXPQT84OB8XUL8MXO7OWSCCI", "dateTime": 1516825153885}, {"current_trial": 114, "trialdata": {"rt": -1, "trial_type": "single-stim", "stimulus": "<p id=\"stim\">2</p>", "internal_node_id": "0.0-79.0-8.0", "time_elapsed": 603520, "key_press": -1, "trial_index": 114}, "uniqueid": "MTK2202:33ISQZVXPQT84OB8XUL8MXO7OWSCCI", "dateTime": 1516825154887}, {"current_trial": 115, "trialdata": {"rt": -1, "trial_type": "single-stim", "stimulus": "<p id=\"stim\">1</p>", "internal_node_id": "0.0-79.0-9.0", "time_elapsed": 604523, "key_press": -1, "trial_index": 115}, "uniqueid": "MTK2202:33ISQZVXPQT84OB8XUL8MXO7OWSCCI", "dateTime": 1516825155890}, {"current_trial": 116, "trialdata": {"rt": -1, "trial_type": "single-stim", "stimulus": "<p id=\"stim\">+</p>", "internal_node_id": "0.0-80.0-0.0", "time_elapsed": 606024, "key_press": -1, "type": "FIXATION", "trial_index": 116}, "uniqueid": "MTK2202:33ISQZVXPQT84OB8XUL8MXO7OWSCCI", "dateTime": 1516825157391}, {"current_trial": 117, "trialdata": {"rt": -1, "trial_type": "single-stim", "word": "actor", "stimulus": "<p id=\"stim\">ACTOR</p>", "conditions": [12, 800, "v", 24000], "internal_node_id": "0.0-81.0", "trial": 3, "time_elapsed": 606825, "serialpos": 0, "key_press": -1, "wordID": 4, "type": "PRES_VIS", "trial_index": 117}, "uniqueid": "MTK2202:33ISQZVXPQT84OB8XUL8MXO7OWSCCI", "dateTime": 1516825158192}, {"current_trial": 118, "trialdata": {"rt": -1, "trial_type": "single-stim", "word": "shark", "stimulus": "<p id=\"stim\">SHARK</p>", "conditions": [12, 800, "v", 24000], "internal_node_id": "0.0-82.0", "trial": 3, "time_elapsed": 608643, "serialpos": 1, "key_press": -1, "wordID": 1274, "type": "PRES_VIS", "trial_index": 118}, "uniqueid": "MTK2202:33ISQZVXPQT84OB8XUL8MXO7OWSCCI", "dateTime": 1516825160010}, {"current_trial": 119, "trialdata": {"rt": -1, "trial_type": "single-stim", "word": "basement", "stimulus": "<p id=\"stim\">BASEMENT</p>", "conditions": [12, 800, "v", 24000], "internal_node_id": "0.0-83.0", "trial": 3, "time_elapsed": 610436, "serialpos": 2, "key_press": -1, "wordID": 93, "type": "PRES_VIS", "trial_index": 119}, "uniqueid": "MTK2202:33ISQZVXPQT84OB8XUL8MXO7OWSCCI", "dateTime": 1516825161803}, {"current_trial": 120, "trialdata": {"rt": -1, "trial_type": "single-stim", "word": "zebra", "stimulus": "<p id=\"stim\">ZEBRA</p>", "conditions": [12, 800, "v", 24000], "internal_node_id": "0.0-84.0", "trial": 3, "time_elapsed": 612193, "serialpos": 3, "key_press": -1, "wordID": 1634, "type": "PRES_VIS", "trial_index": 120}, "uniqueid": "MTK2202:33ISQZVXPQT84OB8XUL8MXO7OWSCCI", "dateTime": 1516825163560}, {"current_trial": 121, "trialdata": {"rt": -1, "trial_type": "single-stim", "word": "costume", "stimulus": "<p id=\"stim\">COSTUME</p>", "conditions": [12, 800, "v", 24000], "internal_node_id": "0.0-85.0", "trial": 3, "time_elapsed": 613811, "serialpos": 4, "key_press": -1, "wordID": 382, "type": "PRES_VIS", "trial_index": 121}, "uniqueid": "MTK2202:33ISQZVXPQT84OB8XUL8MXO7OWSCCI", "dateTime": 1516825165178}, {"current_trial": 122, "trialdata": {"rt": -1, "trial_type": "single-stim", "word": "tuba", "stimulus": "<p id=\"stim\">TUBA</p>", "conditions": [12, 800, "v", 24000], "internal_node_id": "0.0-86.0", "trial": 3, "time_elapsed": 615578, "serialpos": 5, "key_press": -1, "wordID": 1514, "type": "PRES_VIS", "trial_index": 122}, "uniqueid": "MTK2202:33ISQZVXPQT84OB8XUL8MXO7OWSCCI", "dateTime": 1516825166945}, {"current_trial": 123, "trialdata": {"rt": -1, "trial_type": "single-stim", "word": "velvet", "stimulus": "<p id=\"stim\">VELVET</p>", "conditions": [12, 800, "v", 24000], "internal_node_id": "0.0-87.0", "trial": 3, "time_elapsed": 617245, "serialpos": 6, "key_press": -1, "wordID": 1554, "type": "PRES_VIS", "trial_index": 123}, "uniqueid": "MTK2202:33ISQZVXPQT84OB8XUL8MXO7OWSCCI", "dateTime": 1516825168612}, {"current_trial": 124, "trialdata": {"rt": -1, "trial_type": "single-stim", "word": "plaid", "stimulus": "<p id=\"stim\">PLAID</p>", "conditions": [12, 800, "v", 24000], "internal_node_id": "0.0-88.0", "trial": 3, "time_elapsed": 618859, "serialpos": 7, "key_press": -1, "wordID": 1079, "type": "PRES_VIS", "trial_index": 124}, "uniqueid": "MTK2202:33ISQZVXPQT84OB8XUL8MXO7OWSCCI", "dateTime": 1516825170226}, {"current_trial": 125, "trialdata": {"rt": -1, "trial_type": "single-stim", "word": "chapel", "stimulus": "<p id=\"stim\">CHAPEL</p>", "conditions": [12, 800, "v", 24000], "internal_node_id": "0.0-89.0", "trial": 3, "time_elapsed": 620739, "serialpos": 8, "key_press": -1, "wordID": 279, "type": "PRES_VIS", "trial_index": 125}, "uniqueid": "MTK2202:33ISQZVXPQT84OB8XUL8MXO7OWSCCI", "dateTime": 1516825172106}, {"current_trial": 126, "trialdata": {"rt": -1, "trial_type": "single-stim", "word": "napkin", "stimulus": "<p id=\"stim\">NAPKIN</p>", "conditions": [12, 800, "v", 24000], "internal_node_id": "0.0-90.0", "trial": 3, "time_elapsed": 622390, "serialpos": 9, "key_press": -1, "wordID": 936, "type": "PRES_VIS", "trial_index": 126}, "uniqueid": "MTK2202:33ISQZVXPQT84OB8XUL8MXO7OWSCCI", "dateTime": 1516825173757}, {"current_trial": 127, "trialdata": {"rt": -1, "trial_type": "single-stim", "word": "kitchen", "stimulus": "<p id=\"stim\">KITCHEN</p>", "conditions": [12, 800, "v", 24000], "internal_node_id": "0.0-91.0", "trial": 3, "time_elapsed": 624049, "serialpos": 10, "key_press": -1, "wordID": 777, "type": "PRES_VIS", "trial_index": 127}, "uniqueid": "MTK2202:33ISQZVXPQT84OB8XUL8MXO7OWSCCI", "dateTime": 1516825175416}, {"current_trial": 128, "trialdata": {"rt": -1, "trial_type": "single-stim", "word": "tile", "stimulus": "<p id=\"stim\">TILE</p>", "conditions": [12, 800, "v", 24000], "internal_node_id": "0.0-92.0", "trial": 3, "time_elapsed": 625661, "serialpos": 11, "key_press": -1, "wordID": 1467, "type": "PRES_VIS", "trial_index": 128}, "uniqueid": "MTK2202:33ISQZVXPQT84OB8XUL8MXO7OWSCCI", "dateTime": 1516825177028}, {"current_trial": 129, "trialdata": {"rt": -1, "trial_type": "single-stim", "stimulus": "", "internal_node_id": "0.0-93.0-0.0", "time_elapsed": 628204, "key_press": -1, "type": "PRE_RECALL_DELAY", "trial_index": 129}, "uniqueid": "MTK2202:33ISQZVXPQT84OB8XUL8MXO7OWSCCI", "dateTime": 1516825179571}, {"current_trial": 130, "trialdata": {"rt": -1000, "trial_type": "single-audio", "stimulus": "/static/audio/400Hz.wav", "internal_node_id": "0.0-94.0", "time_elapsed": 628709, "key_press": -1, "type": "PRE_RECALL_ALERT", "trial_index": 130}, "uniqueid": "MTK2202:33ISQZVXPQT84OB8XUL8MXO7OWSCCI", "dateTime": 1516825180076}, {"current_trial": 131, "trialdata": {"rt": [2696, 5410, 8127, 16635, 19205, 45287], "recwords": ["tile", "kitchen", "actor", "aligator", "turtle", "basement"], "key_times": [671, 1327, 1540, 1976, 2696, 3092, 3274, 3597, 3881, 4206, 4540, 5014, 5410, 5938, 6266, 6731, 7283, 7674, 8127, 13653, 14127, 14319, 14582, 14863, 15266, 15681, 16010, 16635, 17070, 17271, 17559, 17868, 18260, 18608, 19205, 41880, 42385, 42699, 42913, 43446, 43915, 44276, 44626, 45287], "trial_type": "free-recall", "conditions": [12, 800, "v", 24000], "internal_node_id": "0.0-95.0-0.0", "key_presses": [84, 73, 76, 69, 13, 75, 73, 84, 67, 72, 69, 78, 13, 65, 67, 84, 79, 82, 32, 65, 76, 73, 71, 65, 84, 79, 82, 13, 84, 85, 82, 84, 76, 69, 13, 66, 65, 83, 69, 77, 69, 78, 84, 13], "trial": 3, "time_elapsed": 688712, "type": "FREE_RECALL", "trial_index": 131}, "uniqueid": "MTK2202:33ISQZVXPQT84OB8XUL8MXO7OWSCCI", "dateTime": 1516825240083}, {"current_trial": 132, "trialdata": {"rt": 11139, "trial_type": "text", "internal_node_id": "0.0-96.0", "time_elapsed": 701857, "key_press": 32, "type": "INSTRUCTIONS", "trial_index": 132}, "uniqueid": "MTK2202:33ISQZVXPQT84OB8XUL8MXO7OWSCCI", "dateTime": 1516825253224}, {"current_trial": 133, "trialdata": {"rt": [4578, 8119, 11465, 15211, 17973, 23913], "trial_type": "math-distractor", "key_times": [3813, 3989, 4578, 7496, 8119, 10384, 10820, 11465, 14249, 14555, 15211, 17023, 17580, 17973, 23240, 23375, 23913], "responses": ["21", "9", "14", "13", "10", "22"], "num2": [8, 1, 9, 4, 2, 9, 6], "num3": [8, 2, 1, 5, 2, 6, 2], "conditions": [12, 1600, "v", 24000], "internal_node_id": "0.0-97.0", "key_presses": [50, 49, 13, 57, 13, 49, 52, 13, 49, 51, 13, 49, 48, 13, 50, 50, 13], "trial": 4, "time_elapsed": 727861, "type": "DISTRACTOR", "trial_index": 133, "num1": [6, 6, 4, 4, 6, 8, 8]}, "uniqueid": "MTK2202:33ISQZVXPQT84OB8XUL8MXO7OWSCCI", "dateTime": 1516825279228}, {"current_trial": 134, "trialdata": {"rt": -1, "trial_type": "single-stim", "stimulus": "<p id=\"stim\">10</p>", "internal_node_id": "0.0-98.0-0.0", "time_elapsed": 730863, "key_press": -1, "trial_index": 134}, "uniqueid": "MTK2202:33ISQZVXPQT84OB8XUL8MXO7OWSCCI", "dateTime": 1516825282230}, {"current_trial": 135, "trialdata": {"rt": -1, "trial_type": "single-stim", "stimulus": "<p id=\"stim\">9</p>", "internal_node_id": "0.0-98.0-1.0", "time_elapsed": 731866, "key_press": -1, "trial_index": 135}, "uniqueid": "MTK2202:33ISQZVXPQT84OB8XUL8MXO7OWSCCI", "dateTime": 1516825283233}, {"current_trial": 136, "trialdata": {"rt": -1, "trial_type": "single-stim", "stimulus": "<p id=\"stim\">8</p>", "internal_node_id": "0.0-98.0-2.0", "time_elapsed": 732868, "key_press": -1, "trial_index": 136}, "uniqueid": "MTK2202:33ISQZVXPQT84OB8XUL8MXO7OWSCCI", "dateTime": 1516825284235}, {"current_trial": 137, "trialdata": {"rt": -1, "trial_type": "single-stim", "stimulus": "<p id=\"stim\">7</p>", "internal_node_id": "0.0-98.0-3.0", "time_elapsed": 733870, "key_press": -1, "trial_index": 137}, "uniqueid": "MTK2202:33ISQZVXPQT84OB8XUL8MXO7OWSCCI", "dateTime": 1516825285237}, {"current_trial": 138, "trialdata": {"rt": -1, "trial_type": "single-stim", "stimulus": "<p id=\"stim\">6</p>", "internal_node_id": "0.0-98.0-4.0", "time_elapsed": 734872, "key_press": -1, "trial_index": 138}, "uniqueid": "MTK2202:33ISQZVXPQT84OB8XUL8MXO7OWSCCI", "dateTime": 1516825286239}, {"current_trial": 139, "trialdata": {"rt": -1, "trial_type": "single-stim", "stimulus": "<p id=\"stim\">5</p>", "internal_node_id": "0.0-98.0-5.0", "time_elapsed": 735874, "key_press": -1, "trial_index": 139}, "uniqueid": "MTK2202:33ISQZVXPQT84OB8XUL8MXO7OWSCCI", "dateTime": 1516825287241}, {"current_trial": 140, "trialdata": {"rt": -1, "trial_type": "single-stim", "stimulus": "<p id=\"stim\">4</p>", "internal_node_id": "0.0-98.0-6.0", "time_elapsed": 736877, "key_press": -1, "trial_index": 140}, "uniqueid": "MTK2202:33ISQZVXPQT84OB8XUL8MXO7OWSCCI", "dateTime": 1516825288244}, {"current_trial": 141, "trialdata": {"rt": -1, "trial_type": "single-stim", "stimulus": "<p id=\"stim\">3</p>", "internal_node_id": "0.0-98.0-7.0", "time_elapsed": 737878, "key_press": -1, "trial_index": 141}, "uniqueid": "MTK2202:33ISQZVXPQT84OB8XUL8MXO7OWSCCI", "dateTime": 1516825289245}, {"current_trial": 142, "trialdata": {"rt": -1, "trial_type": "single-stim", "stimulus": "<p id=\"stim\">2</p>", "internal_node_id": "0.0-98.0-8.0", "time_elapsed": 738880, "key_press": -1, "trial_index": 142}, "uniqueid": "MTK2202:33ISQZVXPQT84OB8XUL8MXO7OWSCCI", "dateTime": 1516825290247}, {"current_trial": 143, "trialdata": {"rt": -1, "trial_type": "single-stim", "stimulus": "<p id=\"stim\">1</p>", "internal_node_id": "0.0-98.0-9.0", "time_elapsed": 739882, "key_press": -1, "trial_index": 143}, "uniqueid": "MTK2202:33ISQZVXPQT84OB8XUL8MXO7OWSCCI", "dateTime": 1516825291249}, {"current_trial": 144, "trialdata": {"rt": -1, "trial_type": "single-stim", "stimulus": "<p id=\"stim\">+</p>", "internal_node_id": "0.0-99.0-0.0", "time_elapsed": 741383, "key_press": -1, "type": "FIXATION", "trial_index": 144}, "uniqueid": "MTK2202:33ISQZVXPQT84OB8XUL8MXO7OWSCCI", "dateTime": 1516825292750}, {"current_trial": 145, "trialdata": {"rt": -1, "trial_type": "single-stim", "word": "window", "stimulus": "<p id=\"stim\">WINDOW</p>", "conditions": [12, 1600, "v", 24000], "internal_node_id": "0.0-100.0", "trial": 4, "time_elapsed": 742985, "serialpos": 0, "key_press": -1, "wordID": 1610, "type": "PRES_VIS", "trial_index": 145}, "uniqueid": "MTK2202:33ISQZVXPQT84OB8XUL8MXO7OWSCCI", "dateTime": 1516825294352}, {"current_trial": 146, "trialdata": {"rt": -1, "trial_type": "single-stim", "word": "river", "stimulus": "<p id=\"stim\">RIVER</p>", "conditions": [12, 1600, "v", 24000], "internal_node_id": "0.0-101.0", "trial": 4, "time_elapsed": 745527, "serialpos": 1, "key_press": -1, "wordID": 1193, "type": "PRES_VIS", "trial_index": 146}, "uniqueid": "MTK2202:33ISQZVXPQT84OB8XUL8MXO7OWSCCI", "dateTime": 1516825296894}, {"current_trial": 147, "trialdata": {"rt": -1, "trial_type": "single-stim", "word": "sponge", "stimulus": "<p id=\"stim\">SPONGE</p>", "conditions": [12, 1600, "v", 24000], "internal_node_id": "0.0-102.0", "trial": 4, "time_elapsed": 748309, "serialpos": 2, "key_press": -1, "wordID": 1354, "type": "PRES_VIS", "trial_index": 147}, "uniqueid": "MTK2202:33ISQZVXPQT84OB8XUL8MXO7OWSCCI", "dateTime": 1516825299676}, {"current_trial": 148, "trialdata": {"rt": -1, "trial_type": "single-stim", "word": "dustpan", "stimulus": "<p id=\"stim\">DUSTPAN</p>", "conditions": [12, 1600, "v", 24000], "internal_node_id": "0.0-103.0", "trial": 4, "time_elapsed": 751075, "serialpos": 3, "key_press": -1, "wordID": 508, "type": "PRES_VIS", "trial_index": 148}, "uniqueid": "MTK2202:33ISQZVXPQT84OB8XUL8MXO7OWSCCI", "dateTime": 1516825302442}, {"current_trial": 149, "trialdata": {"rt": -1, "trial_type": "single-stim", "word": "crutch", "stimulus": "<p id=\"stim\">CRUTCH</p>", "conditions": [12, 1600, "v", 24000], "internal_node_id": "0.0-104.0", "trial": 4, "time_elapsed": 753695, "serialpos": 4, "key_press": -1, "wordID": 416, "type": "PRES_VIS", "trial_index": 149}, "uniqueid": "MTK2202:33ISQZVXPQT84OB8XUL8MXO7OWSCCI", "dateTime": 1516825305062}, {"current_trial": 150, "trialdata": {"rt": -1, "trial_type": "single-stim", "word": "beef", "stimulus": "<p id=\"stim\">BEEF</p>", "conditions": [12, 1600, "v", 24000], "internal_node_id": "0.0-105.0", "trial": 4, "time_elapsed": 756443, "serialpos": 5, "key_press": -1, "wordID": 112, "type": "PRES_VIS", "trial_index": 150}, "uniqueid": "MTK2202:33ISQZVXPQT84OB8XUL8MXO7OWSCCI", "dateTime": 1516825307810}, {"current_trial": 151, "trialdata": {"rt": -1, "trial_type": "single-stim", "word": "pork", "stimulus": "<p id=\"stim\">PORK</p>", "conditions": [12, 1600, "v", 24000], "internal_node_id": "0.0-106.0", "trial": 4, "time_elapsed": 758858, "serialpos": 6, "key_press": -1, "wordID": 1107, "type": "PRES_VIS", "trial_index": 151}, "uniqueid": "MTK2202:33ISQZVXPQT84OB8XUL8MXO7OWSCCI", "dateTime": 1516825310225}, {"current_trial": 152, "trialdata": {"rt": -1, "trial_type": "single-stim", "word": "seafood", "stimulus": "<p id=\"stim\">SEAFOOD</p>", "conditions": [12, 1600, "v", 24000], "internal_node_id": "0.0-107.0", "trial": 4, "time_elapsed": 761635, "serialpos": 7, "key_press": -1, "wordID": 1259, "type": "PRES_VIS", "trial_index": 152}, "uniqueid": "MTK2202:33ISQZVXPQT84OB8XUL8MXO7OWSCCI", "dateTime": 1516825313002}, {"current_trial": 153, "trialdata": {"rt": -1, "trial_type": "single-stim", "word": "mammal", "stimulus": "<p id=\"stim\">MAMMAL</p>", "conditions": [12, 1600, "v", 24000], "internal_node_id": "0.0-108.0", "trial": 4, "time_elapsed": 764151, "serialpos": 8, "key_press": -1, "wordID": 860, "type": "PRES_VIS", "trial_index": 153}, "uniqueid": "MTK2202:33ISQZVXPQT84OB8XUL8MXO7OWSCCI", "dateTime": 1516825315518}, {"current_trial": 154, "trialdata": {"rt": -1, "trial_type": "single-stim", "word": "cricket", "stimulus": "<p id=\"stim\">CRICKET</p>", "conditions": [12, 1600, "v", 24000], "internal_node_id": "0.0-109.0", "trial": 4, "time_elapsed": 766593, "serialpos": 9, "key_press": -1, "wordID": 407, "type": "PRES_VIS", "trial_index": 154}, "uniqueid": "MTK2202:33ISQZVXPQT84OB8XUL8MXO7OWSCCI", "dateTime": 1516825317960}, {"current_trial": 155, "trialdata": {"rt": -1, "trial_type": "single-stim", "word": "seal", "stimulus": "<p id=\"stim\">SEAL</p>", "conditions": [12, 1600, "v", 24000], "internal_node_id": "0.0-110.0", "trial": 4, "time_elapsed": 769212, "serialpos": 10, "key_press": -1, "wordID": 1261, "type": "PRES_VIS", "trial_index": 155}, "uniqueid": "MTK2202:33ISQZVXPQT84OB8XUL8MXO7OWSCCI", "dateTime": 1516825320579}, {"current_trial": 156, "trialdata": {"rt": -1, "trial_type": "single-stim", "word": "primate", "stimulus": "<p id=\"stim\">PRIMATE</p>", "conditions": [12, 1600, "v", 24000], "internal_node_id": "0.0-111.0", "trial": 4, "time_elapsed": 771858, "serialpos": 11, "key_press": -1, "wordID": 1122, "type": "PRES_VIS", "trial_index": 156}, "uniqueid": "MTK2202:33ISQZVXPQT84OB8XUL8MXO7OWSCCI", "dateTime": 1516825323226}, {"current_trial": 157, "trialdata": {"rt": -1, "trial_type": "single-stim", "stimulus": "", "internal_node_id": "0.0-112.0-0.0", "time_elapsed": 773973, "key_press": -1, "type": "PRE_RECALL_DELAY", "trial_index": 157}, "uniqueid": "MTK2202:33ISQZVXPQT84OB8XUL8MXO7OWSCCI", "dateTime": 1516825325341}, {"current_trial": 158, "trialdata": {"rt": -1000, "trial_type": "single-audio", "stimulus": "/static/audio/400Hz.wav", "internal_node_id": "0.0-113.0", "time_elapsed": 774499, "key_press": -1, "type": "PRE_RECALL_ALERT", "trial_index": 158}, "uniqueid": "MTK2202:33ISQZVXPQT84OB8XUL8MXO7OWSCCI", "dateTime": 1516825325866}, {"current_trial": 159, "trialdata": {"rt": [3900, 7351, 10097, 13104, 16494, 20904, 22828, 26047, 29488], "recwords": ["primate", "window", "river", "sponge", "kitchen", "pork", "beef", "mamal", "primate"], "key_times": [777, 1302, 1763, 2065, 2492, 2852, 3065, 3900, 4480, 5187, 5473, 5854, 6316, 6731, 7351, 7861, 8340, 8739, 9047, 9218, 10097, 10604, 11108, 11320, 11625, 11932, 12240, 13104, 13631, 13819, 14124, 14480, 14887, 15210, 15717, 16494, 19066, 19231, 19778, 20271, 20904, 21356, 21705, 21851, 22151, 22828, 23611, 24012, 24665, 25043, 25613, 26047, 26767, 27143, 27622, 27890, 28293, 28665, 28864, 29488], "trial_type": "free-recall", "conditions": [12, 1600, "v", 24000], "internal_node_id": "0.0-114.0-0.0", "key_presses": [80, 82, 73, 77, 65, 84, 69, 13, 87, 73, 78, 68, 79, 87, 13, 82, 73, 86, 69, 82, 13, 83, 80, 79, 78, 71, 69, 13, 75, 73, 84, 67, 72, 69, 78, 13, 80, 79, 82, 75, 13, 66, 69, 69, 70, 32, 77, 65, 77, 65, 76, 13, 80, 82, 73, 77, 65, 84, 69, 13], "trial": 4, "time_elapsed": 834502, "type": "FREE_RECALL", "trial_index": 159}, "uniqueid": "MTK2202:33ISQZVXPQT84OB8XUL8MXO7OWSCCI", "dateTime": 1516825385872}, {"current_trial": 160, "trialdata": {"rt": 2478, "trial_type": "text", "internal_node_id": "0.0-115.0", "time_elapsed": 838985, "key_press": 32, "type": "INSTRUCTIONS", "trial_index": 160}, "uniqueid": "MTK2202:33ISQZVXPQT84OB8XUL8MXO7OWSCCI", "dateTime": 1516825390352}, {"current_trial": 161, "trialdata": {"rt": [3747, 7643, 11669], "trial_type": "math-distractor", "key_times": [2945, 3185, 3747, 7141, 7330, 7643, 10737, 11196, 11669], "responses": ["19", "21", "15"], "num2": [8, 8, 4, 3], "num3": [3, 8, 8, 8], "conditions": [24, 800, "v", 12000], "internal_node_id": "0.0-116.0", "key_presses": [49, 57, 13, 50, 49, 13, 49, 53, 13], "trial": 5, "time_elapsed": 852989, "type": "DISTRACTOR", "trial_index": 161, "num1": [9, 5, 3, 9]}, "uniqueid": "MTK2202:33ISQZVXPQT84OB8XUL8MXO7OWSCCI", "dateTime": 1516825404356}, {"current_trial": 162, "trialdata": {"rt": -1, "trial_type": "single-stim", "stimulus": "<p id=\"stim\">10</p>", "internal_node_id": "0.0-117.0-0.0", "time_elapsed": 855991, "key_press": -1, "trial_index": 162}, "uniqueid": "MTK2202:33ISQZVXPQT84OB8XUL8MXO7OWSCCI", "dateTime": 1516825407358}, {"current_trial": 163, "trialdata": {"rt": -1, "trial_type": "single-stim", "stimulus": "<p id=\"stim\">9</p>", "internal_node_id": "0.0-117.0-1.0", "time_elapsed": 856993, "key_press": -1, "trial_index": 163}, "uniqueid": "MTK2202:33ISQZVXPQT84OB8XUL8MXO7OWSCCI", "dateTime": 1516825408360}, {"current_trial": 164, "trialdata": {"rt": -1, "trial_type": "single-stim", "stimulus": "<p id=\"stim\">8</p>", "internal_node_id": "0.0-117.0-2.0", "time_elapsed": 857994, "key_press": -1, "trial_index": 164}, "uniqueid": "MTK2202:33ISQZVXPQT84OB8XUL8MXO7OWSCCI", "dateTime": 1516825409362}, {"current_trial": 165, "trialdata": {"rt": -1, "trial_type": "single-stim", "stimulus": "<p id=\"stim\">7</p>", "internal_node_id": "0.0-117.0-3.0", "time_elapsed": 858996, "key_press": -1, "trial_index": 165}, "uniqueid": "MTK2202:33ISQZVXPQT84OB8XUL8MXO7OWSCCI", "dateTime": 1516825410363}, {"current_trial": 166, "trialdata": {"rt": -1, "trial_type": "single-stim", "stimulus": "<p id=\"stim\">6</p>", "internal_node_id": "0.0-117.0-4.0", "time_elapsed": 859998, "key_press": -1, "trial_index": 166}, "uniqueid": "MTK2202:33ISQZVXPQT84OB8XUL8MXO7OWSCCI", "dateTime": 1516825411365}, {"current_trial": 167, "trialdata": {"rt": -1, "trial_type": "single-stim", "stimulus": "<p id=\"stim\">5</p>", "internal_node_id": "0.0-117.0-5.0", "time_elapsed": 861001, "key_press": -1, "trial_index": 167}, "uniqueid": "MTK2202:33ISQZVXPQT84OB8XUL8MXO7OWSCCI", "dateTime": 1516825412368}, {"current_trial": 168, "trialdata": {"rt": -1, "trial_type": "single-stim", "stimulus": "<p id=\"stim\">4</p>", "internal_node_id": "0.0-117.0-6.0", "time_elapsed": 862002, "key_press": -1, "trial_index": 168}, "uniqueid": "MTK2202:33ISQZVXPQT84OB8XUL8MXO7OWSCCI", "dateTime": 1516825413369}, {"current_trial": 169, "trialdata": {"rt": -1, "trial_type": "single-stim", "stimulus": "<p id=\"stim\">3</p>", "internal_node_id": "0.0-117.0-7.0", "time_elapsed": 863004, "key_press": -1, "trial_index": 169}, "uniqueid": "MTK2202:33ISQZVXPQT84OB8XUL8MXO7OWSCCI", "dateTime": 1516825414371}, {"current_trial": 170, "trialdata": {"rt": -1, "trial_type": "single-stim", "stimulus": "<p id=\"stim\">2</p>", "internal_node_id": "0.0-117.0-8.0", "time_elapsed": 864005, "key_press": -1, "trial_index": 170}, "uniqueid": "MTK2202:33ISQZVXPQT84OB8XUL8MXO7OWSCCI", "dateTime": 1516825415373}, {"current_trial": 171, "trialdata": {"rt": -1, "trial_type": "single-stim", "stimulus": "<p id=\"stim\">1</p>", "internal_node_id": "0.0-117.0-9.0", "time_elapsed": 865007, "key_press": -1, "trial_index": 171}, "uniqueid": "MTK2202:33ISQZVXPQT84OB8XUL8MXO7OWSCCI", "dateTime": 1516825416374}, {"current_trial": 172, "trialdata": {"rt": -1, "trial_type": "single-stim", "stimulus": "<p id=\"stim\">+</p>", "internal_node_id": "0.0-118.0-0.0", "time_elapsed": 866509, "key_press": -1, "type": "FIXATION", "trial_index": 172}, "uniqueid": "MTK2202:33ISQZVXPQT84OB8XUL8MXO7OWSCCI", "dateTime": 1516825417876}, {"current_trial": 173, "trialdata": {"rt": -1, "trial_type": "single-stim", "word": "robber", "stimulus": "<p id=\"stim\">ROBBER</p>", "conditions": [24, 800, "v", 12000], "internal_node_id": "0.0-119.0", "trial": 5, "time_elapsed": 867310, "serialpos": 0, "key_press": -1, "wordID": 1196, "type": "PRES_VIS", "trial_index": 173}, "uniqueid": "MTK2202:33ISQZVXPQT84OB8XUL8MXO7OWSCCI", "dateTime": 1516825418677}, {"current_trial": 174, "trialdata": {"rt": -1, "trial_type": "single-stim", "word": "honey", "stimulus": "<p id=\"stim\">HONEY</p>", "conditions": [24, 800, "v", 12000], "internal_node_id": "0.0-120.0", "trial": 5, "time_elapsed": 868948, "serialpos": 1, "key_press": -1, "wordID": 712, "type": "PRES_VIS", "trial_index": 174}, "uniqueid": "MTK2202:33ISQZVXPQT84OB8XUL8MXO7OWSCCI", "dateTime": 1516825420315}, {"current_trial": 175, "trialdata": {"rt": -1, "trial_type": "single-stim", "word": "milk", "stimulus": "<p id=\"stim\">MILK</p>", "conditions": [24, 800, "v", 12000], "internal_node_id": "0.0-121.0", "trial": 5, "time_elapsed": 870637, "serialpos": 2, "key_press": -1, "wordID": 894, "type": "PRES_VIS", "trial_index": 175}, "uniqueid": "MTK2202:33ISQZVXPQT84OB8XUL8MXO7OWSCCI", "dateTime": 1516825422004}, {"current_trial": 176, "trialdata": {"rt": -1, "trial_type": "single-stim", "word": "wrist", "stimulus": "<p id=\"stim\">WRIST</p>", "conditions": [24, 800, "v", 12000], "internal_node_id": "0.0-122.0", "trial": 5, "time_elapsed": 872507, "serialpos": 3, "key_press": -1, "wordID": 1625, "type": "PRES_VIS", "trial_index": 176}, "uniqueid": "MTK2202:33ISQZVXPQT84OB8XUL8MXO7OWSCCI", "dateTime": 1516825423874}, {"current_trial": 177, "trialdata": {"rt": -1, "trial_type": "single-stim", "word": "college", "stimulus": "<p id=\"stim\">COLLEGE</p>", "conditions": [24, 800, "v", 12000], "internal_node_id": "0.0-123.0", "trial": 5, "time_elapsed": 874165, "serialpos": 4, "key_press": -1, "wordID": 345, "type": "PRES_VIS", "trial_index": 177}, "uniqueid": "MTK2202:33ISQZVXPQT84OB8XUL8MXO7OWSCCI", "dateTime": 1516825425532}, {"current_trial": 178, "trialdata": {"rt": -1, "trial_type": "single-stim", "word": "wagon", "stimulus": "<p id=\"stim\">WAGON</p>", "conditions": [24, 800, "v", 12000], "internal_node_id": "0.0-124.0", "trial": 5, "time_elapsed": 875804, "serialpos": 5, "key_press": -1, "wordID": 1577, "type": "PRES_VIS", "trial_index": 178}, "uniqueid": "MTK2202:33ISQZVXPQT84OB8XUL8MXO7OWSCCI", "dateTime": 1516825427171}, {"current_trial": 179, "trialdata": {"rt": -1, "trial_type": "single-stim", "word": "ghetto", "stimulus": "<p id=\"stim\">GHETTO</p>", "conditions": [24, 800, "v", 12000], "internal_node_id": "0.0-125.0", "trial": 5, "time_elapsed": 877798, "serialpos": 6, "key_press": -1, "wordID": 632, "type": "PRES_VIS", "trial_index": 179}, "uniqueid": "MTK2202:33ISQZVXPQT84OB8XUL8MXO7OWSCCI", "dateTime": 1516825429165}, {"current_trial": 180, "trialdata": {"rt": -1, "trial_type": "single-stim", "word": "cashier", "stimulus": "<p id=\"stim\">CASHIER</p>", "conditions": [24, 800, "v", 12000], "internal_node_id": "0.0-126.0", "trial": 5, "time_elapsed": 879607, "serialpos": 7, "key_press": -1, "wordID": 253, "type": "PRES_VIS", "trial_index": 180}, "uniqueid": "MTK2202:33ISQZVXPQT84OB8XUL8MXO7OWSCCI", "dateTime": 1516825430974}, {"current_trial": 181, "trialdata": {"rt": -1, "trial_type": "single-stim", "word": "friend", "stimulus": "<p id=\"stim\">FRIEND</p>", "conditions": [24, 800, "v", 12000], "internal_node_id": "0.0-127.0", "trial": 5, "time_elapsed": 881507, "serialpos": 8, "key_press": -1, "wordID": 605, "type": "PRES_VIS", "trial_index": 181}, "uniqueid": "MTK2202:33ISQZVXPQT84OB8XUL8MXO7OWSCCI", "dateTime": 1516825432874}, {"current_trial": 182, "trialdata": {"rt": -1, "trial_type": "single-stim", "word": "dresser", "stimulus": "<p id=\"stim\">DRESSER</p>", "conditions": [24, 800, "v", 12000], "internal_node_id": "0.0-128.0", "trial": 5, "time_elapsed": 883454, "serialpos": 9, "key_press": -1, "wordID": 495, "type": "PRES_VIS", "trial_index": 182}, "uniqueid": "MTK2202:33ISQZVXPQT84OB8XUL8MXO7OWSCCI", "dateTime": 1516825434821}, {"current_trial": 183, "trialdata": {"rt": -1, "trial_type": "single-stim", "word": "sword", "stimulus": "<p id=\"stim\">SWORD</p>", "conditions": [24, 800, "v", 12000], "internal_node_id": "0.0-129.0", "trial": 5, "time_elapsed": 885150, "serialpos": 10, "key_press": -1, "wordID": 1422, "type": "PRES_VIS", "trial_index": 183}, "uniqueid": "MTK2202:33ISQZVXPQT84OB8XUL8MXO7OWSCCI", "dateTime": 1516825436517}, {"current_trial": 184, "trialdata": {"rt": -1, "trial_type": "single-stim", "word": "pimple", "stimulus": "<p id=\"stim\">PIMPLE</p>", "conditions": [24, 800, "v", 12000], "internal_node_id": "0.0-130.0", "trial": 5, "time_elapsed": 886980, "serialpos": 11, "key_press": -1, "wordID": 1070, "type": "PRES_VIS", "trial_index": 184}, "uniqueid": "MTK2202:33ISQZVXPQT84OB8XUL8MXO7OWSCCI", "dateTime": 1516825438347}, {"current_trial": 185, "trialdata": {"rt": -1, "trial_type": "single-stim", "word": "swimmer", "stimulus": "<p id=\"stim\">SWIMMER</p>", "conditions": [24, 800, "v", 12000], "internal_node_id": "0.0-131.0", "trial": 5, "time_elapsed": 888968, "serialpos": 12, "key_press": -1, "wordID": 1419, "type": "PRES_VIS", "trial_index": 185}, "uniqueid": "MTK2202:33ISQZVXPQT84OB8XUL8MXO7OWSCCI", "dateTime": 1516825440335}, {"current_trial": 186, "trialdata": {"rt": -1, "trial_type": "single-stim", "word": "apple", "stimulus": "<p id=\"stim\">APPLE</p>", "conditions": [24, 800, "v", 12000], "internal_node_id": "0.0-132.0", "trial": 5, "time_elapsed": 890921, "serialpos": 13, "key_press": -1, "wordID": 32, "type": "PRES_VIS", "trial_index": 186}, "uniqueid": "MTK2202:33ISQZVXPQT84OB8XUL8MXO7OWSCCI", "dateTime": 1516825442288}, {"current_trial": 187, "trialdata": {"rt": -1, "trial_type": "single-stim", "word": "grape", "stimulus": "<p id=\"stim\">GRAPE</p>", "conditions": [24, 800, "v", 12000], "internal_node_id": "0.0-133.0", "trial": 5, "time_elapsed": 892891, "serialpos": 14, "key_press": -1, "wordID": 653, "type": "PRES_VIS", "trial_index": 187}, "uniqueid": "MTK2202:33ISQZVXPQT84OB8XUL8MXO7OWSCCI", "dateTime": 1516825444258}, {"current_trial": 188, "trialdata": {"rt": -1, "trial_type": "single-stim", "word": "slime", "stimulus": "<p id=\"stim\">SLIME</p>", "conditions": [24, 800, "v", 12000], "internal_node_id": "0.0-134.0", "trial": 5, "time_elapsed": 894603, "serialpos": 15, "key_press": -1, "wordID": 1326, "type": "PRES_VIS", "trial_index": 188}, "uniqueid": "MTK2202:33ISQZVXPQT84OB8XUL8MXO7OWSCCI", "dateTime": 1516825445971}, {"current_trial": 189, "trialdata": {"rt": -1, "trial_type": "single-stim", "word": "robin", "stimulus": "<p id=\"stim\">ROBIN</p>", "conditions": [24, 800, "v", 12000], "internal_node_id": "0.0-135.0", "trial": 5, "time_elapsed": 896282, "serialpos": 16, "key_press": -1, "wordID": 1198, "type": "PRES_VIS", "trial_index": 189}, "uniqueid": "MTK2202:33ISQZVXPQT84OB8XUL8MXO7OWSCCI", "dateTime": 1516825447649}, {"current_trial": 190, "trialdata": {"rt": -1, "trial_type": "single-stim", "word": "parent", "stimulus": "<p id=\"stim\">PARENT</p>", "conditions": [24, 800, "v", 12000], "internal_node_id": "0.0-136.0", "trial": 5, "time_elapsed": 898150, "serialpos": 17, "key_press": -1, "wordID": 1012, "type": "PRES_VIS", "trial_index": 190}, "uniqueid": "MTK2202:33ISQZVXPQT84OB8XUL8MXO7OWSCCI", "dateTime": 1516825449517}, {"current_trial": 191, "trialdata": {"rt": -1, "trial_type": "single-stim", "word": "trench", "stimulus": "<p id=\"stim\">TRENCH</p>", "conditions": [24, 800, "v", 12000], "internal_node_id": "0.0-137.0", "trial": 5, "time_elapsed": 899914, "serialpos": 18, "key_press": -1, "wordID": 1502, "type": "PRES_VIS", "trial_index": 191}, "uniqueid": "MTK2202:33ISQZVXPQT84OB8XUL8MXO7OWSCCI", "dateTime": 1516825451281}, {"current_trial": 192, "trialdata": {"rt": -1, "trial_type": "single-stim", "word": "army", "stimulus": "<p id=\"stim\">ARMY</p>", "conditions": [24, 800, "v", 12000], "internal_node_id": "0.0-138.0", "trial": 5, "time_elapsed": 901544, "serialpos": 19, "key_press": -1, "wordID": 38, "type": "PRES_VIS", "trial_index": 192}, "uniqueid": "MTK2202:33ISQZVXPQT84OB8XUL8MXO7OWSCCI", "dateTime": 1516825452911}, {"current_trial": 193, "trialdata": {"rt": -1, "trial_type": "single-stim", "word": "cowboy", "stimulus": "<p id=\"stim\">COWBOY</p>", "conditions": [24, 800, "v", 12000], "internal_node_id": "0.0-139.0", "trial": 5, "time_elapsed": 903417, "serialpos": 20, "key_press": -1, "wordID": 394, "type": "PRES_VIS", "trial_index": 193}, "uniqueid": "MTK2202:33ISQZVXPQT84OB8XUL8MXO7OWSCCI", "dateTime": 1516825454784}, {"current_trial": 194, "trialdata": {"rt": -1, "trial_type": "single-stim", "word": "freckle", "stimulus": "<p id=\"stim\">FRECKLE</p>", "conditions": [24, 800, "v", 12000], "internal_node_id": "0.0-140.0", "trial": 5, "time_elapsed": 905088, "serialpos": 21, "key_press": -1, "wordID": 601, "type": "PRES_VIS", "trial_index": 194}, "uniqueid": "MTK2202:33ISQZVXPQT84OB8XUL8MXO7OWSCCI", "dateTime": 1516825456455}, {"current_trial": 195, "trialdata": {"rt": -1, "trial_type": "single-stim", "word": "diver", "stimulus": "<p id=\"stim\">DIVER</p>", "conditions": [24, 800, "v", 12000], "internal_node_id": "0.0-141.0", "trial": 5, "time_elapsed": 906869, "serialpos": 22, "key_press": -1, "wordID": 475, "type": "PRES_VIS", "trial_index": 195}, "uniqueid": "MTK2202:33ISQZVXPQT84OB8XUL8MXO7OWSCCI", "dateTime": 1516825458236}, {"current_trial": 196, "trialdata": {"rt": -1, "trial_type": "single-stim", "word": "pistol", "stimulus": "<p id=\"stim\">PISTOL</p>", "conditions": [24, 800, "v", 12000], "internal_node_id": "0.0-142.0", "trial": 5, "time_elapsed": 908860, "serialpos": 23, "key_press": -1, "wordID": 1074, "type": "PRES_VIS", "trial_index": 196}, "uniqueid": "MTK2202:33ISQZVXPQT84OB8XUL8MXO7OWSCCI", "dateTime": 1516825460227}, {"current_trial": 197, "trialdata": {"rt": -1, "trial_type": "single-stim", "stimulus": "", "internal_node_id": "0.0-143.0-0.0", "time_elapsed": 911406, "key_press": -1, "type": "PRE_RECALL_DELAY", "trial_index": 197}, "uniqueid": "MTK2202:33ISQZVXPQT84OB8XUL8MXO7OWSCCI", "dateTime": 1516825462773}, {"current_trial": 198, "trialdata": {"rt": -1000, "trial_type": "single-audio", "stimulus": "/static/audio/400Hz.wav", "internal_node_id": "0.0-144.0", "time_elapsed": 911908, "key_press": -1, "type": "PRE_RECALL_ALERT", "trial_index": 198}, "uniqueid": "MTK2202:33ISQZVXPQT84OB8XUL8MXO7OWSCCI", "dateTime": 1516825463275}, {"current_trial": 199, "trialdata": {"rt": [2262, 4430, 6562, 11919, 49000], "recwords": ["rober", "pistol", "gettoh", "milk", "apple"], "key_times": [958, 1107, 1270, 1481, 1596, 2262, 3041, 3260, 3393, 3584, 3728, 3983, 4430, 4982, 5134, 5374, 5501, 5913, 6165, 6562, 11063, 11212, 11428, 11661, 11919, 48100, 48396, 48450, 48668, 48815, 49000], "trial_type": "free-recall", "conditions": [24, 800, "v", 12000], "internal_node_id": "0.0-145.0-0.0", "key_presses": [82, 79, 66, 69, 82, 13, 80, 73, 83, 84, 79, 76, 13, 71, 69, 84, 84, 79, 72, 13, 77, 73, 76, 75, 13, 65, 80, 80, 76, 69, 13], "trial": 5, "time_elapsed": 971910, "type": "FREE_RECALL", "trial_index": 199}, "uniqueid": "MTK2202:33ISQZVXPQT84OB8XUL8MXO7OWSCCI", "dateTime": 1516825523281}, {"current_trial": 200, "trialdata": {"rt": 3725, "trial_type": "text", "internal_node_id": "0.0-146.0", "time_elapsed": 977641, "key_press": 32, "type": "INSTRUCTIONS", "trial_index": 200}, "uniqueid": "MTK2202:33ISQZVXPQT84OB8XUL8MXO7OWSCCI", "dateTime": 1516825529008}, {"current_trial": 201, "trialdata": {"rt": [3206, 5667, 7799, 10149], "trial_type": "math-distractor", "key_times": [2530, 2838, 3206, 5338, 5529, 5667, 7470, 7799, 9823, 9961, 10149], "responses": ["18", "12", "6", "12"], "num2": [8, 4, 4, 7, 1], "num3": [9, 4, 1, 3, 3], "conditions": [24, 1600, "v", 12000], "internal_node_id": "0.0-147.0", "key_presses": [49, 56, 13, 49, 50, 13, 54, 13, 49, 50, 13], "trial": 6, "time_elapsed": 991646, "type": "DISTRACTOR", "trial_index": 201, "num1": [2, 4, 1, 2, 5]}, "uniqueid": "MTK2202:33ISQZVXPQT84OB8XUL8MXO7OWSCCI", "dateTime": 1516825543013}, {"current_trial": 202, "trialdata": {"rt": -1, "trial_type": "single-stim", "stimulus": "<p id=\"stim\">10</p>", "internal_node_id": "0.0-148.0-0.0", "time_elapsed": 994648, "key_press": -1, "trial_index": 202}, "uniqueid": "MTK2202:33ISQZVXPQT84OB8XUL8MXO7OWSCCI", "dateTime": 1516825546015}, {"current_trial": 203, "trialdata": {"rt": -1, "trial_type": "single-stim", "stimulus": "<p id=\"stim\">9</p>", "internal_node_id": "0.0-148.0-1.0", "time_elapsed": 995650, "key_press": -1, "trial_index": 203}, "uniqueid": "MTK2202:33ISQZVXPQT84OB8XUL8MXO7OWSCCI", "dateTime": 1516825547017}, {"current_trial": 204, "trialdata": {"rt": -1, "trial_type": "single-stim", "stimulus": "<p id=\"stim\">8</p>", "internal_node_id": "0.0-148.0-2.0", "time_elapsed": 996652, "key_press": -1, "trial_index": 204}, "uniqueid": "MTK2202:33ISQZVXPQT84OB8XUL8MXO7OWSCCI", "dateTime": 1516825548019}, {"current_trial": 205, "trialdata": {"rt": -1, "trial_type": "single-stim", "stimulus": "<p id=\"stim\">7</p>", "internal_node_id": "0.0-148.0-3.0", "time_elapsed": 997654, "key_press": -1, "trial_index": 205}, "uniqueid": "MTK2202:33ISQZVXPQT84OB8XUL8MXO7OWSCCI", "dateTime": 1516825549021}, {"current_trial": 206, "trialdata": {"rt": -1, "trial_type": "single-stim", "stimulus": "<p id=\"stim\">6</p>", "internal_node_id": "0.0-148.0-4.0", "time_elapsed": 998656, "key_press": -1, "trial_index": 206}, "uniqueid": "MTK2202:33ISQZVXPQT84OB8XUL8MXO7OWSCCI", "dateTime": 1516825550023}, {"current_trial": 207, "trialdata": {"rt": -1, "trial_type": "single-stim", "stimulus": "<p id=\"stim\">5</p>", "internal_node_id": "0.0-148.0-5.0", "time_elapsed": 999657, "key_press": -1, "trial_index": 207}, "uniqueid": "MTK2202:33ISQZVXPQT84OB8XUL8MXO7OWSCCI", "dateTime": 1516825551024}, {"current_trial": 208, "trialdata": {"rt": -1, "trial_type": "single-stim", "stimulus": "<p id=\"stim\">4</p>", "internal_node_id": "0.0-148.0-6.0", "time_elapsed": 1000659, "key_press": -1, "trial_index": 208}, "uniqueid": "MTK2202:33ISQZVXPQT84OB8XUL8MXO7OWSCCI", "dateTime": 1516825552026}, {"current_trial": 209, "trialdata": {"rt": -1, "trial_type": "single-stim", "stimulus": "<p id=\"stim\">3</p>", "internal_node_id": "0.0-148.0-7.0", "time_elapsed": 1001661, "key_press": -1, "trial_index": 209}, "uniqueid": "MTK2202:33ISQZVXPQT84OB8XUL8MXO7OWSCCI", "dateTime": 1516825553028}, {"current_trial": 210, "trialdata": {"rt": -1, "trial_type": "single-stim", "stimulus": "<p id=\"stim\">2</p>", "internal_node_id": "0.0-148.0-8.0", "time_elapsed": 1002663, "key_press": -1, "trial_index": 210}, "uniqueid": "MTK2202:33ISQZVXPQT84OB8XUL8MXO7OWSCCI", "dateTime": 1516825554030}, {"current_trial": 211, "trialdata": {"rt": -1, "trial_type": "single-stim", "stimulus": "<p id=\"stim\">1</p>", "internal_node_id": "0.0-148.0-9.0", "time_elapsed": 1003664, "key_press": -1, "trial_index": 211}, "uniqueid": "MTK2202:33ISQZVXPQT84OB8XUL8MXO7OWSCCI", "dateTime": 1516825555031}, {"current_trial": 212, "trialdata": {"rt": -1, "trial_type": "single-stim", "stimulus": "<p id=\"stim\">+</p>", "internal_node_id": "0.0-149.0-0.0", "time_elapsed": 1005166, "key_press": -1, "type": "FIXATION", "trial_index": 212}, "uniqueid": "MTK2202:33ISQZVXPQT84OB8XUL8MXO7OWSCCI", "dateTime": 1516825556533}, {"current_trial": 213, "trialdata": {"rt": -1, "trial_type": "single-stim", "word": "cross", "stimulus": "<p id=\"stim\">CROSS</p>", "conditions": [24, 1600, "v", 12000], "internal_node_id": "0.0-150.0", "trial": 6, "time_elapsed": 1006769, "serialpos": 0, "key_press": -1, "wordID": 412, "type": "PRES_VIS", "trial_index": 213}, "uniqueid": "MTK2202:33ISQZVXPQT84OB8XUL8MXO7OWSCCI", "dateTime": 1516825558136}, {"current_trial": 214, "trialdata": {"rt": -1, "trial_type": "single-stim", "word": "guitar", "stimulus": "<p id=\"stim\">GUITAR</p>", "conditions": [24, 1600, "v", 12000], "internal_node_id": "0.0-151.0", "trial": 6, "time_elapsed": 1009537, "serialpos": 1, "key_press": -1, "wordID": 669, "type": "PRES_VIS", "trial_index": 214}, "uniqueid": "MTK2202:33ISQZVXPQT84OB8XUL8MXO7OWSCCI", "dateTime": 1516825560904}, {"current_trial": 215, "trialdata": {"rt": -1, "trial_type": "single-stim", "word": "onion", "stimulus": "<p id=\"stim\">ONION</p>", "conditions": [24, 1600, "v", 12000], "internal_node_id": "0.0-152.0", "trial": 6, "time_elapsed": 1012098, "serialpos": 2, "key_press": -1, "wordID": 976, "type": "PRES_VIS", "trial_index": 215}, "uniqueid": "MTK2202:33ISQZVXPQT84OB8XUL8MXO7OWSCCI", "dateTime": 1516825563465}, {"current_trial": 216, "trialdata": {"rt": -1, "trial_type": "single-stim", "word": "rooster", "stimulus": "<p id=\"stim\">ROOSTER</p>", "conditions": [24, 1600, "v", 12000], "internal_node_id": "0.0-153.0", "trial": 6, "time_elapsed": 1014793, "serialpos": 3, "key_press": -1, "wordID": 1208, "type": "PRES_VIS", "trial_index": 216}, "uniqueid": "MTK2202:33ISQZVXPQT84OB8XUL8MXO7OWSCCI", "dateTime": 1516825566160}, {"current_trial": 217, "trialdata": {"rt": -1, "trial_type": "single-stim", "word": "trombone", "stimulus": "<p id=\"stim\">TROMBONE</p>", "conditions": [24, 1600, "v", 12000], "internal_node_id": "0.0-154.0", "trial": 6, "time_elapsed": 1017210, "serialpos": 4, "key_press": -1, "wordID": 1507, "type": "PRES_VIS", "trial_index": 217}, "uniqueid": "MTK2202:33ISQZVXPQT84OB8XUL8MXO7OWSCCI", "dateTime": 1516825568577}, {"current_trial": 218, "trialdata": {"rt": -1, "trial_type": "single-stim", "word": "atlas", "stimulus": "<p id=\"stim\">ATLAS</p>", "conditions": [24, 1600, "v", 12000], "internal_node_id": "0.0-155.0", "trial": 6, "time_elapsed": 1019732, "serialpos": 5, "key_press": -1, "wordID": 52, "type": "PRES_VIS", "trial_index": 218}, "uniqueid": "MTK2202:33ISQZVXPQT84OB8XUL8MXO7OWSCCI", "dateTime": 1516825571099}, {"current_trial": 219, "trialdata": {"rt": -1, "trial_type": "single-stim", "word": "flashlight", "stimulus": "<p id=\"stim\">FLASHLIGHT</p>", "conditions": [24, 1600, "v", 12000], "internal_node_id": "0.0-156.0", "trial": 6, "time_elapsed": 1022408, "serialpos": 6, "key_press": -1, "wordID": 574, "type": "PRES_VIS", "trial_index": 219}, "uniqueid": "MTK2202:33ISQZVXPQT84OB8XUL8MXO7OWSCCI", "dateTime": 1516825573775}, {"current_trial": 220, "trialdata": {"rt": -1, "trial_type": "single-stim", "word": "hood", "stimulus": "<p id=\"stim\">HOOD</p>", "conditions": [24, 1600, "v", 12000], "internal_node_id": "0.0-157.0", "trial": 6, "time_elapsed": 1024898, "serialpos": 7, "key_press": -1, "wordID": 713, "type": "PRES_VIS", "trial_index": 220}, "uniqueid": "MTK2202:33ISQZVXPQT84OB8XUL8MXO7OWSCCI", "dateTime": 1516825576265}, {"current_trial": 221, "trialdata": {"rt": -1, "trial_type": "single-stim", "word": "nurse", "stimulus": "<p id=\"stim\">NURSE</p>", "conditions": [24, 1600, "v", 12000], "internal_node_id": "0.0-158.0", "trial": 6, "time_elapsed": 1027428, "serialpos": 8, "key_press": -1, "wordID": 962, "type": "PRES_VIS", "trial_index": 221}, "uniqueid": "MTK2202:33ISQZVXPQT84OB8XUL8MXO7OWSCCI", "dateTime": 1516825578795}, {"current_trial": 222, "trialdata": {"rt": -1, "trial_type": "single-stim", "word": "flute", "stimulus": "<p id=\"stim\">FLUTE</p>", "conditions": [24, 1600, "v", 12000], "internal_node_id": "0.0-159.0", "trial": 6, "time_elapsed": 1029877, "serialpos": 9, "key_press": -1, "wordID": 584, "type": "PRES_VIS", "trial_index": 222}, "uniqueid": "MTK2202:33ISQZVXPQT84OB8XUL8MXO7OWSCCI", "dateTime": 1516825581244}, {"current_trial": 223, "trialdata": {"rt": -1, "trial_type": "single-stim", "word": "banjo", "stimulus": "<p id=\"stim\">BANJO</p>", "conditions": [24, 1600, "v", 12000], "internal_node_id": "0.0-160.0", "trial": 6, "time_elapsed": 1032282, "serialpos": 10, "key_press": -1, "wordID": 81, "type": "PRES_VIS", "trial_index": 223}, "uniqueid": "MTK2202:33ISQZVXPQT84OB8XUL8MXO7OWSCCI", "dateTime": 1516825583649}, {"current_trial": 224, "trialdata": {"rt": -1, "trial_type": "single-stim", "word": "shirt", "stimulus": "<p id=\"stim\">SHIRT</p>", "conditions": [24, 1600, "v", 12000], "internal_node_id": "0.0-161.0", "trial": 6, "time_elapsed": 1034814, "serialpos": 11, "key_press": -1, "wordID": 1286, "type": "PRES_VIS", "trial_index": 224}, "uniqueid": "MTK2202:33ISQZVXPQT84OB8XUL8MXO7OWSCCI", "dateTime": 1516825586181}, {"current_trial": 225, "trialdata": {"rt": -1, "trial_type": "single-stim", "word": "pasta", "stimulus": "<p id=\"stim\">PASTA</p>", "conditions": [24, 1600, "v", 12000], "internal_node_id": "0.0-162.0", "trial": 6, "time_elapsed": 1037285, "serialpos": 12, "key_press": -1, "wordID": 1020, "type": "PRES_VIS", "trial_index": 225}, "uniqueid": "MTK2202:33ISQZVXPQT84OB8XUL8MXO7OWSCCI", "dateTime": 1516825588652}, {"current_trial": 226, "trialdata": {"rt": -1, "trial_type": "single-stim", "word": "marine", "stimulus": "<p id=\"stim\">MARINE</p>", "conditions": [24, 1600, "v", 12000], "internal_node_id": "0.0-163.0", "trial": 6, "time_elapsed": 1039768, "serialpos": 13, "key_press": -1, "wordID": 868, "type": "PRES_VIS", "trial_index": 226}, "uniqueid": "MTK2202:33ISQZVXPQT84OB8XUL8MXO7OWSCCI", "dateTime": 1516825591136}, {"current_trial": 227, "trialdata": {"rt": -1, "trial_type": "single-stim", "word": "buggy", "stimulus": "<p id=\"stim\">BUGGY</p>", "conditions": [24, 1600, "v", 12000], "internal_node_id": "0.0-164.0", "trial": 6, "time_elapsed": 1042459, "serialpos": 14, "key_press": -1, "wordID": 187, "type": "PRES_VIS", "trial_index": 227}, "uniqueid": "MTK2202:33ISQZVXPQT84OB8XUL8MXO7OWSCCI", "dateTime": 1516825593826}, {"current_trial": 228, "trialdata": {"rt": -1, "trial_type": "single-stim", "word": "couch", "stimulus": "<p id=\"stim\">COUCH</p>", "conditions": [24, 1600, "v", 12000], "internal_node_id": "0.0-165.0", "trial": 6, "time_elapsed": 1045142, "serialpos": 15, "key_press": -1, "wordID": 385, "type": "PRES_VIS", "trial_index": 228}, "uniqueid": "MTK2202:33ISQZVXPQT84OB8XUL8MXO7OWSCCI", "dateTime": 1516825596509}, {"current_trial": 229, "trialdata": {"rt": -1, "trial_type": "single-stim", "word": "treat", "stimulus": "<p id=\"stim\">TREAT</p>", "conditions": [24, 1600, "v", 12000], "internal_node_id": "0.0-166.0", "trial": 6, "time_elapsed": 1047871, "serialpos": 16, "key_press": -1, "wordID": 1500, "type": "PRES_VIS", "trial_index": 229}, "uniqueid": "MTK2202:33ISQZVXPQT84OB8XUL8MXO7OWSCCI", "dateTime": 1516825599238}, {"current_trial": 230, "trialdata": {"rt": -1, "trial_type": "single-stim", "word": "judge", "stimulus": "<p id=\"stim\">JUDGE</p>", "conditions": [24, 1600, "v", 12000], "internal_node_id": "0.0-167.0", "trial": 6, "time_elapsed": 1050460, "serialpos": 17, "key_press": -1, "wordID": 760, "type": "PRES_VIS", "trial_index": 230}, "uniqueid": "MTK2202:33ISQZVXPQT84OB8XUL8MXO7OWSCCI", "dateTime": 1516825601827}, {"current_trial": 231, "trialdata": {"rt": -1, "trial_type": "single-stim", "word": "bison", "stimulus": "<p id=\"stim\">BISON</p>", "conditions": [24, 1600, "v", 12000], "internal_node_id": "0.0-168.0", "trial": 6, "time_elapsed": 1053060, "serialpos": 18, "key_press": -1, "wordID": 130, "type": "PRES_VIS", "trial_index": 231}, "uniqueid": "MTK2202:33ISQZVXPQT84OB8XUL8MXO7OWSCCI", "dateTime": 1516825604427}, {"current_trial": 232, "trialdata": {"rt": -1, "trial_type": "single-stim", "word": "kidney", "stimulus": "<p id=\"stim\">KIDNEY</p>", "conditions": [24, 1600, "v", 12000], "internal_node_id": "0.0-169.0", "trial": 6, "time_elapsed": 1055836, "serialpos": 19, "key_press": -1, "wordID": 775, "type": "PRES_VIS", "trial_index": 232}, "uniqueid": "MTK2202:33ISQZVXPQT84OB8XUL8MXO7OWSCCI", "dateTime": 1516825607203}, {"current_trial": 233, "trialdata": {"rt": -1, "trial_type": "single-stim", "word": "gymnast", "stimulus": "<p id=\"stim\">GYMNAST</p>", "conditions": [24, 1600, "v", 12000], "internal_node_id": "0.0-170.0", "trial": 6, "time_elapsed": 1058631, "serialpos": 20, "key_press": -1, "wordID": 674, "type": "PRES_VIS", "trial_index": 233}, "uniqueid": "MTK2202:33ISQZVXPQT84OB8XUL8MXO7OWSCCI", "dateTime": 1516825609998}, {"current_trial": 234, "trialdata": {"rt": -1, "trial_type": "single-stim", "word": "dancer", "stimulus": "<p id=\"stim\">DANCER</p>", "conditions": [24, 1600, "v", 12000], "internal_node_id": "0.0-171.0", "trial": 6, "time_elapsed": 1061281, "serialpos": 21, "key_press": -1, "wordID": 436, "type": "PRES_VIS", "trial_index": 234}, "uniqueid": "MTK2202:33ISQZVXPQT84OB8XUL8MXO7OWSCCI", "dateTime": 1516825612648}, {"current_trial": 235, "trialdata": {"rt": -1, "trial_type": "single-stim", "word": "parsley", "stimulus": "<p id=\"stim\">PARSLEY</p>", "conditions": [24, 1600, "v", 12000], "internal_node_id": "0.0-172.0", "trial": 6, "time_elapsed": 1063762, "serialpos": 22, "key_press": -1, "wordID": 1015, "type": "PRES_VIS", "trial_index": 235}, "uniqueid": "MTK2202:33ISQZVXPQT84OB8XUL8MXO7OWSCCI", "dateTime": 1516825615130}, {"current_trial": 236, "trialdata": {"rt": -1, "trial_type": "single-stim", "word": "tweezers", "stimulus": "<p id=\"stim\">TWEEZERS</p>", "conditions": [24, 1600, "v", 12000], "internal_node_id": "0.0-173.0", "trial": 6, "time_elapsed": 1066515, "serialpos": 23, "key_press": -1, "wordID": 1525, "type": "PRES_VIS", "trial_index": 236}, "uniqueid": "MTK2202:33ISQZVXPQT84OB8XUL8MXO7OWSCCI", "dateTime": 1516825617882}, {"current_trial": 237, "trialdata": {"rt": -1, "trial_type": "single-stim", "stimulus": "", "internal_node_id": "0.0-174.0-0.0", "time_elapsed": 1068939, "key_press": -1, "type": "PRE_RECALL_DELAY", "trial_index": 237}, "uniqueid": "MTK2202:33ISQZVXPQT84OB8XUL8MXO7OWSCCI", "dateTime": 1516825620306}, {"current_trial": 238, "trialdata": {"rt": -1000, "trial_type": "single-audio", "stimulus": "/static/audio/400Hz.wav", "internal_node_id": "0.0-175.0", "time_elapsed": 1069440, "key_press": -1, "type": "PRE_RECALL_ALERT", "trial_index": 238}, "uniqueid": "MTK2202:33ISQZVXPQT84OB8XUL8MXO7OWSCCI", "dateTime": 1516825620807}, {"current_trial": 239, "trialdata": {"rt": [2371, 4099, 11083, 16630, 31647], "recwords": ["tweezers", "flute", "trombone", "bison", "river"], "key_times": [520, 781, 970, 1137, 1402, 1714, 1872, 2145, 2371, 2744, 3039, 3294, 3639, 3901, 4099, 5855, 6071, 6196, 6420, 6866, 7064, 7286, 7625, 11083, 15508, 15695, 15867, 15997, 16153, 16630, 27094, 27615, 27680, 28174, 28358, 28502, 29133, 30047, 30483, 30737, 30873, 31647], "trial_type": "free-recall", "conditions": [24, 1600, "v", 12000], "internal_node_id": "0.0-176.0-0.0", "key_presses": [84, 87, 69, 69, 90, 69, 82, 83, 13, 70, 76, 85, 84, 69, 13, 84, 82, 79, 77, 66, 79, 78, 69, 13, 66, 73, 83, 79, 78, 13, 82, 73, 70, 8, 8, 86, 8, 73, 86, 69, 82, 13], "trial": 6, "time_elapsed": 1129444, "type": "FREE_RECALL", "trial_index": 239}, "uniqueid": "MTK2202:33ISQZVXPQT84OB8XUL8MXO7OWSCCI", "dateTime": 1516825680817}, {"current_trial": 240, "trialdata": {"rt": 1504, "trial_type": "text", "internal_node_id": "0.0-177.0", "time_elapsed": 1132957, "key_press": 32, "type": "INSTRUCTIONS", "trial_index": 240}, "uniqueid": "MTK2202:33ISQZVXPQT84OB8XUL8MXO7OWSCCI", "dateTime": 1516825684324}, {"current_trial": 241, "trialdata": {"rt": [3357, 7147], "trial_type": "math-distractor", "key_times": [2773, 3075, 3357, 7010, 7147], "responses": ["14", "9"], "num2": [4, 3, 4], "num3": [3, 4, 8], "conditions": [12, 800, "v", 12000], "internal_node_id": "0.0-178.0", "key_presses": [49, 52, 13, 57, 13], "trial": 7, "time_elapsed": 1146962, "type": "DISTRACTOR", "trial_index": 241, "num1": [7, 2, 9]}, "uniqueid": "MTK2202:33ISQZVXPQT84OB8XUL8MXO7OWSCCI", "dateTime": 1516825698329}, {"current_trial": 242, "trialdata": {"rt": -1, "trial_type": "single-stim", "stimulus": "<p id=\"stim\">10</p>", "internal_node_id": "0.0-179.0-0.0", "time_elapsed": 1149965, "key_press": -1, "trial_index": 242}, "uniqueid": "MTK2202:33ISQZVXPQT84OB8XUL8MXO7OWSCCI", "dateTime": 1516825701332}, {"current_trial": 243, "trialdata": {"rt": -1, "trial_type": "single-stim", "stimulus": "<p id=\"stim\">9</p>", "internal_node_id": "0.0-179.0-1.0", "time_elapsed": 1150967, "key_press": -1, "trial_index": 243}, "uniqueid": "MTK2202:33ISQZVXPQT84OB8XUL8MXO7OWSCCI", "dateTime": 1516825702334}, {"current_trial": 244, "trialdata": {"rt": -1, "trial_type": "single-stim", "stimulus": "<p id=\"stim\">8</p>", "internal_node_id": "0.0-179.0-2.0", "time_elapsed": 1151970, "key_press": -1, "trial_index": 244}, "uniqueid": "MTK2202:33ISQZVXPQT84OB8XUL8MXO7OWSCCI", "dateTime": 1516825703337}, {"current_trial": 245, "trialdata": {"rt": -1, "trial_type": "single-stim", "stimulus": "<p id=\"stim\">7</p>", "internal_node_id": "0.0-179.0-3.0", "time_elapsed": 1152973, "key_press": -1, "trial_index": 245}, "uniqueid": "MTK2202:33ISQZVXPQT84OB8XUL8MXO7OWSCCI", "dateTime": 1516825704340}, {"current_trial": 246, "trialdata": {"rt": -1, "trial_type": "single-stim", "stimulus": "<p id=\"stim\">6</p>", "internal_node_id": "0.0-179.0-4.0", "time_elapsed": 1153974, "key_press": -1, "trial_index": 246}, "uniqueid": "MTK2202:33ISQZVXPQT84OB8XUL8MXO7OWSCCI", "dateTime": 1516825705341}, {"current_trial": 247, "trialdata": {"rt": -1, "trial_type": "single-stim", "stimulus": "<p id=\"stim\">5</p>", "internal_node_id": "0.0-179.0-5.0", "time_elapsed": 1154975, "key_press": -1, "trial_index": 247}, "uniqueid": "MTK2202:33ISQZVXPQT84OB8XUL8MXO7OWSCCI", "dateTime": 1516825706342}, {"current_trial": 248, "trialdata": {"rt": -1, "trial_type": "single-stim", "stimulus": "<p id=\"stim\">4</p>", "internal_node_id": "0.0-179.0-6.0", "time_elapsed": 1155978, "key_press": -1, "trial_index": 248}, "uniqueid": "MTK2202:33ISQZVXPQT84OB8XUL8MXO7OWSCCI", "dateTime": 1516825707345}, {"current_trial": 249, "trialdata": {"rt": -1, "trial_type": "single-stim", "stimulus": "<p id=\"stim\">3</p>", "internal_node_id": "0.0-179.0-7.0", "time_elapsed": 1156981, "key_press": -1, "trial_index": 249}, "uniqueid": "MTK2202:33ISQZVXPQT84OB8XUL8MXO7OWSCCI", "dateTime": 1516825708348}, {"current_trial": 250, "trialdata": {"rt": -1, "trial_type": "single-stim", "stimulus": "<p id=\"stim\">2</p>", "internal_node_id": "0.0-179.0-8.0", "time_elapsed": 1157983, "key_press": -1, "trial_index": 250}, "uniqueid": "MTK2202:33ISQZVXPQT84OB8XUL8MXO7OWSCCI", "dateTime": 1516825709350}, {"current_trial": 251, "trialdata": {"rt": -1, "trial_type": "single-stim", "stimulus": "<p id=\"stim\">1</p>", "internal_node_id": "0.0-179.0-9.0", "time_elapsed": 1158985, "key_press": -1, "trial_index": 251}, "uniqueid": "MTK2202:33ISQZVXPQT84OB8XUL8MXO7OWSCCI", "dateTime": 1516825710352}, {"current_trial": 252, "trialdata": {"rt": -1, "trial_type": "single-stim", "stimulus": "<p id=\"stim\">+</p>", "internal_node_id": "0.0-180.0-0.0", "time_elapsed": 1160486, "key_press": -1, "type": "FIXATION", "trial_index": 252}, "uniqueid": "MTK2202:33ISQZVXPQT84OB8XUL8MXO7OWSCCI", "dateTime": 1516825711853}, {"current_trial": 253, "trialdata": {"rt": -1, "trial_type": "single-stim", "word": "guard", "stimulus": "<p id=\"stim\">GUARD</p>", "conditions": [12, 800, "v", 12000], "internal_node_id": "0.0-181.0", "trial": 7, "time_elapsed": 1161287, "serialpos": 0, "key_press": -1, "wordID": 666, "type": "PRES_VIS", "trial_index": 253}, "uniqueid": "MTK2202:33ISQZVXPQT84OB8XUL8MXO7OWSCCI", "dateTime": 1516825712654}, {"current_trial": 254, "trialdata": {"rt": -1, "trial_type": "single-stim", "word": "salt", "stimulus": "<p id=\"stim\">SALT</p>", "conditions": [12, 800, "v", 12000], "internal_node_id": "0.0-182.0", "trial": 7, "time_elapsed": 1163110, "serialpos": 1, "key_press": -1, "wordID": 1228, "type": "PRES_VIS", "trial_index": 254}, "uniqueid": "MTK2202:33ISQZVXPQT84OB8XUL8MXO7OWSCCI", "dateTime": 1516825714477}, {"current_trial": 255, "trialdata": {"rt": -1, "trial_type": "single-stim", "word": "blouse", "stimulus": "<p id=\"stim\">BLOUSE</p>", "conditions": [12, 800, "v", 12000], "internal_node_id": "0.0-183.0", "trial": 7, "time_elapsed": 1164841, "serialpos": 2, "key_press": -1, "wordID": 138, "type": "PRES_VIS", "trial_index": 255}, "uniqueid": "MTK2202:33ISQZVXPQT84OB8XUL8MXO7OWSCCI", "dateTime": 1516825716208}, {"current_trial": 256, "trialdata": {"rt": -1, "trial_type": "single-stim", "word": "child", "stimulus": "<p id=\"stim\">CHILD</p>", "conditions": [12, 800, "v", 12000], "internal_node_id": "0.0-184.0", "trial": 7, "time_elapsed": 1166783, "serialpos": 3, "key_press": -1, "wordID": 298, "type": "PRES_VIS", "trial_index": 256}, "uniqueid": "MTK2202:33ISQZVXPQT84OB8XUL8MXO7OWSCCI", "dateTime": 1516825718150}, {"current_trial": 257, "trialdata": {"rt": -1, "trial_type": "single-stim", "word": "worker", "stimulus": "<p id=\"stim\">WORKER</p>", "conditions": [12, 800, "v", 12000], "internal_node_id": "0.0-185.0", "trial": 7, "time_elapsed": 1168661, "serialpos": 4, "key_press": -1, "wordID": 1620, "type": "PRES_VIS", "trial_index": 257}, "uniqueid": "MTK2202:33ISQZVXPQT84OB8XUL8MXO7OWSCCI", "dateTime": 1516825720028}, {"current_trial": 258, "trialdata": {"rt": -1, "trial_type": "single-stim", "word": "rifle", "stimulus": "<p id=\"stim\">RIFLE</p>", "conditions": [12, 800, "v", 12000], "internal_node_id": "0.0-186.0", "trial": 7, "time_elapsed": 1170427, "serialpos": 5, "key_press": -1, "wordID": 1191, "type": "PRES_VIS", "trial_index": 258}, "uniqueid": "MTK2202:33ISQZVXPQT84OB8XUL8MXO7OWSCCI", "dateTime": 1516825721794}, {"current_trial": 259, "trialdata": {"rt": -1, "trial_type": "single-stim", "word": "briefcase", "stimulus": "<p id=\"stim\">BRIEFCASE</p>", "conditions": [12, 800, "v", 12000], "internal_node_id": "0.0-187.0", "trial": 7, "time_elapsed": 1172363, "serialpos": 6, "key_pr