{"assignmentId": "33LKR6A5KFR5323L3JREUB5KBX4T1M", "workerId": "MTK2922", "questiondata": {"origin": "United States", "strat-rehearsal": "100", "marital": "Single", "education": "Bachelor's degree", "ethnicity": "Not Hispanic", "color_depth": 24, "distracted": "No", "wrote-notes": "No", "strat-other": "No other strategies were involved", "screen_width": 1440, "avail_screen_width": 1436, "avail_screen_height": 877, "strat-image": "86", "language": "English", "gender": "Female", "age": "26", "gender_other": "", "race": ["White"], "strat-categorize": "100", "pixel_depth": 24, "strat-spatial": "6", "strat-story": "100", "race_other": "", "screen_height": 900}, "bonus": 0, "hitId": "3RHLQY6EDTBDRS6DE95ZYLYHZJF4DW", "counterbalance": 571, "useragent": "Mozilla/5.0 (Macintosh; Intel Mac OS X 10_10_5) AppleWebKit/537.36 (KHTML, like Gecko) Chrome/64.0.3282.167 Safari/537.36", "eventdata": [{"eventtype": "initialized", "interval": 0, "value": null, "timestamp": 1519589372505}, {"eventtype": "window_resize", "interval": 0, "value": [1436, 826], "timestamp": 1519589372505}, {"eventtype": "focus", "interval": 1079470, "value": "off", "timestamp": 1519590451975}, {"eventtype": "focus", "interval": 6225, "value": "on", "timestamp": 1519590458200}, {"eventtype": "focus", "interval": 3748, "value": "off", "timestamp": 1519590461948}, {"eventtype": "focus", "interval": 15847, "value": "on", "timestamp": 1519590477795}, {"eventtype": "focus", "interval": 896970, "value": "off", "timestamp": 1519591374765}, {"eventtype": "focus", "interval": 3563, "value": "on", "timestamp": 1519591378328}, {"eventtype": "focus", "interval": 34396, "value": "off", "timestamp": 1519591412724}, {"eventtype": "focus", "interval": 26719, "value": "on", "timestamp": 1519591439443}, {"eventtype": "focus", "interval": 2324, "value": "off", "timestamp": 1519591441767}, {"eventtype": "focus", "interval": 5143, "value": "on", "timestamp": 1519591446910}], "data": [{"current_trial": 0, "trialdata": {"rt": 2277, "trial_type": "text", "internal_node_id": "0.0-0.0", "time_elapsed": 2280, "key_press": 32, "type": "INSTRUCTIONS", "trial_index": 0}, "uniqueid": "MTK2922:33LKR6A5KFR5323L3JREUB5KBX4T1M", "dateTime": 1519589375666}, {"current_trial": 1, "trialdata": {"rt": 66851, "trial_type": "text", "internal_node_id": "0.0-1.0", "time_elapsed": 69133, "key_press": 32, "type": "INSTRUCTIONS", "trial_index": 1}, "uniqueid": "MTK2922:33LKR6A5KFR5323L3JREUB5KBX4T1M", "dateTime": 1519589442518}, {"current_trial": 2, "trialdata": {"rt": [29437], "trial_type": "audio-test", "responses": ["ocean"], "internal_node_id": "0.0-2.0", "time_elapsed": 98583, "type": "AUDIO_TEST", "trial_index": 2}, "uniqueid": "MTK2922:33LKR6A5KFR5323L3JREUB5KBX4T1M", "dateTime": 1519589471968}, {"current_trial": 3, "trialdata": {"rt": [8868], "trial_type": "audio-test", "responses": ["crystal"], "internal_node_id": "0.0-3.0", "time_elapsed": 107456, "type": "AUDIO_TEST", "trial_index": 3}, "uniqueid": "MTK2922:33LKR6A5KFR5323L3JREUB5KBX4T1M", "dateTime": 1519589480842}, {"current_trial": 4, "trialdata": {"rt": [9082], "trial_type": "audio-test", "responses": ["spice"], "internal_node_id": "0.0-4.0", "time_elapsed": 116545, "type": "AUDIO_TEST", "trial_index": 4}, "uniqueid": "MTK2922:33LKR6A5KFR5323L3JREUB5KBX4T1M", "dateTime": 1519589489930}, {"current_trial": 5, "trialdata": {"rt": 18859, "trial_type": "survey-text", "responses": "{\"Q0\":\"11:30\",\"Q1\":\"7:10\",\"Q2\":\"5\"}", "internal_node_id": "0.0-5.0", "time_elapsed": 136160, "type": "SLEEP_SURVEY", "trial_index": 5}, "uniqueid": "MTK2922:33LKR6A5KFR5323L3JREUB5KBX4T1M", "dateTime": 1519589509545}, {"current_trial": 6, "trialdata": {"rt": 9706, "trial_type": "text", "internal_node_id": "0.0-6.0", "time_elapsed": 146868, "key_press": 40, "type": "INSTRUCTIONS", "trial_index": 6}, "uniqueid": "MTK2922:33LKR6A5KFR5323L3JREUB5KBX4T1M", "dateTime": 1519589520253}, {"current_trial": 7, "trialdata": {"rt": 3164, "trial_type": "text", "internal_node_id": "0.0-7.0", "time_elapsed": 150536, "key_press": 40, "type": "INSTRUCTIONS", "trial_index": 7}, "uniqueid": "MTK2922:33LKR6A5KFR5323L3JREUB5KBX4T1M", "dateTime": 1519589523921}, {"current_trial": 8, "trialdata": {"rt": 2369, "trial_type": "text", "internal_node_id": "0.0-8.0", "time_elapsed": 153409, "key_press": 40, "type": "INSTRUCTIONS", "trial_index": 8}, "uniqueid": "MTK2922:33LKR6A5KFR5323L3JREUB5KBX4T1M", "dateTime": 1519589526794}, {"current_trial": 9, "trialdata": {"rt": [2605, 8800, 12242, 14033, 17536], "trial_type": "math-distractor", "key_times": [2012, 2156, 2605, 7886, 8044, 8800, 11600, 11851, 12242, 13693, 14033, 16473, 16689, 17536], "responses": ["12", "23", "13", "5", "21"], "num2": [4, 7, 6, 1, 8, 2], "num3": [2, 9, 1, 2, 4, 7], "conditions": [18, 1200, "v", 18000], "internal_node_id": "0.0-9.0", "key_presses": [49, 50, 13, 50, 51, 13, 49, 51, 13, 53, 13, 50, 49, 13], "trial": 0, "time_elapsed": 172423, "type": "DISTRACTOR", "trial_index": 9, "num1": [6, 7, 6, 2, 9, 7]}, "uniqueid": "MTK2922:33LKR6A5KFR5323L3JREUB5KBX4T1M", "dateTime": 1519589545808}, {"current_trial": 10, "trialdata": {"rt": -1, "trial_type": "single-stim", "stimulus": "<p id=\"stim\">10</p>", "internal_node_id": "0.0-10.0-0.0", "time_elapsed": 175429, "key_press": -1, "trial_index": 10}, "uniqueid": "MTK2922:33LKR6A5KFR5323L3JREUB5KBX4T1M", "dateTime": 1519589548815}, {"current_trial": 11, "trialdata": {"rt": -1, "trial_type": "single-stim", "stimulus": "<p id=\"stim\">9</p>", "internal_node_id": "0.0-10.0-1.0", "time_elapsed": 176433, "key_press": -1, "trial_index": 11}, "uniqueid": "MTK2922:33LKR6A5KFR5323L3JREUB5KBX4T1M", "dateTime": 1519589549818}, {"current_trial": 12, "trialdata": {"rt": -1, "trial_type": "single-stim", "stimulus": "<p id=\"stim\">8</p>", "internal_node_id": "0.0-10.0-2.0", "time_elapsed": 177438, "key_press": -1, "trial_index": 12}, "uniqueid": "MTK2922:33LKR6A5KFR5323L3JREUB5KBX4T1M", "dateTime": 1519589550823}, {"current_trial": 13, "trialdata": {"rt": -1, "trial_type": "single-stim", "stimulus": "<p id=\"stim\">7</p>", "internal_node_id": "0.0-10.0-3.0", "time_elapsed": 178441, "key_press": -1, "trial_index": 13}, "uniqueid": "MTK2922:33LKR6A5KFR5323L3JREUB5KBX4T1M", "dateTime": 1519589551826}, {"current_trial": 14, "trialdata": {"rt": -1, "trial_type": "single-stim", "stimulus": "<p id=\"stim\">6</p>", "internal_node_id": "0.0-10.0-4.0", "time_elapsed": 179446, "key_press": -1, "trial_index": 14}, "uniqueid": "MTK2922:33LKR6A5KFR5323L3JREUB5KBX4T1M", "dateTime": 1519589552831}, {"current_trial": 15, "trialdata": {"rt": -1, "trial_type": "single-stim", "stimulus": "<p id=\"stim\">5</p>", "internal_node_id": "0.0-10.0-5.0", "time_elapsed": 180450, "key_press": -1, "trial_index": 15}, "uniqueid": "MTK2922:33LKR6A5KFR5323L3JREUB5KBX4T1M", "dateTime": 1519589553835}, {"current_trial": 16, "trialdata": {"rt": -1, "trial_type": "single-stim", "stimulus": "<p id=\"stim\">4</p>", "internal_node_id": "0.0-10.0-6.0", "time_elapsed": 181454, "key_press": -1, "trial_index": 16}, "uniqueid": "MTK2922:33LKR6A5KFR5323L3JREUB5KBX4T1M", "dateTime": 1519589554839}, {"current_trial": 17, "trialdata": {"rt": -1, "trial_type": "single-stim", "stimulus": "<p id=\"stim\">3</p>", "internal_node_id": "0.0-10.0-7.0", "time_elapsed": 182459, "key_press": -1, "trial_index": 17}, "uniqueid": "MTK2922:33LKR6A5KFR5323L3JREUB5KBX4T1M", "dateTime": 1519589555844}, {"current_trial": 18, "trialdata": {"rt": -1, "trial_type": "single-stim", "stimulus": "<p id=\"stim\">2</p>", "internal_node_id": "0.0-10.0-8.0", "time_elapsed": 183462, "key_press": -1, "trial_index": 18}, "uniqueid": "MTK2922:33LKR6A5KFR5323L3JREUB5KBX4T1M", "dateTime": 1519589556847}, {"current_trial": 19, "trialdata": {"rt": -1, "trial_type": "single-stim", "stimulus": "<p id=\"stim\">1</p>", "internal_node_id": "0.0-10.0-9.0", "time_elapsed": 184466, "key_press": -1, "trial_index": 19}, "uniqueid": "MTK2922:33LKR6A5KFR5323L3JREUB5KBX4T1M", "dateTime": 1519589557851}, {"current_trial": 20, "trialdata": {"rt": -1, "trial_type": "single-stim", "stimulus": "<p id=\"stim\">+</p>", "internal_node_id": "0.0-11.0-0.0", "time_elapsed": 185970, "key_press": -1, "type": "FIXATION", "trial_index": 20}, "uniqueid": "MTK2922:33LKR6A5KFR5323L3JREUB5KBX4T1M", "dateTime": 1519589559355}, {"current_trial": 21, "trialdata": {"rt": -1, "trial_type": "single-stim", "word": "award", "stimulus": "<p id=\"stim\">AWARD</p>", "conditions": [18, 1200, "v", 18000], "internal_node_id": "0.0-12.0", "trial": 0, "time_elapsed": 187176, "serialpos": 0, "key_press": -1, "wordID": 62, "type": "PRES_VIS", "trial_index": 21}, "uniqueid": "MTK2922:33LKR6A5KFR5323L3JREUB5KBX4T1M", "dateTime": 1519589560561}, {"current_trial": 22, "trialdata": {"rt": -1, "trial_type": "single-stim", "word": "hood", "stimulus": "<p id=\"stim\">HOOD</p>", "conditions": [18, 1200, "v", 18000], "internal_node_id": "0.0-13.0", "trial": 0, "time_elapsed": 189574, "serialpos": 1, "key_press": -1, "wordID": 713, "type": "PRES_VIS", "trial_index": 22}, "uniqueid": "MTK2922:33LKR6A5KFR5323L3JREUB5KBX4T1M", "dateTime": 1519589562960}, {"current_trial": 23, "trialdata": {"rt": -1, "trial_type": "single-stim", "word": "fungus", "stimulus": "<p id=\"stim\">FUNGUS</p>", "conditions": [18, 1200, "v", 18000], "internal_node_id": "0.0-14.0", "trial": 0, "time_elapsed": 191768, "serialpos": 2, "key_press": -1, "wordID": 613, "type": "PRES_VIS", "trial_index": 23}, "uniqueid": "MTK2922:33LKR6A5KFR5323L3JREUB5KBX4T1M", "dateTime": 1519589565153}, {"current_trial": 24, "trialdata": {"rt": -1, "trial_type": "single-stim", "word": "parrot", "stimulus": "<p id=\"stim\">PARROT</p>", "conditions": [18, 1200, "v", 18000], "internal_node_id": "0.0-15.0", "trial": 0, "time_elapsed": 194134, "serialpos": 3, "key_press": -1, "wordID": 1014, "type": "PRES_VIS", "trial_index": 24}, "uniqueid": "MTK2922:33LKR6A5KFR5323L3JREUB5KBX4T1M", "dateTime": 1519589567519}, {"current_trial": 25, "trialdata": {"rt": -1, "trial_type": "single-stim", "word": "dashboard", "stimulus": "<p id=\"stim\">DASHBOARD</p>", "conditions": [18, 1200, "v", 18000], "internal_node_id": "0.0-16.0", "trial": 0, "time_elapsed": 196226, "serialpos": 4, "key_press": -1, "wordID": 440, "type": "PRES_VIS", "trial_index": 25}, "uniqueid": "MTK2922:33LKR6A5KFR5323L3JREUB5KBX4T1M", "dateTime": 1519589569611}, {"current_trial": 26, "trialdata": {"rt": -1, "trial_type": "single-stim", "word": "cigar", "stimulus": "<p id=\"stim\">CIGAR</p>", "conditions": [18, 1200, "v", 18000], "internal_node_id": "0.0-17.0", "trial": 0, "time_elapsed": 198548, "serialpos": 5, "key_press": -1, "wordID": 307, "type": "PRES_VIS", "trial_index": 26}, "uniqueid": "MTK2922:33LKR6A5KFR5323L3JREUB5KBX4T1M", "dateTime": 1519589571933}, {"current_trial": 27, "trialdata": {"rt": -1, "trial_type": "single-stim", "word": "piston", "stimulus": "<p id=\"stim\">PISTON</p>", "conditions": [18, 1200, "v", 18000], "internal_node_id": "0.0-18.0", "trial": 0, "time_elapsed": 200898, "serialpos": 6, "key_press": -1, "wordID": 1075, "type": "PRES_VIS", "trial_index": 27}, "uniqueid": "MTK2922:33LKR6A5KFR5323L3JREUB5KBX4T1M", "dateTime": 1519589574283}, {"current_trial": 28, "trialdata": {"rt": -1, "trial_type": "single-stim", "word": "beef", "stimulus": "<p id=\"stim\">BEEF</p>", "conditions": [18, 1200, "v", 18000], "internal_node_id": "0.0-19.0", "trial": 0, "time_elapsed": 203023, "serialpos": 7, "key_press": -1, "wordID": 112, "type": "PRES_VIS", "trial_index": 28}, "uniqueid": "MTK2922:33LKR6A5KFR5323L3JREUB5KBX4T1M", "dateTime": 1519589576408}, {"current_trial": 29, "trialdata": {"rt": -1, "trial_type": "single-stim", "word": "jelly", "stimulus": "<p id=\"stim\">JELLY</p>", "conditions": [18, 1200, "v", 18000], "internal_node_id": "0.0-20.0", "trial": 0, "time_elapsed": 205339, "serialpos": 8, "key_press": -1, "wordID": 754, "type": "PRES_VIS", "trial_index": 29}, "uniqueid": "MTK2922:33LKR6A5KFR5323L3JREUB5KBX4T1M", "dateTime": 1519589578724}, {"current_trial": 30, "trialdata": {"rt": -1, "trial_type": "single-stim", "word": "truck", "stimulus": "<p id=\"stim\">TRUCK</p>", "conditions": [18, 1200, "v", 18000], "internal_node_id": "0.0-21.0", "trial": 0, "time_elapsed": 207719, "serialpos": 9, "key_press": -1, "wordID": 1511, "type": "PRES_VIS", "trial_index": 30}, "uniqueid": "MTK2922:33LKR6A5KFR5323L3JREUB5KBX4T1M", "dateTime": 1519589581104}, {"current_trial": 31, "trialdata": {"rt": -1, "trial_type": "single-stim", "word": "rabbit", "stimulus": "<p id=\"stim\">RABBIT</p>", "conditions": [18, 1200, "v", 18000], "internal_node_id": "0.0-22.0", "trial": 0, "time_elapsed": 210063, "serialpos": 10, "key_press": -1, "wordID": 1151, "type": "PRES_VIS", "trial_index": 31}, "uniqueid": "MTK2922:33LKR6A5KFR5323L3JREUB5KBX4T1M", "dateTime": 1519589583448}, {"current_trial": 32, "trialdata": {"rt": -1, "trial_type": "single-stim", "word": "motel", "stimulus": "<p id=\"stim\">MOTEL</p>", "conditions": [18, 1200, "v", 18000], "internal_node_id": "0.0-23.0", "trial": 0, "time_elapsed": 212130, "serialpos": 11, "key_press": -1, "wordID": 918, "type": "PRES_VIS", "trial_index": 32}, "uniqueid": "MTK2922:33LKR6A5KFR5323L3JREUB5KBX4T1M", "dateTime": 1519589585515}, {"current_trial": 33, "trialdata": {"rt": -1, "trial_type": "single-stim", "word": "smog", "stimulus": "<p id=\"stim\">SMOG</p>", "conditions": [18, 1200, "v", 18000], "internal_node_id": "0.0-24.0", "trial": 0, "time_elapsed": 214283, "serialpos": 12, "key_press": -1, "wordID": 1329, "type": "PRES_VIS", "trial_index": 33}, "uniqueid": "MTK2922:33LKR6A5KFR5323L3JREUB5KBX4T1M", "dateTime": 1519589587668}, {"current_trial": 34, "trialdata": {"rt": -1, "trial_type": "single-stim", "word": "oyster", "stimulus": "<p id=\"stim\">OYSTER</p>", "conditions": [18, 1200, "v", 18000], "internal_node_id": "0.0-25.0", "trial": 0, "time_elapsed": 216303, "serialpos": 13, "key_press": -1, "wordID": 994, "type": "PRES_VIS", "trial_index": 34}, "uniqueid": "MTK2922:33LKR6A5KFR5323L3JREUB5KBX4T1M", "dateTime": 1519589589688}, {"current_trial": 35, "trialdata": {"rt": -1, "trial_type": "single-stim", "word": "child", "stimulus": "<p id=\"stim\">CHILD</p>", "conditions": [18, 1200, "v", 18000], "internal_node_id": "0.0-26.0", "trial": 0, "time_elapsed": 218410, "serialpos": 14, "key_press": -1, "wordID": 298, "type": "PRES_VIS", "trial_index": 35}, "uniqueid": "MTK2922:33LKR6A5KFR5323L3JREUB5KBX4T1M", "dateTime": 1519589591795}, {"current_trial": 36, "trialdata": {"rt": -1, "trial_type": "single-stim", "word": "jungle", "stimulus": "<p id=\"stim\">JUNGLE</p>", "conditions": [18, 1200, "v", 18000], "internal_node_id": "0.0-27.0", "trial": 0, "time_elapsed": 220801, "serialpos": 15, "key_press": -1, "wordID": 763, "type": "PRES_VIS", "trial_index": 36}, "uniqueid": "MTK2922:33LKR6A5KFR5323L3JREUB5KBX4T1M", "dateTime": 1519589594186}, {"current_trial": 37, "trialdata": {"rt": -1, "trial_type": "single-stim", "word": "farmer", "stimulus": "<p id=\"stim\">FARMER</p>", "conditions": [18, 1200, "v", 18000], "internal_node_id": "0.0-28.0", "trial": 0, "time_elapsed": 223169, "serialpos": 16, "key_press": -1, "wordID": 552, "type": "PRES_VIS", "trial_index": 37}, "uniqueid": "MTK2922:33LKR6A5KFR5323L3JREUB5KBX4T1M", "dateTime": 1519589596554}, {"current_trial": 38, "trialdata": {"rt": -1, "trial_type": "single-stim", "word": "swimmer", "stimulus": "<p id=\"stim\">SWIMMER</p>", "conditions": [18, 1200, "v", 18000], "internal_node_id": "0.0-29.0", "trial": 0, "time_elapsed": 225352, "serialpos": 17, "key_press": -1, "wordID": 1419, "type": "PRES_VIS", "trial_index": 38}, "uniqueid": "MTK2922:33LKR6A5KFR5323L3JREUB5KBX4T1M", "dateTime": 1519589598737}, {"current_trial": 39, "trialdata": {"rt": -1, "trial_type": "single-stim", "stimulus": "", "internal_node_id": "0.0-30.0-0.0", "time_elapsed": 227749, "key_press": -1, "type": "PRE_RECALL_DELAY", "trial_index": 39}, "uniqueid": "MTK2922:33LKR6A5KFR5323L3JREUB5KBX4T1M", "dateTime": 1519589601134}, {"current_trial": 40, "trialdata": {"rt": -1000, "trial_type": "single-audio", "stimulus": "/static/audio/400Hz.wav", "internal_node_id": "0.0-31.0", "time_elapsed": 228252, "key_press": -1, "type": "PRE_RECALL_ALERT", "trial_index": 40}, "uniqueid": "MTK2922:33LKR6A5KFR5323L3JREUB5KBX4T1M", "dateTime": 1519589601637}, {"current_trial": 41, "trialdata": {"rt": [10300, 14812, 17075, 19399, 29696, 50022], "recwords": ["spider", "parrot", "jelly", "truck", "dashboard", ""], "key_times": [8484, 8865, 9119, 9375, 9593, 9714, 10300, 12884, 13292, 13500, 13663, 13966, 14507, 14812, 15525, 15869, 16306, 16463, 16781, 17075, 17820, 18023, 18369, 18693, 19078, 19399, 22077, 22314, 22514, 23116, 23306, 23523, 23983, 24289, 24511, 25266, 26506, 27008, 29387, 29696, 50022, 59610], "trial_type": "free-recall", "conditions": [18, 1200, "v", 18000], "internal_node_id": "0.0-32.0-0.0", "key_presses": [83, 80, 73, 68, 69, 82, 13, 80, 65, 82, 82, 79, 84, 13, 74, 69, 76, 76, 89, 13, 84, 82, 85, 67, 75, 13, 68, 65, 83, 72, 66, 79, 65, 82, 68, 221, 8, 220, 8, 13, 13, 80], "trial": 0, "time_elapsed": 288261, "type": "FREE_RECALL", "trial_index": 41}, "uniqueid": "MTK2922:33LKR6A5KFR5323L3JREUB5KBX4T1M", "dateTime": 1519589661649}, {"current_trial": 42, "trialdata": {"rt": 1569, "trial_type": "text", "internal_node_id": "0.0-33.0", "time_elapsed": 291838, "key_press": 32, "type": "INSTRUCTIONS", "trial_index": 42}, "uniqueid": "MTK2922:33LKR6A5KFR5323L3JREUB5KBX4T1M", "dateTime": 1519589665223}, {"current_trial": 43, "trialdata": {"rt": [2933, 7091, 13683, 16239], "trial_type": "math-distractor", "key_times": [1994, 2528, 2933, 5649, 6212, 7091, 11270, 11827, 12207, 12541, 13091, 13414, 13683, 15470, 15954, 16239], "responses": ["27", "13", "19", "20"], "num2": [9, 3, 8, 6, 3], "num3": [9, 2, 5, 5, 3], "conditions": [18, 1200, "v", 18000], "internal_node_id": "0.0-34.0", "key_presses": [50, 55, 13, 49, 51, 13, 49, 56, 8, 48, 8, 57, 13, 50, 48, 13], "trial": 1, "time_elapsed": 311849, "type": "DISTRACTOR", "trial_index": 43, "num1": [9, 8, 6, 9, 7]}, "uniqueid": "MTK2922:33LKR6A5KFR5323L3JREUB5KBX4T1M", "dateTime": 1519589685234}, {"current_trial": 44, "trialdata": {"rt": -1, "trial_type": "single-stim", "stimulus": "<p id=\"stim\">10</p>", "internal_node_id": "0.0-35.0-0.0", "time_elapsed": 314856, "key_press": -1, "trial_index": 44}, "uniqueid": "MTK2922:33LKR6A5KFR5323L3JREUB5KBX4T1M", "dateTime": 1519589688241}, {"current_trial": 45, "trialdata": {"rt": -1, "trial_type": "single-stim", "stimulus": "<p id=\"stim\">9</p>", "internal_node_id": "0.0-35.0-1.0", "time_elapsed": 315860, "key_press": -1, "trial_index": 45}, "uniqueid": "MTK2922:33LKR6A5KFR5323L3JREUB5KBX4T1M", "dateTime": 1519589689245}, {"current_trial": 46, "trialdata": {"rt": -1, "trial_type": "single-stim", "stimulus": "<p id=\"stim\">8</p>", "internal_node_id": "0.0-35.0-2.0", "time_elapsed": 316864, "key_press": -1, "trial_index": 46}, "uniqueid": "MTK2922:33LKR6A5KFR5323L3JREUB5KBX4T1M", "dateTime": 1519589690249}, {"current_trial": 47, "trialdata": {"rt": -1, "trial_type": "single-stim", "stimulus": "<p id=\"stim\">7</p>", "internal_node_id": "0.0-35.0-3.0", "time_elapsed": 317868, "key_press": -1, "trial_index": 47}, "uniqueid": "MTK2922:33LKR6A5KFR5323L3JREUB5KBX4T1M", "dateTime": 1519589691253}, {"current_trial": 48, "trialdata": {"rt": -1, "trial_type": "single-stim", "stimulus": "<p id=\"stim\">6</p>", "internal_node_id": "0.0-35.0-4.0", "time_elapsed": 318872, "key_press": -1, "trial_index": 48}, "uniqueid": "MTK2922:33LKR6A5KFR5323L3JREUB5KBX4T1M", "dateTime": 1519589692257}, {"current_trial": 49, "trialdata": {"rt": -1, "trial_type": "single-stim", "stimulus": "<p id=\"stim\">5</p>", "internal_node_id": "0.0-35.0-5.0", "time_elapsed": 319876, "key_press": -1, "trial_index": 49}, "uniqueid": "MTK2922:33LKR6A5KFR5323L3JREUB5KBX4T1M", "dateTime": 1519589693261}, {"current_trial": 50, "trialdata": {"rt": -1, "trial_type": "single-stim", "stimulus": "<p id=\"stim\">4</p>", "internal_node_id": "0.0-35.0-6.0", "time_elapsed": 320880, "key_press": -1, "trial_index": 50}, "uniqueid": "MTK2922:33LKR6A5KFR5323L3JREUB5KBX4T1M", "dateTime": 1519589694265}, {"current_trial": 51, "trialdata": {"rt": -1, "trial_type": "single-stim", "stimulus": "<p id=\"stim\">3</p>", "internal_node_id": "0.0-35.0-7.0", "time_elapsed": 321884, "key_press": -1, "trial_index": 51}, "uniqueid": "MTK2922:33LKR6A5KFR5323L3JREUB5KBX4T1M", "dateTime": 1519589695269}, {"current_trial": 52, "trialdata": {"rt": -1, "trial_type": "single-stim", "stimulus": "<p id=\"stim\">2</p>", "internal_node_id": "0.0-35.0-8.0", "time_elapsed": 322888, "key_press": -1, "trial_index": 52}, "uniqueid": "MTK2922:33LKR6A5KFR5323L3JREUB5KBX4T1M", "dateTime": 1519589696274}, {"current_trial": 53, "trialdata": {"rt": -1, "trial_type": "single-stim", "stimulus": "<p id=\"stim\">1</p>", "internal_node_id": "0.0-35.0-9.0", "time_elapsed": 323893, "key_press": -1, "trial_index": 53}, "uniqueid": "MTK2922:33LKR6A5KFR5323L3JREUB5KBX4T1M", "dateTime": 1519589697278}, {"current_trial": 54, "trialdata": {"rt": -1, "trial_type": "single-stim", "stimulus": "<p id=\"stim\">+</p>", "internal_node_id": "0.0-36.0-0.0", "time_elapsed": 325395, "key_press": -1, "type": "FIXATION", "trial_index": 54}, "uniqueid": "MTK2922:33LKR6A5KFR5323L3JREUB5KBX4T1M", "dateTime": 1519589698780}, {"current_trial": 55, "trialdata": {"rt": -1, "trial_type": "single-stim", "word": "razor", "stimulus": "<p id=\"stim\">RAZOR</p>", "conditions": [18, 1200, "v", 18000], "internal_node_id": "0.0-37.0", "trial": 1, "time_elapsed": 326597, "serialpos": 0, "key_press": -1, "wordID": 1170, "type": "PRES_VIS", "trial_index": 55}, "uniqueid": "MTK2922:33LKR6A5KFR5323L3JREUB5KBX4T1M", "dateTime": 1519589699982}, {"current_trial": 56, "trialdata": {"rt": -1, "trial_type": "single-stim", "word": "europe", "stimulus": "<p id=\"stim\">EUROPE</p>", "conditions": [18, 1200, "v", 18000], "internal_node_id": "0.0-38.0", "trial": 1, "time_elapsed": 328739, "serialpos": 1, "key_press": -1, "wordID": 540, "type": "PRES_VIS", "trial_index": 56}, "uniqueid": "MTK2922:33LKR6A5KFR5323L3JREUB5KBX4T1M", "dateTime": 1519589702124}, {"current_trial": 57, "trialdata": {"rt": -1, "trial_type": "single-stim", "word": "scarf", "stimulus": "<p id=\"stim\">SCARF</p>", "conditions": [18, 1200, "v", 18000], "internal_node_id": "0.0-39.0", "trial": 1, "time_elapsed": 331044, "serialpos": 2, "key_press": -1, "wordID": 1245, "type": "PRES_VIS", "trial_index": 57}, "uniqueid": "MTK2922:33LKR6A5KFR5323L3JREUB5KBX4T1M", "dateTime": 1519589704429}, {"current_trial": 58, "trialdata": {"rt": -1, "trial_type": "single-stim", "word": "loft", "stimulus": "<p id=\"stim\">LOFT</p>", "conditions": [18, 1200, "v", 18000], "internal_node_id": "0.0-40.0", "trial": 1, "time_elapsed": 333208, "serialpos": 3, "key_press": -1, "wordID": 839, "type": "PRES_VIS", "trial_index": 58}, "uniqueid": "MTK2922:33LKR6A5KFR5323L3JREUB5KBX4T1M", "dateTime": 1519589706593}, {"current_trial": 59, "trialdata": {"rt": -1, "trial_type": "single-stim", "word": "chest", "stimulus": "<p id=\"stim\">CHEST</p>", "conditions": [18, 1200, "v", 18000], "internal_node_id": "0.0-41.0", "trial": 1, "time_elapsed": 335252, "serialpos": 4, "key_press": -1, "wordID": 294, "type": "PRES_VIS", "trial_index": 59}, "uniqueid": "MTK2922:33LKR6A5KFR5323L3JREUB5KBX4T1M", "dateTime": 1519589708637}, {"current_trial": 60, "trialdata": {"rt": -1, "trial_type": "single-stim", "word": "headband", "stimulus": "<p id=\"stim\">HEADBAND</p>", "conditions": [18, 1200, "v", 18000], "internal_node_id": "0.0-42.0", "trial": 1, "time_elapsed": 337573, "serialpos": 5, "key_press": -1, "wordID": 695, "type": "PRES_VIS", "trial_index": 60}, "uniqueid": "MTK2922:33LKR6A5KFR5323L3JREUB5KBX4T1M", "dateTime": 1519589710959}, {"current_trial": 61, "trialdata": {"rt": -1, "trial_type": "single-stim", "word": "tourist", "stimulus": "<p id=\"stim\">TOURIST</p>", "conditions": [18, 1200, "v", 18000], "internal_node_id": "0.0-43.0", "trial": 1, "time_elapsed": 339716, "serialpos": 6, "key_press": -1, "wordID": 1487, "type": "PRES_VIS", "trial_index": 61}, "uniqueid": "MTK2922:33LKR6A5KFR5323L3JREUB5KBX4T1M", "dateTime": 1519589713101}, {"current_trial": 62, "trialdata": {"rt": -1, "trial_type": "single-stim", "word": "slime", "stimulus": "<p id=\"stim\">SLIME</p>", "conditions": [18, 1200, "v", 18000], "internal_node_id": "0.0-44.0", "trial": 1, "time_elapsed": 341985, "serialpos": 7, "key_press": -1, "wordID": 1326, "type": "PRES_VIS", "trial_index": 62}, "uniqueid": "MTK2922:33LKR6A5KFR5323L3JREUB5KBX4T1M", "dateTime": 1519589715370}, {"current_trial": 63, "trialdata": {"rt": -1, "trial_type": "single-stim", "word": "twig", "stimulus": "<p id=\"stim\">TWIG</p>", "conditions": [18, 1200, "v", 18000], "internal_node_id": "0.0-45.0", "trial": 1, "time_elapsed": 344318, "serialpos": 8, "key_press": -1, "wordID": 1526, "type": "PRES_VIS", "trial_index": 63}, "uniqueid": "MTK2922:33LKR6A5KFR5323L3JREUB5KBX4T1M", "dateTime": 1519589717703}, {"current_trial": 64, "trialdata": {"rt": -1, "trial_type": "single-stim", "word": "girl", "stimulus": "<p id=\"stim\">GIRL</p>", "conditions": [18, 1200, "v", 18000], "internal_node_id": "0.0-46.0", "trial": 1, "time_elapsed": 346506, "serialpos": 9, "key_press": -1, "wordID": 636, "type": "PRES_VIS", "trial_index": 64}, "uniqueid": "MTK2922:33LKR6A5KFR5323L3JREUB5KBX4T1M", "dateTime": 1519589719891}, {"current_trial": 65, "trialdata": {"rt": -1, "trial_type": "single-stim", "word": "relish", "stimulus": "<p id=\"stim\">RELISH</p>", "conditions": [18, 1200, "v", 18000], "internal_node_id": "0.0-47.0", "trial": 1, "time_elapsed": 348770, "serialpos": 10, "key_press": -1, "wordID": 1182, "type": "PRES_VIS", "trial_index": 65}, "uniqueid": "MTK2922:33LKR6A5KFR5323L3JREUB5KBX4T1M", "dateTime": 1519589722155}, {"current_trial": 66, "trialdata": {"rt": -1, "trial_type": "single-stim", "word": "leader", "stimulus": "<p id=\"stim\">LEADER</p>", "conditions": [18, 1200, "v", 18000], "internal_node_id": "0.0-48.0", "trial": 1, "time_elapsed": 350854, "serialpos": 11, "key_press": -1, "wordID": 806, "type": "PRES_VIS", "trial_index": 66}, "uniqueid": "MTK2922:33LKR6A5KFR5323L3JREUB5KBX4T1M", "dateTime": 1519589724239}, {"current_trial": 67, "trialdata": {"rt": -1, "trial_type": "single-stim", "word": "shark", "stimulus": "<p id=\"stim\">SHARK</p>", "conditions": [18, 1200, "v", 18000], "internal_node_id": "0.0-49.0", "trial": 1, "time_elapsed": 353135, "serialpos": 12, "key_press": -1, "wordID": 1274, "type": "PRES_VIS", "trial_index": 67}, "uniqueid": "MTK2922:33LKR6A5KFR5323L3JREUB5KBX4T1M", "dateTime": 1519589726520}, {"current_trial": 68, "trialdata": {"rt": -1, "trial_type": "single-stim", "word": "suspect", "stimulus": "<p id=\"stim\">SUSPECT</p>", "conditions": [18, 1200, "v", 18000], "internal_node_id": "0.0-50.0", "trial": 1, "time_elapsed": 355182, "serialpos": 13, "key_press": -1, "wordID": 1414, "type": "PRES_VIS", "trial_index": 68}, "uniqueid": "MTK2922:33LKR6A5KFR5323L3JREUB5KBX4T1M", "dateTime": 1519589728570}, {"current_trial": 69, "trialdata": {"rt": -1, "trial_type": "single-stim", "word": "panther", "stimulus": "<p id=\"stim\">PANTHER</p>", "conditions": [18, 1200, "v", 18000], "internal_node_id": "0.0-51.0", "trial": 1, "time_elapsed": 357314, "serialpos": 14, "key_press": -1, "wordID": 1008, "type": "PRES_VIS", "trial_index": 69}, "uniqueid": "MTK2922:33LKR6A5KFR5323L3JREUB5KBX4T1M", "dateTime": 1519589730699}, {"current_trial": 70, "trialdata": {"rt": -1, "trial_type": "single-stim", "word": "scribble", "stimulus": "<p id=\"stim\">SCRIBBLE</p>", "conditions": [18, 1200, "v", 18000], "internal_node_id": "0.0-52.0", "trial": 1, "time_elapsed": 359403, "serialpos": 15, "key_press": -1, "wordID": 1255, "type": "PRES_VIS", "trial_index": 70}, "uniqueid": "MTK2922:33LKR6A5KFR5323L3JREUB5KBX4T1M", "dateTime": 1519589732788}, {"current_trial": 71, "trialdata": {"rt": -1, "trial_type": "single-stim", "word": "shelf", "stimulus": "<p id=\"stim\">SHELF</p>", "conditions": [18, 1200, "v", 18000], "internal_node_id": "0.0-53.0", "trial": 1, "time_elapsed": 361754, "serialpos": 16, "key_press": -1, "wordID": 1279, "type": "PRES_VIS", "trial_index": 71}, "uniqueid": "MTK2922:33LKR6A5KFR5323L3JREUB5KBX4T1M", "dateTime": 1519589735140}, {"current_trial": 72, "trialdata": {"rt": -1, "trial_type": "single-stim", "word": "convict", "stimulus": "<p id=\"stim\">CONVICT</p>", "conditions": [18, 1200, "v", 18000], "internal_node_id": "0.0-54.0", "trial": 1, "time_elapsed": 363861, "serialpos": 17, "key_press": -1, "wordID": 370, "type": "PRES_VIS", "trial_index": 72}, "uniqueid": "MTK2922:33LKR6A5KFR5323L3JREUB5KBX4T1M", "dateTime": 1519589737246}, {"current_trial": 73, "trialdata": {"rt": -1, "trial_type": "single-stim", "stimulus": "", "internal_node_id": "0.0-55.0-0.0", "time_elapsed": 366101, "key_press": -1, "type": "PRE_RECALL_DELAY", "trial_index": 73}, "uniqueid": "MTK2922:33LKR6A5KFR5323L3JREUB5KBX4T1M", "dateTime": 1519589739486}, {"current_trial": 74, "trialdata": {"rt": -1000, "trial_type": "single-audio", "stimulus": "/static/audio/400Hz.wav", "internal_node_id": "0.0-56.0", "time_elapsed": 366603, "key_press": -1, "type": "PRE_RECALL_ALERT", "trial_index": 74}, "uniqueid": "MTK2922:33LKR6A5KFR5323L3JREUB5KBX4T1M", "dateTime": 1519589739988}, {"current_trial": 75, "trialdata": {"rt": [6408, 8432, 10051, 12098, 14592, 16612, 23515, 25501, 27756, 31363], "recwords": ["scribble", "loft", "europe", "chest", "band", "tourist", "shark", "panther", "shelf", "convict"], "key_times": [4323, 4650, 5189, 5349, 5667, 5833, 6013, 6219, 6408, 7235, 7462, 7633, 7928, 8088, 8300, 8432, 9115, 9268, 9421, 9526, 9792, 9951, 10051, 10885, 11038, 11152, 11601, 11730, 12098, 13466, 13653, 13996, 14468, 14592, 15284, 15361, 15493, 15651, 15783, 16071, 16455, 16612, 22549, 22640, 22839, 23198, 23294, 23515, 24094, 24191, 24392, 24633, 24784, 24954, 25342, 25501, 26740, 27060, 27283, 27411, 27609, 27756, 30103, 30179, 30339, 30609, 30725, 30913, 31093, 31363], "trial_type": "free-recall", "conditions": [18, 1200, "v", 18000], "internal_node_id": "0.0-57.0-0.0", "key_presses": [83, 67, 82, 73, 66, 66, 76, 69, 13, 76, 79, 71, 8, 70, 84, 13, 69, 85, 82, 79, 80, 69, 13, 67, 72, 69, 83, 84, 13, 66, 65, 78, 68, 13, 84, 79, 85, 82, 73, 83, 84, 13, 83, 72, 65, 82, 75, 13, 80, 65, 78, 84, 72, 69, 82, 13, 83, 72, 69, 76, 70, 13, 67, 79, 78, 86, 73, 67, 84, 13], "trial": 1, "time_elapsed": 426610, "type": "FREE_RECALL", "trial_index": 75}, "uniqueid": "MTK2922:33LKR6A5KFR5323L3JREUB5KBX4T1M", "dateTime": 1519589799998}, {"current_trial": 76, "trialdata": {"rt": 63309, "trial_type": "text", "internal_node_id": "0.0-58.0", "time_elapsed": 491927, "key_press": 32, "type": "INSTRUCTIONS", "trial_index": 76}, "uniqueid": "MTK2922:33LKR6A5KFR5323L3JREUB5KBX4T1M", "dateTime": 1519589865312}, {"current_trial": 77, "trialdata": {"rt": [3410, 6937, 9031, 11404, 13228, 16284, 19564, 23017], "trial_type": "math-distractor", "key_times": [3169, 3410, 6207, 6355, 6937, 8645, 8777, 9031, 11111, 11324, 11404, 12948, 13024, 13228, 15041, 15670, 15858, 15991, 16284, 18808, 19283, 19564, 21955, 22669, 23017], "responses": ["9", "16", "18", "12", "20", "20", "19", "14"], "num2": [6, 9, 9, 7, 2, 9, 3, 4, 8], "num3": [2, 3, 2, 1, 9, 6, 8, 1, 6], "conditions": [24, 1600, "v", 24000], "internal_node_id": "0.0-59.0", "key_presses": [57, 13, 49, 54, 13, 49, 56, 13, 49, 50, 13, 50, 48, 13, 49, 8, 50, 48, 13, 49, 57, 13, 49, 52, 13], "trial": 2, "time_elapsed": 516936, "type": "DISTRACTOR", "trial_index": 77, "num1": [1, 4, 7, 4, 9, 5, 7, 9, 9]}, "uniqueid": "MTK2922:33LKR6A5KFR5323L3JREUB5KBX4T1M", "dateTime": 1519589890321}, {"current_trial": 78, "trialdata": {"rt": -1, "trial_type": "single-stim", "stimulus": "<p id=\"stim\">10</p>", "internal_node_id": "0.0-60.0-0.0", "time_elapsed": 519942, "key_press": -1, "trial_index": 78}, "uniqueid": "MTK2922:33LKR6A5KFR5323L3JREUB5KBX4T1M", "dateTime": 1519589893328}, {"current_trial": 79, "trialdata": {"rt": -1, "trial_type": "single-stim", "stimulus": "<p id=\"stim\">9</p>", "internal_node_id": "0.0-60.0-1.0", "time_elapsed": 520947, "key_press": -1, "trial_index": 79}, "uniqueid": "MTK2922:33LKR6A5KFR5323L3JREUB5KBX4T1M", "dateTime": 1519589894332}, {"current_trial": 80, "trialdata": {"rt": -1, "trial_type": "single-stim", "stimulus": "<p id=\"stim\">8</p>", "internal_node_id": "0.0-60.0-2.0", "time_elapsed": 521951, "key_press": -1, "trial_index": 80}, "uniqueid": "MTK2922:33LKR6A5KFR5323L3JREUB5KBX4T1M", "dateTime": 1519589895336}, {"current_trial": 81, "trialdata": {"rt": -1, "trial_type": "single-stim", "stimulus": "<p id=\"stim\">7</p>", "internal_node_id": "0.0-60.0-3.0", "time_elapsed": 522955, "key_press": -1, "trial_index": 81}, "uniqueid": "MTK2922:33LKR6A5KFR5323L3JREUB5KBX4T1M", "dateTime": 1519589896340}, {"current_trial": 82, "trialdata": {"rt": -1, "trial_type": "single-stim", "stimulus": "<p id=\"stim\">6</p>", "internal_node_id": "0.0-60.0-4.0", "time_elapsed": 523959, "key_press": -1, "trial_index": 82}, "uniqueid": "MTK2922:33LKR6A5KFR5323L3JREUB5KBX4T1M", "dateTime": 1519589897344}, {"current_trial": 83, "trialdata": {"rt": -1, "trial_type": "single-stim", "stimulus": "<p id=\"stim\">5</p>", "internal_node_id": "0.0-60.0-5.0", "time_elapsed": 524964, "key_press": -1, "trial_index": 83}, "uniqueid": "MTK2922:33LKR6A5KFR5323L3JREUB5KBX4T1M", "dateTime": 1519589898349}, {"current_trial": 84, "trialdata": {"rt": -1, "trial_type": "single-stim", "stimulus": "<p id=\"stim\">4</p>", "internal_node_id": "0.0-60.0-6.0", "time_elapsed": 525968, "key_press": -1, "trial_index": 84}, "uniqueid": "MTK2922:33LKR6A5KFR5323L3JREUB5KBX4T1M", "dateTime": 1519589899353}, {"current_trial": 85, "trialdata": {"rt": -1, "trial_type": "single-stim", "stimulus": "<p id=\"stim\">3</p>", "internal_node_id": "0.0-60.0-7.0", "time_elapsed": 526972, "key_press": -1, "trial_index": 85}, "uniqueid": "MTK2922:33LKR6A5KFR5323L3JREUB5KBX4T1M", "dateTime": 1519589900357}, {"current_trial": 86, "trialdata": {"rt": -1, "trial_type": "single-stim", "stimulus": "<p id=\"stim\">2</p>", "internal_node_id": "0.0-60.0-8.0", "time_elapsed": 527976, "key_press": -1, "trial_index": 86}, "uniqueid": "MTK2922:33LKR6A5KFR5323L3JREUB5KBX4T1M", "dateTime": 1519589901361}, {"current_trial": 87, "trialdata": {"rt": -1, "trial_type": "single-stim", "stimulus": "<p id=\"stim\">1</p>", "internal_node_id": "0.0-60.0-9.0", "time_elapsed": 528980, "key_press": -1, "trial_index": 87}, "uniqueid": "MTK2922:33LKR6A5KFR5323L3JREUB5KBX4T1M", "dateTime": 1519589902365}, {"current_trial": 88, "trialdata": {"rt": -1, "trial_type": "single-stim", "stimulus": "<p id=\"stim\">+</p>", "internal_node_id": "0.0-61.0-0.0", "time_elapsed": 530483, "key_press": -1, "type": "FIXATION", "trial_index": 88}, "uniqueid": "MTK2922:33LKR6A5KFR5323L3JREUB5KBX4T1M", "dateTime": 1519589903869}, {"current_trial": 89, "trialdata": {"rt": -1, "trial_type": "single-stim", "word": "mailman", "stimulus": "<p id=\"stim\">MAILMAN</p>", "conditions": [24, 1600, "v", 24000], "internal_node_id": "0.0-62.0", "trial": 2, "time_elapsed": 532085, "serialpos": 0, "key_press": -1, "wordID": 857, "type": "PRES_VIS", "trial_index": 89}, "uniqueid": "MTK2922:33LKR6A5KFR5323L3JREUB5KBX4T1M", "dateTime": 1519589905470}, {"current_trial": 90, "trialdata": {"rt": -1, "trial_type": "single-stim", "word": "atom", "stimulus": "<p id=\"stim\">ATOM</p>", "conditions": [24, 1600, "v", 24000], "internal_node_id": "0.0-63.0", "trial": 2, "time_elapsed": 534872, "serialpos": 1, "key_press": -1, "wordID": 54, "type": "PRES_VIS", "trial_index": 90}, "uniqueid": "MTK2922:33LKR6A5KFR5323L3JREUB5KBX4T1M", "dateTime": 1519589908257}, {"current_trial": 91, "trialdata": {"rt": -1, "trial_type": "single-stim", "word": "freezer", "stimulus": "<p id=\"stim\">FREEZER</p>", "conditions": [24, 1600, "v", 24000], "internal_node_id": "0.0-64.0", "trial": 2, "time_elapsed": 537506, "serialpos": 2, "key_press": -1, "wordID": 603, "type": "PRES_VIS", "trial_index": 91}, "uniqueid": "MTK2922:33LKR6A5KFR5323L3JREUB5KBX4T1M", "dateTime": 1519589910891}, {"current_trial": 92, "trialdata": {"rt": -1, "trial_type": "single-stim", "word": "monster", "stimulus": "<p id=\"stim\">MONSTER</p>", "conditions": [24, 1600, "v", 24000], "internal_node_id": "0.0-65.0", "trial": 2, "time_elapsed": 539921, "serialpos": 3, "key_press": -1, "wordID": 911, "type": "PRES_VIS", "trial_index": 92}, "uniqueid": "MTK2922:33LKR6A5KFR5323L3JREUB5KBX4T1M", "dateTime": 1519589913306}, {"current_trial": 93, "trialdata": {"rt": -1, "trial_type": "single-stim", "word": "beast", "stimulus": "<p id=\"stim\">BEAST</p>", "conditions": [24, 1600, "v", 24000], "internal_node_id": "0.0-66.0", "trial": 2, "time_elapsed": 542464, "serialpos": 4, "key_press": -1, "wordID": 107, "type": "PRES_VIS", "trial_index": 93}, "uniqueid": "MTK2922:33LKR6A5KFR5323L3JREUB5KBX4T1M", "dateTime": 1519589915849}, {"current_trial": 94, "trialdata": {"rt": -1, "trial_type": "single-stim", "word": "bacon", "stimulus": "<p id=\"stim\">BACON</p>", "conditions": [24, 1600, "v", 24000], "internal_node_id": "0.0-67.0", "trial": 2, "time_elapsed": 544965, "serialpos": 5, "key_press": -1, "wordID": 66, "type": "PRES_VIS", "trial_index": 94}, "uniqueid": "MTK2922:33LKR6A5KFR5323L3JREUB5KBX4T1M", "dateTime": 1519589918351}, {"current_trial": 95, "trialdata": {"rt": -1, "trial_type": "single-stim", "word": "lake", "stimulus": "<p id=\"stim\">LAKE</p>", "conditions": [24, 1600, "v", 24000], "internal_node_id": "0.0-68.0", "trial": 2, "time_elapsed": 547519, "serialpos": 6, "key_press": -1, "wordID": 795, "type": "PRES_VIS", "trial_index": 95}, "uniqueid": "MTK2922:33LKR6A5KFR5323L3JREUB5KBX4T1M", "dateTime": 1519589920904}, {"current_trial": 96, "trialdata": {"rt": -1, "trial_type": "single-stim", "word": "puppy", "stimulus": "<p id=\"stim\">PUPPY</p>", "conditions": [24, 1600, "v", 24000], "internal_node_id": "0.0-69.0", "trial": 2, "time_elapsed": 549992, "serialpos": 7, "key_press": -1, "wordID": 1143, "type": "PRES_VIS", "trial_index": 96}, "uniqueid": "MTK2922:33LKR6A5KFR5323L3JREUB5KBX4T1M", "dateTime": 1519589923377}, {"current_trial": 97, "trialdata": {"rt": -1, "trial_type": "single-stim", "word": "robot", "stimulus": "<p id=\"stim\">ROBOT</p>", "conditions": [24, 1600, "v", 24000], "internal_node_id": "0.0-70.0", "trial": 2, "time_elapsed": 552545, "serialpos": 8, "key_press": -1, "wordID": 1199, "type": "PRES_VIS", "trial_index": 97}, "uniqueid": "MTK2922:33LKR6A5KFR5323L3JREUB5KBX4T1M", "dateTime": 1519589925930}, {"current_trial": 98, "trialdata": {"rt": -1, "trial_type": "single-stim", "word": "stream", "stimulus": "<p id=\"stim\">STREAM</p>", "conditions": [24, 1600, "v", 24000], "internal_node_id": "0.0-71.0", "trial": 2, "time_elapsed": 555239, "serialpos": 9, "key_press": -1, "wordID": 1391, "type": "PRES_VIS", "trial_index": 98}, "uniqueid": "MTK2922:33LKR6A5KFR5323L3JREUB5KBX4T1M", "dateTime": 1519589928624}, {"current_trial": 99, "trialdata": {"rt": -1, "trial_type": "single-stim", "word": "egypt", "stimulus": "<p id=\"stim\">EGYPT</p>", "conditions": [24, 1600, "v", 24000], "internal_node_id": "0.0-72.0", "trial": 2, "time_elapsed": 557693, "serialpos": 10, "key_press": -1, "wordID": 518, "type": "PRES_VIS", "trial_index": 99}, "uniqueid": "MTK2922:33LKR6A5KFR5323L3JREUB5KBX4T1M", "dateTime": 1519589931078}, {"current_trial": 100, "trialdata": {"rt": -1, "trial_type": "single-stim", "word": "mailbox", "stimulus": "<p id=\"stim\">MAILBOX</p>", "conditions": [24, 1600, "v", 24000], "internal_node_id": "0.0-73.0", "trial": 2, "time_elapsed": 560138, "serialpos": 11, "key_press": -1, "wordID": 856, "type": "PRES_VIS", "trial_index": 100}, "uniqueid": "MTK2922:33LKR6A5KFR5323L3JREUB5KBX4T1M", "dateTime": 1519589933523}, {"current_trial": 101, "trialdata": {"rt": -1, "trial_type": "single-stim", "word": "doughnut", "stimulus": "<p id=\"stim\">DOUGHNUT</p>", "conditions": [24, 1600, "v", 24000], "internal_node_id": "0.0-74.0", "trial": 2, "time_elapsed": 562709, "serialpos": 12, "key_press": -1, "wordID": 489, "type": "PRES_VIS", "trial_index": 101}, "uniqueid": "MTK2922:33LKR6A5KFR5323L3JREUB5KBX4T1M", "dateTime": 1519589936094}, {"current_trial": 102, "trialdata": {"rt": -1, "trial_type": "single-stim", "word": "luggage", "stimulus": "<p id=\"stim\">LUGGAGE</p>", "conditions": [24, 1600, "v", 24000], "internal_node_id": "0.0-75.0", "trial": 2, "time_elapsed": 565147, "serialpos": 13, "key_press": -1, "wordID": 846, "type": "PRES_VIS", "trial_index": 102}, "uniqueid": "MTK2922:33LKR6A5KFR5323L3JREUB5KBX4T1M", "dateTime": 1519589938532}, {"current_trial": 103, "trialdata": {"rt": -1, "trial_type": "single-stim", "word": "apron", "stimulus": "<p id=\"stim\">APRON</p>", "conditions": [24, 1600, "v", 24000], "internal_node_id": "0.0-76.0", "trial": 2, "time_elapsed": 567677, "serialpos": 14, "key_press": -1, "wordID": 34, "type": "PRES_VIS", "trial_index": 103}, "uniqueid": "MTK2922:33LKR6A5KFR5323L3JREUB5KBX4T1M", "dateTime": 1519589941062}, {"current_trial": 104, "trialdata": {"rt": -1, "trial_type": "single-stim", "word": "pastry", "stimulus": "<p id=\"stim\">PASTRY</p>", "conditions": [24, 1600, "v", 24000], "internal_node_id": "0.0-77.0", "trial": 2, "time_elapsed": 570138, "serialpos": 15, "key_press": -1, "wordID": 1021, "type": "PRES_VIS", "trial_index": 104}, "uniqueid": "MTK2922:33LKR6A5KFR5323L3JREUB5KBX4T1M", "dateTime": 1519589943523}, {"current_trial": 105, "trialdata": {"rt": -1, "trial_type": "single-stim", "word": "juggler", "stimulus": "<p id=\"stim\">JUGGLER</p>", "conditions": [24, 1600, "v", 24000], "internal_node_id": "0.0-78.0", "trial": 2, "time_elapsed": 572570, "serialpos": 16, "key_press": -1, "wordID": 762, "type": "PRES_VIS", "trial_index": 105}, "uniqueid": "MTK2922:33LKR6A5KFR5323L3JREUB5KBX4T1M", "dateTime": 1519589945956}, {"current_trial": 106, "trialdata": {"rt": -1, "trial_type": "single-stim", "word": "hamper", "stimulus": "<p id=\"stim\">HAMPER</p>", "conditions": [24, 1600, "v", 24000], "internal_node_id": "0.0-79.0", "trial": 2, "time_elapsed": 575217, "serialpos": 17, "key_press": -1, "wordID": 681, "type": "PRES_VIS", "trial_index": 106}, "uniqueid": "MTK2922:33LKR6A5KFR5323L3JREUB5KBX4T1M", "dateTime": 1519589948602}, {"current_trial": 107, "trialdata": {"rt": -1, "trial_type": "single-stim", "word": "quail", "stimulus": "<p id=\"stim\">QUAIL</p>", "conditions": [24, 1600, "v", 24000], "internal_node_id": "0.0-80.0", "trial": 2, "time_elapsed": 577730, "serialpos": 18, "key_press": -1, "wordID": 1146, "type": "PRES_VIS", "trial_index": 107}, "uniqueid": "MTK2922:33LKR6A5KFR5323L3JREUB5KBX4T1M", "dateTime": 1519589951115}, {"current_trial": 108, "trialdata": {"rt": -1, "trial_type": "single-stim", "word": "creature", "stimulus": "<p id=\"stim\">CREATURE</p>", "conditions": [24, 1600, "v", 24000], "internal_node_id": "0.0-81.0", "trial": 2, "time_elapsed": 580353, "serialpos": 19, "key_press": -1, "wordID": 402, "type": "PRES_VIS", "trial_index": 108}, "uniqueid": "MTK2922:33LKR6A5KFR5323L3JREUB5KBX4T1M", "dateTime": 1519589953738}, {"current_trial": 109, "trialdata": {"rt": -1, "trial_type": "single-stim", "word": "sculpture", "stimulus": "<p id=\"stim\">SCULPTURE</p>", "conditions": [24, 1600, "v", 24000], "internal_node_id": "0.0-82.0", "trial": 2, "time_elapsed": 583105, "serialpos": 20, "key_press": -1, "wordID": 1257, "type": "PRES_VIS", "trial_index": 109}, "uniqueid": "MTK2922:33LKR6A5KFR5323L3JREUB5KBX4T1M", "dateTime": 1519589956490}, {"current_trial": 110, "trialdata": {"rt": -1, "trial_type": "single-stim", "word": "virus", "stimulus": "<p id=\"stim\">VIRUS</p>", "conditions": [24, 1600, "v", 24000], "internal_node_id": "0.0-83.0", "trial": 2, "time_elapsed": 585584, "serialpos": 21, "key_press": -1, "wordID": 1571, "type": "PRES_VIS", "trial_index": 110}, "uniqueid": "MTK2922:33LKR6A5KFR5323L3JREUB5KBX4T1M", "dateTime": 1519589958969}, {"current_trial": 111, "trialdata": {"rt": -1, "trial_type": "single-stim", "word": "bug", "stimulus": "<p id=\"stim\">BUG</p>", "conditions": [24, 1600, "v", 24000], "internal_node_id": "0.0-84.0", "trial": 2, "time_elapsed": 588126, "serialpos": 22, "key_press": -1, "wordID": 186, "type": "PRES_VIS", "trial_index": 111}, "uniqueid": "MTK2922:33LKR6A5KFR5323L3JREUB5KBX4T1M", "dateTime": 1519589961511}, {"current_trial": 112, "trialdata": {"rt": -1, "trial_type": "single-stim", "word": "shelter", "stimulus": "<p id=\"stim\">SHELTER</p>", "conditions": [24, 1600, "v", 24000], "internal_node_id": "0.0-85.0", "trial": 2, "time_elapsed": 590721, "serialpos": 23, "key_press": -1, "wordID": 1281, "type": "PRES_VIS", "trial_index": 112}, "uniqueid": "MTK2922:33LKR6A5KFR5323L3JREUB5KBX4T1M", "dateTime": 1519589964106}, {"current_trial": 113, "trialdata": {"rt": -1, "trial_type": "single-stim", "stimulus": "", "internal_node_id": "0.0-86.0-0.0", "time_elapsed": 593280, "key_press": -1, "type": "PRE_RECALL_DELAY", "trial_index": 113}, "uniqueid": "MTK2922:33LKR6A5KFR5323L3JREUB5KBX4T1M", "dateTime": 1519589966665}, {"current_trial": 114, "trialdata": {"rt": -1000, "trial_type": "single-audio", "stimulus": "/static/audio/400Hz.wav", "internal_node_id": "0.0-87.0", "time_elapsed": 593781, "key_press": -1, "type": "PRE_RECALL_ALERT", "trial_index": 114}, "uniqueid": "MTK2922:33LKR6A5KFR5323L3JREUB5KBX4T1M", "dateTime": 1519589967167}, {"current_trial": 115, "trialdata": {"rt": [7602, 9516, 11173, 12914, 16821, 18863, 20764, 24864, 26951, 28427, 33496, 40039, 54240], "recwords": ["virus", "apron", "pastry", "mailman", "freezer", "monster", "beast", "lake", "puppy", "robot", "egypt", "doughnut", "quail"], "key_times": [6717, 6870, 7083, 7261, 7435, 7602, 8496, 8653, 8948, 9028, 9196, 9516, 10068, 10200, 10340, 10594, 10762, 10865, 11173, 11689, 11849, 12028, 12230, 12436, 12567, 12659, 12914, 13635, 13839, 13899, 14433, 15029, 15378, 15507, 15657, 16161, 16497, 16629, 16821, 17390, 17590, 17718, 18048, 18235, 18418, 18519, 18863, 19758, 19875, 20158, 20342, 20430, 20764, 22890, 23627, 24183, 24336, 24463, 24670, 24864, 25279, 25663, 25959, 26130, 26288, 26951, 27400, 27508, 27704, 27889, 28045, 28427, 31577, 32361, 32586, 32995, 33302, 33496, 35106, 35712, 35977, 37066, 37255, 37434, 37604, 37965, 38040, 38286, 38460, 38564, 39385, 39638, 39775, 40039, 52305, 52716, 53073, 53648, 53946, 54240], "trial_type": "free-recall", "conditions": [24, 1600, "v", 24000], "internal_node_id": "0.0-88.0-0.0", "key_presses": [86, 73, 82, 85, 83, 13, 65, 80, 82, 79, 78, 13, 80, 65, 83, 84, 82, 89, 13, 77, 65, 73, 76, 77, 65, 78, 13, 70, 82, 69, 8, 82, 8, 69, 69, 90, 69, 82, 13, 77, 79, 78, 83, 84, 69, 82, 13, 66, 69, 65, 83, 84, 13, 75, 8, 76, 65, 75, 69, 13, 80, 85, 80, 80, 89, 13, 82, 79, 66, 79, 84, 13, 69, 71, 89, 80, 84, 13, 77, 65, 73, 8, 8, 8, 8, 68, 79, 85, 71, 72, 78, 85, 84, 13, 81, 85, 65, 73, 76, 13], "trial": 2, "time_elapsed": 653787, "type": "FREE_RECALL", "trial_index": 115}, "uniqueid": "MTK2922:33LKR6A5KFR5323L3JREUB5KBX4T1M", "dateTime": 1519590027174}, {"current_trial": 116, "trialdata": {"rt": 1516, "trial_type": "text", "internal_node_id": "0.0-89.0", "time_elapsed": 657310, "key_press": 32, "type": "INSTRUCTIONS", "trial_index": 116}, "uniqueid": "MTK2922:33LKR6A5KFR5323L3JREUB5KBX4T1M", "dateTime": 1519590030695}, {"current_trial": 117, "trialdata": {"rt": [4100, 7231, 12922, 14992, 18922, 22928], "trial_type": "math-distractor", "key_times": [3455, 3670, 4100, 6244, 6899, 7231, 11999, 12562, 12922, 14706, 14992, 17773, 18370, 18922, 21683, 22625, 22928], "responses": ["23", "15", "16", "7", "15", "15"], "num2": [6, 6, 1, 3, 2, 2, 5], "num3": [8, 3, 7, 1, 6, 8, 9], "conditions": [24, 800, "v", 24000], "internal_node_id": "0.0-90.0", "key_presses": [50, 51, 13, 49, 53, 13, 49, 54, 13, 55, 13, 49, 53, 13, 49, 53, 13], "trial": 3, "time_elapsed": 683320, "type": "DISTRACTOR", "trial_index": 117, "num1": [9, 6, 8, 3, 7, 5, 1]}, "uniqueid": "MTK2922:33LKR6A5KFR5323L3JREUB5KBX4T1M", "dateTime": 1519590056705}, {"current_trial": 118, "trialdata": {"rt": -1, "trial_type": "single-stim", "stimulus": "<p id=\"stim\">10</p>", "internal_node_id": "0.0-91.0-0.0", "time_elapsed": 686325, "key_press": -1, "trial_index": 118}, "uniqueid": "MTK2922:33LKR6A5KFR5323L3JREUB5KBX4T1M", "dateTime": 1519590059710}, {"current_trial": 119, "trialdata": {"rt": -1, "trial_type": "single-stim", "stimulus": "<p id=\"stim\">9</p>", "internal_node_id": "0.0-91.0-1.0", "time_elapsed": 687329, "key_press": -1, "trial_index": 119}, "uniqueid": "MTK2922:33LKR6A5KFR5323L3JREUB5KBX4T1M", "dateTime": 1519590060714}, {"current_trial": 120, "trialdata": {"rt": -1, "trial_type": "single-stim", "stimulus": "<p id=\"stim\">8</p>", "internal_node_id": "0.0-91.0-2.0", "time_elapsed": 688333, "key_press": -1, "trial_index": 120}, "uniqueid": "MTK2922:33LKR6A5KFR5323L3JREUB5KBX4T1M", "dateTime": 1519590061719}, {"current_trial": 121, "trialdata": {"rt": -1, "trial_type": "single-stim", "stimulus": "<p id=\"stim\">7</p>", "internal_node_id": "0.0-91.0-3.0", "time_elapsed": 689338, "key_press": -1, "trial_index": 121}, "uniqueid": "MTK2922:33LKR6A5KFR5323L3JREUB5KBX4T1M", "dateTime": 1519590062723}, {"current_trial": 122, "trialdata": {"rt": -1, "trial_type": "single-stim", "stimulus": "<p id=\"stim\">6</p>", "internal_node_id": "0.0-91.0-4.0", "time_elapsed": 690341, "key_press": -1, "trial_index": 122}, "uniqueid": "MTK2922:33LKR6A5KFR5323L3JREUB5KBX4T1M", "dateTime": 1519590063726}, {"current_trial": 123, "trialdata": {"rt": -1, "trial_type": "single-stim", "stimulus": "<p id=\"stim\">5</p>", "internal_node_id": "0.0-91.0-5.0", "time_elapsed": 691346, "key_press": -1, "trial_index": 123}, "uniqueid": "MTK2922:33LKR6A5KFR5323L3JREUB5KBX4T1M", "dateTime": 1519590064731}, {"current_trial": 124, "trialdata": {"rt": -1, "trial_type": "single-stim", "stimulus": "<p id=\"stim\">4</p>", "internal_node_id": "0.0-91.0-6.0", "time_elapsed": 692350, "key_press": -1, "trial_index": 124}, "uniqueid": "MTK2922:33LKR6A5KFR5323L3JREUB5KBX4T1M", "dateTime": 1519590065735}, {"current_trial": 125, "trialdata": {"rt": -1, "trial_type": "single-stim", "stimulus": "<p id=\"stim\">3</p>", "internal_node_id": "0.0-91.0-7.0", "time_elapsed": 693354, "key_press": -1, "trial_index": 125}, "uniqueid": "MTK2922:33LKR6A5KFR5323L3JREUB5KBX4T1M", "dateTime": 1519590066740}, {"current_trial": 126, "trialdata": {"rt": -1, "trial_type": "single-stim", "stimulus": "<p id=\"stim\">2</p>", "internal_node_id": "0.0-91.0-8.0", "time_elapsed": 694358, "key_press": -1, "trial_index": 126}, "uniqueid": "MTK2922:33LKR6A5KFR5323L3JREUB5KBX4T1M", "dateTime": 1519590067743}, {"current_trial": 127, "trialdata": {"rt": -1, "trial_type": "single-stim", "stimulus": "<p id=\"stim\">1</p>", "internal_node_id": "0.0-91.0-9.0", "time_elapsed": 695363, "key_press": -1, "trial_index": 127}, "uniqueid": "MTK2922:33LKR6A5KFR5323L3JREUB5KBX4T1M", "dateTime": 1519590068748}, {"current_trial": 128, "trialdata": {"rt": -1, "trial_type": "single-stim", "stimulus": "<p id=\"stim\">+</p>", "internal_node_id": "0.0-92.0-0.0", "time_elapsed": 696866, "key_press": -1, "type": "FIXATION", "trial_index": 128}, "uniqueid": "MTK2922:33LKR6A5KFR5323L3JREUB5KBX4T1M", "dateTime": 1519590070251}, {"current_trial": 129, "trialdata": {"rt": -1, "trial_type": "single-stim", "word": "cattle", "stimulus": "<p id=\"stim\">CATTLE</p>", "conditions": [24, 800, "v", 24000], "internal_node_id": "0.0-93.0", "trial": 3, "time_elapsed": 697667, "serialpos": 0, "key_press": -1, "wordID": 260, "type": "PRES_VIS", "trial_index": 129}, "uniqueid": "MTK2922:33LKR6A5KFR5323L3JREUB5KBX4T1M", "dateTime": 1519590071052}, {"current_trial": 130, "trialdata": {"rt": -1, "trial_type": "single-stim", "word": "stallion", "stimulus": "<p id=\"stim\">STALLION</p>", "conditions": [24, 800, "v", 24000], "internal_node_id": "0.0-94.0", "trial": 3, "time_elapsed": 699338, "serialpos": 1, "key_press": -1, "wordID": 1368, "type": "PRES_VIS", "trial_index": 130}, "uniqueid": "MTK2922:33LKR6A5KFR5323L3JREUB5KBX4T1M", "dateTime": 1519590072723}, {"current_trial": 131, "trialdata": {"rt": -1, "trial_type": "single-stim", "word": "nightgown", "stimulus": "<p id=\"stim\">NIGHTGOWN</p>", "conditions": [24, 800, "v", 24000], "internal_node_id": "0.0-95.0", "trial": 3, "time_elapsed": 701295, "serialpos": 2, "key_press": -1, "wordID": 952, "type": "PRES_VIS", "trial_index": 131}, "uniqueid": "MTK2922:33LKR6A5KFR5323L3JREUB5KBX4T1M", "dateTime": 1519590074680}, {"current_trial": 132, "trialdata": {"rt": -1, "trial_type": "single-stim", "word": "spider", "stimulus": "<p id=\"stim\">SPIDER</p>", "conditions": [24, 800, "v", 24000], "internal_node_id": "0.0-96.0", "trial": 3, "time_elapsed": 703018, "serialpos": 3, "key_press": -1, "wordID": 1350, "type": "PRES_VIS", "trial_index": 132}, "uniqueid": "MTK2922:33LKR6A5KFR5323L3JREUB5KBX4T1M", "dateTime": 1519590076403}, {"current_trial": 133, "trialdata": {"rt": -1, "trial_type": "single-stim", "word": "crayon", "stimulus": "<p id=\"stim\">CRAYON</p>", "conditions": [24, 800, "v", 24000], "internal_node_id": "0.0-97.0", "trial": 3, "time_elapsed": 704666, "serialpos": 4, "key_press": -1, "wordID": 400, "type": "PRES_VIS", "trial_index": 133}, "uniqueid": "MTK2922:33LKR6A5KFR5323L3JREUB5KBX4T1M", "dateTime": 1519590078052}, {"current_trial": 134, "trialdata": {"rt": -1, "trial_type": "single-stim", "word": "lady", "stimulus": "<p id=\"stim\">LADY</p>", "conditions": [24, 800, "v", 24000], "internal_node_id": "0.0-98.0", "trial": 3, "time_elapsed": 706321, "serialpos": 5, "key_press": -1, "wordID": 793, "type": "PRES_VIS", "trial_index": 134}, "uniqueid": "MTK2922:33LKR6A5KFR5323L3JREUB5KBX4T1M", "dateTime": 1519590079706}, {"current_trial": 135, "trialdata": {"rt": -1, "trial_type": "single-stim", "word": "woman", "stimulus": "<p id=\"stim\">WOMAN</p>", "conditions": [24, 800, "v", 24000], "internal_node_id": "0.0-99.0", "trial": 3, "time_elapsed": 708086, "serialpos": 6, "key_press": -1, "wordID": 1619, "type": "PRES_VIS", "trial_index": 135}, "uniqueid": "MTK2922:33LKR6A5KFR5323L3JREUB5KBX4T1M", "dateTime": 1519590081471}, {"current_trial": 136, "trialdata": {"rt": -1, "trial_type": "single-stim", "word": "snake", "stimulus": "<p id=\"stim\">SNAKE</p>", "conditions": [24, 800, "v", 24000], "internal_node_id": "0.0-100.0", "trial": 3, "time_elapsed": 709739, "serialpos": 7, "key_press": -1, "wordID": 1332, "type": "PRES_VIS", "trial_index": 136}, "uniqueid": "MTK2922:33LKR6A5KFR5323L3JREUB5KBX4T1M", "dateTime": 1519590083124}, {"current_trial": 137, "trialdata": {"rt": -1, "trial_type": "single-stim", "word": "igloo", "stimulus": "<p id=\"stim\">IGLOO</p>", "conditions": [24, 800, "v", 24000], "internal_node_id": "0.0-101.0", "trial": 3, "time_elapsed": 711551, "serialpos": 8, "key_press": -1, "wordID": 733, "type": "PRES_VIS", "trial_index": 137}, "uniqueid": "MTK2922:33LKR6A5KFR5323L3JREUB5KBX4T1M", "dateTime": 1519590084936}, {"current_trial": 138, "trialdata": {"rt": -1, "trial_type": "single-stim", "word": "airport", "stimulus": "<p id=\"stim\">AIRPORT</p>", "conditions": [24, 800, "v", 24000], "internal_node_id": "0.0-102.0", "trial": 3, "time_elapsed": 713391, "serialpos": 9, "key_press": -1, "wordID": 12, "type": "PRES_VIS", "trial_index": 138}, "uniqueid": "MTK2922:33LKR6A5KFR5323L3JREUB5KBX4T1M", "dateTime": 1519590086776}, {"current_trial": 139, "trialdata": {"rt": -1, "trial_type": "single-stim", "word": "drawing", "stimulus": "<p id=\"stim\">DRAWING</p>", "conditions": [24, 800, "v", 24000], "internal_node_id": "0.0-103.0", "trial": 3, "time_elapsed": 715155, "serialpos": 10, "key_press": -1, "wordID": 493, "type": "PRES_VIS", "trial_index": 139}, "uniqueid": "MTK2922:33LKR6A5KFR5323L3JREUB5KBX4T1M", "dateTime": 1519590088540}, {"current_trial": 140, "trialdata": {"rt": -1, "trial_type": "single-stim", "word": "blouse", "stimulus": "<p id=\"stim\">BLOUSE</p>", "conditions": [24, 800, "v", 24000], "internal_node_id": "0.0-104.0", "trial": 3, "time_elapsed": 717018, "serialpos": 11, "key_press": -1, "wordID": 138, "type": "PRES_VIS", "trial_index": 140}, "uniqueid": "MTK2922:33LKR6A5KFR5323L3JREUB5KBX4T1M", "dateTime": 1519590090403}, {"current_trial": 141, "trialdata": {"rt": -1, "trial_type": "single-stim", "word": "scarecrow", "stimulus": "<p id=\"stim\">SCARECROW</p>", "conditions": [24, 800, "v", 24000], "internal_node_id": "0.0-105.0", "trial": 3, "time_elapsed": 718742, "serialpos": 12, "key_press": -1, "wordID": 1244, "type": "PRES_VIS", "trial_index": 141}, "uniqueid": "MTK2922:33LKR6A5KFR5323L3JREUB5KBX4T1M", "dateTime": 1519590092127}, {"current_trial": 142, "trialdata": {"rt": -1, "trial_type": "single-stim", "word": "statue", "stimulus": "<p id=\"stim\">STATUE</p>", "conditions": [24, 800, "v", 24000], "internal_node_id": "0.0-106.0", "trial": 3, "time_elapsed": 720431, "serialpos": 13, "key_press": -1, "wordID": 1373, "type": "PRES_VIS", "trial_index": 142}, "uniqueid": "MTK2922:33LKR6A5KFR5323L3JREUB5KBX4T1M", "dateTime": 1519590093816}, {"current_trial": 143, "trialdata": {"rt": -1, "trial_type": "single-stim", "word": "garden", "stimulus": "<p id=\"stim\">GARDEN</p>", "conditions": [24, 800, "v", 24000], "internal_node_id": "0.0-107.0", "trial": 3, "time_elapsed": 722288, "serialpos": 14, "key_press": -1, "wordID": 622, "type": "PRES_VIS", "trial_index": 143}, "uniqueid": "MTK2922:33LKR6A5KFR5323L3JREUB5KBX4T1M", "dateTime": 1519590095673}, {"current_trial": 144, "trialdata": {"rt": -1, "trial_type": "single-stim", "word": "cupboard", "stimulus": "<p id=\"stim\">CUPBOARD</p>", "conditions": [24, 800, "v", 24000], "internal_node_id": "0.0-108.0", "trial": 3, "time_elapsed": 723971, "serialpos": 15, "key_press": -1, "wordID": 424, "type": "PRES_VIS", "trial_index": 144}, "uniqueid": "MTK2922:33LKR6A5KFR5323L3JREUB5KBX4T1M", "dateTime": 1519590097357}, {"current_trial": 145, "trialdata": {"rt": -1, "trial_type": "single-stim", "word": "dresser", "stimulus": "<p id=\"stim\">DRESSER</p>", "conditions": [24, 800, "v", 24000], "internal_node_id": "0.0-109.0", "trial": 3, "time_elapsed": 725760, "serialpos": 16, "key_press": -1, "wordID": 495, "type": "PRES_VIS", "trial_index": 145}, "uniqueid": "MTK2922:33LKR6A5KFR5323L3JREUB5KBX4T1M", "dateTime": 1519590099145}, {"current_trial": 146, "trialdata": {"rt": -1, "trial_type": "single-stim", "word": "fox", "stimulus": "<p id=\"stim\">FOX</p>", "conditions": [24, 800, "v", 24000], "internal_node_id": "0.0-110.0", "trial": 3, "time_elapsed": 727611, "serialpos": 17, "key_press": -1, "wordID": 597, "type": "PRES_VIS", "trial_index": 146}, "uniqueid": "MTK2922:33LKR6A5KFR5323L3JREUB5KBX4T1M", "dateTime": 1519590100997}, {"current_trial": 147, "trialdata": {"rt": -1, "trial_type": "single-stim", "word": "pepper", "stimulus": "<p id=\"stim\">PEPPER</p>", "conditions": [24, 800, "v", 24000], "internal_node_id": "0.0-111.0", "trial": 3, "time_elapsed": 729585, "serialpos": 18, "key_press": -1, "wordID": 1046, "type": "PRES_VIS", "trial_index": 147}, "uniqueid": "MTK2922:33LKR6A5KFR5323L3JREUB5KBX4T1M", "dateTime": 1519590102970}, {"current_trial": 148, "trialdata": {"rt": -1, "trial_type": "single-stim", "word": "shrub", "stimulus": "<p id=\"stim\">SHRUB</p>", "conditions": [24, 800, "v", 24000], "internal_node_id": "0.0-112.0", "trial": 3, "time_elapsed": 731209, "serialpos": 19, "key_press": -1, "wordID": 1298, "type": "PRES_VIS", "trial_index": 148}, "uniqueid": "MTK2922:33LKR6A5KFR5323L3JREUB5KBX4T1M", "dateTime": 1519590104594}, {"current_trial": 149, "trialdata": {"rt": -1, "trial_type": "single-stim", "word": "coin", "stimulus": "<p id=\"stim\">COIN</p>", "conditions": [24, 800, "v", 24000], "internal_node_id": "0.0-113.0", "trial": 3, "time_elapsed": 733090, "serialpos": 20, "key_press": -1, "wordID": 342, "type": "PRES_VIS", "trial_index": 149}, "uniqueid": "MTK2922:33LKR6A5KFR5323L3JREUB5KBX4T1M", "dateTime": 1519590106475}, {"current_trial": 150, "trialdata": {"rt": -1, "trial_type": "single-stim", "word": "contract", "stimulus": "<p id=\"stim\">CONTRACT</p>", "conditions": [24, 800, "v", 24000], "internal_node_id": "0.0-114.0", "trial": 3, "time_elapsed": 734931, "serialpos": 21, "key_press": -1, "wordID": 367, "type": "PRES_VIS", "trial_index": 150}, "uniqueid": "MTK2922:33LKR6A5KFR5323L3JREUB5KBX4T1M", "dateTime": 1519590108316}, {"current_trial": 151, "trialdata": {"rt": -1, "trial_type": "single-stim", "word": "apple", "stimulus": "<p id=\"stim\">APPLE</p>", "conditions": [24, 800, "v", 24000], "internal_node_id": "0.0-115.0", "trial": 3, "time_elapsed": 736823, "serialpos": 22, "key_press": -1, "wordID": 32, "type": "PRES_VIS", "trial_index": 151}, "uniqueid": "MTK2922:33LKR6A5KFR5323L3JREUB5KBX4T1M", "dateTime": 1519590110208}, {"current_trial": 152, "trialdata": {"rt": -1, "trial_type": "single-stim", "word": "pizza", "stimulus": "<p id=\"stim\">PIZZA</p>", "conditions": [24, 800, "v", 24000], "internal_node_id": "0.0-116.0", "trial": 3, "time_elapsed": 738778, "serialpos": 23, "key_press": -1, "wordID": 1078, "type": "PRES_VIS", "trial_index": 152}, "uniqueid": "MTK2922:33LKR6A5KFR5323L3JREUB5KBX4T1M", "dateTime": 1519590112163}, {"current_trial": 153, "trialdata": {"rt": -1, "trial_type": "single-stim", "stimulus": "", "internal_node_id": "0.0-117.0-0.0", "time_elapsed": 741117, "key_press": -1, "type": "PRE_RECALL_DELAY", "trial_index": 153}, "uniqueid": "MTK2922:33LKR6A5KFR5323L3JREUB5KBX4T1M", "dateTime": 1519590114502}, {"current_trial": 154, "trialdata": {"rt": -1000, "trial_type": "single-audio", "stimulus": "/static/audio/400Hz.wav", "internal_node_id": "0.0-118.0", "time_elapsed": 741620, "key_press": -1, "type": "PRE_RECALL_ALERT", "trial_index": 154}, "uniqueid": "MTK2922:33LKR6A5KFR5323L3JREUB5KBX4T1M", "dateTime": 1519590115005}, {"current_trial": 155, "trialdata": {"rt": [7541, 9470, 10729, 12436, 17826, 24089, 27226, 28889, 30634, 36921, 38119, 40203], "recwords": ["crayon", "lady", "woman", "igloo", "draw", "garden", "dresser", "fox", "pepper", "contract", "apple", "pizza"], "key_times": [5692, 5924, 6190, 6381, 7155, 7276, 7541, 8222, 8834, 9030, 9359, 9470, 9807, 9899, 10087, 10345, 10445, 10729, 11569, 11706, 11848, 12053, 12206, 12436, 15229, 15442, 15732, 15971, 16155, 16945, 17826, 22606, 22878, 23169, 23399, 23662, 23762, 24089, 25859, 26075, 26191, 26479, 26654, 26894, 27026, 27226, 27735, 27864, 28378, 28889, 29895, 30037, 30182, 30306, 30410, 30494, 30634, 34991, 35150, 35622, 35766, 35914, 36234, 36495, 36759, 36921, 37284, 37485, 37701, 37829, 37977, 38119, 39098, 39382, 39611, 39800, 39999, 40203], "trial_type": "free-recall", "conditions": [24, 800, "v", 24000], "internal_node_id": "0.0-119.0-0.0", "key_presses": [67, 82, 65, 89, 79, 78, 13, 76, 65, 68, 89, 13, 87, 79, 77, 65, 78, 13, 73, 71, 76, 79, 79, 13, 68, 82, 65, 87, 79, 8, 13, 71, 65, 82, 68, 69, 78, 13, 68, 82, 69, 83, 83, 69, 82, 13, 70, 79, 88, 13, 80, 69, 80, 80, 69, 82, 13, 67, 79, 78, 84, 82, 65, 67, 84, 13, 65, 80, 80, 76, 69, 13, 80, 73, 90, 90, 65, 13], "trial": 3, "time_elapsed": 801626, "type": "FREE_RECALL", "trial_index": 155}, "uniqueid": "MTK2922:33LKR6A5KFR5323L3JREUB5KBX4T1M", "dateTime": 1519590175014}, {"current_trial": 156, "trialdata": {"rt": 1520, "trial_type": "text", "internal_node_id": "0.0-120.0", "time_elapsed": 805155, "key_press": 32, "type": "INSTRUCTIONS", "trial_index": 156}, "uniqueid": "MTK2922:33LKR6A5KFR5323L3JREUB5KBX4T1M", "dateTime": 1519590178540}, {"current_trial": 157, "trialdata": {"rt": [2560, 4261, 7058, 9483, 12867, 14912, 17589, 19969, 21921], "trial_type": "math-distractor", "key_times": [1437, 1886, 2298, 2422, 2560, 3813, 4161, 4261, 6650, 6935, 7058, 9069, 9354, 9483, 12029, 12607, 12867, 14724, 14844, 14912, 17008, 17483, 17589, 19657, 19843, 19969, 21483, 21777, 21921, 23862], "responses": ["15", "15", "24", "15", "13", "21", "16", "13", "15"], "num2": [5, 3, 8, 1, 8, 3, 8, 8, 3, 1], "num3": [5, 5, 8, 9, 3, 9, 2, 1, 4, 7], "conditions": [24, 1600, "v", 24000], "internal_node_id": "0.0-121.0", "key_presses": [49, 54, 8, 53, 13, 49, 53, 13, 50, 52, 13, 49, 53, 13, 49, 51, 13, 50, 49, 13, 49, 54, 13, 49, 51, 13, 49, 53, 13, 49], "trial": 4, "time_elapsed": 831164, "type": "DISTRACTOR", "trial_index": 157, "num1": [5, 7, 8, 5, 2, 9, 6, 4, 8, 2]}, "uniqueid": "MTK2922:33LKR6A5KFR5323L3JREUB5KBX4T1M", "dateTime": 1519590204549}, {"current_trial": 158, "trialdata": {"rt": -1, "trial_type": "single-stim", "stimulus": "<p id=\"stim\">10</p>", "internal_node_id": "0.0-122.0-0.0", "time_elapsed": 834170, "key_press": -1, "trial_index": 158}, "uniqueid": "MTK2922:33LKR6A5KFR5323L3JREUB5KBX4T1M", "dateTime": 1519590207555}, {"current_trial": 159, "trialdata": {"rt": -1, "trial_type": "single-stim", "stimulus": "<p id=\"stim\">9</p>", "internal_node_id": "0.0-122.0-1.0", "time_elapsed": 835173, "key_press": -1, "trial_index": 159}, "uniqueid": "MTK2922:33LKR6A5KFR5323L3JREUB5KBX4T1M", "dateTime": 1519590208558}, {"current_trial": 160, "trialdata": {"rt": -1, "trial_type": "single-stim", "stimulus": "<p id=\"stim\">8</p>", "internal_node_id": "0.0-122.0-2.0", "time_elapsed": 836179, "key_press": -1, "trial_index": 160}, "uniqueid": "MTK2922:33LKR6A5KFR5323L3JREUB5KBX4T1M", "dateTime": 1519590209564}, {"current_trial": 161, "trialdata": {"rt": -1, "trial_type": "single-stim", "stimulus": "<p id=\"stim\">7</p>", "internal_node_id": "0.0-122.0-3.0", "time_elapsed": 837183, "key_press": -1, "trial_index": 161}, "uniqueid": "MTK2922:33LKR6A5KFR5323L3JREUB5KBX4T1M", "dateTime": 1519590210569}, {"current_trial": 162, "trialdata": {"rt": -1, "trial_type": "single-stim", "stimulus": "<p id=\"stim\">6</p>", "internal_node_id": "0.0-122.0-4.0", "time_elapsed": 838187, "key_press": -1, "trial_index": 162}, "uniqueid": "MTK2922:33LKR6A5KFR5323L3JREUB5KBX4T1M", "dateTime": 1519590211572}, {"current_trial": 163, "trialdata": {"rt": -1, "trial_type": "single-stim", "stimulus": "<p id=\"stim\">5</p>", "internal_node_id": "0.0-122.0-5.0", "time_elapsed": 839191, "key_press": -1, "trial_index": 163}, "uniqueid": "MTK2922:33LKR6A5KFR5323L3JREUB5KBX4T1M", "dateTime": 1519590212576}, {"current_trial": 164, "trialdata": {"rt": -1, "trial_type": "single-stim", "stimulus": "<p id=\"stim\">4</p>", "internal_node_id": "0.0-122.0-6.0", "time_elapsed": 840195, "key_press": -1, "trial_index": 164}, "uniqueid": "MTK2922:33LKR6A5KFR5323L3JREUB5KBX4T1M", "dateTime": 1519590213580}, {"current_trial": 165, "trialdata": {"rt": -1, "trial_type": "single-stim", "stimulus": "<p id=\"stim\">3</p>", "internal_node_id": "0.0-122.0-7.0", "time_elapsed": 841199, "key_press": -1, "trial_index": 165}, "uniqueid": "MTK2922:33LKR6A5KFR5323L3JREUB5KBX4T1M", "dateTime": 1519590214584}, {"current_trial": 166, "trialdata": {"rt": -1, "trial_type": "single-stim", "stimulus": "<p id=\"stim\">2</p>", "internal_node_id": "0.0-122.0-8.0", "time_elapsed": 842203, "key_press": -1, "trial_index": 166}, "uniqueid": "MTK2922:33LKR6A5KFR5323L3JREUB5KBX4T1M", "dateTime": 1519590215589}, {"current_trial": 167, "trialdata": {"rt": -1, "trial_type": "single-stim", "stimulus": "<p id=\"stim\">1</p>", "internal_node_id": "0.0-122.0-9.0", "time_elapsed": 843207, "key_press": -1, "trial_index": 167}, "uniqueid": "MTK2922:33LKR6A5KFR5323L3JREUB5KBX4T1M", "dateTime": 1519590216592}, {"current_trial": 168, "trialdata": {"rt": -1, "trial_type": "single-stim", "stimulus": "<p id=\"stim\">+</p>", "internal_node_id": "0.0-123.0-0.0", "time_elapsed": 844710, "key_press": -1, "type": "FIXATION", "trial_index": 168}, "uniqueid": "MTK2922:33LKR6A5KFR5323L3JREUB5KBX4T1M", "dateTime": 1519590218096}, {"current_trial": 169, "trialdata": {"rt": -1, "trial_type": "single-stim", "word": "daughter", "stimulus": "<p id=\"stim\">DAUGHTER</p>", "conditions": [24, 1600, "v", 24000], "internal_node_id": "0.0-124.0", "trial": 4, "time_elapsed": 846313, "serialpos": 0, "key_press": -1, "wordID": 441, "type": "PRES_VIS", "trial_index": 169}, "uniqueid": "MTK2922:33LKR6A5KFR5323L3JREUB5KBX4T1M", "dateTime": 1519590219698}, {"current_trial": 170, "trialdata": {"rt": -1, "trial_type": "single-stim", "word": "puddle", "stimulus": "<p id=\"stim\">PUDDLE</p>", "conditions": [24, 1600, "v", 24000], "internal_node_id": "0.0-125.0", "trial": 4, "time_elapsed": 848954, "serialpos": 1, "key_press": -1, "wordID": 1139, "type": "PRES_VIS", "trial_index": 170}, "uniqueid": "MTK2922:33LKR6A5KFR5323L3JREUB5KBX4T1M", "dateTime": 1519590222339}, {"current_trial": 171, "trialdata": {"rt": -1, "trial_type": "single-stim", "word": "chemist", "stimulus": "<p id=\"stim\">CHEMIST</p>", "conditions": [24, 1600, "v", 24000], "internal_node_id": "0.0-126.0", "trial": 4, "time_elapsed": 851560, "serialpos": 2, "key_press": -1, "wordID": 291, "type": "PRES_VIS", "trial_index": 171}, "uniqueid": "MTK2922:33LKR6A5KFR5323L3JREUB5KBX4T1M", "dateTime": 1519590224945}, {"current_trial": 172, "trialdata": {"rt": -1, "trial_type": "single-stim", "word": "paddle", "stimulus": "<p id=\"stim\">PADDLE</p>", "conditions": [24, 1600, "v", 24000], "internal_node_id": "0.0-127.0", "trial": 4, "time_elapsed": 854085, "serialpos": 3, "key_press": -1, "wordID": 999, "type": "PRES_VIS", "trial_index": 172}, "uniqueid": "MTK2922:33LKR6A5KFR5323L3JREUB5KBX4T1M", "dateTime": 1519590227470}, {"current_trial": 173, "trialdata": {"rt": -1, "trial_type": "single-stim", "word": "queen", "stimulus": "<p id=\"stim\">QUEEN</p>", "conditions": [24, 1600, "v", 24000], "internal_node_id": "0.0-128.0", "trial": 4, "time_elapsed": 856534, "serialpos": 4, "key_press": -1, "wordID": 1148, "type": "PRES_VIS", "trial_index": 173}, "uniqueid": "MTK2922:33LKR6A5KFR5323L3JREUB5KBX4T1M", "dateTime": 1519590229919}, {"current_trial": 174, "trialdata": {"rt": -1, "trial_type": "single-stim", "word": "lamp", "stimulus": "<p id=\"stim\">LAMP</p>", "conditions": [24, 1600, "v", 24000], "internal_node_id": "0.0-129.0", "trial": 4, "time_elapsed": 859007, "serialpos": 5, "key_press": -1, "wordID": 797, "type": "PRES_VIS", "trial_index": 174}, "uniqueid": "MTK2922:33LKR6A5KFR5323L3JREUB5KBX4T1M", "dateTime": 1519590232392}, {"current_trial": 175, "trialdata": {"rt": -1, "trial_type": "single-stim", "word": "turkey", "stimulus": "<p id=\"stim\">TURKEY</p>", "conditions": [24, 1600, "v", 24000], "internal_node_id": "0.0-130.0", "trial": 4, "time_elapsed": 861450, "serialpos": 6, "key_press": -1, "wordID": 1519, "type": "PRES_VIS", "trial_index": 175}, "uniqueid": "MTK2922:33LKR6A5KFR5323L3JREUB5KBX4T1M", "dateTime": 1519590234835}, {"current_trial": 176, "trialdata": {"rt": -1, "trial_type": "single-stim", "word": "pork", "stimulus": "<p id=\"stim\">PORK</p>", "conditions": [24, 1600, "v", 24000], "internal_node_id": "0.0-131.0", "trial": 4, "time_elapsed": 863975, "serialpos": 7, "key_press": -1, "wordID": 1107, "type": "PRES_VIS", "trial_index": 176}, "uniqueid": "MTK2922:33LKR6A5KFR5323L3JREUB5KBX4T1M", "dateTime": 1519590237361}, {"current_trial": 177, "trialdata": {"rt": -1, "trial_type": "single-stim", "word": "kidney", "stimulus": "<p id=\"stim\">KIDNEY</p>", "conditions": [24, 1600, "v", 24000], "internal_node_id": "0.0-132.0", "trial": 4, "time_elapsed": 866639, "serialpos": 8, "key_press": -1, "wordID": 775, "type": "PRES_VIS", "trial_index": 177}, "uniqueid": "MTK2922:33LKR6A5KFR5323L3JREUB5KBX4T1M", "dateTime": 1519590240024}, {"current_trial": 178, "trialdata": {"rt": -1, "trial_type": "single-stim", "word": "honey", "stimulus": "<p id=\"stim\">HONEY</p>", "conditions": [24, 1600, "v", 24000], "internal_node_id": "0.0-133.0", "trial": 4, "time_elapsed": 869234, "serialpos": 9, "key_press": -1, "wordID": 712, "type": "PRES_VIS", "trial_index": 178}, "uniqueid": "MTK2922:33LKR6A5KFR5323L3JREUB5KBX4T1M", "dateTime": 1519590242619}, {"current_trial": 179, "trialdata": {"rt": -1, "trial_type": "single-stim", "word": "journal", "stimulus": "<p id=\"stim\">JOURNAL</p>", "conditions": [24, 1600, "v", 24000], "internal_node_id": "0.0-134.0", "trial": 4, "time_elapsed": 871747, "serialpos": 10, "key_press": -1, "wordID": 759, "type": "PRES_VIS", "trial_index": 179}, "uniqueid": "MTK2922:33LKR6A5KFR5323L3JREUB5KBX4T1M", "dateTime": 1519590245132}, {"current_trial": 180, "trialdata": {"rt": -1, "trial_type": "single-stim", "word": "friend", "stimulus": "<p id=\"stim\">FRIEND</p>", "conditions": [24, 1600, "v", 24000], "internal_node_id": "0.0-135.0", "trial": 4, "time_elapsed": 874260, "serialpos": 11, "key_press": -1, "wordID": 605, "type": "PRES_VIS", "trial_index": 180}, "uniqueid": "MTK2922:33LKR6A5KFR5323L3JREUB5KBX4T1M", "dateTime": 1519590247645}, {"current_trial": 181, "trialdata": {"rt": -1, "trial_type": "single-stim", "word": "denim", "stimulus": "<p id=\"stim\">DENIM</p>", "conditions": [24, 1600, "v", 24000], "internal_node_id": "0.0-136.0", "trial": 4, "time_elapsed": 877035, "serialpos": 12, "key_press": -1, "wordID": 445, "type": "PRES_VIS", "trial_index": 181}, "uniqueid": "MTK2922:33LKR6A5KFR5323L3JREUB5KBX4T1M", "dateTime": 1519590250420}, {"current_trial": 182, "trialdata": {"rt": -1, "trial_type": "single-stim", "word": "country", "stimulus": "<p id=\"stim\">COUNTRY</p>", "conditions": [24, 1600, "v", 24000], "internal_node_id": "0.0-137.0", "trial": 4, "time_elapsed": 879456, "serialpos": 13, "key_press": -1, "wordID": 387, "type": "PRES_VIS", "trial_index": 182}, "uniqueid": "MTK2922:33LKR6A5KFR5323L3JREUB5KBX4T1M", "dateTime": 1519590252841}, {"current_trial": 183, "trialdata": {"rt": -1, "trial_type": "single-stim", "word": "world", "stimulus": "<p id=\"stim\">WORLD</p>", "conditions": [24, 1600, "v", 24000], "internal_node_id": "0.0-138.0", "trial": 4, "time_elapsed": 882218, "serialpos": 14, "key_press": -1, "wordID": 1621, "type": "PRES_VIS", "trial_index": 183}, "uniqueid": "MTK2922:33LKR6A5KFR5323L3JREUB5KBX4T1M", "dateTime": 1519590255603}, {"current_trial": 184, "trialdata": {"rt": -1, "trial_type": "single-stim", "word": "preacher", "stimulus": "<p id=\"stim\">PREACHER</p>", "conditions": [24, 1600, "v", 24000], "internal_node_id": "0.0-139.0", "trial": 4, "time_elapsed": 884638, "serialpos": 15, "key_press": -1, "wordID": 1118, "type": "PRES_VIS", "trial_index": 184}, "uniqueid": "MTK2922:33LKR6A5KFR5323L3JREUB5KBX4T1M", "dateTime": 1519590258023}, {"current_trial": 185, "trialdata": {"rt": -1, "trial_type": "single-stim", "word": "lumber", "stimulus": "<p id=\"stim\">LUMBER</p>", "conditions": [24, 1600, "v", 24000], "internal_node_id": "0.0-140.0", "trial": 4, "time_elapsed": 887215, "serialpos": 16, "key_press": -1, "wordID": 847, "type": "PRES_VIS", "trial_index": 185}, "uniqueid": "MTK2922:33LKR6A5KFR5323L3JREUB5KBX4T1M", "dateTime": 1519590260600}, {"current_trial": 186, "trialdata": {"rt": -1, "trial_type": "single-stim", "word": "plaid", "stimulus": "<p id=\"stim\">PLAID</p>", "conditions": [24, 1600, "v", 24000], "internal_node_id": "0.0-141.0", "trial": 4, "time_elapsed": 889723, "serialpos": 17, "key_press": -1, "wordID": 1079, "type": "PRES_VIS", "trial_index": 186}, "uniqueid": "MTK2922:33LKR6A5KFR5323L3JREUB5KBX4T1M", "dateTime": 1519590263108}, {"current_trial": 187, "trialdata": {"rt": -1, "trial_type": "single-stim", "word": "rebel", "stimulus": "<p id=\"stim\">REBEL</p>", "conditions": [24, 1600, "v", 24000], "internal_node_id": "0.0-142.0", "trial": 4, "time_elapsed": 892486, "serialpos": 18, "key_press": -1, "wordID": 1171, "type": "PRES_VIS", "trial_index": 187}, "uniqueid": "MTK2922:33LKR6A5KFR5323L3JREUB5KBX4T1M", "dateTime": 1519590265871}, {"current_trial": 188, "trialdata": {"rt": -1, "trial_type": "single-stim", "word": "river", "stimulus": "<p id=\"stim\">RIVER</p>", "conditions": [24, 1600, "v", 24000], "internal_node_id": "0.0-143.0", "trial": 4, "time_elapsed": 894982, "serialpos": 19, "key_press": -1, "wordID": 1193, "type": "PRES_VIS", "trial_index": 188}, "uniqueid": "MTK2922:33LKR6A5KFR5323L3JREUB5KBX4T1M", "dateTime": 1519590268367}, {"current_trial": 189, "trialdata": {"rt": -1, "trial_type": "single-stim", "word": "judge", "stimulus": "<p id=\"stim\">JUDGE</p>", "conditions": [24, 1600, "v", 24000], "internal_node_id": "0.0-144.0", "trial": 4, "time_elapsed": 897768, "serialpos": 20, "key_press": -1, "wordID": 760, "type": "PRES_VIS", "trial_index": 189}, "uniqueid": "MTK2922:33LKR6A5KFR5323L3JREUB5KBX4T1M", "dateTime": 1519590271153}, {"current_trial": 190, "trialdata": {"rt": -1, "trial_type": "single-stim", "word": "comet", "stimulus": "<p id=\"stim\">COMET</p>", "conditions": [24, 1600, "v", 24000], "internal_node_id": "0.0-145.0", "trial": 4, "time_elapsed": 900310, "serialpos": 21, "key_press": -1, "wordID": 352, "type": "PRES_VIS", "trial_index": 190}, "uniqueid": "MTK2922:33LKR6A5KFR5323L3JREUB5KBX4T1M", "dateTime": 1519590273697}, {"current_trial": 191, "trialdata": {"rt": -1, "trial_type": "single-stim", "word": "sunrise", "stimulus": "<p id=\"stim\">SUNRISE</p>", "conditions": [24, 1600, "v", 24000], "internal_node_id": "0.0-146.0", "trial": 4, "time_elapsed": 903061, "serialpos": 22, "key_press": -1, "wordID": 1406, "type": "PRES_VIS", "trial_index": 191}, "uniqueid": "MTK2922:33LKR6A5KFR5323L3JREUB5KBX4T1M", "dateTime": 1519590276447}, {"current_trial": 192, "trialdata": {"rt": -1, "trial_type": "single-stim", "word": "catcher", "stimulus": "<p id=\"stim\">CATCHER</p>", "conditions": [24, 1600, "v", 24000], "internal_node_id": "0.0-147.0", "trial": 4, "time_elapsed": 905795, "serialpos": 23, "key_press": -1, "wordID": 257, "type": "PRES_VIS", "trial_index": 192}, "uniqueid": "MTK2922:33LKR6A5KFR5323L3JREUB5KBX4T1M", "dateTime": 1519590279180}, {"current_trial": 193, "trialdata": {"rt": -1, "trial_type": "single-stim", "stimulus": "", "internal_node_id": "0.0-148.0-0.0", "time_elapsed": 908087, "key_press": -1, "type": "PRE_RECALL_DELAY", "trial_index": 193}, "uniqueid": "MTK2922:33LKR6A5KFR5323L3JREUB5KBX4T1M", "dateTime": 1519590281473}, {"current_trial": 194, "trialdata": {"rt": -1000, "trial_type": "single-audio", "stimulus": "/static/audio/400Hz.wav", "internal_node_id": "0.0-149.0", "time_elapsed": 908589, "key_press": -1, "type": "PRE_RECALL_ALERT", "trial_index": 194}, "uniqueid": "MTK2922:33LKR6A5KFR5323L3JREUB5KBX4T1M", "dateTime": 1519590281974}, {"current_trial": 195, "trialdata": {"rt": [3475, 5109, 6568, 7751, 18136, 20907, 22726, 33138, 34928, 37243, 40081], "recwords": ["catcher", "daughter", "queen", "paddle", "journal", "friend", "denim", "lumber", "plaid", "rebe", "river"], "key_times": [1604, 2323, 2701, 2966, 3069, 3205, 3298, 3475, 3936, 4129, 4266, 4421, 4514, 4635, 4849, 4929, 5109, 5729, 5897, 6030, 6215, 6307, 6568, 6949, 7044, 7278, 7430, 7550, 7643, 7751, 16838, 16958, 17176, 17381, 17526, 17733, 17870, 18136, 18903, 19083, 19363, 19794, 20087, 20244, 20349, 20659, 20907, 21556, 21732, 21915, 22187, 22429, 22726, 31406, 31995, 32277, 32618, 32772, 32888, 33138, 33727, 34093, 34214, 34400, 34625, 34928, 36689, 36789, 36957, 37061, 37243, 39190, 39322, 39422, 39663, 39725, 40081], "trial_type": "free-recall", "conditions": [24, 1600, "v", 24000], "internal_node_id": "0.0-150.0-0.0", "key_presses": [67, 65, 84, 67, 72, 69, 82, 13, 68, 65, 85, 71, 72, 84, 69, 82, 13, 81, 85, 69, 69, 78, 13, 80, 65, 68, 68, 76, 69, 13, 74, 79, 85, 82, 78, 65, 76, 13, 70, 82, 69, 8, 73, 69, 78, 68, 13, 68, 69, 78, 73, 77, 13, 76, 85, 77, 66, 69, 82, 13, 80, 76, 65, 73, 68, 13, 82, 69, 66, 69, 186, 82, 73, 86, 69, 82, 13], "trial": 4, "time_elapsed": 968597, "type": "FREE_RECALL", "trial_index": 195}, "uniqueid": "MTK2922:33LKR6A5KFR5323L3JREUB5KBX4T1M", "dateTime": 1519590341984}, {"current_trial": 196, "trialdata": {"rt": 7647, "trial_type": "text", "internal_node_id": "0.0-151.0", "time_elapsed": 978251, "key_press": 32, "type": "INSTRUCTIONS", "trial_index": 196}, "uniqueid": "MTK2922:33LKR6A5KFR5323L3JREUB5KBX4T1M", "dateTime": 1519590351636}, {"current_trial": 197, "trialdata": {"rt": [2830, 4683, 7794, 9828], "trial_type": "math-distractor", "key_times": [2543, 2722, 2830, 4467, 4571, 4683, 7281, 7651, 7794, 9156, 9654, 9828, 11657], "responses": ["14", "12", "14", "10"], "num2": [1, 3, 9, 5, 4], "num3": [7, 8, 3, 3, 8], "conditions": [12, 800, "v", 12000], "internal_node_id": "0.0-152.0", "key_presses": [49, 52, 13, 49, 50, 13, 49, 52, 13, 49, 48, 13, 50], "trial": 5, "time_elapsed": 992261, "type": "DISTRACTOR", "trial_index": 197, "num1": [6, 1, 2, 2, 8]}, "uniqueid": "MTK2922:33LKR6A5KFR5323L3JREUB5KBX4T1M", "dateTime": 1519590365646}, {"current_trial": 198, "trialdata": {"rt": -1, "trial_type": "single-stim", "stimulus": "<p id=\"stim\">10</p>", "internal_node_id": "0.0-153.0-0.0", "time_elapsed": 995267, "key_press": -1, "trial_index": 198}, "uniqueid": "MTK2922:33LKR6A5KFR5323L3JREUB5KBX4T1M", "dateTime": 1519590368652}, {"current_trial": 199, "trialdata": {"rt": -1, "trial_type": "single-stim", "stimulus": "<p id=\"stim\">9</p>", "internal_node_id": "0.0-153.0-1.0", "time_elapsed": 996271, "key_press": -1, "trial_index": 199}, "uniqueid": "MTK2922:33LKR6A5KFR5323L3JREUB5KBX4T1M", "dateTime": 1519590369657}, {"current_trial": 200, "trialdata": {"rt": -1, "trial_type": "single-stim", "stimulus": "<p id=\"stim\">8</p>", "internal_node_id": "0.0-153.0-2.0", "time_elapsed": 997275, "key_press": -1, "trial_index": 200}, "uniqueid": "MTK2922:33LKR6A5KFR5323L3JREUB5KBX4T1M", "dateTime": 1519590370661}, {"current_trial": 201, "trialdata": {"rt": -1, "trial_type": "single-stim", "stimulus": "<p id=\"stim\">7</p>", "internal_node_id": "0.0-153.0-3.0", "time_elapsed": 998279, "key_press": -1, "trial_index": 201}, "uniqueid": "MTK2922:33LKR6A5KFR5323L3JREUB5KBX4T1M", "dateTime": 1519590371664}, {"current_trial": 202, "trialdata": {"rt": -1, "trial_type": "single-stim", "stimulus": "<p id=\"stim\">6</p>", "internal_node_id": "0.0-153.0-4.0", "time_elapsed": 999284, "key_press": -1, "trial_index": 202}, "uniqueid": "MTK2922:33LKR6A5KFR5323L3JREUB5KBX4T1M", "dateTime": 1519590372669}, {"current_trial": 203, "trialdata": {"rt": -1, "trial_type": "single-stim", "stimulus": "<p id=\"stim\">5</p>", "internal_node_id": "0.0-153.0-5.0", "time_elapsed": 1000288, "key_press": -1, "trial_index": 203}, "uniqueid": "MTK2922:33LKR6A5KFR5323L3JREUB5KBX4T1M", "dateTime": 1519590373673}, {"current_trial": 204, "trialdata": {"rt": -1, "trial_type": "single-stim", "stimulus": "<p id=\"stim\">4</p>", "internal_node_id": "0.0-153.0-6.0", "time_elapsed": 1001292, "key_press": -1, "trial_index": 204}, "uniqueid": "MTK2922:33LKR6A5KFR5323L3JREUB5KBX4T1M", "dateTime": 1519590374677}, {"current_trial": 205, "trialdata": {"rt": -1, "trial_type": "single-stim", "stimulus": "<p id=\"stim\">3</p>", "internal_node_id": "0.0-153.0-7.0", "time_elapsed": 1002296, "key_press": -1, "trial_index": 205}, "uniqueid": "MTK2922:33LKR6A5KFR5323L3JREUB5KBX4T1M", "dateTime": 1519590375682}, {"current_trial": 206, "trialdata": {"rt": -1, "trial_type": "single-stim", "stimulus": "<p id=\"stim\">2</p>", "internal_node_id": "0.0-153.0-8.0", "time_elapsed": 1003301, "key_press": -1, "trial_index": 206}, "uniqueid": "MTK2922:33LKR6A5KFR5323L3JREUB5KBX4T1M", "dateTime": 1519590376686}, {"current_trial": 207, "trialdata": {"rt": -1, "trial_type": "single-stim", "stimulus": "<p id=\"stim\">1</p>", "internal_node_id": "0.0-153.0-9.0", "time_elapsed": 1004305, "key_press": -1, "trial_index": 207}, "uniqueid": "MTK2922:33LKR6A5KFR5323L3JREUB5KBX4T1M", "dateTime": 1519590377690}, {"current_trial": 208, "trialdata": {"rt": -1, "trial_type": "single-stim", "stimulus": "<p id=\"stim\">+</p>", "internal_node_id": "0.0-154.0-0.0", "time_elapsed": 1005807, "key_press": -1, "type": "FIXATION", "trial_index": 208}, "uniqueid": "MTK2922:33LKR6A5KFR5323L3JREUB5KBX4T1M", "dateTime": 1519590379192}, {"current_trial": 209, "trialdata": {"rt": -1, "trial_type": "single-stim", "word": "buggy", "stimulus": "<p id=\"stim\">BUGGY</p>", "conditions": [12, 800, "v", 12000], "internal_node_id": "0.0-155.0", "trial": 5, "time_elapsed": 1006609, "serialpos": 0, "key_press": -1, "wordID": 187, "type": "PRES_VIS", "trial_index": 209}, "uniqueid": "MTK2922:33LKR6A5KFR5323L3JREUB5KBX4T1M", "dateTime": 1519590379994}, {"current_trial": 210, "trialdata": {"rt": -1, "trial_type": "single-stim", "word": "plaster", "stimulus": "<p id=\"stim\">PLASTER</p>", "conditions": [12, 800, "v", 12000], "internal_node_id": "0.0-156.0", "trial": 5, "time_elapsed": 1008344, "serialpos": 1, "key_press": -1, "wordID": 1084, "type": "PRES_VIS", "trial_index": 210}, "uniqueid": "MTK2922:33LKR6A5KFR5323L3JREUB5KBX4T1M", "dateTime": 1519590381729}, {"current_trial": 211, "trialdata": {"rt": -1, "trial_type": "single-stim", "word": "mildew", "stimulus": "<p id=\"stim\">MILDEW</p>", "conditions": [12, 800, "v", 12000], "internal_node_id": "0.0-157.0", "trial": 5, "time_elapsed": 1010341, "serialpos": 2, "key_press": -1, "wordID": 892, "type": "PRES_VIS", "trial_index": 211}, "uniqueid": "MTK2922:33LKR6A5KFR5323L3JREUB5KBX4T1M", "dateTime": 1519590383726}, {"current_trial": 212, "trialdata": {"rt": -1, "trial_type": "single-stim", "word": "fiddle", "stimulus": "<p id=\"stim\">FIDDLE</p>", "conditions": [12, 800, "v", 12000], "internal_node_id": "0.0-158.0", "trial": 5, "time_elapsed": 1012135, "serialpos": 3, "key_press": -1, "wordID": 560, "type": "PRES_VIS", "trial_index": 212}, "uniqueid": "MTK2922:33LKR6A5KFR5323L3JREUB5KBX4T1M", "dateTime": 1519590385520}, {"current_trial": 213, "trialdata": {"rt": -1, "trial_type": "single-stim", "word": "trombone", "stimulus": "<p id=\"stim\">TROMBONE</p>", "conditions": [12, 800, "v", 12000], "internal_node_id": "0.0-159.0", "trial": 5, "time_elapsed": 1014061, "serialpos": 4, "key_press": -1, "wordID": 1507, "type": "PRES_VIS", "trial_index": 213}, "uniqueid": "MTK2922:33LKR6A5KFR5323L3JREUB5KBX4T1M", "dateTime": 1519590387446}, {"current_trial": 214, "trialdata": {"rt": -1, "trial_type": "single-stim", "word": "missile", "stimulus": "<p id=\"stim\">MISSILE</p>", "conditions": [12, 800, "v", 12000], "internal_node_id": "0.0-160.0", "trial": 5, "time_elapsed": 1015881, "serialpos": 5, "key_press": -1, "wordID": 899, "type": "PRES_VIS", "trial_index": 214}, "uniqueid": "MTK2922:33LKR6A5KFR5323L3JREUB5KBX4T1M", "dateTime": 1519590389267}, {"current_trial": 215, "trialdata": {"rt": -1, "trial_type": "single-stim", "word": "trout", "stimulus": "<p id=\"stim\">TROUT</p>", "conditions": [12, 800, "v", 12000], "internal_node_id": "0.0-161.0", "trial": 5, "time_elapsed": 1017787, "serialpos": 6, "key_press": -1, "wordID": 1510, "type": "PRES_VIS", "trial_index": 215}, "uniqueid": "MTK2922:33LKR6A5KFR5323L3JREUB5KBX4T1M", "dateTime": 1519590391172}, {"current_trial": 216, "trialdata": {"rt": -1, "trial_type": "single-stim", "word": "casket", "stimulus": "<p id=\"stim\">CASKET</p>", "conditions": [12, 800, "v", 12000], "internal_node_id": "0.0-162.0", "trial": 5, "time_elapsed": 1019541, "serialpos": 7, "key_press": -1, "wordID": 254, "type": "PRES_VIS", "trial_index": 216}, "uniqueid": "MTK2922:33LKR6A5KFR5323L3JREUB5KBX4T1M", "dateTime": 1519590392926}, {"current_trial": 217, "trialdata": {"rt": -1, "trial_type": "single-stim", "word": "flute", "stimulus": "<p id=\"stim\">FLUTE</p>", "conditions": [12, 800, "v", 12000], "internal_node_id": "0.0-163.0", "trial": 5, "time_elapsed": 1021404, "serialpos": 8, "key_press": -1, "wordID": 584, "type": "PRES_VIS", "trial_index": 217}, "uniqueid": "MTK2922:33LKR6A5KFR5323L3JREUB5KBX4T1M", "dateTime": 1519590394789}, {"current_trial": 218, "trialdata": {"rt": -1, "trial_type": "single-stim", "word": "sparrow", "stimulus": "<p id=\"stim\">SPARROW</p>", "conditions": [12, 800, "v", 12000], "internal_node_id": "0.0-164.0", "trial": 5, "time_elapsed": 1023302, "serialpos": 9, "key_press": -1, "wordID": 1346, "type": "PRES_VIS", "trial_index": 218}, "uniqueid": "MTK2922:33LKR6A5KFR5323L3JREUB5KBX4T1M", "dateTime": 1519590396687}, {"current_trial": 219, "trialdata": {"rt": -1, "trial_type": "single-stim", "word": "knife", "stimulus": "<p id=\"stim\">KNIFE</p>", "conditions": [12, 800, "v", 12000], "internal_node_id": "0.0-165.0", "trial": 5, "time_elapsed": 1025199, "serialpos": 10, "key_press": -1, "wordID": 784, "type": "PRES_VIS", "trial_index": 219}, "uniqueid": "MTK2922:33LKR6A5KFR5323L3JREUB5KBX4T1M", "dateTime": 1519590398584}, {"current_trial": 220, "trialdata": {"rt": -1, "trial_type": "single-stim", "word": "sword", "stimulus": "<p id=\"stim\">SWORD</p>", "conditions": [12, 800, "v", 12000], "internal_node_id": "0.0-166.0", "trial": 5, "time_elapsed": 1027156, "serialpos": 11, "key_press": -1, "wordID": 1422, "type": "PRES_VIS", "trial_index": 220}, "uniqueid": "MTK2922:33LKR6A5KFR5323L3JREUB5KBX4T1M", "dateTime": 1519590400541}, {"current_trial": 221, "trialdata": {"rt": -1, "trial_type": "single-stim", "stimulus": "", "internal_node_id": "0.0-167.0-0.0", "time_elapsed": 1029426, "key_press": -1, "type": "PRE_RECALL_DELAY", "trial_index": 221}, "uniqueid": "MTK2922:33LKR6A5KFR5323L3JREUB5KBX4T1M", "dateTime": 1519590402811}, {"current_trial": 222, "trialdata": {"rt": -1000, "trial_type": "single-audio", "stimulus": "/static/audio/400Hz.wav", "internal_node_id": "0.0-168.0", "time_elapsed": 1029927, "key_press": -1, "type": "PRE_RECALL_ALERT", "trial_index": 222}, "uniqueid": "MTK2922:33LKR6A5KFR5323L3JREUB5KBX4T1M", "dateTime": 1519590403313}, {"current_trial": 223, "trialdata": {"rt": [10205, 11710, 13777, 15371, 17397, 19323, 21123, 22750, 27571, 30848], "recwords": ["buggy", "plaster", "mildew", "fiddle", "trombone", "missile", "daughter", "queen", "knife", "sword"], "key_times": [9187, 9343, 9541, 9720, 9981, 10205, 10645, 10776, 10860, 10944, 11289, 11502, 11594, 11710, 12062, 12346, 12583, 12773, 13108, 13585, 13777, 14437, 14602, 14828, 14985, 15116, 15231, 15371, 16035, 16162, 16290, 16442, 16759, 16888, 17088, 17225, 17397, 18001, 18260, 18321, 18503, 18686, 19034, 19196, 19323, 19836, 20060, 20176, 20371, 20495, 20695, 20939, 21023, 21123, 21991, 22139, 22264, 22430, 22506, 22750, 26579, 26694, 26914, 27096, 27413, 27571, 28527, 28785, 28971, 29541, 29813, 30848], "trial_type": "free-recall", "conditions": [12, 800, "v", 12000], "internal_node_id": "0.0-169.0-0.0", "key_presses": [66, 85, 71, 71, 89, 13, 80, 76, 65, 83, 84, 69, 82, 13, 77, 73, 76, 68, 69, 87, 13, 70, 73, 68, 68, 76, 69, 13, 84, 82, 79, 77, 66, 79, 78, 69, 13, 77, 73, 83, 83, 73, 76, 69, 13, 68, 65, 85, 71, 72, 84, 69, 82, 13, 81, 85, 69, 69, 78, 13, 75, 78, 73, 70, 69, 13, 83, 87, 79, 82, 68, 13], "trial": 5, "time_elapsed": 1089935, "type": "FREE_RECALL", "trial_index": 223}, "uniqueid": "MTK2922:33LKR6A5KFR5323L3JREUB5KBX4T1M", "dateTime": 1519590463323}, {"current_trial": 224, "trialdata": {"rt": 16626, "trial_type": "text", "internal_node_id": "0.0-170.0", "time_elapsed": 1108568, "key_press": 32, "type": "INSTRUCTIONS", "trial_index": 224}, "uniqueid": "MTK2922:33LKR6A5KFR5323L3JREUB5KBX4T1M", "dateTime": 1519590481954}, {"current_trial": 225, "trialdata": {"rt": [3503, 5792, 7356, 9431, 11786, 14182, 16478, 18868, 20737, 23612], "trial_type": "math-distractor", "key_times": [3117, 3236, 3503, 5275, 5677, 5792, 7269, 7356, 9279, 9431, 11303, 11656, 11786, 13729, 14054, 14182, 16001, 16370, 16478, 18655, 18779, 18868, 20386, 20656, 20737, 23360, 23503, 23612], "responses": ["20", "19", "9", "9", "19", "20", "16", "21", "15", "12"], "num2": [7, 8, 1, 5, 8, 4, 5, 8, 6, 2, 9], "num3": [5, 7, 7, 3, 9, 9, 4, 7, 2, 4, 2], "conditions": [12, 800, "v", 24000], "internal_node_id": "0.0-171.0", "key_presses": [50, 48, 13, 49, 57, 13, 57, 13, 57, 13, 49, 57, 13, 50, 48, 13, 49, 54, 13, 50, 49, 13, 49, 53, 13, 49, 50, 13], "trial": 6, "time_elapsed": 1134581, "type": "DISTRACTOR", "trial_index": 225, "num1": [8, 4, 1, 1, 2, 7, 7, 6, 7, 6, 6]}, "uniqueid": "MTK2922:33LKR6A5KFR5323L3JREUB5KBX4T1M", "dateTime": 1519590507966}, {"current_trial": 226, "trialdata": {"rt": -1, "trial_type": "single-stim", "stimulus": "<p id=\"stim\">10</p>", "internal_node_id": "0.0-172.0-0.0", "time_elapsed": 1137587, "key_press": -1, "trial_index": 226}, "uniqueid": "MTK2922:33LKR6A5KFR5323L3JREUB5KBX4T1M", "dateTime": 1519590510972}, {"current_trial": 227, "trialdata": {"rt": -1, "trial_type": "single-stim", "stimulus": "<p id=\"stim\">9</p>", "internal_node_id": "0.0-172.0-1.0", "time_elapsed": 1138591, "key_press": -1, "trial_index": 227}, "uniqueid": "MTK2922:33LKR6A5KFR5323L3JREUB5KBX4T1M", "dateTime": 1519590511976}, {"current_trial": 228, "trialdata": {"rt": -1, "trial_type": "single-stim", "stimulus": "<p id=\"stim\">8</p>", "internal_node_id": "0.0-172.0-2.0", "time_elapsed": 1139595, "key_press": -1, "trial_index": 228}, "uniqueid": "MTK2922:33LKR6A5KFR5323L3JREUB5KBX4T1M", "dateTime": 1519590512980}, {"current_trial": 229, "trialdata": {"rt": -1, "trial_type": "single-stim", "stimulus": "<p id=\"stim\">7</p>", "internal_node_id": "0.0-172.0-3.0", "time_elapsed": 1140600, "key_press": -1, "trial_index": 229}, "uniqueid": "MTK2922:33LKR6A5KFR5323L3JREUB5KBX4T1M", "dateTime": 1519590513985}, {"current_trial": 230, "trialdata": {"rt": -1, "trial_type": "single-stim", "stimulus": "<p id=\"stim\">6</p>", "internal_node_id": "0.0-172.0-4.0", "time_elapsed": 1141606, "key_press": -1, "trial_index": 230}, "uniqueid": "MTK2922:33LKR6A5KFR5323L3JREUB5KBX4T1M", "dateTime": 1519590514991}, {"current_trial": 231, "trialdata": {"rt": -1, "trial_type": "single-stim", "stimulus": "<p id=\"stim\">5</p>", "internal_node_id": "0.0-172.0-5.0", "time_elapsed": 1142607, "key_press": -1, "trial_index": 231}, "uniqueid": "MTK2922:33LKR6A5KFR5323L3JREUB5KBX4T1M", "dateTime": 1519590515993}, {"current_trial": 232, "trialdata": {"rt": -1, "trial_type": "single-stim", "stimulus": "<p id=\"stim\">4</p>", "internal_node_id": "0.0-172.0-6.0", "time_elapsed": 1143611, "key_press": -1, "trial_index": 232}, "uniqueid": "MTK2922:33LKR6A5KFR5323L3JREUB5KBX4T1M", "dateTime": 1519590516997}, {"current_trial": 233, "trialdata": {"rt": -1, "trial_type": "single-stim", "stimulus": "<p id=\"stim\">3</p>", "internal_node_id": "0.0-172.0-7.0", "time_elapsed": 1144616, "key_press": -1, "trial_index": 233}, "uniqueid": "MTK2922:33LKR6A5KFR5323L3JREUB5KBX4T1M", "dateTime": 1519590518001}, {"current_trial": 234, "trialdata": {"rt": -1, "trial_type": "single-stim", "stimulus": "<p id=\"stim\">2</p>", "internal_node_id": "0.0-172.0-8.0", "time_elapsed": 1145620, "key_press": -1, "trial_index": 234}, "uniqueid": "MTK2922:33LKR6A5KFR5323L3JREUB5KBX4T1M", "dateTime": 1519590519007}, {"current_trial": 235, "trialdata": {"rt": -1, "trial_type": "single-stim", "stimulus": "<p id=\"stim\">1</p>", "internal_node_id": "0.0-172.0-9.0", "time_elapsed": 1146626, "key_press": -1, "trial_index": 235}, "uniqueid": "MTK2922:33LKR6A5KFR5323L3JREUB5KBX4T1M", "dateTime": 1519590520011}, {"current_trial": 236, "trialdata": {"rt": -1, "trial_type": "single-stim", "stimulus": "<p id=\"stim\">+</p>", "internal_node_id": "0.0-173.0-0.0", "time_elapsed": 1148128, "key_press": -1, "type": "FIXATION", "trial_index": 236}, "uniqueid": "MTK2922:33LKR6A5KFR5323L3JREUB5KBX4T1M", "dateTime": 1519590521513}, {"current_trial": 237, "trialdata": {"rt": -1, "trial_type": "single-stim", "word": "silk", "stimulus": "<p id=\"stim\">SILK</p>", "conditions": [12, 800, "v", 24000], "internal_node_id": "0.0-174.0", "trial": 6, "time_elapsed": 1148934, "serialpos": 0, "key_press": -1, "wordID": 1306, "type": "PRES_VIS", "trial_index": 237}, "uniqueid": "MTK2922:33LKR6A5KFR5323L3JREUB5KBX4T1M", "dateTime": 1519590522319}, {"current_trial": 238, "trialdata": {"rt": -1, "trial_type": "single-stim", "word": "pigment", "stimulus": "<p id=\"stim\">PIGMENT</p>", "conditions": [12, 800, "v", 24000], "internal_node_id": "0.0-175.0", "trial": 6, "time_elapsed": 1150873, "serialpos": 1, "key_press": -1, "wordID": 1065, "type": "PRES_VIS", "trial_index": 238}, "uniqueid": "MTK2922:33LKR6A5KFR5323L3JREUB5KBX4T1M", "dateTime": 1519590524258}, {"current_trial": 239, "trialdata": {"rt": -1, "trial_type": "single-stim", "word": "grape", "stimulus": "<p id=\"stim\">GRAPE</p>", "conditions": [12, 800, "v", 24000], "internal_node_id": "0.0-176.0", "trial": 6, "time_elapsed": 1152835, "serialpos": 2, "key_press": -1, "wordID": 653, "type": "PRES_VIS", "trial_index": 239}, "uniqueid": "MTK2922:33LKR6A5KFR5323L3JREUB5KBX4T1M", "dateTime": 1519590526220}, {"current_trial": 240, "trialdata": {"rt": -1, "trial_type": "single-stim", "word": "novel", "stimulus": "<p id=\"stim\">NOVEL</p>", "conditions": [12, 800, "v", 24000], "internal_node_id": "0.0-177.0", "trial": 6, "time_elapsed": 1154524, "serialpos": 3, "key_press": -1, "wordID": 959, "type": "PRES_VIS", "trial_index": 240}, "uniqueid": "MTK2922:33LKR6A5KFR5323L3JREUB5KBX4T1M", "dateTime": 1519590527909}, {"current_trial": 241, "trialdata": {"rt": -1, "trial_type": "single-stim", "word": "daisy", "stimulus": "<p id=\"stim\">DAISY</p>", "conditions": [12, 800, "v", 24000], "internal_node_id": "0.0-178.0", "trial": 6, "time_elapsed": 1156469, "serialpos": 4, "key_press": -1, "wordID": 434, "type": "PRES_VIS", "trial_index": 241}, "uniqueid": "MTK2922:33LKR6A5KFR5323L3JREUB5KBX4T1M", "dateTime": 1519590529854}, {"current_trial": 242, "trialdata": {"rt": -1, "trial_type": "single-stim", "word": "peach", "stimulus": "<p id=\"stim\">PEACH</p>", "conditions": [12, 800, "v", 24000], "internal_node_id": "0.0-179.0", "trial": 6, "time_elapsed": 1158244, "serialpos": 5, "key_press": -1, "wordID": 1030, "type": "PRES_VIS", "trial_index": 242}, "uniqueid": "MTK2922:33LKR6A5KFR5323L3JREUB5KBX4T1M", "dateTime": 1519590531629}, {"current_trial": 243, "trialdata": {"rt": -1, "trial_type": "single-stim", "word": "wrench", "stimulus": "<p id=\"stim\">WRENCH</p>", "conditions": [12, 800, "v", 24000], "internal_node_id": "0.0-180.0", "trial": 6, "time_elapsed": 1160038, "serialpos": 6, "key_press": -1, "wordID": 1624, "type": "PRES_VIS", "trial_index": 243}, "uniqueid": "MTK2922:33LKR6A5KFR5323L3JREUB5KBX4T1M", "dateTime": 1519590533423}, {"current_trial": 244, "trialdata": {"rt": -1, "trial_type": "single-stim", "word": "gangster", "stimulus": "<p id=\"stim\">GANGSTER</p>", "conditions": [12, 800, "v", 24000], "internal_node_id": "0.0-181.0", "trial": 6, "time_elapsed": 1161692, "serialpos": 7, "key_press": -1, "wordID": 619, "type": "PRES_VIS", "trial_index": 244}, "uniqueid": "MTK2922:33LKR6A5KFR5323L3JREUB5KBX4T1M", "dateTime": 1519590535077}, {"current_trial": 245, "trialdata": {"rt": -1, "trial_type": "single-stim", "word": "snack", "stimulus": "<p id=\"stim\">SNACK</p>", "conditions": [12, 800, "v", 24000], "internal_node_id": "0.0-182.0", "trial": 6, "time_elapsed": 1163649, "serialpos": 8, "key_press": -1, "wordID": 1330, "type": "PRES_VIS", "trial_index": 245}, "uniqueid": "MTK2922:33LKR6A5KFR5323L3JREUB5KBX4T1M", "dateTime": 1519590537034}, {"current_trial": 246, "trialdata": {"rt": -1, "trial_type": "single-stim", "word": "candy", "stimulus": "<p id=\"stim\">CANDY</p>", "conditions": [12, 800, "v", 24000], "internal_node_id": "0.0-183.0", "trial": 6, "time_elapsed": 1165309, "serialpos": 9, "key_press": -1, "wordID": 229, "type": "PRES_VIS", "trial_index": 246}, "uniqueid": "MTK2922:33LKR6A5KFR5323L3JREUB5KBX4T1M", "dateTime": 1519590538694}, {"current_trial": 247, "trialdata": {"rt": -1, "trial_type": "single-stim", "word": "toaster", "stimulus": "<p id=\"stim\">TOASTER</p>", "conditions": [12, 800, "v", 24000], "internal_node_id": "0.0-184.0", "trial": 6, "time_elapsed": 1166916, "serialpos": 10, "key_press": -1, "wordID": 1471, "type": "PRES_VIS", "trial_index": 247}, "uniqueid": "MTK2922:33LKR6A5KFR5323L3JREUB5KBX4T1M", "dateTime": 1519590540301}, {"current_trial": 248, "trialdata": {"rt": -1, "trial_type": "single-stim", "word": "handbag", "stimulus": "<p id=\"stim\">HANDBAG</p>", "conditions": [12, 800, "v", 24000], "internal_node_id": "0.0-185.0", "trial": 6, "time_elapsed": 1168599, "serialpos": 11, "key_press": -1, "wordID": 683, "type": "PRES_VIS", "trial_index": 248}, "uniqueid": "MTK2922:33LKR6A5KFR5323L3JREUB5KBX4T1M", "dateTime": 1519590541984}, {"current_trial": 249, "trialdat