{"assignmentId": "36U2A8VAG263QPO1LZKV77TYX64YK1", "workerId": "MTK2404", "questiondata": {"origin": "United States", "strat-rehearsal": "86", "marital": "Married/Domestic Partnership", "education": "Some college", "ethnicity": "Not Hispanic", "color_depth": 24, "distracted": "No", "wrote-notes": "No", "strat-other": "", "screen_width": 1366, "avail_screen_width": 1366, "avail_screen_height": 768, "strat-image": "100", "language": "English", "gender": "Female", "age": "34", "gender_other": "", "race": ["White"], "strat-categorize": "94", "pixel_depth": 24, "strat-spatial": "59", "strat-story": "39", "race_other": "", "screen_height": 768}, "bonus": 0, "hitId": "3M7OI89LVYVH1N4DX133BD0DAONC6V", "counterbalance": 2788, "useragent": "Mozilla/5.0 (Windows NT 10.0; Win64; x64) AppleWebKit/537.36 (KHTML, like Gecko) Chrome/63.0.3239.132 Safari/537.36", "eventdata": [{"eventtype": "initialized", "interval": 0, "value": null, "timestamp": 1517074519819}, {"eventtype": "window_resize", "interval": 0, "value": [1350, 686], "timestamp": 1517074519819}, {"eventtype": "focus", "interval": 2200171, "value": "off", "timestamp": 1517076719990}, {"eventtype": "focus", "interval": 162, "value": "on", "timestamp": 1517076720152}, {"eventtype": "focus", "interval": 477989, "value": "off", "timestamp": 1517077198141}, {"eventtype": "focus", "interval": 601, "value": "on", "timestamp": 1517077198742}], "data": [{"current_trial": 0, "trialdata": {"rt": 2338, "trial_type": "text", "internal_node_id": "0.0-0.0", "time_elapsed": 2347, "key_press": 74, "type": "INSTRUCTIONS", "trial_index": 0}, "uniqueid": "MTK2404:36U2A8VAG263QPO1LZKV77TYX64YK1", "dateTime": 1517074528823}, {"current_trial": 1, "trialdata": {"rt": 37213, "trial_type": "text", "internal_node_id": "0.0-1.0", "time_elapsed": 39568, "key_press": 74, "type": "INSTRUCTIONS", "trial_index": 1}, "uniqueid": "MTK2404:36U2A8VAG263QPO1LZKV77TYX64YK1", "dateTime": 1517074566044}, {"current_trial": 2, "trialdata": {"rt": [15994], "trial_type": "audio-test", "responses": ["ocean"], "internal_node_id": "0.0-2.0", "time_elapsed": 55589, "type": "AUDIO_TEST", "trial_index": 2}, "uniqueid": "MTK2404:36U2A8VAG263QPO1LZKV77TYX64YK1", "dateTime": 1517074582065}, {"current_trial": 3, "trialdata": {"rt": [11732], "trial_type": "audio-test", "responses": ["crystal"], "internal_node_id": "0.0-3.0", "time_elapsed": 67336, "type": "AUDIO_TEST", "trial_index": 3}, "uniqueid": "MTK2404:36U2A8VAG263QPO1LZKV77TYX64YK1", "dateTime": 1517074593811}, {"current_trial": 4, "trialdata": {"rt": [85489], "trial_type": "audio-test", "responses": ["spice"], "internal_node_id": "0.0-4.0", "time_elapsed": 152838, "type": "AUDIO_TEST", "trial_index": 4}, "uniqueid": "MTK2404:36U2A8VAG263QPO1LZKV77TYX64YK1", "dateTime": 1517074679314}, {"current_trial": 5, "trialdata": {"rt": 37764, "trial_type": "survey-text", "responses": "{\"Q0\":\"10:30pm\",\"Q1\":\"9:00am\",\"Q2\":\"5\"}", "internal_node_id": "0.0-5.0", "time_elapsed": 191359, "type": "SLEEP_SURVEY", "trial_index": 5}, "uniqueid": "MTK2404:36U2A8VAG263QPO1LZKV77TYX64YK1", "dateTime": 1517074717834}, {"current_trial": 6, "trialdata": {"rt": 100766, "trial_type": "text", "internal_node_id": "0.0-6.0", "time_elapsed": 293130, "key_press": 68, "type": "INSTRUCTIONS", "trial_index": 6}, "uniqueid": "MTK2404:36U2A8VAG263QPO1LZKV77TYX64YK1", "dateTime": 1517074819606}, {"current_trial": 7, "trialdata": {"rt": 36631, "trial_type": "text", "internal_node_id": "0.0-7.0", "time_elapsed": 330268, "key_press": 72, "type": "INSTRUCTIONS", "trial_index": 7}, "uniqueid": "MTK2404:36U2A8VAG263QPO1LZKV77TYX64YK1", "dateTime": 1517074856744}, {"current_trial": 8, "trialdata": {"rt": 26596, "trial_type": "text", "internal_node_id": "0.0-8.0", "time_elapsed": 357369, "key_press": 70, "type": "INSTRUCTIONS", "trial_index": 8}, "uniqueid": "MTK2404:36U2A8VAG263QPO1LZKV77TYX64YK1", "dateTime": 1517074883845}, {"current_trial": 9, "trialdata": {"rt": [6288, 11262, 16960], "trial_type": "math-distractor", "key_times": [4206, 4811, 6288, 10540, 11262, 16587, 16744, 16960], "responses": ["10", "9", "22"], "num2": [2, 3, 5, 5], "num3": [6, 2, 8, 8], "conditions": [18, 1200, "a", 18000], "internal_node_id": "0.0-9.0", "key_presses": [49, 48, 13, 57, 13, 50, 50, 13], "trial": 0, "time_elapsed": 376402, "type": "DISTRACTOR", "trial_index": 9, "num1": [2, 4, 9, 8]}, "uniqueid": "MTK2404:36U2A8VAG263QPO1LZKV77TYX64YK1", "dateTime": 1517074902878}, {"current_trial": 10, "trialdata": {"rt": -1, "trial_type": "single-stim", "stimulus": "<p id=\"stim\">10</p>", "internal_node_id": "0.0-10.0-0.0", "time_elapsed": 379414, "key_press": -1, "trial_index": 10}, "uniqueid": "MTK2404:36U2A8VAG263QPO1LZKV77TYX64YK1", "dateTime": 1517074905889}, {"current_trial": 11, "trialdata": {"rt": -1, "trial_type": "single-stim", "stimulus": "<p id=\"stim\">9</p>", "internal_node_id": "0.0-10.0-1.0", "time_elapsed": 380416, "key_press": -1, "trial_index": 11}, "uniqueid": "MTK2404:36U2A8VAG263QPO1LZKV77TYX64YK1", "dateTime": 1517074906892}, {"current_trial": 12, "trialdata": {"rt": -1, "trial_type": "single-stim", "stimulus": "<p id=\"stim\">8</p>", "internal_node_id": "0.0-10.0-2.0", "time_elapsed": 381422, "key_press": -1, "trial_index": 12}, "uniqueid": "MTK2404:36U2A8VAG263QPO1LZKV77TYX64YK1", "dateTime": 1517074907897}, {"current_trial": 13, "trialdata": {"rt": -1, "trial_type": "single-stim", "stimulus": "<p id=\"stim\">7</p>", "internal_node_id": "0.0-10.0-3.0", "time_elapsed": 382426, "key_press": -1, "trial_index": 13}, "uniqueid": "MTK2404:36U2A8VAG263QPO1LZKV77TYX64YK1", "dateTime": 1517074908901}, {"current_trial": 14, "trialdata": {"rt": -1, "trial_type": "single-stim", "stimulus": "<p id=\"stim\">6</p>", "internal_node_id": "0.0-10.0-4.0", "time_elapsed": 383431, "key_press": -1, "trial_index": 14}, "uniqueid": "MTK2404:36U2A8VAG263QPO1LZKV77TYX64YK1", "dateTime": 1517074909906}, {"current_trial": 15, "trialdata": {"rt": -1, "trial_type": "single-stim", "stimulus": "<p id=\"stim\">5</p>", "internal_node_id": "0.0-10.0-5.0", "time_elapsed": 384438, "key_press": -1, "trial_index": 15}, "uniqueid": "MTK2404:36U2A8VAG263QPO1LZKV77TYX64YK1", "dateTime": 1517074910913}, {"current_trial": 16, "trialdata": {"rt": -1, "trial_type": "single-stim", "stimulus": "<p id=\"stim\">4</p>", "internal_node_id": "0.0-10.0-6.0", "time_elapsed": 385443, "key_press": -1, "trial_index": 16}, "uniqueid": "MTK2404:36U2A8VAG263QPO1LZKV77TYX64YK1", "dateTime": 1517074911918}, {"current_trial": 17, "trialdata": {"rt": -1, "trial_type": "single-stim", "stimulus": "<p id=\"stim\">3</p>", "internal_node_id": "0.0-10.0-7.0", "time_elapsed": 386447, "key_press": -1, "trial_index": 17}, "uniqueid": "MTK2404:36U2A8VAG263QPO1LZKV77TYX64YK1", "dateTime": 1517074912922}, {"current_trial": 18, "trialdata": {"rt": -1, "trial_type": "single-stim", "stimulus": "<p id=\"stim\">2</p>", "internal_node_id": "0.0-10.0-8.0", "time_elapsed": 387453, "key_press": -1, "trial_index": 18}, "uniqueid": "MTK2404:36U2A8VAG263QPO1LZKV77TYX64YK1", "dateTime": 1517074913928}, {"current_trial": 19, "trialdata": {"rt": -1, "trial_type": "single-stim", "stimulus": "<p id=\"stim\">1</p>", "internal_node_id": "0.0-10.0-9.0", "time_elapsed": 388455, "key_press": -1, "trial_index": 19}, "uniqueid": "MTK2404:36U2A8VAG263QPO1LZKV77TYX64YK1", "dateTime": 1517074914930}, {"current_trial": 20, "trialdata": {"rt": -1, "trial_type": "single-stim", "stimulus": "<p id=\"stim\">+</p>", "internal_node_id": "0.0-11.0-0.0", "time_elapsed": 389959, "key_press": -1, "type": "FIXATION", "trial_index": 20}, "uniqueid": "MTK2404:36U2A8VAG263QPO1LZKV77TYX64YK1", "dateTime": 1517074916435}, {"current_trial": 21, "trialdata": {"rt": -1000, "trial_type": "single-audio", "word": "lodge", "stimulus": "/static/audio/wordpool/LODGE.wav", "conditions": [18, 1200, "a", 18000], "internal_node_id": "0.0-12.0", "trial": 0, "time_elapsed": 392162, "serialpos": 0, "key_press": -1, "wordID": 838, "type": "PRES_AUD", "trial_index": 21}, "uniqueid": "MTK2404:36U2A8VAG263QPO1LZKV77TYX64YK1", "dateTime": 1517074918638}, {"current_trial": 22, "trialdata": {"rt": -1000, "trial_type": "single-audio", "word": "fox", "stimulus": "/static/audio/wordpool/FOX.wav", "conditions": [18, 1200, "a", 18000], "internal_node_id": "0.0-13.0", "trial": 0, "time_elapsed": 394270, "serialpos": 1, "key_press": -1, "wordID": 597, "type": "PRES_AUD", "trial_index": 22}, "uniqueid": "MTK2404:36U2A8VAG263QPO1LZKV77TYX64YK1", "dateTime": 1517074920745}, {"current_trial": 23, "trialdata": {"rt": -1000, "trial_type": "single-audio", "word": "message", "stimulus": "/static/audio/wordpool/MESSAGE.wav", "conditions": [18, 1200, "a", 18000], "internal_node_id": "0.0-14.0", "trial": 0, "time_elapsed": 396589, "serialpos": 2, "key_press": -1, "wordID": 887, "type": "PRES_AUD", "trial_index": 23}, "uniqueid": "MTK2404:36U2A8VAG263QPO1LZKV77TYX64YK1", "dateTime": 1517074923065}, {"current_trial": 24, "trialdata": {"rt": -1000, "trial_type": "single-audio", "word": "paddle", "stimulus": "/static/audio/wordpool/PADDLE.wav", "conditions": [18, 1200, "a", 18000], "internal_node_id": "0.0-15.0", "trial": 0, "time_elapsed": 398603, "serialpos": 3, "key_press": -1, "wordID": 999, "type": "PRES_AUD", "trial_index": 24}, "uniqueid": "MTK2404:36U2A8VAG263QPO1LZKV77TYX64YK1", "dateTime": 1517074925079}, {"current_trial": 25, "trialdata": {"rt": -60.000000000002274, "trial_type": "single-audio", "word": "neutron", "stimulus": "/static/audio/wordpool/NEUTRON.wav", "conditions": [18, 1200, "a", 18000], "internal_node_id": "0.0-16.0", "trial": 0, "time_elapsed": 400647, "serialpos": 4, "key_press": 175, "wordID": 946, "type": "PRES_AUD", "trial_index": 25}, "uniqueid": "MTK2404:36U2A8VAG263QPO1LZKV77TYX64YK1", "dateTime": 1517074927123}, {"current_trial": 26, "trialdata": {"rt": -1000, "trial_type": "single-audio", "word": "beast", "stimulus": "/static/audio/wordpool/BEAST.wav", "conditions": [18, 1200, "a", 18000], "internal_node_id": "0.0-17.0", "trial": 0, "time_elapsed": 402907, "serialpos": 5, "key_press": -1, "wordID": 107, "type": "PRES_AUD", "trial_index": 26}, "uniqueid": "MTK2404:36U2A8VAG263QPO1LZKV77TYX64YK1", "dateTime": 1517074929382}, {"current_trial": 27, "trialdata": {"rt": -1000, "trial_type": "single-audio", "word": "friend", "stimulus": "/static/audio/wordpool/FRIEND.wav", "conditions": [18, 1200, "a", 18000], "internal_node_id": "0.0-18.0", "trial": 0, "time_elapsed": 405073, "serialpos": 6, "key_press": -1, "wordID": 605, "type": "PRES_AUD", "trial_index": 27}, "uniqueid": "MTK2404:36U2A8VAG263QPO1LZKV77TYX64YK1", "dateTime": 1517074931548}, {"current_trial": 28, "trialdata": {"rt": -1000, "trial_type": "single-audio", "word": "crayon", "stimulus": "/static/audio/wordpool/CRAYON.wav", "conditions": [18, 1200, "a", 18000], "internal_node_id": "0.0-19.0", "trial": 0, "time_elapsed": 407269, "serialpos": 7, "key_press": -1, "wordID": 400, "type": "PRES_AUD", "trial_index": 28}, "uniqueid": "MTK2404:36U2A8VAG263QPO1LZKV77TYX64YK1", "dateTime": 1517074933745}, {"current_trial": 29, "trialdata": {"rt": -1000, "trial_type": "single-audio", "word": "apple", "stimulus": "/static/audio/wordpool/APPLE.wav", "conditions": [18, 1200, "a", 18000], "internal_node_id": "0.0-20.0", "trial": 0, "time_elapsed": 409667, "serialpos": 8, "key_press": -1, "wordID": 32, "type": "PRES_AUD", "trial_index": 29}, "uniqueid": "MTK2404:36U2A8VAG263QPO1LZKV77TYX64YK1", "dateTime": 1517074936143}, {"current_trial": 30, "trialdata": {"rt": -1000, "trial_type": "single-audio", "word": "blueprint", "stimulus": "/static/audio/wordpool/BLUEPRINT.wav", "conditions": [18, 1200, "a", 18000], "internal_node_id": "0.0-21.0", "trial": 0, "time_elapsed": 412058, "serialpos": 9, "key_press": -1, "wordID": 141, "type": "PRES_AUD", "trial_index": 30}, "uniqueid": "MTK2404:36U2A8VAG263QPO1LZKV77TYX64YK1", "dateTime": 1517074938533}, {"current_trial": 31, "trialdata": {"rt": -1000, "trial_type": "single-audio", "word": "mummy", "stimulus": "/static/audio/wordpool/MUMMY.wav", "conditions": [18, 1200, "a", 18000], "internal_node_id": "0.0-22.0", "trial": 0, "time_elapsed": 414187, "serialpos": 10, "key_press": -1, "wordID": 931, "type": "PRES_AUD", "trial_index": 31}, "uniqueid": "MTK2404:36U2A8VAG263QPO1LZKV77TYX64YK1", "dateTime": 1517074940662}, {"current_trial": 32, "trialdata": {"rt": -1000, "trial_type": "single-audio", "word": "monster", "stimulus": "/static/audio/wordpool/MONSTER.wav", "conditions": [18, 1200, "a", 18000], "internal_node_id": "0.0-23.0", "trial": 0, "time_elapsed": 416586, "serialpos": 11, "key_press": -1, "wordID": 911, "type": "PRES_AUD", "trial_index": 32}, "uniqueid": "MTK2404:36U2A8VAG263QPO1LZKV77TYX64YK1", "dateTime": 1517074943062}, {"current_trial": 33, "trialdata": {"rt": -1000, "trial_type": "single-audio", "word": "shortcake", "stimulus": "/static/audio/wordpool/SHORTCAKE.wav", "conditions": [18, 1200, "a", 18000], "internal_node_id": "0.0-24.0", "trial": 0, "time_elapsed": 418758, "serialpos": 12, "key_press": -1, "wordID": 1291, "type": "PRES_AUD", "trial_index": 33}, "uniqueid": "MTK2404:36U2A8VAG263QPO1LZKV77TYX64YK1", "dateTime": 1517074945234}, {"current_trial": 34, "trialdata": {"rt": -1000, "trial_type": "single-audio", "word": "pliers", "stimulus": "/static/audio/wordpool/PLIERS.wav", "conditions": [18, 1200, "a", 18000], "internal_node_id": "0.0-25.0", "trial": 0, "time_elapsed": 420813, "serialpos": 13, "key_press": -1, "wordID": 1088, "type": "PRES_AUD", "trial_index": 34}, "uniqueid": "MTK2404:36U2A8VAG263QPO1LZKV77TYX64YK1", "dateTime": 1517074947288}, {"current_trial": 35, "trialdata": {"rt": -1000, "trial_type": "single-audio", "word": "boyfriend", "stimulus": "/static/audio/wordpool/BOYFRIEND.wav", "conditions": [18, 1200, "a", 18000], "internal_node_id": "0.0-26.0", "trial": 0, "time_elapsed": 422845, "serialpos": 14, "key_press": -1, "wordID": 161, "type": "PRES_AUD", "trial_index": 35}, "uniqueid": "MTK2404:36U2A8VAG263QPO1LZKV77TYX64YK1", "dateTime": 1517074949321}, {"current_trial": 36, "trialdata": {"rt": -1000, "trial_type": "single-audio", "word": "badge", "stimulus": "/static/audio/wordpool/BADGE.wav", "conditions": [18, 1200, "a", 18000], "internal_node_id": "0.0-27.0", "trial": 0, "time_elapsed": 424957, "serialpos": 15, "key_press": -1, "wordID": 67, "type": "PRES_AUD", "trial_index": 36}, "uniqueid": "MTK2404:36U2A8VAG263QPO1LZKV77TYX64YK1", "dateTime": 1517074951432}, {"current_trial": 37, "trialdata": {"rt": -1000, "trial_type": "single-audio", "word": "hornet", "stimulus": "/static/audio/wordpool/HORNET.wav", "conditions": [18, 1200, "a", 18000], "internal_node_id": "0.0-28.0", "trial": 0, "time_elapsed": 427077, "serialpos": 16, "key_press": -1, "wordID": 717, "type": "PRES_AUD", "trial_index": 37}, "uniqueid": "MTK2404:36U2A8VAG263QPO1LZKV77TYX64YK1", "dateTime": 1517074953553}, {"current_trial": 38, "trialdata": {"rt": -1000, "trial_type": "single-audio", "word": "forest", "stimulus": "/static/audio/wordpool/FOREST.wav", "conditions": [18, 1200, "a", 18000], "internal_node_id": "0.0-29.0", "trial": 0, "time_elapsed": 429118, "serialpos": 17, "key_press": -1, "wordID": 592, "type": "PRES_AUD", "trial_index": 38}, "uniqueid": "MTK2404:36U2A8VAG263QPO1LZKV77TYX64YK1", "dateTime": 1517074955594}, {"current_trial": 39, "trialdata": {"rt": -1, "trial_type": "single-stim", "stimulus": "", "internal_node_id": "0.0-30.0-0.0", "time_elapsed": 430429, "key_press": -1, "type": "PRE_RECALL_DELAY", "trial_index": 39}, "uniqueid": "MTK2404:36U2A8VAG263QPO1LZKV77TYX64YK1", "dateTime": 1517074956905}, {"current_trial": 40, "trialdata": {"rt": -1000, "trial_type": "single-audio", "stimulus": "/static/audio/400Hz.wav", "internal_node_id": "0.0-31.0", "time_elapsed": 430932, "key_press": -1, "type": "PRE_RECALL_ALERT", "trial_index": 40}, "uniqueid": "MTK2404:36U2A8VAG263QPO1LZKV77TYX64YK1", "dateTime": 1517074957407}, {"current_trial": 41, "trialdata": {"rt": [6470, 9268, 11630, 14617, 17653, 20116, 23353, 25901, 30914, 34857, 45079, 46375], "recwords": ["apple", "message", "beast", "friend", "netural", "badge", "forest", "monster", "mummy", "crayon", "short", "cake"], "key_times": [3686, 3893, 4027, 5249, 5396, 6470, 7527, 7773, 7992, 8125, 8295, 8485, 8593, 9268, 10139, 10274, 10512, 10712, 10880, 11630, 12334, 12531, 12797, 12922, 13292, 13509, 14617, 15109, 15288, 15531, 16186, 16342, 16769, 16998, 17653, 18582, 18720, 18974, 19191, 19265, 20116, 20737, 20999, 21807, 22043, 22242, 22670, 23353, 23894, 24090, 24232, 24602, 24790, 24942, 25098, 25901, 28938, 29241, 29572, 29704, 29974, 30914, 31974, 32498, 32835, 33066, 33415, 33864, 34857, 41958, 42638, 42969, 43210, 43969, 44189, 44469, 45079, 45421, 45605, 45858, 46005, 46375], "trial_type": "free-recall", "conditions": [18, 1200, "a", 18000], "internal_node_id": "0.0-32.0-0.0", "key_presses": [65, 80, 80, 76, 69, 13, 77, 69, 83, 83, 65, 71, 69, 13, 66, 69, 65, 83, 84, 13, 70, 82, 73, 69, 78, 68, 13, 78, 69, 84, 85, 82, 65, 76, 13, 66, 65, 68, 71, 69, 13, 70, 79, 82, 69, 83, 84, 13, 77, 79, 78, 83, 84, 69, 82, 13, 77, 85, 77, 77, 89, 13, 67, 82, 65, 89, 79, 78, 13, 83, 72, 79, 69, 8, 82, 84, 32, 67, 65, 75, 69, 13], "trial": 0, "time_elapsed": 490941, "type": "FREE_RECALL", "trial_index": 41}, "uniqueid": "MTK2404:36U2A8VAG263QPO1LZKV77TYX64YK1", "dateTime": 1517075017421}, {"current_trial": 42, "trialdata": {"rt": 3026, "trial_type": "text", "internal_node_id": "0.0-33.0", "time_elapsed": 495975, "key_press": 75, "type": "INSTRUCTIONS", "trial_index": 42}, "uniqueid": "MTK2404:36U2A8VAG263QPO1LZKV77TYX64YK1", "dateTime": 1517075022450}, {"current_trial": 43, "trialdata": {"rt": [4795, 10102, 15124, 17925], "trial_type": "math-distractor", "key_times": [3365, 4428, 4795, 9626, 9824, 10102, 13736, 14531, 15124, 17248, 17437, 17925], "responses": ["11", "21", "16", "12"], "num2": [4, 7, 3, 8, 3], "num3": [1, 9, 6, 3, 5], "conditions": [18, 1200, "a", 18000], "internal_node_id": "0.0-34.0", "key_presses": [49, 49, 13, 50, 49, 13, 49, 54, 13, 49, 50, 13], "trial": 1, "time_elapsed": 515986, "type": "DISTRACTOR", "trial_index": 43, "num1": [6, 5, 7, 1, 3]}, "uniqueid": "MTK2404:36U2A8VAG263QPO1LZKV77TYX64YK1", "dateTime": 1517075042461}, {"current_trial": 44, "trialdata": {"rt": -1, "trial_type": "single-stim", "stimulus": "<p id=\"stim\">10</p>", "internal_node_id": "0.0-35.0-0.0", "time_elapsed": 518991, "key_press": -1, "trial_index": 44}, "uniqueid": "MTK2404:36U2A8VAG263QPO1LZKV77TYX64YK1", "dateTime": 1517075045467}, {"current_trial": 45, "trialdata": {"rt": -1, "trial_type": "single-stim", "stimulus": "<p id=\"stim\">9</p>", "internal_node_id": "0.0-35.0-1.0", "time_elapsed": 519998, "key_press": -1, "trial_index": 45}, "uniqueid": "MTK2404:36U2A8VAG263QPO1LZKV77TYX64YK1", "dateTime": 1517075046474}, {"current_trial": 46, "trialdata": {"rt": -1, "trial_type": "single-stim", "stimulus": "<p id=\"stim\">8</p>", "internal_node_id": "0.0-35.0-2.0", "time_elapsed": 521006, "key_press": -1, "trial_index": 46}, "uniqueid": "MTK2404:36U2A8VAG263QPO1LZKV77TYX64YK1", "dateTime": 1517075047481}, {"current_trial": 47, "trialdata": {"rt": 922, "trial_type": "single-stim", "stimulus": "<p id=\"stim\">7</p>", "internal_node_id": "0.0-35.0-3.0", "time_elapsed": 522013, "key_press": 175, "trial_index": 47}, "uniqueid": "MTK2404:36U2A8VAG263QPO1LZKV77TYX64YK1", "dateTime": 1517075048488}, {"current_trial": 48, "trialdata": {"rt": -1, "trial_type": "single-stim", "stimulus": "<p id=\"stim\">6</p>", "internal_node_id": "0.0-35.0-4.0", "time_elapsed": 523017, "key_press": -1, "trial_index": 48}, "uniqueid": "MTK2404:36U2A8VAG263QPO1LZKV77TYX64YK1", "dateTime": 1517075049493}, {"current_trial": 49, "trialdata": {"rt": -1, "trial_type": "single-stim", "stimulus": "<p id=\"stim\">5</p>", "internal_node_id": "0.0-35.0-5.0", "time_elapsed": 524025, "key_press": -1, "trial_index": 49}, "uniqueid": "MTK2404:36U2A8VAG263QPO1LZKV77TYX64YK1", "dateTime": 1517075050501}, {"current_trial": 50, "trialdata": {"rt": -1, "trial_type": "single-stim", "stimulus": "<p id=\"stim\">4</p>", "internal_node_id": "0.0-35.0-6.0", "time_elapsed": 525032, "key_press": -1, "trial_index": 50}, "uniqueid": "MTK2404:36U2A8VAG263QPO1LZKV77TYX64YK1", "dateTime": 1517075051507}, {"current_trial": 51, "trialdata": {"rt": -1, "trial_type": "single-stim", "stimulus": "<p id=\"stim\">3</p>", "internal_node_id": "0.0-35.0-7.0", "time_elapsed": 526037, "key_press": -1, "trial_index": 51}, "uniqueid": "MTK2404:36U2A8VAG263QPO1LZKV77TYX64YK1", "dateTime": 1517075052513}, {"current_trial": 52, "trialdata": {"rt": -1, "trial_type": "single-stim", "stimulus": "<p id=\"stim\">2</p>", "internal_node_id": "0.0-35.0-8.0", "time_elapsed": 527045, "key_press": -1, "trial_index": 52}, "uniqueid": "MTK2404:36U2A8VAG263QPO1LZKV77TYX64YK1", "dateTime": 1517075053521}, {"current_trial": 53, "trialdata": {"rt": -1, "trial_type": "single-stim", "stimulus": "<p id=\"stim\">1</p>", "internal_node_id": "0.0-35.0-9.0", "time_elapsed": 528052, "key_press": -1, "trial_index": 53}, "uniqueid": "MTK2404:36U2A8VAG263QPO1LZKV77TYX64YK1", "dateTime": 1517075054528}, {"current_trial": 54, "trialdata": {"rt": -1, "trial_type": "single-stim", "stimulus": "<p id=\"stim\">+</p>", "internal_node_id": "0.0-36.0-0.0", "time_elapsed": 529556, "key_press": -1, "type": "FIXATION", "trial_index": 54}, "uniqueid": "MTK2404:36U2A8VAG263QPO1LZKV77TYX64YK1", "dateTime": 1517075056032}, {"current_trial": 55, "trialdata": {"rt": -1000, "trial_type": "single-audio", "word": "freckle", "stimulus": "/static/audio/wordpool/FRECKLE.wav", "conditions": [18, 1200, "a", 18000], "internal_node_id": "0.0-37.0", "trial": 1, "time_elapsed": 531693, "serialpos": 0, "key_press": -1, "wordID": 601, "type": "PRES_AUD", "trial_index": 55}, "uniqueid": "MTK2404:36U2A8VAG263QPO1LZKV77TYX64YK1", "dateTime": 1517075058168}, {"current_trial": 56, "trialdata": {"rt": -1000, "trial_type": "single-audio", "word": "mustard", "stimulus": "/static/audio/wordpool/MUSTARD.wav", "conditions": [18, 1200, "a", 18000], "internal_node_id": "0.0-38.0", "trial": 1, "time_elapsed": 533938, "serialpos": 1, "key_press": -1, "wordID": 934, "type": "PRES_AUD", "trial_index": 56}, "uniqueid": "MTK2404:36U2A8VAG263QPO1LZKV77TYX64YK1", "dateTime": 1517075060414}, {"current_trial": 57, "trialdata": {"rt": -1000, "trial_type": "single-audio", "word": "belly", "stimulus": "/static/audio/wordpool/BELLY.wav", "conditions": [18, 1200, "a", 18000], "internal_node_id": "0.0-39.0", "trial": 1, "time_elapsed": 536267, "serialpos": 2, "key_press": -1, "wordID": 118, "type": "PRES_AUD", "trial_index": 57}, "uniqueid": "MTK2404:36U2A8VAG263QPO1LZKV77TYX64YK1", "dateTime": 1517075062743}, {"current_trial": 58, "trialdata": {"rt": -1000, "trial_type": "single-audio", "word": "yarn", "stimulus": "/static/audio/wordpool/YARN.wav", "conditions": [18, 1200, "a", 18000], "internal_node_id": "0.0-40.0", "trial": 1, "time_elapsed": 538441, "serialpos": 3, "key_press": -1, "wordID": 1630, "type": "PRES_AUD", "trial_index": 58}, "uniqueid": "MTK2404:36U2A8VAG263QPO1LZKV77TYX64YK1", "dateTime": 1517075064916}, {"current_trial": 59, "trialdata": {"rt": -1000, "trial_type": "single-audio", "word": "robot", "stimulus": "/static/audio/wordpool/ROBOT.wav", "conditions": [18, 1200, "a", 18000], "internal_node_id": "0.0-41.0", "trial": 1, "time_elapsed": 540773, "serialpos": 4, "key_press": -1, "wordID": 1199, "type": "PRES_AUD", "trial_index": 59}, "uniqueid": "MTK2404:36U2A8VAG263QPO1LZKV77TYX64YK1", "dateTime": 1517075067249}, {"current_trial": 60, "trialdata": {"rt": -1000, "trial_type": "single-audio", "word": "eyelash", "stimulus": "/static/audio/wordpool/EYELASH.wav", "conditions": [18, 1200, "a", 18000], "internal_node_id": "0.0-42.0", "trial": 1, "time_elapsed": 542953, "serialpos": 5, "key_press": -1, "wordID": 545, "type": "PRES_AUD", "trial_index": 60}, "uniqueid": "MTK2404:36U2A8VAG263QPO1LZKV77TYX64YK1", "dateTime": 1517075069429}, {"current_trial": 61, "trialdata": {"rt": -1000, "trial_type": "single-audio", "word": "airport", "stimulus": "/static/audio/wordpool/AIRPORT.wav", "conditions": [18, 1200, "a", 18000], "internal_node_id": "0.0-43.0", "trial": 1, "time_elapsed": 544976, "serialpos": 6, "key_press": -1, "wordID": 12, "type": "PRES_AUD", "trial_index": 61}, "uniqueid": "MTK2404:36U2A8VAG263QPO1LZKV77TYX64YK1", "dateTime": 1517075071452}, {"current_trial": 62, "trialdata": {"rt": -1000, "trial_type": "single-audio", "word": "popcorn", "stimulus": "/static/audio/wordpool/POPCORN.wav", "conditions": [18, 1200, "a", 18000], "internal_node_id": "0.0-44.0", "trial": 1, "time_elapsed": 547180, "serialpos": 7, "key_press": -1, "wordID": 1103, "type": "PRES_AUD", "trial_index": 62}, "uniqueid": "MTK2404:36U2A8VAG263QPO1LZKV77TYX64YK1", "dateTime": 1517075073656}, {"current_trial": 63, "trialdata": {"rt": -1000, "trial_type": "single-audio", "word": "lion", "stimulus": "/static/audio/wordpool/LION.wav", "conditions": [18, 1200, "a", 18000], "internal_node_id": "0.0-45.0", "trial": 1, "time_elapsed": 549240, "serialpos": 8, "key_press": -1, "wordID": 826, "type": "PRES_AUD", "trial_index": 63}, "uniqueid": "MTK2404:36U2A8VAG263QPO1LZKV77TYX64YK1", "dateTime": 1517075075716}, {"current_trial": 64, "trialdata": {"rt": -1000, "trial_type": "single-audio", "word": "carriage", "stimulus": "/static/audio/wordpool/CARRIAGE.wav", "conditions": [18, 1200, "a", 18000], "internal_node_id": "0.0-46.0", "trial": 1, "time_elapsed": 551593, "serialpos": 9, "key_press": -1, "wordID": 247, "type": "PRES_AUD", "trial_index": 64}, "uniqueid": "MTK2404:36U2A8VAG263QPO1LZKV77TYX64YK1", "dateTime": 1517075078068}, {"current_trial": 65, "trialdata": {"rt": -1000, "trial_type": "single-audio", "word": "lava", "stimulus": "/static/audio/wordpool/LAVA.wav", "conditions": [18, 1200, "a", 18000], "internal_node_id": "0.0-47.0", "trial": 1, "time_elapsed": 553913, "serialpos": 10, "key_press": -1, "wordID": 803, "type": "PRES_AUD", "trial_index": 65}, "uniqueid": "MTK2404:36U2A8VAG263QPO1LZKV77TYX64YK1", "dateTime": 1517075080389}, {"current_trial": 66, "trialdata": {"rt": -1000, "trial_type": "single-audio", "word": "hook", "stimulus": "/static/audio/wordpool/HOOK.wav", "conditions": [18, 1200, "a", 18000], "internal_node_id": "0.0-48.0", "trial": 1, "time_elapsed": 556062, "serialpos": 11, "key_press": -1, "wordID": 714, "type": "PRES_AUD", "trial_index": 66}, "uniqueid": "MTK2404:36U2A8VAG263QPO1LZKV77TYX64YK1", "dateTime": 1517075082538}, {"current_trial": 67, "trialdata": {"rt": -1000, "trial_type": "single-audio", "word": "queen", "stimulus": "/static/audio/wordpool/QUEEN.wav", "conditions": [18, 1200, "a", 18000], "internal_node_id": "0.0-49.0", "trial": 1, "time_elapsed": 558441, "serialpos": 12, "key_press": -1, "wordID": 1148, "type": "PRES_AUD", "trial_index": 67}, "uniqueid": "MTK2404:36U2A8VAG263QPO1LZKV77TYX64YK1", "dateTime": 1517075084916}, {"current_trial": 68, "trialdata": {"rt": -1000, "trial_type": "single-audio", "word": "racket", "stimulus": "/static/audio/wordpool/RACKET.wav", "conditions": [18, 1200, "a", 18000], "internal_node_id": "0.0-50.0", "trial": 1, "time_elapsed": 560839, "serialpos": 13, "key_press": -1, "wordID": 1154, "type": "PRES_AUD", "trial_index": 68}, "uniqueid": "MTK2404:36U2A8VAG263QPO1LZKV77TYX64YK1", "dateTime": 1517075087329}, {"current_trial": 69, "trialdata": {"rt": -1000, "trial_type": "single-audio", "word": "flute", "stimulus": "/static/audio/wordpool/FLUTE.wav", "conditions": [18, 1200, "a", 18000], "internal_node_id": "0.0-51.0", "trial": 1, "time_elapsed": 563021, "serialpos": 14, "key_press": -1, "wordID": 584, "type": "PRES_AUD", "trial_index": 69}, "uniqueid": "MTK2404:36U2A8VAG263QPO1LZKV77TYX64YK1", "dateTime": 1517075089496}, {"current_trial": 70, "trialdata": {"rt": -1000, "trial_type": "single-audio", "word": "denim", "stimulus": "/static/audio/wordpool/DENIM.wav", "conditions": [18, 1200, "a", 18000], "internal_node_id": "0.0-52.0", "trial": 1, "time_elapsed": 565342, "serialpos": 15, "key_press": -1, "wordID": 445, "type": "PRES_AUD", "trial_index": 70}, "uniqueid": "MTK2404:36U2A8VAG263QPO1LZKV77TYX64YK1", "dateTime": 1517075091817}, {"current_trial": 71, "trialdata": {"rt": -1000, "trial_type": "single-audio", "word": "item", "stimulus": "/static/audio/wordpool/ITEM.wav", "conditions": [18, 1200, "a", 18000], "internal_node_id": "0.0-53.0", "trial": 1, "time_elapsed": 567427, "serialpos": 16, "key_press": -1, "wordID": 745, "type": "PRES_AUD", "trial_index": 71}, "uniqueid": "MTK2404:36U2A8VAG263QPO1LZKV77TYX64YK1", "dateTime": 1517075093902}, {"current_trial": 72, "trialdata": {"rt": -1000, "trial_type": "single-audio", "word": "muffin", "stimulus": "/static/audio/wordpool/MUFFIN.wav", "conditions": [18, 1200, "a", 18000], "internal_node_id": "0.0-54.0", "trial": 1, "time_elapsed": 569628, "serialpos": 17, "key_press": -1, "wordID": 928, "type": "PRES_AUD", "trial_index": 72}, "uniqueid": "MTK2404:36U2A8VAG263QPO1LZKV77TYX64YK1", "dateTime": 1517075096103}, {"current_trial": 73, "trialdata": {"rt": -1, "trial_type": "single-stim", "stimulus": "", "internal_node_id": "0.0-55.0-0.0", "time_elapsed": 570936, "key_press": -1, "type": "PRE_RECALL_DELAY", "trial_index": 73}, "uniqueid": "MTK2404:36U2A8VAG263QPO1LZKV77TYX64YK1", "dateTime": 1517075097411}, {"current_trial": 74, "trialdata": {"rt": -1000, "trial_type": "single-audio", "stimulus": "/static/audio/400Hz.wav", "internal_node_id": "0.0-56.0", "time_elapsed": 571439, "key_press": -1, "type": "PRE_RECALL_ALERT", "trial_index": 74}, "uniqueid": "MTK2404:36U2A8VAG263QPO1LZKV77TYX64YK1", "dateTime": 1517075097916}, {"current_trial": 75, "trialdata": {"rt": [3897, 7152, 8854, 12091, 17238, 19643, 21983, 26306, 31400, 35576, 38047, 42081, 46983, 58749], "recwords": ["muffin", "flute", "clean", "lava", "mustard", "belly", "yarn", "robot", "eyelash", "popcorn", "lion", "airport", "cariage", "flute"], "key_times": [1838, 2107, 2445, 2597, 2745, 3034, 3897, 4883, 5050, 5628, 5953, 6231, 7152, 7749, 7930, 8137, 8386, 8637, 8854, 9849, 10028, 10437, 10598, 12091, 14365, 14646, 14877, 15089, 15206, 15592, 15829, 17238, 18145, 18344, 18608, 18754, 18981, 19643, 20398, 20575, 20828, 21376, 21983, 23431, 23598, 24390, 24841, 25027, 26306, 28799, 28986, 29111, 29808, 29986, 30228, 30644, 31400, 32584, 32768, 32949, 33278, 33530, 33779, 34881, 35576, 36258, 36466, 36625, 37328, 38047, 39490, 40174, 40363, 40691, 40874, 41111, 41304, 42081, 45024, 45168, 45378, 45851, 46092, 46307, 46458, 46983, 56086, 56276, 57485, 57832, 57946, 58749], "trial_type": "free-recall", "conditions": [18, 1200, "a", 18000], "internal_node_id": "0.0-57.0-0.0", "key_presses": [77, 85, 70, 70, 73, 78, 32, 70, 76, 85, 84, 69, 32, 67, 76, 69, 65, 78, 32, 76, 65, 86, 65, 13, 77, 85, 83, 84, 65, 82, 68, 13, 66, 69, 76, 76, 89, 13, 89, 65, 82, 78, 13, 82, 79, 66, 79, 84, 13, 69, 89, 69, 76, 65, 83, 72, 13, 80, 79, 80, 67, 79, 82, 78, 13, 76, 73, 79, 78, 13, 65, 73, 82, 80, 79, 82, 84, 13, 67, 65, 82, 73, 65, 71, 69, 13, 70, 76, 85, 84, 69, 13], "trial": 1, "time_elapsed": 631445, "type": "FREE_RECALL", "trial_index": 75}, "uniqueid": "MTK2404:36U2A8VAG263QPO1LZKV77TYX64YK1", "dateTime": 1517075157923}, {"current_trial": 76, "trialdata": {"rt": 17909, "trial_type": "text", "internal_node_id": "0.0-58.0", "time_elapsed": 651362, "key_press": 71, "type": "INSTRUCTIONS", "trial_index": 76}, "uniqueid": "MTK2404:36U2A8VAG263QPO1LZKV77TYX64YK1", "dateTime": 1517075177838}, {"current_trial": 77, "trialdata": {"rt": [3336, 8444, 11598], "trial_type": "math-distractor", "key_times": [2447, 2709, 3336, 7702, 7951, 8444, 10849, 10966, 11598], "responses": ["13", "17", "10"], "num2": [1, 4, 6, 2], "num3": [4, 7, 3, 8], "conditions": [24, 800, "a", 12000], "internal_node_id": "0.0-59.0", "key_presses": [49, 51, 13, 49, 55, 13, 49, 48, 13], "trial": 2, "time_elapsed": 664369, "type": "DISTRACTOR", "trial_index": 77, "num1": [8, 6, 1, 9]}, "uniqueid": "MTK2404:36U2A8VAG263QPO1LZKV77TYX64YK1", "dateTime": 1517075190844}, {"current_trial": 78, "trialdata": {"rt": -1, "trial_type": "single-stim", "stimulus": "<p id=\"stim\">10</p>", "internal_node_id": "0.0-60.0-0.0", "time_elapsed": 667377, "key_press": -1, "trial_index": 78}, "uniqueid": "MTK2404:36U2A8VAG263QPO1LZKV77TYX64YK1", "dateTime": 1517075193857}, {"current_trial": 79, "trialdata": {"rt": -1, "trial_type": "single-stim", "stimulus": "<p id=\"stim\">9</p>", "internal_node_id": "0.0-60.0-1.0", "time_elapsed": 668387, "key_press": -1, "trial_index": 79}, "uniqueid": "MTK2404:36U2A8VAG263QPO1LZKV77TYX64YK1", "dateTime": 1517075194863}, {"current_trial": 80, "trialdata": {"rt": -1, "trial_type": "single-stim", "stimulus": "<p id=\"stim\">8</p>", "internal_node_id": "0.0-60.0-2.0", "time_elapsed": 669393, "key_press": -1, "trial_index": 80}, "uniqueid": "MTK2404:36U2A8VAG263QPO1LZKV77TYX64YK1", "dateTime": 1517075195869}, {"current_trial": 81, "trialdata": {"rt": -1, "trial_type": "single-stim", "stimulus": "<p id=\"stim\">7</p>", "internal_node_id": "0.0-60.0-3.0", "time_elapsed": 670397, "key_press": -1, "trial_index": 81}, "uniqueid": "MTK2404:36U2A8VAG263QPO1LZKV77TYX64YK1", "dateTime": 1517075196872}, {"current_trial": 82, "trialdata": {"rt": -1, "trial_type": "single-stim", "stimulus": "<p id=\"stim\">6</p>", "internal_node_id": "0.0-60.0-4.0", "time_elapsed": 671409, "key_press": -1, "trial_index": 82}, "uniqueid": "MTK2404:36U2A8VAG263QPO1LZKV77TYX64YK1", "dateTime": 1517075197884}, {"current_trial": 83, "trialdata": {"rt": -1, "trial_type": "single-stim", "stimulus": "<p id=\"stim\">5</p>", "internal_node_id": "0.0-60.0-5.0", "time_elapsed": 672413, "key_press": -1, "trial_index": 83}, "uniqueid": "MTK2404:36U2A8VAG263QPO1LZKV77TYX64YK1", "dateTime": 1517075198888}, {"current_trial": 84, "trialdata": {"rt": -1, "trial_type": "single-stim", "stimulus": "<p id=\"stim\">4</p>", "internal_node_id": "0.0-60.0-6.0", "time_elapsed": 673419, "key_press": -1, "trial_index": 84}, "uniqueid": "MTK2404:36U2A8VAG263QPO1LZKV77TYX64YK1", "dateTime": 1517075199894}, {"current_trial": 85, "trialdata": {"rt": -1, "trial_type": "single-stim", "stimulus": "<p id=\"stim\">3</p>", "internal_node_id": "0.0-60.0-7.0", "time_elapsed": 674422, "key_press": -1, "trial_index": 85}, "uniqueid": "MTK2404:36U2A8VAG263QPO1LZKV77TYX64YK1", "dateTime": 1517075200898}, {"current_trial": 86, "trialdata": {"rt": -1, "trial_type": "single-stim", "stimulus": "<p id=\"stim\">2</p>", "internal_node_id": "0.0-60.0-8.0", "time_elapsed": 675424, "key_press": -1, "trial_index": 86}, "uniqueid": "MTK2404:36U2A8VAG263QPO1LZKV77TYX64YK1", "dateTime": 1517075201899}, {"current_trial": 87, "trialdata": {"rt": -1, "trial_type": "single-stim", "stimulus": "<p id=\"stim\">1</p>", "internal_node_id": "0.0-60.0-9.0", "time_elapsed": 676431, "key_press": -1, "trial_index": 87}, "uniqueid": "MTK2404:36U2A8VAG263QPO1LZKV77TYX64YK1", "dateTime": 1517075202907}, {"current_trial": 88, "trialdata": {"rt": -1, "trial_type": "single-stim", "stimulus": "<p id=\"stim\">+</p>", "internal_node_id": "0.0-61.0-0.0", "time_elapsed": 677937, "key_press": -1, "type": "FIXATION", "trial_index": 88}, "uniqueid": "MTK2404:36U2A8VAG263QPO1LZKV77TYX64YK1", "dateTime": 1517075204412}, {"current_trial": 89, "trialdata": {"rt": -1000, "trial_type": "single-audio", "word": "ozone", "stimulus": "/static/audio/wordpool/OZONE.wav", "conditions": [24, 800, "a", 12000], "internal_node_id": "0.0-62.0", "trial": 2, "time_elapsed": 679602, "serialpos": 0, "key_press": -1, "wordID": 995, "type": "PRES_AUD", "trial_index": 89}, "uniqueid": "MTK2404:36U2A8VAG263QPO1LZKV77TYX64YK1", "dateTime": 1517075206078}, {"current_trial": 90, "trialdata": {"rt": -1000, "trial_type": "single-audio", "word": "river", "stimulus": "/static/audio/wordpool/RIVER.wav", "conditions": [24, 800, "a", 12000], "internal_node_id": "0.0-63.0", "trial": 2, "time_elapsed": 681243, "serialpos": 1, "key_press": -1, "wordID": 1193, "type": "PRES_AUD", "trial_index": 90}, "uniqueid": "MTK2404:36U2A8VAG263QPO1LZKV77TYX64YK1", "dateTime": 1517075207718}, {"current_trial": 91, "trialdata": {"rt": -1000, "trial_type": "single-audio", "word": "swamp", "stimulus": "/static/audio/wordpool/SWAMP.wav", "conditions": [24, 800, "a", 12000], "internal_node_id": "0.0-64.0", "trial": 2, "time_elapsed": 682972, "serialpos": 2, "key_press": -1, "wordID": 1415, "type": "PRES_AUD", "trial_index": 91}, "uniqueid": "MTK2404:36U2A8VAG263QPO1LZKV77TYX64YK1", "dateTime": 1517075209448}, {"current_trial": 92, "trialdata": {"rt": -1000, "trial_type": "single-audio", "word": "crown", "stimulus": "/static/audio/wordpool/CROWN.wav", "conditions": [24, 800, "a", 12000], "internal_node_id": "0.0-65.0", "trial": 2, "time_elapsed": 684821, "serialpos": 3, "key_press": -1, "wordID": 414, "type": "PRES_AUD", "trial_index": 92}, "uniqueid": "MTK2404:36U2A8VAG263QPO1LZKV77TYX64YK1", "dateTime": 1517075211297}, {"current_trial": 93, "trialdata": {"rt": -1000, "trial_type": "single-audio", "word": "glove", "stimulus": "/static/audio/wordpool/GLOVE.wav", "conditions": [24, 800, "a", 12000], "internal_node_id": "0.0-66.0", "trial": 2, "time_elapsed": 686609, "serialpos": 4, "key_press": -1, "wordID": 641, "type": "PRES_AUD", "trial_index": 93}, "uniqueid": "MTK2404:36U2A8VAG263QPO1LZKV77TYX64YK1", "dateTime": 1517075213085}, {"current_trial": 94, "trialdata": {"rt": -1000, "trial_type": "single-audio", "word": "smog", "stimulus": "/static/audio/wordpool/SMOG.wav", "conditions": [24, 800, "a", 12000], "internal_node_id": "0.0-67.0", "trial": 2, "time_elapsed": 688609, "serialpos": 5, "key_press": -1, "wordID": 1329, "type": "PRES_AUD", "trial_index": 94}, "uniqueid": "MTK2404:36U2A8VAG263QPO1LZKV77TYX64YK1", "dateTime": 1517075215085}, {"current_trial": 95, "trialdata": {"rt": -1000, "trial_type": "single-audio", "word": "outfit", "stimulus": "/static/audio/wordpool/OUTFIT.wav", "conditions": [24, 800, "a", 12000], "internal_node_id": "0.0-68.0", "trial": 2, "time_elapsed": 690366, "serialpos": 6, "key_press": -1, "wordID": 987, "type": "PRES_AUD", "trial_index": 95}, "uniqueid": "MTK2404:36U2A8VAG263QPO1LZKV77TYX64YK1", "dateTime": 1517075216842}, {"current_trial": 96, "trialdata": {"rt": -1000, "trial_type": "single-audio", "word": "cloud", "stimulus": "/static/audio/wordpool/CLOUD.wav", "conditions": [24, 800, "a", 12000], "internal_node_id": "0.0-69.0", "trial": 2, "time_elapsed": 692200, "serialpos": 7, "key_press": -1, "wordID": 327, "type": "PRES_AUD", "trial_index": 96}, "uniqueid": "MTK2404:36U2A8VAG263QPO1LZKV77TYX64YK1", "dateTime": 1517075218675}, {"current_trial": 97, "trialdata": {"rt": -1000, "trial_type": "single-audio", "word": "pimple", "stimulus": "/static/audio/wordpool/PIMPLE.wav", "conditions": [24, 800, "a", 12000], "internal_node_id": "0.0-70.0", "trial": 2, "time_elapsed": 693997, "serialpos": 8, "key_press": -1, "wordID": 1070, "type": "PRES_AUD", "trial_index": 97}, "uniqueid": "MTK2404:36U2A8VAG263QPO1LZKV77TYX64YK1", "dateTime": 1517075220473}, {"current_trial": 98, "trialdata": {"rt": -1000, "trial_type": "single-audio", "word": "piston", "stimulus": "/static/audio/wordpool/PISTON.wav", "conditions": [24, 800, "a", 12000], "internal_node_id": "0.0-71.0", "trial": 2, "time_elapsed": 695683, "serialpos": 9, "key_press": -1, "wordID": 1075, "type": "PRES_AUD", "trial_index": 98}, "uniqueid": "MTK2404:36U2A8VAG263QPO1LZKV77TYX64YK1", "dateTime": 1517075222159}, {"current_trial": 99, "trialdata": {"rt": -1000, "trial_type": "single-audio", "word": "spouse", "stimulus": "/static/audio/wordpool/SPOUSE.wav", "conditions": [24, 800, "a", 12000], "internal_node_id": "0.0-72.0", "trial": 2, "time_elapsed": 697506, "serialpos": 10, "key_press": -1, "wordID": 1357, "type": "PRES_AUD", "trial_index": 99}, "uniqueid": "MTK2404:36U2A8VAG263QPO1LZKV77TYX64YK1", "dateTime": 1517075223982}, {"current_trial": 100, "trialdata": {"rt": -1000, "trial_type": "single-audio", "word": "wife", "stimulus": "/static/audio/wordpool/WIFE.wav", "conditions": [24, 800, "a", 12000], "internal_node_id": "0.0-73.0", "trial": 2, "time_elapsed": 699202, "serialpos": 11, "key_press": -1, "wordID": 1608, "type": "PRES_AUD", "trial_index": 100}, "uniqueid": "MTK2404:36U2A8VAG263QPO1LZKV77TYX64YK1", "dateTime": 1517075225678}, {"current_trial": 101, "trialdata": {"rt": -1000, "trial_type": "single-audio", "word": "brandy", "stimulus": "/static/audio/wordpool/BRANDY.wav", "conditions": [24, 800, "a", 12000], "internal_node_id": "0.0-74.0", "trial": 2, "time_elapsed": 701192, "serialpos": 12, "key_press": -1, "wordID": 168, "type": "PRES_AUD", "trial_index": 101}, "uniqueid": "MTK2404:36U2A8VAG263QPO1LZKV77TYX64YK1", "dateTime": 1517075227668}, {"current_trial": 102, "trialdata": {"rt": -1000, "trial_type": "single-audio", "word": "world", "stimulus": "/static/audio/wordpool/WORLD.wav", "conditions": [24, 800, "a", 12000], "internal_node_id": "0.0-75.0", "trial": 2, "time_elapsed": 703072, "serialpos": 13, "key_press": -1, "wordID": 1621, "type": "PRES_AUD", "trial_index": 102}, "uniqueid": "MTK2404:36U2A8VAG263QPO1LZKV77TYX64YK1", "dateTime": 1517075229547}, {"current_trial": 103, "trialdata": {"rt": -1000, "trial_type": "single-audio", "word": "globe", "stimulus": "/static/audio/wordpool/GLOBE.wav", "conditions": [24, 800, "a", 12000], "internal_node_id": "0.0-76.0", "trial": 2, "time_elapsed": 704797, "serialpos": 14, "key_press": -1, "wordID": 640, "type": "PRES_AUD", "trial_index": 103}, "uniqueid": "MTK2404:36U2A8VAG263QPO1LZKV77TYX64YK1", "dateTime": 1517075231272}, {"current_trial": 104, "trialdata": {"rt": -1000, "trial_type": "single-audio", "word": "termite", "stimulus": "/static/audio/wordpool/TERMITE.wav", "conditions": [24, 800, "a", 12000], "internal_node_id": "0.0-77.0", "trial": 2, "time_elapsed": 706648, "serialpos": 15, "key_press": -1, "wordID": 1450, "type": "PRES_AUD", "trial_index": 104}, "uniqueid": "MTK2404:36U2A8VAG263QPO1LZKV77TYX64YK1", "dateTime": 1517075233123}, {"current_trial": 105, "trialdata": {"rt": -1000, "trial_type": "single-audio", "word": "chest", "stimulus": "/static/audio/wordpool/CHEST.wav", "conditions": [24, 800, "a", 12000], "internal_node_id": "0.0-78.0", "trial": 2, "time_elapsed": 708514, "serialpos": 16, "key_press": -1, "wordID": 294, "type": "PRES_AUD", "trial_index": 105}, "uniqueid": "MTK2404:36U2A8VAG263QPO1LZKV77TYX64YK1", "dateTime": 1517075234989}, {"current_trial": 106, "trialdata": {"rt": -1000, "trial_type": "single-audio", "word": "drill", "stimulus": "/static/audio/wordpool/DRILL.wav", "conditions": [24, 800, "a", 12000], "internal_node_id": "0.0-79.0", "trial": 2, "time_elapsed": 710184, "serialpos": 17, "key_press": -1, "wordID": 496, "type": "PRES_AUD", "trial_index": 106}, "uniqueid": "MTK2404:36U2A8VAG263QPO1LZKV77TYX64YK1", "dateTime": 1517075236659}, {"current_trial": 107, "trialdata": {"rt": -1000, "trial_type": "single-audio", "word": "flipper", "stimulus": "/static/audio/wordpool/FLIPPER.wav", "conditions": [24, 800, "a", 12000], "internal_node_id": "0.0-80.0", "trial": 2, "time_elapsed": 711967, "serialpos": 18, "key_press": -1, "wordID": 579, "type": "PRES_AUD", "trial_index": 107}, "uniqueid": "MTK2404:36U2A8VAG263QPO1LZKV77TYX64YK1", "dateTime": 1517075238442}, {"current_trial": 108, "trialdata": {"rt": -1000, "trial_type": "single-audio", "word": "chemist", "stimulus": "/static/audio/wordpool/CHEMIST.wav", "conditions": [24, 800, "a", 12000], "internal_node_id": "0.0-81.0", "trial": 2, "time_elapsed": 713856, "serialpos": 19, "key_press": -1, "wordID": 291, "type": "PRES_AUD", "trial_index": 108}, "uniqueid": "MTK2404:36U2A8VAG263QPO1LZKV77TYX64YK1", "dateTime": 1517075240331}, {"current_trial": 109, "trialdata": {"rt": -1000, "trial_type": "single-audio", "word": "swimmer", "stimulus": "/static/audio/wordpool/SWIMMER.wav", "conditions": [24, 800, "a", 12000], "internal_node_id": "0.0-82.0", "trial": 2, "time_elapsed": 715718, "serialpos": 20, "key_press": -1, "wordID": 1419, "type": "PRES_AUD", "trial_index": 109}, "uniqueid": "MTK2404:36U2A8VAG263QPO1LZKV77TYX64YK1", "dateTime": 1517075242194}, {"current_trial": 110, "trialdata": {"rt": -1000, "trial_type": "single-audio", "word": "stomach", "stimulus": "/static/audio/wordpool/STOMACH.wav", "conditions": [24, 800, "a", 12000], "internal_node_id": "0.0-83.0", "trial": 2, "time_elapsed": 717588, "serialpos": 21, "key_press": -1, "wordID": 1383, "type": "PRES_AUD", "trial_index": 110}, "uniqueid": "MTK2404:36U2A8VAG263QPO1LZKV77TYX64YK1", "dateTime": 1517075244063}, {"current_trial": 111, "trialdata": {"rt": -1000, "trial_type": "single-audio", "word": "basement", "stimulus": "/static/audio/wordpool/BASEMENT.wav", "conditions": [24, 800, "a", 12000], "internal_node_id": "0.0-84.0", "trial": 2, "time_elapsed": 719453, "serialpos": 22, "key_press": -1, "wordID": 93, "type": "PRES_AUD", "trial_index": 111}, "uniqueid": "MTK2404:36U2A8VAG263QPO1LZKV77TYX64YK1", "dateTime": 1517075245929}, {"current_trial": 112, "trialdata": {"rt": -1000, "trial_type": "single-audio", "word": "bathtub", "stimulus": "/static/audio/wordpool/BATHTUB.wav", "conditions": [24, 800, "a", 12000], "internal_node_id": "0.0-85.0", "trial": 2, "time_elapsed": 721329, "serialpos": 23, "key_press": -1, "wordID": 99, "type": "PRES_AUD", "trial_index": 112}, "uniqueid": "MTK2404:36U2A8VAG263QPO1LZKV77TYX64YK1", "dateTime": 1517075247804}, {"current_trial": 113, "trialdata": {"rt": -1, "trial_type": "single-stim", "stimulus": "", "internal_node_id": "0.0-86.0-0.0", "time_elapsed": 722571, "key_press": -1, "type": "PRE_RECALL_DELAY", "trial_index": 113}, "uniqueid": "MTK2404:36U2A8VAG263QPO1LZKV77TYX64YK1", "dateTime": 1517075249046}, {"current_trial": 114, "trialdata": {"rt": -1000, "trial_type": "single-audio", "stimulus": "/static/audio/400Hz.wav", "internal_node_id": "0.0-87.0", "time_elapsed": 723074, "key_press": -1, "type": "PRE_RECALL_ALERT", "trial_index": 114}, "uniqueid": "MTK2404:36U2A8VAG263QPO1LZKV77TYX64YK1", "dateTime": 1517075249550}, {"current_trial": 115, "trialdata": {"rt": [6980, 10031, 13299, 17439, 21627, 25033, 26750, 30306, 32582, 37251, 43559, 46463, 50158, 52878, 55657, 59735], "recwords": ["bathtub", "basement", "swimmer", "flipper", "termite", "globe", "worls", "wife", "world", "spouce", "piston", "cloud", "swing", "glove", "crown", "ozone"], "key_times": [3239, 4062, 4203, 4412, 5038, 5284, 5607, 6980, 8235, 8356, 8554, 8748, 9175, 9355, 9512, 9693, 10031, 11163, 11341, 11785, 12027, 12168, 12317, 12481, 13299, 14181, 14365, 14601, 15970, 16092, 16268, 16437, 17439, 18881, 19060, 19223, 19701, 19892, 20133, 20340, 21627, 23251, 23791, 23950, 24377, 24536, 25033, 25413, 25623, 25946, 26166, 26426, 26750, 28881, 29103, 29440, 29685, 30306, 30927, 31133, 31554, 31754, 32264, 32582, 34828, 35072, 35188, 35556, 36374, 36514, 37251, 39428, 40374, 41439, 41589, 42053, 42376, 42570, 42823, 43559, 44634, 44812, 44987, 45142, 45464, 46463, 47347, 47570, 47803, 48024, 49084, 50158, 51153, 51297, 51473, 51947, 52112, 52878, 53732, 53984, 54269, 54490, 54897, 55657, 57424, 58275, 58472, 58706, 58994, 59735], "trial_type": "free-recall", "conditions": [24, 800, "a", 12000], "internal_node_id": "0.0-88.0-0.0", "key_presses": [66, 65, 84, 72, 84, 85, 66, 13, 66, 65, 83, 69, 77, 69, 78, 84, 13, 83, 87, 73, 77, 77, 69, 82, 13, 70, 76, 73, 80, 80, 69, 82, 13, 84, 69, 82, 77, 73, 84, 69, 13, 71, 76, 79, 66, 69, 13, 87, 79, 82, 76, 83, 13, 87, 73, 70, 69, 13, 87, 79, 82, 76, 68, 13, 83, 80, 79, 85, 67, 69, 13, 219, 8, 80, 73, 83, 84, 79, 78, 13, 67, 76, 79, 85, 68, 13, 83, 87, 73, 78, 71, 13, 71, 76, 79, 86, 69, 13, 67, 82, 79, 87, 78, 13, 79, 90, 79, 78, 69, 13], "trial": 2, "time_elapsed": 783085, "type": "FREE_RECALL", "trial_index": 115}, "uniqueid": "MTK2404:36U2A8VAG263QPO1LZKV77TYX64YK1", "dateTime": 1517075309576}, {"current_trial": 116, "trialdata": {"rt": 28468, "trial_type": "text", "internal_node_id": "0.0-89.0", "time_elapsed": 813573, "key_press": 75, "type": "INSTRUCTIONS", "trial_index": 116}, "uniqueid": "MTK2404:36U2A8VAG263QPO1LZKV77TYX64YK1", "dateTime": 1517075340048}, {"current_trial": 117, "trialdata": {"rt": [5346, 9969, 14113, 18236, 22731], "trial_type": "math-distractor", "key_times": [4796, 4962, 5346, 9340, 9515, 9969, 13227, 13394, 14113, 17495, 17787, 18236, 21704, 22285, 22731], "responses": ["19", "18", "17", "17", "15"], "num2": [5, 5, 9, 3, 7, 2], "num3": [5, 4, 2, 7, 6, 3], "conditions": [12, 1600, "a", 24000], "internal_node_id": "0.0-90.0", "key_presses": [49, 57, 13, 49, 56, 13, 49, 55, 13, 49, 55, 13, 49, 53, 13], "trial": 3, "time_elapsed": 839587, "type": "DISTRACTOR", "trial_index": 117, "num1": [9, 9, 7, 7, 3, 4]}, "uniqueid": "MTK2404:36U2A8VAG263QPO1LZKV77TYX64YK1", "dateTime": 1517075366067}, {"current_trial": 118, "trialdata": {"rt": -1, "trial_type": "single-stim", "stimulus": "<p id=\"stim\">10</p>", "internal_node_id": "0.0-91.0-0.0", "time_elapsed": 842601, "key_press": -1, "trial_index": 118}, "uniqueid": "MTK2404:36U2A8VAG263QPO1LZKV77TYX64YK1", "dateTime": 1517075369077}, {"current_trial": 119, "trialdata": {"rt": -1, "trial_type": "single-stim", "stimulus": "<p id=\"stim\">9</p>", "internal_node_id": "0.0-91.0-1.0", "time_elapsed": 843605, "key_press": -1, "trial_index": 119}, "uniqueid": "MTK2404:36U2A8VAG263QPO1LZKV77TYX64YK1", "dateTime": 1517075370081}, {"current_trial": 120, "trialdata": {"rt": -1, "trial_type": "single-stim", "stimulus": "<p id=\"stim\">8</p>", "internal_node_id": "0.0-91.0-2.0", "time_elapsed": 844609, "key_press": -1, "trial_index": 120}, "uniqueid": "MTK2404:36U2A8VAG263QPO1LZKV77TYX64YK1", "dateTime": 1517075371085}, {"current_trial": 121, "trialdata": {"rt": -1, "trial_type": "single-stim", "stimulus": "<p id=\"stim\">7</p>", "internal_node_id": "0.0-91.0-3.0", "time_elapsed": 845616, "key_press": -1, "trial_index": 121}, "uniqueid": "MTK2404:36U2A8VAG263QPO1LZKV77TYX64YK1", "dateTime": 1517075372092}, {"current_trial": 122, "trialdata": {"rt": -1, "trial_type": "single-stim", "stimulus": "<p id=\"stim\">6</p>", "internal_node_id": "0.0-91.0-4.0", "time_elapsed": 846620, "key_press": -1, "trial_index": 122}, "uniqueid": "MTK2404:36U2A8VAG263QPO1LZKV77TYX64YK1", "dateTime": 1517075373095}, {"current_trial": 123, "trialdata": {"rt": -1, "trial_type": "single-stim", "stimulus": "<p id=\"stim\">5</p>", "internal_node_id": "0.0-91.0-5.0", "time_elapsed": 847625, "key_press": -1, "trial_index": 123}, "uniqueid": "MTK2404:36U2A8VAG263QPO1LZKV77TYX64YK1", "dateTime": 1517075374101}, {"current_trial": 124, "trialdata": {"rt": -1, "trial_type": "single-stim", "stimulus": "<p id=\"stim\">4</p>", "internal_node_id": "0.0-91.0-6.0", "time_elapsed": 848630, "key_press": -1, "trial_index": 124}, "uniqueid": "MTK2404:36U2A8VAG263QPO1LZKV77TYX64YK1", "dateTime": 1517075375106}, {"current_trial": 125, "trialdata": {"rt": -1, "trial_type": "single-stim", "stimulus": "<p id=\"stim\">3</p>", "internal_node_id": "0.0-91.0-7.0", "time_elapsed": 849638, "key_press": -1, "trial_index": 125}, "uniqueid": "MTK2404:36U2A8VAG263QPO1LZKV77TYX64YK1", "dateTime": 1517075376113}, {"current_trial": 126, "trialdata": {"rt": -1, "trial_type": "single-stim", "stimulus": "<p id=\"stim\">2</p>", "internal_node_id": "0.0-91.0-8.0", "time_elapsed": 850642, "key_press": -1, "trial_index": 126}, "uniqueid": "MTK2404:36U2A8VAG263QPO1LZKV77TYX64YK1", "dateTime": 1517075377118}, {"current_trial": 127, "trialdata": {"rt": -1, "trial_type": "single-stim", "stimulus": "<p id=\"stim\">1</p>", "internal_node_id": "0.0-91.0-9.0", "time_elapsed": 851648, "key_press": -1, "trial_index": 127}, "uniqueid": "MTK2404:36U2A8VAG263QPO1LZKV77TYX64YK1", "dateTime": 1517075378124}, {"current_trial": 128, "trialdata": {"rt": -1, "trial_type": "single-stim", "stimulus": "<p id=\"stim\">+</p>", "internal_node_id": "0.0-92.0-0.0", "time_elapsed": 853155, "key_press": -1, "type": "FIXATION", "trial_index": 128}, "uniqueid": "MTK2404:36U2A8VAG263QPO1LZKV77TYX64YK1", "dateTime": 1517075379631}, {"current_trial": 129, "trialdata": {"rt": -1000, "trial_type": "single-audio", "word": "husband", "stimulus": "/static/audio/wordpool/HUSBAND.wav", "conditions": [12, 1600, "a", 24000], "internal_node_id": "0.0-93.0", "trial": 3, "time_elapsed": 855626, "serialpos": 0, "key_press": -1, "wordID": 727, "type": "PRES_AUD", "trial_index": 129}, "uniqueid": "MTK2404:36U2A8VAG263QPO1LZKV77TYX64YK1", "dateTime": 1517075382102}, {"current_trial": 130, "trialdata": {"rt": -1000, "trial_type": "single-audio", "word": "suitcase", "stimulus": "/static/audio/wordpool/SUITCASE.wav", "conditions": [12, 1600, "a", 24000], "internal_node_id": "0.0-94.0", "trial": 3, "time_elapsed": 858208, "serialpos": 1, "key_press": -1, "wordID": 1402, "type": "PRES_AUD", "trial_index": 130}, "uniqueid": "MTK2404:36U2A8VAG263QPO1LZKV77TYX64YK1", "dateTime": 1517075384683}, {"current_trial": 131, "trialdata": {"rt": -1000, "trial_type": "single-audio", "word": "dragon", "stimulus": "/static/audio/wordpool/DRAGON.wav", "conditions": [12, 1600, "a", 24000], "internal_node_id": "0.0-95.0", "trial": 3, "time_elapsed": 860820, "serialpos": 2, "key_press": -1, "wordID": 491, "type": "PRES_AUD", "trial_index": 131}, "uniqueid": "MTK2404:36U2A8VAG263QPO1LZKV77TYX64YK1", "dateTime": 1517075387295}, {"current_trial": 132, "trialdata": {"rt": -1000, "trial_type": "single-audio", "word": "knife", "stimulus": "/static/audio/wordpool/KNIFE.wav", "conditions": [12, 1600, "a", 24000], "internal_node_id": "0.0-96.0", "trial": 3, "time_elapsed": 863488, "serialpos": 3, "key_press": -1, "wordID": 784, "type": "PRES_AUD", "trial_index": 132}, "uniqueid": "MTK2404:36U2A8VAG263QPO1LZKV77TYX64YK1", "dateTime": 1517075389963}, {"current_trial": 133, "trialdata": {"rt": -1000, "trial_type": "single-audio", "word": "uncle", "stimulus": "/static/audio/wordpool/UNCLE.wav", "conditions": [12, 1600, "a", 24000], "internal_node_id": "0.0-97.0", "trial": 3, "time_elapsed": 866029, "serialpos": 4, "key_press": -1, "wordID": 1535, "type": "PRES_AUD", "trial_index": 133}, "uniqueid": "MTK2404:36U2A8VAG263QPO1LZKV77TYX64YK1", "dateTime": 1517075392504}, {"current_trial": 134, "trialdata": {"rt": -1000, "trial_type": "single-audio", "word": "sister", "stimulus": "/static/audio/wordpool/SISTER.wav", "conditions": [12, 1600, "a", 24000], "internal_node_id": "0.0-98.0", "trial": 3, "time_elapsed": 868558, "serialpos": 5, "key_press": -1, "wordID": 1311, "type": "PRES_AUD", "trial_index": 134}, "uniqueid": "MTK2404:36U2A8VAG263QPO1LZKV77TYX64YK1", "dateTime": 1517075395033}, {"current_trial": 135, "trialdata": {"rt": -1000, "trial_type": "single-audio", "word": "sword", "stimulus": "/static/audio/wordpool/SWORD.wav", "conditions": [12, 1600, "a", 24000], "internal_node_id": "0.0-99.0", "trial": 3, "time_elapsed": 871186, "serialpos": 6, "key_press": -1, "wordID": 1422, "type": "PRES_AUD", "trial_index": 135}, "uniqueid": "MTK2404:36U2A8VAG263QPO1LZKV77TYX64YK1", "dateTime": 1517075397661}, {"current_trial": 136, "trialdata": {"rt": -1000, "trial_type": "single-audio", "word": "patient", "stimulus": "/static/audio/wordpool/PATIENT.wav", "conditions": [12, 1600, "a", 24000], "internal_node_id": "0.0-100.0", "trial": 3, "time_elapsed": 873942, "serialpos": 7, "key_press": -1, "wordID": 1023, "type": "PRES_AUD", "trial_index": 136}, "uniqueid": "MTK2404:36U2A8VAG263QPO1LZKV77TYX64YK1", "dateTime": 1517075400417}, {"current_trial": 137, "trialdata": {"rt": -1000, "trial_type": "single-audio", "word": "juggler", "stimulus": "/static/audio/wordpool/JUGGLER.wav", "conditions": [12, 1600, "a", 24000], "internal_node_id": "0.0-101.0", "trial": 3, "time_elapsed": 876518, "serialpos": 8, "key_press": -1, "wordID": 762, "type": "PRES_AUD", "trial_index": 137}, "uniqueid": "MTK2404:36U2A8VAG263QPO1LZKV77TYX64YK1", "dateTime": 1517075402993}, {"current_trial": 138, "trialdata": {"rt": -1000, "trial_type": "single-audio", "word": "candy", "stimulus": "/static/audio/wordpool/CANDY.wav", "conditions": [12, 1600, "a", 24000], "internal_node_id": "0.0-102.0", "trial": 3, "time_elapsed": 879229, "serialpos": 9, "key_press": -1, "wordID": 229, "type": "PRES_AUD", "trial_index": 138}, "uniqueid": "MTK2404:36U2A8VAG263QPO1LZKV77TYX64YK1", "dateTime": 1517075405705}, {"current_trial": 139, "trialdata": {"rt": -1000, "trial_type": "single-audio", "word": "cookbook", "stimulus": "/static/audio/wordpool/COOKBOOK.wav", "conditions": [12, 1600, "a", 24000], "internal_node_id": "0.0-103.0", "trial": 3, "time_elapsed": 881717, "serialpos": 10, "key_press": -1, "wordID": 372, "type": "PRES_AUD", "trial_index": 139}, "uniqueid": "MTK2404:36U2A8VAG263QPO1LZKV77TYX64YK1", "dateTime": 1517075408192}, {"current_trial": 140, "trialdata": {"rt": -1000, "trial_type": "single-audio", "word": "hiker", "stimulus": "/static/audio/wordpool/HIKER.wav", "conditions": [12, 1600, "a", 24000], "internal_node_id": "0.0-104.0", "trial": 3, "time_elapsed": 884365, "serialpos": 11, "key_press": -1, "wordID": 707, "type": "PRES_AUD", "trial_index": 140}, "uniqueid": "MTK2404:36U2A8VAG263QPO1LZKV77TYX64YK1", "dateTime": 1517075410841}, {"current_trial": 141, "trialdata": {"rt": -1, "trial_type": "single-stim", "stimulus": "", "internal_node_id": "0.0-105.0-0.0", "time_elapsed": 885599, "key_press": -1, "type": "PRE_RECALL_DELAY", "trial_index": 141}, "uniqueid": "MTK2404:36U2A8VAG263QPO1LZKV77TYX64YK1", "dateTime": 1517075412074}, {"current_trial": 142, "trialdata": {"rt": -1000, "trial_type": "single-audio", "stimulus": "/static/audio/400Hz.wav", "internal_node_id": "0.0-106.0", "time_elapsed": 886108, "key_press": -1, "type": "PRE_RECALL_ALERT", "trial_index": 142}, "uniqueid": "MTK2404:36U2A8VAG263QPO1LZKV77TYX64YK1", "dateTime": 1517075412583}, {"current_trial": 143, "trialdata": {"rt": [4938, 8188, 10381, 13052, 15212, 20827, 23452, 26051, 29463, 34250, 39573, 42705, 49064], "recwords": ["husband", "hiker", "sister", "suit", "case", "dragon", "knife", "uncle", "sword", "paitents", "juggler", "candy", "cookbook"], "key_times": [2326, 2477, 2860, 3132, 3387, 3552, 4599, 4938, 6686, 6852, 7074, 7309, 7463, 8188, 8681, 8854, 8993, 9352, 9462, 9622, 10381, 12086, 12320, 12490, 12749, 13052, 13279, 13541, 13733, 13909, 15212, 18361, 18529, 18932, 19156, 19412, 19708, 20827, 21708, 21848, 22054, 22462, 22641, 23452, 24363, 24590, 24886, 25052, 25387, 26051, 27706, 27887, 28160, 28406, 28982, 29463, 31297, 31492, 32147, 32302, 32752, 33257, 33554, 33739, 34250, 36461, 36625, 37065, 37183, 37765, 37933, 38142, 39573, 41222, 41368, 41701, 41971, 42274, 42705, 46187, 46455, 46590, 46964, 47903, 48164, 48297, 48620, 49064, 58043, 58248, 58494, 58824, 59238, 59405, 59613, 59753], "trial_type": "free-recall", "conditions": [12, 1600, "a", 24000], "internal_node_id": "0.0-107.0-0.0", "key_presses": [72, 85, 83, 66, 65, 78, 68, 13, 72, 73, 75, 69, 82, 13, 83, 73, 83, 84, 69, 82, 13, 83, 85, 73, 84, 32, 67, 65, 83, 69, 13, 68, 82, 65, 71, 79, 78, 13, 75, 78, 73, 70, 69, 13, 85, 78, 67, 76, 69, 13, 83, 87, 79, 82, 68, 13, 80, 65, 73, 84, 69, 78, 84, 83, 13, 74, 85, 71, 71, 76, 69, 82, 13, 67, 65, 78, 68, 89, 13, 67, 79, 79, 75, 66, 79, 79, 75, 13, 83, 85, 73, 84, 67, 65, 83, 69], "trial": 3, "time_elapsed": 946122, "type": "FREE_RECALL", "trial_index": 143}, "uniqueid": "MTK2404:36U2A8VAG263QPO1LZKV77TYX64YK1", "dateTime": 1517075472609}, {"current_trial": 144, "trialdata": {"rt": 3453, "trial_type": "text", "internal_node_id": "0.0-108.0", "time_elapsed": 951594, "key_press": 75, "type": "INSTRUCTIONS", "trial_index": 144}, "uniqueid": "MTK2404:36U2A8VAG263QPO1LZKV77TYX64YK1", "dateTime": 1517075478069}, {"current_trial": 145, "trialdata": {"rt": [8182, 12818, 16669, 22248], "trial_type": "math-distractor", "key_times": [7525, 7631, 8182, 12038, 12437, 12818, 16076, 16202, 16669, 21759, 21884, 22248], "responses": ["22", "17", "17", "22"], "num2": [6, 4, 3, 9, 9], "num3": [9, 9, 5, 6, 5], "conditions": [12, 800, "a", 24000], "internal_node_id": "0.0-109.0", "key_presses": [50, 50, 13, 49, 55, 13, 49, 55, 13, 50, 50, 13], "trial": 4, "time_elapsed": 977608, "type": "DISTRACTOR", "trial_index": 145, "num1": [7, 4, 9, 7, 3]}, "uniqueid": "MTK2404:36U2A8VAG263QPO1LZKV77TYX64YK1", "dateTime": 1517075504084}, {"current_trial": 146, "trialdata": {"rt": -1, "trial_type": "single-stim", "stimulus": "<p id=\"stim\">10</p>", "internal_node_id": "0.0-110.0-0.0", "time_elapsed": 980619, "key_press": -1, "trial_index": 146}, "uniqueid": "MTK2404:36U2A8VAG263QPO1LZKV77TYX64YK1", "dateTime": 1517075507094}, {"current_trial": 147, "trialdata": {"rt": -1, "trial_type": "single-stim", "stimulus": "<p id=\"stim\">9</p>", "internal_node_id": "0.0-110.0-1.0", "time_elapsed": 981625, "key_press": -1, "trial_index": 147}, "uniqueid": "MTK2404:36U2A8VAG263QPO1LZKV77TYX64YK1", "dateTime": 1517075508101}, {"current_trial": 148, "trialdata": {"rt": -1, "trial_type": "single-stim", "stimulus": "<p id=\"stim\">8</p>", "internal_node_id": "0.0-110.0-2.0", "time_elapsed": 982633, "key_press": -1, "trial_index": 148}, "uniqueid": "MTK2404:36U2A8VAG263QPO1LZKV77TYX64YK1", "dateTime": 1517075509108}, {"current_trial": 149, "trialdata": {"rt": -1, "trial_type": "single-stim", "stimulus": "<p id=\"stim\">7</p>", "internal_node_id": "0.0-110.0-3.0", "time_elapsed": 983637, "key_press": -1, "trial_index": 149}, "uniqueid": "MTK2404:36U2A8VAG263QPO1LZKV77TYX64YK1", "dateTime": 1517075510112}, {"current_trial": 150, "trialdata": {"rt": -1, "trial_type": "single-stim", "stimulus": "<p id=\"stim\">6</p>", "internal_node_id": "0.0-110.0-4.0", "time_elapsed": 984644, "key_press": -1, "trial_index": 150}, "uniqueid": "MTK2404:36U2A8VAG263QPO1LZKV77TYX64YK1", "dateTime": 1517075511119}, {"current_trial": 151, "trialdata": {"rt": -1, "trial_type": "single-stim", "stimulus": "<p id=\"stim\">5</p>", "internal_node_id": "0.0-110.0-5.0", "time_elapsed": 985650, "key_press": -1, "trial_index": 151}, "uniqueid": "MTK2404:36U2A8VAG263QPO1LZKV77TYX64YK1", "dateTime": 1517075512126}, {"current_trial": 152, "trialdata": {"rt": -1, "trial_type": "single-stim", "stimulus": "<p id=\"stim\">4</p>", "internal_node_id": "0.0-110.0-6.0", "time_elapsed": 986659, "key_press": -1, "trial_index": 152}, "uniqueid": "MTK2404:36U2A8VAG263QPO1LZKV77TYX64YK1", "dateTime": 1517075513134}, {"current_trial": 153, "trialdata": {"rt": -1, "trial_type": "single-stim", "stimulus": "<p id=\"stim\">3</p>", "internal_node_id": "0.0-110.0-7.0", "time_elapsed": 987665, "key_press": -1, "trial_index": 153}, "uniqueid": "MTK2404:36U2A8VAG263QPO1LZKV77TYX64YK1", "dateTime": 1517075514141}, {"current_trial": 154, "trialdata": {"rt": -1, "trial_type": "single-stim", "stimulus": "<p id=\"stim\">2</p>", "internal_node_id": "0.0-110.0-8.0", "time_elapsed": 988673, "key_press": -1, "trial_index": 154}, "uniqueid": "MTK2404:36U2A8VAG263QPO1LZKV77TYX64YK1", "dateTime": 1517075515149}, {"current_trial": 155, "trialdata": {"rt": -1, "trial_type": "single-stim", "stimulus": "<p id=\"stim\">1</p>", "internal_node_id": "0.0-110.0-9.0", "time_elapsed": 989677, "key_press": -1, "trial_index": 155}, "uniqueid": "MTK2404:36U2A8VAG263QPO1LZKV77TYX64YK1", "dateTime": 1517075516153}, {"current_trial": 156, "trialdata": {"rt": -1, "trial_type": "single-stim", "stimulus": "<p id=\"stim\">+</p>", "internal_node_id": "0.0-111.0-0.0", "time_elapsed": 991184, "key_press": -1, "type": "FIXATION", "trial_index": 156}, "uniqueid": "MTK2404:36U2A8VAG263QPO1LZKV77TYX64YK1", "dateTime": 1517075517659}, {"current_trial": 157, "trialdata": {"rt": -1000, "trial_type": "single-audio", "word": "missile", "stimulus": "/static/audio/wordpool/MISSILE.wav", "conditions": [12, 800, "a", 24000], "internal_node_id": "0.0-112.0", "trial": 4, "time_elapsed": 993037, "serialpos": 0, "key_press": -1, "wordID": 899, "type": "PRES_AUD", "trial_index": 157}, "uniqueid": "MTK2404:36U2A8VAG263QPO1LZKV77TYX64YK1", "dateTime": 1517075519516}, {"current_trial": 158, "trialdata": {"rt": -1000, "trial_type": "single-audio", "word": "tutu", "stimulus": "/static/audio/wordpool/TUTU.wav", "conditions": [12, 800, "a", 24000], "internal_node_id": "0.0-113.0", "trial": 4, "time_elapsed": 994683, "serialpos": 1, "key_press": -1, "wordID": 1523, "type": "PRES_AUD", "trial_index": 158}, "uniqueid": "MTK2404:36U2A8VAG263QPO1LZKV77TYX64YK1", "dateTime": 1517075521158}, {"current_trial": 159, "trialdata": {"rt": -1000, "trial_type": "single-audio", "word": "picture", "stimulus": "/static/audio/wordpool/PICTURE.wav", "conditions": [12, 800, "a", 24000], "internal_node_id": "0.0-114.0", "trial": 4, "time_elapsed": 996554, "serialpos": 2, "key_press": -1, "wordID": 1060, "type": "PRES_AUD", "trial_index": 159}, "uniqueid": "MTK2404:36U2A8VAG263QPO1LZKV77TYX64YK1", "dateTime": 1517075523030}, {"current_trial": 160, "trialdata": {"rt": -1000, "trial_type": "single-audio", "word": "atlas", "stimulus": "/static/audio/wordpool/ATLAS.wav", "conditions": [12, 800, "a", 24000], "internal_node_id": "0.0-115.0", "trial": 4, "time_elapsed": 998214, "serialpos": 3, "key_press": -1, "wordID": 52, "type": "PRES_AUD", "trial_index": 160}, "uniqueid": "MTK2404:36U2A8VAG263QPO1LZKV77TYX64YK1", "dateTime": 1517075524689}, {"current_trial": 161, "trialdata": {"rt": -1000, "trial_type": "single-audio", "word": "tombstone", "stimulus": "/static/audio/wordpool/TOMBSTONE.wav", "conditions": [12, 800, "a", 24000], "internal_node_id": "0.0-116.0", "trial": 4, "time_elapsed": 1000159, "serialpos": 4, "key_press": -1, "wordID": 1477, "type": "PRES_AUD", "trial_index": 161}, "uniqueid": "MTK2404:36U2A8VAG263QPO1LZKV77TYX64YK1", "dateTime": 1517075526634}, {"current_trial": 162, "trialdata": {"rt": -1000, "trial_type": "single-audio", "word": "hostess", "stimulus": "/static/audio/wordpool/HOSTESS.wav", "conditions": [12, 800, "a", 24000], "internal_node_id": "0.0-117.0", "trial": 4, "time_elapsed": 1001860, "serialpos": 5, "key_press": -1, "wordID": 722, "type": "PRES_AUD", "trial_index": 162}, "uniqueid": "MTK2404:36U2A8VAG263QPO1LZKV77TYX64YK1", "dateTime": 1517075528336}, {"current_trial": 163, "trialdata": {"rt": -1000, "trial_type": "single-audio", "word": "rocket", "stimulus": "/static/audio/wordpool/ROCKET.wav", "conditions": [12, 800, "a", 24000], "internal_node_id": "0.0-118.0", "trial": 4, "time_elapsed": 1003762, "serialpos": 6, "key_press": -1, "wordID": 1201, "type": "PRES_AUD", "trial_index": 163}, "uniqueid": "MTK2404:36U2A8VAG263QPO1LZKV77TYX64YK1", "dateTime": 1517075530237}, {"current_trial": 164, "trialdata": {"rt": -1000, "trial_type": "single-audio", "word": "hood", "stimulus": "/static/audio/wordpool/HOOD.wav", "conditions": [12, 800, "a", 24000], "internal_node_id": "0.0-119.0", "trial": 4, "time_elapsed": 1005729, "serialpos": 7, "key_press": -1, "wordID": 713, "type": "PRES_AUD", "trial_index": 164}, "uniqueid": "MTK2404:36U2A8VAG263QPO1LZKV77TYX64YK1", "dateTime": 1517075532205}, {"current_trial": 165, "trialdata": {"rt": -1000, "trial_type": "single-audio", "word": "trench", "stimulus": "/static/audio/wordpool/TRENCH.wav", "conditions": [12, 800, "a", 24000], "internal_node_id": "0.0-120.0", "trial": 4, "time_elapsed": 1007338, "serialpos": 8, "key_press": -1, "wordID": 1502, "type": "PRES_AUD", "trial_index": 165}, "uniqueid": "MTK2404:36U2A8VAG263QPO1LZKV77TYX64YK1", "dateTime": 1517075533813}, {"current_trial": 166, "trialdata": {"rt": -1000, "trial_type": "single-audio", "word": "shoulder", "stimulus": "/static/audio/wordpool/SHOULDER.wav", "conditions": [12, 800, "a", 24000], "internal_node_id": "0.0-121.0", "trial": 4, "time_elapsed": 1009253, "serialpos": 9, "key_press": -1, "wordID": 1293, "type": "PRES_AUD", "trial_index": 166}, "uniqueid": "MTK2404:36U2A8VAG263QPO1LZKV77TYX64YK1", "dateTime": 1517075535728}, {"current_trial": 167, "trialdata": {"rt": -1000, "trial_type": "single-audio", "word": "ankle", "stimulus": "/static/audio/wordpool/ANKLE.wav", "conditions": [12, 800, "a", 24000], "internal_node_id": "0.0-122.0", "trial": 4, "time_elapsed": 1011229, "serialpos": 10, "key_press": -1, "wordID": 23, "type": "PRES_AUD", "trial_index": 167}, "uniqueid": "MTK2404:36U2A8VAG263QPO1LZKV77TYX64YK1", "dateTime": 1517075537705}, {"current_trial": 168, "trialdata": {"rt": -1000, "trial_type": "single-audio", "word": "leg", "stimulus": "/static/audio/wordpool/LEG.wav", "conditions": [12, 800, "a", 24000], "internal_node_id": "0.0-123.0", "trial": 4, "time_elapsed": 1013215, "serialpos": 11, "key_press": -1, "wordID": 808, "type": "PRES_AUD", "trial_index": 168}, "uniqueid": "MTK2404:36U2A8VAG263QPO1LZKV77TYX64YK1", "dateTime": 1517075539690}, {"current_trial": 169, "trialdata": {"rt": -1, "trial_type": "single-stim", "stimulus": "", "internal_node_id": "0.0-124.0-0.0", "time_elapsed": 1014455, "key_press": -1, "type": "PRE_RECALL_DELAY", "trial_index": 169}, "uniqueid": "MTK2404:36U2A8VAG263QPO1LZKV77TYX64YK1", "dateTime": 1517075540930}, {"current_trial": 170, "trialdata": {"rt": -1000, "trial_type": "single-audio", "stimulus": "/static/audio/400Hz.wav", "internal_node_id": "0.0-125.0", "time_elapsed": 1014959, "key_press": -1, "type": "PRE_RECALL_ALERT", "trial_index": 170}, "uniqueid": "MTK2404:36U2A8VAG263QPO1LZKV77TYX64YK1", "dateTime": 1517075541434}, {"current_trial": 171, "trialdata": {"rt": [7240, 10315, 15341, 18271, 30452, 35413, 39932, 43719, 46100, 49141, 52706], "recwords": ["leg", "ankle", "sholder", "hood", "hostage", "rocket", "tumbstone", "atlas", "tutu", "picture", "missel"], "key_times": [5851, 6196, 6605, 7240, 9015, 9241, 9575, 9781, 10005, 10315, 11500, 11868, 12450, 13242, 13666, 13969, 14146, 15341, 17320, 17525, 17654, 17810, 18271, 26959, 27137, 27817, 28648, 29103, 29426, 29534, 29915, 30034, 30452, 33416, 33605, 33992, 34310, 34445, 34663, 35413, 36449, 36819, 37527, 37806, 38168, 38507, 38689, 39093, 39216, 39932, 41292, 41938, 42467, 42619, 42864, 43719, 44561, 44921, 45235, 45432, 46100, 47341, 47530, 47791, 48011, 48222, 48387, 48554, 49141, 50498, 50732, 51094, 51210, 51848, 51981, 52706], "trial_type": "free-recall", "conditions": [12, 800, "a", 24000], "internal_node_id": "0.0-126.0-0.0", "key_presses": [76, 69, 71, 13, 65, 78, 75, 76, 69, 13, 83, 72, 79, 76, 68, 69, 82, 13, 72, 79, 79, 68, 13, 72, 65, 8, 79, 83, 84, 65, 71, 69, 13, 82, 79, 67, 75, 69, 84, 13, 84, 85, 77, 66, 83, 84, 79, 78, 69, 13, 65, 84, 76, 65, 83, 13, 84, 85, 84, 85, 13, 80, 73, 67, 84, 85, 82, 69, 13, 77, 73, 83, 83, 69, 76, 13], "trial": 4, "time_elapsed": 1074967, "type": "FREE_RECALL", "trial_index": 171}, "uniqueid": "MTK2404:36U2A8VAG263QPO1LZKV77TYX64YK1", "dateTime": 1517075601467}, {"current_trial": 172, "trialdata": {"rt": 2602, "trial_type": "text", "internal_node_id": "0.0-127.0", "time_elapsed": 1079598, "key_press": 74, "type": "INSTRUCTIONS", "trial_index": 172}, "uniqueid": "MTK2404:36U2A8VAG263QPO1LZKV77TYX64YK1", "dateTime": 1517075606074}, {"current_trial": 173, "trialdata": {"rt": [2484, 4611, 7295], "trial_type": "math-distractor", "key_times": [2300, 2484, 4419, 4611, 6786, 6975, 7295, 11950], "responses": ["8", "6", "11"], "num2": [3, 2, 1, 6], "num3": [4, 3, 6, 4], "conditions": [24, 1600, "a", 12000], "internal_node_id": "0.0-128.0", "key_presses": [56, 13, 54, 13, 49, 49, 13, 49], "trial": 5, "time_elapsed": 1093607, "type": "DISTRACTOR", "trial_index": 173, "num1": [1, 1, 4, 8]}, "uniqueid": "MTK2404:36U2A8VAG263QPO1LZKV77TYX64YK1", "dateTime": 1517075620083}, {"current_trial": 174, "trialdata": {"rt": -1, "trial_type": "single-stim", "stimulus": "<p id=\"stim\">10</p>", "internal_node_id": "0.0-129.0-0.0", "time_elapsed": 1096612, "key_press": -1, "trial_index": 174}, "uniqueid": "MTK2404:36U2A8VAG263QPO1LZKV77TYX64YK1", "dateTime": 1517075623088}, {"current_trial": 175, "trialdata": {"rt": -1, "trial_type": "single-stim", "stimulus": "<p id=\"stim\">9</p>", "internal_node_id": "0.0-129.0-1.0", "time_elapsed": 1097617, "key_press": -1, "trial_index": 175}, "uniqueid": "MTK2404:36U2A8VAG263QPO1LZKV77TYX64YK1", "dateTime": 1517075624092}, {"current_trial": 176, "trialdata": {"rt": -1, "trial_type": "single-stim", "stimulus": "<p id=\"stim\">8</p>", "internal_node_id": "0.0-129.0-2.0", "time_elapsed": 1098624, "key_press": -1, "trial_index": 176}, "uniqueid": "MTK2404:36U2A8VAG263QPO1LZKV77TYX64YK1", "dateTime": 1517075625099}, {"current_trial": 177, "trialdata": {"rt": -1, "trial_type": "single-stim", "stimulus": "<p id=\"stim\">7</p>", "internal_node_id": "0.0-129.0-3.0", "time_elapsed": 1099629, "key_press": -1, "trial_index": 177}, "uniqueid": "MTK2404:36U2A8VAG263QPO1LZKV77TYX64YK1", "dateTime": 1517075626104}, {"current_trial": 178, "trialdata": {"rt": -1, "trial_type": "single-stim", "stimulus": "<p id=\"stim\">6</p>", "internal_node_id": "0.0-129.0-4.0", "time_elapsed": 1100637, "key_press": -1, "trial_index": 178}, "uniqueid": "MTK2404:36U2A8VAG263QPO1LZKV77TYX64YK1", "dateTime": 1517075627112}, {"current_trial": 179, "trialdata": {"rt": -1, "trial_type": "single-stim", "stimulus": "<p id=\"stim\">5</p>", "internal_node_id": "0.0-129.0-5.0", "time_elapsed": 1101643, "key_press": -1, "trial_index": 179}, "uniqueid": "MTK2404:36U2A8VAG263QPO1LZKV77TYX64YK1", "dateTime": 1517075628118}, {"current_trial": 180, "trialdata": {"rt": -1, "trial_type": "single-stim", "stimulus": "<p id=\"stim\">4</p>", "internal_node_id": "0.0-129.0-6.0", "time_elapsed": 1102648, "key_press": -1, "trial_index": 180}, "uniqueid": "MTK2404:36U2A8VAG263QPO1LZKV77TYX64YK1", "dateTime": 1517075629124}, {"current_trial": 181, "trialdata": {"rt": -1, "trial_type": "single-stim", "stimulus": "<p id=\"stim\">3</p>", "internal_node_id": "0.0-129.0-7.0", "time_elapsed": 1103655, "key_press": -1, "trial_index": 181}, "uniqueid": "MTK2404:36U2A8VAG263QPO1LZKV77TYX64YK1", "dateTime": 1517075630130}, {"current_trial": 182, "trialdata": {"rt": -1, "trial_type": "single-stim", "stimulus": "<p id=\"stim\">2</p>", "internal_node_id": "0.0-129.0-8.0", "time_elapsed": 1104658, "key_press": -1, "trial_index": 182}, "uniqueid": "MTK2404:36U2A8VAG263QPO1LZKV77TYX64YK1", "dateTime": 1517075631134}, {"current_trial": 183, "trialdata": {"rt": -1, "trial_type": "single-stim", "stimulus": "<p id=\"stim\">1</p>", "internal_node_id": "0.0-129.0-9.0", "time_elapsed": 1105663, "key_press": -1, "trial_index": 183}, "uniqueid": "MTK2404:36U2A8VAG263QPO1LZKV77TYX64YK1", "dateTime": 1517075632139}, {"current_trial": 184, "trialdata": {"rt": -1, "trial_type": "single-stim", "stimulus": "<p id=\"stim\">+</p>", "internal_node_id": "0.0-130.0-0.0", "time_elapsed": 1107169, "key_press": -1, "type": "FIXATION", "trial_index": 184}, "uniqueid": "MTK2404:36U2A8VAG263QPO1LZKV77TYX64YK1", "dateTime": 1517075633644}, {"current_trial": 185, "trialdata": {"rt": -1000, "trial_type": "single-audio", "word": "necklace", "stimulus": "/static/audio/wordpool/NECKLACE.wav", "conditions": [24, 1600, "a", 12000], "internal_node_id": "0.0-131.0", "trial": 5, "time_elapsed": 1109751, "serialpos": 0, "key_press": -1, "wordID": 939, "type": "PRES_AUD", "trial_index": 185}, "uniqueid": "MTK2404:36U2A8VAG263QPO1LZKV77TYX64YK1", "dateTime": 1517075636226}, {"current_trial": 186, "trialdata": {"rt": -1000, "trial_type": "single-audio", "word": "rod", "stimulus": "/static/audio/wordpool/ROD.wav", "conditions": [24, 1600, "a", 12000], "internal_node_id": "0.0-132.0", "trial": 5, "time_elapsed": 1112346, "serialpos": 1, "key_press": -1, "wordID": 1202, "type": "PRES_AUD", "trial_index": 186}, "uniqueid": "MTK2404:36U2A8VAG263QPO1LZKV77TYX64YK1", "dateTime": 1517075638821}, {"current_trial": 187, "trialdata": {"rt": -1000, "trial_type": "single-audio", "word": "parrot", "stimulus": "/static/audio/wordpool/PARROT.wav", "conditions": [24, 1600, "a", 12000], "internal_node_id": "0.0-133.0", "trial": 5, "time_elapsed": 1114919, "serialpos": 2, "key_press": -1, "wordID": 1014, "type": "PRES_AUD", "trial_index": 187}, "uniqueid": "MTK2404:36U2A8VAG263QPO1LZKV77TYX64YK1", "dateTime": 1517075641394}, {"current_trial": 188, "trialdata": {"rt": -1000, "trial_type": "single-audio", "word": "napkin", "stimulus": "/static/audio/wordpool/NAPKIN.wav", "conditions": [24, 1600, "a", 12000], "internal_node_id": "0.0-134.0", "trial": 5, "time_elapsed": 1117569, "serialpos": 3, "key_press": -1, "wordID": 936, "type": "PRES_AUD", "trial_index": 188}, "uniqueid": "MTK2404:36U2A8VAG263QPO1LZKV77TYX64YK1", "dateTime": 1517075644044}, {"current_trial": 189, "trialdata": {"rt": -1000, "trial_type": "single-audio", "word": "tweezers", "stimulus": "/static/audio/wordpool/TWEEZERS.wav", "conditions": [24, 1600, "a", 12000], "internal_node_id": "0.0-135.0", "trial": 5, "time_elapsed": 1120142, "serialpos": 4, "key_press": -1, "wordID": 1525, "type": "PRES_AUD", "trial_index": 189}, "uniqueid": "MTK2404:36U2A8VAG263QPO1LZKV77TYX64YK1", "dateTime": 1517075646618}, {"current_trial": 190, "trialdata": {"rt": -1000, "trial_type": "single-audio", "word": "backbone", "stimulus": "/static/audio/wordpool/BACKBONE.wav", "conditions": [24, 1600, "a", 12000], "internal_node_id": "0.0-136.0", "trial": 5, "time_elapsed": 1122676, "serialpos": 5, "key_press": -1, "wordID": 65, "type": "PRES_AUD", "trial_index": 190}, "uniqueid": "MTK2404:36U2A8VAG263QPO1LZKV77TYX64YK1", "dateTime": 1517075649151}, {"current_trial": 191, "trialdata": {"rt": -1000, "trial_type": "single-audio", "word": "tart", "stimulus": "/static/audio/wordpool/TART.wav", "conditions": [24, 1600, "a", 12000], "internal_node_id": "0.0-137.0", "trial": 5, "time_elapsed": 1125099, "serialpos": 6, "key_press": -1, "wordID": 1435, "type": "PRES_AUD", "trial_index": 191}, "uniqueid": "MTK2404:36U2A8VAG263QPO1LZKV77TYX64YK1", "dateTime": 1517075651575}, {"current_trial": 192, "trialdata": {"rt": -1000, "trial_type": "single-audio", "word": "clothes", "stimulus": "/static/audio/wordpool/CLOTHES.wav", "conditions": [24, 1600, "a", 12000], "internal_node_id": "0.0-138.0", "trial": 5, "time_elapsed": 1127618, "serialpos": 7, "key_press": -1, "wordID": 326, "type": "PRES_AUD", "trial_index": 192}, "uniqueid": "MTK2404:36U2A8VAG263QPO1LZKV77TYX64YK1", "dateTime": 1517075654094}, {"current_trial": 193, "trialdata": {"rt": -1000, "trial_type": "single-audio", "word": "wardrobe", "stimulus": "/static/audio/wordpool/WARDROBE.wav", "conditions": [24, 1600, "a", 12000], "internal_node_id": "0.0-139.0", "trial": 5, "time_elapsed": 1130091, "serialpos": 8, "key_press": -1, "wordID": 1586, "type": "PRES_AUD", "trial_index": 193}, "uniqueid": "MTK2404:36U2A8VAG263QPO1LZKV77TYX64YK1", "dateTime": 1517075656566}, {"current_trial": 194, "trialdata": {"rt": -1000, "trial_type": "single-audio", "word": "cook", "stimulus": "/static/audio/wordpool/COOK.wav", "conditions": [24, 1600, "a", 12000], "internal_node_id": "0.0-140.0", "trial": 5, "time_elapsed": 1132587, "serialpos": 9, "key_press": -1, "wordID": 371, "type": "PRES_AUD", "trial_index": 194}, "uniqueid": "MTK2404:36U2A8VAG263QPO1LZKV77TYX64YK1", "dateTime": 1517075659063}, {"current_trial": 195, "trialdata": {"rt": -1000, "trial_type": "single-audio", "word": "rooster", "stimulus": "/static/audio/wordpool/ROOSTER.wav", "conditions": [24, 1600, "a", 12000], "internal_node_id": "0.0-141.0", "trial": 5, "time_elapsed": 1135339, "serialpos": 10, "key_press": -1, "wordID": 1208, "type": "PRES_AUD", "trial_index": 195}, "uniqueid": "MTK2404:36U2A8VAG263QPO1LZKV77TYX64YK1", "dateTime": 1517075661815}, {"current_trial": 196, "trialdata": {"rt": -1000, "trial_type": "single-audio", "word": "hawk", "stimulus": "/static/audio/wordpool/HAWK.wav", "conditions": [24, 1600, "a", 12000], "internal_node_id": "0.0-142.0", "trial": 5, "time_elapsed": 1137936, "serialpos": 11, "key_press": -1, "wordID": 691, "type": "PRES_AUD", "trial_index": 196}, "uniqueid": "MTK2404:36U2A8VAG263QPO1LZKV77TYX64YK1", "dateTime": 1517075664416}, {"current_trial": 197, "trialdata": {"rt": -1000, "trial_type": "single-audio", "word": "beaker", "stimulus": "/static/audio/wordpool/BEAKER.wav", "conditions": [24, 1600, "a", 12000], "internal_node_id": "0.0-143.0", "trial": 5, "time_elapsed": 1140739, "serialpos": 12, "key_press": -1, "wordID": 103, "type": "PRES_AUD", "trial_index": 197}, "uniqueid": "MTK2404:36U2A8VAG263QPO1LZKV77TYX64YK1", "dateTime": 1517075667214}, {"current_trial": 198, "trialdata": {"rt": -1000, "trial_type": "single-audio", "word": "money", "stimulus": "/static/audio/wordpool/MONEY.wav", "conditions": [24, 1600, "a", 12000], "internal_node_id": "0.0-144.0", "trial": 5, "time_elapsed": 1143215, "serialpos": 13, "key_press": -1, "wordID": 907, "type": "PRES_AUD", "trial_index": 198}, "uniqueid": "MTK2404:36U2A8VAG263QPO1LZKV77TYX64YK1", "dateTime": 1517075669691}, {"current_trial": 199, "trialdata": {"rt": -1000, "trial_type": "single-audio", "word": "fleet", "stimulus": "/static/audio/wordpool/FLEET.wav", "conditions": [24, 1600, "a", 12000], "internal_node_id": "0.0-145.0", "trial": 5, "time_elapsed": 1145986, "serialpos": 14, "key_press": -1, "wordID": 577, "type": "PRES_AUD", "trial_index": 199}, "uniqueid": "MTK2404:36U2A8VAG263QPO1LZKV77TYX64YK1", "dateTime": 1517075672461}, {"current_trial": 200, "trialdata": {"rt": -1000, "trial_type": "single-audio", "word": "tractor", "stimulus": "/static/audio/wordpool/TRACTOR.wav", "conditions": [24, 1600, "a", 12000], "internal_node_id": "0.0-146.0", "trial": 5, "time_elapsed": 1148744, "serialpos": 15, "key_press": -1, "wordID": 1492, "type": "PRES_AUD", "trial_index": 200}, "uniqueid": "MTK2404:36U2A8VAG263QPO1LZKV77TYX64YK1", "dateTime": 1517075675219}, {"current_trial": 201, "trialdata": {"rt": -1000, "trial_type": "single-audio", "word": "poet", "stimulus": "/static/audio/wordpool/POET.wav", "conditions": [24, 1600, "a", 12000], "internal_node_id": "0.0-147.0", "trial": 5, "time_elapsed": 1151473, "serialpos": 16, "key_press": -1, "wordID": 1094, "type": "PRES_AUD", "trial_index": 201}, "uniqueid": "MTK2404:36U2A8VAG263QPO1LZKV77TYX64YK1", "dateTime": 1517075677949}, {"current_trial": 202, "trialdata": {"rt": -1000, "trial_type": "single-audio", "word": "marker", "stimulus": "/static/audio/wordpool/MARKER.wav", "conditions": [24, 1600, "a", 12000], "internal_node_id": "0.0-148.0", "trial": 5, "time_elapsed": 1154012, "serialpos": 17, "key_press": -1, "wordID": 869, "type": "PRES_AUD", "trial_index": 202}, "uniqueid": "MTK2404:36U2A8VAG263QPO1LZKV77TYX64YK1", "dateTime": 1517075680488}, {"current_trial": 203, "trialdata": {"rt": -1000, "trial_type": "single-audio", "word": "grave", "stimulus": "/static/audio/wordpool/GRAVE.wav", "conditions": [24, 1600, "a", 12000], "internal_node_id": "0.0-149.0", "trial": 5, "time_elapsed": 1156706, "serialpos": 18, "key_press": -1, "wordID": 657, "type": "PRES_AUD", "trial_index": 203}, "uniqueid": "MTK2404:36U2A8VAG263QPO1LZKV77TYX64YK1", "dateTime": 1517075683182}, {"current_trial": 204, "trialdata": {"rt": -1000, "trial_type": "single-audio", "word": "vagrant", "stimulus": "/static/audio/wordpool/VAGRANT.wav", "conditions": [24, 1600, "a", 12000], "internal_node_id": "0.0-150.0", "trial": 5, "time_elapsed": 1159406, "serialpos": 19, "key_press": -1, "wordID": 1543, "type": "PRES_AUD", "trial_index": 204}, "uniqueid": "MTK2404:36U2A8VAG263QPO1LZKV77TYX64YK1", "dateTime": 1517075685881}, {"current_trial": 205, "trialdata": {"rt": -1000, "trial_type": "single-audio", "word": "pork", "stimulus": "/static/audio/wordpool/PORK.wav", "conditions": [24, 1600, "a", 12000], "internal_node_id": "0.0-151.0", "trial": 5, "time_elapsed": 1161954, "serialpos": 20, "key_press": -1, "wordID": 1107, "type": "PRES_AUD", "trial_index": 205}, "uniqueid": "MTK2404:36U2A8VAG263QPO1LZKV77TYX64YK1", "dateTime": 1517075688430}, {"current_trial": 206, "trialdata": {"rt": -1000, "trial_type": "single-audio", "word": "bacon", "stimulus": "/static/audio/wordpool/BACON.wav", "conditions": [24, 1600, "a", 12000], "internal_node_id": "0.0-152.0", "trial": 5, "time_elapsed": 1164407, "serialpos": 21, "key_press": -1, "wordID": 66, "type": "PRES_AUD", "trial_index": 206}, "uniqueid": "MTK2404:36U2A8VAG263QPO1LZKV77TYX64YK1", "dateTime": 1517075690882}, {"current_trial": 207, "trialdata": {"rt": -1000, "trial_type": "single-audio", "word": "flask", "stimulus": "/static/audio/wordpool/FLASK.wav", "conditions": [24, 1600, "a", 12000], "internal_node_id": "0.0-153.0", "trial": 5, "time_elapsed": 1166866, "serialpos": 22, "key_press": -1, "wordID": 575, "type": "PRES_AUD", "trial_index": 207}, "uniqueid": "MTK2404:36U2A8VAG263QPO1LZKV77TYX64YK1", "dateTime": 1517075693342}, {"current_trial": 208, "trialdata": {"rt": -1000, "trial_type": "single-audio", "word": "flag", "stimulus": "/static/audio/wordpool/FLAG.wav", "conditions": [24, 1600, "a", 12000], "internal_node_id": "0.0-154.0", "trial": 5, "time_elapsed": 1169595, "serialpos": 23, "key_press": -1, "wordID": 572, "type": "PRES_AUD", "trial_index": 208}, "uniqueid": "MTK2404:36U2A8VAG263QPO1LZKV77TYX64YK1", "dateTime": 1517075696071}, {"current_trial": 209, "trialdata": {"rt": -1, "trial_type": "single-stim", "stimulus": "", "internal_node_id": "0.0-155.0-0.0", "time_elapsed": 1170989, "key_press": -1, "type": "PRE_RECALL_DELAY", "trial_index": 209}, "uniqueid": "MTK2404:36U2A8VAG263QPO1LZKV77TYX64YK1", "dateTime": 1517075697464}, {"current_trial": 210, "trialdata": {"rt": -1000, "trial_type": "single-audio", "stimulus": "/static/audio/400Hz.wav", "internal_node_id": "0.0-156.0", "time_elapsed": 1171494, "key_press": -1, "type": "PRE_RECALL_ALERT", "trial_index": 210}, "uniqueid": "MTK2404:36U2A8VAG263QPO1LZKV77TYX64YK1", "dateTime": 1517075697969}, {"current_trial": 211, "trialdata": {"rt": [3209, 7272, 10626, 12491, 18695, 22342, 25091, 29290, 34602, 39061, 43414, 47220, 49469, 51467, 55186, 58331], "recwords": ["flag", "flask", "bacon", "pork", "vagrant", "grave", "marker", "poet", "fleet", "tractor", "wardrobe", "rooster", "tart", "rod", "necklace", "parrot"], "key_times": [1600, 1773, 1966, 2449, 3209, 4839, 5124, 5280, 5466, 6097, 7272, 8878, 9000, 9269, 9563, 10290, 10626, 11000, 11191, 11664, 11906, 12491, 16050, 16248, 17455, 17635, 17962, 18151, 18362, 18695, 20271, 20359, 20721, 20972, 21122, 22342, 23495, 23625, 23957, 24466, 24628, 24805, 25091, 27999, 28202, 28554, 28799, 29290, 30390, 30973, 31172, 31365, 31505, 31581, 33265, 33641, 34358, 34602, 36645, 36819, 37108, 37330, 37576, 37858, 38070, 38703, 38862, 39061, 40868, 41037, 41320, 41554, 42154, 42580, 42930, 43060, 43414, 45304, 45474, 45610, 45776, 46231, 46361, 46464, 47220, 48046, 48200, 48425, 48641, 49469, 50611, 50796, 51069, 51467, 53113, 53280, 53584, 53875, 54070, 54309, 54637, 54752, 55186, 56687, 56858, 57260, 57377, 57636, 58106, 58331, 59838], "trial_type": "free-recall", "conditions": [24, 1600, "a", 12000], "internal_node_id": "0.0-157.0-0.0", "key_presses": [70, 76, 65, 71, 13, 70, 76, 65, 83, 75, 13, 66, 65, 67, 79, 78, 13, 80, 79, 82, 75, 13, 86, 65, 71, 82, 65, 78, 84, 13, 71, 82, 65, 86, 69, 13, 77, 65, 82, 75, 69, 82, 13, 80, 79, 69, 84, 13, 70, 76, 69, 69, 69, 84, 8, 8, 84, 13, 84, 82, 65, 67, 84, 79, 69, 8, 82, 13, 87, 65, 82, 68, 82, 79, 66, 69, 13, 82, 79, 79, 83, 84, 69, 82, 13, 84, 65, 82, 84, 13, 82, 79, 68, 13, 78, 69, 67, 75, 76, 65, 67, 69, 13, 80, 65, 82, 82, 79, 84, 13, 78], "trial": 5, "time_elapsed": 1231502, "type": "FREE_RECALL", "trial_index": 211}, "uniqueid": "MTK2404:36U2A8VAG263QPO1LZKV77TYX64YK1", "dateTime": 1517075758002}, {"current_trial": 212, "trialdata": {"rt": 4638, "trial_type": "text", "internal_node_id": "0.0-158.0", "time_elapsed": 1238171, "key_press": 83, "type": "INSTRUCTIONS", "trial_index": 212}, "uniqueid": "MTK2404:36U2A8VAG263QPO1LZKV77TYX64YK1", "dateTime": 1517075764646}, {"current_trial": 213, "trialdata": {"rt": [4242, 8779, 11351], "trial_type": "math-distractor", "key_times": [3195, 3987, 4242, 8196, 8431, 8779, 10862, 11063, 11351], "responses": ["16", "13", "12"], "num2": [9, 3, 8, 7], "num3": [4, 6, 2, 6], "conditions": [24, 1600, "a", 12000], "internal_node_id": "0.0-159.0", "key_presses": [49, 54, 13, 49, 51, 13, 49, 50, 13], "trial": 6, "time_elapsed": 1252183, "type": "DISTRACTOR", "trial_index": 213, "num1": [3, 4, 2, 8]}, "uniqueid": "MTK2404:36U2A8VAG263QPO1LZKV77TYX64YK1", "dateTime": 1517075778659}, {"current_trial": 214, "trialdata": {"rt": -1, "trial_type": "single-stim", "stimulus": "<p id=\"stim\">10</p>", "internal_node_id": "0.0-160.0-0.0", "time_elapsed": 1255193, "key_press": -1, "trial_index": 214}, "uniqueid": "MTK2404:36U2A8VAG263QPO1LZKV77TYX64YK1", "dateTime": 1517075781669}, {"current_trial": 215, "trialdata": {"rt": -1, "trial_type": "single-stim", "stimulus": "<p id=\"stim\">9</p>", "internal_node_id": "0.0-160.0-1.0", "time_elapsed": 1256201, "key_press": -1, "trial_index": 215}, "uniqueid": "MTK2404:36U2A8VAG263QPO1LZKV77TYX64YK1", "dateTime": 1517075782677}, {"current_trial": 216, "trialdata": {"rt": -1, "trial_type": "single-stim", "stimulus": "<p id=\"stim\">8</p>", "internal_node_id": "0.0-160.0-2.0", "time_elapsed": 1257206, "key_press": -1, "trial_index": 216}, "uniqueid": "MTK2404:36U2A8VAG263QPO1LZKV77TYX64YK1", "dateTime": 1517075783682}, {"current_trial": 217, "trialdata": {"rt": -1, "trial_type": "single-stim", "stimulus": "<p id=\"stim\">7</p>", "internal_node_id": "0.0-160.0-3.0", "time_elapsed": 1258210, "key_press": -1, "trial_index": 217}, "uniqueid": "MTK2404:36U2A8VAG263QPO1LZKV77TYX64YK1", "dateTime": 1517075784686}, {"current_trial": 218, "trialdata": {"rt": -1, "trial_type": "single-stim", "stimulus": "<p id=\"stim\">6</p>", "internal_node_id": "0.0-160.0-4.0", "time_elapsed": 1259216, "key_press": -1, "trial_index": 218}, "uniqueid": "MTK2404:36U2A8VAG263QPO1LZKV77TYX64YK1", "dateTime": 1517075785691}, {"current_trial": 219, "trialdata": {"rt": -1, "trial_type": "single-stim", "stimulus": "<p id=\"stim\">5</p>", "internal_node_id": "0.0-160.0-5.0", "time_elapsed": 1260219, "key_press": -1, "trial_index": 219}, "uniqueid": "MTK2404:36U2A8VAG263QPO1LZKV77TYX64YK1", "dateTime": 1517075786695}, {"current_trial": 220, "trialdata": {"rt": -1, "trial_type": "single-stim", "stimulus": "<p id=\"stim\">4</p>", "internal_node_id": "0.0-160.0-6.0", "time_elapsed": 1261227, "key_press": -1, "trial_index": 220}, "uniqueid": "MTK2404:36U2A8VAG263QPO1LZKV77TYX64YK1", "dateTime": 1517075787703}, {"current_trial": 221, "trialdata": {"rt": -1, "trial_type": "single-stim", "stimulus": "<p id=\"stim\">3</p>", "internal_node_id": "0.0-160.0-7.0", "time_elapsed": 1262234, "key_press": -1, "trial_index": 221}, "uniqueid": "MTK2404:36U2A8VAG263QPO1LZKV77TYX64YK1", "dateTime": 1517075788710}, {"current_trial": 222, "trialdata": {"rt": -1, "trial_type": "single-stim", "stimulus": "<p id=\"stim\">2</p>", "internal_node_id": "0.0-160.0-8.0", "time_elapsed": 1263241, "key_press": -1, "trial_index": 222}, "uniqueid": "MTK2404:36U2A8VAG263QPO1LZKV77TYX64YK1", "dateTime": 1517075789717}, {"current_trial": 223, "trialdata": {"rt": -1, "trial_type": "single-stim", "stimulus": "<p id=\"stim\">1</p>", "internal_node_id": "0.0-160.0-9.0", "time_elapsed": 1264245, "key_press": -1, "trial_index": 223}, "uniqueid": "MTK2404:36U2A8VAG263QPO1LZKV77TYX64YK1", "dateTime": 1517075790721}, {"current_trial": 224, "trialdata": {"rt": -1, "trial_type": "single-stim", "stimulus": "<p id=\"stim\">+</p>", "internal_node_id": "0.0-161.0-0.0", "time_elapsed": 1265752, "key_press": -1, "type": "FIXATION", "trial_index": 224}, "uniqueid": "MTK2404:36U2A8VAG263QPO1LZKV77TYX64YK1", "dateTime": 1517075792228}, {"current_trial": 225, "trialdata": {"rt": -1000, "trial_type": "single-audio", "word": "penguin", "stimulus": "/static/audio/wordpool/PENGUIN.wav", "conditions": [24, 1600, "a", 12000], "internal_node_id": "0.0-162.0", "trial": 6, "time_elapsed": 1268418, "serialpos": 0, "key_press": -1, "wordID": 1043, "type": "PRES_AUD", "trial_index": 225}, "uniqueid": "MTK2404:36U2A8VAG263QPO1LZKV77TYX64YK1", "dateTime": 1517075794893}, {"current_trial": 226, "trialdata": {"rt": -1000, "trial_type": "single-audio", "word": "lady", "stimulus": "/static/audio/wordpool/LADY.wav", "conditions": [24, 1600, "a", 12000], "internal_node_id": "0.0-163.0", "trial": 6, "time_elapsed": 1271055, "serialpos": 1, "key_press": -1, "wordID": 793, "type": "PRES_AUD", "trial_index": 226}, "uniqueid": "MTK2404:36U2A8VAG263QPO1LZKV77TYX64YK1", "dateTime": 1517075797531}, {"current_trial": 227, "trialdata": {"rt": -1000, "trial_type": "single-audio", "word": "sticker", "stimulus": "/static/audio/wordpool/STICKER.wav", "conditions": [24, 1600, "a", 12000], "internal_node_id": "0.0-164.0", "trial": 6, "time_elapsed": 1273814, "serialpos": 2, "key_press": -1, "wordID": 1381, "type": "PRES_AUD", "trial_index": 227}, "uniqueid": "MTK2404:36U2A8VAG263QPO1LZKV77TYX64YK1", "dateTime": 1517075800289}, {"current_trial": 228, "trialdata": {"rt": -1000, "trial_type": "single-audio", "word": "tile", "stimulus": "/static/audio/wordpool/TILE.wav", "conditions": [24, 1600, "a", 12000], "internal_node_id": "0.0-165.0", "trial": 6, "time_elapsed": 1276268, "serialpos": 3, "key_press": -1, "wordID": 1467, "type": "PRES_AUD", "trial_index": 228}, "uniqueid": "MTK2404:36U2A8VAG263QPO1LZKV77TYX64YK1", "dateTime": 1517075802744}, {"current_trial": 229, "trialdata": {"rt": -1000, "trial_type": "single-audio", "word": "church", "stimulus": "/static/audio/wordpool/CHURCH.wav", "conditions": [24, 1600, "a", 12000], "internal_node_id": "0.0-166.0", "trial": 6, "time_elapsed": 1278976, "serialpos": 4, "key_press": -1, "wordID": 306, "type": "PRES_AUD", "trial_index": 229}, "uniqueid": "MTK2404:36U2A8VAG263QPO1LZKV77TYX64YK1", "dateTime": 1517075805452}, {"current_trial": 230, "trialdata": {"rt": -1000, "trial_type": "single-audio", "word": "coffee", "stimulus": "/static/audio/wordpool/COFFEE.wav", "conditions": [24, 1600, "a", 12000], "internal_node_id": "0.0-167.0", "trial": 6, "time_elapsed": 1281398, "serialpos": 5, "key_press": -1, "wordID": 340, "type": "PRES_AUD", "trial_index": 230}, "uniqueid": "MTK2404:36U2A8VAG263QPO1LZKV77TYX64YK1", "dateTime": 1517075807874}, {"current_trial": 231, "trialdata": {"rt": -1000, "trial_type": "single-audio", "word": "soda", "stimulus": "/static/audio/wordpool/SODA.wav", "conditions": [24, 1600, "a", 12000], "internal_node_id": "0.0-168.0", "trial": 6, "time_elapsed": 1283864, "serialpos": 6, "key_press": -1, "wordID": 1340, "type": "PRES_AUD", "trial_index": 231}, "uniqueid": "MTK2404:36U2A8VAG263QPO1LZKV77TYX64YK1", "dateTime": 1517075810339}, {"current_trial": 232, "trialdata": {"rt": -1000, "trial_type": "single-audio", "word": "chapel", "stimulus": "/static/audio/wordpool/CHAPEL.wav", "conditions": [24, 1600, "a", 12000], "internal_node_id": "0.0-169.0", "trial": 6, "time_elapsed": 1286517, "serialpos": 7, "key_press": -1, "wordID": 279, "type": "PRES_AUD", "trial_index": 232}, "uniqueid": "MTK2404:36U2A8VAG263QPO1LZKV77TYX64YK1", "dateTime": 1517075812993}, {"current_trial": 233, "trialdata": {"rt": -1000, "trial_type": "single-audio", "word": "coin", "stimulus": "/static/audio/wordpool/COIN.wav", "conditions": [24, 1600, "a", 12000], "internal_node_id": "0.0-170.0", "trial": 6, "time_elapsed": 1289098, "serialpos": 8, "key_press": -1, "wordID": 342, "type": "PRES_AUD", "trial_index": 233}, "uniqueid": "MTK2404:36U2A8VAG263QPO1LZKV77TYX64YK1", "dateTime": 1517075815573}, {"current_trial": 234, "trialdata": {"rt": -1000, "trial_type": "single-audio", "word": "cyclone", "stimulus": "/static/audio/wordpool/CYCLONE.wav", "conditions": [24, 1600, "a", 12000], "internal_node_id": "0.0-171.0", "trial": 6, "time_elapsed": 1291893, "serialpos": 9, "key_press": -1, "wordID": 430, "type": "PRES_AUD", "trial_index": 234}, "uniqueid": "MTK2404:36U2A8VAG263QPO1LZKV77TYX64YK1", "dateTime": 1517075818368}, {"current_trial": 235, "trialdata": {"rt": -1000, "trial_type": "single-audio", "word": "orchid", "stimulus": "/static/audio/wordpool/ORCHID.wav", "conditions": [24, 1600, "a", 12000], "internal_node_id": "0.0-172.0", "trial": 6, "time_elapsed": 1294615, "serialpos": 10, "key_press": -1, "wordID": 981, "type": "PRES_AUD", "trial_index": 235}, "uniqueid": "MTK2404:36U2A8VAG263QPO1LZKV77TYX64YK1", "dateTime": 1517075821090}, {"current_trial": 236, "trialdata": {"rt": -1000, "trial_type": "single-audio", "word": "worker", "stimulus": "/static/audio/wordpool/WORKER.wav", "conditions": [24, 1600, "a", 12000], "internal_node_id": "0.0-173.0", "trial": 6, "time_elapsed": 1297028, "serialpos": 11, "key_press": -1, "wordID": 1620, "type": "PRES_AUD", "trial_index": 236}, "uniqueid": "MTK2404:36U2A8VAG263QPO1LZKV77TYX64YK1", "dateTime": 1517075823503}, {"current_trial": 237, "trialdata": {"rt": -1000, "trial_type": "single-audio", "word": "ghetto", "stimulus": "/static/audio/wordpool/GHETTO.wav", "conditions": [24, 1600, "a", 12000], "internal_node_id": "0.0-174.0", "trial": 6, "time_elapsed": 1299648, "serialpos": 12, "key_press": -1, "wordID": 632, "type": "PRES_AUD", "trial_index": 237}, "uniqueid": "MTK2404:36U2A8VAG263QPO1LZKV77TYX64YK1", "dateTime": 1517075826124}, {"current_trial": 238, "trialdata": {"rt": -1000, "trial_type": "single-audio", "word": "film", "stimulus": "/static/audio/wordpool/FILM.wav", "conditions": [24, 1600, "a", 12000], "internal_node_id": "0.0-175.0", "trial": 6, "time_elapsed": 1302434, "serialpos": 13, "key_press": -1, "wordID": 564, "type": "PRES_AUD", "trial_index": 238}, "uniqueid": "MTK2404:36U2A8VAG263QPO1LZKV77TYX64YK1", "dateTime": 1517075828909}, {"current_trial": 239, "trialdata": {"rt": -1000, "trial_type": "single-audio", "word": "france", "stimulus": "/static/audio/wordpool/FRANCE.wav", "conditions": [24, 1600, "a", 12000], "internal_node_id": "0.0-176.0", "trial": 6, "time_elapsed": 1305237, "serialpos": 14, "key_press": -1, "wordID": 600, "type": "PRES_AUD", "trial_index": 239}, "uniqueid": "MTK2404:36U2A8VAG263QPO1LZKV77TYX64YK1", "dateTime": 1517075831713}, {"current_trial": 240, "trialdata": {"rt": -1000, "trial_type": "single-audio", "word": "london", "stimulus": "/static/audio/wordpool/LONDON.wav", "conditions": [24, 1600, "a", 12000], "internal_node_id": "0.0-177.0", "trial": 6, "time_elapsed": 1307684, "serialpos": 15, "key_press": -1, "wordID": 842, "type": "PRES_AUD", "trial_index": 240}, "uniqueid": "MTK2404:36U2A8VAG263QPO1LZKV77TYX64YK1", "dateTime": 1517075834159}, {"current_trial": 241, "trialdata": {"rt": -1000, "trial_type": "single-audio", "word": "honey", "stimulus": "/static/audio/wordpool/HONEY.wav", "conditions": [24, 1600, "a", 12000], "internal_node_id": "0.0-178.0", "trial": 6, "time_elapsed": 1310217, "serialpos": 16, "key_press": -1, "wordID": 712, "type": "PRES_AUD", "trial_index": 241}, "uniqueid": "MTK2404:36U2A8VAG263QPO1LZKV77TYX64YK1", "dateTime": 1517075836692}, {"current_trial": 242, "trialdata": {"rt": -1000, "trial_type": "single-audio", "word": "turkey", "stimulus": "/static/audio/wordpool/TURKEY.wav", "conditions": [24, 1600, "a", 12000], "internal_node_id": "0.0-179.0", "trial": 6, "time_elapsed": 1312995, "serialpos": 17, "key_press": -1, "wordID": 1519, "type": "PRES_AUD", "trial_index": 242}, "uniqueid": "MTK2404:36U2A8VAG263QPO1LZKV77TYX64YK1", "dateTime": 1517075839472}, {"current_trial": 243, "trialdata": {"rt": -1000, "trial_type": "single-audio", "word": "hatchet", "stimulus": "/static/audio/wordpool/HATCHET.wav", "conditions": [24, 1600, "a", 12000], "internal_node_id": "0.0-180.0", "trial": 6, "time_elapsed": 1315570, "serialpos": 18, "key_press": -1, "wordID": 690, "type": "PRES_AUD", "trial_index": 243}, "uniqueid": "MTK2404:36U2A8VAG263QPO1LZKV77TYX64YK1", "dateTime": 1517075842045}, {"current_trial": 244, "trialdata": {"rt": -1000, "trial_type": "single-audio", "word": "orange", "stimulus": "/static/audio/wordpool/ORANGE.wav", "conditions": [24, 1600, "a", 12000], "internal_node_id": "0.0-181.0", "trial": 6, "time_elapsed": 1318090, "serialpos": 19, "key_press": -1, "wordID": 979, "type": "PRES_AUD", "trial_index": 244}, "uniqueid": "MTK2404:36U2A8VAG263QPO1LZKV77TYX64YK1", "dateTime": 1517075844566}, {"current_trial": 245, "trialdata": {"rt": -1000, "trial_type": "single-audio", "word": "quai