{"assignmentId": "3QIYRE09Y4O78PY16N52LCZSK4N1NA", "workerId": "MTK2503", "questiondata": {"origin": "United States", "strat-rehearsal": "93", "marital": "Single", "education": "Bachelor's degree", "ethnicity": "Not Hispanic", "color_depth": 24, "distracted": "No", "wrote-notes": "Yes", "strat-other": "", "screen_width": 1366, "avail_screen_width": 1366, "avail_screen_height": 728, "strat-image": "48", "language": "english", "gender": "Male", "age": "32", "gender_other": "", "race": ["White"], "strat-categorize": "95", "pixel_depth": 24, "strat-spatial": "7", "strat-story": "22", "race_other": "", "screen_height": 768}, "bonus": 0, "hitId": "32L724R85LRGOW8I47YYSGPPI4KPIF", "counterbalance": 1961, "useragent": "Mozilla/5.0 (Windows NT 10.0; WOW64) AppleWebKit/537.36 (KHTML, like Gecko) Chrome/63.0.3239.132 Safari/537.36", "eventdata": [{"eventtype": "initialized", "interval": 0, "value": null, "timestamp": 1517869162006}, {"eventtype": "window_resize", "interval": 0, "value": [1366, 721], "timestamp": 1517869162006}, {"eventtype": "focus", "interval": 1842, "value": "off", "timestamp": 1517869163848}, {"eventtype": "focus", "interval": 14365, "value": "on", "timestamp": 1517869178213}, {"eventtype": "window_resize", "interval": 6903, "value": [1366, 677], "timestamp": 1517869185116}, {"eventtype": "window_resize", "interval": 404362, "value": [1366, 721], "timestamp": 1517869589478}, {"eventtype": "focus", "interval": 1394, "value": "off", "timestamp": 1517869590872}, {"eventtype": "focus", "interval": 3949, "value": "on", "timestamp": 1517869594821}, {"eventtype": "window_resize", "interval": 19640, "value": [1366, 677], "timestamp": 1517869614461}, {"eventtype": "window_resize", "interval": 107780, "value": [1366, 721], "timestamp": 1517869722241}, {"eventtype": "focus", "interval": 1768, "value": "off", "timestamp": 1517869724009}, {"eventtype": "focus", "interval": 5493, "value": "on", "timestamp": 1517869729502}, {"eventtype": "window_resize", "interval": 3025, "value": [1366, 677], "timestamp": 1517869732527}, {"eventtype": "window_resize", "interval": 2522634, "value": [1366, 721], "timestamp": 1517872255161}, {"eventtype": "focus", "interval": 4137, "value": "off", "timestamp": 1517872259298}, {"eventtype": "focus", "interval": 5404, "value": "on", "timestamp": 1517872264702}, {"eventtype": "window_resize", "interval": 9194, "value": [1366, 677], "timestamp": 1517872273896}], "data": [{"current_trial": 0, "trialdata": {"rt": 3426, "trial_type": "text", "internal_node_id": "0.0-0.0", "time_elapsed": 3433, "key_press": 32, "type": "INSTRUCTIONS", "trial_index": 0}, "uniqueid": "MTK2503:3QIYRE09Y4O78PY16N52LCZSK4N1NA", "dateTime": 1517869185727}, {"current_trial": 1, "trialdata": {"rt": 10193, "trial_type": "text", "internal_node_id": "0.0-1.0", "time_elapsed": 13636, "key_press": 175, "type": "INSTRUCTIONS", "trial_index": 1}, "uniqueid": "MTK2503:3QIYRE09Y4O78PY16N52LCZSK4N1NA", "dateTime": 1517869195926}, {"current_trial": 2, "trialdata": {"rt": [14130], "trial_type": "audio-test", "responses": ["ocean"], "internal_node_id": "0.0-2.0", "time_elapsed": 27798, "type": "AUDIO_TEST", "trial_index": 2}, "uniqueid": "MTK2503:3QIYRE09Y4O78PY16N52LCZSK4N1NA", "dateTime": 1517869210089}, {"current_trial": 3, "trialdata": {"rt": [6887], "trial_type": "audio-test", "responses": ["crystal"], "internal_node_id": "0.0-3.0", "time_elapsed": 34704, "type": "AUDIO_TEST", "trial_index": 3}, "uniqueid": "MTK2503:3QIYRE09Y4O78PY16N52LCZSK4N1NA", "dateTime": 1517869216995}, {"current_trial": 4, "trialdata": {"rt": [9012], "trial_type": "audio-test", "responses": ["spice"], "internal_node_id": "0.0-4.0", "time_elapsed": 43731, "type": "AUDIO_TEST", "trial_index": 4}, "uniqueid": "MTK2503:3QIYRE09Y4O78PY16N52LCZSK4N1NA", "dateTime": 1517869226022}, {"current_trial": 5, "trialdata": {"rt": 21167, "trial_type": "survey-text", "responses": "{\"Q0\":\"1 am\",\"Q1\":\"6 am\",\"Q2\":\"4\"}", "internal_node_id": "0.0-5.0", "time_elapsed": 65665, "type": "SLEEP_SURVEY", "trial_index": 5}, "uniqueid": "MTK2503:3QIYRE09Y4O78PY16N52LCZSK4N1NA", "dateTime": 1517869247955}, {"current_trial": 6, "trialdata": {"rt": 41640, "trial_type": "text", "internal_node_id": "0.0-6.0", "time_elapsed": 108313, "key_press": 32, "type": "INSTRUCTIONS", "trial_index": 6}, "uniqueid": "MTK2503:3QIYRE09Y4O78PY16N52LCZSK4N1NA", "dateTime": 1517869290603}, {"current_trial": 7, "trialdata": {"rt": 19249, "trial_type": "text", "internal_node_id": "0.0-7.0", "time_elapsed": 128067, "key_press": 32, "type": "INSTRUCTIONS", "trial_index": 7}, "uniqueid": "MTK2503:3QIYRE09Y4O78PY16N52LCZSK4N1NA", "dateTime": 1517869310357}, {"current_trial": 8, "trialdata": {"rt": 10497, "trial_type": "text", "internal_node_id": "0.0-8.0", "time_elapsed": 139072, "key_press": 32, "type": "INSTRUCTIONS", "trial_index": 8}, "uniqueid": "MTK2503:3QIYRE09Y4O78PY16N52LCZSK4N1NA", "dateTime": 1517869321362}, {"current_trial": 9, "trialdata": {"rt": [3390, 6565, 9055, 11615, 14177, 16917], "trial_type": "math-distractor", "key_times": [1885, 2171, 3390, 5454, 6565, 8033, 8206, 9055, 10892, 11057, 11615, 13480, 13666, 14177, 16037, 16288, 16917], "responses": ["17", "8", "23", "21", "11", "14"], "num2": [8, 1, 9, 9, 4, 9, 4], "num3": [1, 4, 5, 4, 5, 1, 1], "conditions": [18, 1200, "a", 18000], "internal_node_id": "0.0-9.0", "key_presses": [97, 103, 13, 104, 13, 98, 99, 13, 98, 97, 13, 97, 97, 13, 97, 100, 13], "trial": 0, "time_elapsed": 158169, "type": "DISTRACTOR", "trial_index": 9, "num1": [8, 3, 9, 8, 2, 4, 2]}, "uniqueid": "MTK2503:3QIYRE09Y4O78PY16N52LCZSK4N1NA", "dateTime": 1517869340459}, {"current_trial": 10, "trialdata": {"rt": -1, "trial_type": "single-stim", "stimulus": "<p id=\"stim\">10</p>", "internal_node_id": "0.0-10.0-0.0", "time_elapsed": 161172, "key_press": -1, "trial_index": 10}, "uniqueid": "MTK2503:3QIYRE09Y4O78PY16N52LCZSK4N1NA", "dateTime": 1517869343466}, {"current_trial": 11, "trialdata": {"rt": -1, "trial_type": "single-stim", "stimulus": "<p id=\"stim\">9</p>", "internal_node_id": "0.0-10.0-1.0", "time_elapsed": 162180, "key_press": -1, "trial_index": 11}, "uniqueid": "MTK2503:3QIYRE09Y4O78PY16N52LCZSK4N1NA", "dateTime": 1517869344470}, {"current_trial": 12, "trialdata": {"rt": -1, "trial_type": "single-stim", "stimulus": "<p id=\"stim\">8</p>", "internal_node_id": "0.0-10.0-2.0", "time_elapsed": 163182, "key_press": -1, "trial_index": 12}, "uniqueid": "MTK2503:3QIYRE09Y4O78PY16N52LCZSK4N1NA", "dateTime": 1517869345472}, {"current_trial": 13, "trialdata": {"rt": -1, "trial_type": "single-stim", "stimulus": "<p id=\"stim\">7</p>", "internal_node_id": "0.0-10.0-3.0", "time_elapsed": 164182, "key_press": -1, "trial_index": 13}, "uniqueid": "MTK2503:3QIYRE09Y4O78PY16N52LCZSK4N1NA", "dateTime": 1517869346472}, {"current_trial": 14, "trialdata": {"rt": -1, "trial_type": "single-stim", "stimulus": "<p id=\"stim\">6</p>", "internal_node_id": "0.0-10.0-4.0", "time_elapsed": 165182, "key_press": -1, "trial_index": 14}, "uniqueid": "MTK2503:3QIYRE09Y4O78PY16N52LCZSK4N1NA", "dateTime": 1517869347472}, {"current_trial": 15, "trialdata": {"rt": -1, "trial_type": "single-stim", "stimulus": "<p id=\"stim\">5</p>", "internal_node_id": "0.0-10.0-5.0", "time_elapsed": 166189, "key_press": -1, "trial_index": 15}, "uniqueid": "MTK2503:3QIYRE09Y4O78PY16N52LCZSK4N1NA", "dateTime": 1517869348479}, {"current_trial": 16, "trialdata": {"rt": -1, "trial_type": "single-stim", "stimulus": "<p id=\"stim\">4</p>", "internal_node_id": "0.0-10.0-6.0", "time_elapsed": 167190, "key_press": -1, "trial_index": 16}, "uniqueid": "MTK2503:3QIYRE09Y4O78PY16N52LCZSK4N1NA", "dateTime": 1517869349484}, {"current_trial": 17, "trialdata": {"rt": -1, "trial_type": "single-stim", "stimulus": "<p id=\"stim\">3</p>", "internal_node_id": "0.0-10.0-7.0", "time_elapsed": 168198, "key_press": -1, "trial_index": 17}, "uniqueid": "MTK2503:3QIYRE09Y4O78PY16N52LCZSK4N1NA", "dateTime": 1517869350488}, {"current_trial": 18, "trialdata": {"rt": -1, "trial_type": "single-stim", "stimulus": "<p id=\"stim\">2</p>", "internal_node_id": "0.0-10.0-8.0", "time_elapsed": 169199, "key_press": -1, "trial_index": 18}, "uniqueid": "MTK2503:3QIYRE09Y4O78PY16N52LCZSK4N1NA", "dateTime": 1517869351489}, {"current_trial": 19, "trialdata": {"rt": -1, "trial_type": "single-stim", "stimulus": "<p id=\"stim\">1</p>", "internal_node_id": "0.0-10.0-9.0", "time_elapsed": 170200, "key_press": -1, "trial_index": 19}, "uniqueid": "MTK2503:3QIYRE09Y4O78PY16N52LCZSK4N1NA", "dateTime": 1517869352490}, {"current_trial": 20, "trialdata": {"rt": -1, "trial_type": "single-stim", "stimulus": "<p id=\"stim\">+</p>", "internal_node_id": "0.0-11.0-0.0", "time_elapsed": 171702, "key_press": -1, "type": "FIXATION", "trial_index": 20}, "uniqueid": "MTK2503:3QIYRE09Y4O78PY16N52LCZSK4N1NA", "dateTime": 1517869353992}, {"current_trial": 21, "trialdata": {"rt": -1000, "trial_type": "single-audio", "word": "apron", "stimulus": "/static/audio/wordpool/APRON.wav", "conditions": [18, 1200, "a", 18000], "internal_node_id": "0.0-12.0", "trial": 0, "time_elapsed": 173929, "serialpos": 0, "key_press": -1, "wordID": 34, "type": "PRES_AUD", "trial_index": 21}, "uniqueid": "MTK2503:3QIYRE09Y4O78PY16N52LCZSK4N1NA", "dateTime": 1517869356219}, {"current_trial": 22, "trialdata": {"rt": -1000, "trial_type": "single-audio", "word": "mattress", "stimulus": "/static/audio/wordpool/MATTRESS.wav", "conditions": [18, 1200, "a", 18000], "internal_node_id": "0.0-13.0", "trial": 0, "time_elapsed": 176215, "serialpos": 1, "key_press": -1, "wordID": 878, "type": "PRES_AUD", "trial_index": 22}, "uniqueid": "MTK2503:3QIYRE09Y4O78PY16N52LCZSK4N1NA", "dateTime": 1517869358506}, {"current_trial": 23, "trialdata": {"rt": -1000, "trial_type": "single-audio", "word": "bunny", "stimulus": "/static/audio/wordpool/BUNNY.wav", "conditions": [18, 1200, "a", 18000], "internal_node_id": "0.0-14.0", "trial": 0, "time_elapsed": 178423, "serialpos": 2, "key_press": -1, "wordID": 197, "type": "PRES_AUD", "trial_index": 23}, "uniqueid": "MTK2503:3QIYRE09Y4O78PY16N52LCZSK4N1NA", "dateTime": 1517869360714}, {"current_trial": 24, "trialdata": {"rt": -1000, "trial_type": "single-audio", "word": "salad", "stimulus": "/static/audio/wordpool/SALAD.wav", "conditions": [18, 1200, "a", 18000], "internal_node_id": "0.0-15.0", "trial": 0, "time_elapsed": 180675, "serialpos": 3, "key_press": -1, "wordID": 1223, "type": "PRES_AUD", "trial_index": 24}, "uniqueid": "MTK2503:3QIYRE09Y4O78PY16N52LCZSK4N1NA", "dateTime": 1517869362966}, {"current_trial": 25, "trialdata": {"rt": -1000, "trial_type": "single-audio", "word": "queen", "stimulus": "/static/audio/wordpool/QUEEN.wav", "conditions": [18, 1200, "a", 18000], "internal_node_id": "0.0-16.0", "trial": 0, "time_elapsed": 182740, "serialpos": 4, "key_press": -1, "wordID": 1148, "type": "PRES_AUD", "trial_index": 25}, "uniqueid": "MTK2503:3QIYRE09Y4O78PY16N52LCZSK4N1NA", "dateTime": 1517869365030}, {"current_trial": 26, "trialdata": {"rt": -1000, "trial_type": "single-audio", "word": "finger", "stimulus": "/static/audio/wordpool/FINGER.wav", "conditions": [18, 1200, "a", 18000], "internal_node_id": "0.0-17.0", "trial": 0, "time_elapsed": 185017, "serialpos": 5, "key_press": -1, "wordID": 566, "type": "PRES_AUD", "trial_index": 26}, "uniqueid": "MTK2503:3QIYRE09Y4O78PY16N52LCZSK4N1NA", "dateTime": 1517869367307}, {"current_trial": 27, "trialdata": {"rt": -1000, "trial_type": "single-audio", "word": "bank", "stimulus": "/static/audio/wordpool/BANK.wav", "conditions": [18, 1200, "a", 18000], "internal_node_id": "0.0-18.0", "trial": 0, "time_elapsed": 187342, "serialpos": 6, "key_press": -1, "wordID": 82, "type": "PRES_AUD", "trial_index": 27}, "uniqueid": "MTK2503:3QIYRE09Y4O78PY16N52LCZSK4N1NA", "dateTime": 1517869369632}, {"current_trial": 28, "trialdata": {"rt": -1000, "trial_type": "single-audio", "word": "hostess", "stimulus": "/static/audio/wordpool/HOSTESS.wav", "conditions": [18, 1200, "a", 18000], "internal_node_id": "0.0-19.0", "trial": 0, "time_elapsed": 189550, "serialpos": 7, "key_press": -1, "wordID": 722, "type": "PRES_AUD", "trial_index": 28}, "uniqueid": "MTK2503:3QIYRE09Y4O78PY16N52LCZSK4N1NA", "dateTime": 1517869371841}, {"current_trial": 29, "trialdata": {"rt": -1000, "trial_type": "single-audio", "word": "sparrow", "stimulus": "/static/audio/wordpool/SPARROW.wav", "conditions": [18, 1200, "a", 18000], "internal_node_id": "0.0-20.0", "trial": 0, "time_elapsed": 191705, "serialpos": 8, "key_press": -1, "wordID": 1346, "type": "PRES_AUD", "trial_index": 29}, "uniqueid": "MTK2503:3QIYRE09Y4O78PY16N52LCZSK4N1NA", "dateTime": 1517869373996}, {"current_trial": 30, "trialdata": {"rt": -1000, "trial_type": "single-audio", "word": "lizard", "stimulus": "/static/audio/wordpool/LIZARD.wav", "conditions": [18, 1200, "a", 18000], "internal_node_id": "0.0-21.0", "trial": 0, "time_elapsed": 193837, "serialpos": 9, "key_press": -1, "wordID": 833, "type": "PRES_AUD", "trial_index": 30}, "uniqueid": "MTK2503:3QIYRE09Y4O78PY16N52LCZSK4N1NA", "dateTime": 1517869376127}, {"current_trial": 31, "trialdata": {"rt": -1000, "trial_type": "single-audio", "word": "author", "stimulus": "/static/audio/wordpool/AUTHOR.wav", "conditions": [18, 1200, "a", 18000], "internal_node_id": "0.0-22.0", "trial": 0, "time_elapsed": 195852, "serialpos": 10, "key_press": -1, "wordID": 60, "type": "PRES_AUD", "trial_index": 31}, "uniqueid": "MTK2503:3QIYRE09Y4O78PY16N52LCZSK4N1NA", "dateTime": 1517869378142}, {"current_trial": 32, "trialdata": {"rt": -1000, "trial_type": "single-audio", "word": "turtle", "stimulus": "/static/audio/wordpool/TURTLE.wav", "conditions": [18, 1200, "a", 18000], "internal_node_id": "0.0-23.0", "trial": 0, "time_elapsed": 198128, "serialpos": 11, "key_press": -1, "wordID": 1521, "type": "PRES_AUD", "trial_index": 32}, "uniqueid": "MTK2503:3QIYRE09Y4O78PY16N52LCZSK4N1NA", "dateTime": 1517869380419}, {"current_trial": 33, "trialdata": {"rt": -1000, "trial_type": "single-audio", "word": "gymnast", "stimulus": "/static/audio/wordpool/GYMNAST.wav", "conditions": [18, 1200, "a", 18000], "internal_node_id": "0.0-24.0", "trial": 0, "time_elapsed": 200215, "serialpos": 12, "key_press": -1, "wordID": 674, "type": "PRES_AUD", "trial_index": 33}, "uniqueid": "MTK2503:3QIYRE09Y4O78PY16N52LCZSK4N1NA", "dateTime": 1517869382506}, {"current_trial": 34, "trialdata": {"rt": -1000, "trial_type": "single-audio", "word": "motel", "stimulus": "/static/audio/wordpool/MOTEL.wav", "conditions": [18, 1200, "a", 18000], "internal_node_id": "0.0-25.0", "trial": 0, "time_elapsed": 202505, "serialpos": 13, "key_press": -1, "wordID": 918, "type": "PRES_AUD", "trial_index": 34}, "uniqueid": "MTK2503:3QIYRE09Y4O78PY16N52LCZSK4N1NA", "dateTime": 1517869384795}, {"current_trial": 35, "trialdata": {"rt": -1000, "trial_type": "single-audio", "word": "marker", "stimulus": "/static/audio/wordpool/MARKER.wav", "conditions": [18, 1200, "a", 18000], "internal_node_id": "0.0-26.0", "trial": 0, "time_elapsed": 204686, "serialpos": 14, "key_press": -1, "wordID": 869, "type": "PRES_AUD", "trial_index": 35}, "uniqueid": "MTK2503:3QIYRE09Y4O78PY16N52LCZSK4N1NA", "dateTime": 1517869386977}, {"current_trial": 36, "trialdata": {"rt": -1000, "trial_type": "single-audio", "word": "servant", "stimulus": "/static/audio/wordpool/SERVANT.wav", "conditions": [18, 1200, "a", 18000], "internal_node_id": "0.0-27.0", "trial": 0, "time_elapsed": 206740, "serialpos": 15, "key_press": -1, "wordID": 1270, "type": "PRES_AUD", "trial_index": 36}, "uniqueid": "MTK2503:3QIYRE09Y4O78PY16N52LCZSK4N1NA", "dateTime": 1517869389030}, {"current_trial": 37, "trialdata": {"rt": -1000, "trial_type": "single-audio", "word": "motor", "stimulus": "/static/audio/wordpool/MOTOR.wav", "conditions": [18, 1200, "a", 18000], "internal_node_id": "0.0-28.0", "trial": 0, "time_elapsed": 209137, "serialpos": 16, "key_press": -1, "wordID": 921, "type": "PRES_AUD", "trial_index": 37}, "uniqueid": "MTK2503:3QIYRE09Y4O78PY16N52LCZSK4N1NA", "dateTime": 1517869391427}, {"current_trial": 38, "trialdata": {"rt": -1000, "trial_type": "single-audio", "word": "valve", "stimulus": "/static/audio/wordpool/VALVE.wav", "conditions": [18, 1200, "a", 18000], "internal_node_id": "0.0-29.0", "trial": 0, "time_elapsed": 211351, "serialpos": 17, "key_press": -1, "wordID": 1545, "type": "PRES_AUD", "trial_index": 38}, "uniqueid": "MTK2503:3QIYRE09Y4O78PY16N52LCZSK4N1NA", "dateTime": 1517869393641}, {"current_trial": 39, "trialdata": {"rt": -1, "trial_type": "single-stim", "stimulus": "", "internal_node_id": "0.0-30.0-0.0", "time_elapsed": 212668, "key_press": -1, "type": "PRE_RECALL_DELAY", "trial_index": 39}, "uniqueid": "MTK2503:3QIYRE09Y4O78PY16N52LCZSK4N1NA", "dateTime": 1517869394959}, {"current_trial": 40, "trialdata": {"rt": -1000, "trial_type": "single-audio", "stimulus": "/static/audio/400Hz.wav", "internal_node_id": "0.0-31.0", "time_elapsed": 213175, "key_press": -1, "type": "PRE_RECALL_ALERT", "trial_index": 40}, "uniqueid": "MTK2503:3QIYRE09Y4O78PY16N52LCZSK4N1NA", "dateTime": 1517869395465}, {"current_trial": 41, "trialdata": {"rt": [3058, 6648, 10182, 13036, 16141, 18748, 20568, 26784, 55954], "recwords": ["hostess", "sparrow", "apron", "mattress", "queen", "bunny", "motel", "gymnast", "turtle"], "key_times": [1590, 1765, 1945, 2240, 2472, 2724, 2846, 3058, 4140, 4335, 4482, 4777, 4942, 5990, 6306, 6648, 8488, 8714, 8985, 9176, 9477, 10182, 10827, 10991, 11450, 11667, 12089, 12231, 12473, 12636, 13036, 14274, 14622, 14882, 15058, 15358, 16141, 16811, 16925, 17204, 17391, 17702, 18748, 19245, 19375, 19563, 19802, 20025, 20568, 24715, 24963, 25250, 25528, 25707, 25928, 26368, 26784, 53759, 53942, 54225, 54522, 54745, 55136, 55954], "trial_type": "free-recall", "conditions": [18, 1200, "a", 18000], "internal_node_id": "0.0-32.0-0.0", "key_presses": [72, 79, 83, 84, 69, 83, 83, 32, 83, 80, 65, 82, 82, 79, 87, 32, 65, 80, 82, 79, 78, 32, 77, 65, 84, 84, 82, 69, 83, 83, 32, 81, 85, 69, 69, 78, 32, 66, 85, 78, 78, 89, 32, 77, 79, 84, 69, 76, 32, 71, 89, 77, 78, 65, 83, 84, 32, 84, 85, 82, 84, 76, 69, 32], "trial": 0, "time_elapsed": 273182, "type": "FREE_RECALL", "trial_index": 41}, "uniqueid": "MTK2503:3QIYRE09Y4O78PY16N52LCZSK4N1NA", "dateTime": 1517869455480}, {"current_trial": 42, "trialdata": {"rt": 1381, "trial_type": "text", "internal_node_id": "0.0-33.0", "time_elapsed": 276575, "key_press": 32, "type": "INSTRUCTIONS", "trial_index": 42}, "uniqueid": "MTK2503:3QIYRE09Y4O78PY16N52LCZSK4N1NA", "dateTime": 1517869458865}, {"current_trial": 43, "trialdata": {"rt": [2091, 6412, 8939, 10925, 13356, 16079], "trial_type": "math-distractor", "key_times": [1717, 2091, 4846, 6412, 8073, 8182, 8939, 10367, 10549, 10925, 12419, 12543, 13356, 15292, 15455, 16079], "responses": ["8", "9", "15", "14", "12", "14"], "num2": [4, 2, 5, 7, 3, 4, 1], "num3": [1, 6, 2, 4, 3, 4, 7], "conditions": [18, 1200, "a", 18000], "internal_node_id": "0.0-34.0", "key_presses": [104, 13, 105, 13, 97, 101, 13, 97, 100, 13, 97, 98, 13, 97, 100, 13], "trial": 1, "time_elapsed": 296583, "type": "DISTRACTOR", "trial_index": 43, "num1": [3, 1, 8, 3, 6, 6, 8]}, "uniqueid": "MTK2503:3QIYRE09Y4O78PY16N52LCZSK4N1NA", "dateTime": 1517869478873}, {"current_trial": 44, "trialdata": {"rt": -1, "trial_type": "single-stim", "stimulus": "<p id=\"stim\">10</p>", "internal_node_id": "0.0-35.0-0.0", "time_elapsed": 299584, "key_press": -1, "trial_index": 44}, "uniqueid": "MTK2503:3QIYRE09Y4O78PY16N52LCZSK4N1NA", "dateTime": 1517869481874}, {"current_trial": 45, "trialdata": {"rt": -1, "trial_type": "single-stim", "stimulus": "<p id=\"stim\">9</p>", "internal_node_id": "0.0-35.0-1.0", "time_elapsed": 300586, "key_press": -1, "trial_index": 45}, "uniqueid": "MTK2503:3QIYRE09Y4O78PY16N52LCZSK4N1NA", "dateTime": 1517869482876}, {"current_trial": 46, "trialdata": {"rt": -1, "trial_type": "single-stim", "stimulus": "<p id=\"stim\">8</p>", "internal_node_id": "0.0-35.0-2.0", "time_elapsed": 301588, "key_press": -1, "trial_index": 46}, "uniqueid": "MTK2503:3QIYRE09Y4O78PY16N52LCZSK4N1NA", "dateTime": 1517869483878}, {"current_trial": 47, "trialdata": {"rt": -1, "trial_type": "single-stim", "stimulus": "<p id=\"stim\">7</p>", "internal_node_id": "0.0-35.0-3.0", "time_elapsed": 302588, "key_press": -1, "trial_index": 47}, "uniqueid": "MTK2503:3QIYRE09Y4O78PY16N52LCZSK4N1NA", "dateTime": 1517869484878}, {"current_trial": 48, "trialdata": {"rt": -1, "trial_type": "single-stim", "stimulus": "<p id=\"stim\">6</p>", "internal_node_id": "0.0-35.0-4.0", "time_elapsed": 303591, "key_press": -1, "trial_index": 48}, "uniqueid": "MTK2503:3QIYRE09Y4O78PY16N52LCZSK4N1NA", "dateTime": 1517869485881}, {"current_trial": 49, "trialdata": {"rt": -1, "trial_type": "single-stim", "stimulus": "<p id=\"stim\">5</p>", "internal_node_id": "0.0-35.0-5.0", "time_elapsed": 304597, "key_press": -1, "trial_index": 49}, "uniqueid": "MTK2503:3QIYRE09Y4O78PY16N52LCZSK4N1NA", "dateTime": 1517869486887}, {"current_trial": 50, "trialdata": {"rt": -1, "trial_type": "single-stim", "stimulus": "<p id=\"stim\">4</p>", "internal_node_id": "0.0-35.0-6.0", "time_elapsed": 305599, "key_press": -1, "trial_index": 50}, "uniqueid": "MTK2503:3QIYRE09Y4O78PY16N52LCZSK4N1NA", "dateTime": 1517869487889}, {"current_trial": 51, "trialdata": {"rt": -1, "trial_type": "single-stim", "stimulus": "<p id=\"stim\">3</p>", "internal_node_id": "0.0-35.0-7.0", "time_elapsed": 306599, "key_press": -1, "trial_index": 51}, "uniqueid": "MTK2503:3QIYRE09Y4O78PY16N52LCZSK4N1NA", "dateTime": 1517869488889}, {"current_trial": 52, "trialdata": {"rt": -1, "trial_type": "single-stim", "stimulus": "<p id=\"stim\">2</p>", "internal_node_id": "0.0-35.0-8.0", "time_elapsed": 307603, "key_press": -1, "trial_index": 52}, "uniqueid": "MTK2503:3QIYRE09Y4O78PY16N52LCZSK4N1NA", "dateTime": 1517869489893}, {"current_trial": 53, "trialdata": {"rt": -1, "trial_type": "single-stim", "stimulus": "<p id=\"stim\">1</p>", "internal_node_id": "0.0-35.0-9.0", "time_elapsed": 308606, "key_press": -1, "trial_index": 53}, "uniqueid": "MTK2503:3QIYRE09Y4O78PY16N52LCZSK4N1NA", "dateTime": 1517869490896}, {"current_trial": 54, "trialdata": {"rt": -1, "trial_type": "single-stim", "stimulus": "<p id=\"stim\">+</p>", "internal_node_id": "0.0-36.0-0.0", "time_elapsed": 310111, "key_press": -1, "type": "FIXATION", "trial_index": 54}, "uniqueid": "MTK2503:3QIYRE09Y4O78PY16N52LCZSK4N1NA", "dateTime": 1517869492401}, {"current_trial": 55, "trialdata": {"rt": -1000, "trial_type": "single-audio", "word": "atom", "stimulus": "/static/audio/wordpool/ATOM.wav", "conditions": [18, 1200, "a", 18000], "internal_node_id": "0.0-37.0", "trial": 1, "time_elapsed": 312479, "serialpos": 0, "key_press": -1, "wordID": 54, "type": "PRES_AUD", "trial_index": 55}, "uniqueid": "MTK2503:3QIYRE09Y4O78PY16N52LCZSK4N1NA", "dateTime": 1517869494769}, {"current_trial": 56, "trialdata": {"rt": -1000, "trial_type": "single-audio", "word": "ointment", "stimulus": "/static/audio/wordpool/OINTMENT.wav", "conditions": [18, 1200, "a", 18000], "internal_node_id": "0.0-38.0", "trial": 1, "time_elapsed": 314491, "serialpos": 1, "key_press": -1, "wordID": 973, "type": "PRES_AUD", "trial_index": 56}, "uniqueid": "MTK2503:3QIYRE09Y4O78PY16N52LCZSK4N1NA", "dateTime": 1517869496782}, {"current_trial": 57, "trialdata": {"rt": -1000, "trial_type": "single-audio", "word": "dustpan", "stimulus": "/static/audio/wordpool/DUSTPAN.wav", "conditions": [18, 1200, "a", 18000], "internal_node_id": "0.0-39.0", "trial": 1, "time_elapsed": 316678, "serialpos": 2, "key_press": -1, "wordID": 508, "type": "PRES_AUD", "trial_index": 57}, "uniqueid": "MTK2503:3QIYRE09Y4O78PY16N52LCZSK4N1NA", "dateTime": 1517869498968}, {"current_trial": 58, "trialdata": {"rt": -1000, "trial_type": "single-audio", "word": "seal", "stimulus": "/static/audio/wordpool/SEAL.wav", "conditions": [18, 1200, "a", 18000], "internal_node_id": "0.0-40.0", "trial": 1, "time_elapsed": 318861, "serialpos": 3, "key_press": -1, "wordID": 1261, "type": "PRES_AUD", "trial_index": 58}, "uniqueid": "MTK2503:3QIYRE09Y4O78PY16N52LCZSK4N1NA", "dateTime": 1517869501152}, {"current_trial": 59, "trialdata": {"rt": -1000, "trial_type": "single-audio", "word": "spider", "stimulus": "/static/audio/wordpool/SPIDER.wav", "conditions": [18, 1200, "a", 18000], "internal_node_id": "0.0-41.0", "trial": 1, "time_elapsed": 320932, "serialpos": 4, "key_press": -1, "wordID": 1350, "type": "PRES_AUD", "trial_index": 59}, "uniqueid": "MTK2503:3QIYRE09Y4O78PY16N52LCZSK4N1NA", "dateTime": 1517869503222}, {"current_trial": 60, "trialdata": {"rt": -1000, "trial_type": "single-audio", "word": "liver", "stimulus": "/static/audio/wordpool/LIVER.wav", "conditions": [18, 1200, "a", 18000], "internal_node_id": "0.0-42.0", "trial": 1, "time_elapsed": 323322, "serialpos": 5, "key_press": -1, "wordID": 832, "type": "PRES_AUD", "trial_index": 60}, "uniqueid": "MTK2503:3QIYRE09Y4O78PY16N52LCZSK4N1NA", "dateTime": 1517869505612}, {"current_trial": 61, "trialdata": {"rt": -1000, "trial_type": "single-audio", "word": "child", "stimulus": "/static/audio/wordpool/CHILD.wav", "conditions": [18, 1200, "a", 18000], "internal_node_id": "0.0-43.0", "trial": 1, "time_elapsed": 325660, "serialpos": 6, "key_press": -1, "wordID": 298, "type": "PRES_AUD", "trial_index": 61}, "uniqueid": "MTK2503:3QIYRE09Y4O78PY16N52LCZSK4N1NA", "dateTime": 1517869507951}, {"current_trial": 62, "trialdata": {"rt": -1000, "trial_type": "single-audio", "word": "cowboy", "stimulus": "/static/audio/wordpool/COWBOY.wav", "conditions": [18, 1200, "a", 18000], "internal_node_id": "0.0-44.0", "trial": 1, "time_elapsed": 327828, "serialpos": 7, "key_press": -1, "wordID": 394, "type": "PRES_AUD", "trial_index": 62}, "uniqueid": "MTK2503:3QIYRE09Y4O78PY16N52LCZSK4N1NA", "dateTime": 1517869510119}, {"current_trial": 63, "trialdata": {"rt": -1000, "trial_type": "single-audio", "word": "crown", "stimulus": "/static/audio/wordpool/CROWN.wav", "conditions": [18, 1200, "a", 18000], "internal_node_id": "0.0-45.0", "trial": 1, "time_elapsed": 330120, "serialpos": 8, "key_press": -1, "wordID": 414, "type": "PRES_AUD", "trial_index": 63}, "uniqueid": "MTK2503:3QIYRE09Y4O78PY16N52LCZSK4N1NA", "dateTime": 1517869512411}, {"current_trial": 64, "trialdata": {"rt": -1000, "trial_type": "single-audio", "word": "dolphin", "stimulus": "/static/audio/wordpool/DOLPHIN.wav", "conditions": [18, 1200, "a", 18000], "internal_node_id": "0.0-46.0", "trial": 1, "time_elapsed": 332522, "serialpos": 9, "key_press": -1, "wordID": 482, "type": "PRES_AUD", "trial_index": 64}, "uniqueid": "MTK2503:3QIYRE09Y4O78PY16N52LCZSK4N1NA", "dateTime": 1517869514812}, {"current_trial": 65, "trialdata": {"rt": -1000, "trial_type": "single-audio", "word": "parsley", "stimulus": "/static/audio/wordpool/PARSLEY.wav", "conditions": [18, 1200, "a", 18000], "internal_node_id": "0.0-47.0", "trial": 1, "time_elapsed": 334615, "serialpos": 10, "key_press": -1, "wordID": 1015, "type": "PRES_AUD", "trial_index": 65}, "uniqueid": "MTK2503:3QIYRE09Y4O78PY16N52LCZSK4N1NA", "dateTime": 1517869516905}, {"current_trial": 66, "trialdata": {"rt": -1000, "trial_type": "single-audio", "word": "female", "stimulus": "/static/audio/wordpool/FEMALE.wav", "conditions": [18, 1200, "a", 18000], "internal_node_id": "0.0-48.0", "trial": 1, "time_elapsed": 336648, "serialpos": 11, "key_press": -1, "wordID": 558, "type": "PRES_AUD", "trial_index": 66}, "uniqueid": "MTK2503:3QIYRE09Y4O78PY16N52LCZSK4N1NA", "dateTime": 1517869518939}, {"current_trial": 67, "trialdata": {"rt": -1000, "trial_type": "single-audio", "word": "dandruff", "stimulus": "/static/audio/wordpool/DANDRUFF.wav", "conditions": [18, 1200, "a", 18000], "internal_node_id": "0.0-49.0", "trial": 1, "time_elapsed": 338714, "serialpos": 12, "key_press": -1, "wordID": 438, "type": "PRES_AUD", "trial_index": 67}, "uniqueid": "MTK2503:3QIYRE09Y4O78PY16N52LCZSK4N1NA", "dateTime": 1517869521005}, {"current_trial": 68, "trialdata": {"rt": -1000, "trial_type": "single-audio", "word": "camel", "stimulus": "/static/audio/wordpool/CAMEL.wav", "conditions": [18, 1200, "a", 18000], "internal_node_id": "0.0-50.0", "trial": 1, "time_elapsed": 341054, "serialpos": 13, "key_press": -1, "wordID": 222, "type": "PRES_AUD", "trial_index": 68}, "uniqueid": "MTK2503:3QIYRE09Y4O78PY16N52LCZSK4N1NA", "dateTime": 1517869523352}, {"current_trial": 69, "trialdata": {"rt": -1000, "trial_type": "single-audio", "word": "stallion", "stimulus": "/static/audio/wordpool/STALLION.wav", "conditions": [18, 1200, "a", 18000], "internal_node_id": "0.0-51.0", "trial": 1, "time_elapsed": 343289, "serialpos": 14, "key_press": -1, "wordID": 1368, "type": "PRES_AUD", "trial_index": 69}, "uniqueid": "MTK2503:3QIYRE09Y4O78PY16N52LCZSK4N1NA", "dateTime": 1517869525580}, {"current_trial": 70, "trialdata": {"rt": -1000, "trial_type": "single-audio", "word": "lake", "stimulus": "/static/audio/wordpool/LAKE.wav", "conditions": [18, 1200, "a", 18000], "internal_node_id": "0.0-52.0", "trial": 1, "time_elapsed": 345323, "serialpos": 15, "key_press": -1, "wordID": 795, "type": "PRES_AUD", "trial_index": 70}, "uniqueid": "MTK2503:3QIYRE09Y4O78PY16N52LCZSK4N1NA", "dateTime": 1517869527613}, {"current_trial": 71, "trialdata": {"rt": -1000, "trial_type": "single-audio", "word": "beaver", "stimulus": "/static/audio/wordpool/BEAVER.wav", "conditions": [18, 1200, "a", 18000], "internal_node_id": "0.0-53.0", "trial": 1, "time_elapsed": 347631, "serialpos": 16, "key_press": -1, "wordID": 108, "type": "PRES_AUD", "trial_index": 71}, "uniqueid": "MTK2503:3QIYRE09Y4O78PY16N52LCZSK4N1NA", "dateTime": 1517869529922}, {"current_trial": 72, "trialdata": {"rt": -1000, "trial_type": "single-audio", "word": "beef", "stimulus": "/static/audio/wordpool/BEEF.wav", "conditions": [18, 1200, "a", 18000], "internal_node_id": "0.0-54.0", "trial": 1, "time_elapsed": 349859, "serialpos": 17, "key_press": -1, "wordID": 112, "type": "PRES_AUD", "trial_index": 72}, "uniqueid": "MTK2503:3QIYRE09Y4O78PY16N52LCZSK4N1NA", "dateTime": 1517869532149}, {"current_trial": 73, "trialdata": {"rt": -1, "trial_type": "single-stim", "stimulus": "", "internal_node_id": "0.0-55.0-0.0", "time_elapsed": 351136, "key_press": -1, "type": "PRE_RECALL_DELAY", "trial_index": 73}, "uniqueid": "MTK2503:3QIYRE09Y4O78PY16N52LCZSK4N1NA", "dateTime": 1517869533427}, {"current_trial": 74, "trialdata": {"rt": -1000, "trial_type": "single-audio", "stimulus": "/static/audio/400Hz.wav", "internal_node_id": "0.0-56.0", "time_elapsed": 351644, "key_press": -1, "type": "PRE_RECALL_ALERT", "trial_index": 74}, "uniqueid": "MTK2503:3QIYRE09Y4O78PY16N52LCZSK4N1NA", "dateTime": 1517869533934}, {"current_trial": 75, "trialdata": {"rt": [1950, 4523, 6166, 8671, 10960, 14034, 29120, 37835], "recwords": ["lake", "beaver", "beef", "stallion", "female", "child", "ointment", "crown"], "key_times": [646, 844, 1035, 1211, 1950, 2570, 2741, 3048, 3290, 3506, 3651, 4523, 4923, 5079, 5236, 5496, 6166, 6498, 6821, 7036, 7217, 7389, 7665, 7817, 8115, 8671, 9006, 9184, 9274, 9495, 10046, 10302, 10960, 12808, 13047, 13149, 13480, 13721, 14034, 26425, 26632, 26758, 26956, 27159, 27326, 27518, 27659, 29120, 36106, 36275, 36539, 36960, 37137, 37835], "trial_type": "free-recall", "conditions": [18, 1200, "a", 18000], "internal_node_id": "0.0-57.0-0.0", "key_presses": [76, 65, 75, 69, 32, 66, 69, 65, 86, 69, 82, 32, 66, 69, 69, 70, 32, 83, 84, 65, 76, 76, 73, 79, 78, 32, 70, 69, 77, 65, 76, 69, 32, 67, 72, 73, 76, 68, 32, 79, 73, 78, 84, 77, 69, 78, 84, 32, 67, 82, 79, 87, 78, 32], "trial": 1, "time_elapsed": 411651, "type": "FREE_RECALL", "trial_index": 75}, "uniqueid": "MTK2503:3QIYRE09Y4O78PY16N52LCZSK4N1NA", "dateTime": 1517869593945}, {"current_trial": 76, "trialdata": {"rt": 2544, "trial_type": "text", "internal_node_id": "0.0-58.0", "time_elapsed": 416203, "key_press": 32, "type": "INSTRUCTIONS", "trial_index": 76}, "uniqueid": "MTK2503:3QIYRE09Y4O78PY16N52LCZSK4N1NA", "dateTime": 1517869598493}, {"current_trial": 77, "trialdata": {"rt": [3304, 5668, 7478, 9090, 11087], "trial_type": "math-distractor", "key_times": [2619, 2689, 3304, 4737, 4847, 5668, 6912, 7047, 7478, 8497, 8601, 9090, 10569, 10795, 11087], "responses": ["16", "15", "15", "12", "24"], "num2": [8, 5, 3, 4, 8, 5], "num3": [7, 3, 3, 4, 8, 4], "conditions": [24, 800, "a", 12000], "internal_node_id": "0.0-59.0", "key_presses": [97, 102, 13, 97, 101, 13, 97, 101, 13, 97, 98, 13, 98, 100, 13], "trial": 2, "time_elapsed": 429206, "type": "DISTRACTOR", "trial_index": 77, "num1": [1, 7, 9, 4, 8, 9]}, "uniqueid": "MTK2503:3QIYRE09Y4O78PY16N52LCZSK4N1NA", "dateTime": 1517869611496}, {"current_trial": 78, "trialdata": {"rt": -1, "trial_type": "single-stim", "stimulus": "<p id=\"stim\">10</p>", "internal_node_id": "0.0-60.0-0.0", "time_elapsed": 432212, "key_press": -1, "trial_index": 78}, "uniqueid": "MTK2503:3QIYRE09Y4O78PY16N52LCZSK4N1NA", "dateTime": 1517869614502}, {"current_trial": 79, "trialdata": {"rt": -1, "trial_type": "single-stim", "stimulus": "<p id=\"stim\">9</p>", "internal_node_id": "0.0-60.0-1.0", "time_elapsed": 433212, "key_press": -1, "trial_index": 79}, "uniqueid": "MTK2503:3QIYRE09Y4O78PY16N52LCZSK4N1NA", "dateTime": 1517869615506}, {"current_trial": 80, "trialdata": {"rt": -1, "trial_type": "single-stim", "stimulus": "<p id=\"stim\">8</p>", "internal_node_id": "0.0-60.0-2.0", "time_elapsed": 434220, "key_press": -1, "trial_index": 80}, "uniqueid": "MTK2503:3QIYRE09Y4O78PY16N52LCZSK4N1NA", "dateTime": 1517869616510}, {"current_trial": 81, "trialdata": {"rt": -1, "trial_type": "single-stim", "stimulus": "<p id=\"stim\">7</p>", "internal_node_id": "0.0-60.0-3.0", "time_elapsed": 435221, "key_press": -1, "trial_index": 81}, "uniqueid": "MTK2503:3QIYRE09Y4O78PY16N52LCZSK4N1NA", "dateTime": 1517869617511}, {"current_trial": 82, "trialdata": {"rt": -1, "trial_type": "single-stim", "stimulus": "<p id=\"stim\">6</p>", "internal_node_id": "0.0-60.0-4.0", "time_elapsed": 436221, "key_press": -1, "trial_index": 82}, "uniqueid": "MTK2503:3QIYRE09Y4O78PY16N52LCZSK4N1NA", "dateTime": 1517869618511}, {"current_trial": 83, "trialdata": {"rt": -1, "trial_type": "single-stim", "stimulus": "<p id=\"stim\">5</p>", "internal_node_id": "0.0-60.0-5.0", "time_elapsed": 437221, "key_press": -1, "trial_index": 83}, "uniqueid": "MTK2503:3QIYRE09Y4O78PY16N52LCZSK4N1NA", "dateTime": 1517869619511}, {"current_trial": 84, "trialdata": {"rt": -1, "trial_type": "single-stim", "stimulus": "<p id=\"stim\">4</p>", "internal_node_id": "0.0-60.0-6.0", "time_elapsed": 438221, "key_press": -1, "trial_index": 84}, "uniqueid": "MTK2503:3QIYRE09Y4O78PY16N52LCZSK4N1NA", "dateTime": 1517869620511}, {"current_trial": 85, "trialdata": {"rt": -1, "trial_type": "single-stim", "stimulus": "<p id=\"stim\">3</p>", "internal_node_id": "0.0-60.0-7.0", "time_elapsed": 439225, "key_press": -1, "trial_index": 85}, "uniqueid": "MTK2503:3QIYRE09Y4O78PY16N52LCZSK4N1NA", "dateTime": 1517869621515}, {"current_trial": 86, "trialdata": {"rt": -1, "trial_type": "single-stim", "stimulus": "<p id=\"stim\">2</p>", "internal_node_id": "0.0-60.0-8.0", "time_elapsed": 440225, "key_press": -1, "trial_index": 86}, "uniqueid": "MTK2503:3QIYRE09Y4O78PY16N52LCZSK4N1NA", "dateTime": 1517869622515}, {"current_trial": 87, "trialdata": {"rt": -1, "trial_type": "single-stim", "stimulus": "<p id=\"stim\">1</p>", "internal_node_id": "0.0-60.0-9.0", "time_elapsed": 441229, "key_press": -1, "trial_index": 87}, "uniqueid": "MTK2503:3QIYRE09Y4O78PY16N52LCZSK4N1NA", "dateTime": 1517869623519}, {"current_trial": 88, "trialdata": {"rt": -1, "trial_type": "single-stim", "stimulus": "<p id=\"stim\">+</p>", "internal_node_id": "0.0-61.0-0.0", "time_elapsed": 442729, "key_press": -1, "type": "FIXATION", "trial_index": 88}, "uniqueid": "MTK2503:3QIYRE09Y4O78PY16N52LCZSK4N1NA", "dateTime": 1517869625019}, {"current_trial": 89, "trialdata": {"rt": -1000, "trial_type": "single-audio", "word": "lion", "stimulus": "/static/audio/wordpool/LION.wav", "conditions": [24, 800, "a", 12000], "internal_node_id": "0.0-62.0", "trial": 2, "time_elapsed": 444628, "serialpos": 0, "key_press": -1, "wordID": 826, "type": "PRES_AUD", "trial_index": 89}, "uniqueid": "MTK2503:3QIYRE09Y4O78PY16N52LCZSK4N1NA", "dateTime": 1517869626918}, {"current_trial": 90, "trialdata": {"rt": -1000, "trial_type": "single-audio", "word": "shirt", "stimulus": "/static/audio/wordpool/SHIRT.wav", "conditions": [24, 800, "a", 12000], "internal_node_id": "0.0-63.0", "trial": 2, "time_elapsed": 446619, "serialpos": 1, "key_press": -1, "wordID": 1286, "type": "PRES_AUD", "trial_index": 90}, "uniqueid": "MTK2503:3QIYRE09Y4O78PY16N52LCZSK4N1NA", "dateTime": 1517869628910}, {"current_trial": 91, "trialdata": {"rt": -1000, "trial_type": "single-audio", "word": "headband", "stimulus": "/static/audio/wordpool/HEADBAND.wav", "conditions": [24, 800, "a", 12000], "internal_node_id": "0.0-64.0", "trial": 2, "time_elapsed": 448360, "serialpos": 2, "key_press": -1, "wordID": 695, "type": "PRES_AUD", "trial_index": 91}, "uniqueid": "MTK2503:3QIYRE09Y4O78PY16N52LCZSK4N1NA", "dateTime": 1517869630650}, {"current_trial": 92, "trialdata": {"rt": -1000, "trial_type": "single-audio", "word": "infant", "stimulus": "/static/audio/wordpool/INFANT.wav", "conditions": [24, 800, "a", 12000], "internal_node_id": "0.0-65.0", "trial": 2, "time_elapsed": 450280, "serialpos": 3, "key_press": -1, "wordID": 736, "type": "PRES_AUD", "trial_index": 92}, "uniqueid": "MTK2503:3QIYRE09Y4O78PY16N52LCZSK4N1NA", "dateTime": 1517869632571}, {"current_trial": 93, "trialdata": {"rt": -1000, "trial_type": "single-audio", "word": "knapsack", "stimulus": "/static/audio/wordpool/KNAPSACK.wav", "conditions": [24, 800, "a", 12000], "internal_node_id": "0.0-66.0", "trial": 2, "time_elapsed": 452103, "serialpos": 4, "key_press": -1, "wordID": 782, "type": "PRES_AUD", "trial_index": 93}, "uniqueid": "MTK2503:3QIYRE09Y4O78PY16N52LCZSK4N1NA", "dateTime": 1517869634393}, {"current_trial": 94, "trialdata": {"rt": -1000, "trial_type": "single-audio", "word": "flute", "stimulus": "/static/audio/wordpool/FLUTE.wav", "conditions": [24, 800, "a", 12000], "internal_node_id": "0.0-67.0", "trial": 2, "time_elapsed": 453938, "serialpos": 5, "key_press": -1, "wordID": 584, "type": "PRES_AUD", "trial_index": 94}, "uniqueid": "MTK2503:3QIYRE09Y4O78PY16N52LCZSK4N1NA", "dateTime": 1517869636228}, {"current_trial": 95, "trialdata": {"rt": -1000, "trial_type": "single-audio", "word": "grill", "stimulus": "/static/audio/wordpool/GRILL.wav", "conditions": [24, 800, "a", 12000], "internal_node_id": "0.0-68.0", "trial": 2, "time_elapsed": 455723, "serialpos": 6, "key_press": -1, "wordID": 660, "type": "PRES_AUD", "trial_index": 95}, "uniqueid": "MTK2503:3QIYRE09Y4O78PY16N52LCZSK4N1NA", "dateTime": 1517869638013}, {"current_trial": 96, "trialdata": {"rt": -1000, "trial_type": "single-audio", "word": "mummy", "stimulus": "/static/audio/wordpool/MUMMY.wav", "conditions": [24, 800, "a", 12000], "internal_node_id": "0.0-69.0", "trial": 2, "time_elapsed": 457445, "serialpos": 7, "key_press": -1, "wordID": 931, "type": "PRES_AUD", "trial_index": 96}, "uniqueid": "MTK2503:3QIYRE09Y4O78PY16N52LCZSK4N1NA", "dateTime": 1517869639735}, {"current_trial": 97, "trialdata": {"rt": -1000, "trial_type": "single-audio", "word": "bacon", "stimulus": "/static/audio/wordpool/BACON.wav", "conditions": [24, 800, "a", 12000], "internal_node_id": "0.0-70.0", "trial": 2, "time_elapsed": 459385, "serialpos": 8, "key_press": -1, "wordID": 66, "type": "PRES_AUD", "trial_index": 97}, "uniqueid": "MTK2503:3QIYRE09Y4O78PY16N52LCZSK4N1NA", "dateTime": 1517869641675}, {"current_trial": 98, "trialdata": {"rt": -1000, "trial_type": "single-audio", "word": "banjo", "stimulus": "/static/audio/wordpool/BANJO.wav", "conditions": [24, 800, "a", 12000], "internal_node_id": "0.0-71.0", "trial": 2, "time_elapsed": 461323, "serialpos": 9, "key_press": -1, "wordID": 81, "type": "PRES_AUD", "trial_index": 98}, "uniqueid": "MTK2503:3QIYRE09Y4O78PY16N52LCZSK4N1NA", "dateTime": 1517869643613}, {"current_trial": 99, "trialdata": {"rt": -1000, "trial_type": "single-audio", "word": "popcorn", "stimulus": "/static/audio/wordpool/POPCORN.wav", "conditions": [24, 800, "a", 12000], "internal_node_id": "0.0-72.0", "trial": 2, "time_elapsed": 462947, "serialpos": 10, "key_press": -1, "wordID": 1103, "type": "PRES_AUD", "trial_index": 99}, "uniqueid": "MTK2503:3QIYRE09Y4O78PY16N52LCZSK4N1NA", "dateTime": 1517869645237}, {"current_trial": 100, "trialdata": {"rt": -1000, "trial_type": "single-audio", "word": "outfit", "stimulus": "/static/audio/wordpool/OUTFIT.wav", "conditions": [24, 800, "a", 12000], "internal_node_id": "0.0-73.0", "trial": 2, "time_elapsed": 464901, "serialpos": 11, "key_press": -1, "wordID": 987, "type": "PRES_AUD", "trial_index": 100}, "uniqueid": "MTK2503:3QIYRE09Y4O78PY16N52LCZSK4N1NA", "dateTime": 1517869647191}, {"current_trial": 101, "trialdata": {"rt": -1000, "trial_type": "single-audio", "word": "dust", "stimulus": "/static/audio/wordpool/DUST.wav", "conditions": [24, 800, "a", 12000], "internal_node_id": "0.0-74.0", "trial": 2, "time_elapsed": 466542, "serialpos": 12, "key_press": -1, "wordID": 507, "type": "PRES_AUD", "trial_index": 101}, "uniqueid": "MTK2503:3QIYRE09Y4O78PY16N52LCZSK4N1NA", "dateTime": 1517869648832}, {"current_trial": 102, "trialdata": {"rt": -1000, "trial_type": "single-audio", "word": "tile", "stimulus": "/static/audio/wordpool/TILE.wav", "conditions": [24, 800, "a", 12000], "internal_node_id": "0.0-75.0", "trial": 2, "time_elapsed": 468340, "serialpos": 13, "key_press": -1, "wordID": 1467, "type": "PRES_AUD", "trial_index": 102}, "uniqueid": "MTK2503:3QIYRE09Y4O78PY16N52LCZSK4N1NA", "dateTime": 1517869650630}, {"current_trial": 103, "trialdata": {"rt": -1000, "trial_type": "single-audio", "word": "woman", "stimulus": "/static/audio/wordpool/WOMAN.wav", "conditions": [24, 800, "a", 12000], "internal_node_id": "0.0-76.0", "trial": 2, "time_elapsed": 470180, "serialpos": 14, "key_press": -1, "wordID": 1619, "type": "PRES_AUD", "trial_index": 103}, "uniqueid": "MTK2503:3QIYRE09Y4O78PY16N52LCZSK4N1NA", "dateTime": 1517869652471}, {"current_trial": 104, "trialdata": {"rt": -1000, "trial_type": "single-audio", "word": "barrel", "stimulus": "/static/audio/wordpool/BARREL.wav", "conditions": [24, 800, "a", 12000], "internal_node_id": "0.0-77.0", "trial": 2, "time_elapsed": 471871, "serialpos": 15, "key_press": -1, "wordID": 90, "type": "PRES_AUD", "trial_index": 104}, "uniqueid": "MTK2503:3QIYRE09Y4O78PY16N52LCZSK4N1NA", "dateTime": 1517869654161}, {"current_trial": 105, "trialdata": {"rt": -1000, "trial_type": "single-audio", "word": "basement", "stimulus": "/static/audio/wordpool/BASEMENT.wav", "conditions": [24, 800, "a", 12000], "internal_node_id": "0.0-78.0", "trial": 2, "time_elapsed": 473714, "serialpos": 16, "key_press": -1, "wordID": 93, "type": "PRES_AUD", "trial_index": 105}, "uniqueid": "MTK2503:3QIYRE09Y4O78PY16N52LCZSK4N1NA", "dateTime": 1517869656004}, {"current_trial": 106, "trialdata": {"rt": -1000, "trial_type": "single-audio", "word": "blouse", "stimulus": "/static/audio/wordpool/BLOUSE.wav", "conditions": [24, 800, "a", 12000], "internal_node_id": "0.0-79.0", "trial": 2, "time_elapsed": 475340, "serialpos": 17, "key_press": -1, "wordID": 138, "type": "PRES_AUD", "trial_index": 106}, "uniqueid": "MTK2503:3QIYRE09Y4O78PY16N52LCZSK4N1NA", "dateTime": 1517869657631}, {"current_trial": 107, "trialdata": {"rt": -1000, "trial_type": "single-audio", "word": "skirt", "stimulus": "/static/audio/wordpool/SKIRT.wav", "conditions": [24, 800, "a", 12000], "internal_node_id": "0.0-80.0", "trial": 2, "time_elapsed": 477152, "serialpos": 18, "key_press": -1, "wordID": 1318, "type": "PRES_AUD", "trial_index": 107}, "uniqueid": "MTK2503:3QIYRE09Y4O78PY16N52LCZSK4N1NA", "dateTime": 1517869659442}, {"current_trial": 108, "trialdata": {"rt": -1000, "trial_type": "single-audio", "word": "judge", "stimulus": "/static/audio/wordpool/JUDGE.wav", "conditions": [24, 800, "a", 12000], "internal_node_id": "0.0-81.0", "trial": 2, "time_elapsed": 478777, "serialpos": 19, "key_press": -1, "wordID": 760, "type": "PRES_AUD", "trial_index": 108}, "uniqueid": "MTK2503:3QIYRE09Y4O78PY16N52LCZSK4N1NA", "dateTime": 1517869661067}, {"current_trial": 109, "trialdata": {"rt": -1000, "trial_type": "single-audio", "word": "pebble", "stimulus": "/static/audio/wordpool/PEBBLE.wav", "conditions": [24, 800, "a", 12000], "internal_node_id": "0.0-82.0", "trial": 2, "time_elapsed": 480525, "serialpos": 20, "key_press": -1, "wordID": 1034, "type": "PRES_AUD", "trial_index": 109}, "uniqueid": "MTK2503:3QIYRE09Y4O78PY16N52LCZSK4N1NA", "dateTime": 1517869662815}, {"current_trial": 110, "trialdata": {"rt": -1000, "trial_type": "single-audio", "word": "loft", "stimulus": "/static/audio/wordpool/LOFT.wav", "conditions": [24, 800, "a", 12000], "internal_node_id": "0.0-83.0", "trial": 2, "time_elapsed": 482341, "serialpos": 21, "key_press": -1, "wordID": 839, "type": "PRES_AUD", "trial_index": 110}, "uniqueid": "MTK2503:3QIYRE09Y4O78PY16N52LCZSK4N1NA", "dateTime": 1517869664631}, {"current_trial": 111, "trialdata": {"rt": -1000, "trial_type": "single-audio", "word": "plaid", "stimulus": "/static/audio/wordpool/PLAID.wav", "conditions": [24, 800, "a", 12000], "internal_node_id": "0.0-84.0", "trial": 2, "time_elapsed": 483978, "serialpos": 22, "key_press": -1, "wordID": 1079, "type": "PRES_AUD", "trial_index": 111}, "uniqueid": "MTK2503:3QIYRE09Y4O78PY16N52LCZSK4N1NA", "dateTime": 1517869666268}, {"current_trial": 112, "trialdata": {"rt": -1000, "trial_type": "single-audio", "word": "lady", "stimulus": "/static/audio/wordpool/LADY.wav", "conditions": [24, 800, "a", 12000], "internal_node_id": "0.0-85.0", "trial": 2, "time_elapsed": 485779, "serialpos": 23, "key_press": -1, "wordID": 793, "type": "PRES_AUD", "trial_index": 112}, "uniqueid": "MTK2503:3QIYRE09Y4O78PY16N52LCZSK4N1NA", "dateTime": 1517869668069}, {"current_trial": 113, "trialdata": {"rt": -1, "trial_type": "single-stim", "stimulus": "", "internal_node_id": "0.0-86.0-0.0", "time_elapsed": 487069, "key_press": -1, "type": "PRE_RECALL_DELAY", "trial_index": 113}, "uniqueid": "MTK2503:3QIYRE09Y4O78PY16N52LCZSK4N1NA", "dateTime": 1517869669359}, {"current_trial": 114, "trialdata": {"rt": -1000, "trial_type": "single-audio", "stimulus": "/static/audio/400Hz.wav", "internal_node_id": "0.0-87.0", "time_elapsed": 487576, "key_press": -1, "type": "PRE_RECALL_ALERT", "trial_index": 114}, "uniqueid": "MTK2503:3QIYRE09Y4O78PY16N52LCZSK4N1NA", "dateTime": 1517869669866}, {"current_trial": 115, "trialdata": {"rt": [2823, 4443, 7543, 9451, 12579, 15120, 16645, 26357, 29360, 44817], "recwords": ["lady", "flag", "pebble", "skirt", "blouse", "grill", "baby", "banjo", "bacon", "popcorn"], "key_times": [1298, 1456, 1852, 2217, 2823, 3422, 3598, 3739, 3999, 4443, 5668, 5893, 6197, 6370, 6646, 6862, 7543, 8094, 8362, 8624, 8851, 9178, 9451, 10699, 11032, 11283, 11591, 11796, 12068, 12579, 13243, 13528, 13788, 14108, 14303, 15120, 15526, 15646, 15809, 16066, 16645, 24761, 24881, 25031, 25452, 25513, 26357, 27195, 27332, 28424, 28560, 28820, 29360, 37034, 37206, 38044, 38264, 38568, 38809, 41807, 42014, 42203, 42375, 43202, 43544, 43745, 43984, 44196, 44817], "trial_type": "free-recall", "conditions": [24, 800, "a", 12000], "internal_node_id": "0.0-88.0-0.0", "key_presses": [76, 65, 68, 89, 32, 70, 76, 65, 71, 32, 80, 69, 66, 66, 76, 69, 32, 83, 75, 73, 82, 84, 32, 66, 76, 79, 85, 83, 69, 32, 71, 82, 73, 76, 76, 32, 66, 65, 66, 89, 32, 66, 65, 78, 74, 79, 32, 66, 65, 67, 79, 78, 32, 80, 79, 67, 79, 82, 78, 8, 8, 8, 8, 80, 67, 79, 82, 78, 32], "trial": 2, "time_elapsed": 547579, "type": "FREE_RECALL", "trial_index": 115}, "uniqueid": "MTK2503:3QIYRE09Y4O78PY16N52LCZSK4N1NA", "dateTime": 1517869729877}, {"current_trial": 116, "trialdata": {"rt": 1954, "trial_type": "text", "internal_node_id": "0.0-89.0", "time_elapsed": 551547, "key_press": 32, "type": "INSTRUCTIONS", "trial_index": 116}, "uniqueid": "MTK2503:3QIYRE09Y4O78PY16N52LCZSK4N1NA", "dateTime": 1517869733837}, {"current_trial": 117, "trialdata": {"rt": [2988, 6341, 8888, 11066, 14746, 16424, 18439, 20478, 22200, 23736], "trial_type": "math-distractor", "key_times": [2214, 2373, 2988, 4462, 4654, 5549, 6057, 6341, 8260, 8422, 8888, 10516, 10674, 11066, 13764, 13906, 14746, 15939, 16424, 17850, 18102, 18439, 19797, 20136, 20478, 21676, 21860, 22200, 23368, 23736], "responses": ["13", "15", "19", "16", "18", "7", "21", "13", "15", "7"], "num2": [3, 3, 3, 5, 9, 1, 9, 7, 3, 1, 6], "num3": [8, 3, 7, 2, 6, 1, 4, 4, 3, 1, 6], "conditions": [12, 1600, "a", 24000], "internal_node_id": "0.0-90.0", "key_presses": [97, 99, 13, 97, 102, 8, 101, 13, 97, 105, 13, 97, 102, 13, 97, 104, 13, 103, 13, 98, 97, 13, 97, 99, 13, 97, 101, 13, 103, 13], "trial": 3, "time_elapsed": 577617, "type": "DISTRACTOR", "trial_index": 117, "num1": [2, 9, 9, 9, 3, 5, 8, 2, 9, 5, 1]}, "uniqueid": "MTK2503:3QIYRE09Y4O78PY16N52LCZSK4N1NA", "dateTime": 1517869759907}, {"current_trial": 118, "trialdata": {"rt": -1, "trial_type": "single-stim", "stimulus": "<p id=\"stim\">10</p>", "internal_node_id": "0.0-91.0-0.0", "time_elapsed": 580617, "key_press": -1, "trial_index": 118}, "uniqueid": "MTK2503:3QIYRE09Y4O78PY16N52LCZSK4N1NA", "dateTime": 1517869762907}, {"current_trial": 119, "trialdata": {"rt": -1, "trial_type": "single-stim", "stimulus": "<p id=\"stim\">9</p>", "internal_node_id": "0.0-91.0-1.0", "time_elapsed": 581626, "key_press": -1, "trial_index": 119}, "uniqueid": "MTK2503:3QIYRE09Y4O78PY16N52LCZSK4N1NA", "dateTime": 1517869763916}, {"current_trial": 120, "trialdata": {"rt": -1, "trial_type": "single-stim", "stimulus": "<p id=\"stim\">8</p>", "internal_node_id": "0.0-91.0-2.0", "time_elapsed": 582630, "key_press": -1, "trial_index": 120}, "uniqueid": "MTK2503:3QIYRE09Y4O78PY16N52LCZSK4N1NA", "dateTime": 1517869764920}, {"current_trial": 121, "trialdata": {"rt": -1, "trial_type": "single-stim", "stimulus": "<p id=\"stim\">7</p>", "internal_node_id": "0.0-91.0-3.0", "time_elapsed": 583632, "key_press": -1, "trial_index": 121}, "uniqueid": "MTK2503:3QIYRE09Y4O78PY16N52LCZSK4N1NA", "dateTime": 1517869765922}, {"current_trial": 122, "trialdata": {"rt": -1, "trial_type": "single-stim", "stimulus": "<p id=\"stim\">6</p>", "internal_node_id": "0.0-91.0-4.0", "time_elapsed": 584634, "key_press": -1, "trial_index": 122}, "uniqueid": "MTK2503:3QIYRE09Y4O78PY16N52LCZSK4N1NA", "dateTime": 1517869766924}, {"current_trial": 123, "trialdata": {"rt": -1, "trial_type": "single-stim", "stimulus": "<p id=\"stim\">5</p>", "internal_node_id": "0.0-91.0-5.0", "time_elapsed": 585638, "key_press": -1, "trial_index": 123}, "uniqueid": "MTK2503:3QIYRE09Y4O78PY16N52LCZSK4N1NA", "dateTime": 1517869767928}, {"current_trial": 124, "trialdata": {"rt": -1, "trial_type": "single-stim", "stimulus": "<p id=\"stim\">4</p>", "internal_node_id": "0.0-91.0-6.0", "time_elapsed": 586638, "key_press": -1, "trial_index": 124}, "uniqueid": "MTK2503:3QIYRE09Y4O78PY16N52LCZSK4N1NA", "dateTime": 1517869768928}, {"current_trial": 125, "trialdata": {"rt": -1, "trial_type": "single-stim", "stimulus": "<p id=\"stim\">3</p>", "internal_node_id": "0.0-91.0-7.0", "time_elapsed": 587642, "key_press": -1, "trial_index": 125}, "uniqueid": "MTK2503:3QIYRE09Y4O78PY16N52LCZSK4N1NA", "dateTime": 1517869769932}, {"current_trial": 126, "trialdata": {"rt": -1, "trial_type": "single-stim", "stimulus": "<p id=\"stim\">2</p>", "internal_node_id": "0.0-91.0-8.0", "time_elapsed": 588643, "key_press": -1, "trial_index": 126}, "uniqueid": "MTK2503:3QIYRE09Y4O78PY16N52LCZSK4N1NA", "dateTime": 1517869770933}, {"current_trial": 127, "trialdata": {"rt": -1, "trial_type": "single-stim", "stimulus": "<p id=\"stim\">1</p>", "internal_node_id": "0.0-91.0-9.0", "time_elapsed": 589644, "key_press": -1, "trial_index": 127}, "uniqueid": "MTK2503:3QIYRE09Y4O78PY16N52LCZSK4N1NA", "dateTime": 1517869771934}, {"current_trial": 128, "trialdata": {"rt": -1, "trial_type": "single-stim", "stimulus": "<p id=\"stim\">+</p>", "internal_node_id": "0.0-92.0-0.0", "time_elapsed": 591147, "key_press": -1, "type": "FIXATION", "trial_index": 128}, "uniqueid": "MTK2503:3QIYRE09Y4O78PY16N52LCZSK4N1NA", "dateTime": 1517869773437}, {"current_trial": 129, "trialdata": {"rt": -1000, "trial_type": "single-audio", "word": "drink", "stimulus": "/static/audio/wordpool/DRINK.wav", "conditions": [12, 1600, "a", 24000], "internal_node_id": "0.0-93.0", "trial": 3, "time_elapsed": 593687, "serialpos": 0, "key_press": -1, "wordID": 497, "type": "PRES_AUD", "trial_index": 129}, "uniqueid": "MTK2503:3QIYRE09Y4O78PY16N52LCZSK4N1NA", "dateTime": 1517869775978}, {"current_trial": 130, "trialdata": {"rt": -1000, "trial_type": "single-audio", "word": "crab", "stimulus": "/static/audio/wordpool/CRAB.wav", "conditions": [12, 1600, "a", 24000], "internal_node_id": "0.0-94.0", "trial": 3, "time_elapsed": 596140, "serialpos": 1, "key_press": -1, "wordID": 396, "type": "PRES_AUD", "trial_index": 130}, "uniqueid": "MTK2503:3QIYRE09Y4O78PY16N52LCZSK4N1NA", "dateTime": 1517869778431}, {"current_trial": 131, "trialdata": {"rt": -1000, "trial_type": "single-audio", "word": "asia", "stimulus": "/static/audio/wordpool/ASIA.wav", "conditions": [12, 1600, "a", 24000], "internal_node_id": "0.0-95.0", "trial": 3, "time_elapsed": 598915, "serialpos": 2, "key_press": -1, "wordID": 45, "type": "PRES_AUD", "trial_index": 131}, "uniqueid": "MTK2503:3QIYRE09Y4O78PY16N52LCZSK4N1NA", "dateTime": 1517869781205}, {"current_trial": 132, "trialdata": {"rt": -1000, "trial_type": "single-audio", "word": "stove", "stimulus": "/static/audio/wordpool/STOVE.wav", "conditions": [12, 1600, "a", 24000], "internal_node_id": "0.0-96.0", "trial": 3, "time_elapsed": 601496, "serialpos": 3, "key_press": -1, "wordID": 1387, "type": "PRES_AUD", "trial_index": 132}, "uniqueid": "MTK2503:3QIYRE09Y4O78PY16N52LCZSK4N1NA", "dateTime": 1517869783786}, {"current_trial": 133, "trialdata": {"rt": -1000, "trial_type": "single-audio", "word": "cook", "stimulus": "/static/audio/wordpool/COOK.wav", "conditions": [12, 1600, "a", 24000], "internal_node_id": "0.0-97.0", "trial": 3, "time_elapsed": 603909, "serialpos": 4, "key_press": -1, "wordID": 371, "type": "PRES_AUD", "trial_index": 133}, "uniqueid": "MTK2503:3QIYRE09Y4O78PY16N52LCZSK4N1NA", "dateTime": 1517869786200}, {"current_trial": 134, "trialdata": {"rt": -1000, "trial_type": "single-audio", "word": "pudding", "stimulus": "/static/audio/wordpool/PUDDING.wav", "conditions": [12, 1600, "a", 24000], "internal_node_id": "0.0-98.0", "trial": 3, "time_elapsed": 606645, "serialpos": 5, "key_press": -1, "wordID": 1138, "type": "PRES_AUD", "trial_index": 134}, "uniqueid": "MTK2503:3QIYRE09Y4O78PY16N52LCZSK4N1NA", "dateTime": 1517869788935}, {"current_trial": 135, "trialdata": {"rt": -1000, "trial_type": "single-audio", "word": "rabbit", "stimulus": "/static/audio/wordpool/RABBIT.wav", "conditions": [12, 1600, "a", 24000], "internal_node_id": "0.0-99.0", "trial": 3, "time_elapsed": 609192, "serialpos": 6, "key_press": -1, "wordID": 1151, "type": "PRES_AUD", "trial_index": 135}, "uniqueid": "MTK2503:3QIYRE09Y4O78PY16N52LCZSK4N1NA", "dateTime": 1517869791483}, {"current_trial": 136, "trialdata": {"rt": -1000, "trial_type": "single-audio", "word": "perfume", "stimulus": "/static/audio/wordpool/PERFUME.wav", "conditions": [12, 1600, "a", 24000], "internal_node_id": "0.0-100.0", "trial": 3, "time_elapsed": 611668, "serialpos": 7, "key_press": -1, "wordID": 1048, "type": "PRES_AUD", "trial_index": 136}, "uniqueid": "MTK2503:3QIYRE09Y4O78PY16N52LCZSK4N1NA", "dateTime": 1517869793958}, {"current_trial": 137, "trialdata": {"rt": -1000, "trial_type": "single-audio", "word": "seafood", "stimulus": "/static/audio/wordpool/SEAFOOD.wav", "conditions": [12, 1600, "a", 24000], "internal_node_id": "0.0-101.0", "trial": 3, "time_elapsed": 614283, "serialpos": 8, "key_press": -1, "wordID": 1259, "type": "PRES_AUD", "trial_index": 137}, "uniqueid": "MTK2503:3QIYRE09Y4O78PY16N52LCZSK4N1NA", "dateTime": 1517869796574}, {"current_trial": 138, "trialdata": {"rt": -1000, "trial_type": "single-audio", "word": "brandy", "stimulus": "/static/audio/wordpool/BRANDY.wav", "conditions": [12, 1600, "a", 24000], "internal_node_id": "0.0-102.0", "trial": 3, "time_elapsed": 616975, "serialpos": 9, "key_press": -1, "wordID": 168, "type": "PRES_AUD", "trial_index": 138}, "uniqueid": "MTK2503:3QIYRE09Y4O78PY16N52LCZSK4N1NA", "dateTime": 1517869799266}, {"current_trial": 139, "trialdata": {"rt": -1000, "trial_type": "single-audio", "word": "elbow", "stimulus": "/static/audio/wordpool/ELBOW.wav", "conditions": [12, 1600, "a", 24000], "internal_node_id": "0.0-103.0", "trial": 3, "time_elapsed": 619631, "serialpos": 10, "key_press": -1, "wordID": 519, "type": "PRES_AUD", "trial_index": 139}, "uniqueid": "MTK2503:3QIYRE09Y4O78PY16N52LCZSK4N1NA", "dateTime": 1517869801922}, {"current_trial": 140, "trialdata": {"rt": -1000, "trial_type": "single-audio", "word": "mailbox", "stimulus": "/static/audio/wordpool/MAILBOX.wav", "conditions": [12, 1600, "a", 24000], "internal_node_id": "0.0-104.0", "trial": 3, "time_elapsed": 622298, "serialpos": 11, "key_press": -1, "wordID": 856, "type": "PRES_AUD", "trial_index": 140}, "uniqueid": "MTK2503:3QIYRE09Y4O78PY16N52LCZSK4N1NA", "dateTime": 1517869804588}, {"current_trial": 141, "trialdata": {"rt": -1, "trial_type": "single-stim", "stimulus": "", "internal_node_id": "0.0-105.0-0.0", "time_elapsed": 623574, "key_press": -1, "type": "PRE_RECALL_DELAY", "trial_index": 141}, "uniqueid": "MTK2503:3QIYRE09Y4O78PY16N52LCZSK4N1NA", "dateTime": 1517869805864}, {"current_trial": 142, "trialdata": {"rt": -1000, "trial_type": "single-audio", "stimulus": "/static/audio/400Hz.wav", "internal_node_id": "0.0-106.0", "time_elapsed": 624079, "key_press": -1, "type": "PRE_RECALL_ALERT", "trial_index": 142}, "uniqueid": "MTK2503:3QIYRE09Y4O78PY16N52LCZSK4N1NA", "dateTime": 1517869806369}, {"current_trial": 143, "trialdata": {"rt": [6029, 7740, 8747, 10512, 12302, 13872, 15912, 35939], "recwords": ["drink", "crab", "asia", "food", "brandy", "elbow", "mailbox", "pudding"], "key_times": [4158, 4453, 4751, 4891, 5143, 6029, 6652, 6958, 7225, 7462, 7740, 8027, 8179, 8397, 8523, 8747, 9017, 9213, 9380, 9683, 10512, 10962, 11161, 11352, 11574, 11842, 12166, 12302, 12656, 12830, 13170, 13397, 13590, 13872, 14222, 14377, 14579, 14807, 15066, 15268, 15551, 15912, 34140, 34479, 34793, 34967, 35183, 35342, 35565, 35939], "trial_type": "free-recall", "conditions": [12, 1600, "a", 24000], "internal_node_id": "0.0-107.0-0.0", "key_presses": [68, 82, 73, 78, 75, 32, 67, 82, 65, 66, 32, 65, 83, 73, 65, 32, 70, 79, 79, 68, 32, 66, 82, 65, 78, 68, 89, 32, 69, 76, 66, 79, 87, 32, 77, 65, 73, 76, 66, 79, 88, 32, 80, 85, 68, 68, 73, 78, 71, 32], "trial": 3, "time_elapsed": 684085, "type": "FREE_RECALL", "trial_index": 143}, "uniqueid": "MTK2503:3QIYRE09Y4O78PY16N52LCZSK4N1NA", "dateTime": 1517869866391}, {"current_trial": 144, "trialdata": {"rt": 1140, "trial_type": "text", "internal_node_id": "0.0-108.0", "time_elapsed": 687248, "key_press": 32, "type": "INSTRUCTIONS", "trial_index": 144}, "uniqueid": "MTK2503:3QIYRE09Y4O78PY16N52LCZSK4N1NA", "dateTime": 1517869869538}, {"current_trial": 145, "trialdata": {"rt": [2252, 3976, 5931, 7724, 9631, 11508, 13335, 15083, 16994, 18777, 20969, 22762], "trial_type": "math-distractor", "key_times": [1786, 1993, 2252, 3510, 3730, 3976, 5348, 5619, 5931, 7137, 7397, 7724, 8987, 9307, 9631, 10963, 11216, 11508, 12675, 12945, 13335, 14502, 14777, 15083, 16507, 16733, 16994, 18287, 18777, 20429, 20715, 20969, 22405, 22762, 23861], "responses": ["24", "15", "16", "10", "13", "17", "16", "10", "15", "9", "14", "9"], "num2": [6, 2, 3, 4, 3, 4, 9, 1, 6, 2, 9, 5, 4], "num3": [9, 8, 5, 5, 3, 8, 3, 6, 7, 5, 1, 2, 1], "conditions": [24, 1600, "a", 24000], "internal_node_id": "0.0-109.0", "key_presses": [98, 100, 13, 97, 101, 13, 97, 102, 13, 97, 96, 13, 97, 99, 13, 97, 103, 13, 97, 102, 13, 97, 96, 13, 97, 101, 13, 105, 13, 97, 100, 13, 105, 13, 97], "trial": 4, "time_elapsed": 713279, "type": "DISTRACTOR", "trial_index": 145, "num1": [9, 5, 8, 1, 7, 5, 4, 3, 2, 2, 4, 2, 6]}, "uniqueid": "MTK2503:3QIYRE09Y4O78PY16N52LCZSK4N1NA", "dateTime": 1517869895569}, {"current_trial": 146, "trialdata": {"rt": -1, "trial_type": "single-stim", "stimulus": "<p id=\"stim\">10</p>", "internal_node_id": "0.0-110.0-0.0", "time_elapsed": 716282, "key_press": -1, "trial_index": 146}, "uniqueid": "MTK2503:3QIYRE09Y4O78PY16N52LCZSK4N1NA", "dateTime": 1517869898572}, {"current_trial": 147, "trialdata": {"rt": -1, "trial_type": "single-stim", "stimulus": "<p id=\"stim\">9</p>", "internal_node_id": "0.0-110.0-1.0", "time_elapsed": 717284, "key_press": -1, "trial_index": 147}, "uniqueid": "MTK2503:3QIYRE09Y4O78PY16N52LCZSK4N1NA", "dateTime": 1517869899574}, {"current_trial": 148, "trialdata": {"rt": -1, "trial_type": "single-stim", "stimulus": "<p id=\"stim\">8</p>", "internal_node_id": "0.0-110.0-2.0", "time_elapsed": 718288, "key_press": -1, "trial_index": 148}, "uniqueid": "MTK2503:3QIYRE09Y4O78PY16N52LCZSK4N1NA", "dateTime": 1517869900578}, {"current_trial": 149, "trialdata": {"rt": -1, "trial_type": "single-stim", "stimulus": "<p id=\"stim\">7</p>", "internal_node_id": "0.0-110.0-3.0", "time_elapsed": 719289, "key_press": -1, "trial_index": 149}, "uniqueid": "MTK2503:3QIYRE09Y4O78PY16N52LCZSK4N1NA", "dateTime": 1517869901579}, {"current_trial": 150, "trialdata": {"rt": -1, "trial_type": "single-stim", "stimulus": "<p id=\"stim\">6</p>", "internal_node_id": "0.0-110.0-4.0", "time_elapsed": 720293, "key_press": -1, "trial_index": 150}, "uniqueid": "MTK2503:3QIYRE09Y4O78PY16N52LCZSK4N1NA", "dateTime": 1517869902583}, {"current_trial": 151, "trialdata": {"rt": -1, "trial_type": "single-stim", "stimulus": "<p id=\"stim\">5</p>", "internal_node_id": "0.0-110.0-5.0", "time_elapsed": 721298, "key_press": -1, "trial_index": 151}, "uniqueid": "MTK2503:3QIYRE09Y4O78PY16N52LCZSK4N1NA", "dateTime": 1517869903592}, {"current_trial": 152, "trialdata": {"rt": -1, "trial_type": "single-stim", "stimulus": "<p id=\"stim\">4</p>", "internal_node_id": "0.0-110.0-6.0", "time_elapsed": 722303, "key_press": -1, "trial_index": 152}, "uniqueid": "MTK2503:3QIYRE09Y4O78PY16N52LCZSK4N1NA", "dateTime": 1517869904593}, {"current_trial": 153, "trialdata": {"rt": -1, "trial_type": "single-stim", "stimulus": "<p id=\"stim\">3</p>", "internal_node_id": "0.0-110.0-7.0", "time_elapsed": 723305, "key_press": -1, "trial_index": 153}, "uniqueid": "MTK2503:3QIYRE09Y4O78PY16N52LCZSK4N1NA", "dateTime": 1517869905595}, {"current_trial": 154, "trialdata": {"rt": -1, "trial_type": "single-stim", "stimulus": "<p id=\"stim\">2</p>", "internal_node_id": "0.0-110.0-8.0", "time_elapsed": 724307, "key_press": -1, "trial_index": 154}, "uniqueid": "MTK2503:3QIYRE09Y4O78PY16N52LCZSK4N1NA", "dateTime": 1517869906597}, {"current_trial": 155, "trialdata": {"rt": -1, "trial_type": "single-stim", "stimulus": "<p id=\"stim\">1</p>", "internal_node_id": "0.0-110.0-9.0", "time_elapsed": 725311, "key_press": -1, "trial_index": 155}, "uniqueid": "MTK2503:3QIYRE09Y4O78PY16N52LCZSK4N1NA", "dateTime": 1517869907601}, {"current_trial": 156, "trialdata": {"rt": -1, "trial_type": "single-stim", "stimulus": "<p id=\"stim\">+</p>", "internal_node_id": "0.0-111.0-0.0", "time_elapsed": 726811, "key_press": -1, "type": "FIXATION", "trial_index": 156}, "uniqueid": "MTK2503:3QIYRE09Y4O78PY16N52LCZSK4N1NA", "dateTime": 1517869909101}, {"current_trial": 157, "trialdata": {"rt": -1000, "trial_type": "single-audio", "word": "jungle", "stimulus": "/static/audio/wordpool/JUNGLE.wav", "conditions": [24, 1600, "a", 24000], "internal_node_id": "0.0-112.0", "trial": 4, "time_elapsed": 729356, "serialpos": 0, "key_press": -1, "wordID": 763, "type": "PRES_AUD", "trial_index": 157}, "uniqueid": "MTK2503:3QIYRE09Y4O78PY16N52LCZSK4N1NA", "dateTime": 1517869911646}, {"current_trial": 158, "trialdata": {"rt": -1000, "trial_type": "single-audio", "word": "parrot", "stimulus": "/static/audio/wordpool/PARROT.wav", "conditions": [24, 1600, "a", 24000], "internal_node_id": "0.0-113.0", "trial": 4, "time_elapsed": 732016, "serialpos": 1, "key_press": -1, "wordID": 1014, "type": "PRES_AUD", "trial_index": 158}, "uniqueid": "MTK2503:3QIYRE09Y4O78PY16N52LCZSK4N1NA", "dateTime": 1517869914306}, {"current_trial": 159, "trialdata": {"rt": -1000, "trial_type": "single-audio", "word": "clothes", "stimulus": "/static/audio/wordpool/CLOTHES.wav", "conditions": [24, 1600, "a", 24000], "internal_node_id": "0.0-114.0", "trial": 4, "time_elapsed": 734699, "serialpos": 2, "key_press": -1, "wordID": 326, "type": "PRES_AUD", "trial_index": 159}, "uniqueid": "MTK2503:3QIYRE09Y4O78PY16N52LCZSK4N1NA", "dateTime": 1517869916989}, {"current_trial": 160, "trialdata": {"rt": -1000, "trial_type": "single-audio", "word": "nightgown", "stimulus": "/static/audio/wordpool/NIGHTGOWN.wav", "conditions": [24, 1600, "a", 24000], "internal_node_id": "0.0-115.0", "trial": 4, "time_elapsed": 737291, "serialpos": 3, "key_press": -1, "wordID": 952, "type": "PRES_AUD", "trial_index": 160}, "uniqueid": "MTK2503:3QIYRE09Y4O78PY16N52LCZSK4N1NA", "dateTime": 1517869919581}, {"current_trial": 161, "trialdata": {"rt": -1000, "trial_type": "single-audio", "word": "zebra", "stimulus": "/static/audio/wordpool/ZEBRA.wav", "conditions": [24, 1600, "a", 24000], "internal_node_id": "0.0-116.0", "trial": 4, "time_elapsed": 740047, "serialpos": 4, "key_press": -1, "wordID": 1634, "type": "PRES_AUD", "trial_index": 161}, "uniqueid": "MTK2503:3QIYRE09Y4O78PY16N52LCZSK4N1NA", "dateTime": 1517869922337}, {"current_trial": 162, "trialdata": {"rt": -1000, "trial_type": "single-audio", "word": "saddle", "stimulus": "/static/audio/wordpool/SADDLE.wav", "conditions": [24, 1600, "a", 24000], "internal_node_id": "0.0-117.0", "trial": 4, "time_elapsed": 742676, "serialpos": 5, "key_press": -1, "wordID": 1220, "type": "PRES_AUD", "trial_index": 162}, "uniqueid": "MTK2503:3QIYRE09Y4O78PY16N52LCZSK4N1NA", "dateTime": 1517869924966}, {"current_trial": 163, "trialdata": {"rt": -1000, "trial_type": "single-audio", "word": "candy", "stimulus": "/static/audio/wordpool/CANDY.wav", "conditions": [24, 1600, "a", 24000], "internal_node_id": "0.0-118.0", "trial": 4, "time_elapsed": 745416, "serialpos": 6, "key_press": -1, "wordID": 229, "type": "PRES_AUD", "trial_index": 163}, "uniqueid": "MTK2503:3QIYRE09Y4O78PY16N52LCZSK4N1NA", "dateTime": 1517869927706}, {"current_trial": 164, "trialdata": {"rt": -1000, "trial_type": "single-audio", "word": "leopard", "stimulus": "/static/audio/wordpool/LEOPARD.wav", "conditions": [24, 1600, "a", 24000], "internal_node_id": "0.0-119.0", "trial": 4, "time_elapsed": 748089, "serialpos": 7, "key_press": -1, "wordID": 811, "type": "PRES_AUD", "trial_index": 164}, "uniqueid": "MTK2503:3QIYRE09Y4O78PY16N52LCZSK4N1NA", "dateTime": 1517869930379}, {"current_trial": 165, "trialdata": {"rt": -1000, "trial_type": "single-audio", "word": "climber", "stimulus": "/static/audio/wordpool/CLIMBER.wav", "conditions": [24, 1600, "a", 24000], "internal_node_id": "0.0-120.0", "trial": 4, "time_elapsed": 750797, "serialpos": 8, "key_press": -1, "wordID": 322, "type": "PRES_AUD", "trial_index": 165}, "uniqueid": "MTK2503:3QIYRE09Y4O78PY16N52LCZSK4N1NA", "dateTime": 1517869933087}, {"current_trial": 166, "trialdata": {"rt": -1000, "trial_type": "single-audio", "word": "maple", "stimulus": "/static/audio/wordpool/MAPLE.wav", "conditions": [24, 1600, "a", 24000], "internal_node_id": "0.0-121.0", "trial": 4, "time_elapsed": 753465, "serialpos": 9, "key_press": -1, "wordID": 865, "type": "PRES_AUD", "trial_index": 166}, "uniqueid": "MTK2503:3QIYRE09Y4O78PY16N52LCZSK4N1NA", "dateTime": 1517869935756}, {"current_trial": 167, "trialdata": {"rt": -1000, "trial_type": "single-audio", "word": "record", "stimulus": "/static/audio/wordpool/RECORD.wav", "conditions": [24, 1600, "a", 24000], "internal_node_id": "0.0-122.0", "trial": 4, "time_elapsed": 756108, "serialpos": 10, "key_press": -1, "wordID": 1175, "type": "PRES_AUD", "trial_index": 167}, "uniqueid": "MTK2503:3QIYRE09Y4O78PY16N52LCZSK4N1NA", "dateTime": 1517869938398}, {"current_trial": 168, "trialdata": {"rt": -1000, "trial_type": "single-audio", "word": "waiter", "stimulus": "/static/audio/wordpool/WAITER.wav", "conditions": [24, 1600, "a", 24000], "internal_node_id": "0.0-123.0", "trial": 4, "time_elapsed": 758574, "serialpos": 11, "key_press": -1, "wordID": 1579, "type": "PRES_AUD", "trial_index": 168}, "uniqueid": "MTK2503:3QIYRE09Y4O78PY16N52LCZSK4N1NA", "dateTime": 1517869940865}, {"current_trial": 169, "trialdata": {"rt": -1000, "trial_type": "single-audio", "word": "nurse", "stimulus": "/static/audio/wordpool/NURSE.wav", "conditions": [24, 1600, "a", 24000], "internal_node_id": "0.0-124.0", "trial": 4, "time_elapsed": 761276, "serialpos": 12, "key_press": -1, "wordID": 962, "type": "PRES_AUD", "trial_index": 169}, "uniqueid": "MTK2503:3QIYRE09Y4O78PY16N52LCZSK4N1NA", "dateTime": 1517869943566}, {"current_trial": 170, "trialdata": {"rt": -1000, "trial_type": "single-audio", "word": "gravel", "stimulus": "/static/audio/wordpool/GRAVEL.wav", "conditions": [24, 1600, "a", 24000], "internal_node_id": "0.0-125.0", "trial": 4, "time_elapsed": 763921, "serialpos": 13, "key_press": -1, "wordID": 658, "type": "PRES_AUD", "trial_index": 170}, "uniqueid": "MTK2503:3QIYRE09Y4O78PY16N52LCZSK4N1NA", "dateTime": 1517869946212}, {"current_trial": 171, "trialdata": {"rt": -1000, "trial_type": "single-audio", "word": "mildew", "stimulus": "/static/audio/wordpool/MILDEW.wav", "conditions": [24, 1600, "a", 24000], "internal_node_id": "0.0-126.0", "trial": 4, "time_elapsed": 766557, "serialpos": 14, "key_press": -1, "wordID": 892, "type": "PRES_AUD", "trial_index": 171}, "uniqueid": "MTK2503:3QIYRE09Y4O78PY16N52LCZSK4N1NA", "dateTime": 1517869948847}, {"current_trial": 172, "trialdata": {"rt": -1000, "trial_type": "single-audio", "word": "machine", "stimulus": "/static/audio/wordpool/MACHINE.wav", "conditions": [24, 1600, "a", 24000], "internal_node_id": "0.0-127.0", "trial": 4, "time_elapsed": 769322, "serialpos": 15, "key_press": -1, "wordID": 851, "type": "PRES_AUD", "trial_index": 172}, "uniqueid": "MTK2503:3QIYRE09Y4O78PY16N52LCZSK4N1NA", "dateTime": 1517869951612}, {"current_trial": 173, "trialdata": {"rt": -1000, "trial_type": "single-audio", "word": "suspect", "stimulus": "/static/audio/wordpool/SUSPECT.wav", "conditions": [24, 1600, "a", 24000], "internal_node_id": "0.0-128.0", "trial": 4, "time_elapsed": 771952, "serialpos": 16, "key_press": -1, "wordID": 1414, "type": "PRES_AUD", "trial_index": 173}, "uniqueid": "MTK2503:3QIYRE09Y4O78PY16N52LCZSK4N1NA", "dateTime": 1517869954242}, {"current_trial": 174, "trialdata": {"rt": -1000, "trial_type": "single-audio", "word": "lumber", "stimulus": "/static/audio/wordpool/LUMBER.wav", "conditions": [24, 1600, "a", 24000], "internal_node_id": "0.0-129.0", "trial": 4, "time_elapsed": 774679, "serialpos": 17, "key_press": -1, "wordID": 847, "type": "PRES_AUD", "trial_index": 174}, "uniqueid": "MTK2503:3QIYRE09Y4O78PY16N52LCZSK4N1NA", "dateTime": 1517869956970}, {"current_trial": 175, "trialdata": {"rt": -1000, "trial_type": "single-audio", "word": "snake", "stimulus": "/static/audio/wordpool/SNAKE.wav", "conditions": [24, 1600, "a", 24000], "internal_node_id": "0.0-130.0", "trial": 4, "time_elapsed": 777390, "serialpos": 18, "key_press": -1, "wordID": 1332, "type": "PRES_AUD", "trial_index": 175}, "uniqueid": "MTK2503:3QIYRE09Y4O78PY16N52LCZSK4N1NA", "dateTime": 1517869959681}, {"current_trial": 176, "trialdata": {"rt": -1000, "trial_type": "single-audio", "word": "trench", "stimulus": "/static/audio/wordpool/TRENCH.wav", "conditions": [24, 1600, "a", 24000], "internal_node_id": "0.0-131.0", "trial": 4, "time_elapsed": 779891, "serialpos": 19, "key_press": -1, "wordID": 1502, "type": "PRES_AUD", "trial_index": 176}, "uniqueid": "MTK2503:3QIYRE09Y4O78PY16N52LCZSK4N1NA", "dateTime": 1517869962182}, {"current_trial": 177, "trialdata": {"rt": -1000, "trial_type": "single-audio", "word": "badge", "stimulus": "/static/audio/wordpool/BADGE.wav", "conditions": [24, 1600, "a", 24000], "internal_node_id": "0.0-132.0", "trial": 4, "time_elapsed": 782432, "serialpos": 20, "key_press": -1, "wordID": 67, "type": "PRES_AUD", "trial_index": 177}, "uniqueid": "MTK2503:3QIYRE09Y4O78PY16N52LCZSK4N1NA", "dateTime": 1517869964723}, {"current_trial": 178, "trialdata": {"rt": -1000, "trial_type": "single-audio", "word": "sticker", "stimulus": "/static/audio/wordpool/STICKER.wav", "conditions": [24, 1600, "a", 24000], "internal_node_id": "0.0-133.0", "trial": 4, "time_elapsed": 785061, "serialpos": 21, "key_press": -1, "wordID": 1381, "type": "PRES_AUD", "trial_index": 178}, "uniqueid": "MTK2503:3QIYRE09Y4O78PY16N52LCZSK4N1NA", "dateTime": 1517869967351}, {"current_trial": 179, "trialdata": {"rt": -1000, "trial_type": "single-audio", "word": "honey", "stimulus": "/static/audio/wordpool/HONEY.wav", "conditions": [24, 1600, "a", 24000], "internal_node_id": "0.0-134.0", "trial": 4, "time_elapsed": 787814, "serialpos": 22, "key_press": -1, "wordID": 712, "type": "PRES_AUD", "trial_index": 179}, "uniqueid": "MTK2503:3QIYRE09Y4O78PY16N52LCZSK4N1NA", "dateTime": 1517869970104}, {"current_trial": 180, "trialdata": {"rt": -1000, "trial_type": "single-audio", "word": "victim", "stimulus": "/static/audio/wordpool/VICTIM.wav", "conditions": [24, 1600, "a", 24000], "internal_node_id": "0.0-135.0", "trial": 4, "time_elapsed": 790308, "serialpos": 23, "key_press": -1, "wordID": 1561, "type": "PRES_AUD", "trial_index": 180}, "uniqueid": "MTK2503:3QIYRE09Y4O78PY16N52LCZSK4N1NA", "dateTime": 1517869972598}, {"current_trial": 181, "trialdata": {"rt": -1, "trial_type": "single-stim", "stimulus": "", "internal_node_id": "0.0-136.0-0.0", "time_elapsed": 791707, "key_press": -1, "type": "PRE_RECALL_DELAY", "trial_index": 181}, "uniqueid": "MTK2503:3QIYRE09Y4O78PY16N52LCZSK4N1NA", "dateTime": 1517869973997}, {"current_trial": 182, "trialdata": {"rt": -1000, "trial_type": "single-audio", "stimulus": "/static/audio/400Hz.wav", "internal_node_id": "0.0-137.0", "time_elapsed": 792216, "key_press": -1, "type": "PRE_RECALL_ALERT", "trial_index": 182}, "uniqueid": "MTK2503:3QIYRE09Y4O78PY16N52LCZSK4N1NA", "dateTime": 1517869974506}, {"current_trial": 183, "trialdata": {"rt": [5394, 7614, 11334, 15741, 19458, 21244, 23640, 26341, 29690, 35128, 38642, 41920, 51424], "recwords": ["jungle", "parrot", "clothes", "nightgown", "mildew", "machine", "candy", "leopard", "sticker", "lumber", "badge", "saddle", "climber"], "key_times": [3512, 3663, 3894, 4054, 4226, 4367, 5394, 5764, 5879, 6183, 6318, 6466, 6664, 7614, 9027, 9157, 9337, 9524, 9676, 9821, 10060, 11334, 12217, 12332, 12559, 12661, 12793, 13832, 13980, 14424, 14842, 15741, 17897, 18063, 18255, 18492, 18654, 18886, 19458, 20010, 20132, 20373, 20504, 20601, 20742, 20956, 21244, 22349, 22519, 22620, 22955, 23170, 23640, 24692, 24964, 25234, 25359, 25628, 25840, 26054, 26341, 27727, 28155, 28503, 28781, 29050, 29227, 29464, 29690, 33352, 33725, 34032, 34361, 34546, 34706, 35128, 37456, 37575, 37869, 38188, 38402, 38642, 40383, 40518, 40833, 41010, 41112, 41355, 41920, 45263, 45585, 45941, 46253, 46395, 47002, 47234, 47470, 47968, 48186, 48374, 48565, 48772, 48976, 49426, 49561, 49824, 50330, 50658, 50794, 50941, 51424, 59785, 59898], "trial_type": "free-recall", "conditions": [24, 1600, "a", 24000], "internal_node_id": "0.0-138.0-0.0", "key_presses": [74, 85, 78, 71, 76, 69, 32, 80, 65, 82, 82, 79, 84, 32, 67, 76, 79, 84, 72, 69, 83, 32, 78, 73, 71, 72, 84, 71, 79, 87, 78, 32, 77, 73, 76, 68, 69, 87, 32, 77, 65, 67, 72, 73, 78, 69, 32, 67, 65, 78, 68, 89, 32, 76, 69, 79, 80, 65, 82, 68, 32, 83, 84, 73, 67, 75, 69, 82, 32, 76, 85, 77, 66, 69, 82, 32, 66, 65, 68, 71, 69, 32, 83, 65, 68, 68, 76, 69, 32, 83, 73, 8, 85, 83, 80, 69, 67, 8, 8, 8, 8, 8, 8, 67, 76, 73, 77, 66, 69, 82, 32, 78, 85], "trial": 4, "time_elapsed": 852222, "type": "FREE_RECALL", "trial_index": 183}, "uniqueid": "MTK2503:3QIYRE09Y4O78PY16N52LCZSK4N1NA", "dateTime": 1517870034524}, {"current_trial": 184, "trialdata": {"rt": 365, "trial_type": "text", "internal_node_id": "0.0-139.0", "time_elapsed": 854631, "key_press": 32, "type": "INSTRUCTIONS", "trial_index": 184}, "uniqueid": "MTK2503:3QIYRE09Y4O78PY16N52LCZSK4N1NA", "dateTime": 1517870036921}, {"current_trial": 185, "trialdata": {"rt": [4046, 5851, 7536, 9669, 11534, 13457, 17415, 19086, 21297], "trial_type": "math-distractor", "key_times": [1318, 1462, 2969, 3115, 3601, 3740, 4046, 5417, 5605, 5851, 7133, 7260, 7536, 9271, 9383, 9669, 11078, 11197, 11534, 13230, 13457, 14913, 15053, 17415, 18661, 18858, 19086, 20754, 20987, 21297], "responses": ["20", "21", "10", "16", "20", "7", "20", "14", "16"], "num2": [6, 7, 6, 9, 7, 1, 6, 3, 7, 2], "num3": [7, 5, 1, 3, 9, 4, 9, 8, 8, 7], "conditions": [12, 1600, "a", 24000], "internal_node_id": "0.0-140.0", "key_presses": [97, 105, 8, 8, 98, 96, 13, 98, 97, 13, 97, 96, 13, 97, 102, 13, 98, 96, 13, 103, 13, 98, 96, 13, 97, 100, 13, 97, 102, 13], "trial": 5, "time_elapsed": 880637, "type": "DISTRACTOR", "trial_index": 185, "num1": [7, 9, 3, 4, 4, 2, 5, 3, 1, 9]}, "uniqueid": "MTK2503:3QIYRE09Y4O78PY16N52LCZSK4N1NA", "dateTime": 1517870062927}, {"current_trial": 186, "trialdata": {"rt": -1, "trial_type": "single-stim", "stimulus": "<p id=\"stim\">10</p>", "internal_node_id": "0.0-141.0-0.0", "time_elapsed": 883645, "key_press": -1, "trial_index": 186}, "uniqueid": "MTK2503:3QIYRE09Y4O78PY16N52LCZSK4N1NA", "dateTime": 1517870065935}, {"current_trial": 187, "trialdata": {"rt": -1, "trial_type": "single-stim", "stimulus": "<p id=\"stim\">9</p>", "internal_node_id": "0.0-141.0-1.0", "time_elapsed": 884646, "key_press": -1, "trial_index": 187}, "uniqueid": "MTK2503:3QIYRE09Y4O78PY16N52LCZSK4N1NA", "dateTime": 1517870066936}, {"current_trial": 188, "trialdata": {"rt": -1, "trial_type": "single-stim", "stimulus": "<p id=\"stim\">8</p>", "internal_node_id": "0.0-141.0-2.0", "time_elapsed": 885662, "key_press": -1, "trial_index": 188}, "uniqueid": "MTK2503:3QIYRE09Y4O78PY16N52LCZSK4N1NA", "dateTime": 1517870067952}, {"current_trial": 189, "trialdata": {"rt": -1, "trial_type": "single-stim", "stimulus": "<p id=\"stim\">7</p>", "internal_node_id": "0.0-141.0-3.0", "time_elapsed": 886662, "key_press": -1, "trial_index": 189}, "uniqueid": "MTK2503:3QIYRE09Y4O78PY16N52LCZSK4N1NA", "dateTime": 1517870068952}, {"current_trial": 190, "trialdata": {"rt": -1, "trial_type": "single-stim", "stimulus": "<p id=\"stim\">6</p>", "internal_node_id": "0.0-141.0-4.0", "time_elapsed": 887664, "key_press": -1, "trial_index": 190}, "uniqueid": "MTK2503:3QIYRE09Y4O78PY16N52LCZSK4N1NA", "dateTime": 1517870069954}, {"current_trial": 191, "trialdata": {"rt": -1, "trial_type": "single-stim", "stimulus": "<p id=\"stim\">5</p>", "internal_node_id": "0.0-141.0-5.0", "time_elapsed": 888669, "key_press": -1, "trial_index": 191}, "uniqueid": "MTK2503:3QIYRE09Y4O78PY16N52LCZSK4N1NA", "dateTime": 1517870070959}, {"current_trial": 192, "trialdata": {"rt": -1, "trial_type": "single-stim", "stimulus": "<p id=\"stim\">4</p>", "internal_node_id": "0.0-141.0-6.0", "time_elapsed": 889683, "key_press": -1, "trial_index": 192}, "uniqueid": "MTK2503:3QIYRE09Y4O78PY16N52LCZSK4N1NA", "dateTime": 1517870071973}, {"current_trial": 193, "trialdata": {"rt": -1, "trial_type": "single-stim", "stimulus": "<p id=\"stim\">3</p>", "internal_node_id": "0.0-141.0-7.0", "time_elapsed": 890687, "key_press": -1, "trial_index": 193}, "uniqueid": "MTK2503:3QIYRE09Y4O78PY16N52LCZSK4N1NA", "dateTime": 1517870072977}, {"current_trial": 194, "trialdata": {"rt": -1, "trial_type": "single-stim", "stimulus": "<p id=\"stim\">2</p>", "internal_node_id": "0.0-141.0-8.0", "time_elapsed": 891690, "key_press": -1, "trial_index": 194}, "uniqueid": "MTK2503:3QIYRE09Y4O78PY16N52LCZSK4N1NA", "dateTime": 1517870073980}, {"current_trial": 195, "trialdata": {"rt": -1, "trial_type": "single-stim", "stimulus": "<p id=\"stim\">1</p>", "internal_node_id": "0.0-141.0-9.0", "time_elapsed": 892690, "key_press": -1, "trial_index": 195}, "uniqueid": "MTK2503:3QIYRE09Y4O78PY16N52LCZSK4N1NA", "dateTime": 1517870074980}, {"current_trial": 196, "trialdata": {"rt": -1, "trial_type": "single-stim", "stimulus": "<p id=\"stim\">+</p>", "internal_node_id": "0.0-142.0-0.0", "time_elapsed": 894190, "key_press": -1, "type": "FIXATION", "trial_index": 196}, "uniqueid": "MTK2503:3QIYRE09Y4O78PY16N52LCZSK4N1NA", "dateTime": 1517870076480}, {"current_trial": 197, "trialdata": {"rt": -1000, "trial_type": "single-audio", "word": "flask", "stimulus": "/static/audio/wordpool/FLASK.wav", "conditions": [12, 1600, "a", 24000], "internal_node_id": "0.0-143.0", "trial": 5, "time_elapsed": 896723, "serialpos": 0, "key_press": -1, "wordID": 575, "type": "PRES_AUD", "trial_index": 197}, "uniqueid": "MTK2503:3QIYRE09Y4O78PY16N52LCZSK4N1NA", "dateTime": 1517870079013}, {"current_trial": 198, "trialdata": {"rt": -1000, "trial_type": "single-audio", "word": "paper", "stimulus": "/static/audio/wordpool/PAPER.wav", "conditions": [12, 1600, "a", 24000], "internal_node_id": "0.0-144.0", "trial": 5, "time_elapsed": 899484, "serialpos": 1, "key_press": -1, "wordID": 1010, "type": "PRES_AUD", "trial_index": 198}, "uniqueid": "MTK2503:3QIYRE09Y4O78PY16N52LCZSK4N1NA", "dateTime": 1517870081775}, {"current_trial": 199, "trialdata": {"rt": -1000, "trial_type": "single-audio", "word": "pistol", "stimulus": "/static/audio/wordpool/PISTOL.wav", "conditions": [12, 1600, "a", 24000], "internal_node_id": "0.0-145.0", "trial": 5, "time_elapsed": 902083, "serialpos": 2, "key_press": -1, "wordID": 1074, "type": "PRES_AUD", "trial_index": 199}, "uniqueid": "MTK2503:3QIYRE09Y4O78PY16N52LCZSK4N1NA", "dateTime": 1517870084373}, {"current_trial": 200, "trialdata": {"rt": -1000, "trial_type": "single-audio", "word": "tombstone", "stimulus": "/static/audio/wordpool/TOMBSTONE.wav", "conditions": [12, 1600, "a", 24000], "internal_node_id": "0.0-146.0", "trial": 5, "time_elapsed": 904587, "serialpos": 3, "key_press": -1, "wordID": 1477, "type": "PRES_AUD", "trial_index": 200}, "uniqueid": "MTK2503:3QIYRE09Y4O78PY16N52LCZSK4N1NA", "dateTime": 1517870086877}, {"current_trial": 201, "trialdata": {"rt": -1000, "trial_type": "single-audio", "word": "venus", "stimulus": "/static/audio/wordpool/VENUS.wav", "conditions": [12, 1600, "a", 24000], "internal_node_id": "0.0-147.0", "trial": 5, "time_elapsed": 907341, "serialpos": 4, "key_press": -1, "wordID": 1556, "type": "PRES_AUD", "trial_index": 201}, "uniqueid": "MTK2503:3QIYRE09Y4O78PY16N52LCZSK4N1NA", "dateTime": 1517870089631}, {"current_trial": 202, "trialdata": {"rt": -1000, "trial_type": "single-audio", "word": "sandwich", "stimulus": "/static/audio/wordpool/SANDWICH.wav", "conditions": [12, 1600, "a", 24000], "internal_node_id": "0.0-148.0", "trial": 5, "time_elapsed": 910046, "serialpos": 5, "key_press": -1, "wordID": 1231, "type": "PRES_AUD", "trial_index": 202}, "uniqueid": "MTK2503:3QIYRE09Y4O78PY16N52LCZSK4N1NA", "dateTime": 1517870092336}, {"current_trial": 203, "trialdata": {"rt": -1000, "trial_type": "single-audio", "word": "casket", "stimulus": "/static/audio/wordpool/CASKET.wav", "conditions": [12, 1600, "a", 24000], "internal_node_id": "0.0-149.0", "trial": 5, "time_elapsed": 912733, "serialpos": 6, "key_press": -1, "wordID": 254, "type": "PRES_AUD", "trial_index": 203}, "uniqueid": "MTK2503:3QIYRE09Y4O78PY16N52LCZSK4N1NA", "dateTime": 1517870095024}, {"current_trial": 204, "trialdata": {"rt": -1000, "trial_type": "single-audio", "word": "baby", "stimulus": "/static/audio/wordpool/BABY.wav", "conditions": [12, 1600, "a", 24000], "internal_node_id": "0.0-150.0", "trial": 5, "time_elapsed": 915460, "serialpos": 7, "key_press": -1, "wordID": 63, "type": "PRES_AUD", "trial_index": 204}, "uniqueid": "MTK2503:3QIYRE09Y4O78PY16N52LCZSK4N1NA", "dateTime": 1517870097750}, {"current_trial": 205, "trialdata": {"rt": -1000, "trial_type": "single-audio", "word": "crib", "stimulus": "/static/audio/wordpool/CRIB.wav", "conditions": [12, 1600, "a", 24000], "internal_node_id": "0.0-151.0", "trial": 5, "time_elapsed": 917991, "serialpos": 8, "key_press": -1, "wordID": 406, "type": "PRES_AUD", "trial_index": 205}, "uniqueid": "MTK2503:3QIYRE09Y4O78PY16N52LCZSK4N1NA", "dateTime": 1517870100281}, {"current_trial": 206, "trialdata": {"rt": -1000, "trial_type": "single-audio", "word": "passage", "stimulus": "/static/audio/wordpool/PASSAGE.wav", "conditions": [12, 1600, "a", 24000], "internal_node_id": "0.0-152.0", "trial": 5, "time_elapsed": 920678, "serialpos": 9, "key_press": -1, "wordID": 1018, "type": "PRES_AUD", "trial_index": 206}, "uniqueid": "MTK2503:3QIYRE09Y4O78PY16N52LCZSK4N1NA", "dateTime": 1517870102968}, {"current_trial": 207, "trialdata": {"rt": -1000, "trial_type": "single-audio", "word": "sunset", "stimulus": "/static/audio/wordpool/SUNSET.wav", "conditions": [12, 1600, "a", 24000], "internal_node_id": "0.0-153.0", "trial": 5, "time_elapsed": 923243, "serialpos": 10, "key_press": -1, "wordID": 1407, "type": "PRES_AUD", "trial_index": 207}, "uniqueid": "MTK2503:3QIYRE09Y4O78PY16N52LCZSK4N1NA", "dateTime": 1517870105534}, {"current_trial": 208, "trialdata": {"rt": -1000, "trial_type": "single-audio", "word": "pilot", "stimulus": "/static/audio/wordpool/PILOT.wav", "conditions": [12, 1600, "a", 24000], "internal_node_id": "0.0-154.0", "trial": 5, "time_elapsed": 925777, "serialpos": 11, "key_press": -1, "wordID": 1069, "type": "PRES_AUD", "trial_index": 208}, "uniqueid": "MTK2503:3QIYRE09Y4O78PY16N52LCZSK4N1NA", "dateTime": 1517870108067}, {"current_trial": 209, "trialdata": {"rt": -1, "trial_type": "single-stim", "stimulus": "", "internal_node_id": "0.0-155.0-0.0", "time_elapsed": 927107, "key_press": -1, "type": "PRE_RECALL_DELAY", "trial_index": 209}, "uniqueid": "MTK2503:3QIYRE09Y4O78PY16N52LCZSK4N1NA", "dateTime": 1517870109397}, {"current_trial": 210, "trialdata": {"rt": -1000, "trial_type": "single-audio", "stimulus": "/static/audio/400Hz.wav", "internal_node_id": "0.0-156.0", "time_elapsed": 927617, "key_press": -1, "type": "PRE_RECALL_ALERT", "trial_index": 210}, "uniqueid": "MTK2503:3QIYRE09Y4O78PY16N52LCZSK4N1NA", "dateTime": 1517870109907}, {"current_trial": 211, "trialdata": {"rt": [2957, 5279, 8873, 12416, 14475, 18225, 20809, 23694, 27687, 31989, 34585], "recwords": ["pilot", "sunset", "passage", "tombstone", "casket", "flask", "paper", "venus", "sandwich", "baby", "crib"], "key_times": [1021, 1260, 1454, 1642, 1908, 2957, 3611, 3838, 4076, 4380, 4641, 4964, 5279, 6671, 6859, 7106, 7277, 7487, 7847, 8150, 8873, 9921, 10167, 10469, 10829, 11053, 11344, 11491, 11785, 11952, 12416, 13086, 13287, 13492, 13684, 13887, 14174, 14475, 16395, 16805, 17207, 17389, 17525, 17677, 17946, 18225, 19785, 19955, 20099, 20345, 20511, 20809, 22506, 22725, 22914, 23255, 23487, 23694, 24380, 24490, 24871, 25038, 25323, 25544, 25830, 26078, 27687, 29566, 29766, 29929, 30581, 31326, 31753, 31989, 32626, 32862, 32988, 33299, 34585], "trial_type": "free-recall", "conditions": [12, 1600, "a", 24000], "internal_node_id": "0.0-157.0-0.0", "key_presses": [80, 73, 76, 79, 84, 32, 83, 85, 78, 83, 69, 84, 32, 80, 65, 83, 83, 65, 71, 69, 32, 84, 79, 77, 66, 83, 84, 79, 78, 69, 32, 67, 65, 83, 75, 69, 84, 32, 76, 8, 70, 76, 65, 83, 75, 32, 80, 65, 80, 69, 82, 32, 86, 69, 78, 85, 83, 32, 83, 65, 78, 68, 87, 73, 67, 72, 32, 66, 65, 66, 85, 8, 89, 32, 67, 82, 73, 66, 32], "trial": 5, "time_elapsed": 987628, "type": "FREE_RECALL", "trial_index": 211}, "uniqueid": "MTK2503:3QIYRE09Y4O78PY16N52LCZSK4N1NA", "dateTime": 1517870169938}, {"current_trial": 212, "trialdata": {"rt": 718, "trial_type": "text", "internal_node_id": "0.0-158.0", "time_elapsed": 990373, "key_press": 32, "type": "INSTRUCTIONS", "trial_index": 212}, "uniqueid": "MTK2503:3QIYRE09Y4O78PY16N52LCZSK4N1NA", "dateTime": 1517870172663}, {"current_trial": 213, "trialdata": {"rt": [2005, 4198, 6240, 8534, 10194, 11995, 13970, 15678, 17627, 19473, 21145, 23012], "trial_type": "math-distractor", "key_times": [1342, 1516, 2005, 3278, 3440, 4198, 5807, 5907, 6240, 7769, 8153, 8534, 9684, 9924, 10194, 11294, 11643, 11995, 13480, 13710, 13970, 15167, 15393, 15678, 17120, 17354, 17627, 19088, 19473, 20808, 21145, 22476, 22700, 23012], "responses": ["11", "10", "15", "19", "14", "19", "24", "21", "15", "9", "9", "15"], "num2": [1, 4, 3, 8, 6, 1, 9, 7, 6, 7, 4, 8, 8], "num3": [1, 5, 6, 2, 7, 9, 9, 7, 6, 1, 2, 4, 9], "conditions": [12, 800, "a", 24000], "internal_node_id": "0.0-159.0", "key_presses": [97, 97, 13, 97, 96, 13, 97, 101, 13, 97, 105, 13, 97, 100, 13, 97, 105, 13, 98, 100, 13, 98, 97, 13, 97, 101, 13, 105, 13, 105, 13, 97, 101, 13], "trial": 6, "time_elapsed": 1016383, "type": "DISTRACTOR", "trial_index": 213, "num1": [9, 1, 6, 9, 1, 9, 6, 7, 3, 1, 3, 3, 5]}, "uniqueid": "MTK2503:3QIYRE09Y4O78PY16N52LCZSK4N1NA", "dateTime": 1517870198673}, {"current_trial": 214, "trialdata": {"rt": -1, "trial_type": "single-stim", "stimulus": "<p id=\"stim\">10</p>", "internal_node_id": "0.0-160.0-0.0", "time_elapsed": 1019385, "key_press": -1, "trial_index": 214}, "uniqueid": "MTK2503:3QIYRE09Y4O78PY16N52LCZSK4N1NA", "dateTime": 1517870201675}, {"current_trial": 215, "trialdata": {"rt": -1, "trial_type": "single-stim", "stimulus": "<p id=\"stim\">9</p>", "internal_node_id": "0.0-160.0-1.0", "time_elapsed": 1020385, "key_press": -1, "trial_index": 215}, "uniqueid": "MTK2503:3QIYRE09Y4O78PY16N52LCZSK4N1NA", "dateTime": 1517870202675}, {"current_trial": 216, "trialdata": {"rt": -1, "trial_type": "single-stim", "stimulus": "<p id=\"stim\">8</p>", "internal_node_id": "0.0-160.0-2.0", "time_elapsed": 1021387, "key_press": -1, "trial_index": 216}, "uniqueid": "MTK2503:3QIYRE09Y4O78PY16N52LCZSK4N1NA", "dateTime": 1517870203677}, {"current_trial": 217, "trialdata": {"rt": -1, "trial_type": "single-stim", "stimulus": "<p id=\"stim\">7</p>", "internal_node_id": "0.0-160.0-3.0", "time_elapsed": 1022396, "key_press": -1, "trial_index": 217}, "uniqueid": "MTK2503:3QIYRE09Y4O78PY16N52LCZSK4N1NA", "dateTime": 1517870204686}, {"current_trial": 218, "trialdata": {"rt": -1, "trial_type": "single-stim", "stimulus": "<p id=\"stim\">6</p>", "internal_node_id": "0.0-160.0-4.0", "time_elapsed": 1023397, "key_press": -1, "trial_index": 218}, "uniqueid": "MTK2503:3QIYRE09Y4O78PY16N52LCZSK4N1NA", "dateTime": 1517870205687}, {"current_trial": 219, "trialdata": {"rt": -1, "trial_type": "single-stim", "stimulus": "<p id=\"stim\">5</p>", "internal_node_id": "0.0-160.0-5.0", "time_elapsed": 1024398, "key_press": -1, "trial_index": 219}, "uniqueid": "MTK2503:3QIYRE09Y4O78PY16N52LCZSK4N1NA", "dateTime": 1517870206688}, {"current_trial": 220, "trialdata": {"rt": -1, "trial_type": "single-stim", "stimulus": "<p id=\"stim\">4</p>", "internal_node_id": "0.0-160.0-6.0", "time_elapsed": 1025399, "key_press": -1, "trial_index": 220}, "uniqueid": "MTK2503:3QIYRE09Y4O78PY16N52LCZSK4N1NA", "dateTime": 1517870207689}, {"current_trial": 221, "trialdata": {"rt": -1, "trial_type": "single-stim", "stimulus": "<p id=\"stim\">3</p>", "internal_node_id": "0.0-160.0-7.0", "time_elapsed": 1026400, "key_press": -1, "trial_index": 221}, "uniqueid": "MTK2503:3QIYRE09Y4O78PY16N52LCZSK4N1NA", "dateTime": 1517870208690}, {"current_trial": 222, "trialdata": {"rt": -1, "trial_type": "single-stim", "stimulus": "<p id=\"stim\">2</p>", "internal_node_id": "0.0-160.0-8.0", "time_elapsed": 1027400, "key_press": -1, "trial_index": 222}, "uniqueid": "MTK2503:3QIYRE09Y4O78PY16N52LCZSK4N1NA", "dateTime": 1517870209690}, {"current_trial": 223, "trialdata": {"rt": -1, "trial_type": "single-stim", "stimulus": "<p id=\"stim\">1</p>", "internal_node_id": "0.0-160.0-9.0", "time_elapsed": 1028402, "key_press": -1, "trial_index": 223}, "uniqueid": "MTK2503:3QIYRE09Y4O78PY16N52LCZSK4N1NA", "dateTime": 1517870210692}, {"current_trial": 224, "trialdata": {"rt": -1, "trial_type": "single-stim", "stimulus": "<p id=\"stim\">+</p>", "internal_node_id": "0.0-161.0-0.0", "time_elapsed": 1029904, "key_press": -1, "type": "FIXATION", "trial_index": 224}, "uniqueid": "MTK2503:3QIYRE09Y4O78PY16N52LCZSK4N1NA", "dateTime": 1517870212194}, {"current_trial": 225, "trialdata": {"rt": -1000, "trial_type": "single-audio", "word": "picture", "stimulus": "/static/audio/wordpool/PICTURE.wav", "conditions": [12, 800, "a", 24000], "internal_node_id": "0.0-162.0", "trial": 6, "time_elapsed": 1031699, "serialpos": 0, "key_press": -1, "wordID": 1060, "type": "PRES_AUD", "trial_index": 225}, "uniqueid": "MTK2503:3QIYRE09Y4O78PY16N52LCZSK4N1NA", "dateTime": 1517870213990}, {"current_trial": 226, "trialdata": {"rt": -1000, "trial_type": "single-audio", "word": "stream", "stimulus": "/static/audio/wordpool/STREAM.wav", "conditions": [12, 800, "a", 24000], "internal_node_id": "0.0-163.0", "trial": 6, "time_elapsed": 1033555, "serialpos": 1, "key_press": -1, "wordID": 1391, "type": "PRES_AUD", "trial_index": 226}, "uniqueid": "MTK2503:3QIYRE09Y4O78PY16N52LCZSK4N1NA", "dateTime": 1517870215845}, {"current_trial": 227, "trialdata": {"rt": -1000, "trial_type": "single-audio", "word": "journal", "stimulus": "/static/audio/wordpool/JOURNAL.wav", "conditions": [12, 800, "a", 24000], "internal_node_id": "0.0-164.0", "trial": 6, "time_elapsed": 1035344, "serialpos": 2, "key_press": -1, "wordID": 759, "type": "PRES_AUD", "trial_index": 227}, "uniqueid": "MTK2503:3QIYRE09Y4O78PY16N52LCZSK4N1NA", "dateTime": 1517870217635}, {"current_trial": 228, "trialdata": {"rt": -1000, "trial_type": "single-audio", "word": "hedge", "stimulus": "/static/audio/wordpool/HEDGE.wav", "conditions": [12, 800, "a", 24000], "internal_node_id": "0.0-165.0", "trial": 6, "time_elapsed": 1037050, "serialpos": 3, "key_press": -1, "wordID": 698, "type": "PRES_AUD", "trial_index": 228}, "uniqueid": "MTK2503:3QIYRE09Y4O78PY16N52LCZSK4N1NA", "dateTime": 1517870219340}, {"current_trial": 229, "trialdata": {"rt": -1000, "trial_type": "single-audio", "word": "window", "stimulus": "/static/audio/wordpool/WINDOW.wav", "conditions": [12, 800, "a", 24000], "internal_node_id": "0.0-166.0", "trial": 6, "time_elapsed": 1038728, "serialpos": 4, "key_press": -1, "wordID": 1610, "type": "PRES_AUD", "trial_index": 229}, "uniqueid": "MTK2503:3QIYRE09Y4O78PY16N52LCZSK4N1NA", "dateTime": 1517870221018}, {"current_trial": 230, "trialdata": {"rt": -1000, "trial_type": "single-audio", "word": "ankle", "stimulus": "/static/audio/wordpool/ANKLE.wav", "conditions": [12, 800, "a", 24000], "internal_node_id": "0.0-167.0", "trial": 6, "time_elapsed": 1040664, "serialpos": 5, "key_press": -1, "wordID": 23, "type": "PRES_AUD", "trial_index": 230}, "uniqueid": "MTK2503:3QIYRE09Y4O78PY16N52LCZSK4N1NA", "dateTime": 1517870222954}, {"current_trial": 231, "trialdata": {"rt": -1000, "trial_type": "single-audio", "word": "rod", "stimulus": "/static/audio/wordpool/ROD.wav", "conditions": [12, 800, "a", 24000], "internal_node_id": "0.0-168.0", "trial": 6, "time_elapsed": 1042279, "serialpos": 6, "key_press": -1, "wordID": 1202, "type": "PRES_AUD", "trial_index": 231}, "uniqueid": "MTK2503:3QIYRE09Y4O78PY16N52LCZSK4N1NA", "dateTime": 1517870224569}, {"current_trial": 232, "trialdata": {"rt": -1000, "trial_type": "single-audio", "word": "message", "stimulus": "/static/audio/wordpool/MESSAGE.wav", "conditions": [12, 800, "a", 24000], "internal_node_id": "0.0-169.0", "trial": 6, "time_elapsed": 1044034, "serialpos": 7, "key_press": -1, "wordID": 887, "type": "PRES_AUD", "trial_index": 232}, "uniqueid": "MTK2503:3QIYRE09Y4O78PY16N52LCZSK4N1NA", "dateTime": 1517870226324}, {"current_trial": 233, "trialdata": {"rt": -1000, "trial_type": "single-audio", "word": "orchid", "stimulus": "/static/audio/wordpool/ORCHID.wav", "conditions": [12, 800, "a", 24000], "internal_node_id": "0.0-170.0", "trial": 6, "time_elapsed": 1045699, "serialpos": 8, "key_press": -1, "wordID": 981, "type": "PRES_AUD", "trial_index": 233}, "uniqueid": "MTK2503:3QIYRE09Y4O78PY16N52LCZSK4N1NA", "dateTime": 1517870227989}, {"current_trial": 234, "trialdata": {"rt": -1000, "trial_type": "single-audio", "word": "shrub", "stimulus": "/static/audio/wordpool/SHRUB.wav", "conditions": [12, 800, "a", 24000], "internal_node_id": "0.0-171.0", "trial": 6, "time_elapsed": 1047384, "serialpos": 9, "key_press": -1, "wordID": 1298, "type": "PRES_AUD", "trial_index": 234}, "uniqueid": "MTK2503:3QIYRE09Y4O78PY16N52LCZSK4N1NA", "dateTime": 1517870229675}, {"current_trial": 235, "trialdata": {"rt": -1000, "trial_type": "single-audio", "word": "leg", "stimulus": "/static/audio/wordpool/LEG.wav", "conditions": [12, 800, "a", 24000], "internal_node_id": "0.0-172.0", "trial": 6, "time_elapsed": 1049062, "serialpos": 10, "key_press": -1, "wordID": 808, "type": "PRES_AUD", "trial_index": 235}, "uniqueid": "MTK2503:3QIYRE09Y4O78PY16N52LCZSK4N1NA", "dateTime": 1517870231352}, {"current_trial": 236, "trialdata": {"rt": -1000, "trial_type": "single-audio", "word": "coffee", "stimulus": "/static/audio/wordpool/COFFEE.wav", "conditions": [12, 800, "a", 24000], "internal_node_id": "0.0-173.0", "trial": 6, "time_elapsed": 1050770, "serialpos": 11, "key_press": -1, "wordID": 340, "type": "PRES_AUD", "trial_index": 236}, "uniqueid": "MTK2503:3QIYRE09Y4O78PY16N52LCZSK4N1NA", "dateTime": 1517870233061}, {"current_trial": 237, "trialdata": {"rt": -1, "trial_type": "single-stim", "stimulus": "", "internal_node_id": "0.0-174.0-0.0", "time_elapsed": 1052173, "key_press": -1, "type": "PRE_RECALL_DELAY", "trial_index": 237}, "uniqueid": "MTK2503:3QIYRE09Y4O78PY16N52LCZSK4N1NA", "dateTime": 1517870234463}, {"current_trial": 238, "trialdata": {"rt": -1000, "trial_type": "single-audio", "stimulus": "/static/audio/400Hz.wav", "internal_node_id": "0.0-175.0", "time_elapsed": 1052675, "key_press": -1, "type": "PRE_RECALL_ALERT", "trial_index": 238}, "uniqueid": "MTK2503:3QIYRE09Y4O78PY16N52LCZSK4N1NA", "dateTime": 1517870234965}, {"current_trial": 239, "trialdata": {"rt": [2578, 4205, 5552, 8011, 10162, 16139, 18181, 23800, 29182, 34098], "recwords": ["coffee", "ankle", "leg", "shrub", "hedge", "picture", "window", "message", "rod", "journal"], "key_times": [803, 964, 1215, 1379, 1586, 1746, 2578, 3024, 3203, 3420, 3598, 3769, 4205, 4728, 4862, 5268, 5552, 6132, 6505, 6760, 7116, 7553, 8011, 9118, 9283, 9521, 9748, 9949, 10162, 13569, 13824, 14150, 14545, 14704, 14909, 15106, 15801, 15921, 16139, 16648, 16868, 17124, 17369, 17554, 17981, 18181, 22156, 22436, 22695, 22895, 23015, 23277, 23439, 23800, 24958, 25908, 26792, 27083, 27489, 29182, 31754, 32147, 32502, 32756, 32940, 33200, 33459, 34098], "trial_type": "free-recall", "conditions": [12, 800, "a", 24000], "internal_node_id": "0.0-176.0-0.0", "key_presses": [67, 79, 70, 70, 69, 69, 32, 65, 78, 75, 76, 69, 32, 76, 69, 71, 32, 83, 72, 82, 85, 66, 32, 72, 69, 68, 71, 69, 32, 80, 73, 83, 8, 67, 84, 85, 82, 69, 32, 87, 73, 78, 68, 79, 87, 32, 77, 69, 83, 83, 65, 71, 69, 32, 79, 8, 82, 79, 68, 32, 74, 79, 85, 82, 78, 65, 76, 32], "trial": 6, "time_elapsed": 1112686, "type": "FREE_RECALL", "trial_index": 239}, "uniqueid": "MTK2503:3QIYRE09Y4O78PY16N52LCZSK4N1NA", "dateTime": 1517870295000}, {"current_trial": 240, "trialdata": {"rt": 1011, "trial_type": "text", "internal_node_id": "0.0-177.0", "time_elapsed": 1115725, "key_press": 32, "type": "INSTRUCTIONS", "trial_index": 240}, "uniqueid": "MTK2503:3QIYRE09Y4O78PY16N52LCZSK4N1NA", "dateTime": 1517870298015}, {"current_trial": 241, "trialdata": {"rt": [2217, 4069, 5905, 7635, 9421, 11268], "trial_type": "math-distractor", "key_times": [1717, 1893, 2217, 3461, 3723, 4069, 5465, 5681, 5905, 7255, 7419, 7635, 9022, 9200, 9421, 10745, 10865, 11268], "responses": ["11", "16", "14", "11", "21", "10"], "num2": [3, 4, 5, 3, 6, 4, 3], "num3": [3, 5, 6, 5, 8, 2, 6], "conditions": [12, 800, "a", 12000], "internal_node_id": "0.0-178.0", "key_presses": [97, 97, 13, 97, 102, 13, 97, 100, 13, 97, 97, 13, 98, 97, 13, 97, 96, 13], "