{"assignmentId": "38JBBYETQPHK6II706LLTNCMK1K4E1", "workerId": "MTK2774", "questiondata": {"origin": "United States", "strat-rehearsal": "64", "marital": "Single", "education": "Bachelor's degree", "ethnicity": "Not Hispanic", "color_depth": 24, "distracted": "No", "wrote-notes": "Yes", "strat-other": "", "screen_width": 1536, "avail_screen_width": 1536, "avail_screen_height": 824, "strat-image": "46", "language": "english", "gender": "Male", "age": "35", "gender_other": "", "race": ["White"], "strat-categorize": "64", "pixel_depth": 24, "strat-spatial": "64", "strat-story": "10", "race_other": "", "screen_height": 864}, "bonus": 0, "hitId": "3GS542CVJVUJKLXWGYJ7HHL58Q859Q", "counterbalance": 1174, "useragent": "Mozilla/5.0 (Windows NT 10.0; Win64; x64) AppleWebKit/537.36 (KHTML, like Gecko) Chrome/64.0.3282.167 Safari/537.36", "eventdata": [{"eventtype": "initialized", "interval": 0, "value": null, "timestamp": 1519330428147}, {"eventtype": "window_resize", "interval": 0, "value": [1540, 816], "timestamp": 1519330428147}, {"eventtype": "focus", "interval": 351173, "value": "off", "timestamp": 1519330779320}, {"eventtype": "focus", "interval": 12279, "value": "on", "timestamp": 1519330791599}, {"eventtype": "focus", "interval": 1045369, "value": "off", "timestamp": 1519331836968}, {"eventtype": "focus", "interval": 222, "value": "on", "timestamp": 1519331837190}, {"eventtype": "focus", "interval": 856892, "value": "off", "timestamp": 1519332694082}, {"eventtype": "focus", "interval": 11969, "value": "on", "timestamp": 1519332706051}, {"eventtype": "focus", "interval": 449000, "value": "off", "timestamp": 1519333155051}, {"eventtype": "focus", "interval": 5549, "value": "on", "timestamp": 1519333160600}, {"eventtype": "focus", "interval": 521590, "value": "off", "timestamp": 1519333682190}, {"eventtype": "focus", "interval": 11116, "value": "on", "timestamp": 1519333693306}, {"eventtype": "focus", "interval": 84620, "value": "off", "timestamp": 1519333777926}, {"eventtype": "focus", "interval": 48303, "value": "on", "timestamp": 1519333826229}, {"eventtype": "focus", "interval": 6211, "value": "off", "timestamp": 1519333832440}, {"eventtype": "focus", "interval": 91194, "value": "on", "timestamp": 1519333923634}, {"eventtype": "focus", "interval": 4396, "value": "off", "timestamp": 1519333928030}, {"eventtype": "focus", "interval": 234, "value": "on", "timestamp": 1519333928264}], "data": [{"current_trial": 0, "trialdata": {"rt": 5827, "trial_type": "text", "internal_node_id": "0.0-0.0", "time_elapsed": 5830, "key_press": 39, "type": "INSTRUCTIONS", "trial_index": 0}, "uniqueid": "MTK2774:38JBBYETQPHK6II706LLTNCMK1K4E1", "dateTime": 1519330438522}, {"current_trial": 1, "trialdata": {"rt": 8330, "trial_type": "text", "internal_node_id": "0.0-1.0", "time_elapsed": 14163, "key_press": 39, "type": "INSTRUCTIONS", "trial_index": 1}, "uniqueid": "MTK2774:38JBBYETQPHK6II706LLTNCMK1K4E1", "dateTime": 1519330446854}, {"current_trial": 2, "trialdata": {"rt": [7468], "trial_type": "audio-test", "responses": ["ocean"], "internal_node_id": "0.0-2.0", "time_elapsed": 21636, "type": "AUDIO_TEST", "trial_index": 2}, "uniqueid": "MTK2774:38JBBYETQPHK6II706LLTNCMK1K4E1", "dateTime": 1519330454327}, {"current_trial": 3, "trialdata": {"rt": [12325], "trial_type": "audio-test", "responses": ["crystal"], "internal_node_id": "0.0-3.0", "time_elapsed": 33964, "type": "AUDIO_TEST", "trial_index": 3}, "uniqueid": "MTK2774:38JBBYETQPHK6II706LLTNCMK1K4E1", "dateTime": 1519330466655}, {"current_trial": 4, "trialdata": {"rt": [7407], "trial_type": "audio-test", "responses": ["spice"], "internal_node_id": "0.0-4.0", "time_elapsed": 41374, "type": "AUDIO_TEST", "trial_index": 4}, "uniqueid": "MTK2774:38JBBYETQPHK6II706LLTNCMK1K4E1", "dateTime": 1519330474065}, {"current_trial": 5, "trialdata": {"rt": 93102, "trial_type": "survey-text", "responses": "{\"Q0\":\"1am\",\"Q1\":\"8am\",\"Q2\":\"4\"}", "internal_node_id": "0.0-5.0", "time_elapsed": 135232, "type": "SLEEP_SURVEY", "trial_index": 5}, "uniqueid": "MTK2774:38JBBYETQPHK6II706LLTNCMK1K4E1", "dateTime": 1519330567923}, {"current_trial": 6, "trialdata": {"rt": 9065, "trial_type": "text", "internal_node_id": "0.0-6.0", "time_elapsed": 145303, "key_press": 40, "type": "INSTRUCTIONS", "trial_index": 6}, "uniqueid": "MTK2774:38JBBYETQPHK6II706LLTNCMK1K4E1", "dateTime": 1519330577994}, {"current_trial": 7, "trialdata": {"rt": 59806, "trial_type": "text", "internal_node_id": "0.0-7.0", "time_elapsed": 205614, "key_press": 39, "type": "INSTRUCTIONS", "trial_index": 7}, "uniqueid": "MTK2774:38JBBYETQPHK6II706LLTNCMK1K4E1", "dateTime": 1519330638305}, {"current_trial": 8, "trialdata": {"rt": 11054, "trial_type": "text", "internal_node_id": "0.0-8.0", "time_elapsed": 217170, "key_press": 39, "type": "INSTRUCTIONS", "trial_index": 8}, "uniqueid": "MTK2774:38JBBYETQPHK6II706LLTNCMK1K4E1", "dateTime": 1519330649861}, {"current_trial": 9, "trialdata": {"rt": [4332, 8691, 12076, 15463], "trial_type": "math-distractor", "key_times": [3553, 4332, 6864, 7897, 8691, 10642, 11580, 12076, 14073, 14973, 15463, 17121, 17968], "responses": ["5", "15", "10", "10"], "num2": [1, 4, 3, 1, 6], "num3": [2, 8, 6, 4, 8], "conditions": [18, 1200, "a", 18000], "internal_node_id": "0.0-9.0", "key_presses": [53, 13, 49, 53, 13, 49, 48, 13, 49, 48, 13, 49, 53], "trial": 0, "time_elapsed": 236184, "type": "DISTRACTOR", "trial_index": 9, "num1": [2, 3, 1, 5, 1]}, "uniqueid": "MTK2774:38JBBYETQPHK6II706LLTNCMK1K4E1", "dateTime": 1519330668875}, {"current_trial": 10, "trialdata": {"rt": -1, "trial_type": "single-stim", "stimulus": "<p id=\"stim\">10</p>", "internal_node_id": "0.0-10.0-0.0", "time_elapsed": 239194, "key_press": -1, "trial_index": 10}, "uniqueid": "MTK2774:38JBBYETQPHK6II706LLTNCMK1K4E1", "dateTime": 1519330671885}, {"current_trial": 11, "trialdata": {"rt": -1, "trial_type": "single-stim", "stimulus": "<p id=\"stim\">9</p>", "internal_node_id": "0.0-10.0-1.0", "time_elapsed": 240200, "key_press": -1, "trial_index": 11}, "uniqueid": "MTK2774:38JBBYETQPHK6II706LLTNCMK1K4E1", "dateTime": 1519330672891}, {"current_trial": 12, "trialdata": {"rt": -1, "trial_type": "single-stim", "stimulus": "<p id=\"stim\">8</p>", "internal_node_id": "0.0-10.0-2.0", "time_elapsed": 241204, "key_press": -1, "trial_index": 12}, "uniqueid": "MTK2774:38JBBYETQPHK6II706LLTNCMK1K4E1", "dateTime": 1519330673895}, {"current_trial": 13, "trialdata": {"rt": -1, "trial_type": "single-stim", "stimulus": "<p id=\"stim\">7</p>", "internal_node_id": "0.0-10.0-3.0", "time_elapsed": 242209, "key_press": -1, "trial_index": 13}, "uniqueid": "MTK2774:38JBBYETQPHK6II706LLTNCMK1K4E1", "dateTime": 1519330674900}, {"current_trial": 14, "trialdata": {"rt": -1, "trial_type": "single-stim", "stimulus": "<p id=\"stim\">6</p>", "internal_node_id": "0.0-10.0-4.0", "time_elapsed": 243214, "key_press": -1, "trial_index": 14}, "uniqueid": "MTK2774:38JBBYETQPHK6II706LLTNCMK1K4E1", "dateTime": 1519330675905}, {"current_trial": 15, "trialdata": {"rt": -1, "trial_type": "single-stim", "stimulus": "<p id=\"stim\">5</p>", "internal_node_id": "0.0-10.0-5.0", "time_elapsed": 244216, "key_press": -1, "trial_index": 15}, "uniqueid": "MTK2774:38JBBYETQPHK6II706LLTNCMK1K4E1", "dateTime": 1519330676907}, {"current_trial": 16, "trialdata": {"rt": -1, "trial_type": "single-stim", "stimulus": "<p id=\"stim\">4</p>", "internal_node_id": "0.0-10.0-6.0", "time_elapsed": 245221, "key_press": -1, "trial_index": 16}, "uniqueid": "MTK2774:38JBBYETQPHK6II706LLTNCMK1K4E1", "dateTime": 1519330677912}, {"current_trial": 17, "trialdata": {"rt": -1, "trial_type": "single-stim", "stimulus": "<p id=\"stim\">3</p>", "internal_node_id": "0.0-10.0-7.0", "time_elapsed": 246227, "key_press": -1, "trial_index": 17}, "uniqueid": "MTK2774:38JBBYETQPHK6II706LLTNCMK1K4E1", "dateTime": 1519330678918}, {"current_trial": 18, "trialdata": {"rt": -1, "trial_type": "single-stim", "stimulus": "<p id=\"stim\">2</p>", "internal_node_id": "0.0-10.0-8.0", "time_elapsed": 247231, "key_press": -1, "trial_index": 18}, "uniqueid": "MTK2774:38JBBYETQPHK6II706LLTNCMK1K4E1", "dateTime": 1519330679922}, {"current_trial": 19, "trialdata": {"rt": -1, "trial_type": "single-stim", "stimulus": "<p id=\"stim\">1</p>", "internal_node_id": "0.0-10.0-9.0", "time_elapsed": 248232, "key_press": -1, "trial_index": 19}, "uniqueid": "MTK2774:38JBBYETQPHK6II706LLTNCMK1K4E1", "dateTime": 1519330680923}, {"current_trial": 20, "trialdata": {"rt": -1, "trial_type": "single-stim", "stimulus": "<p id=\"stim\">+</p>", "internal_node_id": "0.0-11.0-0.0", "time_elapsed": 249735, "key_press": -1, "type": "FIXATION", "trial_index": 20}, "uniqueid": "MTK2774:38JBBYETQPHK6II706LLTNCMK1K4E1", "dateTime": 1519330682426}, {"current_trial": 21, "trialdata": {"rt": -1000, "trial_type": "single-audio", "word": "valley", "stimulus": "/static/audio/wordpool/VALLEY.wav", "conditions": [18, 1200, "a", 18000], "internal_node_id": "0.0-12.0", "trial": 0, "time_elapsed": 251832, "serialpos": 0, "key_press": -1, "wordID": 1544, "type": "PRES_AUD", "trial_index": 21}, "uniqueid": "MTK2774:38JBBYETQPHK6II706LLTNCMK1K4E1", "dateTime": 1519330684523}, {"current_trial": 22, "trialdata": {"rt": 860.0000000000136, "trial_type": "single-audio", "word": "piano", "stimulus": "/static/audio/wordpool/PIANO.wav", "conditions": [18, 1200, "a", 18000], "internal_node_id": "0.0-13.0", "trial": 0, "time_elapsed": 253963, "serialpos": 1, "key_press": 174, "wordID": 1056, "type": "PRES_AUD", "trial_index": 22}, "uniqueid": "MTK2774:38JBBYETQPHK6II706LLTNCMK1K4E1", "dateTime": 1519330686654}, {"current_trial": 23, "trialdata": {"rt": -60.000000000002274, "trial_type": "single-audio", "word": "gravel", "stimulus": "/static/audio/wordpool/GRAVEL.wav", "conditions": [18, 1200, "a", 18000], "internal_node_id": "0.0-14.0", "trial": 0, "time_elapsed": 256279, "serialpos": 2, "key_press": 174, "wordID": 658, "type": "PRES_AUD", "trial_index": 23}, "uniqueid": "MTK2774:38JBBYETQPHK6II706LLTNCMK1K4E1", "dateTime": 1519330688970}, {"current_trial": 24, "trialdata": {"rt": 457.3333333332812, "trial_type": "single-audio", "word": "contract", "stimulus": "/static/audio/wordpool/CONTRACT.wav", "conditions": [18, 1200, "a", 18000], "internal_node_id": "0.0-15.0", "trial": 0, "time_elapsed": 258560, "serialpos": 3, "key_press": 174, "wordID": 367, "type": "PRES_AUD", "trial_index": 24}, "uniqueid": "MTK2774:38JBBYETQPHK6II706LLTNCMK1K4E1", "dateTime": 1519330691251}, {"current_trial": 25, "trialdata": {"rt": 78.66666666660649, "trial_type": "single-audio", "word": "ankle", "stimulus": "/static/audio/wordpool/ANKLE.wav", "conditions": [18, 1200, "a", 18000], "internal_node_id": "0.0-16.0", "trial": 0, "time_elapsed": 260864, "serialpos": 4, "key_press": 175, "wordID": 23, "type": "PRES_AUD", "trial_index": 25}, "uniqueid": "MTK2774:38JBBYETQPHK6II706LLTNCMK1K4E1", "dateTime": 1519330693555}, {"current_trial": 26, "trialdata": {"rt": 379.99999999999545, "trial_type": "single-audio", "word": "outlaw", "stimulus": "/static/audio/wordpool/OUTLAW.wav", "conditions": [18, 1200, "a", 18000], "internal_node_id": "0.0-17.0", "trial": 0, "time_elapsed": 263206, "serialpos": 5, "key_press": 174, "wordID": 988, "type": "PRES_AUD", "trial_index": 26}, "uniqueid": "MTK2774:38JBBYETQPHK6II706LLTNCMK1K4E1", "dateTime": 1519330695897}, {"current_trial": 27, "trialdata": {"rt": -1000, "trial_type": "single-audio", "word": "sandwich", "stimulus": "/static/audio/wordpool/SANDWICH.wav", "conditions": [18, 1200, "a", 18000], "internal_node_id": "0.0-18.0", "trial": 0, "time_elapsed": 265340, "serialpos": 6, "key_press": -1, "wordID": 1231, "type": "PRES_AUD", "trial_index": 27}, "uniqueid": "MTK2774:38JBBYETQPHK6II706LLTNCMK1K4E1", "dateTime": 1519330698031}, {"current_trial": 28, "trialdata": {"rt": 481.3333333332821, "trial_type": "single-audio", "word": "primate", "stimulus": "/static/audio/wordpool/PRIMATE.wav", "conditions": [18, 1200, "a", 18000], "internal_node_id": "0.0-19.0", "trial": 0, "time_elapsed": 267525, "serialpos": 7, "key_press": 174, "wordID": 1122, "type": "PRES_AUD", "trial_index": 28}, "uniqueid": "MTK2774:38JBBYETQPHK6II706LLTNCMK1K4E1", "dateTime": 1519330700216}, {"current_trial": 29, "trialdata": {"rt": -1000, "trial_type": "single-audio", "word": "raft", "stimulus": "/static/audio/wordpool/RAFT.wav", "conditions": [18, 1200, "a", 18000], "internal_node_id": "0.0-20.0", "trial": 0, "time_elapsed": 269645, "serialpos": 8, "key_press": -1, "wordID": 1158, "type": "PRES_AUD", "trial_index": 29}, "uniqueid": "MTK2774:38JBBYETQPHK6II706LLTNCMK1K4E1", "dateTime": 1519330702336}, {"current_trial": 30, "trialdata": {"rt": -1000, "trial_type": "single-audio", "word": "parrot", "stimulus": "/static/audio/wordpool/PARROT.wav", "conditions": [18, 1200, "a", 18000], "internal_node_id": "0.0-21.0", "trial": 0, "time_elapsed": 271742, "serialpos": 9, "key_press": -1, "wordID": 1014, "type": "PRES_AUD", "trial_index": 30}, "uniqueid": "MTK2774:38JBBYETQPHK6II706LLTNCMK1K4E1", "dateTime": 1519330704433}, {"current_trial": 31, "trialdata": {"rt": -1000, "trial_type": "single-audio", "word": "candy", "stimulus": "/static/audio/wordpool/CANDY.wav", "conditions": [18, 1200, "a", 18000], "internal_node_id": "0.0-22.0", "trial": 0, "time_elapsed": 274139, "serialpos": 10, "key_press": -1, "wordID": 229, "type": "PRES_AUD", "trial_index": 31}, "uniqueid": "MTK2774:38JBBYETQPHK6II706LLTNCMK1K4E1", "dateTime": 1519330706830}, {"current_trial": 32, "trialdata": {"rt": -1000, "trial_type": "single-audio", "word": "statue", "stimulus": "/static/audio/wordpool/STATUE.wav", "conditions": [18, 1200, "a", 18000], "internal_node_id": "0.0-23.0", "trial": 0, "time_elapsed": 276260, "serialpos": 11, "key_press": -1, "wordID": 1373, "type": "PRES_AUD", "trial_index": 32}, "uniqueid": "MTK2774:38JBBYETQPHK6II706LLTNCMK1K4E1", "dateTime": 1519330708951}, {"current_trial": 33, "trialdata": {"rt": -1000, "trial_type": "single-audio", "word": "cookbook", "stimulus": "/static/audio/wordpool/COOKBOOK.wav", "conditions": [18, 1200, "a", 18000], "internal_node_id": "0.0-24.0", "trial": 0, "time_elapsed": 278520, "serialpos": 12, "key_press": -1, "wordID": 372, "type": "PRES_AUD", "trial_index": 33}, "uniqueid": "MTK2774:38JBBYETQPHK6II706LLTNCMK1K4E1", "dateTime": 1519330711211}, {"current_trial": 34, "trialdata": {"rt": -1000, "trial_type": "single-audio", "word": "package", "stimulus": "/static/audio/wordpool/PACKAGE.wav", "conditions": [18, 1200, "a", 18000], "internal_node_id": "0.0-25.0", "trial": 0, "time_elapsed": 280572, "serialpos": 13, "key_press": -1, "wordID": 996, "type": "PRES_AUD", "trial_index": 34}, "uniqueid": "MTK2774:38JBBYETQPHK6II706LLTNCMK1K4E1", "dateTime": 1519330713263}, {"current_trial": 35, "trialdata": {"rt": 881.3333333333162, "trial_type": "single-audio", "word": "human", "stimulus": "/static/audio/wordpool/HUMAN.wav", "conditions": [18, 1200, "a", 18000], "internal_node_id": "0.0-26.0", "trial": 0, "time_elapsed": 282704, "serialpos": 14, "key_press": 175, "wordID": 725, "type": "PRES_AUD", "trial_index": 35}, "uniqueid": "MTK2774:38JBBYETQPHK6II706LLTNCMK1K4E1", "dateTime": 1519330715395}, {"current_trial": 36, "trialdata": {"rt": -1000, "trial_type": "single-audio", "word": "razor", "stimulus": "/static/audio/wordpool/RAZOR.wav", "conditions": [18, 1200, "a", 18000], "internal_node_id": "0.0-27.0", "trial": 0, "time_elapsed": 284812, "serialpos": 15, "key_press": -1, "wordID": 1170, "type": "PRES_AUD", "trial_index": 36}, "uniqueid": "MTK2774:38JBBYETQPHK6II706LLTNCMK1K4E1", "dateTime": 1519330717503}, {"current_trial": 37, "trialdata": {"rt": -1000, "trial_type": "single-audio", "word": "notebook", "stimulus": "/static/audio/wordpool/NOTEBOOK.wav", "conditions": [18, 1200, "a", 18000], "internal_node_id": "0.0-28.0", "trial": 0, "time_elapsed": 286881, "serialpos": 16, "key_press": -1, "wordID": 958, "type": "PRES_AUD", "trial_index": 37}, "uniqueid": "MTK2774:38JBBYETQPHK6II706LLTNCMK1K4E1", "dateTime": 1519330719572}, {"current_trial": 38, "trialdata": {"rt": -1000, "trial_type": "single-audio", "word": "maple", "stimulus": "/static/audio/wordpool/MAPLE.wav", "conditions": [18, 1200, "a", 18000], "internal_node_id": "0.0-29.0", "trial": 0, "time_elapsed": 289216, "serialpos": 17, "key_press": -1, "wordID": 865, "type": "PRES_AUD", "trial_index": 38}, "uniqueid": "MTK2774:38JBBYETQPHK6II706LLTNCMK1K4E1", "dateTime": 1519330721907}, {"current_trial": 39, "trialdata": {"rt": -1, "trial_type": "single-stim", "stimulus": "", "internal_node_id": "0.0-30.0-0.0", "time_elapsed": 290556, "key_press": -1, "type": "PRE_RECALL_DELAY", "trial_index": 39}, "uniqueid": "MTK2774:38JBBYETQPHK6II706LLTNCMK1K4E1", "dateTime": 1519330723247}, {"current_trial": 40, "trialdata": {"rt": -1000, "trial_type": "single-audio", "stimulus": "/static/audio/400Hz.wav", "internal_node_id": "0.0-31.0", "time_elapsed": 291062, "key_press": -1, "type": "PRE_RECALL_ALERT", "trial_index": 40}, "uniqueid": "MTK2774:38JBBYETQPHK6II706LLTNCMK1K4E1", "dateTime": 1519330723753}, {"current_trial": 41, "trialdata": {"rt": [7105, 12308, 16212, 24443, 28569, 35178], "recwords": ["piano", "ankel", "razor", "cookbook", "parrot", "sandwich"], "key_times": [4007, 4358, 4979, 5685, 6250, 7105, 8217, 8887, 9806, 10371, 11167, 12308, 13251, 13642, 13916, 14661, 15328, 16212, 16986, 17873, 18068, 19289, 19944, 20481, 20636, 23793, 24443, 25172, 25798, 26369, 26558, 27293, 27724, 28569, 30044, 30261, 30967, 31481, 31980, 32675, 33216, 34324, 35178], "trial_type": "free-recall", "conditions": [18, 1200, "a", 18000], "internal_node_id": "0.0-32.0-0.0", "key_presses": [80, 73, 65, 78, 79, 13, 65, 78, 75, 69, 76, 13, 82, 65, 90, 79, 82, 13, 67, 79, 79, 75, 66, 79, 79, 75, 13, 80, 65, 82, 82, 79, 84, 13, 83, 65, 78, 68, 87, 73, 67, 72, 13], "trial": 0, "time_elapsed": 351066, "type": "FREE_RECALL", "trial_index": 41}, "uniqueid": "MTK2774:38JBBYETQPHK6II706LLTNCMK1K4E1", "dateTime": 1519330783770}, {"current_trial": 42, "trialdata": {"rt": 7850, "trial_type": "text", "internal_node_id": "0.0-33.0", "time_elapsed": 360930, "key_press": 39, "type": "INSTRUCTIONS", "trial_index": 42}, "uniqueid": "MTK2774:38JBBYETQPHK6II706LLTNCMK1K4E1", "dateTime": 1519330793621}, {"current_trial": 43, "trialdata": {"rt": [10407, 13567, 16267], "trial_type": "math-distractor", "key_times": [8868, 9645, 10407, 12602, 12821, 13567, 14967, 15672, 16267, 17935], "responses": ["18", "12", "16"], "num2": [3, 5, 8, 5], "num3": [9, 3, 6, 2], "conditions": [18, 1200, "a", 18000], "internal_node_id": "0.0-34.0", "key_presses": [49, 56, 13, 49, 50, 13, 49, 54, 13, 49], "trial": 1, "time_elapsed": 380938, "type": "DISTRACTOR", "trial_index": 43, "num1": [6, 4, 2, 6]}, "uniqueid": "MTK2774:38JBBYETQPHK6II706LLTNCMK1K4E1", "dateTime": 1519330813629}, {"current_trial": 44, "trialdata": {"rt": -1, "trial_type": "single-stim", "stimulus": "<p id=\"stim\">10</p>", "internal_node_id": "0.0-35.0-0.0", "time_elapsed": 383946, "key_press": -1, "trial_index": 44}, "uniqueid": "MTK2774:38JBBYETQPHK6II706LLTNCMK1K4E1", "dateTime": 1519330816637}, {"current_trial": 45, "trialdata": {"rt": -1, "trial_type": "single-stim", "stimulus": "<p id=\"stim\">9</p>", "internal_node_id": "0.0-35.0-1.0", "time_elapsed": 384949, "key_press": -1, "trial_index": 45}, "uniqueid": "MTK2774:38JBBYETQPHK6II706LLTNCMK1K4E1", "dateTime": 1519330817640}, {"current_trial": 46, "trialdata": {"rt": 272, "trial_type": "single-stim", "stimulus": "<p id=\"stim\">8</p>", "internal_node_id": "0.0-35.0-2.0", "time_elapsed": 385951, "key_press": 175, "trial_index": 46}, "uniqueid": "MTK2774:38JBBYETQPHK6II706LLTNCMK1K4E1", "dateTime": 1519330818642}, {"current_trial": 47, "trialdata": {"rt": 976, "trial_type": "single-stim", "stimulus": "<p id=\"stim\">7</p>", "internal_node_id": "0.0-35.0-3.0", "time_elapsed": 386955, "key_press": 175, "trial_index": 47}, "uniqueid": "MTK2774:38JBBYETQPHK6II706LLTNCMK1K4E1", "dateTime": 1519330819646}, {"current_trial": 48, "trialdata": {"rt": -1, "trial_type": "single-stim", "stimulus": "<p id=\"stim\">6</p>", "internal_node_id": "0.0-35.0-4.0", "time_elapsed": 387959, "key_press": -1, "trial_index": 48}, "uniqueid": "MTK2774:38JBBYETQPHK6II706LLTNCMK1K4E1", "dateTime": 1519330820650}, {"current_trial": 49, "trialdata": {"rt": -1, "trial_type": "single-stim", "stimulus": "<p id=\"stim\">5</p>", "internal_node_id": "0.0-35.0-5.0", "time_elapsed": 388963, "key_press": -1, "trial_index": 49}, "uniqueid": "MTK2774:38JBBYETQPHK6II706LLTNCMK1K4E1", "dateTime": 1519330821654}, {"current_trial": 50, "trialdata": {"rt": -1, "trial_type": "single-stim", "stimulus": "<p id=\"stim\">4</p>", "internal_node_id": "0.0-35.0-6.0", "time_elapsed": 389964, "key_press": -1, "trial_index": 50}, "uniqueid": "MTK2774:38JBBYETQPHK6II706LLTNCMK1K4E1", "dateTime": 1519330822655}, {"current_trial": 51, "trialdata": {"rt": -1, "trial_type": "single-stim", "stimulus": "<p id=\"stim\">3</p>", "internal_node_id": "0.0-35.0-7.0", "time_elapsed": 390968, "key_press": -1, "trial_index": 51}, "uniqueid": "MTK2774:38JBBYETQPHK6II706LLTNCMK1K4E1", "dateTime": 1519330823660}, {"current_trial": 52, "trialdata": {"rt": -1, "trial_type": "single-stim", "stimulus": "<p id=\"stim\">2</p>", "internal_node_id": "0.0-35.0-8.0", "time_elapsed": 391971, "key_press": -1, "trial_index": 52}, "uniqueid": "MTK2774:38JBBYETQPHK6II706LLTNCMK1K4E1", "dateTime": 1519330824662}, {"current_trial": 53, "trialdata": {"rt": -1, "trial_type": "single-stim", "stimulus": "<p id=\"stim\">1</p>", "internal_node_id": "0.0-35.0-9.0", "time_elapsed": 392975, "key_press": -1, "trial_index": 53}, "uniqueid": "MTK2774:38JBBYETQPHK6II706LLTNCMK1K4E1", "dateTime": 1519330825666}, {"current_trial": 54, "trialdata": {"rt": -1, "trial_type": "single-stim", "stimulus": "<p id=\"stim\">+</p>", "internal_node_id": "0.0-36.0-0.0", "time_elapsed": 394477, "key_press": -1, "type": "FIXATION", "trial_index": 54}, "uniqueid": "MTK2774:38JBBYETQPHK6II706LLTNCMK1K4E1", "dateTime": 1519330827168}, {"current_trial": 55, "trialdata": {"rt": 1329.3333333332953, "trial_type": "single-audio", "word": "playground", "stimulus": "/static/audio/wordpool/PLAYGROUND.wav", "conditions": [18, 1200, "a", 18000], "internal_node_id": "0.0-37.0", "trial": 1, "time_elapsed": 396654, "serialpos": 0, "key_press": 175, "wordID": 1086, "type": "PRES_AUD", "trial_index": 55}, "uniqueid": "MTK2774:38JBBYETQPHK6II706LLTNCMK1K4E1", "dateTime": 1519330829345}, {"current_trial": 56, "trialdata": {"rt": 459.99999999997954, "trial_type": "single-audio", "word": "record", "stimulus": "/static/audio/wordpool/RECORD.wav", "conditions": [18, 1200, "a", 18000], "internal_node_id": "0.0-38.0", "trial": 1, "time_elapsed": 398856, "serialpos": 1, "key_press": 175, "wordID": 1175, "type": "PRES_AUD", "trial_index": 56}, "uniqueid": "MTK2774:38JBBYETQPHK6II706LLTNCMK1K4E1", "dateTime": 1519330831547}, {"current_trial": 57, "trialdata": {"rt": 579.9999999999841, "trial_type": "single-audio", "word": "lightning", "stimulus": "/static/audio/wordpool/LIGHTNING.wav", "conditions": [18, 1200, "a", 18000], "internal_node_id": "0.0-39.0", "trial": 1, "time_elapsed": 401097, "serialpos": 2, "key_press": 175, "wordID": 819, "type": "PRES_AUD", "trial_index": 57}, "uniqueid": "MTK2774:38JBBYETQPHK6II706LLTNCMK1K4E1", "dateTime": 1519330833788}, {"current_trial": 58, "trialdata": {"rt": 499.99999999994316, "trial_type": "single-audio", "word": "scribble", "stimulus": "/static/audio/wordpool/SCRIBBLE.wav", "conditions": [18, 1200, "a", 18000], "internal_node_id": "0.0-40.0", "trial": 1, "time_elapsed": 403176, "serialpos": 3, "key_press": 175, "wordID": 1255, "type": "PRES_AUD", "trial_index": 58}, "uniqueid": "MTK2774:38JBBYETQPHK6II706LLTNCMK1K4E1", "dateTime": 1519330835867}, {"current_trial": 59, "trialdata": {"rt": -1000, "trial_type": "single-audio", "word": "seafood", "stimulus": "/static/audio/wordpool/SEAFOOD.wav", "conditions": [18, 1200, "a", 18000], "internal_node_id": "0.0-41.0", "trial": 1, "time_elapsed": 405448, "serialpos": 4, "key_press": -1, "wordID": 1259, "type": "PRES_AUD", "trial_index": 59}, "uniqueid": "MTK2774:38JBBYETQPHK6II706LLTNCMK1K4E1", "dateTime": 1519330838140}, {"current_trial": 60, "trialdata": {"rt": -1000, "trial_type": "single-audio", "word": "onion", "stimulus": "/static/audio/wordpool/ONION.wav", "conditions": [18, 1200, "a", 18000], "internal_node_id": "0.0-42.0", "trial": 1, "time_elapsed": 407845, "serialpos": 5, "key_press": -1, "wordID": 976, "type": "PRES_AUD", "trial_index": 60}, "uniqueid": "MTK2774:38JBBYETQPHK6II706LLTNCMK1K4E1", "dateTime": 1519330840537}, {"current_trial": 61, "trialdata": {"rt": -1000, "trial_type": "single-audio", "word": "atom", "stimulus": "/static/audio/wordpool/ATOM.wav", "conditions": [18, 1200, "a", 18000], "internal_node_id": "0.0-43.0", "trial": 1, "time_elapsed": 410215, "serialpos": 6, "key_press": -1, "wordID": 54, "type": "PRES_AUD", "trial_index": 61}, "uniqueid": "MTK2774:38JBBYETQPHK6II706LLTNCMK1K4E1", "dateTime": 1519330842906}, {"current_trial": 62, "trialdata": {"rt": -1000, "trial_type": "single-audio", "word": "london", "stimulus": "/static/audio/wordpool/LONDON.wav", "conditions": [18, 1200, "a", 18000], "internal_node_id": "0.0-44.0", "trial": 1, "time_elapsed": 412456, "serialpos": 7, "key_press": -1, "wordID": 842, "type": "PRES_AUD", "trial_index": 62}, "uniqueid": "MTK2774:38JBBYETQPHK6II706LLTNCMK1K4E1", "dateTime": 1519330845147}, {"current_trial": 63, "trialdata": {"rt": -1000, "trial_type": "single-audio", "word": "yacht", "stimulus": "/static/audio/wordpool/YACHT.wav", "conditions": [18, 1200, "a", 18000], "internal_node_id": "0.0-45.0", "trial": 1, "time_elapsed": 414486, "serialpos": 8, "key_press": -1, "wordID": 1628, "type": "PRES_AUD", "trial_index": 63}, "uniqueid": "MTK2774:38JBBYETQPHK6II706LLTNCMK1K4E1", "dateTime": 1519330847177}, {"current_trial": 64, "trialdata": {"rt": -1000, "trial_type": "single-audio", "word": "compass", "stimulus": "/static/audio/wordpool/COMPASS.wav", "conditions": [18, 1200, "a", 18000], "internal_node_id": "0.0-46.0", "trial": 1, "time_elapsed": 416872, "serialpos": 9, "key_press": -1, "wordID": 357, "type": "PRES_AUD", "trial_index": 64}, "uniqueid": "MTK2774:38JBBYETQPHK6II706LLTNCMK1K4E1", "dateTime": 1519330849563}, {"current_trial": 65, "trialdata": {"rt": -1000, "trial_type": "single-audio", "word": "pasta", "stimulus": "/static/audio/wordpool/PASTA.wav", "conditions": [18, 1200, "a", 18000], "internal_node_id": "0.0-47.0", "trial": 1, "time_elapsed": 419271, "serialpos": 10, "key_press": -1, "wordID": 1020, "type": "PRES_AUD", "trial_index": 65}, "uniqueid": "MTK2774:38JBBYETQPHK6II706LLTNCMK1K4E1", "dateTime": 1519330851962}, {"current_trial": 66, "trialdata": {"rt": -1000, "trial_type": "single-audio", "word": "cupboard", "stimulus": "/static/audio/wordpool/CUPBOARD.wav", "conditions": [18, 1200, "a", 18000], "internal_node_id": "0.0-48.0", "trial": 1, "time_elapsed": 421285, "serialpos": 11, "key_press": -1, "wordID": 424, "type": "PRES_AUD", "trial_index": 66}, "uniqueid": "MTK2774:38JBBYETQPHK6II706LLTNCMK1K4E1", "dateTime": 1519330853976}, {"current_trial": 67, "trialdata": {"rt": -1000, "trial_type": "single-audio", "word": "orchid", "stimulus": "/static/audio/wordpool/ORCHID.wav", "conditions": [18, 1200, "a", 18000], "internal_node_id": "0.0-49.0", "trial": 1, "time_elapsed": 423665, "serialpos": 12, "key_press": -1, "wordID": 981, "type": "PRES_AUD", "trial_index": 67}, "uniqueid": "MTK2774:38JBBYETQPHK6II706LLTNCMK1K4E1", "dateTime": 1519330856356}, {"current_trial": 68, "trialdata": {"rt": -1000, "trial_type": "single-audio", "word": "fireplace", "stimulus": "/static/audio/wordpool/FIREPLACE.wav", "conditions": [18, 1200, "a", 18000], "internal_node_id": "0.0-50.0", "trial": 1, "time_elapsed": 425755, "serialpos": 13, "key_press": -1, "wordID": 569, "type": "PRES_AUD", "trial_index": 68}, "uniqueid": "MTK2774:38JBBYETQPHK6II706LLTNCMK1K4E1", "dateTime": 1519330858447}, {"current_trial": 69, "trialdata": {"rt": -1000, "trial_type": "single-audio", "word": "trombone", "stimulus": "/static/audio/wordpool/TROMBONE.wav", "conditions": [18, 1200, "a", 18000], "internal_node_id": "0.0-51.0", "trial": 1, "time_elapsed": 427814, "serialpos": 14, "key_press": -1, "wordID": 1507, "type": "PRES_AUD", "trial_index": 69}, "uniqueid": "MTK2774:38JBBYETQPHK6II706LLTNCMK1K4E1", "dateTime": 1519330860505}, {"current_trial": 70, "trialdata": {"rt": 129.33333333330665, "trial_type": "single-audio", "word": "turnip", "stimulus": "/static/audio/wordpool/TURNIP.wav", "conditions": [18, 1200, "a", 18000], "internal_node_id": "0.0-52.0", "trial": 1, "time_elapsed": 430135, "serialpos": 15, "key_press": 175, "wordID": 1520, "type": "PRES_AUD", "trial_index": 70}, "uniqueid": "MTK2774:38JBBYETQPHK6II706LLTNCMK1K4E1", "dateTime": 1519330862826}, {"current_trial": 71, "trialdata": {"rt": -1000, "trial_type": "single-audio", "word": "friend", "stimulus": "/static/audio/wordpool/FRIEND.wav", "conditions": [18, 1200, "a", 18000], "internal_node_id": "0.0-53.0", "trial": 1, "time_elapsed": 432254, "serialpos": 16, "key_press": -1, "wordID": 605, "type": "PRES_AUD", "trial_index": 71}, "uniqueid": "MTK2774:38JBBYETQPHK6II706LLTNCMK1K4E1", "dateTime": 1519330864945}, {"current_trial": 72, "trialdata": {"rt": -1000, "trial_type": "single-audio", "word": "leg", "stimulus": "/static/audio/wordpool/LEG.wav", "conditions": [18, 1200, "a", 18000], "internal_node_id": "0.0-54.0", "trial": 1, "time_elapsed": 434622, "serialpos": 17, "key_press": -1, "wordID": 808, "type": "PRES_AUD", "trial_index": 72}, "uniqueid": "MTK2774:38JBBYETQPHK6II706LLTNCMK1K4E1", "dateTime": 1519330867313}, {"current_trial": 73, "trialdata": {"rt": 768, "trial_type": "single-stim", "stimulus": "", "internal_node_id": "0.0-55.0-0.0", "time_elapsed": 435977, "key_press": 175, "type": "PRE_RECALL_DELAY", "trial_index": 73}, "uniqueid": "MTK2774:38JBBYETQPHK6II706LLTNCMK1K4E1", "dateTime": 1519330868668}, {"current_trial": 74, "trialdata": {"rt": -1000, "trial_type": "single-audio", "stimulus": "/static/audio/400Hz.wav", "internal_node_id": "0.0-56.0", "time_elapsed": 436484, "key_press": -1, "type": "PRE_RECALL_ALERT", "trial_index": 74}, "uniqueid": "MTK2774:38JBBYETQPHK6II706LLTNCMK1K4E1", "dateTime": 1519330869175}, {"current_trial": 75, "trialdata": {"rt": [3604, 4820, 9002, 13654], "recwords": ["friend", "leg", "fireplace", "cupboard"], "key_times": [1001, 1285, 1951, 2070, 2210, 2507, 3604, 4204, 4318, 4611, 4820, 5590, 5734, 5934, 6087, 7163, 7342, 7850, 8465, 8733, 9002, 9468, 9697, 9826, 10442, 10587, 11058, 11982, 12189, 12566, 12948, 13654], "trial_type": "free-recall", "conditions": [18, 1200, "a", 18000], "internal_node_id": "0.0-57.0-0.0", "key_presses": [70, 82, 73, 69, 78, 68, 13, 76, 69, 71, 13, 70, 73, 82, 69, 80, 76, 65, 67, 69, 13, 67, 85, 80, 66, 79, 81, 8, 65, 82, 68, 13], "trial": 1, "time_elapsed": 496489, "type": "FREE_RECALL", "trial_index": 75}, "uniqueid": "MTK2774:38JBBYETQPHK6II706LLTNCMK1K4E1", "dateTime": 1519330929180}, {"current_trial": 76, "trialdata": {"rt": 62615, "trial_type": "text", "internal_node_id": "0.0-58.0", "time_elapsed": 561109, "key_press": 39, "type": "INSTRUCTIONS", "trial_index": 76}, "uniqueid": "MTK2774:38JBBYETQPHK6II706LLTNCMK1K4E1", "dateTime": 1519330993801}, {"current_trial": 77, "trialdata": {"rt": [4839, 7906, 10701, 13664, 15758, 19021], "trial_type": "math-distractor", "key_times": [3957, 4283, 4839, 7028, 7315, 7906, 10349, 10524, 10701, 13089, 13376, 13664, 14871, 15546, 15758, 18127, 18396, 19021], "responses": ["20", "21", "22", "21", "16", "21"], "num2": [9, 8, 5, 8, 8, 6, 7], "num3": [4, 8, 8, 6, 6, 6, 4], "conditions": [12, 1600, "a", 24000], "internal_node_id": "0.0-59.0", "key_presses": [50, 48, 13, 50, 49, 13, 50, 50, 13, 50, 49, 13, 49, 54, 13, 50, 49, 13], "trial": 2, "time_elapsed": 586113, "type": "DISTRACTOR", "trial_index": 77, "num1": [7, 5, 9, 7, 2, 9, 9]}, "uniqueid": "MTK2774:38JBBYETQPHK6II706LLTNCMK1K4E1", "dateTime": 1519331018804}, {"current_trial": 78, "trialdata": {"rt": -1, "trial_type": "single-stim", "stimulus": "<p id=\"stim\">10</p>", "internal_node_id": "0.0-60.0-0.0", "time_elapsed": 589117, "key_press": -1, "trial_index": 78}, "uniqueid": "MTK2774:38JBBYETQPHK6II706LLTNCMK1K4E1", "dateTime": 1519331021808}, {"current_trial": 79, "trialdata": {"rt": 907, "trial_type": "single-stim", "stimulus": "<p id=\"stim\">9</p>", "internal_node_id": "0.0-60.0-1.0", "time_elapsed": 590119, "key_press": 175, "trial_index": 79}, "uniqueid": "MTK2774:38JBBYETQPHK6II706LLTNCMK1K4E1", "dateTime": 1519331022810}, {"current_trial": 80, "trialdata": {"rt": -1, "trial_type": "single-stim", "stimulus": "<p id=\"stim\">8</p>", "internal_node_id": "0.0-60.0-2.0", "time_elapsed": 591119, "key_press": -1, "trial_index": 80}, "uniqueid": "MTK2774:38JBBYETQPHK6II706LLTNCMK1K4E1", "dateTime": 1519331023810}, {"current_trial": 81, "trialdata": {"rt": -1, "trial_type": "single-stim", "stimulus": "<p id=\"stim\">7</p>", "internal_node_id": "0.0-60.0-3.0", "time_elapsed": 592121, "key_press": -1, "trial_index": 81}, "uniqueid": "MTK2774:38JBBYETQPHK6II706LLTNCMK1K4E1", "dateTime": 1519331024812}, {"current_trial": 82, "trialdata": {"rt": -1, "trial_type": "single-stim", "stimulus": "<p id=\"stim\">6</p>", "internal_node_id": "0.0-60.0-4.0", "time_elapsed": 593122, "key_press": -1, "trial_index": 82}, "uniqueid": "MTK2774:38JBBYETQPHK6II706LLTNCMK1K4E1", "dateTime": 1519331025813}, {"current_trial": 83, "trialdata": {"rt": -1, "trial_type": "single-stim", "stimulus": "<p id=\"stim\">5</p>", "internal_node_id": "0.0-60.0-5.0", "time_elapsed": 594124, "key_press": -1, "trial_index": 83}, "uniqueid": "MTK2774:38JBBYETQPHK6II706LLTNCMK1K4E1", "dateTime": 1519331026815}, {"current_trial": 84, "trialdata": {"rt": -1, "trial_type": "single-stim", "stimulus": "<p id=\"stim\">4</p>", "internal_node_id": "0.0-60.0-6.0", "time_elapsed": 595126, "key_press": -1, "trial_index": 84}, "uniqueid": "MTK2774:38JBBYETQPHK6II706LLTNCMK1K4E1", "dateTime": 1519331027817}, {"current_trial": 85, "trialdata": {"rt": -1, "trial_type": "single-stim", "stimulus": "<p id=\"stim\">3</p>", "internal_node_id": "0.0-60.0-7.0", "time_elapsed": 596127, "key_press": -1, "trial_index": 85}, "uniqueid": "MTK2774:38JBBYETQPHK6II706LLTNCMK1K4E1", "dateTime": 1519331028818}, {"current_trial": 86, "trialdata": {"rt": -1, "trial_type": "single-stim", "stimulus": "<p id=\"stim\">2</p>", "internal_node_id": "0.0-60.0-8.0", "time_elapsed": 597128, "key_press": -1, "trial_index": 86}, "uniqueid": "MTK2774:38JBBYETQPHK6II706LLTNCMK1K4E1", "dateTime": 1519331029819}, {"current_trial": 87, "trialdata": {"rt": -1, "trial_type": "single-stim", "stimulus": "<p id=\"stim\">1</p>", "internal_node_id": "0.0-60.0-9.0", "time_elapsed": 598129, "key_press": -1, "trial_index": 87}, "uniqueid": "MTK2774:38JBBYETQPHK6II706LLTNCMK1K4E1", "dateTime": 1519331030820}, {"current_trial": 88, "trialdata": {"rt": -1, "trial_type": "single-stim", "stimulus": "<p id=\"stim\">+</p>", "internal_node_id": "0.0-61.0-0.0", "time_elapsed": 599631, "key_press": -1, "type": "FIXATION", "trial_index": 88}, "uniqueid": "MTK2774:38JBBYETQPHK6II706LLTNCMK1K4E1", "dateTime": 1519331032322}, {"current_trial": 89, "trialdata": {"rt": 1348.00000000007, "trial_type": "single-audio", "word": "liver", "stimulus": "/static/audio/wordpool/LIVER.wav", "conditions": [12, 1600, "a", 24000], "internal_node_id": "0.0-62.0", "trial": 2, "time_elapsed": 602329, "serialpos": 0, "key_press": 175, "wordID": 832, "type": "PRES_AUD", "trial_index": 89}, "uniqueid": "MTK2774:38JBBYETQPHK6II706LLTNCMK1K4E1", "dateTime": 1519331035020}, {"current_trial": 90, "trialdata": {"rt": 11.999999999943611, "trial_type": "single-audio", "word": "kidney", "stimulus": "/static/audio/wordpool/KIDNEY.wav", "conditions": [12, 1600, "a", 24000], "internal_node_id": "0.0-63.0", "trial": 2, "time_elapsed": 604990, "serialpos": 1, "key_press": 175, "wordID": 775, "type": "PRES_AUD", "trial_index": 90}, "uniqueid": "MTK2774:38JBBYETQPHK6II706LLTNCMK1K4E1", "dateTime": 1519331037681}, {"current_trial": 91, "trialdata": {"rt": -1000, "trial_type": "single-audio", "word": "permit", "stimulus": "/static/audio/wordpool/PERMIT.wav", "conditions": [12, 1600, "a", 24000], "internal_node_id": "0.0-64.0", "trial": 2, "time_elapsed": 607540, "serialpos": 2, "key_press": -1, "wordID": 1050, "type": "PRES_AUD", "trial_index": 91}, "uniqueid": "MTK2774:38JBBYETQPHK6II706LLTNCMK1K4E1", "dateTime": 1519331040231}, {"current_trial": 92, "trialdata": {"rt": -1000, "trial_type": "single-audio", "word": "typist", "stimulus": "/static/audio/wordpool/TYPIST.wav", "conditions": [12, 1600, "a", 24000], "internal_node_id": "0.0-65.0", "trial": 2, "time_elapsed": 610125, "serialpos": 3, "key_press": -1, "wordID": 1531, "type": "PRES_AUD", "trial_index": 92}, "uniqueid": "MTK2774:38JBBYETQPHK6II706LLTNCMK1K4E1", "dateTime": 1519331042816}, {"current_trial": 93, "trialdata": {"rt": -1000, "trial_type": "single-audio", "word": "machine", "stimulus": "/static/audio/wordpool/MACHINE.wav", "conditions": [12, 1600, "a", 24000], "internal_node_id": "0.0-66.0", "trial": 2, "time_elapsed": 612820, "serialpos": 4, "key_press": -1, "wordID": 851, "type": "PRES_AUD", "trial_index": 93}, "uniqueid": "MTK2774:38JBBYETQPHK6II706LLTNCMK1K4E1", "dateTime": 1519331045512}, {"current_trial": 94, "trialdata": {"rt": -1000, "trial_type": "single-audio", "word": "breast", "stimulus": "/static/audio/wordpool/BREAST.wav", "conditions": [12, 1600, "a", 24000], "internal_node_id": "0.0-67.0", "trial": 2, "time_elapsed": 615519, "serialpos": 5, "key_press": -1, "wordID": 170, "type": "PRES_AUD", "trial_index": 94}, "uniqueid": "MTK2774:38JBBYETQPHK6II706LLTNCMK1K4E1", "dateTime": 1519331048210}, {"current_trial": 95, "trialdata": {"rt": -1000, "trial_type": "single-audio", "word": "mask", "stimulus": "/static/audio/wordpool/MASK.wav", "conditions": [12, 1600, "a", 24000], "internal_node_id": "0.0-68.0", "trial": 2, "time_elapsed": 618102, "serialpos": 6, "key_press": -1, "wordID": 875, "type": "PRES_AUD", "trial_index": 95}, "uniqueid": "MTK2774:38JBBYETQPHK6II706LLTNCMK1K4E1", "dateTime": 1519331050793}, {"current_trial": 96, "trialdata": {"rt": -1000, "trial_type": "single-audio", "word": "scissors", "stimulus": "/static/audio/wordpool/SCISSORS.wav", "conditions": [12, 1600, "a", 24000], "internal_node_id": "0.0-69.0", "trial": 2, "time_elapsed": 620606, "serialpos": 7, "key_press": -1, "wordID": 1249, "type": "PRES_AUD", "trial_index": 96}, "uniqueid": "MTK2774:38JBBYETQPHK6II706LLTNCMK1K4E1", "dateTime": 1519331053297}, {"current_trial": 97, "trialdata": {"rt": -1000, "trial_type": "single-audio", "word": "captive", "stimulus": "/static/audio/wordpool/CAPTIVE.wav", "conditions": [12, 1600, "a", 24000], "internal_node_id": "0.0-70.0", "trial": 2, "time_elapsed": 623393, "serialpos": 8, "key_press": -1, "wordID": 239, "type": "PRES_AUD", "trial_index": 97}, "uniqueid": "MTK2774:38JBBYETQPHK6II706LLTNCMK1K4E1", "dateTime": 1519331056084}, {"current_trial": 98, "trialdata": {"rt": -1000, "trial_type": "single-audio", "word": "motel", "stimulus": "/static/audio/wordpool/MOTEL.wav", "conditions": [12, 1600, "a", 24000], "internal_node_id": "0.0-71.0", "trial": 2, "time_elapsed": 625950, "serialpos": 9, "key_press": -1, "wordID": 918, "type": "PRES_AUD", "trial_index": 98}, "uniqueid": "MTK2774:38JBBYETQPHK6II706LLTNCMK1K4E1", "dateTime": 1519331058641}, {"current_trial": 99, "trialdata": {"rt": -1000, "trial_type": "single-audio", "word": "scalpel", "stimulus": "/static/audio/wordpool/SCALPEL.wav", "conditions": [12, 1600, "a", 24000], "internal_node_id": "0.0-72.0", "trial": 2, "time_elapsed": 628449, "serialpos": 10, "key_press": -1, "wordID": 1242, "type": "PRES_AUD", "trial_index": 99}, "uniqueid": "MTK2774:38JBBYETQPHK6II706LLTNCMK1K4E1", "dateTime": 1519331061140}, {"current_trial": 100, "trialdata": {"rt": -1000, "trial_type": "single-audio", "word": "kleenex", "stimulus": "/static/audio/wordpool/KLEENEX.wav", "conditions": [12, 1600, "a", 24000], "internal_node_id": "0.0-73.0", "trial": 2, "time_elapsed": 631018, "serialpos": 11, "key_press": -1, "wordID": 781, "type": "PRES_AUD", "trial_index": 100}, "uniqueid": "MTK2774:38JBBYETQPHK6II706LLTNCMK1K4E1", "dateTime": 1519331063709}, {"current_trial": 101, "trialdata": {"rt": -1, "trial_type": "single-stim", "stimulus": "", "internal_node_id": "0.0-74.0-0.0", "time_elapsed": 632239, "key_press": -1, "type": "PRE_RECALL_DELAY", "trial_index": 101}, "uniqueid": "MTK2774:38JBBYETQPHK6II706LLTNCMK1K4E1", "dateTime": 1519331064930}, {"current_trial": 102, "trialdata": {"rt": -1000, "trial_type": "single-audio", "stimulus": "/static/audio/400Hz.wav", "internal_node_id": "0.0-75.0", "time_elapsed": 632743, "key_press": -1, "type": "PRE_RECALL_ALERT", "trial_index": 102}, "uniqueid": "MTK2774:38JBBYETQPHK6II706LLTNCMK1K4E1", "dateTime": 1519331065434}, {"current_trial": 103, "trialdata": {"rt": [3758, 6146, 8371, 15531, 27328], "recwords": ["scissors", "captive", "hotel", "kleenex", "scalple"], "key_times": [984, 1302, 1708, 2477, 2673, 2850, 3019, 3307, 3758, 4254, 4618, 4787, 5188, 5348, 5685, 5918, 6146, 7254, 7433, 7691, 7924, 8093, 8371, 8837, 9180, 10069, 10596, 10804, 11216, 12512, 12705, 12869, 13043, 13212, 13654, 13872, 14061, 14454, 14627, 14939, 15531, 16529, 16856, 17094, 17620, 21379, 23073, 23350, 24100, 24508, 25296, 25420, 27328], "trial_type": "free-recall", "conditions": [12, 1600, "a", 24000], "internal_node_id": "0.0-76.0-0.0", "key_presses": [83, 67, 73, 83, 83, 79, 82, 83, 13, 67, 65, 80, 84, 73, 86, 69, 13, 72, 79, 84, 69, 76, 13, 75, 69, 69, 78, 69, 88, 8, 8, 8, 8, 8, 76, 69, 69, 78, 69, 88, 13, 83, 67, 65, 76, 80, 8, 8, 76, 80, 76, 69, 13], "trial": 2, "time_elapsed": 692744, "type": "FREE_RECALL", "trial_index": 103}, "uniqueid": "MTK2774:38JBBYETQPHK6II706LLTNCMK1K4E1", "dateTime": 1519331125436}, {"current_trial": 104, "trialdata": {"rt": 16890, "trial_type": "text", "internal_node_id": "0.0-77.0", "time_elapsed": 711636, "key_press": 39, "type": "INSTRUCTIONS", "trial_index": 104}, "uniqueid": "MTK2774:38JBBYETQPHK6II706LLTNCMK1K4E1", "dateTime": 1519331144327}, {"current_trial": 105, "trialdata": {"rt": [6118], "trial_type": "math-distractor", "key_times": [5070, 5710, 6118], "responses": ["13"], "num2": [5, 5], "num3": [7, 7], "conditions": [12, 800, "a", 12000], "internal_node_id": "0.0-78.0", "key_presses": [49, 51, 13], "trial": 3, "time_elapsed": 725639, "type": "DISTRACTOR", "trial_index": 105, "num1": [1, 1]}, "uniqueid": "MTK2774:38JBBYETQPHK6II706LLTNCMK1K4E1", "dateTime": 1519331158330}, {"current_trial": 106, "trialdata": {"rt": -1, "trial_type": "single-stim", "stimulus": "<p id=\"stim\">10</p>", "internal_node_id": "0.0-79.0-0.0", "time_elapsed": 728642, "key_press": -1, "trial_index": 106}, "uniqueid": "MTK2774:38JBBYETQPHK6II706LLTNCMK1K4E1", "dateTime": 1519331161333}, {"current_trial": 107, "trialdata": {"rt": -1, "trial_type": "single-stim", "stimulus": "<p id=\"stim\">9</p>", "internal_node_id": "0.0-79.0-1.0", "time_elapsed": 729643, "key_press": -1, "trial_index": 107}, "uniqueid": "MTK2774:38JBBYETQPHK6II706LLTNCMK1K4E1", "dateTime": 1519331162334}, {"current_trial": 108, "trialdata": {"rt": -1, "trial_type": "single-stim", "stimulus": "<p id=\"stim\">8</p>", "internal_node_id": "0.0-79.0-2.0", "time_elapsed": 730644, "key_press": -1, "trial_index": 108}, "uniqueid": "MTK2774:38JBBYETQPHK6II706LLTNCMK1K4E1", "dateTime": 1519331163335}, {"current_trial": 109, "trialdata": {"rt": -1, "trial_type": "single-stim", "stimulus": "<p id=\"stim\">7</p>", "internal_node_id": "0.0-79.0-3.0", "time_elapsed": 731646, "key_press": -1, "trial_index": 109}, "uniqueid": "MTK2774:38JBBYETQPHK6II706LLTNCMK1K4E1", "dateTime": 1519331164337}, {"current_trial": 110, "trialdata": {"rt": -1, "trial_type": "single-stim", "stimulus": "<p id=\"stim\">6</p>", "internal_node_id": "0.0-79.0-4.0", "time_elapsed": 732648, "key_press": -1, "trial_index": 110}, "uniqueid": "MTK2774:38JBBYETQPHK6II706LLTNCMK1K4E1", "dateTime": 1519331165339}, {"current_trial": 111, "trialdata": {"rt": -1, "trial_type": "single-stim", "stimulus": "<p id=\"stim\">5</p>", "internal_node_id": "0.0-79.0-5.0", "time_elapsed": 733648, "key_press": -1, "trial_index": 111}, "uniqueid": "MTK2774:38JBBYETQPHK6II706LLTNCMK1K4E1", "dateTime": 1519331166339}, {"current_trial": 112, "trialdata": {"rt": -1, "trial_type": "single-stim", "stimulus": "<p id=\"stim\">4</p>", "internal_node_id": "0.0-79.0-6.0", "time_elapsed": 734649, "key_press": -1, "trial_index": 112}, "uniqueid": "MTK2774:38JBBYETQPHK6II706LLTNCMK1K4E1", "dateTime": 1519331167340}, {"current_trial": 113, "trialdata": {"rt": -1, "trial_type": "single-stim", "stimulus": "<p id=\"stim\">3</p>", "internal_node_id": "0.0-79.0-7.0", "time_elapsed": 735651, "key_press": -1, "trial_index": 113}, "uniqueid": "MTK2774:38JBBYETQPHK6II706LLTNCMK1K4E1", "dateTime": 1519331168342}, {"current_trial": 114, "trialdata": {"rt": -1, "trial_type": "single-stim", "stimulus": "<p id=\"stim\">2</p>", "internal_node_id": "0.0-79.0-8.0", "time_elapsed": 736654, "key_press": -1, "trial_index": 114}, "uniqueid": "MTK2774:38JBBYETQPHK6II706LLTNCMK1K4E1", "dateTime": 1519331169346}, {"current_trial": 115, "trialdata": {"rt": -1, "trial_type": "single-stim", "stimulus": "<p id=\"stim\">1</p>", "internal_node_id": "0.0-79.0-9.0", "time_elapsed": 737656, "key_press": -1, "trial_index": 115}, "uniqueid": "MTK2774:38JBBYETQPHK6II706LLTNCMK1K4E1", "dateTime": 1519331170347}, {"current_trial": 116, "trialdata": {"rt": 934, "trial_type": "single-stim", "stimulus": "<p id=\"stim\">+</p>", "internal_node_id": "0.0-80.0-0.0", "time_elapsed": 739158, "key_press": 175, "type": "FIXATION", "trial_index": 116}, "uniqueid": "MTK2774:38JBBYETQPHK6II706LLTNCMK1K4E1", "dateTime": 1519331171849}, {"current_trial": 117, "trialdata": {"rt": -1000, "trial_type": "single-audio", "word": "sheriff", "stimulus": "/static/audio/wordpool/SHERIFF.wav", "conditions": [12, 800, "a", 12000], "internal_node_id": "0.0-81.0", "trial": 3, "time_elapsed": 741151, "serialpos": 0, "key_press": -1, "wordID": 1283, "type": "PRES_AUD", "trial_index": 117}, "uniqueid": "MTK2774:38JBBYETQPHK6II706LLTNCMK1K4E1", "dateTime": 1519331173842}, {"current_trial": 118, "trialdata": {"rt": -1000, "trial_type": "single-audio", "word": "shark", "stimulus": "/static/audio/wordpool/SHARK.wav", "conditions": [12, 800, "a", 12000], "internal_node_id": "0.0-82.0", "trial": 3, "time_elapsed": 743076, "serialpos": 1, "key_press": -1, "wordID": 1274, "type": "PRES_AUD", "trial_index": 118}, "uniqueid": "MTK2774:38JBBYETQPHK6II706LLTNCMK1K4E1", "dateTime": 1519331175767}, {"current_trial": 119, "trialdata": {"rt": -1000, "trial_type": "single-audio", "word": "mammal", "stimulus": "/static/audio/wordpool/MAMMAL.wav", "conditions": [12, 800, "a", 12000], "internal_node_id": "0.0-83.0", "trial": 3, "time_elapsed": 744842, "serialpos": 2, "key_press": -1, "wordID": 860, "type": "PRES_AUD", "trial_index": 119}, "uniqueid": "MTK2774:38JBBYETQPHK6II706LLTNCMK1K4E1", "dateTime": 1519331177533}, {"current_trial": 120, "trialdata": {"rt": -1000, "trial_type": "single-audio", "word": "snack", "stimulus": "/static/audio/wordpool/SNACK.wav", "conditions": [12, 800, "a", 12000], "internal_node_id": "0.0-84.0", "trial": 3, "time_elapsed": 746471, "serialpos": 3, "key_press": -1, "wordID": 1330, "type": "PRES_AUD", "trial_index": 120}, "uniqueid": "MTK2774:38JBBYETQPHK6II706LLTNCMK1K4E1", "dateTime": 1519331179162}, {"current_trial": 121, "trialdata": {"rt": -1000, "trial_type": "single-audio", "word": "jelly", "stimulus": "/static/audio/wordpool/JELLY.wav", "conditions": [12, 800, "a", 12000], "internal_node_id": "0.0-85.0", "trial": 3, "time_elapsed": 748444, "serialpos": 4, "key_press": -1, "wordID": 754, "type": "PRES_AUD", "trial_index": 121}, "uniqueid": "MTK2774:38JBBYETQPHK6II706LLTNCMK1K4E1", "dateTime": 1519331181137}, {"current_trial": 122, "trialdata": {"rt": -1000, "trial_type": "single-audio", "word": "shorts", "stimulus": "/static/audio/wordpool/SHORTS.wav", "conditions": [12, 800, "a", 12000], "internal_node_id": "0.0-86.0", "trial": 3, "time_elapsed": 750252, "serialpos": 5, "key_press": -1, "wordID": 1292, "type": "PRES_AUD", "trial_index": 122}, "uniqueid": "MTK2774:38JBBYETQPHK6II706LLTNCMK1K4E1", "dateTime": 1519331182943}, {"current_trial": 123, "trialdata": {"rt": -1000, "trial_type": "single-audio", "word": "lunch", "stimulus": "/static/audio/wordpool/LUNCH.wav", "conditions": [12, 800, "a", 12000], "internal_node_id": "0.0-87.0", "trial": 3, "time_elapsed": 752248, "serialpos": 6, "key_press": -1, "wordID": 848, "type": "PRES_AUD", "trial_index": 123}, "uniqueid": "MTK2774:38JBBYETQPHK6II706LLTNCMK1K4E1", "dateTime": 1519331184940}, {"current_trial": 124, "trialdata": {"rt": -1000, "trial_type": "single-audio", "word": "shortcake", "stimulus": "/static/audio/wordpool/SHORTCAKE.wav", "conditions": [12, 800, "a", 12000], "internal_node_id": "0.0-88.0", "trial": 3, "time_elapsed": 753852, "serialpos": 7, "key_press": -1, "wordID": 1291, "type": "PRES_AUD", "trial_index": 124}, "uniqueid": "MTK2774:38JBBYETQPHK6II706LLTNCMK1K4E1", "dateTime": 1519331186543}, {"current_trial": 125, "trialdata": {"rt": -1000, "trial_type": "single-audio", "word": "grave", "stimulus": "/static/audio/wordpool/GRAVE.wav", "conditions": [12, 800, "a", 12000], "internal_node_id": "0.0-89.0", "trial": 3, "time_elapsed": 755537, "serialpos": 8, "key_press": -1, "wordID": 657, "type": "PRES_AUD", "trial_index": 125}, "uniqueid": "MTK2774:38JBBYETQPHK6II706LLTNCMK1K4E1", "dateTime": 1519331188228}, {"current_trial": 126, "trialdata": {"rt": -1000, "trial_type": "single-audio", "word": "cabbage", "stimulus": "/static/audio/wordpool/CABBAGE.wav", "conditions": [12, 800, "a", 12000], "internal_node_id": "0.0-90.0", "trial": 3, "time_elapsed": 757356, "serialpos": 9, "key_press": -1, "wordID": 209, "type": "PRES_AUD", "trial_index": 126}, "uniqueid": "MTK2774:38JBBYETQPHK6II706LLTNCMK1K4E1", "dateTime": 1519331190047}, {"current_trial": 127, "trialdata": {"rt": -1000, "trial_type": "single-audio", "word": "taxi", "stimulus": "/static/audio/wordpool/TAXI.wav", "conditions": [12, 800, "a", 12000], "internal_node_id": "0.0-91.0", "trial": 3, "time_elapsed": 759103, "serialpos": 10, "key_press": -1, "wordID": 1437, "type": "PRES_AUD", "trial_index": 127}, "uniqueid": "MTK2774:38JBBYETQPHK6II706LLTNCMK1K4E1", "dateTime": 1519331191794}, {"current_trial": 128, "trialdata": {"rt": -1000, "trial_type": "single-audio", "word": "suspect", "stimulus": "/static/audio/wordpool/SUSPECT.wav", "conditions": [12, 800, "a", 12000], "internal_node_id": "0.0-92.0", "trial": 3, "time_elapsed": 760967, "serialpos": 11, "key_press": -1, "wordID": 1414, "type": "PRES_AUD", "trial_index": 128}, "uniqueid": "MTK2774:38JBBYETQPHK6II706LLTNCMK1K4E1", "dateTime": 1519331193658}, {"current_trial": 129, "trialdata": {"rt": -1, "trial_type": "single-stim", "stimulus": "", "internal_node_id": "0.0-93.0-0.0", "time_elapsed": 762305, "key_press": -1, "type": "PRE_RECALL_DELAY", "trial_index": 129}, "uniqueid": "MTK2774:38JBBYETQPHK6II706LLTNCMK1K4E1", "dateTime": 1519331194996}, {"current_trial": 130, "trialdata": {"rt": -1000, "trial_type": "single-audio", "stimulus": "/static/audio/400Hz.wav", "internal_node_id": "0.0-94.0", "time_elapsed": 762807, "key_press": -1, "type": "PRE_RECALL_ALERT", "trial_index": 130}, "uniqueid": "MTK2774:38JBBYETQPHK6II706LLTNCMK1K4E1", "dateTime": 1519331195498}, {"current_trial": 131, "trialdata": {"rt": [4472, 7416, 10611, 13332], "recwords": ["cabbage", "suspect", "grave", "taxi"], "key_times": [1379, 1727, 2228, 2755, 2972, 3135, 3315, 3941, 4209, 4472, 5147, 5609, 5757, 6194, 6383, 6695, 7008, 7416, 9266, 9475, 9728, 10052, 10284, 10611, 11023, 11579, 11947, 12548, 12790, 12970, 13332], "trial_type": "free-recall", "conditions": [12, 800, "a", 12000], "internal_node_id": "0.0-95.0-0.0", "key_presses": [67, 65, 80, 8, 66, 66, 65, 71, 69, 13, 83, 85, 83, 80, 69, 67, 84, 13, 71, 82, 65, 86, 69, 13, 84, 65, 90, 8, 88, 73, 13], "trial": 3, "time_elapsed": 822810, "type": "FREE_RECALL", "trial_index": 131}, "uniqueid": "MTK2774:38JBBYETQPHK6II706LLTNCMK1K4E1", "dateTime": 1519331255503}, {"current_trial": 132, "trialdata": {"rt": 4109, "trial_type": "text", "internal_node_id": "0.0-96.0", "time_elapsed": 828922, "key_press": 39, "type": "INSTRUCTIONS", "trial_index": 132}, "uniqueid": "MTK2774:38JBBYETQPHK6II706LLTNCMK1K4E1", "dateTime": 1519331261613}, {"current_trial": 133, "trialdata": {"rt": [4946, 8347, 10189, 12190, 14304, 17810], "trial_type": "math-distractor", "key_times": [4092, 4444, 4946, 7200, 7816, 8347, 9658, 9975, 10189, 11529, 12011, 12190, 14091, 14304, 17562, 17810, 22294, 23887], "responses": ["18", "19", "13", "15", "7", "5"], "num2": [2, 8, 3, 5, 1, 1, 9], "num3": [9, 5, 5, 1, 4, 2, 3], "conditions": [24, 1600, "a", 24000], "internal_node_id": "0.0-97.0", "key_presses": [49, 56, 13, 49, 57, 13, 49, 51, 13, 49, 53, 13, 55, 13, 53, 13, 49, 54], "trial": 4, "time_elapsed": 854923, "type": "DISTRACTOR", "trial_index": 133, "num1": [7, 6, 5, 9, 2, 2, 4]}, "uniqueid": "MTK2774:38JBBYETQPHK6II706LLTNCMK1K4E1", "dateTime": 1519331287614}, {"current_trial": 134, "trialdata": {"rt": -1, "trial_type": "single-stim", "stimulus": "<p id=\"stim\">10</p>", "internal_node_id": "0.0-98.0-0.0", "time_elapsed": 857925, "key_press": -1, "trial_index": 134}, "uniqueid": "MTK2774:38JBBYETQPHK6II706LLTNCMK1K4E1", "dateTime": 1519331290616}, {"current_trial": 135, "trialdata": {"rt": -1, "trial_type": "single-stim", "stimulus": "<p id=\"stim\">9</p>", "internal_node_id": "0.0-98.0-1.0", "time_elapsed": 858926, "key_press": -1, "trial_index": 135}, "uniqueid": "MTK2774:38JBBYETQPHK6II706LLTNCMK1K4E1", "dateTime": 1519331291617}, {"current_trial": 136, "trialdata": {"rt": -1, "trial_type": "single-stim", "stimulus": "<p id=\"stim\">8</p>", "internal_node_id": "0.0-98.0-2.0", "time_elapsed": 859927, "key_press": -1, "trial_index": 136}, "uniqueid": "MTK2774:38JBBYETQPHK6II706LLTNCMK1K4E1", "dateTime": 1519331292618}, {"current_trial": 137, "trialdata": {"rt": -1, "trial_type": "single-stim", "stimulus": "<p id=\"stim\">7</p>", "internal_node_id": "0.0-98.0-3.0", "time_elapsed": 860929, "key_press": -1, "trial_index": 137}, "uniqueid": "MTK2774:38JBBYETQPHK6II706LLTNCMK1K4E1", "dateTime": 1519331293620}, {"current_trial": 138, "trialdata": {"rt": -1, "trial_type": "single-stim", "stimulus": "<p id=\"stim\">6</p>", "internal_node_id": "0.0-98.0-4.0", "time_elapsed": 861932, "key_press": -1, "trial_index": 138}, "uniqueid": "MTK2774:38JBBYETQPHK6II706LLTNCMK1K4E1", "dateTime": 1519331294623}, {"current_trial": 139, "trialdata": {"rt": -1, "trial_type": "single-stim", "stimulus": "<p id=\"stim\">5</p>", "internal_node_id": "0.0-98.0-5.0", "time_elapsed": 862932, "key_press": -1, "trial_index": 139}, "uniqueid": "MTK2774:38JBBYETQPHK6II706LLTNCMK1K4E1", "dateTime": 1519331295623}, {"current_trial": 140, "trialdata": {"rt": -1, "trial_type": "single-stim", "stimulus": "<p id=\"stim\">4</p>", "internal_node_id": "0.0-98.0-6.0", "time_elapsed": 863935, "key_press": -1, "trial_index": 140}, "uniqueid": "MTK2774:38JBBYETQPHK6II706LLTNCMK1K4E1", "dateTime": 1519331296626}, {"current_trial": 141, "trialdata": {"rt": -1, "trial_type": "single-stim", "stimulus": "<p id=\"stim\">3</p>", "internal_node_id": "0.0-98.0-7.0", "time_elapsed": 864935, "key_press": -1, "trial_index": 141}, "uniqueid": "MTK2774:38JBBYETQPHK6II706LLTNCMK1K4E1", "dateTime": 1519331297627}, {"current_trial": 142, "trialdata": {"rt": -1, "trial_type": "single-stim", "stimulus": "<p id=\"stim\">2</p>", "internal_node_id": "0.0-98.0-8.0", "time_elapsed": 865938, "key_press": -1, "trial_index": 142}, "uniqueid": "MTK2774:38JBBYETQPHK6II706LLTNCMK1K4E1", "dateTime": 1519331298629}, {"current_trial": 143, "trialdata": {"rt": -1, "trial_type": "single-stim", "stimulus": "<p id=\"stim\">1</p>", "internal_node_id": "0.0-98.0-9.0", "time_elapsed": 866939, "key_press": -1, "trial_index": 143}, "uniqueid": "MTK2774:38JBBYETQPHK6II706LLTNCMK1K4E1", "dateTime": 1519331299630}, {"current_trial": 144, "trialdata": {"rt": -1, "trial_type": "single-stim", "stimulus": "<p id=\"stim\">+</p>", "internal_node_id": "0.0-99.0-0.0", "time_elapsed": 868439, "key_press": -1, "type": "FIXATION", "trial_index": 144}, "uniqueid": "MTK2774:38JBBYETQPHK6II706LLTNCMK1K4E1", "dateTime": 1519331301131}, {"current_trial": 145, "trialdata": {"rt": -1000, "trial_type": "single-audio", "word": "costume", "stimulus": "/static/audio/wordpool/COSTUME.wav", "conditions": [24, 1600, "a", 24000], "internal_node_id": "0.0-100.0", "trial": 4, "time_elapsed": 870948, "serialpos": 0, "key_press": -1, "wordID": 382, "type": "PRES_AUD", "trial_index": 145}, "uniqueid": "MTK2774:38JBBYETQPHK6II706LLTNCMK1K4E1", "dateTime": 1519331303639}, {"current_trial": 146, "trialdata": {"rt": -1000, "trial_type": "single-audio", "word": "drawing", "stimulus": "/static/audio/wordpool/DRAWING.wav", "conditions": [24, 1600, "a", 24000], "internal_node_id": "0.0-101.0", "trial": 4, "time_elapsed": 873700, "serialpos": 1, "key_press": -1, "wordID": 493, "type": "PRES_AUD", "trial_index": 146}, "uniqueid": "MTK2774:38JBBYETQPHK6II706LLTNCMK1K4E1", "dateTime": 1519331306391}, {"current_trial": 147, "trialdata": {"rt": -1000, "trial_type": "single-audio", "word": "saddle", "stimulus": "/static/audio/wordpool/SADDLE.wav", "conditions": [24, 1600, "a", 24000], "internal_node_id": "0.0-102.0", "trial": 4, "time_elapsed": 876390, "serialpos": 2, "key_press": -1, "wordID": 1220, "type": "PRES_AUD", "trial_index": 147}, "uniqueid": "MTK2774:38JBBYETQPHK6II706LLTNCMK1K4E1", "dateTime": 1519331309081}, {"current_trial": 148, "trialdata": {"rt": -1000, "trial_type": "single-audio", "word": "actor", "stimulus": "/static/audio/wordpool/ACTOR.wav", "conditions": [24, 1600, "a", 24000], "internal_node_id": "0.0-103.0", "trial": 4, "time_elapsed": 879045, "serialpos": 3, "key_press": -1, "wordID": 4, "type": "PRES_AUD", "trial_index": 148}, "uniqueid": "MTK2774:38JBBYETQPHK6II706LLTNCMK1K4E1", "dateTime": 1519331311736}, {"current_trial": 149, "trialdata": {"rt": -1000, "trial_type": "single-audio", "word": "actress", "stimulus": "/static/audio/wordpool/ACTRESS.wav", "conditions": [24, 1600, "a", 24000], "internal_node_id": "0.0-104.0", "trial": 4, "time_elapsed": 881555, "serialpos": 4, "key_press": -1, "wordID": 5, "type": "PRES_AUD", "trial_index": 149}, "uniqueid": "MTK2774:38JBBYETQPHK6II706LLTNCMK1K4E1", "dateTime": 1519331314246}, {"current_trial": 150, "trialdata": {"rt": -1000, "trial_type": "single-audio", "word": "sketch", "stimulus": "/static/audio/wordpool/SKETCH.wav", "conditions": [24, 1600, "a", 24000], "internal_node_id": "0.0-105.0", "trial": 4, "time_elapsed": 884242, "serialpos": 5, "key_press": -1, "wordID": 1314, "type": "PRES_AUD", "trial_index": 150}, "uniqueid": "MTK2774:38JBBYETQPHK6II706LLTNCMK1K4E1", "dateTime": 1519331316933}, {"current_trial": 151, "trialdata": {"rt": -1000, "trial_type": "single-audio", "word": "pigment", "stimulus": "/static/audio/wordpool/PIGMENT.wav", "conditions": [24, 1600, "a", 24000], "internal_node_id": "0.0-106.0", "trial": 4, "time_elapsed": 886696, "serialpos": 6, "key_press": -1, "wordID": 1065, "type": "PRES_AUD", "trial_index": 151}, "uniqueid": "MTK2774:38JBBYETQPHK6II706LLTNCMK1K4E1", "dateTime": 1519331319388}, {"current_trial": 152, "trialdata": {"rt": -1000, "trial_type": "single-audio", "word": "scarecrow", "stimulus": "/static/audio/wordpool/SCARECROW.wav", "conditions": [24, 1600, "a", 24000], "internal_node_id": "0.0-107.0", "trial": 4, "time_elapsed": 889145, "serialpos": 7, "key_press": -1, "wordID": 1244, "type": "PRES_AUD", "trial_index": 152}, "uniqueid": "MTK2774:38JBBYETQPHK6II706LLTNCMK1K4E1", "dateTime": 1519331321836}, {"current_trial": 153, "trialdata": {"rt": -1000, "trial_type": "single-audio", "word": "army", "stimulus": "/static/audio/wordpool/ARMY.wav", "conditions": [24, 1600, "a", 24000], "internal_node_id": "0.0-108.0", "trial": 4, "time_elapsed": 891686, "serialpos": 8, "key_press": -1, "wordID": 38, "type": "PRES_AUD", "trial_index": 153}, "uniqueid": "MTK2774:38JBBYETQPHK6II706LLTNCMK1K4E1", "dateTime": 1519331324377}, {"current_trial": 154, "trialdata": {"rt": -1000, "trial_type": "single-audio", "word": "chauffeur", "stimulus": "/static/audio/wordpool/CHAUFFEUR.wav", "conditions": [24, 1600, "a", 24000], "internal_node_id": "0.0-109.0", "trial": 4, "time_elapsed": 894302, "serialpos": 9, "key_press": -1, "wordID": 282, "type": "PRES_AUD", "trial_index": 154}, "uniqueid": "MTK2774:38JBBYETQPHK6II706LLTNCMK1K4E1", "dateTime": 1519331326993}, {"current_trial": 155, "trialdata": {"rt": -1000, "trial_type": "single-audio", "word": "muffin", "stimulus": "/static/audio/wordpool/MUFFIN.wav", "conditions": [24, 1600, "a", 24000], "internal_node_id": "0.0-110.0", "trial": 4, "time_elapsed": 896757, "serialpos": 10, "key_press": -1, "wordID": 928, "type": "PRES_AUD", "trial_index": 155}, "uniqueid": "MTK2774:38JBBYETQPHK6II706LLTNCMK1K4E1", "dateTime": 1519331329448}, {"current_trial": 156, "trialdata": {"rt": -1000, "trial_type": "single-audio", "word": "dandruff", "stimulus": "/static/audio/wordpool/DANDRUFF.wav", "conditions": [24, 1600, "a", 24000], "internal_node_id": "0.0-111.0", "trial": 4, "time_elapsed": 899250, "serialpos": 11, "key_press": -1, "wordID": 438, "type": "PRES_AUD", "trial_index": 156}, "uniqueid": "MTK2774:38JBBYETQPHK6II706LLTNCMK1K4E1", "dateTime": 1519331331941}, {"current_trial": 157, "trialdata": {"rt": -1000, "trial_type": "single-audio", "word": "fox", "stimulus": "/static/audio/wordpool/FOX.wav", "conditions": [24, 1600, "a", 24000], "internal_node_id": "0.0-112.0", "trial": 4, "time_elapsed": 902045, "serialpos": 12, "key_press": -1, "wordID": 597, "type": "PRES_AUD", "trial_index": 157}, "uniqueid": "MTK2774:38JBBYETQPHK6II706LLTNCMK1K4E1", "dateTime": 1519331334736}, {"current_trial": 158, "trialdata": {"rt": -1000, "trial_type": "single-audio", "word": "sunrise", "stimulus": "/static/audio/wordpool/SUNRISE.wav", "conditions": [24, 1600, "a", 24000], "internal_node_id": "0.0-113.0", "trial": 4, "time_elapsed": 904496, "serialpos": 13, "key_press": -1, "wordID": 1406, "type": "PRES_AUD", "trial_index": 158}, "uniqueid": "MTK2774:38JBBYETQPHK6II706LLTNCMK1K4E1", "dateTime": 1519331337187}, {"current_trial": 159, "trialdata": {"rt": -1000, "trial_type": "single-audio", "word": "sunset", "stimulus": "/static/audio/wordpool/SUNSET.wav", "conditions": [24, 1600, "a", 24000], "internal_node_id": "0.0-114.0", "trial": 4, "time_elapsed": 906946, "serialpos": 14, "key_press": -1, "wordID": 1407, "type": "PRES_AUD", "trial_index": 159}, "uniqueid": "MTK2774:38JBBYETQPHK6II706LLTNCMK1K4E1", "dateTime": 1519331339637}, {"current_trial": 160, "trialdata": {"rt": -1000, "trial_type": "single-audio", "word": "stone", "stimulus": "/static/audio/wordpool/STONE.wav", "conditions": [24, 1600, "a", 24000], "internal_node_id": "0.0-115.0", "trial": 4, "time_elapsed": 909578, "serialpos": 15, "key_press": -1, "wordID": 1384, "type": "PRES_AUD", "trial_index": 160}, "uniqueid": "MTK2774:38JBBYETQPHK6II706LLTNCMK1K4E1", "dateTime": 1519331342269}, {"current_trial": 161, "trialdata": {"rt": -1000, "trial_type": "single-audio", "word": "rooster", "stimulus": "/static/audio/wordpool/ROOSTER.wav", "conditions": [24, 1600, "a", 24000], "internal_node_id": "0.0-116.0", "trial": 4, "time_elapsed": 912320, "serialpos": 16, "key_press": -1, "wordID": 1208, "type": "PRES_AUD", "trial_index": 161}, "uniqueid": "MTK2774:38JBBYETQPHK6II706LLTNCMK1K4E1", "dateTime": 1519331345012}, {"current_trial": 162, "trialdata": {"rt": -1000, "trial_type": "single-audio", "word": "leader", "stimulus": "/static/audio/wordpool/LEADER.wav", "conditions": [24, 1600, "a", 24000], "internal_node_id": "0.0-117.0", "trial": 4, "time_elapsed": 914960, "serialpos": 17, "key_press": -1, "wordID": 806, "type": "PRES_AUD", "trial_index": 162}, "uniqueid": "MTK2774:38JBBYETQPHK6II706LLTNCMK1K4E1", "dateTime": 1519331347651}, {"current_trial": 163, "trialdata": {"rt": -1000, "trial_type": "single-audio", "word": "missile", "stimulus": "/static/audio/wordpool/MISSILE.wav", "conditions": [24, 1600, "a", 24000], "internal_node_id": "0.0-118.0", "trial": 4, "time_elapsed": 917697, "serialpos": 18, "key_press": -1, "wordID": 899, "type": "PRES_AUD", "trial_index": 163}, "uniqueid": "MTK2774:38JBBYETQPHK6II706LLTNCMK1K4E1", "dateTime": 1519331350389}, {"current_trial": 164, "trialdata": {"rt": -1000, "trial_type": "single-audio", "word": "pliers", "stimulus": "/static/audio/wordpool/PLIERS.wav", "conditions": [24, 1600, "a", 24000], "internal_node_id": "0.0-119.0", "trial": 4, "time_elapsed": 920455, "serialpos": 19, "key_press": -1, "wordID": 1088, "type": "PRES_AUD", "trial_index": 164}, "uniqueid": "MTK2774:38JBBYETQPHK6II706LLTNCMK1K4E1", "dateTime": 1519331353146}, {"current_trial": 165, "trialdata": {"rt": -1000, "trial_type": "single-audio", "word": "hatchet", "stimulus": "/static/audio/wordpool/HATCHET.wav", "conditions": [24, 1600, "a", 24000], "internal_node_id": "0.0-120.0", "trial": 4, "time_elapsed": 923017, "serialpos": 20, "key_press": -1, "wordID": 690, "type": "PRES_AUD", "trial_index": 165}, "uniqueid": "MTK2774:38JBBYETQPHK6II706LLTNCMK1K4E1", "dateTime": 1519331355709}, {"current_trial": 166, "trialdata": {"rt": -1000, "trial_type": "single-audio", "word": "outfit", "stimulus": "/static/audio/wordpool/OUTFIT.wav", "conditions": [24, 1600, "a", 24000], "internal_node_id": "0.0-121.0", "trial": 4, "time_elapsed": 925520, "serialpos": 21, "key_press": -1, "wordID": 987, "type": "PRES_AUD", "trial_index": 166}, "uniqueid": "MTK2774:38JBBYETQPHK6II706LLTNCMK1K4E1", "dateTime": 1519331358212}, {"current_trial": 167, "trialdata": {"rt": -1000, "trial_type": "single-audio", "word": "gavel", "stimulus": "/static/audio/wordpool/GAVEL.wav", "conditions": [24, 1600, "a", 24000], "internal_node_id": "0.0-122.0", "trial": 4, "time_elapsed": 927985, "serialpos": 22, "key_press": -1, "wordID": 626, "type": "PRES_AUD", "trial_index": 167}, "uniqueid": "MTK2774:38JBBYETQPHK6II706LLTNCMK1K4E1", "dateTime": 1519331360676}, {"current_trial": 168, "trialdata": {"rt": -1000, "trial_type": "single-audio", "word": "paper", "stimulus": "/static/audio/wordpool/PAPER.wav", "conditions": [24, 1600, "a", 24000], "internal_node_id": "0.0-123.0", "trial": 4, "time_elapsed": 930478, "serialpos": 23, "key_press": -1, "wordID": 1010, "type": "PRES_AUD", "trial_index": 168}, "uniqueid": "MTK2774:38JBBYETQPHK6II706LLTNCMK1K4E1", "dateTime": 1519331363169}, {"current_trial": 169, "trialdata": {"rt": -1, "trial_type": "single-stim", "stimulus": "", "internal_node_id": "0.0-124.0-0.0", "time_elapsed": 931812, "key_press": -1, "type": "PRE_RECALL_DELAY", "trial_index": 169}, "uniqueid": "MTK2774:38JBBYETQPHK6II706LLTNCMK1K4E1", "dateTime": 1519331364503}, {"current_trial": 170, "trialdata": {"rt": -1000, "trial_type": "single-audio", "stimulus": "/static/audio/400Hz.wav", "internal_node_id": "0.0-125.0", "time_elapsed": 932315, "key_press": -1, "type": "PRE_RECALL_ALERT", "trial_index": 170}, "uniqueid": "MTK2774:38JBBYETQPHK6II706LLTNCMK1K4E1", "dateTime": 1519331365006}, {"current_trial": 171, "trialdata": {"rt": [3037, 4264, 6369, 8762, 11056, 14050, 17693, 21144, 26075, 34371], "recwords": ["paper", "stone", "actor", "actress", "costume", "sunrise", "sunset", "gavel", "fox", "dandruff"], "key_times": [1945, 2115, 2377, 2536, 2630, 3037, 3310, 3583, 3767, 3932, 4050, 4264, 4626, 4855, 5153, 5996, 6180, 6369, 6855, 7347, 7699, 7903, 8062, 8295, 8474, 8762, 9373, 9527, 10062, 10301, 10475, 10729, 10853, 11056, 12093, 12258, 12452, 12892, 13097, 13259, 13474, 14050, 14373, 14607, 14894, 15231, 15489, 15718, 16349, 16576, 16815, 17004, 17693, 18538, 18984, 19192, 19347, 19714, 19947, 20082, 21144, 25349, 25509, 25791, 26075, 30512, 30711, 30857, 31184, 31407, 31567, 31824, 32360, 34371], "trial_type": "free-recall", "conditions": [24, 1600, "a", 24000], "internal_node_id": "0.0-126.0-0.0", "key_presses": [80, 65, 80, 69, 82, 13, 83, 84, 79, 78, 69, 13, 65, 67, 84, 79, 82, 13, 65, 67, 84, 82, 69, 83, 83, 13, 67, 79, 83, 84, 85, 77, 69, 13, 83, 85, 78, 82, 73, 83, 69, 13, 83, 85, 78, 83, 84, 69, 8, 8, 69, 84, 13, 70, 8, 71, 65, 86, 69, 76, 13, 70, 79, 88, 13, 68, 65, 78, 68, 82, 85, 70, 70, 13], "trial": 4, "time_elapsed": 992317, "type": "FREE_RECALL", "trial_index": 171}, "uniqueid": "MTK2774:38JBBYETQPHK6II706LLTNCMK1K4E1", "dateTime": 1519331425010}, {"current_trial": 172, "trialdata": {"rt": 3046, "trial_type": "text", "internal_node_id": "0.0-127.0", "time_elapsed": 997367, "key_press": 32, "type": "INSTRUCTIONS", "trial_index": 172}, "uniqueid": "MTK2774:38JBBYETQPHK6II706LLTNCMK1K4E1", "dateTime": 1519331430058}, {"current_trial": 173, "trialdata": {"rt": [2134, 4507, 6766, 8499, 11061, 13057, 18107, 22080], "trial_type": "math-distractor", "key_times": [1599, 1930, 2134, 3747, 4345, 4507, 5789, 6563, 6766, 8087, 8295, 8499, 10371, 10828, 11061, 12500, 12889, 13057, 17690, 17838, 18107, 21290, 21926, 22080], "responses": ["13", "16", "19", "12", "14", "15", "22", "17"], "num2": [4, 6, 9, 8, 2, 9, 8, 4, 5], "num3": [3, 1, 1, 2, 9, 1, 9, 9, 6], "conditions": [12, 800, "a", 24000], "internal_node_id": "0.0-128.0", "key_presses": [49, 51, 13, 49, 54, 13, 49, 57, 13, 49, 50, 13, 49, 52, 13, 49, 53, 13, 50, 50, 13, 49, 55, 13], "trial": 5, "time_elapsed": 1023371, "type": "DISTRACTOR", "trial_index": 173, "num1": [6, 9, 9, 2, 3, 4, 5, 4, 1]}, "uniqueid": "MTK2774:38JBBYETQPHK6II706LLTNCMK1K4E1", "dateTime": 1519331456062}, {"current_trial": 174, "trialdata": {"rt": -1, "trial_type": "single-stim", "stimulus": "<p id=\"stim\">10</p>", "internal_node_id": "0.0-129.0-0.0", "time_elapsed": 1026373, "key_press": -1, "trial_index": 174}, "uniqueid": "MTK2774:38JBBYETQPHK6II706LLTNCMK1K4E1", "dateTime": 1519331459064}, {"current_trial": 175, "trialdata": {"rt": -1, "trial_type": "single-stim", "stimulus": "<p id=\"stim\">9</p>", "internal_node_id": "0.0-129.0-1.0", "time_elapsed": 1027373, "key_press": -1, "trial_index": 175}, "uniqueid": "MTK2774:38JBBYETQPHK6II706LLTNCMK1K4E1", "dateTime": 1519331460064}, {"current_trial": 176, "trialdata": {"rt": -1, "trial_type": "single-stim", "stimulus": "<p id=\"stim\">8</p>", "internal_node_id": "0.0-129.0-2.0", "time_elapsed": 1028373, "key_press": -1, "trial_index": 176}, "uniqueid": "MTK2774:38JBBYETQPHK6II706LLTNCMK1K4E1", "dateTime": 1519331461064}, {"current_trial": 177, "trialdata": {"rt": -1, "trial_type": "single-stim", "stimulus": "<p id=\"stim\">7</p>", "internal_node_id": "0.0-129.0-3.0", "time_elapsed": 1029375, "key_press": -1, "trial_index": 177}, "uniqueid": "MTK2774:38JBBYETQPHK6II706LLTNCMK1K4E1", "dateTime": 1519331462066}, {"current_trial": 178, "trialdata": {"rt": -1, "trial_type": "single-stim", "stimulus": "<p id=\"stim\">6</p>", "internal_node_id": "0.0-129.0-4.0", "time_elapsed": 1030375, "key_press": -1, "trial_index": 178}, "uniqueid": "MTK2774:38JBBYETQPHK6II706LLTNCMK1K4E1", "dateTime": 1519331463066}, {"current_trial": 179, "trialdata": {"rt": -1, "trial_type": "single-stim", "stimulus": "<p id=\"stim\">5</p>", "internal_node_id": "0.0-129.0-5.0", "time_elapsed": 1031376, "key_press": -1, "trial_index": 179}, "uniqueid": "MTK2774:38JBBYETQPHK6II706LLTNCMK1K4E1", "dateTime": 1519331464067}, {"current_trial": 180, "trialdata": {"rt": -1, "trial_type": "single-stim", "stimulus": "<p id=\"stim\">4</p>", "internal_node_id": "0.0-129.0-6.0", "time_elapsed": 1032378, "key_press": -1, "trial_index": 180}, "uniqueid": "MTK2774:38JBBYETQPHK6II706LLTNCMK1K4E1", "dateTime": 1519331465069}, {"current_trial": 181, "trialdata": {"rt": -1, "trial_type": "single-stim", "stimulus": "<p id=\"stim\">3</p>", "internal_node_id": "0.0-129.0-7.0", "time_elapsed": 1033379, "key_press": -1, "trial_index": 181}, "uniqueid": "MTK2774:38JBBYETQPHK6II706LLTNCMK1K4E1", "dateTime": 1519331466070}, {"current_trial": 182, "trialdata": {"rt": -1, "trial_type": "single-stim", "stimulus": "<p id=\"stim\">2</p>", "internal_node_id": "0.0-129.0-8.0", "time_elapsed": 1034380, "key_press": -1, "trial_index": 182}, "uniqueid": "MTK2774:38JBBYETQPHK6II706LLTNCMK1K4E1", "dateTime": 1519331467071}, {"current_trial": 183, "trialdata": {"rt": -1, "trial_type": "single-stim", "stimulus": "<p id=\"stim\">1</p>", "internal_node_id": "0.0-129.0-9.0", "time_elapsed": 1035381, "key_press": -1, "trial_index": 183}, "uniqueid": "MTK2774:38JBBYETQPHK6II706LLTNCMK1K4E1", "dateTime": 1519331468072}, {"current_trial": 184, "trialdata": {"rt": -1, "trial_type": "single-stim", "stimulus": "<p id=\"stim\">+</p>", "internal_node_id": "0.0-130.0-0.0", "time_elapsed": 1036882, "key_press": -1, "type": "FIXATION", "trial_index": 184}, "uniqueid": "MTK2774:38JBBYETQPHK6II706LLTNCMK1K4E1", "dateTime": 1519331469573}, {"current_trial": 185, "trialdata": {"rt": -1000, "trial_type": "single-audio", "word": "cousin", "stimulus": "/static/audio/wordpool/COUSIN.wav", "conditions": [12, 800, "a", 24000], "internal_node_id": "0.0-131.0", "trial": 5, "time_elapsed": 1038496, "serialpos": 0, "key_press": -1, "wordID": 391, "type": "PRES_AUD", "trial_index": 185}, "uniqueid": "MTK2774:38JBBYETQPHK6II706LLTNCMK1K4E1", "dateTime": 1519331471187}, {"current_trial": 186, "trialdata": {"rt": -1000, "trial_type": "single-audio", "word": "sibling", "stimulus": "/static/audio/wordpool/SIBLING.wav", "conditions": [12, 800, "a", 24000], "internal_node_id": "0.0-132.0", "trial": 5, "time_elapsed": 1040403, "serialpos": 1, "key_press": -1, "wordID": 1300, "type": "PRES_AUD", "trial_index": 186}, "uniqueid": "MTK2774:38JBBYETQPHK6II706LLTNCMK1K4E1", "dateTime": 1519331473094}, {"current_trial": 187, "trialdata": {"rt": -1000, "trial_type": "single-audio", "word": "bacon", "stimulus": "/static/audio/wordpool/BACON.wav", "conditions": [12, 800, "a", 24000], "internal_node_id": "0.0-133.0", "trial": 5, "time_elapsed": 1042346, "serialpos": 2, "key_press": -1, "wordID": 66, "type": "PRES_AUD", "trial_index": 187}, "uniqueid": "MTK2774:38JBBYETQPHK6II706LLTNCMK1K4E1", "dateTime": 1519331475037}, {"current_trial": 188, "trialdata": {"rt": -1000, "trial_type": "single-audio", "word": "spoon", "stimulus": "/static/audio/wordpool/SPOON.wav", "conditions": [12, 800, "a", 24000], "internal_node_id": "0.0-134.0", "trial": 5, "time_elapsed": 1044350, "serialpos": 3, "key_press": -1, "wordID": 1356, "type": "PRES_AUD", "trial_index": 188}, "uniqueid": "MTK2774:38JBBYETQPHK6II706LLTNCMK1K4E1", "dateTime": 1519331477041}, {"current_trial": 189, "trialdata": {"rt": -1000, "trial_type": "single-audio", "word": "pork", "stimulus": "/static/audio/wordpool/PORK.wav", "conditions": [12, 800, "a", 24000], "internal_node_id": "0.0-135.0", "trial": 5, "time_elapsed": 1046299, "serialpos": 4, "key_press": -1, "wordID": 1107, "type": "PRES_AUD", "trial_index": 189}, "uniqueid": "MTK2774:38JBBYETQPHK6II706LLTNCMK1K4E1", "dateTime": 1519331478990}, {"current_trial": 190, "trialdata": {"rt": -1000, "trial_type": "single-audio", "word": "lake", "stimulus": "/static/audio/wordpool/LAKE.wav", "conditions": [12, 800, "a", 24000], "internal_node_id": "0.0-136.0", "trial": 5, "time_elapsed": 1048124, "serialpos": 5, "key_press": -1, "wordID": 795, "type": "PRES_AUD", "trial_index": 190}, "uniqueid": "MTK2774:38JBBYETQPHK6II706LLTNCMK1K4E1", "dateTime": 1519331480815}, {"current_trial": 191, "trialdata": {"rt": -1000, "trial_type": "single-audio", "word": "victim", "stimulus": "/static/audio/wordpool/VICTIM.wav", "conditions": [12, 800, "a", 24000], "internal_node_id": "0.0-137.0", "trial": 5, "time_elapsed": 1049798, "serialpos": 6, "key_press": -1, "wordID": 1561, "type": "PRES_AUD", "trial_index": 191}, "uniqueid": "MTK2774:38JBBYETQPHK6II706LLTNCMK1K4E1", "dateTime": 1519331482489}, {"current_trial": 192, "trialdata": {"rt": -1000, "trial_type": "single-audio", "word": "whistle", "stimulus": "/static/audio/wordpool/WHISTLE.wav", "conditions": [12, 800, "a", 24000], "internal_node_id": "0.0-138.0", "trial": 5, "time_elapsed": 1051626, "serialpos": 7, "key_press": -1, "wordID": 1605, "type": "PRES_AUD", "trial_index": 192}, "uniqueid": "MTK2774:38JBBYETQPHK6II706LLTNCMK1K4E1", "dateTime": 1519331484317}, {"current_trial": 193, "trialdata": {"rt": -1000, "trial_type": "single-audio", "word": "marsh", "stimulus": "/static/audio/wordpool/MARSH.wav", "conditions": [12, 800, "a", 24000], "internal_node_id": "0.0-139.0", "trial": 5, "time_elapsed": 1053275, "serialpos": 8, "key_press": -1, "wordID": 873, "type": "PRES_AUD", "trial_index": 193}, "uniqueid": "MTK2774:38JBBYETQPHK6II706LLTNCMK1K4E1", "dateTime": 1519331485966}, {"current_trial": 194, "trialdata": {"rt": -1000, "trial_type": "single-audio", "word": "shovel", "stimulus": "/static/audio/wordpool/SHOVEL.wav", "conditions": [12, 800, "a", 24000], "internal_node_id": "0.0-140.0", "trial": 5, "time_elapsed": 1055228, "serialpos": 9, "key_press": -1, "wordID": 1294, "type": "PRES_AUD", "trial_index": 194}, "uniqueid": "MTK2774:38JBBYETQPHK6II706LLTNCMK1K4E1", "dateTime": 1519331487919}, {"current_trial": 195, "trialdata": {"rt": -1000, "trial_type": "single-audio", "word": "europe", "stimulus": "/static/audio/wordpool/EUROPE.wav", "conditions": [12, 800, "a", 24000], "internal_node_id": "0.0-141.0", "trial": 5, "time_elapsed": 1057203, "serialpos": 10, "key_press": -1, "wordID": 540, "type": "PRES_AUD", "trial_index": 195}, "uniqueid": "MTK2774:38JBBYETQPHK6II706LLTNCMK1K4E1", "dateTime": 1519331489894}, {"current_trial": 196, "trialdata": {"rt": -1000, "trial_type": "single-audio", "word": "swimmer", "stimulus": "/static/audio/wordpool/SWIMMER.wav", "conditions": [12, 800, "a", 24000], "internal_node_id": "0.0-142.0", "trial": 5, "time_elapsed": 1059125, "serialpos": 11, "key_press": -1, "wordID": 1419, "type": "PRES_AUD", "trial_index": 196}, "uniqueid": "MTK2774:38JBBYETQPHK6II706LLTNCMK1K4E1", "dateTime": 1519331491816}, {"current_trial": 197, "trialdata": {"rt": -1, "trial_type": "single-stim", "stimulus": "", "internal_node_id": "0.0-143.0-0.0", "time_elapsed": 1060429, "key_press": -1, "type": "PRE_RECALL_DELAY", "trial_index": 197}, "uniqueid": "MTK2774:38JBBYETQPHK6II706LLTNCMK1K4E1", "dateTime": 1519331493120}, {"current_trial": 198, "trialdata": {"rt": -1000, "trial_type": "single-audio", "stimulus": "/static/audio/400Hz.wav", "internal_node_id": "0.0-144.0", "time_elapsed": 1060930, "key_press": -1, "type": "PRE_RECALL_ALERT", "trial_index": 198}, "uniqueid": "MTK2774:38JBBYETQPHK6II706LLTNCMK1K4E1", "dateTime": 1519331493621}, {"current_trial": 199, "trialdata": {"rt": [4011, 7993, 9884, 12655, 16546, 20221], "recwords": ["europe", "swimmer", "bacon", "pork", "cousin", "sibling"], "key_times": [859, 1057, 1191, 1468, 2268, 2571, 2800, 3275, 4011, 4672, 4914, 5266, 5575, 5730, 5869, 5956, 7993, 8638, 8802, 9069, 9372, 9553, 9884, 10187, 10471, 10649, 10852, 11652, 11969, 12655, 15029, 15172, 15410, 15574, 15802, 15986, 16546, 16865, 17078, 17292, 17541, 19596, 19765, 19889, 20221], "trial_type": "free-recall", "conditions": [12, 800, "a", 24000], "internal_node_id": "0.0-145.0-0.0", "key_presses": [69, 85, 82, 80, 8, 79, 80, 69, 13, 83, 87, 73, 77, 77, 69, 82, 13, 66, 65, 67, 79, 78, 13, 80, 79, 82, 84, 8, 75, 13, 67, 79, 85, 83, 73, 78, 13, 83, 73, 66, 76, 73, 78, 71, 13], "trial": 5, "time_elapsed": 1120933, "type": "FREE_RECALL", "trial_index": 199}, "uniqueid": "MTK2774:38JBBYETQPHK6II706LLTNCMK1K4E1", "dateTime": 1519331553626}, {"current_trial": 200, "trialdata": {"rt": 1963, "trial_type": "text", "internal_node_id": "0.0-146.0", "time_elapsed": 1124898, "key_press": 32, "type": "INSTRUCTIONS", "trial_index": 200}, "uniqueid": "MTK2774:38JBBYETQPHK6II706LLTNCMK1K4E1", "dateTime": 1519331557589}, {"current_trial": 201, "trialdata": {"rt": [2496, 4919, 7318, 10103], "trial_type": "math-distractor", "key_times": [1394, 1986, 2496, 4448, 4676, 4919, 6568, 7169, 7318, 9284, 9855, 10103, 11355, 11947], "responses": ["13", "21", "17", "18"], "num2": [5, 9, 7, 8, 6], "num3": [3, 3, 9, 3, 9], "conditions": [24, 1600, "a", 12000], "internal_node_id": "0.0-147.0", "key_presses": [49, 51, 13, 50, 49, 13, 49, 55, 13, 49, 56, 13, 49, 54], "trial": 6, "time_elapsed": 1138902, "type": "DISTRACTOR", "trial_index": 201, "num1": [5, 9, 1, 6, 1]}, "uniqueid": "MTK2774:38JBBYETQPHK6II706LLTNCMK1K4E1", "dateTime": 1519331571593}, {"current_trial": 202, "trialdata": {"rt": -1, "trial_type": "single-stim", "stimulus": "<p id=\"stim\">10</p>", "internal_node_id": "0.0-148.0-0.0", "time_elapsed": 1141903, "key_press": -1, "trial_index": 202}, "uniqueid": "MTK2774:38JBBYETQPHK6II706LLTNCMK1K4E1", "dateTime": 1519331574594}, {"current_trial": 203, "trialdata": {"rt": -1, "trial_type": "single-stim", "stimulus": "<p id=\"stim\">9</p>", "internal_node_id": "0.0-148.0-1.0", "time_elapsed": 1142905, "key_press": -1, "trial_index": 203}, "uniqueid": "MTK2774:38JBBYETQPHK6II706LLTNCMK1K4E1", "dateTime": 1519331575596}, {"current_trial": 204, "trialdata": {"rt": -1, "trial_type": "single-stim", "stimulus": "<p id=\"stim\">8</p>", "internal_node_id": "0.0-148.0-2.0", "time_elapsed": 1143907, "key_press": -1, "trial_index": 204}, "uniqueid": "MTK2774:38JBBYETQPHK6II706LLTNCMK1K4E1", "dateTime": 1519331576598}, {"current_trial": 205, "trialdata": {"rt": -1, "trial_type": "single-stim", "stimulus": "<p id=\"stim\">7</p>", "internal_node_id": "0.0-148.0-3.0", "time_elapsed": 1144908, "key_press": -1, "trial_index": 205}, "uniqueid": "MTK2774:38JBBYETQPHK6II706LLTNCMK1K4E1", "dateTime": 1519331577599}, {"current_trial": 206, "trialdata": {"rt": -1, "trial_type": "single-stim", "stimulus": "<p id=\"stim\">6</p>", "internal_node_id": "0.0-148.0-4.0", "time_elapsed": 1145909, "key_press": -1, "trial_index": 206}, "uniqueid": "MTK2774:38JBBYETQPHK6II706LLTNCMK1K4E1", "dateTime": 1519331578600}, {"current_trial": 207, "trialdata": {"rt": -1, "trial_type": "single-stim", "stimulus": "<p id=\"stim\">5</p>", "internal_node_id": "0.0-148.0-5.0", "time_elapsed": 1146911, "key_press": -1, "trial_index": 207}, "uniqueid": "MTK2774:38JBBYETQPHK6II706LLTNCMK1K4E1", "dateTime": 1519331579602}, {"current_trial": 208, "trialdata": {"rt": -1, "trial_type": "single-stim", "stimulus": "<p id=\"stim\">4</p>", "internal_node_id": "0.0-148.0-6.0", "time_elapsed": 1147912, "key_press": -1, "trial_index": 208}, "uniqueid": "MTK2774:38JBBYETQPHK6II706LLTNCMK1K4E1", "dateTime": 1519331580603}, {"current_trial": 209, "trialdata": {"rt": -1, "trial_type": "single-stim", "stimulus": "<p id=\"stim\">3</p>", "internal_node_id": "0.0-148.0-7.0", "time_elapsed": 1148913, "key_press": -1, "trial_index": 209}, "uniqueid": "MTK2774:38JBBYETQPHK6II706LLTNCMK1K4E1", "dateTime": 1519331581604}, {"current_trial": 210, "trialdata": {"rt": -1, "trial_type": "single-stim", "stimulus": "<p id=\"stim\">2</p>", "internal_node_id": "0.0-148.0-8.0", "time_elapsed": 1149914, "key_press": -1, "trial_index": 210}, "uniqueid": "MTK2774:38JBBYETQPHK6II706LLTNCMK1K4E1", "dateTime": 1519331582605}, {"current_trial": 211, "trialdata": {"rt": -1, "trial_type": "single-stim", "stimulus": "<p id=\"stim\">1</p>", "internal_node_id": "0.0-148.0-9.0", "time_elapsed": 1150915, "key_press": -1, "trial_index": 211}, "uniqueid": "MTK2774:38JBBYETQPHK6II706LLTNCMK1K4E1", "dateTime": 1519331583607}, {"current_trial": 212, "trialdata": {"rt": -1, "trial_type": "single-stim", "stimulus": "<p id=\"stim\">+</p>", "internal_node_id": "0.0-149.0-0.0", "time_elapsed": 1152417, "key_press": -1, "type": "FIXATION", "trial_index": 212}, "uniqueid": "MTK2774:38JBBYETQPHK6II706LLTNCMK1K4E1", "dateTime": 1519331585108}, {"current_trial": 213, "trialdata": {"rt": -1000, "trial_type": "single-audio", "word": "wife", "stimulus": "/static/audio/wordpool/WIFE.wav", "conditions": [24, 1600, "a", 12000], "internal_node_id": "0.0-150.0", "trial": 6, "time_elapsed": 1155212, "serialpos": 0, "key_press": -1, "wordID": 1608, "type": "PRES_AUD", "trial_index": 213}, "uniqueid": "MTK2774:38JBBYETQPHK6II706LLTNCMK1K4E1", "dateTime": 1519331587903}, {"current_trial": 214, "trialdata": {"rt": -1000, "trial_type": "single-audio", "word": "gymnast", "stimulus": "/static/audio/wordpool/GYMNAST.wav", "conditions": [24, 1600, "a", 12000], "internal_node_id": "0.0-151.0", "trial": 6, "time_elapsed": 1157747, "serialpos": 1, "key_press": -1, "wordID": 674, "type": "PRES_AUD", "trial_index": 214}, "uniqueid": "MTK2774:38JBBYETQPHK6II706LLTNCMK1K4E1", "dateTime": 1519331590439}, {"current_trial": 215, "trialdata": {"rt": -1000, "trial_type": "single-audio", "word": "dancer", "stimulus": "/static/audio/wordpool/DANCER.wav", "conditions": [24, 1600, "a", 12000], "internal_node_id": "0.0-152.0", "trial": 6, "time_elapsed": 1160340, "serialpos": 2, "key_press": -1, "wordID": 436, "type": "PRES_AUD", "trial_index": 215}, "uniqueid": "MTK2774:38JBBYETQPHK6II706LLTNCMK1K4E1", "dateTime": 1519331593031}, {"current_trial": 216, "trialdata": {"rt": -1000, "trial_type": "single-audio", "word": "money", "stimulus": "/static/audio/wordpool/MONEY.wav", "conditions": [24, 1600, "a", 12000], "internal_node_id": "0.0-153.0", "trial": 6, "time_elapsed": 1162759, "serialpos": 3, "key_press": -1, "wordID": 907, "type": "PRES_AUD", "trial_index": 216}, "uniqueid": "MTK2774:38JBBYETQPHK6II706LLTNCMK1K4E1", "dateTime": 1519331595450}, {"current_trial": 217, "trialdata": {"rt": -1000, "trial_type": "single-audio", "word": "donor", "stimulus": "/static/audio/wordpool/DONOR.wav", "conditions": [24, 1600, "a", 12000], "internal_node_id": "0.0-154.0", "trial": 6, "time_elapsed": 1165526, "serialpos": 4, "key_press": -1, "wordID": 484, "type": "PRES_AUD", "trial_index": 217}, "uniqueid": "MTK2774:38JBBYETQPHK6II706LLTNCMK1K4E1", "dateTime": 1519331598217}, {"current_trial": 218, "trialdata": {"rt": -1000, "trial_type": "single-audio", "word": "mop", "stimulus": "/static/audio/wordpool/MOP.wav", "conditions": [24, 1600, "a", 12000], "internal_node_id": "0.0-155.0", "trial": 6, "time_elapsed": 1168021, "serialpos": 5, "key_press": -1, "wordID": 915, "type": "PRES_AUD", "trial_index": 218}, "uniqueid": "MTK2774:38JBBYETQPHK6II706LLTNCMK1K4E1", "dateTime": 1519331600712}, {"current_trial": 219, "trialdata": {"rt": -1000, "trial_type": "single-audio", "word": "jello", "stimulus": "/static/audio/wordpool/JELLO.wav", "conditions": [24, 1600, "a", 12000], "internal_node_id": "0.0-156.0", "trial": 6, "time_elapsed": 1170739, "serialpos": 6, "key_press": -1, "wordID": 753, "type": "PRES_AUD", "trial_index": 219}, "uniqueid": "MTK2774:38JBBYETQPHK6II706LLTNCMK1K4E1", "dateTime": 1519331603430}, {"current_trial": 220, "trialdata": {"rt": -1000, "trial_type": "single-audio", "word": "virus", "stimulus": "/static/audio/wordpool/VIRUS.wav", "conditions": [24, 1600, "a", 12000], "internal_node_id": "0.0-157.0", "trial": 6, "time_elapsed": 1173186, "serialpos": 7, "key_press": -1, "wordID": 1571, "type": "PRES_AUD", "trial_index": 220}, "uniqueid": "MTK2774:38JBBYETQPHK6II706LLTNCMK1K4E1", "dateTime": 1519331605877}, {"current_trial": 221, "trialdata": {"rt": -1000, "trial_type": "single-audio", "word": "wardrobe", "stimulus": "/static/audio/wordpool/WARDROBE.wav", "conditions": [24, 1600, "a", 12000], "internal_node_id": "0.0-158.0", "trial": 6, "time_elapsed": 1175999, "serialpos": 8, "key_press": -1, "wordID": 1586, "type": "PRES_AUD", "trial_index": 221}, "uniqueid": "MTK2774:38JBBYETQPHK6II706LLTNCMK1K4E1", "dateTime": 1519331608690}, {"current_trial": 222, "trialdata": {"rt": -1000, "trial_type": "single-audio", "word": "stove", "stimulus": "/static/audio/wordpool/STOVE.wav", "conditions": [24, 1600, "a", 12000], "internal_node_id": "0.0-159.0", "trial": 6, "time_elapsed": 1178547, "serialpos": 9, "key_press": -1, "wordID": 1387, "type": "PRES_AUD", "trial_index": 222}, "uniqueid": "MTK2774:38JBBYETQPHK6II706LLTNCMK1K4E1", "dateTime": 1519331611238}, {"current_trial": 223, "trialdata": {"rt": -1000, "trial_type": "single-audio", "word": "crater", "stimulus": "/static/audio/wordpool/CRATER.wav", "conditions": [24, 1600, "a", 12000], "internal_node_id": "0.0-160.0", "trial": 6, "time_elapsed": 1181316, "serialpos": 10, "key_press": -1, "wordID": 399, "type": "PRES_AUD", "trial_index": 223}, "uniqueid": "MTK2774:38JBBYETQPHK6II706LLTNCMK1K4E1", "dateTime": 1519331614007}, {"current_trial": 224, "trialdata": {"rt": -1000, "trial_type": "single-audio", "word": "dress", "stimulus": "/static/audio/wordpool/DRESS.wav", "conditions": [24, 1600, "a", 12000], "internal_node_id": "0.0-161.0", "trial": 6, "time_elapsed": 1183844, "serialpos": 11, "key_press": -1, "wordID": 494, "type": "PRES_AUD", "trial_index": 224}, "uniqueid": "MTK2774:38JBBYETQPHK6II706LLTNCMK1K4E1", "dateTime": 1519331616535}, {"current_trial": 225, "trialdata": {"rt": -1000, "trial_type": "single-audio", "word": "monster", "stimulus": "/static/audio/wordpool/MONSTER.wav", "conditions": [24, 1600, "a", 12000], "internal_node_id": "0.0-162.0", "trial": 6, "time_elapsed": 1186541, "serialpos": 12, "key_press": -1, "wordID": 911, "type": "PRES_AUD", "trial_index": 225}, "uniqueid": "MTK2774:38JBBYETQPHK6II706LLTNCMK1K4E1", "dateTime": 1519331619232}, {"current_trial": 226, "trialdata": {"rt": -1000, "trial_type": "single-audio", "word": "trench", "stimulus": "/static/audio/wordpool/TRENCH.wav", "conditions": [24, 1600, "a", 12000], "internal_node_id": "0.0-163.0", "trial": 6, "time_elapsed": 1189235, "serialpos": 13, "key_press": -1, "wordID": 1502, "type": "PRES_AUD", "trial_index": 226}, "uniqueid": "MTK2774:38JBBYETQPHK6II706LLTNCMK1K4E1", "dateTime": 1519331621926}, {"current_trial": 227, "trialdata": {"rt": -1000, "trial_type": "single-audio", "word": "star", "stimulus": "/static/audio/wordpool/STAR.wav", "conditions": [24, 1600, "a", 12000], "internal_node_id": "0.0-164.0", "trial": 6, "time_elapsed": 1191960, "serialpos": 14, "key_press": -1, "wordID": 1372, "type": "PRES_AUD", "trial_index": 227}, "uniqueid": "MTK2774:38JBBYETQPHK6II706LLTNCMK1K4E1", "dateTime": 1519331624651}, {"current_trial": 228, "trialdata": {"rt": -1000, "trial_type": "single-audio", "word": "lover", "stimulus": "/static/audio/wordpool/LOVER.wav", "conditions": [24, 1600, "a", 12000], "internal_node_id": "0.0-165.0", "trial": 6, "time_elapsed": 1194568, "serialpos": 15, "key_press": -1, "wordID": 845, "type": "PRES_AUD", "trial_index": 228}, "uniqueid": "MTK2774:38JBBYETQPHK6II706LLTNCMK1K4E1", "dateTime": 1519331627260}, {"current_trial": 229, "trialdata": {"rt": -1000, "trial_type": "single-audio", "word": "beast", "stimulus": "/static/audio/wordpool/BEAST.wav", "conditions": [24, 1600, "a", 12000], "internal_node_id": "0.0-166.0", "trial": 6, "time_elapsed": 1197150, "serialpos": 16, "key_press": -1, "wordID": 107, "type": "PRES_AUD", "trial_index": 229}, "uniqueid": "MTK2774:38JBBYETQPHK6II706LLTNCMK1K4E1", "dateTime": 1519331629841}, {"current_trial": 230, "trialdata": {"rt": -1000, "trial_type": "single-audio", "word": "belly", "stimulus": "/static/audio/wordpool/BELLY.wav", "conditions": [24, 1600, "a", 12000], "internal_node_id": "0.0-167.0", "trial": 6, "time_elapsed": 1199888, "serialpos": 17, "key_press": -1, "wordID": 118, "type": "PRES_AUD", "trial_index": 230}, "uniqueid": "MTK2774:38JBBYETQPHK6II706LLTNCMK1K4E1", "dateTime": 1519331632579}, {"current_trial": 231, "trialdata": {"rt": -1000, "trial_type": "single-audio", "word": "student", "stimulus": "/static/audio/wordpool/STUDENT.wav", "conditions": [24, 1600, "a", 12000], "internal_node_id": "0.0-168.0", "trial": 6, "time_elapsed": 1202401, "serialpos": 18, "key_press": -1, "wordID": 1394, "type": "PRES_AUD", "trial_index": 231}, "uniqueid": "MTK2774:38JBBYETQPHK6II706LLTNCMK1K4E1", "dateTime": 1519331635092}, {"current_trial": 232, "trialdata": {"rt": -1000, "trial_type": "single-audio", "word": "teacher", "stimulus": "/static/audio/wordpool/TEACHER.wav", "conditions": [24, 1600, "a", 12000], "internal_node_id": "0.0-169.0", "trial": 6, "time_elapsed": 1204975, "serialpos": 19, "key_press": -1, "wordID": 1439, "type": "PRES_AUD", "trial_index": 232}, "uniqueid": "MTK2774:38JBBYETQPHK6II706LLTNCMK1K4E1", "dateTime": 1519331637666}, {"current_trial": 233, "trialdata": {"rt": -1000, "trial_type": "single-audio", "word": "picture", "stimulus": "/static/audio/wordpool/PICTURE.wav", "conditions": [24, 1600, "a", 12000], "internal_node_id": "0.0-170.0", "trial": 6, "time_elapsed": 1207758, "serialpos": 20, "key_press": -1, "wordID": 1060, "type": "PRES_AUD", "trial_index": 233}, "uniqueid": "MTK2774:38JBBYETQPHK6II706LLTNCMK1K4E1", "dateTime": 1519331640449}, {"current_trial": 234, "trialdata": {"rt": -1000, "trial_type": "single-audio", "word": "fleet", "stimulus": "/static/audio/wordpool/FLEET.wav", "conditions": [24, 1600, "a", 12000], "internal_node_id": "0.0-171.0", "trial": 6, "time_elapsed": 1210442, "serialpos": 21, "key_press": -1, "wordID": 577, "type": "PRES_AUD", "trial_index": 234}, "uniqueid": "MTK2774:38JBBYETQPHK6II706LLTNCMK1K4E1", "dateTime": 1519331643133}, {"current_trial": 235, "trialdata": {"rt": -1000, "trial_type": "single-audio", "word": "radish", "stimulus": "/static/audio/wordpool/RADISH.wav", "conditions": [24, 1600, "a", 12000], "internal_node_id": "0.0-172.0", "trial": 6, "time_elapsed": 1213024, "serialpos": 22, "key_press": -1, "wordID": 1157, "type": "PRES_AUD", "trial_index": 235}, "uniqueid": "MTK2774:38JBBYETQPHK6II706LLTNCMK1K4E1", "dateTime": 1519331645715}, {"current_trial": 236, "trialdata": {"rt": -1000, "trial_type": "single-audio", "word": "blockade", "stimulus": "/static/audio/wordpool/BLOCKADE.wav", "conditions": [24, 1600, "a", 12000], "internal_node_id": "0.0-173.0", "trial": 6, "time_elapsed": 1215429, "serialpos": 23, "key_press": -1, "wordID": 136, "type": "PRES_AUD", "trial_index": 236}, "uniqueid": "MTK2774:38JBBYETQPHK6II706LLTNCMK1K4E1", "dateTime": 1519331648120}, {"current_trial": 237, "trialdata": {"rt": -1, "trial_type": "single-stim", "stimulus": "", "internal_node_id": "0.0-174.0-0.0", "time_elapsed": 1216671, "key_press": -1, "type": "PRE_RECALL_DELAY", "trial_index": 237}, "uniqueid": "MTK2774:38JBBYETQPHK6II706LLTNCMK1K4E1", "dateTime": 1519331649362}, {"current_trial": 238, "trialdata": {"rt": -1000, "trial_type": "single-audio", "stimulus": "/static/audio/400Hz.wav", "internal_node_id": "0.0-175.0", "time_elapsed": 1217180, "key_press": -1, "type": "PRE_RECALL_ALERT", "trial_index": 238}, "uniqueid": "MTK2774:38JBBYETQPHK6II706LLTNCMK1K4E1", "dateTime": 1519331649871}, {"current_trial": 239, "trialdata": {"rt": [3054, 5502, 8570, 12757, 16439], "recwords": ["wife", "belly", "beast", "monster", "radish"], "key_times": [1645, 1932, 2200, 2588, 3054, 4043, 4266, 4419, 4579, 4962, 5502, 6818, 7091, 7429, 8015, 8238, 8570, 9867, 10040, 10196, 10775, 11063, 11236, 11340, 12757, 14688, 14930, 15234, 15546, 15646, 15829, 16439], "trial_type": "free-recall", "conditions": [24, 1600, "a", 12000], "internal_node_id": "0.0-176.0-0.0", "key_presses": [87, 73, 70, 69, 13, 66, 69, 76, 76, 89, 13, 66, 69, 65, 83, 84, 13, 77, 79, 78, 83, 84, 69, 82, 13, 82, 65, 68, 73, 83, 72, 13], "trial": 6, "time_elapsed": 1277182, "type": "FREE_RECALL", "trial_index": 239}, "uniqueid": "MTK2774:38JBBYETQPHK6II706LLTNCMK1K4E1", "dateTime": 1519331709877}, {"current_trial": 240, "trialdata": {"rt": 2531, "trial_type": "text", "internal_node_id": "0.0-177.0", "time_elapsed": 1281717, "key_press": 39, "type": "INSTRUCTIONS", "trial_index": 240}, "uniqueid": "MTK2774:38JBBYETQPHK6II706LLTNCMK1K4E1", "dateTime": 1519331714408}, {"current_trial": 241, "trialdata": {"rt": [1724, 3927, 5705, 7790, 9891, 13664, 16694, 19593, 21361, 23998], "trial_type": "math-distractor", "key_times": [1430, 1724, 3006, 3724, 3927, 5179, 5483, 5705, 7284, 7606, 7790, 9107, 9673, 9891, 12999, 13470, 13664, 15775, 16430, 16694, 18788, 19394, 19593, 20690, 21183, 21361, 23823, 23998], "responses": ["3", "19", "11", "13", "15", "15", "18", "14", "16", "8"], "num2": [1, 9, 6, 4, 6, 4, 4, 7, 5, 3, 4], "num3": [1, 1, 4, 8, 6, 8, 7, 5, 6, 4, 7], "conditions": [12, 800, "a", 24000], "internal_node_id": "0.0-178.0", "key_presses": [51, 13, 49, 57, 13, 49, 49, 13, 49, 51, 13, 49, 53, 13, 49, 53, 13, 49, 56, 13, 49, 52, 13, 49, 54, 13, 56, 13], "trial": 7, "time_elapsed": 1307721, "type": "DISTRACTOR", "trial_index": 241, "num1": [1, 6, 1, 1, 3, 3, 7, 2, 5, 2, 3]}, "uniqueid": "MTK2774:38JBBYETQPHK6II706LLTNCMK1K4E1", "dateTime": 1519331740412}, {"current_trial": 242, "trialdata": {"rt": -1, "trial_type": "single-stim", "stimulus": "<p id=\"stim\">10</p>", "internal_node_id": "0.0-179.0-0.0", "time_elapsed": 1310723, "key_press": -1, "trial_index": 242}, "uniqueid": "MTK2774:38JBBYETQPHK6II706LLTNCMK1K4E1", "dateTime": 1519331743414}, {"current_trial": 243, "trialdata": {"rt": -1, "trial_type": "single-stim", "stimulus": "<p id=\"stim\">9</p>", "internal_node_id": "0.0-179.0-1.0", "time_elapsed": 1311724, "key_press": -1, "trial_index": 243}, "uniqueid": "MTK2774:38JBBYETQPHK6II706LLTNCMK1K4E1", "dateTime": 1519331744416}, {"current_trial": 244, "trialdata": {"rt": -1, "trial_type": "single-stim", "stimulus": "<p id=\"stim\">8</p>", "internal_node_id": "0.0-179.0-2.0", "time_elapsed": 1312725, "key_press": -1, "trial_index": 244}, "uniqueid": "MTK2774:38JBBYETQPHK6II706LLTNCMK1K4E1", "dateTime": 1519331745416}, {"current_trial": 245, "trialdata": {"rt": -1, "trial_type": "single-stim", "stimulus": "<p id=\"stim\">7</p>", "internal_node_id": "0.0-179.0-3.0", "time_elapsed": 1313727, "key_press": -1, "trial_index": 245}, "uniqueid": "MTK2774:38JBBYETQPHK6II706LLTNCMK1K4E1", "dateTime": 1519331746418}, {"current_trial": 246, "trialdata": {"rt": -1, "trial_type": "single-stim", "stimulus": "<p id=\"stim\">6</p>", "internal_node_id": "0.0-179.0-4.0", "time_elapsed": 1314728, "key_press": -1, "trial_index": 246}, "uniqueid": "MTK2774:38JBBYETQPHK6II706LLTNCMK1K4E1", "dateTime": 1519331747419}, {"current_trial": 247, "trialdata": {"rt": -1, "trial_type": "single-stim", "stimulus": "<p id=\"stim\">5</p>", "internal_node_id": "0.0-179.0-5.0", "time_elapsed": 1315731, "key_press": -1, "trial_index": 247}, "uniqueid": "MTK2774:38JBBYETQPHK6II706LLTNCMK1K4E1", "dateTime": 1519331748422}, {"current_trial": 248, "trialdata": {"rt": -1, "trial_type": "single-stim", "stimulus": "<p id=\"stim\">4</p>", "internal_node_id": "0.0-179.0-6.0", "time_elapsed": 1316732, "key_press": -1, "trial_index": 248}, "uniqueid": "MTK2774:38JBBYETQPHK6II706LLTNCMK1K4E1", "dateTime": 1519331749423}, {"current_trial": 249, "trialdata": {"rt": -1, "trial_type": "single-stim", "stimulus": "<p id=\"stim\">3</p>", "internal_node_id": "0.0-179.0-7.0", "time_elapsed": 1317735, "key_press": -1, "trial_index": 249}, "uniqueid": "MTK2774:38JBBYETQPHK6II706LLTNCMK1K4E1", "dateTime": 1519331750426}, {"current_trial": 250, "trialdata": {"rt": -1, "trial_type": "single-stim", "stimulus": "<p id=\"stim\">2</p>", "internal_node_id": "0.0-179.0-8.0", "time_elapsed": 1318736, "key_press": -1, "trial_index": 250}, "uniqueid": "MTK2774:38JBBYETQPHK6II706LLTNCMK1K4E1", "dateTime": 1519331751427}, {"current_trial": 251, "trialdata": {"rt": -1, "trial_type": "single-stim", "stimulus": "<p id=\"stim\">1</p>", "internal_node_id": "0.0-179.0-9.0", "time_elapsed": 1319739, "key_press": -1, "trial_index": 251}, "uniqueid": "MTK2774:38JBBYETQPHK6II706LLTNCMK1K4E1", "dateTime": 1519331752430}, {"current_trial": 252, "trialdata": {"rt": -1, "trial_type": "single-stim", "stimulus": "<p id=\"stim\">+</p>", "internal_node_id": "0.0-180.0-0.0", "time_elapsed": 1321239, "key_press": -1, "type": "FIXATION", "trial_index": 252}, "uniqueid": "MTK2774:38JBBYETQPHK6II706LLTNCMK1K4E1", "dateTime": 151933