{"assignmentId": "33TIN5LC05HJ9T5AH2T6HYFILUBY9P", "workerId": "MTK2163", "questiondata": {"origin": "United States", "strat-rehearsal": "85", "marital": "Single", "education": "Bachelor's degree", "ethnicity": "Not Hispanic", "color_depth": 24, "distracted": "No", "wrote-notes": "No", "strat-other": "", "screen_width": 1920, "avail_screen_width": 1920, "avail_screen_height": 1050, "strat-image": "95", "language": "English", "gender": "Male", "age": "31", "gender_other": "", "race": ["Asian"], "strat-categorize": "95", "pixel_depth": 24, "strat-spatial": "0", "strat-story": "60", "race_other": "", "screen_height": 1080}, "bonus": 0, "hitId": "3KI0JD2ZU1PBP69H6KVSVR8Z98L76C", "counterbalance": 2189, "useragent": "Mozilla/5.0 (Windows NT 10.0; Win64; x64) AppleWebKit/537.36 (KHTML, like Gecko) Chrome/63.0.3239.132 Safari/537.36", "eventdata": [{"eventtype": "initialized", "interval": 0, "value": null, "timestamp": 1516760470801}, {"eventtype": "window_resize", "interval": 0, "value": [1920, 999], "timestamp": 1516760470801}, {"eventtype": "focus", "interval": 1365577, "value": "off", "timestamp": 1516761836378}, {"eventtype": "focus", "interval": 731320, "value": "on", "timestamp": 1516762567698}, {"eventtype": "focus", "interval": 7396, "value": "off", "timestamp": 1516762575094}, {"eventtype": "focus", "interval": 96504, "value": "on", "timestamp": 1516762671598}, {"eventtype": "focus", "interval": 1294122, "value": "off", "timestamp": 1516763965720}, {"eventtype": "focus", "interval": 66532, "value": "on", "timestamp": 1516764032252}, {"eventtype": "focus", "interval": 36681, "value": "off", "timestamp": 1516764068933}, {"eventtype": "focus", "interval": 23887, "value": "on", "timestamp": 1516764092820}, {"eventtype": "focus", "interval": 19342, "value": "off", "timestamp": 1516764112162}, {"eventtype": "focus", "interval": 33770, "value": "on", "timestamp": 1516764145932}, {"eventtype": "focus", "interval": 83751, "value": "off", "timestamp": 1516764229683}, {"eventtype": "focus", "interval": 74292, "value": "on", "timestamp": 1516764303975}, {"eventtype": "focus", "interval": 49006, "value": "off", "timestamp": 1516764352981}, {"eventtype": "focus", "interval": 1893, "value": "on", "timestamp": 1516764354874}, {"eventtype": "focus", "interval": 164708, "value": "off", "timestamp": 1516764519582}, {"eventtype": "focus", "interval": 5908, "value": "on", "timestamp": 1516764525490}], "data": [{"current_trial": 0, "trialdata": {"rt": 4091, "trial_type": "text", "internal_node_id": "0.0-0.0", "time_elapsed": 4093, "key_press": 37, "type": "INSTRUCTIONS", "trial_index": 0}, "uniqueid": "MTK2163:33TIN5LC05HJ9T5AH2T6HYFILUBY9P", "dateTime": 1516760475747}, {"current_trial": 1, "trialdata": {"rt": 37759, "trial_type": "text", "internal_node_id": "0.0-1.0", "time_elapsed": 41854, "key_press": 74, "type": "INSTRUCTIONS", "trial_index": 1}, "uniqueid": "MTK2163:33TIN5LC05HJ9T5AH2T6HYFILUBY9P", "dateTime": 1516760513507}, {"current_trial": 2, "trialdata": {"rt": [12213], "trial_type": "audio-test", "responses": ["ocean"], "internal_node_id": "0.0-2.0", "time_elapsed": 54079, "type": "AUDIO_TEST", "trial_index": 2}, "uniqueid": "MTK2163:33TIN5LC05HJ9T5AH2T6HYFILUBY9P", "dateTime": 1516760525732}, {"current_trial": 3, "trialdata": {"rt": [3758], "trial_type": "audio-test", "responses": ["crystal"], "internal_node_id": "0.0-3.0", "time_elapsed": 57840, "type": "AUDIO_TEST", "trial_index": 3}, "uniqueid": "MTK2163:33TIN5LC05HJ9T5AH2T6HYFILUBY9P", "dateTime": 1516760529493}, {"current_trial": 4, "trialdata": {"rt": [3519], "trial_type": "audio-test", "responses": ["spice"], "internal_node_id": "0.0-4.0", "time_elapsed": 61362, "type": "AUDIO_TEST", "trial_index": 4}, "uniqueid": "MTK2163:33TIN5LC05HJ9T5AH2T6HYFILUBY9P", "dateTime": 1516760533015}, {"current_trial": 5, "trialdata": {"rt": 22751, "trial_type": "survey-text", "responses": "{\"Q0\":\"3AM\",\"Q1\":\"10AM\",\"Q2\":\"4\"}", "internal_node_id": "0.0-5.0", "time_elapsed": 84864, "type": "SLEEP_SURVEY", "trial_index": 5}, "uniqueid": "MTK2163:33TIN5LC05HJ9T5AH2T6HYFILUBY9P", "dateTime": 1516760556517}, {"current_trial": 6, "trialdata": {"rt": 119694, "trial_type": "text", "internal_node_id": "0.0-6.0", "time_elapsed": 205558, "key_press": 13, "type": "INSTRUCTIONS", "trial_index": 6}, "uniqueid": "MTK2163:33TIN5LC05HJ9T5AH2T6HYFILUBY9P", "dateTime": 1516760677211}, {"current_trial": 7, "trialdata": {"rt": 940, "trial_type": "text", "internal_node_id": "0.0-7.0", "time_elapsed": 206998, "key_press": 144, "type": "INSTRUCTIONS", "trial_index": 7}, "uniqueid": "MTK2163:33TIN5LC05HJ9T5AH2T6HYFILUBY9P", "dateTime": 1516760678651}, {"current_trial": 8, "trialdata": {"rt": 6804, "trial_type": "text", "internal_node_id": "0.0-8.0", "time_elapsed": 214303, "key_press": 74, "type": "INSTRUCTIONS", "trial_index": 8}, "uniqueid": "MTK2163:33TIN5LC05HJ9T5AH2T6HYFILUBY9P", "dateTime": 1516760685956}, {"current_trial": 9, "trialdata": {"rt": [5195, 7338, 8717, 11636, 13016, 14541, 16690], "trial_type": "math-distractor", "key_times": [3678, 3851, 5195, 6819, 7159, 7338, 8489, 8588, 8717, 11436, 11530, 11636, 12729, 12862, 13016, 14274, 14445, 14541, 16120, 16465, 16690], "responses": ["11", "13", "21", "12", "14", "11", "16"], "num2": [9, 9, 7, 1, 3, 3, 2, 6], "num3": [1, 2, 7, 6, 4, 5, 8, 4], "conditions": [18, 1200, "v", 18000], "internal_node_id": "0.0-9.0", "key_presses": [49, 49, 13, 49, 51, 13, 50, 49, 13, 49, 50, 13, 49, 52, 13, 49, 49, 13, 49, 54, 13], "trial": 0, "time_elapsed": 233305, "type": "DISTRACTOR", "trial_index": 9, "num1": [1, 2, 7, 5, 7, 3, 6, 1]}, "uniqueid": "MTK2163:33TIN5LC05HJ9T5AH2T6HYFILUBY9P", "dateTime": 1516760704958}, {"current_trial": 10, "trialdata": {"rt": -1, "trial_type": "single-stim", "stimulus": "<p id=\"stim\">10</p>", "internal_node_id": "0.0-10.0-0.0", "time_elapsed": 236306, "key_press": -1, "trial_index": 10}, "uniqueid": "MTK2163:33TIN5LC05HJ9T5AH2T6HYFILUBY9P", "dateTime": 1516760707959}, {"current_trial": 11, "trialdata": {"rt": -1, "trial_type": "single-stim", "stimulus": "<p id=\"stim\">9</p>", "internal_node_id": "0.0-10.0-1.0", "time_elapsed": 237306, "key_press": -1, "trial_index": 11}, "uniqueid": "MTK2163:33TIN5LC05HJ9T5AH2T6HYFILUBY9P", "dateTime": 1516760708959}, {"current_trial": 12, "trialdata": {"rt": -1, "trial_type": "single-stim", "stimulus": "<p id=\"stim\">8</p>", "internal_node_id": "0.0-10.0-2.0", "time_elapsed": 238307, "key_press": -1, "trial_index": 12}, "uniqueid": "MTK2163:33TIN5LC05HJ9T5AH2T6HYFILUBY9P", "dateTime": 1516760709960}, {"current_trial": 13, "trialdata": {"rt": -1, "trial_type": "single-stim", "stimulus": "<p id=\"stim\">7</p>", "internal_node_id": "0.0-10.0-3.0", "time_elapsed": 239307, "key_press": -1, "trial_index": 13}, "uniqueid": "MTK2163:33TIN5LC05HJ9T5AH2T6HYFILUBY9P", "dateTime": 1516760710960}, {"current_trial": 14, "trialdata": {"rt": -1, "trial_type": "single-stim", "stimulus": "<p id=\"stim\">6</p>", "internal_node_id": "0.0-10.0-4.0", "time_elapsed": 240307, "key_press": -1, "trial_index": 14}, "uniqueid": "MTK2163:33TIN5LC05HJ9T5AH2T6HYFILUBY9P", "dateTime": 1516760711960}, {"current_trial": 15, "trialdata": {"rt": -1, "trial_type": "single-stim", "stimulus": "<p id=\"stim\">5</p>", "internal_node_id": "0.0-10.0-5.0", "time_elapsed": 241308, "key_press": -1, "trial_index": 15}, "uniqueid": "MTK2163:33TIN5LC05HJ9T5AH2T6HYFILUBY9P", "dateTime": 1516760712961}, {"current_trial": 16, "trialdata": {"rt": -1, "trial_type": "single-stim", "stimulus": "<p id=\"stim\">4</p>", "internal_node_id": "0.0-10.0-6.0", "time_elapsed": 242308, "key_press": -1, "trial_index": 16}, "uniqueid": "MTK2163:33TIN5LC05HJ9T5AH2T6HYFILUBY9P", "dateTime": 1516760713961}, {"current_trial": 17, "trialdata": {"rt": -1, "trial_type": "single-stim", "stimulus": "<p id=\"stim\">3</p>", "internal_node_id": "0.0-10.0-7.0", "time_elapsed": 243309, "key_press": -1, "trial_index": 17}, "uniqueid": "MTK2163:33TIN5LC05HJ9T5AH2T6HYFILUBY9P", "dateTime": 1516760714962}, {"current_trial": 18, "trialdata": {"rt": -1, "trial_type": "single-stim", "stimulus": "<p id=\"stim\">2</p>", "internal_node_id": "0.0-10.0-8.0", "time_elapsed": 244310, "key_press": -1, "trial_index": 18}, "uniqueid": "MTK2163:33TIN5LC05HJ9T5AH2T6HYFILUBY9P", "dateTime": 1516760715963}, {"current_trial": 19, "trialdata": {"rt": -1, "trial_type": "single-stim", "stimulus": "<p id=\"stim\">1</p>", "internal_node_id": "0.0-10.0-9.0", "time_elapsed": 245310, "key_press": -1, "trial_index": 19}, "uniqueid": "MTK2163:33TIN5LC05HJ9T5AH2T6HYFILUBY9P", "dateTime": 1516760716963}, {"current_trial": 20, "trialdata": {"rt": -1, "trial_type": "single-stim", "stimulus": "<p id=\"stim\">+</p>", "internal_node_id": "0.0-11.0-0.0", "time_elapsed": 246810, "key_press": -1, "type": "FIXATION", "trial_index": 20}, "uniqueid": "MTK2163:33TIN5LC05HJ9T5AH2T6HYFILUBY9P", "dateTime": 1516760718463}, {"current_trial": 21, "trialdata": {"rt": -1, "trial_type": "single-stim", "word": "notebook", "stimulus": "<p id=\"stim\">NOTEBOOK</p>", "conditions": [18, 1200, "v", 18000], "internal_node_id": "0.0-12.0", "trial": 0, "time_elapsed": 248010, "serialpos": 0, "key_press": -1, "wordID": 958, "type": "PRES_VIS", "trial_index": 21}, "uniqueid": "MTK2163:33TIN5LC05HJ9T5AH2T6HYFILUBY9P", "dateTime": 1516760719663}, {"current_trial": 22, "trialdata": {"rt": -1, "trial_type": "single-stim", "word": "perch", "stimulus": "<p id=\"stim\">PERCH</p>", "conditions": [18, 1200, "v", 18000], "internal_node_id": "0.0-13.0", "trial": 0, "time_elapsed": 250026, "serialpos": 1, "key_press": -1, "wordID": 1047, "type": "PRES_VIS", "trial_index": 22}, "uniqueid": "MTK2163:33TIN5LC05HJ9T5AH2T6HYFILUBY9P", "dateTime": 1516760721679}, {"current_trial": 23, "trialdata": {"rt": -1, "trial_type": "single-stim", "word": "razor", "stimulus": "<p id=\"stim\">RAZOR</p>", "conditions": [18, 1200, "v", 18000], "internal_node_id": "0.0-14.0", "trial": 0, "time_elapsed": 252372, "serialpos": 2, "key_press": -1, "wordID": 1170, "type": "PRES_VIS", "trial_index": 23}, "uniqueid": "MTK2163:33TIN5LC05HJ9T5AH2T6HYFILUBY9P", "dateTime": 1516760724025}, {"current_trial": 24, "trialdata": {"rt": -1, "trial_type": "single-stim", "word": "crutch", "stimulus": "<p id=\"stim\">CRUTCH</p>", "conditions": [18, 1200, "v", 18000], "internal_node_id": "0.0-15.0", "trial": 0, "time_elapsed": 254633, "serialpos": 3, "key_press": -1, "wordID": 416, "type": "PRES_VIS", "trial_index": 24}, "uniqueid": "MTK2163:33TIN5LC05HJ9T5AH2T6HYFILUBY9P", "dateTime": 1516760726286}, {"current_trial": 25, "trialdata": {"rt": -1, "trial_type": "single-stim", "word": "cigar", "stimulus": "<p id=\"stim\">CIGAR</p>", "conditions": [18, 1200, "v", 18000], "internal_node_id": "0.0-16.0", "trial": 0, "time_elapsed": 256702, "serialpos": 4, "key_press": -1, "wordID": 307, "type": "PRES_VIS", "trial_index": 25}, "uniqueid": "MTK2163:33TIN5LC05HJ9T5AH2T6HYFILUBY9P", "dateTime": 1516760728355}, {"current_trial": 26, "trialdata": {"rt": -1, "trial_type": "single-stim", "word": "mattress", "stimulus": "<p id=\"stim\">MATTRESS</p>", "conditions": [18, 1200, "v", 18000], "internal_node_id": "0.0-17.0", "trial": 0, "time_elapsed": 258927, "serialpos": 5, "key_press": -1, "wordID": 878, "type": "PRES_VIS", "trial_index": 26}, "uniqueid": "MTK2163:33TIN5LC05HJ9T5AH2T6HYFILUBY9P", "dateTime": 1516760730580}, {"current_trial": 27, "trialdata": {"rt": -1, "trial_type": "single-stim", "word": "beaker", "stimulus": "<p id=\"stim\">BEAKER</p>", "conditions": [18, 1200, "v", 18000], "internal_node_id": "0.0-18.0", "trial": 0, "time_elapsed": 261252, "serialpos": 6, "key_press": -1, "wordID": 103, "type": "PRES_VIS", "trial_index": 27}, "uniqueid": "MTK2163:33TIN5LC05HJ9T5AH2T6HYFILUBY9P", "dateTime": 1516760732905}, {"current_trial": 28, "trialdata": {"rt": -1, "trial_type": "single-stim", "word": "receipt", "stimulus": "<p id=\"stim\">RECEIPT</p>", "conditions": [18, 1200, "v", 18000], "internal_node_id": "0.0-19.0", "trial": 0, "time_elapsed": 263561, "serialpos": 7, "key_press": -1, "wordID": 1172, "type": "PRES_VIS", "trial_index": 28}, "uniqueid": "MTK2163:33TIN5LC05HJ9T5AH2T6HYFILUBY9P", "dateTime": 1516760735214}, {"current_trial": 29, "trialdata": {"rt": -1, "trial_type": "single-stim", "word": "picture", "stimulus": "<p id=\"stim\">PICTURE</p>", "conditions": [18, 1200, "v", 18000], "internal_node_id": "0.0-20.0", "trial": 0, "time_elapsed": 265739, "serialpos": 8, "key_press": -1, "wordID": 1060, "type": "PRES_VIS", "trial_index": 29}, "uniqueid": "MTK2163:33TIN5LC05HJ9T5AH2T6HYFILUBY9P", "dateTime": 1516760737392}, {"current_trial": 30, "trialdata": {"rt": -1, "trial_type": "single-stim", "word": "bison", "stimulus": "<p id=\"stim\">BISON</p>", "conditions": [18, 1200, "v", 18000], "internal_node_id": "0.0-21.0", "trial": 0, "time_elapsed": 268043, "serialpos": 9, "key_press": -1, "wordID": 130, "type": "PRES_VIS", "trial_index": 30}, "uniqueid": "MTK2163:33TIN5LC05HJ9T5AH2T6HYFILUBY9P", "dateTime": 1516760739696}, {"current_trial": 31, "trialdata": {"rt": -1, "trial_type": "single-stim", "word": "chauffeur", "stimulus": "<p id=\"stim\">CHAUFFEUR</p>", "conditions": [18, 1200, "v", 18000], "internal_node_id": "0.0-22.0", "trial": 0, "time_elapsed": 270197, "serialpos": 10, "key_press": -1, "wordID": 282, "type": "PRES_VIS", "trial_index": 31}, "uniqueid": "MTK2163:33TIN5LC05HJ9T5AH2T6HYFILUBY9P", "dateTime": 1516760741850}, {"current_trial": 32, "trialdata": {"rt": -1, "trial_type": "single-stim", "word": "parent", "stimulus": "<p id=\"stim\">PARENT</p>", "conditions": [18, 1200, "v", 18000], "internal_node_id": "0.0-23.0", "trial": 0, "time_elapsed": 272277, "serialpos": 11, "key_press": -1, "wordID": 1012, "type": "PRES_VIS", "trial_index": 32}, "uniqueid": "MTK2163:33TIN5LC05HJ9T5AH2T6HYFILUBY9P", "dateTime": 1516760743930}, {"current_trial": 33, "trialdata": {"rt": -1, "trial_type": "single-stim", "word": "knapsack", "stimulus": "<p id=\"stim\">KNAPSACK</p>", "conditions": [18, 1200, "v", 18000], "internal_node_id": "0.0-24.0", "trial": 0, "time_elapsed": 274532, "serialpos": 12, "key_press": -1, "wordID": 782, "type": "PRES_VIS", "trial_index": 33}, "uniqueid": "MTK2163:33TIN5LC05HJ9T5AH2T6HYFILUBY9P", "dateTime": 1516760746185}, {"current_trial": 34, "trialdata": {"rt": -1, "trial_type": "single-stim", "word": "tombstone", "stimulus": "<p id=\"stim\">TOMBSTONE</p>", "conditions": [18, 1200, "v", 18000], "internal_node_id": "0.0-25.0", "trial": 0, "time_elapsed": 276794, "serialpos": 13, "key_press": -1, "wordID": 1477, "type": "PRES_VIS", "trial_index": 34}, "uniqueid": "MTK2163:33TIN5LC05HJ9T5AH2T6HYFILUBY9P", "dateTime": 1516760748447}, {"current_trial": 35, "trialdata": {"rt": -1, "trial_type": "single-stim", "word": "plaid", "stimulus": "<p id=\"stim\">PLAID</p>", "conditions": [18, 1200, "v", 18000], "internal_node_id": "0.0-26.0", "trial": 0, "time_elapsed": 279129, "serialpos": 14, "key_press": -1, "wordID": 1079, "type": "PRES_VIS", "trial_index": 35}, "uniqueid": "MTK2163:33TIN5LC05HJ9T5AH2T6HYFILUBY9P", "dateTime": 1516760750782}, {"current_trial": 36, "trialdata": {"rt": -1, "trial_type": "single-stim", "word": "church", "stimulus": "<p id=\"stim\">CHURCH</p>", "conditions": [18, 1200, "v", 18000], "internal_node_id": "0.0-27.0", "trial": 0, "time_elapsed": 281419, "serialpos": 15, "key_press": -1, "wordID": 306, "type": "PRES_VIS", "trial_index": 36}, "uniqueid": "MTK2163:33TIN5LC05HJ9T5AH2T6HYFILUBY9P", "dateTime": 1516760753072}, {"current_trial": 37, "trialdata": {"rt": -1, "trial_type": "single-stim", "word": "report", "stimulus": "<p id=\"stim\">REPORT</p>", "conditions": [18, 1200, "v", 18000], "internal_node_id": "0.0-28.0", "trial": 0, "time_elapsed": 283551, "serialpos": 16, "key_press": -1, "wordID": 1183, "type": "PRES_VIS", "trial_index": 37}, "uniqueid": "MTK2163:33TIN5LC05HJ9T5AH2T6HYFILUBY9P", "dateTime": 1516760755204}, {"current_trial": 38, "trialdata": {"rt": -1, "trial_type": "single-stim", "word": "staple", "stimulus": "<p id=\"stim\">STAPLE</p>", "conditions": [18, 1200, "v", 18000], "internal_node_id": "0.0-29.0", "trial": 0, "time_elapsed": 285926, "serialpos": 17, "key_press": -1, "wordID": 1370, "type": "PRES_VIS", "trial_index": 38}, "uniqueid": "MTK2163:33TIN5LC05HJ9T5AH2T6HYFILUBY9P", "dateTime": 1516760757579}, {"current_trial": 39, "trialdata": {"rt": -1, "trial_type": "single-stim", "stimulus": "", "internal_node_id": "0.0-30.0-0.0", "time_elapsed": 288231, "key_press": -1, "type": "PRE_RECALL_DELAY", "trial_index": 39}, "uniqueid": "MTK2163:33TIN5LC05HJ9T5AH2T6HYFILUBY9P", "dateTime": 1516760759884}, {"current_trial": 40, "trialdata": {"rt": -1000, "trial_type": "single-audio", "stimulus": "/static/audio/400Hz.wav", "internal_node_id": "0.0-31.0", "time_elapsed": 288732, "key_press": -1, "type": "PRE_RECALL_ALERT", "trial_index": 40}, "uniqueid": "MTK2163:33TIN5LC05HJ9T5AH2T6HYFILUBY9P", "dateTime": 1516760760385}, {"current_trial": 41, "trialdata": {"rt": [2267, 4125, 5228, 8014, 9517, 14408, 35449, 45108, 56238], "recwords": ["notebook", "perch", "razor", "church", "plaid", "knapsack", "chauffer", "", "mattress"], "key_times": [707, 764, 846, 951, 1175, 1265, 1436, 1528, 2267, 2842, 3039, 3091, 3349, 3461, 4125, 4297, 4420, 4618, 4717, 4934, 5228, 5565, 5677, 5781, 5856, 6054, 6152, 8014, 8314, 8433, 8564, 8710, 8960, 9517, 11305, 11426, 11582, 11782, 12446, 12832, 12947, 13056, 14408, 32338, 32493, 32642, 32800, 32903, 33130, 33293, 33525, 33641, 34207, 34361, 34517, 34810, 34876, 35449, 45108, 55021, 55154, 55369, 55541, 55638, 55823, 55912, 56108, 56238], "trial_type": "free-recall", "conditions": [18, 1200, "v", 18000], "internal_node_id": "0.0-32.0-0.0", "key_presses": [78, 79, 84, 69, 66, 79, 79, 75, 32, 80, 69, 82, 67, 72, 13, 82, 65, 90, 79, 82, 13, 67, 72, 85, 82, 67, 72, 13, 80, 76, 65, 73, 68, 13, 75, 78, 65, 80, 83, 65, 67, 75, 13, 67, 72, 65, 85, 70, 70, 70, 69, 82, 8, 8, 8, 69, 82, 13, 13, 77, 65, 84, 84, 82, 69, 83, 83, 13], "trial": 0, "time_elapsed": 348733, "type": "FREE_RECALL", "trial_index": 41}, "uniqueid": "MTK2163:33TIN5LC05HJ9T5AH2T6HYFILUBY9P", "dateTime": 1516760820387}, {"current_trial": 42, "trialdata": {"rt": 991, "trial_type": "text", "internal_node_id": "0.0-33.0", "time_elapsed": 351725, "key_press": 74, "type": "INSTRUCTIONS", "trial_index": 42}, "uniqueid": "MTK2163:33TIN5LC05HJ9T5AH2T6HYFILUBY9P", "dateTime": 1516760823378}, {"current_trial": 43, "trialdata": {"rt": [2568, 4204, 5948, 8316, 10503, 12397, 14508, 16225], "trial_type": "math-distractor", "key_times": [2238, 2325, 2568, 3963, 4034, 4204, 5614, 5806, 5948, 7967, 8108, 8316, 10330, 10398, 10503, 11992, 12076, 12397, 14185, 14366, 14508, 16022, 16087, 16225, 17722, 17923], "responses": ["20", "16", "17", "22", "15", "15", "14", "10"], "num2": [2, 1, 8, 7, 4, 4, 5, 3, 9], "num3": [9, 8, 6, 6, 3, 3, 3, 6, 6], "conditions": [18, 1200, "v", 18000], "internal_node_id": "0.0-34.0", "key_presses": [98, 96, 13, 97, 102, 13, 97, 103, 13, 98, 98, 13, 97, 101, 13, 97, 101, 13, 97, 100, 13, 97, 96, 13, 97, 103], "trial": 1, "time_elapsed": 371725, "type": "DISTRACTOR", "trial_index": 43, "num1": [9, 7, 3, 9, 9, 9, 6, 1, 2]}, "uniqueid": "MTK2163:33TIN5LC05HJ9T5AH2T6HYFILUBY9P", "dateTime": 1516760843378}, {"current_trial": 44, "trialdata": {"rt": -1, "trial_type": "single-stim", "stimulus": "<p id=\"stim\">10</p>", "internal_node_id": "0.0-35.0-0.0", "time_elapsed": 374725, "key_press": -1, "trial_index": 44}, "uniqueid": "MTK2163:33TIN5LC05HJ9T5AH2T6HYFILUBY9P", "dateTime": 1516760846379}, {"current_trial": 45, "trialdata": {"rt": -1, "trial_type": "single-stim", "stimulus": "<p id=\"stim\">9</p>", "internal_node_id": "0.0-35.0-1.0", "time_elapsed": 375727, "key_press": -1, "trial_index": 45}, "uniqueid": "MTK2163:33TIN5LC05HJ9T5AH2T6HYFILUBY9P", "dateTime": 1516760847380}, {"current_trial": 46, "trialdata": {"rt": -1, "trial_type": "single-stim", "stimulus": "<p id=\"stim\">8</p>", "internal_node_id": "0.0-35.0-2.0", "time_elapsed": 376728, "key_press": -1, "trial_index": 46}, "uniqueid": "MTK2163:33TIN5LC05HJ9T5AH2T6HYFILUBY9P", "dateTime": 1516760848381}, {"current_trial": 47, "trialdata": {"rt": -1, "trial_type": "single-stim", "stimulus": "<p id=\"stim\">7</p>", "internal_node_id": "0.0-35.0-3.0", "time_elapsed": 377728, "key_press": -1, "trial_index": 47}, "uniqueid": "MTK2163:33TIN5LC05HJ9T5AH2T6HYFILUBY9P", "dateTime": 1516760849381}, {"current_trial": 48, "trialdata": {"rt": -1, "trial_type": "single-stim", "stimulus": "<p id=\"stim\">6</p>", "internal_node_id": "0.0-35.0-4.0", "time_elapsed": 378729, "key_press": -1, "trial_index": 48}, "uniqueid": "MTK2163:33TIN5LC05HJ9T5AH2T6HYFILUBY9P", "dateTime": 1516760850382}, {"current_trial": 49, "trialdata": {"rt": -1, "trial_type": "single-stim", "stimulus": "<p id=\"stim\">5</p>", "internal_node_id": "0.0-35.0-5.0", "time_elapsed": 379730, "key_press": -1, "trial_index": 49}, "uniqueid": "MTK2163:33TIN5LC05HJ9T5AH2T6HYFILUBY9P", "dateTime": 1516760851383}, {"current_trial": 50, "trialdata": {"rt": -1, "trial_type": "single-stim", "stimulus": "<p id=\"stim\">4</p>", "internal_node_id": "0.0-35.0-6.0", "time_elapsed": 380730, "key_press": -1, "trial_index": 50}, "uniqueid": "MTK2163:33TIN5LC05HJ9T5AH2T6HYFILUBY9P", "dateTime": 1516760852383}, {"current_trial": 51, "trialdata": {"rt": -1, "trial_type": "single-stim", "stimulus": "<p id=\"stim\">3</p>", "internal_node_id": "0.0-35.0-7.0", "time_elapsed": 381730, "key_press": -1, "trial_index": 51}, "uniqueid": "MTK2163:33TIN5LC05HJ9T5AH2T6HYFILUBY9P", "dateTime": 1516760853383}, {"current_trial": 52, "trialdata": {"rt": -1, "trial_type": "single-stim", "stimulus": "<p id=\"stim\">2</p>", "internal_node_id": "0.0-35.0-8.0", "time_elapsed": 382730, "key_press": -1, "trial_index": 52}, "uniqueid": "MTK2163:33TIN5LC05HJ9T5AH2T6HYFILUBY9P", "dateTime": 1516760854383}, {"current_trial": 53, "trialdata": {"rt": 883, "trial_type": "single-stim", "stimulus": "<p id=\"stim\">1</p>", "internal_node_id": "0.0-35.0-9.0", "time_elapsed": 383730, "key_press": 27, "trial_index": 53}, "uniqueid": "MTK2163:33TIN5LC05HJ9T5AH2T6HYFILUBY9P", "dateTime": 1516760855383}, {"current_trial": 54, "trialdata": {"rt": -1, "trial_type": "single-stim", "stimulus": "<p id=\"stim\">+</p>", "internal_node_id": "0.0-36.0-0.0", "time_elapsed": 385230, "key_press": -1, "type": "FIXATION", "trial_index": 54}, "uniqueid": "MTK2163:33TIN5LC05HJ9T5AH2T6HYFILUBY9P", "dateTime": 1516760856883}, {"current_trial": 55, "trialdata": {"rt": -1, "trial_type": "single-stim", "word": "agent", "stimulus": "<p id=\"stim\">AGENT</p>", "conditions": [18, 1200, "v", 18000], "internal_node_id": "0.0-37.0", "trial": 1, "time_elapsed": 386430, "serialpos": 0, "key_press": -1, "wordID": 9, "type": "PRES_VIS", "trial_index": 55}, "uniqueid": "MTK2163:33TIN5LC05HJ9T5AH2T6HYFILUBY9P", "dateTime": 1516760858083}, {"current_trial": 56, "trialdata": {"rt": -1, "trial_type": "single-stim", "word": "ghetto", "stimulus": "<p id=\"stim\">GHETTO</p>", "conditions": [18, 1200, "v", 18000], "internal_node_id": "0.0-38.0", "trial": 1, "time_elapsed": 388782, "serialpos": 1, "key_press": -1, "wordID": 632, "type": "PRES_VIS", "trial_index": 56}, "uniqueid": "MTK2163:33TIN5LC05HJ9T5AH2T6HYFILUBY9P", "dateTime": 1516760860435}, {"current_trial": 57, "trialdata": {"rt": -1, "trial_type": "single-stim", "word": "pigment", "stimulus": "<p id=\"stim\">PIGMENT</p>", "conditions": [18, 1200, "v", 18000], "internal_node_id": "0.0-39.0", "trial": 1, "time_elapsed": 391130, "serialpos": 2, "key_press": -1, "wordID": 1065, "type": "PRES_VIS", "trial_index": 57}, "uniqueid": "MTK2163:33TIN5LC05HJ9T5AH2T6HYFILUBY9P", "dateTime": 1516760862783}, {"current_trial": 58, "trialdata": {"rt": -1, "trial_type": "single-stim", "word": "flesh", "stimulus": "<p id=\"stim\">FLESH</p>", "conditions": [18, 1200, "v", 18000], "internal_node_id": "0.0-40.0", "trial": 1, "time_elapsed": 393336, "serialpos": 3, "key_press": -1, "wordID": 578, "type": "PRES_VIS", "trial_index": 58}, "uniqueid": "MTK2163:33TIN5LC05HJ9T5AH2T6HYFILUBY9P", "dateTime": 1516760864989}, {"current_trial": 59, "trialdata": {"rt": -1, "trial_type": "single-stim", "word": "dorm", "stimulus": "<p id=\"stim\">DORM</p>", "conditions": [18, 1200, "v", 18000], "internal_node_id": "0.0-41.0", "trial": 1, "time_elapsed": 395521, "serialpos": 4, "key_press": -1, "wordID": 487, "type": "PRES_VIS", "trial_index": 59}, "uniqueid": "MTK2163:33TIN5LC05HJ9T5AH2T6HYFILUBY9P", "dateTime": 1516760867174}, {"current_trial": 60, "trialdata": {"rt": -1, "trial_type": "single-stim", "word": "lily", "stimulus": "<p id=\"stim\">LILY</p>", "conditions": [18, 1200, "v", 18000], "internal_node_id": "0.0-42.0", "trial": 1, "time_elapsed": 397791, "serialpos": 5, "key_press": -1, "wordID": 820, "type": "PRES_VIS", "trial_index": 60}, "uniqueid": "MTK2163:33TIN5LC05HJ9T5AH2T6HYFILUBY9P", "dateTime": 1516760869444}, {"current_trial": 61, "trialdata": {"rt": -1, "trial_type": "single-stim", "word": "virus", "stimulus": "<p id=\"stim\">VIRUS</p>", "conditions": [18, 1200, "v", 18000], "internal_node_id": "0.0-43.0", "trial": 1, "time_elapsed": 400051, "serialpos": 6, "key_press": -1, "wordID": 1571, "type": "PRES_VIS", "trial_index": 61}, "uniqueid": "MTK2163:33TIN5LC05HJ9T5AH2T6HYFILUBY9P", "dateTime": 1516760871704}, {"current_trial": 62, "trialdata": {"rt": -1, "trial_type": "single-stim", "word": "shark", "stimulus": "<p id=\"stim\">SHARK</p>", "conditions": [18, 1200, "v", 18000], "internal_node_id": "0.0-44.0", "trial": 1, "time_elapsed": 402074, "serialpos": 7, "key_press": -1, "wordID": 1274, "type": "PRES_VIS", "trial_index": 62}, "uniqueid": "MTK2163:33TIN5LC05HJ9T5AH2T6HYFILUBY9P", "dateTime": 1516760873727}, {"current_trial": 63, "trialdata": {"rt": -1, "trial_type": "single-stim", "word": "gallon", "stimulus": "<p id=\"stim\">GALLON</p>", "conditions": [18, 1200, "v", 18000], "internal_node_id": "0.0-45.0", "trial": 1, "time_elapsed": 404093, "serialpos": 8, "key_press": -1, "wordID": 617, "type": "PRES_VIS", "trial_index": 63}, "uniqueid": "MTK2163:33TIN5LC05HJ9T5AH2T6HYFILUBY9P", "dateTime": 1516760875746}, {"current_trial": 64, "trialdata": {"rt": -1, "trial_type": "single-stim", "word": "concert", "stimulus": "<p id=\"stim\">CONCERT</p>", "conditions": [18, 1200, "v", 18000], "internal_node_id": "0.0-46.0", "trial": 1, "time_elapsed": 406442, "serialpos": 9, "key_press": -1, "wordID": 359, "type": "PRES_VIS", "trial_index": 64}, "uniqueid": "MTK2163:33TIN5LC05HJ9T5AH2T6HYFILUBY9P", "dateTime": 1516760878095}, {"current_trial": 65, "trialdata": {"rt": -1, "trial_type": "single-stim", "word": "chemist", "stimulus": "<p id=\"stim\">CHEMIST</p>", "conditions": [18, 1200, "v", 18000], "internal_node_id": "0.0-47.0", "trial": 1, "time_elapsed": 408506, "serialpos": 10, "key_press": -1, "wordID": 291, "type": "PRES_VIS", "trial_index": 65}, "uniqueid": "MTK2163:33TIN5LC05HJ9T5AH2T6HYFILUBY9P", "dateTime": 1516760880159}, {"current_trial": 66, "trialdata": {"rt": -1, "trial_type": "single-stim", "word": "pimple", "stimulus": "<p id=\"stim\">PIMPLE</p>", "conditions": [18, 1200, "v", 18000], "internal_node_id": "0.0-48.0", "trial": 1, "time_elapsed": 410883, "serialpos": 11, "key_press": -1, "wordID": 1070, "type": "PRES_VIS", "trial_index": 66}, "uniqueid": "MTK2163:33TIN5LC05HJ9T5AH2T6HYFILUBY9P", "dateTime": 1516760882536}, {"current_trial": 67, "trialdata": {"rt": -1, "trial_type": "single-stim", "word": "gavel", "stimulus": "<p id=\"stim\">GAVEL</p>", "conditions": [18, 1200, "v", 18000], "internal_node_id": "0.0-49.0", "trial": 1, "time_elapsed": 413217, "serialpos": 12, "key_press": -1, "wordID": 626, "type": "PRES_VIS", "trial_index": 67}, "uniqueid": "MTK2163:33TIN5LC05HJ9T5AH2T6HYFILUBY9P", "dateTime": 1516760884870}, {"current_trial": 68, "trialdata": {"rt": -1, "trial_type": "single-stim", "word": "actor", "stimulus": "<p id=\"stim\">ACTOR</p>", "conditions": [18, 1200, "v", 18000], "internal_node_id": "0.0-50.0", "trial": 1, "time_elapsed": 415266, "serialpos": 13, "key_press": -1, "wordID": 4, "type": "PRES_VIS", "trial_index": 68}, "uniqueid": "MTK2163:33TIN5LC05HJ9T5AH2T6HYFILUBY9P", "dateTime": 1516760886920}, {"current_trial": 69, "trialdata": {"rt": -1, "trial_type": "single-stim", "word": "cattle", "stimulus": "<p id=\"stim\">CATTLE</p>", "conditions": [18, 1200, "v", 18000], "internal_node_id": "0.0-51.0", "trial": 1, "time_elapsed": 417387, "serialpos": 14, "key_press": -1, "wordID": 260, "type": "PRES_VIS", "trial_index": 69}, "uniqueid": "MTK2163:33TIN5LC05HJ9T5AH2T6HYFILUBY9P", "dateTime": 1516760889040}, {"current_trial": 70, "trialdata": {"rt": -1, "trial_type": "single-stim", "word": "mister", "stimulus": "<p id=\"stim\">MISTER</p>", "conditions": [18, 1200, "v", 18000], "internal_node_id": "0.0-52.0", "trial": 1, "time_elapsed": 419421, "serialpos": 15, "key_press": -1, "wordID": 900, "type": "PRES_VIS", "trial_index": 70}, "uniqueid": "MTK2163:33TIN5LC05HJ9T5AH2T6HYFILUBY9P", "dateTime": 1516760891074}, {"current_trial": 71, "trialdata": {"rt": -1, "trial_type": "single-stim", "word": "slope", "stimulus": "<p id=\"stim\">SLOPE</p>", "conditions": [18, 1200, "v", 18000], "internal_node_id": "0.0-53.0", "trial": 1, "time_elapsed": 421510, "serialpos": 16, "key_press": -1, "wordID": 1327, "type": "PRES_VIS", "trial_index": 71}, "uniqueid": "MTK2163:33TIN5LC05HJ9T5AH2T6HYFILUBY9P", "dateTime": 1516760893163}, {"current_trial": 72, "trialdata": {"rt": -1, "trial_type": "single-stim", "word": "yacht", "stimulus": "<p id=\"stim\">YACHT</p>", "conditions": [18, 1200, "v", 18000], "internal_node_id": "0.0-54.0", "trial": 1, "time_elapsed": 423740, "serialpos": 17, "key_press": -1, "wordID": 1628, "type": "PRES_VIS", "trial_index": 72}, "uniqueid": "MTK2163:33TIN5LC05HJ9T5AH2T6HYFILUBY9P", "dateTime": 1516760895393}, {"current_trial": 73, "trialdata": {"rt": -1, "trial_type": "single-stim", "stimulus": "", "internal_node_id": "0.0-55.0-0.0", "time_elapsed": 425897, "key_press": -1, "type": "PRE_RECALL_DELAY", "trial_index": 73}, "uniqueid": "MTK2163:33TIN5LC05HJ9T5AH2T6HYFILUBY9P", "dateTime": 1516760897550}, {"current_trial": 74, "trialdata": {"rt": -1000, "trial_type": "single-audio", "stimulus": "/static/audio/400Hz.wav", "internal_node_id": "0.0-56.0", "time_elapsed": 426397, "key_press": -1, "type": "PRE_RECALL_ALERT", "trial_index": 74}, "uniqueid": "MTK2163:33TIN5LC05HJ9T5AH2T6HYFILUBY9P", "dateTime": 1516760898050}, {"current_trial": 75, "trialdata": {"rt": [1400, 2456, 6806, 9352, 12838, 19272, 26128, 35395, 38962], "recwords": ["yacht", "slope", "agent", "ghetto", "dorm", "lilly", "concert", "chemist", "pigment"], "key_times": [359, 477, 719, 852, 1048, 1400, 1579, 1692, 1890, 1971, 2234, 2456, 3283, 3393, 3538, 3657, 3817, 6806, 7072, 7180, 7307, 7369, 7614, 7741, 9352, 11411, 11516, 11677, 11786, 12838, 17473, 17557, 17728, 17947, 18359, 18566, 18720, 19272, 25257, 25379, 25441, 25521, 25642, 25756, 25988, 26128, 34281, 34372, 34448, 34594, 34694, 34768, 34862, 35395, 38118, 38295, 38416, 38540, 38649, 38722, 38846, 38962], "trial_type": "free-recall", "conditions": [18, 1200, "v", 18000], "internal_node_id": "0.0-57.0-0.0", "key_presses": [89, 65, 67, 72, 84, 13, 83, 76, 79, 80, 69, 13, 65, 71, 69, 78, 84, 13, 71, 72, 69, 84, 84, 79, 13, 68, 79, 82, 77, 13, 76, 73, 76, 89, 8, 76, 89, 13, 67, 79, 78, 67, 69, 82, 84, 13, 67, 72, 69, 77, 73, 83, 84, 13, 80, 73, 71, 77, 69, 78, 84, 13], "trial": 1, "time_elapsed": 486399, "type": "FREE_RECALL", "trial_index": 75}, "uniqueid": "MTK2163:33TIN5LC05HJ9T5AH2T6HYFILUBY9P", "dateTime": 1516760958053}, {"current_trial": 76, "trialdata": {"rt": 1587, "trial_type": "text", "internal_node_id": "0.0-58.0", "time_elapsed": 489988, "key_press": 74, "type": "INSTRUCTIONS", "trial_index": 76}, "uniqueid": "MTK2163:33TIN5LC05HJ9T5AH2T6HYFILUBY9P", "dateTime": 1516760961641}, {"current_trial": 77, "trialdata": {"rt": [3421, 5689, 7652, 8960, 10690, 12016, 14748, 16201, 17660, 19973, 21881], "trial_type": "math-distractor", "key_times": [3152, 3241, 3421, 5265, 5344, 5689, 7331, 7652, 8802, 8960, 10366, 10558, 10690, 11827, 11864, 12016, 14582, 14631, 14748, 15955, 16120, 16201, 17451, 17546, 17660, 19698, 19789, 19973, 21519, 21708, 21881, 23842], "responses": ["10", "16", "6", "6", "17", "20", "15", "14", "18", "23", "22"], "num2": [3, 3, 3, 3, 9, 5, 6, 5, 2, 8, 8, 9], "num3": [3, 7, 2, 1, 4, 8, 1, 3, 7, 9, 8, 6], "conditions": [12, 800, "v", 24000], "internal_node_id": "0.0-59.0", "key_presses": [97, 96, 13, 97, 102, 13, 102, 13, 102, 13, 97, 103, 13, 98, 96, 13, 97, 101, 13, 97, 100, 13, 97, 104, 13, 98, 99, 13, 98, 98, 13, 105], "trial": 2, "time_elapsed": 514989, "type": "DISTRACTOR", "trial_index": 77, "num1": [4, 6, 1, 2, 4, 7, 8, 6, 9, 6, 6, 4]}, "uniqueid": "MTK2163:33TIN5LC05HJ9T5AH2T6HYFILUBY9P", "dateTime": 1516760986642}, {"current_trial": 78, "trialdata": {"rt": -1, "trial_type": "single-stim", "stimulus": "<p id=\"stim\">10</p>", "internal_node_id": "0.0-60.0-0.0", "time_elapsed": 517989, "key_press": -1, "trial_index": 78}, "uniqueid": "MTK2163:33TIN5LC05HJ9T5AH2T6HYFILUBY9P", "dateTime": 1516760989642}, {"current_trial": 79, "trialdata": {"rt": -1, "trial_type": "single-stim", "stimulus": "<p id=\"stim\">9</p>", "internal_node_id": "0.0-60.0-1.0", "time_elapsed": 518989, "key_press": -1, "trial_index": 79}, "uniqueid": "MTK2163:33TIN5LC05HJ9T5AH2T6HYFILUBY9P", "dateTime": 1516760990642}, {"current_trial": 80, "trialdata": {"rt": -1, "trial_type": "single-stim", "stimulus": "<p id=\"stim\">8</p>", "internal_node_id": "0.0-60.0-2.0", "time_elapsed": 519990, "key_press": -1, "trial_index": 80}, "uniqueid": "MTK2163:33TIN5LC05HJ9T5AH2T6HYFILUBY9P", "dateTime": 1516760991643}, {"current_trial": 81, "trialdata": {"rt": -1, "trial_type": "single-stim", "stimulus": "<p id=\"stim\">7</p>", "internal_node_id": "0.0-60.0-3.0", "time_elapsed": 520990, "key_press": -1, "trial_index": 81}, "uniqueid": "MTK2163:33TIN5LC05HJ9T5AH2T6HYFILUBY9P", "dateTime": 1516760992643}, {"current_trial": 82, "trialdata": {"rt": -1, "trial_type": "single-stim", "stimulus": "<p id=\"stim\">6</p>", "internal_node_id": "0.0-60.0-4.0", "time_elapsed": 521990, "key_press": -1, "trial_index": 82}, "uniqueid": "MTK2163:33TIN5LC05HJ9T5AH2T6HYFILUBY9P", "dateTime": 1516760993643}, {"current_trial": 83, "trialdata": {"rt": -1, "trial_type": "single-stim", "stimulus": "<p id=\"stim\">5</p>", "internal_node_id": "0.0-60.0-5.0", "time_elapsed": 522991, "key_press": -1, "trial_index": 83}, "uniqueid": "MTK2163:33TIN5LC05HJ9T5AH2T6HYFILUBY9P", "dateTime": 1516760994644}, {"current_trial": 84, "trialdata": {"rt": -1, "trial_type": "single-stim", "stimulus": "<p id=\"stim\">4</p>", "internal_node_id": "0.0-60.0-6.0", "time_elapsed": 523991, "key_press": -1, "trial_index": 84}, "uniqueid": "MTK2163:33TIN5LC05HJ9T5AH2T6HYFILUBY9P", "dateTime": 1516760995644}, {"current_trial": 85, "trialdata": {"rt": -1, "trial_type": "single-stim", "stimulus": "<p id=\"stim\">3</p>", "internal_node_id": "0.0-60.0-7.0", "time_elapsed": 524991, "key_press": -1, "trial_index": 85}, "uniqueid": "MTK2163:33TIN5LC05HJ9T5AH2T6HYFILUBY9P", "dateTime": 1516760996644}, {"current_trial": 86, "trialdata": {"rt": -1, "trial_type": "single-stim", "stimulus": "<p id=\"stim\">2</p>", "internal_node_id": "0.0-60.0-8.0", "time_elapsed": 525991, "key_press": -1, "trial_index": 86}, "uniqueid": "MTK2163:33TIN5LC05HJ9T5AH2T6HYFILUBY9P", "dateTime": 1516760997644}, {"current_trial": 87, "trialdata": {"rt": -1, "trial_type": "single-stim", "stimulus": "<p id=\"stim\">1</p>", "internal_node_id": "0.0-60.0-9.0", "time_elapsed": 526991, "key_press": -1, "trial_index": 87}, "uniqueid": "MTK2163:33TIN5LC05HJ9T5AH2T6HYFILUBY9P", "dateTime": 1516760998644}, {"current_trial": 88, "trialdata": {"rt": -1, "trial_type": "single-stim", "stimulus": "<p id=\"stim\">+</p>", "internal_node_id": "0.0-61.0-0.0", "time_elapsed": 528492, "key_press": -1, "type": "FIXATION", "trial_index": 88}, "uniqueid": "MTK2163:33TIN5LC05HJ9T5AH2T6HYFILUBY9P", "dateTime": 1516761000145}, {"current_trial": 89, "trialdata": {"rt": -1, "trial_type": "single-stim", "word": "loft", "stimulus": "<p id=\"stim\">LOFT</p>", "conditions": [12, 800, "v", 24000], "internal_node_id": "0.0-62.0", "trial": 2, "time_elapsed": 529292, "serialpos": 0, "key_press": -1, "wordID": 839, "type": "PRES_VIS", "trial_index": 89}, "uniqueid": "MTK2163:33TIN5LC05HJ9T5AH2T6HYFILUBY9P", "dateTime": 1516761000945}, {"current_trial": 90, "trialdata": {"rt": -1, "trial_type": "single-stim", "word": "stomach", "stimulus": "<p id=\"stim\">STOMACH</p>", "conditions": [12, 800, "v", 24000], "internal_node_id": "0.0-63.0", "trial": 2, "time_elapsed": 531027, "serialpos": 1, "key_press": -1, "wordID": 1383, "type": "PRES_VIS", "trial_index": 90}, "uniqueid": "MTK2163:33TIN5LC05HJ9T5AH2T6HYFILUBY9P", "dateTime": 1516761002680}, {"current_trial": 91, "trialdata": {"rt": -1, "trial_type": "single-stim", "word": "fruit", "stimulus": "<p id=\"stim\">FRUIT</p>", "conditions": [12, 800, "v", 24000], "internal_node_id": "0.0-64.0", "trial": 2, "time_elapsed": 532940, "serialpos": 2, "key_press": -1, "wordID": 609, "type": "PRES_VIS", "trial_index": 91}, "uniqueid": "MTK2163:33TIN5LC05HJ9T5AH2T6HYFILUBY9P", "dateTime": 1516761004593}, {"current_trial": 92, "trialdata": {"rt": -1, "trial_type": "single-stim", "word": "velvet", "stimulus": "<p id=\"stim\">VELVET</p>", "conditions": [12, 800, "v", 24000], "internal_node_id": "0.0-65.0", "trial": 2, "time_elapsed": 534713, "serialpos": 3, "key_press": -1, "wordID": 1554, "type": "PRES_VIS", "trial_index": 92}, "uniqueid": "MTK2163:33TIN5LC05HJ9T5AH2T6HYFILUBY9P", "dateTime": 1516761006366}, {"current_trial": 93, "trialdata": {"rt": -1, "trial_type": "single-stim", "word": "igloo", "stimulus": "<p id=\"stim\">IGLOO</p>", "conditions": [12, 800, "v", 24000], "internal_node_id": "0.0-66.0", "trial": 2, "time_elapsed": 536446, "serialpos": 4, "key_press": -1, "wordID": 733, "type": "PRES_VIS", "trial_index": 93}, "uniqueid": "MTK2163:33TIN5LC05HJ9T5AH2T6HYFILUBY9P", "dateTime": 1516761008099}, {"current_trial": 94, "trialdata": {"rt": -1, "trial_type": "single-stim", "word": "waiter", "stimulus": "<p id=\"stim\">WAITER</p>", "conditions": [12, 800, "v", 24000], "internal_node_id": "0.0-67.0", "trial": 2, "time_elapsed": 538404, "serialpos": 5, "key_press": -1, "wordID": 1579, "type": "PRES_VIS", "trial_index": 94}, "uniqueid": "MTK2163:33TIN5LC05HJ9T5AH2T6HYFILUBY9P", "dateTime": 1516761010057}, {"current_trial": 95, "trialdata": {"rt": -1, "trial_type": "single-stim", "word": "brick", "stimulus": "<p id=\"stim\">BRICK</p>", "conditions": [12, 800, "v", 24000], "internal_node_id": "0.0-68.0", "trial": 2, "time_elapsed": 540378, "serialpos": 6, "key_press": -1, "wordID": 171, "type": "PRES_VIS", "trial_index": 95}, "uniqueid": "MTK2163:33TIN5LC05HJ9T5AH2T6HYFILUBY9P", "dateTime": 1516761012031}, {"current_trial": 96, "trialdata": {"rt": -1, "trial_type": "single-stim", "word": "tile", "stimulus": "<p id=\"stim\">TILE</p>", "conditions": [12, 800, "v", 24000], "internal_node_id": "0.0-69.0", "trial": 2, "time_elapsed": 542358, "serialpos": 7, "key_press": -1, "wordID": 1467, "type": "PRES_VIS", "trial_index": 96}, "uniqueid": "MTK2163:33TIN5LC05HJ9T5AH2T6HYFILUBY9P", "dateTime": 1516761014011}, {"current_trial": 97, "trialdata": {"rt": -1, "trial_type": "single-stim", "word": "diner", "stimulus": "<p id=\"stim\">DINER</p>", "conditions": [12, 800, "v", 24000], "internal_node_id": "0.0-70.0", "trial": 2, "time_elapsed": 544018, "serialpos": 8, "key_press": -1, "wordID": 466, "type": "PRES_VIS", "trial_index": 97}, "uniqueid": "MTK2163:33TIN5LC05HJ9T5AH2T6HYFILUBY9P", "dateTime": 1516761015671}, {"current_trial": 98, "trialdata": {"rt": -1, "trial_type": "single-stim", "word": "rabbit", "stimulus": "<p id=\"stim\">RABBIT</p>", "conditions": [12, 800, "v", 24000], "internal_node_id": "0.0-71.0", "trial": 2, "time_elapsed": 545884, "serialpos": 9, "key_press": -1, "wordID": 1151, "type": "PRES_VIS", "trial_index": 98}, "uniqueid": "MTK2163:33TIN5LC05HJ9T5AH2T6HYFILUBY9P", "dateTime": 1516761017537}, {"current_trial": 99, "trialdata": {"rt": -1, "trial_type": "single-stim", "word": "bullet", "stimulus": "<p id=\"stim\">BULLET</p>", "conditions": [12, 800, "v", 24000], "internal_node_id": "0.0-72.0", "trial": 2, "time_elapsed": 547681, "serialpos": 10, "key_press": -1, "wordID": 193, "type": "PRES_VIS", "trial_index": 99}, "uniqueid": "MTK2163:33TIN5LC05HJ9T5AH2T6HYFILUBY9P", "dateTime": 1516761019334}, {"current_trial": 100, "trialdata": {"rt": -1, "trial_type": "single-stim", "word": "softball", "stimulus": "<p id=\"stim\">SOFTBALL</p>", "conditions": [12, 800, "v", 24000], "internal_node_id": "0.0-73.0", "trial": 2, "time_elapsed": 549482, "serialpos": 11, "key_press": -1, "wordID": 1342, "type": "PRES_VIS", "trial_index": 100}, "uniqueid": "MTK2163:33TIN5LC05HJ9T5AH2T6HYFILUBY9P", "dateTime": 1516761021135}, {"current_trial": 101, "trialdata": {"rt": -1, "trial_type": "single-stim", "stimulus": "", "internal_node_id": "0.0-74.0-0.0", "time_elapsed": 551744, "key_press": -1, "type": "PRE_RECALL_DELAY", "trial_index": 101}, "uniqueid": "MTK2163:33TIN5LC05HJ9T5AH2T6HYFILUBY9P", "dateTime": 1516761023397}, {"current_trial": 102, "trialdata": {"rt": -1000, "trial_type": "single-audio", "stimulus": "/static/audio/400Hz.wav", "internal_node_id": "0.0-75.0", "time_elapsed": 552244, "key_press": -1, "type": "PRE_RECALL_ALERT", "trial_index": 102}, "uniqueid": "MTK2163:33TIN5LC05HJ9T5AH2T6HYFILUBY9P", "dateTime": 1516761023897}, {"current_trial": 103, "trialdata": {"rt": [1568, 2658, 4391, 5403, 32364, 43173], "recwords": ["softball", "bullet", "loft", "rabbit", "bullet", "fruit"], "key_times": [91, 390, 521, 746, 971, 1081, 1178, 1335, 1568, 1799, 1880, 2038, 2187, 2348, 2458, 2658, 2821, 2930, 3168, 3325, 3565, 3720, 3801, 4016, 4391, 4548, 4638, 4710, 4865, 4949, 5103, 5403, 31111, 31176, 31359, 31373, 31512, 31762, 31902, 32082, 32164, 32229, 32364, 42599, 42759, 42841, 42909, 43013, 43173], "trial_type": "free-recall", "conditions": [12, 800, "v", 24000], "internal_node_id": "0.0-76.0-0.0", "key_presses": [83, 79, 70, 84, 66, 65, 76, 76, 13, 66, 85, 76, 76, 69, 84, 13, 83, 79, 8, 8, 76, 79, 70, 84, 13, 82, 65, 66, 66, 73, 84, 13, 66, 85, 76, 75, 76, 8, 8, 76, 69, 84, 13, 70, 82, 85, 73, 84, 13], "trial": 2, "time_elapsed": 612246, "type": "FREE_RECALL", "trial_index": 103}, "uniqueid": "MTK2163:33TIN5LC05HJ9T5AH2T6HYFILUBY9P", "dateTime": 1516761083900}, {"current_trial": 104, "trialdata": {"rt": 840, "trial_type": "text", "internal_node_id": "0.0-77.0", "time_elapsed": 615087, "key_press": 97, "type": "INSTRUCTIONS", "trial_index": 104}, "uniqueid": "MTK2163:33TIN5LC05HJ9T5AH2T6HYFILUBY9P", "dateTime": 1516761086740}, {"current_trial": 105, "trialdata": {"rt": [1660, 3333, 4793, 6783, 8178, 9799, 11112, 13228, 16014, 17446, 19590, 20754, 22294], "trial_type": "math-distractor", "key_times": [1488, 1544, 1660, 3082, 3251, 3333, 4575, 4721, 4793, 6237, 6327, 6783, 7908, 7992, 8178, 9607, 9683, 9799, 10861, 10967, 11112, 12893, 12966, 13228, 15806, 15888, 16014, 17263, 17332, 17446, 19331, 19590, 20580, 20664, 20754, 22086, 22158, 22294, 23815, 23887], "responses": ["12", "14", "22", "21", "19", "12", "18", "21", "18", "21", "9", "15", "13"], "num2": [6, 3, 9, 8, 6, 5, 2, 5, 7, 8, 2, 1, 7, 4], "num3": [5, 8, 5, 5, 9, 5, 9, 8, 5, 8, 3, 5, 5, 7], "conditions": [12, 1600, "v", 24000], "internal_node_id": "0.0-78.0", "key_presses": [97, 98, 13, 97, 100, 13, 98, 98, 13, 98, 97, 13, 97, 105, 13, 97, 98, 13, 97, 104, 13, 98, 97, 13, 97, 104, 13, 98, 97, 13, 105, 13, 97, 101, 13, 97, 99, 13, 97, 102], "trial": 3, "time_elapsed": 641089, "type": "DISTRACTOR", "trial_index": 105, "num1": [1, 3, 8, 8, 4, 2, 7, 8, 8, 5, 4, 9, 1, 5]}, "uniqueid": "MTK2163:33TIN5LC05HJ9T5AH2T6HYFILUBY9P", "dateTime": 1516761112742}, {"current_trial": 106, "trialdata": {"rt": -1, "trial_type": "single-stim", "stimulus": "<p id=\"stim\">10</p>", "internal_node_id": "0.0-79.0-0.0", "time_elapsed": 644091, "key_press": -1, "trial_index": 106}, "uniqueid": "MTK2163:33TIN5LC05HJ9T5AH2T6HYFILUBY9P", "dateTime": 1516761115744}, {"current_trial": 107, "trialdata": {"rt": -1, "trial_type": "single-stim", "stimulus": "<p id=\"stim\">9</p>", "internal_node_id": "0.0-79.0-1.0", "time_elapsed": 645092, "key_press": -1, "trial_index": 107}, "uniqueid": "MTK2163:33TIN5LC05HJ9T5AH2T6HYFILUBY9P", "dateTime": 1516761116745}, {"current_trial": 108, "trialdata": {"rt": -1, "trial_type": "single-stim", "stimulus": "<p id=\"stim\">8</p>", "internal_node_id": "0.0-79.0-2.0", "time_elapsed": 646092, "key_press": -1, "trial_index": 108}, "uniqueid": "MTK2163:33TIN5LC05HJ9T5AH2T6HYFILUBY9P", "dateTime": 1516761117745}, {"current_trial": 109, "trialdata": {"rt": -1, "trial_type": "single-stim", "stimulus": "<p id=\"stim\">7</p>", "internal_node_id": "0.0-79.0-3.0", "time_elapsed": 647092, "key_press": -1, "trial_index": 109}, "uniqueid": "MTK2163:33TIN5LC05HJ9T5AH2T6HYFILUBY9P", "dateTime": 1516761118745}, {"current_trial": 110, "trialdata": {"rt": -1, "trial_type": "single-stim", "stimulus": "<p id=\"stim\">6</p>", "internal_node_id": "0.0-79.0-4.0", "time_elapsed": 648092, "key_press": -1, "trial_index": 110}, "uniqueid": "MTK2163:33TIN5LC05HJ9T5AH2T6HYFILUBY9P", "dateTime": 1516761119745}, {"current_trial": 111, "trialdata": {"rt": -1, "trial_type": "single-stim", "stimulus": "<p id=\"stim\">5</p>", "internal_node_id": "0.0-79.0-5.0", "time_elapsed": 649092, "key_press": -1, "trial_index": 111}, "uniqueid": "MTK2163:33TIN5LC05HJ9T5AH2T6HYFILUBY9P", "dateTime": 1516761120745}, {"current_trial": 112, "trialdata": {"rt": -1, "trial_type": "single-stim", "stimulus": "<p id=\"stim\">4</p>", "internal_node_id": "0.0-79.0-6.0", "time_elapsed": 650093, "key_press": -1, "trial_index": 112}, "uniqueid": "MTK2163:33TIN5LC05HJ9T5AH2T6HYFILUBY9P", "dateTime": 1516761121746}, {"current_trial": 113, "trialdata": {"rt": -1, "trial_type": "single-stim", "stimulus": "<p id=\"stim\">3</p>", "internal_node_id": "0.0-79.0-7.0", "time_elapsed": 651094, "key_press": -1, "trial_index": 113}, "uniqueid": "MTK2163:33TIN5LC05HJ9T5AH2T6HYFILUBY9P", "dateTime": 1516761122747}, {"current_trial": 114, "trialdata": {"rt": -1, "trial_type": "single-stim", "stimulus": "<p id=\"stim\">2</p>", "internal_node_id": "0.0-79.0-8.0", "time_elapsed": 652094, "key_press": -1, "trial_index": 114}, "uniqueid": "MTK2163:33TIN5LC05HJ9T5AH2T6HYFILUBY9P", "dateTime": 1516761123747}, {"current_trial": 115, "trialdata": {"rt": -1, "trial_type": "single-stim", "stimulus": "<p id=\"stim\">1</p>", "internal_node_id": "0.0-79.0-9.0", "time_elapsed": 653095, "key_press": -1, "trial_index": 115}, "uniqueid": "MTK2163:33TIN5LC05HJ9T5AH2T6HYFILUBY9P", "dateTime": 1516761124748}, {"current_trial": 116, "trialdata": {"rt": -1, "trial_type": "single-stim", "stimulus": "<p id=\"stim\">+</p>", "internal_node_id": "0.0-80.0-0.0", "time_elapsed": 654596, "key_press": -1, "type": "FIXATION", "trial_index": 116}, "uniqueid": "MTK2163:33TIN5LC05HJ9T5AH2T6HYFILUBY9P", "dateTime": 1516761126249}, {"current_trial": 117, "trialdata": {"rt": -1, "trial_type": "single-stim", "word": "match", "stimulus": "<p id=\"stim\">MATCH</p>", "conditions": [12, 1600, "v", 24000], "internal_node_id": "0.0-81.0", "trial": 3, "time_elapsed": 656197, "serialpos": 0, "key_press": -1, "wordID": 877, "type": "PRES_VIS", "trial_index": 117}, "uniqueid": "MTK2163:33TIN5LC05HJ9T5AH2T6HYFILUBY9P", "dateTime": 1516761127850}, {"current_trial": 118, "trialdata": {"rt": -1, "trial_type": "single-stim", "word": "panther", "stimulus": "<p id=\"stim\">PANTHER</p>", "conditions": [12, 1600, "v", 24000], "internal_node_id": "0.0-82.0", "trial": 3, "time_elapsed": 658720, "serialpos": 1, "key_press": -1, "wordID": 1008, "type": "PRES_VIS", "trial_index": 118}, "uniqueid": "MTK2163:33TIN5LC05HJ9T5AH2T6HYFILUBY9P", "dateTime": 1516761130373}, {"current_trial": 119, "trialdata": {"rt": -1, "trial_type": "single-stim", "word": "lipstick", "stimulus": "<p id=\"stim\">LIPSTICK</p>", "conditions": [12, 1600, "v", 24000], "internal_node_id": "0.0-83.0", "trial": 3, "time_elapsed": 661405, "serialpos": 2, "key_press": -1, "wordID": 828, "type": "PRES_VIS", "trial_index": 119}, "uniqueid": "MTK2163:33TIN5LC05HJ9T5AH2T6HYFILUBY9P", "dateTime": 1516761133058}, {"current_trial": 120, "trialdata": {"rt": -1, "trial_type": "single-stim", "word": "shirt", "stimulus": "<p id=\"stim\">SHIRT</p>", "conditions": [12, 1600, "v", 24000], "internal_node_id": "0.0-84.0", "trial": 3, "time_elapsed": 663829, "serialpos": 3, "key_press": -1, "wordID": 1286, "type": "PRES_VIS", "trial_index": 120}, "uniqueid": "MTK2163:33TIN5LC05HJ9T5AH2T6HYFILUBY9P", "dateTime": 1516761135482}, {"current_trial": 121, "trialdata": {"rt": -1, "trial_type": "single-stim", "word": "skirt", "stimulus": "<p id=\"stim\">SKIRT</p>", "conditions": [12, 1600, "v", 24000], "internal_node_id": "0.0-85.0", "trial": 3, "time_elapsed": 666508, "serialpos": 4, "key_press": -1, "wordID": 1318, "type": "PRES_VIS", "trial_index": 121}, "uniqueid": "MTK2163:33TIN5LC05HJ9T5AH2T6HYFILUBY9P", "dateTime": 1516761138161}, {"current_trial": 122, "trialdata": {"rt": -1, "trial_type": "single-stim", "word": "penguin", "stimulus": "<p id=\"stim\">PENGUIN</p>", "conditions": [12, 1600, "v", 24000], "internal_node_id": "0.0-86.0", "trial": 3, "time_elapsed": 669149, "serialpos": 5, "key_press": -1, "wordID": 1043, "type": "PRES_VIS", "trial_index": 122}, "uniqueid": "MTK2163:33TIN5LC05HJ9T5AH2T6HYFILUBY9P", "dateTime": 1516761140802}, {"current_trial": 123, "trialdata": {"rt": -1, "trial_type": "single-stim", "word": "clam", "stimulus": "<p id=\"stim\">CLAM</p>", "conditions": [12, 1600, "v", 24000], "internal_node_id": "0.0-87.0", "trial": 3, "time_elapsed": 671920, "serialpos": 6, "key_press": -1, "wordID": 314, "type": "PRES_VIS", "trial_index": 123}, "uniqueid": "MTK2163:33TIN5LC05HJ9T5AH2T6HYFILUBY9P", "dateTime": 1516761143573}, {"current_trial": 124, "trialdata": {"rt": -1, "trial_type": "single-stim", "word": "spool", "stimulus": "<p id=\"stim\">SPOOL</p>", "conditions": [12, 1600, "v", 24000], "internal_node_id": "0.0-88.0", "trial": 3, "time_elapsed": 674696, "serialpos": 7, "key_press": -1, "wordID": 1355, "type": "PRES_VIS", "trial_index": 124}, "uniqueid": "MTK2163:33TIN5LC05HJ9T5AH2T6HYFILUBY9P", "dateTime": 1516761146349}, {"current_trial": 125, "trialdata": {"rt": -1, "trial_type": "single-stim", "word": "blouse", "stimulus": "<p id=\"stim\">BLOUSE</p>", "conditions": [12, 1600, "v", 24000], "internal_node_id": "0.0-89.0", "trial": 3, "time_elapsed": 677314, "serialpos": 8, "key_press": -1, "wordID": 138, "type": "PRES_VIS", "trial_index": 125}, "uniqueid": "MTK2163:33TIN5LC05HJ9T5AH2T6HYFILUBY9P", "dateTime": 1516761148967}, {"current_trial": 126, "trialdata": {"rt": -1, "trial_type": "single-stim", "word": "garlic", "stimulus": "<p id=\"stim\">GARLIC</p>", "conditions": [12, 1600, "v", 24000], "internal_node_id": "0.0-90.0", "trial": 3, "time_elapsed": 679714, "serialpos": 9, "key_press": -1, "wordID": 623, "type": "PRES_VIS", "trial_index": 126}, "uniqueid": "MTK2163:33TIN5LC05HJ9T5AH2T6HYFILUBY9P", "dateTime": 1516761151367}, {"current_trial": 127, "trialdata": {"rt": -1, "trial_type": "single-stim", "word": "radish", "stimulus": "<p id=\"stim\">RADISH</p>", "conditions": [12, 1600, "v", 24000], "internal_node_id": "0.0-91.0", "trial": 3, "time_elapsed": 682201, "serialpos": 10, "key_press": -1, "wordID": 1157, "type": "PRES_VIS", "trial_index": 127}, "uniqueid": "MTK2163:33TIN5LC05HJ9T5AH2T6HYFILUBY9P", "dateTime": 1516761153854}, {"current_trial": 128, "trialdata": {"rt": -1, "trial_type": "single-stim", "word": "peach", "stimulus": "<p id=\"stim\">PEACH</p>", "conditions": [12, 1600, "v", 24000], "internal_node_id": "0.0-92.0", "trial": 3, "time_elapsed": 684651, "serialpos": 11, "key_press": -1, "wordID": 1030, "type": "PRES_VIS", "trial_index": 128}, "uniqueid": "MTK2163:33TIN5LC05HJ9T5AH2T6HYFILUBY9P", "dateTime": 1516761156304}, {"current_trial": 129, "trialdata": {"rt": -1, "trial_type": "single-stim", "stimulus": "", "internal_node_id": "0.0-93.0-0.0", "time_elapsed": 686826, "key_press": -1, "type": "PRE_RECALL_DELAY", "trial_index": 129}, "uniqueid": "MTK2163:33TIN5LC05HJ9T5AH2T6HYFILUBY9P", "dateTime": 1516761158479}, {"current_trial": 130, "trialdata": {"rt": -1000, "trial_type": "single-audio", "stimulus": "/static/audio/400Hz.wav", "internal_node_id": "0.0-94.0", "time_elapsed": 687326, "key_press": -1, "type": "PRE_RECALL_ALERT", "trial_index": 130}, "uniqueid": "MTK2163:33TIN5LC05HJ9T5AH2T6HYFILUBY9P", "dateTime": 1516761158979}, {"current_trial": 131, "trialdata": {"rt": [1647, 3237, 5298, 6190, 7380, 9864, 36297, 58229], "recwords": ["peach", "match", "panther", "skirt", "blouse", "school", "lipstick", "penguin"], "key_times": [382, 495, 626, 745, 919, 1647, 1893, 1981, 2188, 2411, 2485, 3237, 3807, 3905, 4024, 4146, 4260, 4378, 4438, 5298, 5486, 5558, 5738, 5810, 6029, 6190, 6404, 6504, 6705, 6802, 6922, 6995, 7380, 9074, 9156, 9212, 9281, 9455, 9623, 9864, 22697, 23214, 35222, 35408, 35507, 35656, 35775, 35868, 36039, 36110, 36297, 57497, 57617, 57701, 57820, 57917, 57965, 58022, 58229], "trial_type": "free-recall", "conditions": [12, 1600, "v", 24000], "internal_node_id": "0.0-95.0-0.0", "key_presses": [80, 69, 65, 67, 72, 13, 77, 65, 84, 67, 72, 13, 80, 65, 78, 84, 72, 69, 82, 13, 83, 75, 73, 82, 84, 13, 66, 76, 79, 85, 83, 69, 13, 83, 67, 72, 79, 79, 76, 13, 77, 8, 76, 73, 80, 83, 84, 73, 67, 75, 13, 80, 69, 78, 71, 85, 73, 78, 13], "trial": 3, "time_elapsed": 747328, "type": "FREE_RECALL", "trial_index": 131}, "uniqueid": "MTK2163:33TIN5LC05HJ9T5AH2T6HYFILUBY9P", "dateTime": 1516761218982}, {"current_trial": 132, "trialdata": {"rt": 93750, "trial_type": "text", "internal_node_id": "0.0-96.0", "time_elapsed": 843079, "key_press": 17, "type": "INSTRUCTIONS", "trial_index": 132}, "uniqueid": "MTK2163:33TIN5LC05HJ9T5AH2T6HYFILUBY9P", "dateTime": 1516761314732}, {"current_trial": 133, "trialdata": {"rt": [1429, 2736, 4147, 6435, 7709, 9873, 11773], "trial_type": "math-distractor", "key_times": [1156, 1295, 1429, 2518, 2611, 2736, 3894, 4020, 4147, 6127, 6312, 6435, 7523, 7589, 7709, 9321, 9556, 9873, 11557, 11637, 11773], "responses": ["12", "10", "18", "17", "10", "23", "21"], "num2": [2, 1, 4, 6, 1, 9, 9, 7], "num3": [2, 2, 7, 3, 2, 7, 7, 1], "conditions": [12, 800, "v", 12000], "internal_node_id": "0.0-97.0", "key_presses": [97, 98, 13, 97, 96, 13, 97, 104, 13, 97, 103, 13, 97, 96, 13, 98, 99, 13, 98, 97, 13], "trial": 4, "time_elapsed": 857080, "type": "DISTRACTOR", "trial_index": 133, "num1": [8, 7, 7, 8, 7, 7, 5, 4]}, "uniqueid": "MTK2163:33TIN5LC05HJ9T5AH2T6HYFILUBY9P", "dateTime": 1516761328733}, {"current_trial": 134, "trialdata": {"rt": -1, "trial_type": "single-stim", "stimulus": "<p id=\"stim\">10</p>", "internal_node_id": "0.0-98.0-0.0", "time_elapsed": 860080, "key_press": -1, "trial_index": 134}, "uniqueid": "MTK2163:33TIN5LC05HJ9T5AH2T6HYFILUBY9P", "dateTime": 1516761331733}, {"current_trial": 135, "trialdata": {"rt": -1, "trial_type": "single-stim", "stimulus": "<p id=\"stim\">9</p>", "internal_node_id": "0.0-98.0-1.0", "time_elapsed": 861080, "key_press": -1, "trial_index": 135}, "uniqueid": "MTK2163:33TIN5LC05HJ9T5AH2T6HYFILUBY9P", "dateTime": 1516761332733}, {"current_trial": 136, "trialdata": {"rt": -1, "trial_type": "single-stim", "stimulus": "<p id=\"stim\">8</p>", "internal_node_id": "0.0-98.0-2.0", "time_elapsed": 862080, "key_press": -1, "trial_index": 136}, "uniqueid": "MTK2163:33TIN5LC05HJ9T5AH2T6HYFILUBY9P", "dateTime": 1516761333733}, {"current_trial": 137, "trialdata": {"rt": -1, "trial_type": "single-stim", "stimulus": "<p id=\"stim\">7</p>", "internal_node_id": "0.0-98.0-3.0", "time_elapsed": 863080, "key_press": -1, "trial_index": 137}, "uniqueid": "MTK2163:33TIN5LC05HJ9T5AH2T6HYFILUBY9P", "dateTime": 1516761334733}, {"current_trial": 138, "trialdata": {"rt": -1, "trial_type": "single-stim", "stimulus": "<p id=\"stim\">6</p>", "internal_node_id": "0.0-98.0-4.0", "time_elapsed": 864081, "key_press": -1, "trial_index": 138}, "uniqueid": "MTK2163:33TIN5LC05HJ9T5AH2T6HYFILUBY9P", "dateTime": 1516761335734}, {"current_trial": 139, "trialdata": {"rt": -1, "trial_type": "single-stim", "stimulus": "<p id=\"stim\">5</p>", "internal_node_id": "0.0-98.0-5.0", "time_elapsed": 865081, "key_press": -1, "trial_index": 139}, "uniqueid": "MTK2163:33TIN5LC05HJ9T5AH2T6HYFILUBY9P", "dateTime": 1516761336734}, {"current_trial": 140, "trialdata": {"rt": -1, "trial_type": "single-stim", "stimulus": "<p id=\"stim\">4</p>", "internal_node_id": "0.0-98.0-6.0", "time_elapsed": 866081, "key_press": -1, "trial_index": 140}, "uniqueid": "MTK2163:33TIN5LC05HJ9T5AH2T6HYFILUBY9P", "dateTime": 1516761337734}, {"current_trial": 141, "trialdata": {"rt": -1, "trial_type": "single-stim", "stimulus": "<p id=\"stim\">3</p>", "internal_node_id": "0.0-98.0-7.0", "time_elapsed": 867081, "key_press": -1, "trial_index": 141}, "uniqueid": "MTK2163:33TIN5LC05HJ9T5AH2T6HYFILUBY9P", "dateTime": 1516761338734}, {"current_trial": 142, "trialdata": {"rt": -1, "trial_type": "single-stim", "stimulus": "<p id=\"stim\">2</p>", "internal_node_id": "0.0-98.0-8.0", "time_elapsed": 868081, "key_press": -1, "trial_index": 142}, "uniqueid": "MTK2163:33TIN5LC05HJ9T5AH2T6HYFILUBY9P", "dateTime": 1516761339734}, {"current_trial": 143, "trialdata": {"rt": -1, "trial_type": "single-stim", "stimulus": "<p id=\"stim\">1</p>", "internal_node_id": "0.0-98.0-9.0", "time_elapsed": 869082, "key_press": -1, "trial_index": 143}, "uniqueid": "MTK2163:33TIN5LC05HJ9T5AH2T6HYFILUBY9P", "dateTime": 1516761340735}, {"current_trial": 144, "trialdata": {"rt": -1, "trial_type": "single-stim", "stimulus": "<p id=\"stim\">+</p>", "internal_node_id": "0.0-99.0-0.0", "time_elapsed": 870582, "key_press": -1, "type": "FIXATION", "trial_index": 144}, "uniqueid": "MTK2163:33TIN5LC05HJ9T5AH2T6HYFILUBY9P", "dateTime": 1516761342235}, {"current_trial": 145, "trialdata": {"rt": -1, "trial_type": "single-stim", "word": "jelly", "stimulus": "<p id=\"stim\">JELLY</p>", "conditions": [12, 800, "v", 12000], "internal_node_id": "0.0-100.0", "trial": 4, "time_elapsed": 871382, "serialpos": 0, "key_press": -1, "wordID": 754, "type": "PRES_VIS", "trial_index": 145}, "uniqueid": "MTK2163:33TIN5LC05HJ9T5AH2T6HYFILUBY9P", "dateTime": 1516761343035}, {"current_trial": 146, "trialdata": {"rt": -1, "trial_type": "single-stim", "word": "cricket", "stimulus": "<p id=\"stim\">CRICKET</p>", "conditions": [12, 800, "v", 12000], "internal_node_id": "0.0-101.0", "trial": 4, "time_elapsed": 873228, "serialpos": 1, "key_press": -1, "wordID": 407, "type": "PRES_VIS", "trial_index": 146}, "uniqueid": "MTK2163:33TIN5LC05HJ9T5AH2T6HYFILUBY9P", "dateTime": 1516761344881}, {"current_trial": 147, "trialdata": {"rt": -1, "trial_type": "single-stim", "word": "london", "stimulus": "<p id=\"stim\">LONDON</p>", "conditions": [12, 800, "v", 12000], "internal_node_id": "0.0-102.0", "trial": 4, "time_elapsed": 875006, "serialpos": 2, "key_press": -1, "wordID": 842, "type": "PRES_VIS", "trial_index": 147}, "uniqueid": "MTK2163:33TIN5LC05HJ9T5AH2T6HYFILUBY9P", "dateTime": 1516761346659}, {"current_trial": 148, "trialdata": {"rt": -1, "trial_type": "single-stim", "word": "hiker", "stimulus": "<p id=\"stim\">HIKER</p>", "conditions": [12, 800, "v", 12000], "internal_node_id": "0.0-103.0", "trial": 4, "time_elapsed": 876985, "serialpos": 3, "key_press": -1, "wordID": 707, "type": "PRES_VIS", "trial_index": 148}, "uniqueid": "MTK2163:33TIN5LC05HJ9T5AH2T6HYFILUBY9P", "dateTime": 1516761348638}, {"current_trial": 149, "trialdata": {"rt": -1, "trial_type": "single-stim", "word": "harp", "stimulus": "<p id=\"stim\">HARP</p>", "conditions": [12, 800, "v", 12000], "internal_node_id": "0.0-104.0", "trial": 4, "time_elapsed": 878966, "serialpos": 4, "key_press": -1, "wordID": 688, "type": "PRES_VIS", "trial_index": 149}, "uniqueid": "MTK2163:33TIN5LC05HJ9T5AH2T6HYFILUBY9P", "dateTime": 1516761350619}, {"current_trial": 150, "trialdata": {"rt": -1, "trial_type": "single-stim", "word": "muffin", "stimulus": "<p id=\"stim\">MUFFIN</p>", "conditions": [12, 800, "v", 12000], "internal_node_id": "0.0-105.0", "trial": 4, "time_elapsed": 880773, "serialpos": 5, "key_press": -1, "wordID": 928, "type": "PRES_VIS", "trial_index": 150}, "uniqueid": "MTK2163:33TIN5LC05HJ9T5AH2T6HYFILUBY9P", "dateTime": 1516761352426}, {"current_trial": 151, "trialdata": {"rt": -1, "trial_type": "single-stim", "word": "friend", "stimulus": "<p id=\"stim\">FRIEND</p>", "conditions": [12, 800, "v", 12000], "internal_node_id": "0.0-106.0", "trial": 4, "time_elapsed": 882434, "serialpos": 6, "key_press": -1, "wordID": 605, "type": "PRES_VIS", "trial_index": 151}, "uniqueid": "MTK2163:33TIN5LC05HJ9T5AH2T6HYFILUBY9P", "dateTime": 1516761354087}, {"current_trial": 152, "trialdata": {"rt": -1, "trial_type": "single-stim", "word": "brother", "stimulus": "<p id=\"stim\">BROTHER</p>", "conditions": [12, 800, "v", 12000], "internal_node_id": "0.0-107.0", "trial": 4, "time_elapsed": 884332, "serialpos": 7, "key_press": -1, "wordID": 178, "type": "PRES_VIS", "trial_index": 152}, "uniqueid": "MTK2163:33TIN5LC05HJ9T5AH2T6HYFILUBY9P", "dateTime": 1516761355985}, {"current_trial": 153, "trialdata": {"rt": -1, "trial_type": "single-stim", "word": "pizza", "stimulus": "<p id=\"stim\">PIZZA</p>", "conditions": [12, 800, "v", 12000], "internal_node_id": "0.0-108.0", "trial": 4, "time_elapsed": 885993, "serialpos": 8, "key_press": -1, "wordID": 1078, "type": "PRES_VIS", "trial_index": 153}, "uniqueid": "MTK2163:33TIN5LC05HJ9T5AH2T6HYFILUBY9P", "dateTime": 1516761357646}, {"current_trial": 154, "trialdata": {"rt": -1, "trial_type": "single-stim", "word": "rooster", "stimulus": "<p id=\"stim\">ROOSTER</p>", "conditions": [12, 800, "v", 12000], "internal_node_id": "0.0-109.0", "trial": 4, "time_elapsed": 887838, "serialpos": 9, "key_press": -1, "wordID": 1208, "type": "PRES_VIS", "trial_index": 154}, "uniqueid": "MTK2163:33TIN5LC05HJ9T5AH2T6HYFILUBY9P", "dateTime": 1516761359491}, {"current_trial": 155, "trialdata": {"rt": -1, "trial_type": "single-stim", "word": "custard", "stimulus": "<p id=\"stim\">CUSTARD</p>", "conditions": [12, 800, "v", 12000], "internal_node_id": "0.0-110.0", "trial": 4, "time_elapsed": 889562, "serialpos": 10, "key_press": -1, "wordID": 428, "type": "PRES_VIS", "trial_index": 155}, "uniqueid": "MTK2163:33TIN5LC05HJ9T5AH2T6HYFILUBY9P", "dateTime": 1516761361215}, {"current_trial": 156, "trialdata": {"rt": -1, "trial_type": "single-stim", "word": "dentist", "stimulus": "<p id=\"stim\">DENTIST</p>", "conditions": [12, 800, "v", 12000], "internal_node_id": "0.0-111.0", "trial": 4, "time_elapsed": 891543, "serialpos": 11, "key_press": -1, "wordID": 446, "type": "PRES_VIS", "trial_index": 156}, "uniqueid": "MTK2163:33TIN5LC05HJ9T5AH2T6HYFILUBY9P", "dateTime": 1516761363196}, {"current_trial": 157, "trialdata": {"rt": -1, "trial_type": "single-stim", "stimulus": "", "internal_node_id": "0.0-112.0-0.0", "time_elapsed": 893895, "key_press": -1, "type": "PRE_RECALL_DELAY", "trial_index": 157}, "uniqueid": "MTK2163:33TIN5LC05HJ9T5AH2T6HYFILUBY9P", "dateTime": 1516761365548}, {"current_trial": 158, "trialdata": {"rt": -1000, "trial_type": "single-audio", "stimulus": "/static/audio/400Hz.wav", "internal_node_id": "0.0-113.0", "time_elapsed": 894395, "key_press": -1, "type": "PRE_RECALL_ALERT", "trial_index": 158}, "uniqueid": "MTK2163:33TIN5LC05HJ9T5AH2T6HYFILUBY9P", "dateTime": 1516761366048}, {"current_trial": 159, "trialdata": {"rt": [1275, 2225, 3328, 4763, 6958, 9561, 20486, 26972], "recwords": ["dentist", "friend", "pizza", "custard", "london", "hike", "jelly", "pizza"], "key_times": [238, 454, 547, 693, 826, 931, 1030, 1275, 1426, 1583, 1720, 1823, 1937, 2043, 2225, 2451, 2528, 2618, 2803, 3010, 3328, 3515, 3610, 3777, 4048, 4177, 4239, 4438, 4763, 5032, 5211, 5287, 5401, 5499, 5585, 6958, 7225, 7320, 7515, 7978, 9561, 16755, 16908, 16963, 17122, 17362, 20486, 26185, 26273, 26420, 26602, 26846, 26972], "trial_type": "free-recall", "conditions": [12, 800, "v", 12000], "internal_node_id": "0.0-114.0-0.0", "key_presses": [68, 69, 78, 84, 73, 83, 84, 13, 70, 82, 73, 69, 78, 68, 13, 80, 73, 90, 90, 65, 13, 67, 85, 83, 84, 65, 82, 68, 13, 76, 79, 78, 68, 79, 78, 13, 72, 73, 75, 69, 13, 74, 69, 76, 76, 89, 13, 80, 73, 90, 90, 65, 13], "trial": 4, "time_elapsed": 954396, "type": "FREE_RECALL", "trial_index": 159}, "uniqueid": "MTK2163:33TIN5LC05HJ9T5AH2T6HYFILUBY9P", "dateTime": 1516761426051}, {"current_trial": 160, "trialdata": {"rt": 1253, "trial_type": "text", "internal_node_id": "0.0-115.0", "time_elapsed": 957651, "key_press": 74, "type": "INSTRUCTIONS", "trial_index": 160}, "uniqueid": "MTK2163:33TIN5LC05HJ9T5AH2T6HYFILUBY9P", "dateTime": 1516761429304}, {"current_trial": 161, "trialdata": {"rt": [1304, 3285, 4511, 5750, 7571, 8917, 10696], "trial_type": "math-distractor", "key_times": [1053, 1108, 1304, 2954, 3139, 3285, 4310, 4360, 4511, 5530, 5661, 5750, 7282, 7443, 7571, 8605, 8785, 8917, 10435, 10529, 10696], "responses": ["10", "17", "12", "11", "11", "17", "23"], "num2": [2, 9, 3, 5, 3, 4, 7, 5], "num3": [1, 3, 1, 2, 4, 9, 7, 2], "conditions": [24, 800, "v", 12000], "internal_node_id": "0.0-116.0", "key_presses": [97, 96, 13, 97, 103, 13, 97, 98, 13, 97, 97, 13, 97, 97, 13, 97, 103, 13, 98, 99, 13], "trial": 5, "time_elapsed": 971653, "type": "DISTRACTOR", "trial_index": 161, "num1": [7, 5, 8, 4, 4, 4, 9, 4]}, "uniqueid": "MTK2163:33TIN5LC05HJ9T5AH2T6HYFILUBY9P", "dateTime": 1516761443306}, {"current_trial": 162, "trialdata": {"rt": -1, "trial_type": "single-stim", "stimulus": "<p id=\"stim\">10</p>", "internal_node_id": "0.0-117.0-0.0", "time_elapsed": 974653, "key_press": -1, "trial_index": 162}, "uniqueid": "MTK2163:33TIN5LC05HJ9T5AH2T6HYFILUBY9P", "dateTime": 1516761446306}, {"current_trial": 163, "trialdata": {"rt": -1, "trial_type": "single-stim", "stimulus": "<p id=\"stim\">9</p>", "internal_node_id": "0.0-117.0-1.0", "time_elapsed": 975653, "key_press": -1, "trial_index": 163}, "uniqueid": "MTK2163:33TIN5LC05HJ9T5AH2T6HYFILUBY9P", "dateTime": 1516761447306}, {"current_trial": 164, "trialdata": {"rt": -1, "trial_type": "single-stim", "stimulus": "<p id=\"stim\">8</p>", "internal_node_id": "0.0-117.0-2.0", "time_elapsed": 976653, "key_press": -1, "trial_index": 164}, "uniqueid": "MTK2163:33TIN5LC05HJ9T5AH2T6HYFILUBY9P", "dateTime": 1516761448306}, {"current_trial": 165, "trialdata": {"rt": -1, "trial_type": "single-stim", "stimulus": "<p id=\"stim\">7</p>", "internal_node_id": "0.0-117.0-3.0", "time_elapsed": 977653, "key_press": -1, "trial_index": 165}, "uniqueid": "MTK2163:33TIN5LC05HJ9T5AH2T6HYFILUBY9P", "dateTime": 1516761449306}, {"current_trial": 166, "trialdata": {"rt": -1, "trial_type": "single-stim", "stimulus": "<p id=\"stim\">6</p>", "internal_node_id": "0.0-117.0-4.0", "time_elapsed": 978653, "key_press": -1, "trial_index": 166}, "uniqueid": "MTK2163:33TIN5LC05HJ9T5AH2T6HYFILUBY9P", "dateTime": 1516761450306}, {"current_trial": 167, "trialdata": {"rt": -1, "trial_type": "single-stim", "stimulus": "<p id=\"stim\">5</p>", "internal_node_id": "0.0-117.0-5.0", "time_elapsed": 979653, "key_press": -1, "trial_index": 167}, "uniqueid": "MTK2163:33TIN5LC05HJ9T5AH2T6HYFILUBY9P", "dateTime": 1516761451306}, {"current_trial": 168, "trialdata": {"rt": -1, "trial_type": "single-stim", "stimulus": "<p id=\"stim\">4</p>", "internal_node_id": "0.0-117.0-6.0", "time_elapsed": 980653, "key_press": -1, "trial_index": 168}, "uniqueid": "MTK2163:33TIN5LC05HJ9T5AH2T6HYFILUBY9P", "dateTime": 1516761452306}, {"current_trial": 169, "trialdata": {"rt": -1, "trial_type": "single-stim", "stimulus": "<p id=\"stim\">3</p>", "internal_node_id": "0.0-117.0-7.0", "time_elapsed": 981653, "key_press": -1, "trial_index": 169}, "uniqueid": "MTK2163:33TIN5LC05HJ9T5AH2T6HYFILUBY9P", "dateTime": 1516761453306}, {"current_trial": 170, "trialdata": {"rt": -1, "trial_type": "single-stim", "stimulus": "<p id=\"stim\">2</p>", "internal_node_id": "0.0-117.0-8.0", "time_elapsed": 982653, "key_press": -1, "trial_index": 170}, "uniqueid": "MTK2163:33TIN5LC05HJ9T5AH2T6HYFILUBY9P", "dateTime": 1516761454306}, {"current_trial": 171, "trialdata": {"rt": -1, "trial_type": "single-stim", "stimulus": "<p id=\"stim\">1</p>", "internal_node_id": "0.0-117.0-9.0", "time_elapsed": 983653, "key_press": -1, "trial_index": 171}, "uniqueid": "MTK2163:33TIN5LC05HJ9T5AH2T6HYFILUBY9P", "dateTime": 1516761455306}, {"current_trial": 172, "trialdata": {"rt": -1, "trial_type": "single-stim", "stimulus": "<p id=\"stim\">+</p>", "internal_node_id": "0.0-118.0-0.0", "time_elapsed": 985153, "key_press": -1, "type": "FIXATION", "trial_index": 172}, "uniqueid": "MTK2163:33TIN5LC05HJ9T5AH2T6HYFILUBY9P", "dateTime": 1516761456806}, {"current_trial": 173, "trialdata": {"rt": -1, "trial_type": "single-stim", "word": "cod", "stimulus": "<p id=\"stim\">COD</p>", "conditions": [24, 800, "v", 12000], "internal_node_id": "0.0-119.0", "trial": 5, "time_elapsed": 985953, "serialpos": 0, "key_press": -1, "wordID": 339, "type": "PRES_VIS", "trial_index": 173}, "uniqueid": "MTK2163:33TIN5LC05HJ9T5AH2T6HYFILUBY9P", "dateTime": 1516761457606}, {"current_trial": 174, "trialdata": {"rt": -1, "trial_type": "single-stim", "word": "japan", "stimulus": "<p id=\"stim\">JAPAN</p>", "conditions": [24, 800, "v", 12000], "internal_node_id": "0.0-120.0", "trial": 5, "time_elapsed": 987659, "serialpos": 1, "key_press": -1, "wordID": 748, "type": "PRES_VIS", "trial_index": 174}, "uniqueid": "MTK2163:33TIN5LC05HJ9T5AH2T6HYFILUBY9P", "dateTime": 1516761459312}, {"current_trial": 175, "trialdata": {"rt": -1, "trial_type": "single-stim", "word": "plaza", "stimulus": "<p id=\"stim\">PLAZA</p>", "conditions": [24, 800, "v", 12000], "internal_node_id": "0.0-121.0", "trial": 5, "time_elapsed": 989426, "serialpos": 2, "key_press": -1, "wordID": 1087, "type": "PRES_VIS", "trial_index": 175}, "uniqueid": "MTK2163:33TIN5LC05HJ9T5AH2T6HYFILUBY9P", "dateTime": 1516761461079}, {"current_trial": 176, "trialdata": {"rt": -1, "trial_type": "single-stim", "word": "sidewalk", "stimulus": "<p id=\"stim\">SIDEWALK</p>", "conditions": [24, 800, "v", 12000], "internal_node_id": "0.0-122.0", "trial": 5, "time_elapsed": 991129, "serialpos": 3, "key_press": -1, "wordID": 1302, "type": "PRES_VIS", "trial_index": 176}, "uniqueid": "MTK2163:33TIN5LC05HJ9T5AH2T6HYFILUBY9P", "dateTime": 1516761462782}, {"current_trial": 177, "trialdata": {"rt": -1, "trial_type": "single-stim", "word": "bank", "stimulus": "<p id=\"stim\">BANK</p>", "conditions": [24, 800, "v", 12000], "internal_node_id": "0.0-123.0", "trial": 5, "time_elapsed": 992978, "serialpos": 4, "key_press": -1, "wordID": 82, "type": "PRES_VIS", "trial_index": 177}, "uniqueid": "MTK2163:33TIN5LC05HJ9T5AH2T6HYFILUBY9P", "dateTime": 1516761464631}, {"current_trial": 178, "trialdata": {"rt": -1, "trial_type": "single-stim", "word": "daisy", "stimulus": "<p id=\"stim\">DAISY</p>", "conditions": [24, 800, "v", 12000], "internal_node_id": "0.0-124.0", "trial": 5, "time_elapsed": 994654, "serialpos": 5, "key_press": -1, "wordID": 434, "type": "PRES_VIS", "trial_index": 178}, "uniqueid": "MTK2163:33TIN5LC05HJ9T5AH2T6HYFILUBY9P", "dateTime": 1516761466307}, {"current_trial": 179, "trialdata": {"rt": -1, "trial_type": "single-stim", "word": "flute", "stimulus": "<p id=\"stim\">FLUTE</p>", "conditions": [24, 800, "v", 12000], "internal_node_id": "0.0-125.0", "trial": 5, "time_elapsed": 996422, "serialpos": 6, "key_press": -1, "wordID": 584, "type": "PRES_VIS", "trial_index": 179}, "uniqueid": "MTK2163:33TIN5LC05HJ9T5AH2T6HYFILUBY9P", "dateTime": 1516761468075}, {"current_trial": 180, "trialdata": {"rt": -1, "trial_type": "single-stim", "word": "hedge", "stimulus": "<p id=\"stim\">HEDGE</p>", "conditions": [24, 800, "v", 12000], "internal_node_id": "0.0-126.0", "trial": 5, "time_elapsed": 998197, "serialpos": 7, "key_press": -1, "wordID": 698, "type": "PRES_VIS", "trial_index": 180}, "uniqueid": "MTK2163:33TIN5LC05HJ9T5AH2T6HYFILUBY9P", "dateTime": 1516761469850}, {"current_trial": 181, "trialdata": {"rt": -1, "trial_type": "single-stim", "word": "marine", "stimulus": "<p id=\"stim\">MARINE</p>", "conditions": [24, 800, "v", 12000], "internal_node_id": "0.0-127.0", "trial": 5, "time_elapsed": 1000038, "serialpos": 8, "key_press": -1, "wordID": 868, "type": "PRES_VIS", "trial_index": 181}, "uniqueid": "MTK2163:33TIN5LC05HJ9T5AH2T6HYFILUBY9P", "dateTime": 1516761471691}, {"current_trial": 182, "trialdata": {"rt": -1, "trial_type": "single-stim", "word": "flower", "stimulus": "<p id=\"stim\">FLOWER</p>", "conditions": [24, 800, "v", 12000], "internal_node_id": "0.0-128.0", "trial": 5, "time_elapsed": 1001736, "serialpos": 9, "key_press": -1, "wordID": 583, "type": "PRES_VIS", "trial_index": 182}, "uniqueid": "MTK2163:33TIN5LC05HJ9T5AH2T6HYFILUBY9P", "dateTime": 1516761473389}, {"current_trial": 183, "trialdata": {"rt": -1, "trial_type": "single-stim", "word": "mop", "stimulus": "<p id=\"stim\">MOP</p>", "conditions": [24, 800, "v", 12000], "internal_node_id": "0.0-129.0", "trial": 5, "time_elapsed": 1003490, "serialpos": 10, "key_press": -1, "wordID": 915, "type": "PRES_VIS", "trial_index": 183}, "uniqueid": "MTK2163:33TIN5LC05HJ9T5AH2T6HYFILUBY9P", "dateTime": 1516761475143}, {"current_trial": 184, "trialdata": {"rt": -1, "trial_type": "single-stim", "word": "cabin", "stimulus": "<p id=\"stim\">CABIN</p>", "conditions": [24, 800, "v", 12000], "internal_node_id": "0.0-130.0", "trial": 5, "time_elapsed": 1005225, "serialpos": 11, "key_press": -1, "wordID": 210, "type": "PRES_VIS", "trial_index": 184}, "uniqueid": "MTK2163:33TIN5LC05HJ9T5AH2T6HYFILUBY9P", "dateTime": 1516761476878}, {"current_trial": 185, "trialdata": {"rt": -1, "trial_type": "single-stim", "word": "bunny", "stimulus": "<p id=\"stim\">BUNNY</p>", "conditions": [24, 800, "v", 12000], "internal_node_id": "0.0-131.0", "trial": 5, "time_elapsed": 1007022, "serialpos": 12, "key_press": -1, "wordID": 197, "type": "PRES_VIS", "trial_index": 185}, "uniqueid": "MTK2163:33TIN5LC05HJ9T5AH2T6HYFILUBY9P", "dateTime": 1516761478675}, {"current_trial": 186, "trialdata": {"rt": -1, "trial_type": "single-stim", "word": "shelf", "stimulus": "<p id=\"stim\">SHELF</p>", "conditions": [24, 800, "v", 12000], "internal_node_id": "0.0-132.0", "trial": 5, "time_elapsed": 1008679, "serialpos": 13, "key_press": -1, "wordID": 1279, "type": "PRES_VIS", "trial_index": 186}, "uniqueid": "MTK2163:33TIN5LC05HJ9T5AH2T6HYFILUBY9P", "dateTime": 1516761480332}, {"current_trial": 187, "trialdata": {"rt": -1, "trial_type": "single-stim", "word": "cook", "stimulus": "<p id=\"stim\">COOK</p>", "conditions": [24, 800, "v", 12000], "internal_node_id": "0.0-133.0", "trial": 5, "time_elapsed": 1010638, "serialpos": 14, "key_press": -1, "wordID": 371, "type": "PRES_VIS", "trial_index": 187}, "uniqueid": "MTK2163:33TIN5LC05HJ9T5AH2T6HYFILUBY9P", "dateTime": 1516761482291}, {"current_trial": 188, "trialdata": {"rt": -1, "trial_type": "single-stim", "word": "grill", "stimulus": "<p id=\"stim\">GRILL</p>", "conditions": [24, 800, "v", 12000], "internal_node_id": "0.0-134.0", "trial": 5, "time_elapsed": 1012534, "serialpos": 15, "key_press": -1, "wordID": 660, "type": "PRES_VIS", "trial_index": 188}, "uniqueid": "MTK2163:33TIN5LC05HJ9T5AH2T6HYFILUBY9P", "dateTime": 1516761484187}, {"current_trial": 189, "trialdata": {"rt": -1, "trial_type": "single-stim", "word": "wrist", "stimulus": "<p id=\"stim\">WRIST</p>", "conditions": [24, 800, "v", 12000], "internal_node_id": "0.0-135.0", "trial": 5, "time_elapsed": 1014198, "serialpos": 16, "key_press": -1, "wordID": 1625, "type": "PRES_VIS", "trial_index": 189}, "uniqueid": "MTK2163:33TIN5LC05HJ9T5AH2T6HYFILUBY9P", "dateTime": 1516761485851}, {"current_trial": 190, "trialdata": {"rt": -1, "trial_type": "single-stim", "word": "widow", "stimulus": "<p id=\"stim\">WIDOW</p>", "conditions": [24, 800, "v", 12000], "internal_node_id": "0.0-136.0", "trial": 5, "time_elapsed": 1016173, "serialpos": 17, "key_press": -1, "wordID": 1607, "type": "PRES_VIS", "trial_index": 190}, "uniqueid": "MTK2163:33TIN5LC05HJ9T5AH2T6HYFILUBY9P", "dateTime": 1516761487826}, {"current_trial": 191, "trialdata": {"rt": -1, "trial_type": "single-stim", "word": "island", "stimulus": "<p id=\"stim\">ISLAND</p>", "conditions": [24, 800, "v", 12000], "internal_node_id": "0.0-137.0", "trial": 5, "time_elapsed": 1017937, "serialpos": 18, "key_press": -1, "wordID": 744, "type": "PRES_VIS", "trial_index": 191}, "uniqueid": "MTK2163:33TIN5LC05HJ9T5AH2T6HYFILUBY9P", "dateTime": 1516761489590}, {"current_trial": 192, "trialdata": {"rt": -1, "trial_type": "single-stim", "word": "jello", "stimulus": "<p id=\"stim\">JELLO</p>", "conditions": [24, 800, "v", 12000], "internal_node_id": "0.0-138.0", "trial": 5, "time_elapsed": 1019677, "serialpos": 19, "key_press": -1, "wordID": 753, "type": "PRES_VIS", "trial_index": 192}, "uniqueid": "MTK2163:33TIN5LC05HJ9T5AH2T6HYFILUBY9P", "dateTime": 1516761491330}, {"current_trial": 193, "trialdata": {"rt": -1, "trial_type": "single-stim", "word": "shoulder", "stimulus": "<p id=\"stim\">SHOULDER</p>", "conditions": [24, 800, "v", 12000], "internal_node_id": "0.0-139.0", "trial": 5, "time_elapsed": 1021425, "serialpos": 20, "key_press": -1, "wordID": 1293, "type": "PRES_VIS", "trial_index": 193}, "uniqueid": "MTK2163:33TIN5LC05HJ9T5AH2T6HYFILUBY9P", "dateTime": 1516761493078}, {"current_trial": 194, "trialdata": {"rt": -1, "trial_type": "single-stim", "word": "brandy", "stimulus": "<p id=\"stim\">BRANDY</p>", "conditions": [24, 800, "v", 12000], "internal_node_id": "0.0-140.0", "trial": 5, "time_elapsed": 1023261, "serialpos": 21, "key_press": -1, "wordID": 168, "type": "PRES_VIS", "trial_index": 194}, "uniqueid": "MTK2163:33TIN5LC05HJ9T5AH2T6HYFILUBY9P", "dateTime": 1516761494914}, {"current_trial": 195, "trialdata": {"rt": -1, "trial_type": "single-stim", "word": "salt", "stimulus": "<p id=\"stim\">SALT</p>", "conditions": [24, 800, "v", 12000], "internal_node_id": "0.0-141.0", "trial": 5, "time_elapsed": 1024917, "serialpos": 22, "key_press": -1, "wordID": 1228, "type": "PRES_VIS", "trial_index": 195}, "uniqueid": "MTK2163:33TIN5LC05HJ9T5AH2T6HYFILUBY9P", "dateTime": 1516761496570}, {"current_trial": 196, "trialdata": {"rt": -1, "trial_type": "single-stim", "word": "binder", "stimulus": "<p id=\"stim\">BINDER</p>", "conditions": [24, 800, "v", 12000], "internal_node_id": "0.0-142.0", "trial": 5, "time_elapsed": 1026752, "serialpos": 23, "key_press": -1, "wordID": 126, "type": "PRES_VIS", "trial_index": 196}, "uniqueid": "MTK2163:33TIN5LC05HJ9T5AH2T6HYFILUBY9P", "dateTime": 1516761498405}, {"current_trial": 197, "trialdata": {"rt": -1, "trial_type": "single-stim", "stimulus": "", "internal_node_id": "0.0-143.0-0.0", "time_elapsed": 1029212, "key_press": -1, "type": "PRE_RECALL_DELAY", "trial_index": 197}, "uniqueid": "MTK2163:33TIN5LC05HJ9T5AH2T6HYFILUBY9P", "dateTime": 1516761500865}, {"current_trial": 198, "trialdata": {"rt": -1000, "trial_type": "single-audio", "stimulus": "/static/audio/400Hz.wav", "internal_node_id": "0.0-144.0", "time_elapsed": 1029712, "key_press": -1, "type": "PRE_RECALL_ALERT", "trial_index": 198}, "uniqueid": "MTK2163:33TIN5LC05HJ9T5AH2T6HYFILUBY9P", "dateTime": 1516761501365}, {"current_trial": 199, "trialdata": {"rt": [1678, 2977, 4448, 7071, 9279, 10021, 20652, 36010, 51128], "recwords": ["jelly", "cod", "brandy", "cook", "shelf", "binder", "japan", "rabbit", "shelf"], "key_times": [339, 496, 563, 727, 936, 1678, 2265, 2379, 2794, 2977, 3230, 3316, 3396, 3510, 3656, 3807, 4448, 4898, 4899, 5078, 5294, 7071, 8660, 8762, 8882, 8950, 9083, 9279, 9505, 9577, 9689, 9728, 9875, 9932, 10021, 18144, 18282, 18360, 18528, 18681, 20652, 34399, 34577, 34943, 35109, 35332, 35836, 36010, 50458, 50581, 50710, 50783, 50911, 51128], "trial_type": "free-recall", "conditions": [24, 800, "v", 12000], "internal_node_id": "0.0-145.0-0.0", "key_presses": [74, 69, 76, 76, 89, 13, 67, 79, 68, 13, 66, 82, 65, 78, 68, 89, 13, 67, 79, 79, 75, 13, 83, 72, 69, 76, 70, 13, 66, 73, 78, 68, 69, 82, 13, 74, 65, 80, 65, 78, 13, 82, 65, 66, 66, 73, 84, 13, 83, 72, 69, 76, 70, 13], "trial": 5, "time_elapsed": 1089714, "type": "FREE_RECALL", "trial_index": 199}, "uniqueid": "MTK2163:33TIN5LC05HJ9T5AH2T6HYFILUBY9P", "dateTime": 1516761561368}, {"current_trial": 200, "trialdata": {"rt": 541, "trial_type": "text", "internal_node_id": "0.0-146.0", "time_elapsed": 1092256, "key_press": 97, "type": "INSTRUCTIONS", "trial_index": 200}, "uniqueid": "MTK2163:33TIN5LC05HJ9T5AH2T6HYFILUBY9P", "dateTime": 1516761563909}, {"current_trial": 201, "trialdata": {"rt": [2438, 3782, 5401, 6972, 8525, 10017, 11452, 13310, 14677, 16100, 17748, 19997, 22468, 23741], "trial_type": "math-distractor", "key_times": [2157, 2323, 2438, 3533, 3678, 3782, 5143, 5228, 5401, 6714, 6802, 6972, 8269, 8434, 8525, 9794, 9935, 10017, 11267, 11452, 13114, 13182, 13310, 14456, 14599, 14677, 15866, 16010, 16100, 17552, 17614, 17748, 19836, 19902, 19997, 22189, 22357, 22468, 23604, 23741], "responses": ["14", "14", "23", "13", "14", "11", "6", "16", "14", "11", "10", "15", "25", "6"], "num2": [6, 4, 6, 2, 6, 5, 1, 4, 7, 4, 2, 3, 7, 4, 7], "num3": [5, 7, 7, 7, 5, 3, 2, 6, 3, 3, 5, 8, 9, 1, 2], "conditions": [12, 1600, "v", 24000], "internal_node_id": "0.0-147.0", "key_presses": [97, 100, 13, 97, 100, 13, 98, 99, 13, 97, 99, 13, 97, 100, 13, 97, 97, 13, 102, 13, 97, 102, 13, 97, 100, 13, 97, 97, 13, 97, 96, 13, 97, 101, 13, 98, 101, 13, 102, 13], "trial": 6, "time_elapsed": 1118256, "type": "DISTRACTOR", "trial_index": 201, "num1": [3, 3, 7, 4, 3, 7, 4, 9, 4, 4, 3, 4, 9, 1, 7]}, "uniqueid": "MTK2163:33TIN5LC05HJ9T5AH2T6HYFILUBY9P", "dateTime": 1516761589909}, {"current_trial": 202, "trialdata": {"rt": -1, "trial_type": "single-stim", "stimulus": "<p id=\"stim\">10</p>", "internal_node_id": "0.0-148.0-0.0", "time_elapsed": 1121256, "key_press": -1, "trial_index": 202}, "uniqueid": "MTK2163:33TIN5LC05HJ9T5AH2T6HYFILUBY9P", "dateTime": 1516761592909}, {"current_trial": 203, "trialdata": {"rt": -1, "trial_type": "single-stim", "stimulus": "<p id=\"stim\">9</p>", "internal_node_id": "0.0-148.0-1.0", "time_elapsed": 1122256, "key_press": -1, "trial_index": 203}, "uniqueid": "MTK2163:33TIN5LC05HJ9T5AH2T6HYFILUBY9P", "dateTime": 1516761593909}, {"current_trial": 204, "trialdata": {"rt": -1, "trial_type": "single-stim", "stimulus": "<p id=\"stim\">8</p>", "internal_node_id": "0.0-148.0-2.0", "time_elapsed": 1123256, "key_press": -1, "trial_index": 204}, "uniqueid": "MTK2163:33TIN5LC05HJ9T5AH2T6HYFILUBY9P", "dateTime": 1516761594909}, {"current_trial": 205, "trialdata": {"rt": -1, "trial_type": "single-stim", "stimulus": "<p id=\"stim\">7</p>", "internal_node_id": "0.0-148.0-3.0", "time_elapsed": 1124256, "key_press": -1, "trial_index": 205}, "uniqueid": "MTK2163:33TIN5LC05HJ9T5AH2T6HYFILUBY9P", "dateTime": 1516761595909}, {"current_trial": 206, "trialdata": {"rt": -1, "trial_type": "single-stim", "stimulus": "<p id=\"stim\">6</p>", "internal_node_id": "0.0-148.0-4.0", "time_elapsed": 1125257, "key_press": -1, "trial_index": 206}, "uniqueid": "MTK2163:33TIN5LC05HJ9T5AH2T6HYFILUBY9P", "dateTime": 1516761596910}, {"current_trial": 207, "trialdata": {"rt": -1, "trial_type": "single-stim", "stimulus": "<p id=\"stim\">5</p>", "internal_node_id": "0.0-148.0-5.0", "time_elapsed": 1126257, "key_press": -1, "trial_index": 207}, "uniqueid": "MTK2163:33TIN5LC05HJ9T5AH2T6HYFILUBY9P", "dateTime": 1516761597910}, {"current_trial": 208, "trialdata": {"rt": -1, "trial_type": "single-stim", "stimulus": "<p id=\"stim\">4</p>", "internal_node_id": "0.0-148.0-6.0", "time_elapsed": 1127257, "key_press": -1, "trial_index": 208}, "uniqueid": "MTK2163:33TIN5LC05HJ9T5AH2T6HYFILUBY9P", "dateTime": 1516761598910}, {"current_trial": 209, "trialdata": {"rt": -1, "trial_type": "single-stim", "stimulus": "<p id=\"stim\">3</p>", "internal_node_id": "0.0-148.0-7.0", "time_elapsed": 1128257, "key_press": -1, "trial_index": 209}, "uniqueid": "MTK2163:33TIN5LC05HJ9T5AH2T6HYFILUBY9P", "dateTime": 1516761599910}, {"current_trial": 210, "trialdata": {"rt": -1, "trial_type": "single-stim", "stimulus": "<p id=\"stim\">2</p>", "internal_node_id": "0.0-148.0-8.0", "time_elapsed": 1129257, "key_press": -1, "trial_index": 210}, "uniqueid": "MTK2163:33TIN5LC05HJ9T5AH2T6HYFILUBY9P", "dateTime": 1516761600910}, {"current_trial": 211, "trialdata": {"rt": -1, "trial_type": "single-stim", "stimulus": "<p id=\"stim\">1</p>", "internal_node_id": "0.0-148.0-9.0", "time_elapsed": 1130257, "key_press": -1, "trial_index": 211}, "uniqueid": "MTK2163:33TIN5LC05HJ9T5AH2T6HYFILUBY9P", "dateTime": 1516761601910}, {"current_trial": 212, "trialdata": {"rt": -1, "trial_type": "single-stim", "stimulus": "<p id=\"stim\">+</p>", "internal_node_id": "0.0-149.0-0.0", "time_elapsed": 1131758, "key_press": -1, "type": "FIXATION", "trial_index": 212}, "uniqueid": "MTK2163:33TIN5LC05HJ9T5AH2T6HYFILUBY9P", "dateTime": 1516761603411}, {"current_trial": 213, "trialdata": {"rt": -1, "trial_type": "single-stim", "word": "judge", "stimulus": "<p id=\"stim\">JUDGE</p>", "conditions": [12, 1600, "v", 24000], "internal_node_id": "0.0-150.0", "trial": 6, "time_elapsed": 1133358, "serialpos": 0, "key_press": -1, "wordID": 760, "type": "PRES_VIS", "trial_index": 213}, "uniqueid": "MTK2163:33TIN5LC05HJ9T5AH2T6HYFILUBY9P", "dateTime": 1516761605011}, {"current_trial": 214, "trialdata": {"rt": -1, "trial_type": "single-stim", "word": "tuba", "stimulus": "<p id=\"stim\">TUBA</p>", "conditions": [12, 1600, "v", 24000], "internal_node_id": "0.0-151.0", "trial": 6, "time_elapsed": 1136056, "serialpos": 1, "key_press": -1, "wordID": 1514, "type": "PRES_VIS", "trial_index": 214}, "uniqueid": "MTK2163:33TIN5LC05HJ9T5AH2T6HYFILUBY9P", "dateTime": 1516761607709}, {"current_trial": 215, "trialdata": {"rt": -1, "trial_type": "single-stim", "word": "slide", "stimulus": "<p id=\"stim\">SLIDE</p>", "conditions": [12, 1600, "v", 24000], "internal_node_id": "0.0-152.0", "trial": 6, "time_elapsed": 1138494, "serialpos": 2, "key_press": -1, "wordID": 1325, "type": "PRES_VIS", "trial_index": 215}, "uniqueid": "MTK2163:33TIN5LC05HJ9T5AH2T6HYFILUBY9P", "dateTime": 1516761610147}, {"current_trial": 216, "trialdata": {"rt": -1, "trial_type": "single-stim", "word": "backbone", "stimulus": "<p id=\"stim\">BACKBONE</p>", "conditions": [12, 1600, "v", 24000], "internal_node_id": "0.0-153.0", "trial": 6, "time_elapsed": 1140971, "serialpos": 3, "key_press": -1, "wordID": 65, "type": "PRES_VIS", "trial_index": 216}, "uniqueid": "MTK2163:33TIN5LC05HJ9T5AH2T6HYFILUBY9P", "dateTime": 1516761612624}, {"current_trial": 217, "trialdata": {"rt": -1, "trial_type": "single-stim", "word": "woman", "stimulus": "<p id=\"stim\">WOMAN</p>", "conditions": [12, 1600, "v", 24000], "internal_node_id": "0.0-154.0", "trial": 6, "time_elapsed": 1143450, "serialpos": 4, "key_press": -1, "wordID": 1619, "type": "PRES_VIS", "trial_index": 217}, "uniqueid": "MTK2163:33TIN5LC05HJ9T5AH2T6HYFILUBY9P", "dateTime": 1516761615103}, {"current_trial": 218, "trialdata": {"rt": -1, "trial_type": "single-stim", "word": "critic", "stimulus": "<p id=\"stim\">CRITIC</p>", "conditions": [12, 1600, "v", 24000], "internal_node_id": "0.0-155.0", "trial": 6, "time_elapsed": 1145911, "serialpos": 5, "key_press": -1, "wordID": 409, "type": "PRES_VIS", "trial_index": 218}, "uniqueid": "MTK2163:33TIN5LC05HJ9T5AH2T6HYFILUBY9P", "dateTime": 1516761617564}, {"current_trial": 219, "trialdata": {"rt": -1, "trial_type": "single-stim", "word": "expert", "stimulus": "<p id=\"stim\">EXPERT</p>", "conditions": [12, 1600, "v", 24000], "internal_node_id": "0.0-156.0", "trial": 6, "time_elapsed": 1148479, "serialpos": 6, "key_press": -1, "wordID": 542, "type": "PRES_VIS", "trial_index": 219}, "uniqueid": "MTK2163:33TIN5LC05HJ9T5AH2T6HYFILUBY9P", "dateTime": 1516761620132}, {"current_trial": 220, "trialdata": {"rt": -1, "trial_type": "single-stim", "word": "piano", "stimulus": "<p id=\"stim\">PIANO</p>", "conditions": [12, 1600, "v", 24000], "internal_node_id": "0.0-157.0", "trial": 6, "time_elapsed": 1151005, "serialpos": 7, "key_press": -1, "wordID": 1056, "type": "PRES_VIS", "trial_index": 220}, "uniqueid": "MTK2163:33TIN5LC05HJ9T5AH2T6HYFILUBY9P", "dateTime": 1516761622658}, {"current_trial": 221, "trialdata": {"rt": -1, "trial_type": "single-stim", "word": "clothes", "stimulus": "<p id=\"stim\">CLOTHES</p>", "conditions": [12, 1600, "v", 24000], "internal_node_id": "0.0-158.0", "trial": 6, "time_elapsed": 1153654, "serialpos": 8, "key_press": -1, "wordID": 326, "type": "PRES_VIS", "trial_index": 221}, "uniqueid": "MTK2163:33TIN5LC05HJ9T5AH2T6HYFILUBY9P", "dateTime": 1516761625307}, {"current_trial": 222, "trialdata": {"rt": -1, "trial_type": "single-stim", "word": "wardrobe", "stimulus": "<p id=\"stim\">WARDROBE</p>", "conditions": [12, 1600, "v", 24000], "internal_node_id": "0.0-159.0", "trial": 6, "time_elapsed": 1156180, "serialpos": 9, "key_press": -1, "wordID": 1586, "type": "PRES_VIS", "trial_index": 222}, "uniqueid": "MTK2163:33TIN5LC05HJ9T5AH2T6HYFILUBY9P", "dateTime": 1516761627833}, {"current_trial": 223, "trialdata": {"rt": -1, "trial_type": "single-stim", "word": "guitar", "stimulus": "<p id=\"stim\">GUITAR</p>", "conditions": [12, 1600, "v", 24000], "internal_node_id": "0.0-160.0", "trial": 6, "time_elapsed": 1158961, "serialpos": 10, "key_press": -1, "wordID": 669, "type": "PRES_VIS", "trial_index": 223}, "uniqueid": "MTK2163:33TIN5LC05HJ9T5AH2T6HYFILUBY9P", "dateTime": 1516761630614}, {"current_trial": 224, "trialdata": {"rt": -1, "trial_type": "single-stim", "word": "farmer", "stimulus": "<p id=\"stim\">FARMER</p>", "conditions": [12, 1600, "v", 24000], "internal_node_id": "0.0-161.0", "trial": 6, "time_elapsed": 1161612, "serialpos": 11, "key_press": -1, "wordID": 552, "type": "PRES_VIS", "trial_index": 224}, "uniqueid": "MTK2163:33TIN5LC05HJ9T5AH2T6HYFILUBY9P", "dateTime": 1516761633265}, {"current_trial": 225, "trialdata": {"rt": -1, "trial_type": "single-stim", "stimulus": "", "internal_node_id": "0.0-162.0-0.0", "time_elapsed": 1164170, "key_press": -1, "type": "PRE_RECALL_DELAY", "trial_index": 225}, "uniqueid": "MTK2163:33TIN5LC05HJ9T5AH2T6HYFILUBY9P", "dateTime": 1516761635823}, {"current_trial": 226, "trialdata": {"rt": -1000, "trial_type": "single-audio", "stimulus": "/static/audio/400Hz.wav", "internal_node_id": "0.0-163.0", "time_elapsed": 1164670, "key_press": -1, "type": "PRE_RECALL_ALERT", "trial_index": 226}, "uniqueid": "MTK2163:33TIN5LC05HJ9T5AH2T6HYFILUBY9P", "dateTime": 1516761636323}, {"current_trial": 227, "trialdata": {"rt": [1870, 3575, 4577, 7965, 11099, 12453, 23696, 25015, 27457, 36588], "recwords": ["guitar", "women", "clothes", "wardrobe", "judge", "slide", "critic", "backbone", "women", "tuba"], "key_times": [377, 493, 580, 695, 861, 977, 1870, 2197, 2318, 2406, 2586, 2686, 3575, 3767, 3837, 4013, 4101, 4189, 4322, 4403, 4577, 4741, 4961, 5013, 5496, 6274, 6404, 6470, 6590, 7965, 8497, 8635, 8702, 9263, 9445, 9597, 9957, 10160, 10280, 10401, 10539, 11099, 11428, 11503, 11583, 11699, 11900, 12453, 21061, 21274, 21400, 21528, 21614, 21767, 23696, 23969, 24093, 24165, 24225, 24410, 24639, 24739, 24859, 25015, 26883, 26923, 27022, 27164, 27239, 27457, 36026, 36153, 36237, 36387, 36588], "trial_type": "free-recall", "conditions": [12, 1600, "v", 24000], "internal_node_id": "0.0-164.0-0.0", "key_presses": [71, 85, 73, 84, 65, 82, 13, 87, 79, 77, 69, 78, 13, 67, 76, 79, 84, 72, 69, 83, 13, 87, 65, 82, 68, 82, 79, 66, 69, 13, 83, 76, 73, 8, 8, 8, 74, 85, 68, 71, 69, 13, 83, 76, 73, 68, 69, 13, 67, 82, 73, 84, 73, 67, 13, 66, 65, 67, 75, 66, 79, 78, 69, 13, 87, 79, 77, 69, 78, 13, 84, 85, 66, 65, 13], "trial": 6, "time_elapsed": 1224670, "type": "FREE_RECALL", "trial_index": 227}, "uniqueid": "MTK2163:33TIN5LC05HJ9T5AH2T6HYFILUBY9P", "dateTime": 1516761696325}, {"current_trial": 228, "trialdata": {"rt": 2069, "trial_type": "text", "internal_node_id": "0.0-165.0", "time_elapsed": 1228741, "key_press": 17, "type": "INSTRUCTIONS", "trial_index": 228}, "uniqueid": "MTK2163:33TIN5LC05HJ9T5AH2T6HYFILUBY9P", "dateTime": 1516761700395}, {"current_trial": 229, "trialdata": {"rt": [2207, 3663, 4910, 6275, 7618, 9166, 10690, 11915, 13410, 15110, 16810, 19663, 21417, 23082], "trial_type": "math-distractor", "key_times": [1365, 2207, 3424, 3567, 3663, 4718, 4798, 4910, 6039, 6150, 6275, 7392, 7524, 7618, 8767, 8911, 9166, 10544, 10690, 11797, 11915, 13248, 13300, 13410, 14936, 14998, 15110, 16626, 16810, 19339, 19535, 19663, 21161, 21248, 21417, 22915, 22980, 23082], "responses": ["9", "14", "12", "18", "22", "22", "7", "5", "15", "20", "9", "17", "19", "12"], "num2": [3, 8, 7, 8, 9, 8, 5, 3, 5, 5, 1, 4, 8, 6, 4], "num3": [1, 3, 4, 5, 4, 6, 1, 1, 1, 7, 3, 5, 6, 3, 2], "conditions": [12, 800, "v", 24000], "internal_node_id": "0.0-166.0", "key_presses": [105, 13, 97, 100, 13, 97, 98, 13, 97, 104, 13, 98, 98, 13, 98, 98, 13, 103, 13, 101, 13, 97, 101, 13, 98, 96, 13, 105, 13, 97, 103, 13, 97, 105, 13, 97, 98, 13], "trial": 7, "time_elapsed": 1254743, "type": "DISTRACTOR", "trial_index": 229, "num1": [5, 3, 1, 5, 9, 8, 1, 1, 9, 8, 5, 8, 5, 4, 4]}, "uniqueid": "MTK2163:33TIN5LC05HJ9T5AH2T6HYFILUBY9P", "dateTime": 1516761726396}, {"current_trial": 230, "trialdata": {"rt": -1, "trial_type": "single-stim", "stimulus": "<p id=\"stim\">10</p>", "internal_node_id": "0.0-167.0-0.0", "time_elapsed": 1257743, "key_press": -1, "trial_index": 230}, "uniqueid": "MTK2163:33TIN5LC05HJ9T5AH2T6HYFILUBY9P", "dateTime": 1516761729396}, {"current_trial": 231, "trialdata": {"rt": -1, "trial_type": "single-stim", "stimulus": "<p id=\"stim\">9</p>", "internal_node_id": "0.0-167.0-1.0", "time_elapsed": 1258743, "key_press": -1, "trial_index": 231}, "uniqueid": "MTK2163:33TIN5LC05HJ9T5AH2T6HYFILUBY9P", "dateTime": 1516761730396}, {"current_trial": 232, "trialdata": {"rt": -1, "trial_type": "single-stim", "stimulus": "<p id=\"stim\">8</p>", "internal_node_id": "0.0-167.0-2.0", "time_elapsed": 1259743, "key_press": -1, "trial_index": 232}, "uniqueid": "MTK2163:33TIN5LC05HJ9T5AH2T6HYFILUBY9P", "dateTime": 1516761731396}, {"current_trial": 233, "trialdata": {"rt": -1, "trial_type": "single-stim", "stimulus": "<p id=\"stim\">7</p>", "internal_node_id": "0.0-167.0-3.0", "time_elapsed": 1260743, "key_press": -1, "trial_index": 233}, "uniqueid": "MTK2163:33TIN5LC05HJ9T5AH2T6HYFILUBY9P", "dateTime": 1516761732396}, {"current_trial": 234, "trialdata": {"rt": -1, "trial_type": "single-stim", "stimulus": "<p id=\"stim\">6</p>", "internal_node_id": "0.0-167.0-4.0", "time_elapsed": 1261743, "key_press": -1, "trial_index": 234}, "uniqueid": "MTK2163:33TIN5LC05HJ9T5AH2T6HYFILUBY9P", "dateTime": 1516761733396}, {"current_trial": 235, "trialdata": {"rt": -1, "trial_type": "single-stim", "stimulus": "<p id=\"stim\">5</p>", "internal_node_id": "0.0-167.0-5.0", "time_elapsed": 1262743, "key_press": -1, "trial_index": 235}, "uniqueid": "MTK2163:33TIN5LC05HJ9T5AH2T6HYFILUBY9P", "dateTime": 1516761734396}, {"current_trial": 236, "trialdata": {"rt": -1, "trial_type": "single-stim", "stimulus": "<p id=\"stim\">4</p>", "internal_node_id": "0.0-167.0-6.0", "time_elapsed": 1263743, "key_press": -1, "trial_index": 236}, "uniqueid": "MTK2163:33TIN5LC05HJ9T5AH2T6HYFILUBY9P", "dateTime": 1516761735396}, {"current_trial": 237, "trialdata": {"rt": -1, "trial_type": "single-stim", "stimulus": "<p id=\"stim\">3</p>", "internal_node_id": "0.0-167.0-7.0", "time_elapsed": 1264743, "key_press": -1, "trial_index": 237}, "uniqueid": "MTK2163:33TIN5LC05HJ9T5AH2T6HYFILUBY9P", "dateTime": 1516761736396}, {"current_trial": 238, "trialdata": {"rt": -1, "trial_type": "single-stim", "stimulus": "<p id=\"stim\">2</p>", "internal_node_id": "0.0-167.0-8.0", "time_elapsed": 1265743, "key_press": -1, "trial_index": 238}, "uniqueid": "MTK2163:33TIN5LC05HJ9T5AH2T6HYFILUBY9P", "dateTime": 1516761737396}, {"current_trial": 239, "trialdata": {"rt": -1, "trial_type": "single-stim", "stimulus": "<p id=\"stim\">1</p>", "internal_node_id": "0.0-167.0-9.0", "time_elapsed": 1266743, "key_press": -1, "trial_index": 239}, "uniqueid": "MTK2163:33TIN5LC05HJ9T5AH2T6HYFILUBY9P", "dateTime": 1516761738396}, {"current_trial": 240, "trialdata": {"rt": -1, "trial_type": "single-stim", "stimulus": "<p id=\"stim\">+</p>", "internal_node_id": "0.0-168.0-0.0", "time_elapsed": 1268243, "key_press": -1, "type": "FIXATION", "trial_index": 240}, "uniqueid": "MTK2163:33TIN5LC05HJ9T5AH2T6HYFILUBY9P", "dateTime": 1516761739896}, {"current_trial": 241, "trialdata": {"rt": -1, "trial_type": "single-stim", "word": "lake", "stimulus": "<p id=\"stim\">LAKE</p>", "conditions": [12, 800, "v", 24000], "internal_node_id": "0.0-169.0", "trial": 7, "time_elapsed": 1269044, "serialpos": 0, "key_press": -1, "wordID": 795, "type": "PRES_VIS", "trial_index": 241}, "uniqueid": "MTK2163:33TIN5LC05HJ9T5AH2T6HYFILUBY9P", "dateTime": 1516761740697}, {"current_trial": 242, "trialdata": {"rt": -1, "trial_type": "single-stim", "word": "office", "stimulus": "<p id=\"stim\">OFFICE</p>", "conditions": [12, 800, "v", 24000], "internal_node_id": "0.0-170.0", "trial": 7, "time_elapsed": 1271003, "serialpos": 1, "key_press": -1, "wordID": 971, "type": "PRES_VIS", "trial_index": 242}, "uniqueid": "MTK2163:33TIN5LC05HJ9T5AH2T6HYFILUBY9P", "dateTime": 1516761742656}, {"current_trial": 243, "trialdata": {"rt": -1, "trial_type": "single-stim", "word": "wasp", "stimulus": "<p id=\"stim\">WASP</p>", "conditions": [12, 800, "v", 24000], "internal_node_id": "0.0-171.0", "trial": 7, "time_elapsed": 1272923, "serialpos": 2, "key_press": -1, "wordID": 1592, "type": "PRES_VIS", "trial_index": 243}, "uniqueid": "MTK2163:33TIN5LC05HJ9T5AH2T6HYFILUBY9P", "dateTime": 1516761744576}, {"current_trial": 244, "trialdata": {"rt": -1, "trial_type": "single-stim", "word": "daughter", "stimulus": "<p id=\"stim\">DAUGHTER</p>", "conditions": [12, 800, "v", 24000], "internal_node_id": "0.0-172.0", "trial": 7, "time_elapsed": 1274637, "serialpos": 3, "key_press": -1, "wordID": 441, "type": "PRES_VIS", "trial_index": 244}, "uniqueid": "MTK2163:33TIN5LC05HJ9T5AH2T6HYFILUBY9P", "dateTime": 1516761746290}, {"current_trial": 245, "trialdata": {"rt": -1, "trial_type": "single-stim", "word": "omelet", "stimulus": "<p id=\"stim\">OMELET</p>", "conditions": [12, 800, "v", 24000], "internal_node_id": "0.0-173.0", "trial": 7, "time_elapsed": 1276561, "serialpos": 4, "key_press": -1, "wordID": 975, "type": "PRES_VIS", "trial_index": 245}, "uniqueid": "MTK2163:33TIN5LC05HJ9T5AH2T6HYFILUBY9P", "dateTime": 1516761748214}, {"current_trial": 246, "trialdata": {"rt": -1, "trial_type": "single-stim", "word": "female", "stimulus": "<p id=\"stim\">FEMALE</p>", "conditions": [12, 800, "v", 24000], "internal_node_id": "0.0-174.0", "trial": 7, "time_elapsed": 1278187, "serialpos": 5, "key_press": -1, "wordID": 558, "type": "PRES_VIS", "trial_index": 246}, "uniqueid": "MTK2163:33TIN5LC05HJ9T5AH2T6HYFILUBY9P", "dateTime": 1516761749840}, {"current_trial": 247, "trialdata": {"rt": -1, "trial_type": "single-stim", "word": "blade", "stimulus": "<p id=\"stim\">BLADE</p>", "conditions": [12, 800, "v", 24000], "internal_node_id": "0.0-175.0", "trial": 7, "time_elapsed": 1280029, "serialpos": 6, "key_press": -1, "wordID": 133, "type": "PRES_VIS", "trial_index": 247}, "uniqueid": "MTK2163:33TIN5LC05HJ9T5AH2T6HYFILUBY9P", "dateTime": 1516761751682}, {"current_trial": 248, "trialdata": {"rt": -1, "trial_type": "single-stim", "word": "dashboard", "stimulus": "<p id=\"stim\">DASHBOARD</p>", "conditions": [12, 800, "v", 24000], "internal_node_id": "0.0-176.0", "trial": 7, "time_elapsed": 1281933, "serialpos": 7, "key_press": -1, "wordID": 440, "type": "PRES_VIS", "trial_index": 248}, "uniqueid": "MTK2163:33TIN5LC05HJ9T5AH2T6HYFILUBY9P", "dateTime": 1516761753586}, {"curr