{"assignmentId": "32ZKVD547GU1HJNJQ1ECIAEV12I3BG", "workerId": "MTK2267", "questiondata": {"origin": "United States", "strat-rehearsal": "0", "marital": "Married/Domestic Partnership", "education": "Bachelor's degree", "ethnicity": "Not Hispanic", "color_depth": 24, "distracted": "No", "wrote-notes": "No", "strat-other": "", "screen_width": 1920, "avail_screen_width": 1920, "avail_screen_height": 1040, "strat-image": "78", "language": "english", "gender": "Female", "age": "37", "gender_other": "", "race": ["White"], "strat-categorize": "46", "pixel_depth": 24, "strat-spatial": "0", "strat-story": "0", "race_other": "", "screen_height": 1080}, "bonus": 0, "hitId": "37G6BXQPLQSP837B81NW76H7V0EEQN", "counterbalance": 1600, "useragent": "Mozilla/5.0 (Windows NT 10.0; Win64; x64) AppleWebKit/537.36 (KHTML, like Gecko) Chrome/63.0.3239.132 Safari/537.36", "eventdata": [{"eventtype": "initialized", "interval": 0, "value": null, "timestamp": 1516907748272}, {"eventtype": "window_resize", "interval": 0, "value": [1920, 1033], "timestamp": 1516907748272}, {"eventtype": "window_resize", "interval": 42169, "value": [1920, 989], "timestamp": 1516907790441}, {"eventtype": "focus", "interval": 305588, "value": "off", "timestamp": 1516908096029}, {"eventtype": "focus", "interval": 21020, "value": "on", "timestamp": 1516908117049}, {"eventtype": "window_resize", "interval": 102585, "value": [1920, 1033], "timestamp": 1516908219634}, {"eventtype": "focus", "interval": 1500, "value": "off", "timestamp": 1516908221134}, {"eventtype": "focus", "interval": 1375284, "value": "on", "timestamp": 1516909596418}, {"eventtype": "focus", "interval": 1221810, "value": "off", "timestamp": 1516910818228}, {"eventtype": "focus", "interval": 31336, "value": "on", "timestamp": 1516910849564}, {"eventtype": "focus", "interval": 9580, "value": "off", "timestamp": 1516910859144}, {"eventtype": "focus", "interval": 9139, "value": "on", "timestamp": 1516910868283}, {"eventtype": "focus", "interval": 30012, "value": "off", "timestamp": 1516910898295}, {"eventtype": "focus", "interval": 16273, "value": "on", "timestamp": 1516910914568}, {"eventtype": "focus", "interval": 950817, "value": "off", "timestamp": 1516911865385}, {"eventtype": "focus", "interval": 28453, "value": "on", "timestamp": 1516911893838}], "data": [{"current_trial": 0, "trialdata": {"rt": 2999, "trial_type": "text", "internal_node_id": "0.0-0.0", "time_elapsed": 3007, "key_press": 32, "type": "INSTRUCTIONS", "trial_index": 0}, "uniqueid": "MTK2267:32ZKVD547GU1HJNJQ1ECIAEV12I3BG", "dateTime": 1516907762496}, {"current_trial": 1, "trialdata": {"rt": 16082, "trial_type": "text", "internal_node_id": "0.0-1.0", "time_elapsed": 19093, "key_press": 32, "type": "INSTRUCTIONS", "trial_index": 1}, "uniqueid": "MTK2267:32ZKVD547GU1HJNJQ1ECIAEV12I3BG", "dateTime": 1516907778581}, {"current_trial": 2, "trialdata": {"rt": [32065], "trial_type": "audio-test", "responses": ["ocean"], "internal_node_id": "0.0-2.0", "time_elapsed": 51180, "type": "AUDIO_TEST", "trial_index": 2}, "uniqueid": "MTK2267:32ZKVD547GU1HJNJQ1ECIAEV12I3BG", "dateTime": 1516907810667}, {"current_trial": 3, "trialdata": {"rt": [7276], "trial_type": "audio-test", "responses": ["crystal"], "internal_node_id": "0.0-3.0", "time_elapsed": 58460, "type": "AUDIO_TEST", "trial_index": 3}, "uniqueid": "MTK2267:32ZKVD547GU1HJNJQ1ECIAEV12I3BG", "dateTime": 1516907817947}, {"current_trial": 4, "trialdata": {"rt": [4778], "trial_type": "audio-test", "responses": ["spice"], "internal_node_id": "0.0-4.0", "time_elapsed": 63243, "type": "AUDIO_TEST", "trial_index": 4}, "uniqueid": "MTK2267:32ZKVD547GU1HJNJQ1ECIAEV12I3BG", "dateTime": 1516907822730}, {"current_trial": 5, "trialdata": {"rt": 18760, "trial_type": "survey-text", "responses": "{\"Q0\":\"12:15am\",\"Q1\":\"7:00am\",\"Q2\":\"4\"}", "internal_node_id": "0.0-5.0", "time_elapsed": 82756, "type": "SLEEP_SURVEY", "trial_index": 5}, "uniqueid": "MTK2267:32ZKVD547GU1HJNJQ1ECIAEV12I3BG", "dateTime": 1516907842243}, {"current_trial": 6, "trialdata": {"rt": 29102, "trial_type": "text", "internal_node_id": "0.0-6.0", "time_elapsed": 112859, "key_press": 32, "type": "INSTRUCTIONS", "trial_index": 6}, "uniqueid": "MTK2267:32ZKVD547GU1HJNJQ1ECIAEV12I3BG", "dateTime": 1516907872346}, {"current_trial": 7, "trialdata": {"rt": 13291, "trial_type": "text", "internal_node_id": "0.0-7.0", "time_elapsed": 126652, "key_press": 32, "type": "INSTRUCTIONS", "trial_index": 7}, "uniqueid": "MTK2267:32ZKVD547GU1HJNJQ1ECIAEV12I3BG", "dateTime": 1516907886139}, {"current_trial": 8, "trialdata": {"rt": 9832, "trial_type": "text", "internal_node_id": "0.0-8.0", "time_elapsed": 136987, "key_press": 76, "type": "INSTRUCTIONS", "trial_index": 8}, "uniqueid": "MTK2267:32ZKVD547GU1HJNJQ1ECIAEV12I3BG", "dateTime": 1516907896474}, {"current_trial": 9, "trialdata": {"rt": [5156, 10964, 15244, 17132], "trial_type": "math-distractor", "key_times": [4173, 4420, 5156, 10541, 10748, 10964, 14628, 14869, 15244, 16900, 17132], "responses": ["17", "21", "17", "9"], "num2": [3, 9, 6, 1, 8], "num3": [7, 4, 7, 4, 2], "conditions": [18, 1200, "a", 18000], "internal_node_id": "0.0-9.0", "key_presses": [97, 103, 13, 98, 97, 13, 97, 103, 13, 105, 13], "trial": 0, "time_elapsed": 155991, "type": "DISTRACTOR", "trial_index": 9, "num1": [7, 8, 4, 4, 2]}, "uniqueid": "MTK2267:32ZKVD547GU1HJNJQ1ECIAEV12I3BG", "dateTime": 1516907915478}, {"current_trial": 10, "trialdata": {"rt": -1, "trial_type": "single-stim", "stimulus": "<p id=\"stim\">10</p>", "internal_node_id": "0.0-10.0-0.0", "time_elapsed": 158995, "key_press": -1, "trial_index": 10}, "uniqueid": "MTK2267:32ZKVD547GU1HJNJQ1ECIAEV12I3BG", "dateTime": 1516907918482}, {"current_trial": 11, "trialdata": {"rt": -1, "trial_type": "single-stim", "stimulus": "<p id=\"stim\">9</p>", "internal_node_id": "0.0-10.0-1.0", "time_elapsed": 159998, "key_press": -1, "trial_index": 11}, "uniqueid": "MTK2267:32ZKVD547GU1HJNJQ1ECIAEV12I3BG", "dateTime": 1516907919485}, {"current_trial": 12, "trialdata": {"rt": -1, "trial_type": "single-stim", "stimulus": "<p id=\"stim\">8</p>", "internal_node_id": "0.0-10.0-2.0", "time_elapsed": 161000, "key_press": -1, "trial_index": 12}, "uniqueid": "MTK2267:32ZKVD547GU1HJNJQ1ECIAEV12I3BG", "dateTime": 1516907920487}, {"current_trial": 13, "trialdata": {"rt": -1, "trial_type": "single-stim", "stimulus": "<p id=\"stim\">7</p>", "internal_node_id": "0.0-10.0-3.0", "time_elapsed": 162002, "key_press": -1, "trial_index": 13}, "uniqueid": "MTK2267:32ZKVD547GU1HJNJQ1ECIAEV12I3BG", "dateTime": 1516907921489}, {"current_trial": 14, "trialdata": {"rt": -1, "trial_type": "single-stim", "stimulus": "<p id=\"stim\">6</p>", "internal_node_id": "0.0-10.0-4.0", "time_elapsed": 163004, "key_press": -1, "trial_index": 14}, "uniqueid": "MTK2267:32ZKVD547GU1HJNJQ1ECIAEV12I3BG", "dateTime": 1516907922491}, {"current_trial": 15, "trialdata": {"rt": -1, "trial_type": "single-stim", "stimulus": "<p id=\"stim\">5</p>", "internal_node_id": "0.0-10.0-5.0", "time_elapsed": 164005, "key_press": -1, "trial_index": 15}, "uniqueid": "MTK2267:32ZKVD547GU1HJNJQ1ECIAEV12I3BG", "dateTime": 1516907923493}, {"current_trial": 16, "trialdata": {"rt": -1, "trial_type": "single-stim", "stimulus": "<p id=\"stim\">4</p>", "internal_node_id": "0.0-10.0-6.0", "time_elapsed": 165007, "key_press": -1, "trial_index": 16}, "uniqueid": "MTK2267:32ZKVD547GU1HJNJQ1ECIAEV12I3BG", "dateTime": 1516907924494}, {"current_trial": 17, "trialdata": {"rt": -1, "trial_type": "single-stim", "stimulus": "<p id=\"stim\">3</p>", "internal_node_id": "0.0-10.0-7.0", "time_elapsed": 166011, "key_press": -1, "trial_index": 17}, "uniqueid": "MTK2267:32ZKVD547GU1HJNJQ1ECIAEV12I3BG", "dateTime": 1516907925498}, {"current_trial": 18, "trialdata": {"rt": -1, "trial_type": "single-stim", "stimulus": "<p id=\"stim\">2</p>", "internal_node_id": "0.0-10.0-8.0", "time_elapsed": 167012, "key_press": -1, "trial_index": 18}, "uniqueid": "MTK2267:32ZKVD547GU1HJNJQ1ECIAEV12I3BG", "dateTime": 1516907926499}, {"current_trial": 19, "trialdata": {"rt": -1, "trial_type": "single-stim", "stimulus": "<p id=\"stim\">1</p>", "internal_node_id": "0.0-10.0-9.0", "time_elapsed": 168013, "key_press": -1, "trial_index": 19}, "uniqueid": "MTK2267:32ZKVD547GU1HJNJQ1ECIAEV12I3BG", "dateTime": 1516907927500}, {"current_trial": 20, "trialdata": {"rt": -1, "trial_type": "single-stim", "stimulus": "<p id=\"stim\">+</p>", "internal_node_id": "0.0-11.0-0.0", "time_elapsed": 169515, "key_press": -1, "type": "FIXATION", "trial_index": 20}, "uniqueid": "MTK2267:32ZKVD547GU1HJNJQ1ECIAEV12I3BG", "dateTime": 1516907929003}, {"current_trial": 21, "trialdata": {"rt": -1000, "trial_type": "single-audio", "word": "box", "stimulus": "/static/audio/wordpool/BOX.wav", "conditions": [18, 1200, "a", 18000], "internal_node_id": "0.0-12.0", "trial": 0, "time_elapsed": 171612, "serialpos": 0, "key_press": -1, "wordID": 158, "type": "PRES_AUD", "trial_index": 21}, "uniqueid": "MTK2267:32ZKVD547GU1HJNJQ1ECIAEV12I3BG", "dateTime": 1516907931099}, {"current_trial": 22, "trialdata": {"rt": -1000, "trial_type": "single-audio", "word": "female", "stimulus": "/static/audio/wordpool/FEMALE.wav", "conditions": [18, 1200, "a", 18000], "internal_node_id": "0.0-13.0", "trial": 0, "time_elapsed": 173935, "serialpos": 1, "key_press": -1, "wordID": 558, "type": "PRES_AUD", "trial_index": 22}, "uniqueid": "MTK2267:32ZKVD547GU1HJNJQ1ECIAEV12I3BG", "dateTime": 1516907933422}, {"current_trial": 23, "trialdata": {"rt": -1000, "trial_type": "single-audio", "word": "cod", "stimulus": "/static/audio/wordpool/COD.wav", "conditions": [18, 1200, "a", 18000], "internal_node_id": "0.0-14.0", "trial": 0, "time_elapsed": 175980, "serialpos": 2, "key_press": -1, "wordID": 339, "type": "PRES_AUD", "trial_index": 23}, "uniqueid": "MTK2267:32ZKVD547GU1HJNJQ1ECIAEV12I3BG", "dateTime": 1516907935468}, {"current_trial": 24, "trialdata": {"rt": -1000, "trial_type": "single-audio", "word": "clothes", "stimulus": "/static/audio/wordpool/CLOTHES.wav", "conditions": [18, 1200, "a", 18000], "internal_node_id": "0.0-15.0", "trial": 0, "time_elapsed": 178358, "serialpos": 3, "key_press": -1, "wordID": 326, "type": "PRES_AUD", "trial_index": 24}, "uniqueid": "MTK2267:32ZKVD547GU1HJNJQ1ECIAEV12I3BG", "dateTime": 1516907937845}, {"current_trial": 25, "trialdata": {"rt": -1000, "trial_type": "single-audio", "word": "banker", "stimulus": "/static/audio/wordpool/BANKER.wav", "conditions": [18, 1200, "a", 18000], "internal_node_id": "0.0-16.0", "trial": 0, "time_elapsed": 180548, "serialpos": 4, "key_press": -1, "wordID": 83, "type": "PRES_AUD", "trial_index": 25}, "uniqueid": "MTK2267:32ZKVD547GU1HJNJQ1ECIAEV12I3BG", "dateTime": 1516907940035}, {"current_trial": 26, "trialdata": {"rt": -1000, "trial_type": "single-audio", "word": "cricket", "stimulus": "/static/audio/wordpool/CRICKET.wav", "conditions": [18, 1200, "a", 18000], "internal_node_id": "0.0-17.0", "trial": 0, "time_elapsed": 182622, "serialpos": 5, "key_press": -1, "wordID": 407, "type": "PRES_AUD", "trial_index": 26}, "uniqueid": "MTK2267:32ZKVD547GU1HJNJQ1ECIAEV12I3BG", "dateTime": 1516907942109}, {"current_trial": 27, "trialdata": {"rt": -1000, "trial_type": "single-audio", "word": "compass", "stimulus": "/static/audio/wordpool/COMPASS.wav", "conditions": [18, 1200, "a", 18000], "internal_node_id": "0.0-18.0", "trial": 0, "time_elapsed": 184872, "serialpos": 6, "key_press": -1, "wordID": 357, "type": "PRES_AUD", "trial_index": 27}, "uniqueid": "MTK2267:32ZKVD547GU1HJNJQ1ECIAEV12I3BG", "dateTime": 1516907944359}, {"current_trial": 28, "trialdata": {"rt": -1000, "trial_type": "single-audio", "word": "gazelle", "stimulus": "/static/audio/wordpool/GAZELLE.wav", "conditions": [18, 1200, "a", 18000], "internal_node_id": "0.0-19.0", "trial": 0, "time_elapsed": 186926, "serialpos": 7, "key_press": -1, "wordID": 627, "type": "PRES_AUD", "trial_index": 28}, "uniqueid": "MTK2267:32ZKVD547GU1HJNJQ1ECIAEV12I3BG", "dateTime": 1516907946414}, {"current_trial": 29, "trialdata": {"rt": -1000, "trial_type": "single-audio", "word": "notebook", "stimulus": "/static/audio/wordpool/NOTEBOOK.wav", "conditions": [18, 1200, "a", 18000], "internal_node_id": "0.0-20.0", "trial": 0, "time_elapsed": 189058, "serialpos": 8, "key_press": -1, "wordID": 958, "type": "PRES_AUD", "trial_index": 29}, "uniqueid": "MTK2267:32ZKVD547GU1HJNJQ1ECIAEV12I3BG", "dateTime": 1516907948545}, {"current_trial": 30, "trialdata": {"rt": -1000, "trial_type": "single-audio", "word": "globe", "stimulus": "/static/audio/wordpool/GLOBE.wav", "conditions": [18, 1200, "a", 18000], "internal_node_id": "0.0-21.0", "trial": 0, "time_elapsed": 191320, "serialpos": 9, "key_press": -1, "wordID": 640, "type": "PRES_AUD", "trial_index": 30}, "uniqueid": "MTK2267:32ZKVD547GU1HJNJQ1ECIAEV12I3BG", "dateTime": 1516907950807}, {"current_trial": 31, "trialdata": {"rt": -1000, "trial_type": "single-audio", "word": "liver", "stimulus": "/static/audio/wordpool/LIVER.wav", "conditions": [18, 1200, "a", 18000], "internal_node_id": "0.0-22.0", "trial": 0, "time_elapsed": 193538, "serialpos": 10, "key_press": -1, "wordID": 832, "type": "PRES_AUD", "trial_index": 31}, "uniqueid": "MTK2267:32ZKVD547GU1HJNJQ1ECIAEV12I3BG", "dateTime": 1516907953025}, {"current_trial": 32, "trialdata": {"rt": -1000, "trial_type": "single-audio", "word": "turnip", "stimulus": "/static/audio/wordpool/TURNIP.wav", "conditions": [18, 1200, "a", 18000], "internal_node_id": "0.0-23.0", "trial": 0, "time_elapsed": 195665, "serialpos": 11, "key_press": -1, "wordID": 1520, "type": "PRES_AUD", "trial_index": 32}, "uniqueid": "MTK2267:32ZKVD547GU1HJNJQ1ECIAEV12I3BG", "dateTime": 1516907955152}, {"current_trial": 33, "trialdata": {"rt": -1000, "trial_type": "single-audio", "word": "flesh", "stimulus": "/static/audio/wordpool/FLESH.wav", "conditions": [18, 1200, "a", 18000], "internal_node_id": "0.0-24.0", "trial": 0, "time_elapsed": 197905, "serialpos": 12, "key_press": -1, "wordID": 578, "type": "PRES_AUD", "trial_index": 33}, "uniqueid": "MTK2267:32ZKVD547GU1HJNJQ1ECIAEV12I3BG", "dateTime": 1516907957393}, {"current_trial": 34, "trialdata": {"rt": -1000, "trial_type": "single-audio", "word": "tortoise", "stimulus": "/static/audio/wordpool/TORTOISE.wav", "conditions": [18, 1200, "a", 18000], "internal_node_id": "0.0-25.0", "trial": 0, "time_elapsed": 199929, "serialpos": 13, "key_press": -1, "wordID": 1485, "type": "PRES_AUD", "trial_index": 34}, "uniqueid": "MTK2267:32ZKVD547GU1HJNJQ1ECIAEV12I3BG", "dateTime": 1516907959416}, {"current_trial": 35, "trialdata": {"rt": -1000, "trial_type": "single-audio", "word": "snack", "stimulus": "/static/audio/wordpool/SNACK.wav", "conditions": [18, 1200, "a", 18000], "internal_node_id": "0.0-26.0", "trial": 0, "time_elapsed": 202307, "serialpos": 14, "key_press": -1, "wordID": 1330, "type": "PRES_AUD", "trial_index": 35}, "uniqueid": "MTK2267:32ZKVD547GU1HJNJQ1ECIAEV12I3BG", "dateTime": 1516907961794}, {"current_trial": 36, "trialdata": {"rt": -1000, "trial_type": "single-audio", "word": "pebble", "stimulus": "/static/audio/wordpool/PEBBLE.wav", "conditions": [18, 1200, "a", 18000], "internal_node_id": "0.0-27.0", "trial": 0, "time_elapsed": 204463, "serialpos": 15, "key_press": -1, "wordID": 1034, "type": "PRES_AUD", "trial_index": 36}, "uniqueid": "MTK2267:32ZKVD547GU1HJNJQ1ECIAEV12I3BG", "dateTime": 1516907963951}, {"current_trial": 37, "trialdata": {"rt": -1000, "trial_type": "single-audio", "word": "pork", "stimulus": "/static/audio/wordpool/PORK.wav", "conditions": [18, 1200, "a", 18000], "internal_node_id": "0.0-28.0", "trial": 0, "time_elapsed": 206817, "serialpos": 16, "key_press": -1, "wordID": 1107, "type": "PRES_AUD", "trial_index": 37}, "uniqueid": "MTK2267:32ZKVD547GU1HJNJQ1ECIAEV12I3BG", "dateTime": 1516907966305}, {"current_trial": 38, "trialdata": {"rt": -1000, "trial_type": "single-audio", "word": "crater", "stimulus": "/static/audio/wordpool/CRATER.wav", "conditions": [18, 1200, "a", 18000], "internal_node_id": "0.0-29.0", "trial": 0, "time_elapsed": 209075, "serialpos": 17, "key_press": -1, "wordID": 399, "type": "PRES_AUD", "trial_index": 38}, "uniqueid": "MTK2267:32ZKVD547GU1HJNJQ1ECIAEV12I3BG", "dateTime": 1516907968562}, {"current_trial": 39, "trialdata": {"rt": -1, "trial_type": "single-stim", "stimulus": "", "internal_node_id": "0.0-30.0-0.0", "time_elapsed": 210329, "key_press": -1, "type": "PRE_RECALL_DELAY", "trial_index": 39}, "uniqueid": "MTK2267:32ZKVD547GU1HJNJQ1ECIAEV12I3BG", "dateTime": 1516907969817}, {"current_trial": 40, "trialdata": {"rt": -1000, "trial_type": "single-audio", "stimulus": "/static/audio/400Hz.wav", "internal_node_id": "0.0-31.0", "time_elapsed": 210832, "key_press": -1, "type": "PRE_RECALL_ALERT", "trial_index": 40}, "uniqueid": "MTK2267:32ZKVD547GU1HJNJQ1ECIAEV12I3BG", "dateTime": 1516907970319}, {"current_trial": 41, "trialdata": {"rt": [7401, 9211, 10785, 12105, 13074, 14569, 18321, 19265, 20417, 23433, 25353, 29889, 32778, 46866, 56417], "recwords": ["pebble", "creature", "quartz", "gazelle", "globe", "notebook", "woman", "box", "cod", "banker", "cricket", "clothing", "box", "globe", "turnip"], "key_times": [5965, 6355, 6603, 6778, 6947, 7035, 7401, 8061, 8299, 8370, 8459, 8617, 8846, 8913, 8985, 9211, 9467, 9602, 9770, 9939, 10235, 10618, 10785, 11122, 11235, 11443, 11633, 11705, 11866, 11956, 12105, 12371, 12475, 12681, 12715, 12954, 13074, 13290, 13411, 13539, 13698, 13938, 14019, 14177, 14290, 14569, 17308, 17435, 17578, 17697, 17825, 18321, 18863, 18954, 19122, 19265, 19995, 20075, 20218, 20417, 22714, 22834, 22931, 23027, 23171, 23251, 23433, 24377, 24569, 24698, 24794, 24922, 25058, 25258, 25353, 28523, 28641, 28910, 29109, 29238, 29334, 29548, 29569, 29889, 31739, 31851, 32403, 32778, 43802, 44475, 44939, 45282, 45762, 46866, 54796, 54995, 55091, 55633, 55802, 55978, 56417], "trial_type": "free-recall", "conditions": [18, 1200, "a", 18000], "internal_node_id": "0.0-32.0-0.0", "key_presses": [80, 69, 66, 66, 76, 69, 13, 67, 82, 69, 65, 84, 85, 82, 69, 13, 81, 85, 65, 82, 84, 90, 13, 71, 65, 90, 69, 76, 76, 69, 13, 71, 76, 79, 66, 69, 13, 78, 79, 84, 69, 66, 79, 79, 75, 13, 87, 79, 77, 65, 78, 13, 66, 79, 88, 13, 67, 79, 68, 13, 66, 65, 78, 75, 69, 82, 13, 67, 82, 73, 67, 75, 69, 84, 13, 67, 76, 79, 84, 72, 73, 78, 71, 13, 66, 79, 88, 13, 71, 76, 79, 66, 69, 13, 84, 85, 82, 78, 73, 80, 13], "trial": 0, "time_elapsed": 270834, "type": "FREE_RECALL", "trial_index": 41}, "uniqueid": "MTK2267:32ZKVD547GU1HJNJQ1ECIAEV12I3BG", "dateTime": 1516908030324}, {"current_trial": 42, "trialdata": {"rt": 4878, "trial_type": "text", "internal_node_id": "0.0-33.0", "time_elapsed": 277716, "key_press": 32, "type": "INSTRUCTIONS", "trial_index": 42}, "uniqueid": "MTK2267:32ZKVD547GU1HJNJQ1ECIAEV12I3BG", "dateTime": 1516908037204}, {"current_trial": 43, "trialdata": {"rt": [7946, 10098, 12042], "trial_type": "math-distractor", "key_times": [6842, 6914, 7946, 9620, 9794, 10098, 11778, 12042], "responses": ["15", "14", "4"], "num2": [8, 9, 1, 6], "num3": [4, 4, 2, 5], "conditions": [18, 1200, "a", 18000], "internal_node_id": "0.0-34.0", "key_presses": [97, 101, 13, 97, 100, 13, 100, 13], "trial": 1, "time_elapsed": 297721, "type": "DISTRACTOR", "trial_index": 43, "num1": [3, 1, 1, 9]}, "uniqueid": "MTK2267:32ZKVD547GU1HJNJQ1ECIAEV12I3BG", "dateTime": 1516908057208}, {"current_trial": 44, "trialdata": {"rt": -1, "trial_type": "single-stim", "stimulus": "<p id=\"stim\">10</p>", "internal_node_id": "0.0-35.0-0.0", "time_elapsed": 300723, "key_press": -1, "trial_index": 44}, "uniqueid": "MTK2267:32ZKVD547GU1HJNJQ1ECIAEV12I3BG", "dateTime": 1516908060211}, {"current_trial": 45, "trialdata": {"rt": -1, "trial_type": "single-stim", "stimulus": "<p id=\"stim\">9</p>", "internal_node_id": "0.0-35.0-1.0", "time_elapsed": 301726, "key_press": -1, "trial_index": 45}, "uniqueid": "MTK2267:32ZKVD547GU1HJNJQ1ECIAEV12I3BG", "dateTime": 1516908061213}, {"current_trial": 46, "trialdata": {"rt": -1, "trial_type": "single-stim", "stimulus": "<p id=\"stim\">8</p>", "internal_node_id": "0.0-35.0-2.0", "time_elapsed": 302728, "key_press": -1, "trial_index": 46}, "uniqueid": "MTK2267:32ZKVD547GU1HJNJQ1ECIAEV12I3BG", "dateTime": 1516908062215}, {"current_trial": 47, "trialdata": {"rt": -1, "trial_type": "single-stim", "stimulus": "<p id=\"stim\">7</p>", "internal_node_id": "0.0-35.0-3.0", "time_elapsed": 303730, "key_press": -1, "trial_index": 47}, "uniqueid": "MTK2267:32ZKVD547GU1HJNJQ1ECIAEV12I3BG", "dateTime": 1516908063217}, {"current_trial": 48, "trialdata": {"rt": -1, "trial_type": "single-stim", "stimulus": "<p id=\"stim\">6</p>", "internal_node_id": "0.0-35.0-4.0", "time_elapsed": 304732, "key_press": -1, "trial_index": 48}, "uniqueid": "MTK2267:32ZKVD547GU1HJNJQ1ECIAEV12I3BG", "dateTime": 1516908064219}, {"current_trial": 49, "trialdata": {"rt": -1, "trial_type": "single-stim", "stimulus": "<p id=\"stim\">5</p>", "internal_node_id": "0.0-35.0-5.0", "time_elapsed": 305733, "key_press": -1, "trial_index": 49}, "uniqueid": "MTK2267:32ZKVD547GU1HJNJQ1ECIAEV12I3BG", "dateTime": 1516908065220}, {"current_trial": 50, "trialdata": {"rt": -1, "trial_type": "single-stim", "stimulus": "<p id=\"stim\">4</p>", "internal_node_id": "0.0-35.0-6.0", "time_elapsed": 306735, "key_press": -1, "trial_index": 50}, "uniqueid": "MTK2267:32ZKVD547GU1HJNJQ1ECIAEV12I3BG", "dateTime": 1516908066222}, {"current_trial": 51, "trialdata": {"rt": -1, "trial_type": "single-stim", "stimulus": "<p id=\"stim\">3</p>", "internal_node_id": "0.0-35.0-7.0", "time_elapsed": 307737, "key_press": -1, "trial_index": 51}, "uniqueid": "MTK2267:32ZKVD547GU1HJNJQ1ECIAEV12I3BG", "dateTime": 1516908067224}, {"current_trial": 52, "trialdata": {"rt": -1, "trial_type": "single-stim", "stimulus": "<p id=\"stim\">2</p>", "internal_node_id": "0.0-35.0-8.0", "time_elapsed": 308739, "key_press": -1, "trial_index": 52}, "uniqueid": "MTK2267:32ZKVD547GU1HJNJQ1ECIAEV12I3BG", "dateTime": 1516908068226}, {"current_trial": 53, "trialdata": {"rt": -1, "trial_type": "single-stim", "stimulus": "<p id=\"stim\">1</p>", "internal_node_id": "0.0-35.0-9.0", "time_elapsed": 309741, "key_press": -1, "trial_index": 53}, "uniqueid": "MTK2267:32ZKVD547GU1HJNJQ1ECIAEV12I3BG", "dateTime": 1516908069228}, {"current_trial": 54, "trialdata": {"rt": -1, "trial_type": "single-stim", "stimulus": "<p id=\"stim\">+</p>", "internal_node_id": "0.0-36.0-0.0", "time_elapsed": 311243, "key_press": -1, "type": "FIXATION", "trial_index": 54}, "uniqueid": "MTK2267:32ZKVD547GU1HJNJQ1ECIAEV12I3BG", "dateTime": 1516908070730}, {"current_trial": 55, "trialdata": {"rt": -1000, "trial_type": "single-audio", "word": "outdoors", "stimulus": "/static/audio/wordpool/OUTDOORS.wav", "conditions": [18, 1200, "a", 18000], "internal_node_id": "0.0-37.0", "trial": 1, "time_elapsed": 313518, "serialpos": 0, "key_press": -1, "wordID": 986, "type": "PRES_AUD", "trial_index": 55}, "uniqueid": "MTK2267:32ZKVD547GU1HJNJQ1ECIAEV12I3BG", "dateTime": 1516908073005}, {"current_trial": 56, "trialdata": {"rt": -1000, "trial_type": "single-audio", "word": "cross", "stimulus": "/static/audio/wordpool/CROSS.wav", "conditions": [18, 1200, "a", 18000], "internal_node_id": "0.0-38.0", "trial": 1, "time_elapsed": 315793, "serialpos": 1, "key_press": -1, "wordID": 412, "type": "PRES_AUD", "trial_index": 56}, "uniqueid": "MTK2267:32ZKVD547GU1HJNJQ1ECIAEV12I3BG", "dateTime": 1516908075281}, {"current_trial": 57, "trialdata": {"rt": -1000, "trial_type": "single-audio", "word": "tractor", "stimulus": "/static/audio/wordpool/TRACTOR.wav", "conditions": [18, 1200, "a", 18000], "internal_node_id": "0.0-39.0", "trial": 1, "time_elapsed": 317927, "serialpos": 2, "key_press": -1, "wordID": 1492, "type": "PRES_AUD", "trial_index": 57}, "uniqueid": "MTK2267:32ZKVD547GU1HJNJQ1ECIAEV12I3BG", "dateTime": 1516908077415}, {"current_trial": 58, "trialdata": {"rt": -1000, "trial_type": "single-audio", "word": "novel", "stimulus": "/static/audio/wordpool/NOVEL.wav", "conditions": [18, 1200, "a", 18000], "internal_node_id": "0.0-40.0", "trial": 1, "time_elapsed": 320192, "serialpos": 3, "key_press": -1, "wordID": 959, "type": "PRES_AUD", "trial_index": 58}, "uniqueid": "MTK2267:32ZKVD547GU1HJNJQ1ECIAEV12I3BG", "dateTime": 1516908079679}, {"current_trial": 59, "trialdata": {"rt": -1000, "trial_type": "single-audio", "word": "honey", "stimulus": "/static/audio/wordpool/HONEY.wav", "conditions": [18, 1200, "a", 18000], "internal_node_id": "0.0-41.0", "trial": 1, "time_elapsed": 322230, "serialpos": 4, "key_press": -1, "wordID": 712, "type": "PRES_AUD", "trial_index": 59}, "uniqueid": "MTK2267:32ZKVD547GU1HJNJQ1ECIAEV12I3BG", "dateTime": 1516908081717}, {"current_trial": 60, "trialdata": {"rt": -1000, "trial_type": "single-audio", "word": "ketchup", "stimulus": "/static/audio/wordpool/KETCHUP.wav", "conditions": [18, 1200, "a", 18000], "internal_node_id": "0.0-42.0", "trial": 1, "time_elapsed": 324320, "serialpos": 5, "key_press": -1, "wordID": 770, "type": "PRES_AUD", "trial_index": 60}, "uniqueid": "MTK2267:32ZKVD547GU1HJNJQ1ECIAEV12I3BG", "dateTime": 1516908083808}, {"current_trial": 61, "trialdata": {"rt": -1000, "trial_type": "single-audio", "word": "pimple", "stimulus": "/static/audio/wordpool/PIMPLE.wav", "conditions": [18, 1200, "a", 18000], "internal_node_id": "0.0-43.0", "trial": 1, "time_elapsed": 326482, "serialpos": 6, "key_press": -1, "wordID": 1070, "type": "PRES_AUD", "trial_index": 61}, "uniqueid": "MTK2267:32ZKVD547GU1HJNJQ1ECIAEV12I3BG", "dateTime": 1516908085969}, {"current_trial": 62, "trialdata": {"rt": -1000, "trial_type": "single-audio", "word": "trombone", "stimulus": "/static/audio/wordpool/TROMBONE.wav", "conditions": [18, 1200, "a", 18000], "internal_node_id": "0.0-44.0", "trial": 1, "time_elapsed": 328796, "serialpos": 7, "key_press": -1, "wordID": 1507, "type": "PRES_AUD", "trial_index": 62}, "uniqueid": "MTK2267:32ZKVD547GU1HJNJQ1ECIAEV12I3BG", "dateTime": 1516908088283}, {"current_trial": 63, "trialdata": {"rt": -1000, "trial_type": "single-audio", "word": "carriage", "stimulus": "/static/audio/wordpool/CARRIAGE.wav", "conditions": [18, 1200, "a", 18000], "internal_node_id": "0.0-45.0", "trial": 1, "time_elapsed": 331042, "serialpos": 8, "key_press": -1, "wordID": 247, "type": "PRES_AUD", "trial_index": 63}, "uniqueid": "MTK2267:32ZKVD547GU1HJNJQ1ECIAEV12I3BG", "dateTime": 1516908090529}, {"current_trial": 64, "trialdata": {"rt": -1000, "trial_type": "single-audio", "word": "football", "stimulus": "/static/audio/wordpool/FOOTBALL.wav", "conditions": [18, 1200, "a", 18000], "internal_node_id": "0.0-46.0", "trial": 1, "time_elapsed": 333127, "serialpos": 9, "key_press": -1, "wordID": 590, "type": "PRES_AUD", "trial_index": 64}, "uniqueid": "MTK2267:32ZKVD547GU1HJNJQ1ECIAEV12I3BG", "dateTime": 1516908092614}, {"current_trial": 65, "trialdata": {"rt": -1000, "trial_type": "single-audio", "word": "eyelash", "stimulus": "/static/audio/wordpool/EYELASH.wav", "conditions": [18, 1200, "a", 18000], "internal_node_id": "0.0-47.0", "trial": 1, "time_elapsed": 335314, "serialpos": 10, "key_press": -1, "wordID": 545, "type": "PRES_AUD", "trial_index": 65}, "uniqueid": "MTK2267:32ZKVD547GU1HJNJQ1ECIAEV12I3BG", "dateTime": 1516908094801}, {"current_trial": 66, "trialdata": {"rt": -1000, "trial_type": "single-audio", "word": "world", "stimulus": "/static/audio/wordpool/WORLD.wav", "conditions": [18, 1200, "a", 18000], "internal_node_id": "0.0-48.0", "trial": 1, "time_elapsed": 337392, "serialpos": 11, "key_press": -1, "wordID": 1621, "type": "PRES_AUD", "trial_index": 66}, "uniqueid": "MTK2267:32ZKVD547GU1HJNJQ1ECIAEV12I3BG", "dateTime": 1516908096879}, {"current_trial": 67, "trialdata": {"rt": -1000, "trial_type": "single-audio", "word": "drill", "stimulus": "/static/audio/wordpool/DRILL.wav", "conditions": [18, 1200, "a", 18000], "internal_node_id": "0.0-49.0", "trial": 1, "time_elapsed": 339562, "serialpos": 12, "key_press": -1, "wordID": 496, "type": "PRES_AUD", "trial_index": 67}, "uniqueid": "MTK2267:32ZKVD547GU1HJNJQ1ECIAEV12I3BG", "dateTime": 1516908099049}, {"current_trial": 68, "trialdata": {"rt": -1000, "trial_type": "single-audio", "word": "guard", "stimulus": "/static/audio/wordpool/GUARD.wav", "conditions": [18, 1200, "a", 18000], "internal_node_id": "0.0-50.0", "trial": 1, "time_elapsed": 341891, "serialpos": 13, "key_press": -1, "wordID": 666, "type": "PRES_AUD", "trial_index": 68}, "uniqueid": "MTK2267:32ZKVD547GU1HJNJQ1ECIAEV12I3BG", "dateTime": 1516908101378}, {"current_trial": 69, "trialdata": {"rt": -1000, "trial_type": "single-audio", "word": "pocket", "stimulus": "/static/audio/wordpool/POCKET.wav", "conditions": [18, 1200, "a", 18000], "internal_node_id": "0.0-51.0", "trial": 1, "time_elapsed": 344088, "serialpos": 14, "key_press": -1, "wordID": 1092, "type": "PRES_AUD", "trial_index": 69}, "uniqueid": "MTK2267:32ZKVD547GU1HJNJQ1ECIAEV12I3BG", "dateTime": 1516908103575}, {"current_trial": 70, "trialdata": {"rt": -1000, "trial_type": "single-audio", "word": "donor", "stimulus": "/static/audio/wordpool/DONOR.wav", "conditions": [18, 1200, "a", 18000], "internal_node_id": "0.0-52.0", "trial": 1, "time_elapsed": 346434, "serialpos": 15, "key_press": -1, "wordID": 484, "type": "PRES_AUD", "trial_index": 70}, "uniqueid": "MTK2267:32ZKVD547GU1HJNJQ1ECIAEV12I3BG", "dateTime": 1516908105921}, {"current_trial": 71, "trialdata": {"rt": -1000, "trial_type": "single-audio", "word": "creature", "stimulus": "/static/audio/wordpool/CREATURE.wav", "conditions": [18, 1200, "a", 18000], "internal_node_id": "0.0-53.0", "trial": 1, "time_elapsed": 348615, "serialpos": 16, "key_press": -1, "wordID": 402, "type": "PRES_AUD", "trial_index": 71}, "uniqueid": "MTK2267:32ZKVD547GU1HJNJQ1ECIAEV12I3BG", "dateTime": 1516908108102}, {"current_trial": 72, "trialdata": {"rt": -1000, "trial_type": "single-audio", "word": "drug", "stimulus": "/static/audio/wordpool/DRUG.wav", "conditions": [18, 1200, "a", 18000], "internal_node_id": "0.0-54.0", "trial": 1, "time_elapsed": 350863, "serialpos": 17, "key_press": -1, "wordID": 500, "type": "PRES_AUD", "trial_index": 72}, "uniqueid": "MTK2267:32ZKVD547GU1HJNJQ1ECIAEV12I3BG", "dateTime": 1516908110350}, {"current_trial": 73, "trialdata": {"rt": -1, "trial_type": "single-stim", "stimulus": "", "internal_node_id": "0.0-55.0-0.0", "time_elapsed": 352232, "key_press": -1, "type": "PRE_RECALL_DELAY", "trial_index": 73}, "uniqueid": "MTK2267:32ZKVD547GU1HJNJQ1ECIAEV12I3BG", "dateTime": 1516908111719}, {"current_trial": 74, "trialdata": {"rt": -1000, "trial_type": "single-audio", "stimulus": "/static/audio/400Hz.wav", "internal_node_id": "0.0-56.0", "time_elapsed": 352734, "key_press": -1, "type": "PRE_RECALL_ALERT", "trial_index": 74}, "uniqueid": "MTK2267:32ZKVD547GU1HJNJQ1ECIAEV12I3BG", "dateTime": 1516908112221}, {"current_trial": 75, "trialdata": {"rt": [6051, 7908, 9416, 10883, 12779, 14195, 17115, 20067, 21147, 23987, 26627, 29091, 31203, 33235], "recwords": ["drug", "doner", "creature", "pill", "world", "eyelash", "outdoors", "tractor", "cross", "novel", "honet", "honey", "ketchup", "pimple"], "key_times": [5147, 5371, 5611, 5731, 6051, 6340, 6405, 6517, 6787, 6843, 7908, 8291, 8485, 8549, 8596, 8813, 8996, 9083, 9164, 9416, 10107, 10280, 10508, 10651, 10883, 12204, 12291, 12381, 12525, 12612, 12779, 12933, 13115, 13277, 13445, 13604, 13827, 13973, 14195, 14997, 15052, 15399, 15637, 15749, 15892, 16004, 16868, 17115, 17564, 17757, 17827, 18083, 18158, 19316, 19604, 19715, 19867, 20067, 20316, 20628, 20740, 20851, 21004, 21147, 23316, 23396, 23493, 23661, 23724, 23987, 24620, 24741, 24860, 24884, 25133, 25500, 25661, 25811, 26013, 26083, 26283, 26627, 28212, 28332, 28468, 28556, 28772, 29091, 29564, 29692, 29871, 30140, 30304, 30573, 30734, 31203, 31844, 32053, 32277, 32469, 32693, 32948, 33235], "trial_type": "free-recall", "conditions": [18, 1200, "a", 18000], "internal_node_id": "0.0-57.0-0.0", "key_presses": [68, 82, 85, 71, 13, 68, 79, 78, 69, 82, 13, 67, 82, 69, 65, 84, 85, 82, 69, 13, 80, 73, 76, 76, 13, 87, 79, 82, 76, 68, 13, 69, 89, 69, 76, 65, 83, 72, 13, 79, 85, 84, 68, 79, 79, 82, 83, 13, 84, 82, 65, 67, 75, 8, 84, 79, 82, 13, 67, 82, 79, 83, 83, 13, 78, 79, 86, 69, 76, 13, 72, 79, 69, 78, 89, 8, 8, 8, 78, 69, 84, 13, 72, 79, 78, 69, 89, 13, 75, 69, 84, 67, 72, 85, 80, 13, 80, 73, 77, 80, 76, 69, 13], "trial": 1, "time_elapsed": 412738, "type": "FREE_RECALL", "trial_index": 75}, "uniqueid": "MTK2267:32ZKVD547GU1HJNJQ1ECIAEV12I3BG", "dateTime": 1516908172229}, {"current_trial": 76, "trialdata": {"rt": 1423912, "trial_type": "text", "internal_node_id": "0.0-58.0", "time_elapsed": 1838656, "key_press": 191, "type": "INSTRUCTIONS", "trial_index": 76}, "uniqueid": "MTK2267:32ZKVD547GU1HJNJQ1ECIAEV12I3BG", "dateTime": 1516909598143}, {"current_trial": 77, "trialdata": {"rt": [2412, 4119, 6491, 8276, 11156], "trial_type": "math-distractor", "key_times": [1989, 2206, 2412, 3733, 3927, 4119, 6027, 6283, 6491, 8011, 8276, 10533, 10789, 11156], "responses": ["12", "12", "17", "5", "16"], "num2": [4, 2, 6, 2, 4, 3], "num3": [2, 5, 8, 1, 3, 4], "conditions": [24, 800, "a", 12000], "internal_node_id": "0.0-59.0", "key_presses": [97, 98, 13, 97, 98, 13, 97, 103, 13, 101, 13, 97, 102, 13], "trial": 2, "time_elapsed": 1851661, "type": "DISTRACTOR", "trial_index": 77, "num1": [6, 5, 5, 2, 9, 4]}, "uniqueid": "MTK2267:32ZKVD547GU1HJNJQ1ECIAEV12I3BG", "dateTime": 1516909611148}, {"current_trial": 78, "trialdata": {"rt": -1, "trial_type": "single-stim", "stimulus": "<p id=\"stim\">10</p>", "internal_node_id": "0.0-60.0-0.0", "time_elapsed": 1854672, "key_press": -1, "trial_index": 78}, "uniqueid": "MTK2267:32ZKVD547GU1HJNJQ1ECIAEV12I3BG", "dateTime": 1516909614159}, {"current_trial": 79, "trialdata": {"rt": -1, "trial_type": "single-stim", "stimulus": "<p id=\"stim\">9</p>", "internal_node_id": "0.0-60.0-1.0", "time_elapsed": 1855674, "key_press": -1, "trial_index": 79}, "uniqueid": "MTK2267:32ZKVD547GU1HJNJQ1ECIAEV12I3BG", "dateTime": 1516909615161}, {"current_trial": 80, "trialdata": {"rt": -1, "trial_type": "single-stim", "stimulus": "<p id=\"stim\">8</p>", "internal_node_id": "0.0-60.0-2.0", "time_elapsed": 1856676, "key_press": -1, "trial_index": 80}, "uniqueid": "MTK2267:32ZKVD547GU1HJNJQ1ECIAEV12I3BG", "dateTime": 1516909616163}, {"current_trial": 81, "trialdata": {"rt": -1, "trial_type": "single-stim", "stimulus": "<p id=\"stim\">7</p>", "internal_node_id": "0.0-60.0-3.0", "time_elapsed": 1857678, "key_press": -1, "trial_index": 81}, "uniqueid": "MTK2267:32ZKVD547GU1HJNJQ1ECIAEV12I3BG", "dateTime": 1516909617165}, {"current_trial": 82, "trialdata": {"rt": -1, "trial_type": "single-stim", "stimulus": "<p id=\"stim\">6</p>", "internal_node_id": "0.0-60.0-4.0", "time_elapsed": 1858680, "key_press": -1, "trial_index": 82}, "uniqueid": "MTK2267:32ZKVD547GU1HJNJQ1ECIAEV12I3BG", "dateTime": 1516909618167}, {"current_trial": 83, "trialdata": {"rt": -1, "trial_type": "single-stim", "stimulus": "<p id=\"stim\">5</p>", "internal_node_id": "0.0-60.0-5.0", "time_elapsed": 1859728, "key_press": -1, "trial_index": 83}, "uniqueid": "MTK2267:32ZKVD547GU1HJNJQ1ECIAEV12I3BG", "dateTime": 1516909619215}, {"current_trial": 84, "trialdata": {"rt": -1, "trial_type": "single-stim", "stimulus": "<p id=\"stim\">4</p>", "internal_node_id": "0.0-60.0-6.0", "time_elapsed": 1860731, "key_press": -1, "trial_index": 84}, "uniqueid": "MTK2267:32ZKVD547GU1HJNJQ1ECIAEV12I3BG", "dateTime": 1516909620218}, {"current_trial": 85, "trialdata": {"rt": -1, "trial_type": "single-stim", "stimulus": "<p id=\"stim\">3</p>", "internal_node_id": "0.0-60.0-7.0", "time_elapsed": 1861732, "key_press": -1, "trial_index": 85}, "uniqueid": "MTK2267:32ZKVD547GU1HJNJQ1ECIAEV12I3BG", "dateTime": 1516909621220}, {"current_trial": 86, "trialdata": {"rt": -1, "trial_type": "single-stim", "stimulus": "<p id=\"stim\">2</p>", "internal_node_id": "0.0-60.0-8.0", "time_elapsed": 1862735, "key_press": -1, "trial_index": 86}, "uniqueid": "MTK2267:32ZKVD547GU1HJNJQ1ECIAEV12I3BG", "dateTime": 1516909622223}, {"current_trial": 87, "trialdata": {"rt": -1, "trial_type": "single-stim", "stimulus": "<p id=\"stim\">1</p>", "internal_node_id": "0.0-60.0-9.0", "time_elapsed": 1863739, "key_press": -1, "trial_index": 87}, "uniqueid": "MTK2267:32ZKVD547GU1HJNJQ1ECIAEV12I3BG", "dateTime": 1516909623226}, {"current_trial": 88, "trialdata": {"rt": -1, "trial_type": "single-stim", "stimulus": "<p id=\"stim\">+</p>", "internal_node_id": "0.0-61.0-0.0", "time_elapsed": 1865242, "key_press": -1, "type": "FIXATION", "trial_index": 88}, "uniqueid": "MTK2267:32ZKVD547GU1HJNJQ1ECIAEV12I3BG", "dateTime": 1516909624729}, {"current_trial": 89, "trialdata": {"rt": -1000, "trial_type": "single-audio", "word": "lava", "stimulus": "/static/audio/wordpool/LAVA.wav", "conditions": [24, 800, "a", 12000], "internal_node_id": "0.0-62.0", "trial": 2, "time_elapsed": 1866926, "serialpos": 0, "key_press": -1, "wordID": 803, "type": "PRES_AUD", "trial_index": 89}, "uniqueid": "MTK2267:32ZKVD547GU1HJNJQ1ECIAEV12I3BG", "dateTime": 1516909626413}, {"current_trial": 90, "trialdata": {"rt": -1000, "trial_type": "single-audio", "word": "possum", "stimulus": "/static/audio/wordpool/POSSUM.wav", "conditions": [24, 800, "a", 12000], "internal_node_id": "0.0-63.0", "trial": 2, "time_elapsed": 1868527, "serialpos": 1, "key_press": -1, "wordID": 1111, "type": "PRES_AUD", "trial_index": 90}, "uniqueid": "MTK2267:32ZKVD547GU1HJNJQ1ECIAEV12I3BG", "dateTime": 1516909628014}, {"current_trial": 91, "trialdata": {"rt": -1000, "trial_type": "single-audio", "word": "outfit", "stimulus": "/static/audio/wordpool/OUTFIT.wav", "conditions": [24, 800, "a", 12000], "internal_node_id": "0.0-64.0", "trial": 2, "time_elapsed": 1870169, "serialpos": 2, "key_press": -1, "wordID": 987, "type": "PRES_AUD", "trial_index": 91}, "uniqueid": "MTK2267:32ZKVD547GU1HJNJQ1ECIAEV12I3BG", "dateTime": 1516909629656}, {"current_trial": 92, "trialdata": {"rt": -1000, "trial_type": "single-audio", "word": "lily", "stimulus": "/static/audio/wordpool/LILY.wav", "conditions": [24, 800, "a", 12000], "internal_node_id": "0.0-65.0", "trial": 2, "time_elapsed": 1872009, "serialpos": 3, "key_press": -1, "wordID": 820, "type": "PRES_AUD", "trial_index": 92}, "uniqueid": "MTK2267:32ZKVD547GU1HJNJQ1ECIAEV12I3BG", "dateTime": 1516909631496}, {"current_trial": 93, "trialdata": {"rt": -1000, "trial_type": "single-audio", "word": "slime", "stimulus": "/static/audio/wordpool/SLIME.wav", "conditions": [24, 800, "a", 12000], "internal_node_id": "0.0-66.0", "trial": 2, "time_elapsed": 1873877, "serialpos": 4, "key_press": -1, "wordID": 1326, "type": "PRES_AUD", "trial_index": 93}, "uniqueid": "MTK2267:32ZKVD547GU1HJNJQ1ECIAEV12I3BG", "dateTime": 1516909633364}, {"current_trial": 94, "trialdata": {"rt": -1000, "trial_type": "single-audio", "word": "snake", "stimulus": "/static/audio/wordpool/SNAKE.wav", "conditions": [24, 800, "a", 12000], "internal_node_id": "0.0-67.0", "trial": 2, "time_elapsed": 1875696, "serialpos": 5, "key_press": -1, "wordID": 1332, "type": "PRES_AUD", "trial_index": 94}, "uniqueid": "MTK2267:32ZKVD547GU1HJNJQ1ECIAEV12I3BG", "dateTime": 1516909635183}, {"current_trial": 95, "trialdata": {"rt": -1000, "trial_type": "single-audio", "word": "pizza", "stimulus": "/static/audio/wordpool/PIZZA.wav", "conditions": [24, 800, "a", 12000], "internal_node_id": "0.0-68.0", "trial": 2, "time_elapsed": 1877655, "serialpos": 6, "key_press": -1, "wordID": 1078, "type": "PRES_AUD", "trial_index": 95}, "uniqueid": "MTK2267:32ZKVD547GU1HJNJQ1ECIAEV12I3BG", "dateTime": 1516909637142}, {"current_trial": 96, "trialdata": {"rt": -1000, "trial_type": "single-audio", "word": "diner", "stimulus": "/static/audio/wordpool/DINER.wav", "conditions": [24, 800, "a", 12000], "internal_node_id": "0.0-69.0", "trial": 2, "time_elapsed": 1879620, "serialpos": 7, "key_press": -1, "wordID": 466, "type": "PRES_AUD", "trial_index": 96}, "uniqueid": "MTK2267:32ZKVD547GU1HJNJQ1ECIAEV12I3BG", "dateTime": 1516909639112}, {"current_trial": 97, "trialdata": {"rt": -1000, "trial_type": "single-audio", "word": "igloo", "stimulus": "/static/audio/wordpool/IGLOO.wav", "conditions": [24, 800, "a", 12000], "internal_node_id": "0.0-70.0", "trial": 2, "time_elapsed": 1881576, "serialpos": 8, "key_press": -1, "wordID": 733, "type": "PRES_AUD", "trial_index": 97}, "uniqueid": "MTK2267:32ZKVD547GU1HJNJQ1ECIAEV12I3BG", "dateTime": 1516909641063}, {"current_trial": 98, "trialdata": {"rt": -1000, "trial_type": "single-audio", "word": "queen", "stimulus": "/static/audio/wordpool/QUEEN.wav", "conditions": [24, 800, "a", 12000], "internal_node_id": "0.0-71.0", "trial": 2, "time_elapsed": 1883484, "serialpos": 9, "key_press": -1, "wordID": 1148, "type": "PRES_AUD", "trial_index": 98}, "uniqueid": "MTK2267:32ZKVD547GU1HJNJQ1ECIAEV12I3BG", "dateTime": 1516909642972}, {"current_trial": 99, "trialdata": {"rt": -1000, "trial_type": "single-audio", "word": "husband", "stimulus": "/static/audio/wordpool/HUSBAND.wav", "conditions": [24, 800, "a", 12000], "internal_node_id": "0.0-72.0", "trial": 2, "time_elapsed": 1885209, "serialpos": 10, "key_press": -1, "wordID": 727, "type": "PRES_AUD", "trial_index": 99}, "uniqueid": "MTK2267:32ZKVD547GU1HJNJQ1ECIAEV12I3BG", "dateTime": 1516909644697}, {"current_trial": 100, "trialdata": {"rt": -1000, "trial_type": "single-audio", "word": "dolphin", "stimulus": "/static/audio/wordpool/DOLPHIN.wav", "conditions": [24, 800, "a", 12000], "internal_node_id": "0.0-73.0", "trial": 2, "time_elapsed": 1886818, "serialpos": 11, "key_press": -1, "wordID": 482, "type": "PRES_AUD", "trial_index": 100}, "uniqueid": "MTK2267:32ZKVD547GU1HJNJQ1ECIAEV12I3BG", "dateTime": 1516909646306}, {"current_trial": 101, "trialdata": {"rt": -1000, "trial_type": "single-audio", "word": "hand", "stimulus": "/static/audio/wordpool/HAND.wav", "conditions": [24, 800, "a", 12000], "internal_node_id": "0.0-74.0", "trial": 2, "time_elapsed": 1888677, "serialpos": 12, "key_press": -1, "wordID": 682, "type": "PRES_AUD", "trial_index": 101}, "uniqueid": "MTK2267:32ZKVD547GU1HJNJQ1ECIAEV12I3BG", "dateTime": 1516909648164}, {"current_trial": 102, "trialdata": {"rt": -1000, "trial_type": "single-audio", "word": "velvet", "stimulus": "/static/audio/wordpool/VELVET.wav", "conditions": [24, 800, "a", 12000], "internal_node_id": "0.0-75.0", "trial": 2, "time_elapsed": 1890546, "serialpos": 13, "key_press": -1, "wordID": 1554, "type": "PRES_AUD", "trial_index": 102}, "uniqueid": "MTK2267:32ZKVD547GU1HJNJQ1ECIAEV12I3BG", "dateTime": 1516909650033}, {"current_trial": 103, "trialdata": {"rt": -1000, "trial_type": "single-audio", "word": "nomad", "stimulus": "/static/audio/wordpool/NOMAD.wav", "conditions": [24, 800, "a", 12000], "internal_node_id": "0.0-76.0", "trial": 2, "time_elapsed": 1892493, "serialpos": 14, "key_press": -1, "wordID": 954, "type": "PRES_AUD", "trial_index": 103}, "uniqueid": "MTK2267:32ZKVD547GU1HJNJQ1ECIAEV12I3BG", "dateTime": 1516909651981}, {"current_trial": 104, "trialdata": {"rt": -1000, "trial_type": "single-audio", "word": "umpire", "stimulus": "/static/audio/wordpool/UMPIRE.wav", "conditions": [24, 800, "a", 12000], "internal_node_id": "0.0-77.0", "trial": 2, "time_elapsed": 1894233, "serialpos": 15, "key_press": -1, "wordID": 1534, "type": "PRES_AUD", "trial_index": 104}, "uniqueid": "MTK2267:32ZKVD547GU1HJNJQ1ECIAEV12I3BG", "dateTime": 1516909653720}, {"current_trial": 105, "trialdata": {"rt": -1000, "trial_type": "single-audio", "word": "daughter", "stimulus": "/static/audio/wordpool/DAUGHTER.wav", "conditions": [24, 800, "a", 12000], "internal_node_id": "0.0-78.0", "trial": 2, "time_elapsed": 1895977, "serialpos": 16, "key_press": -1, "wordID": 441, "type": "PRES_AUD", "trial_index": 105}, "uniqueid": "MTK2267:32ZKVD547GU1HJNJQ1ECIAEV12I3BG", "dateTime": 1516909655464}, {"current_trial": 106, "trialdata": {"rt": -1000, "trial_type": "single-audio", "word": "wagon", "stimulus": "/static/audio/wordpool/WAGON.wav", "conditions": [24, 800, "a", 12000], "internal_node_id": "0.0-79.0", "trial": 2, "time_elapsed": 1897852, "serialpos": 17, "key_press": -1, "wordID": 1577, "type": "PRES_AUD", "trial_index": 106}, "uniqueid": "MTK2267:32ZKVD547GU1HJNJQ1ECIAEV12I3BG", "dateTime": 1516909657340}, {"current_trial": 107, "trialdata": {"rt": -1000, "trial_type": "single-audio", "word": "beast", "stimulus": "/static/audio/wordpool/BEAST.wav", "conditions": [24, 800, "a", 12000], "internal_node_id": "0.0-80.0", "trial": 2, "time_elapsed": 1899732, "serialpos": 18, "key_press": -1, "wordID": 107, "type": "PRES_AUD", "trial_index": 107}, "uniqueid": "MTK2267:32ZKVD547GU1HJNJQ1ECIAEV12I3BG", "dateTime": 1516909659219}, {"current_trial": 108, "trialdata": {"rt": -1000, "trial_type": "single-audio", "word": "eagle", "stimulus": "/static/audio/wordpool/EAGLE.wav", "conditions": [24, 800, "a", 12000], "internal_node_id": "0.0-81.0", "trial": 2, "time_elapsed": 1901730, "serialpos": 19, "key_press": -1, "wordID": 511, "type": "PRES_AUD", "trial_index": 108}, "uniqueid": "MTK2267:32ZKVD547GU1HJNJQ1ECIAEV12I3BG", "dateTime": 1516909661217}, {"current_trial": 109, "trialdata": {"rt": -1000, "trial_type": "single-audio", "word": "france", "stimulus": "/static/audio/wordpool/FRANCE.wav", "conditions": [24, 800, "a", 12000], "internal_node_id": "0.0-82.0", "trial": 2, "time_elapsed": 1903495, "serialpos": 20, "key_press": -1, "wordID": 600, "type": "PRES_AUD", "trial_index": 109}, "uniqueid": "MTK2267:32ZKVD547GU1HJNJQ1ECIAEV12I3BG", "dateTime": 1516909662982}, {"current_trial": 110, "trialdata": {"rt": -1000, "trial_type": "single-audio", "word": "london", "stimulus": "/static/audio/wordpool/LONDON.wav", "conditions": [24, 800, "a", 12000], "internal_node_id": "0.0-83.0", "trial": 2, "time_elapsed": 1905236, "serialpos": 21, "key_press": -1, "wordID": 842, "type": "PRES_AUD", "trial_index": 110}, "uniqueid": "MTK2267:32ZKVD547GU1HJNJQ1ECIAEV12I3BG", "dateTime": 1516909664724}, {"current_trial": 111, "trialdata": {"rt": -1000, "trial_type": "single-audio", "word": "widow", "stimulus": "/static/audio/wordpool/WIDOW.wav", "conditions": [24, 800, "a", 12000], "internal_node_id": "0.0-84.0", "trial": 2, "time_elapsed": 1906912, "serialpos": 22, "key_press": -1, "wordID": 1607, "type": "PRES_AUD", "trial_index": 111}, "uniqueid": "MTK2267:32ZKVD547GU1HJNJQ1ECIAEV12I3BG", "dateTime": 1516909666399}, {"current_trial": 112, "trialdata": {"rt": -1000, "trial_type": "single-audio", "word": "headband", "stimulus": "/static/audio/wordpool/HEADBAND.wav", "conditions": [24, 800, "a", 12000], "internal_node_id": "0.0-85.0", "trial": 2, "time_elapsed": 1908535, "serialpos": 23, "key_press": -1, "wordID": 695, "type": "PRES_AUD", "trial_index": 112}, "uniqueid": "MTK2267:32ZKVD547GU1HJNJQ1ECIAEV12I3BG", "dateTime": 1516909668023}, {"current_trial": 113, "trialdata": {"rt": -1, "trial_type": "single-stim", "stimulus": "", "internal_node_id": "0.0-86.0-0.0", "time_elapsed": 1909784, "key_press": -1, "type": "PRE_RECALL_DELAY", "trial_index": 113}, "uniqueid": "MTK2267:32ZKVD547GU1HJNJQ1ECIAEV12I3BG", "dateTime": 1516909669271}, {"current_trial": 114, "trialdata": {"rt": -1000, "trial_type": "single-audio", "stimulus": "/static/audio/400Hz.wav", "internal_node_id": "0.0-87.0", "time_elapsed": 1910286, "key_press": -1, "type": "PRE_RECALL_ALERT", "trial_index": 114}, "uniqueid": "MTK2267:32ZKVD547GU1HJNJQ1ECIAEV12I3BG", "dateTime": 1516909669773}, {"current_trial": 115, "trialdata": {"rt": [3784, 5373, 6881, 7945, 11185, 12409, 13858, 14865, 18505, 24258, 25369, 27401, 28273, 31602, 34225, 36473, 38217, 42633, 50321, 51193], "recwords": ["widow", "headband", "london", "france", "lava", "snake", "lily", "slime", "possum", "igloo", "diner", "husband", "clean", "dolphin", "umpire", "daugther", "wagon", "nomad", "velvet", "hand"], "key_times": [2018, 2113, 2248, 2432, 2909, 3041, 3329, 3465, 3586, 3784, 4064, 4176, 4264, 4432, 4730, 4863, 4952, 5096, 5373, 5602, 5794, 5865, 5954, 6443, 6578, 6881, 7122, 7313, 7370, 7443, 7611, 7810, 7945, 10589, 10699, 10834, 10964, 11185, 11620, 11770, 11954, 12089, 12265, 12409, 12635, 12834, 13010, 13313, 13858, 14058, 14155, 14371, 14523, 14627, 14865, 16953, 17513, 17673, 17858, 17970, 18186, 18505, 23314, 23506, 23634, 23851, 24002, 24258, 24546, 24626, 24794, 24866, 24946, 25369, 26322, 26530, 26643, 26851, 26971, 27087, 27185, 27401, 27650, 27738, 27873, 27946, 28034, 28273, 30361, 30545, 30714, 30930, 31010, 31137, 31322, 31602, 33075, 33274, 33458, 33650, 33810, 33898, 34225, 35034, 35202, 35354, 35474, 35804, 35907, 36051, 36116, 36473, 37058, 37161, 37328, 37706, 37899, 38217, 41482, 41642, 42074, 42241, 42466, 42633, 48273, 48499, 48560, 48666, 49370, 49778, 50026, 50213, 50321, 50587, 50657, 50914, 51010, 51193], "trial_type": "free-recall", "conditions": [24, 800, "a", 12000], "internal_node_id": "0.0-88.0-0.0", "key_presses": [87, 73, 78, 79, 8, 8, 68, 79, 87, 13, 72, 69, 65, 68, 66, 65, 78, 68, 13, 76, 79, 78, 68, 79, 78, 13, 70, 82, 65, 78, 67, 69, 13, 76, 65, 86, 65, 13, 83, 78, 65, 75, 69, 13, 76, 73, 76, 89, 13, 83, 76, 73, 77, 69, 13, 80, 79, 83, 83, 85, 77, 13, 73, 71, 76, 79, 79, 13, 68, 73, 78, 69, 82, 13, 72, 85, 83, 66, 65, 78, 68, 13, 67, 76, 69, 65, 78, 13, 68, 79, 76, 80, 72, 73, 78, 13, 85, 77, 80, 73, 82, 69, 13, 68, 65, 85, 71, 84, 72, 69, 82, 13, 87, 65, 71, 79, 78, 13, 78, 79, 77, 65, 68, 13, 86, 69, 76, 86, 8, 86, 69, 84, 13, 72, 65, 78, 68, 13], "trial": 2, "time_elapsed": 1970290, "type": "FREE_RECALL", "trial_index": 115}, "uniqueid": "MTK2267:32ZKVD547GU1HJNJQ1ECIAEV12I3BG", "dateTime": 1516909729783}, {"current_trial": 116, "trialdata": {"rt": 1504, "trial_type": "text", "internal_node_id": "0.0-89.0", "time_elapsed": 1973803, "key_press": 76, "type": "INSTRUCTIONS", "trial_index": 116}, "uniqueid": "MTK2267:32ZKVD547GU1HJNJQ1ECIAEV12I3BG", "dateTime": 1516909733290}, {"current_trial": 117, "trialdata": {"rt": [4562, 6649, 8594, 10818, 13650, 21714], "trial_type": "math-distractor", "key_times": [4147, 4348, 4562, 6401, 6649, 8140, 8355, 8594, 10300, 10506, 10818, 13076, 13395, 13650, 20069, 21253, 21714], "responses": ["21", "8", "18", "19", "17", "19"], "num2": [9, 6, 8, 8, 7, 7, 8], "num3": [8, 6, 5, 8, 8, 6, 4], "conditions": [24, 1600, "a", 24000], "internal_node_id": "0.0-90.0", "key_presses": [98, 97, 13, 104, 13, 97, 104, 13, 97, 105, 13, 97, 103, 13, 97, 105, 13], "trial": 3, "time_elapsed": 1999807, "type": "DISTRACTOR", "trial_index": 117, "num1": [5, 1, 5, 3, 2, 6, 9]}, "uniqueid": "MTK2267:32ZKVD547GU1HJNJQ1ECIAEV12I3BG", "dateTime": 1516909759294}, {"current_trial": 118, "trialdata": {"rt": -1, "trial_type": "single-stim", "stimulus": "<p id=\"stim\">10</p>", "internal_node_id": "0.0-91.0-0.0", "time_elapsed": 2002810, "key_press": -1, "trial_index": 118}, "uniqueid": "MTK2267:32ZKVD547GU1HJNJQ1ECIAEV12I3BG", "dateTime": 1516909762298}, {"current_trial": 119, "trialdata": {"rt": -1, "trial_type": "single-stim", "stimulus": "<p id=\"stim\">9</p>", "internal_node_id": "0.0-91.0-1.0", "time_elapsed": 2003814, "key_press": -1, "trial_index": 119}, "uniqueid": "MTK2267:32ZKVD547GU1HJNJQ1ECIAEV12I3BG", "dateTime": 1516909763301}, {"current_trial": 120, "trialdata": {"rt": -1, "trial_type": "single-stim", "stimulus": "<p id=\"stim\">8</p>", "internal_node_id": "0.0-91.0-2.0", "time_elapsed": 2004860, "key_press": -1, "trial_index": 120}, "uniqueid": "MTK2267:32ZKVD547GU1HJNJQ1ECIAEV12I3BG", "dateTime": 1516909764347}, {"current_trial": 121, "trialdata": {"rt": -1, "trial_type": "single-stim", "stimulus": "<p id=\"stim\">7</p>", "internal_node_id": "0.0-91.0-3.0", "time_elapsed": 2005862, "key_press": -1, "trial_index": 121}, "uniqueid": "MTK2267:32ZKVD547GU1HJNJQ1ECIAEV12I3BG", "dateTime": 1516909765349}, {"current_trial": 122, "trialdata": {"rt": -1, "trial_type": "single-stim", "stimulus": "<p id=\"stim\">6</p>", "internal_node_id": "0.0-91.0-4.0", "time_elapsed": 2006865, "key_press": -1, "trial_index": 122}, "uniqueid": "MTK2267:32ZKVD547GU1HJNJQ1ECIAEV12I3BG", "dateTime": 1516909766353}, {"current_trial": 123, "trialdata": {"rt": -1, "trial_type": "single-stim", "stimulus": "<p id=\"stim\">5</p>", "internal_node_id": "0.0-91.0-5.0", "time_elapsed": 2007869, "key_press": -1, "trial_index": 123}, "uniqueid": "MTK2267:32ZKVD547GU1HJNJQ1ECIAEV12I3BG", "dateTime": 1516909767356}, {"current_trial": 124, "trialdata": {"rt": -1, "trial_type": "single-stim", "stimulus": "<p id=\"stim\">4</p>", "internal_node_id": "0.0-91.0-6.0", "time_elapsed": 2008871, "key_press": -1, "trial_index": 124}, "uniqueid": "MTK2267:32ZKVD547GU1HJNJQ1ECIAEV12I3BG", "dateTime": 1516909768359}, {"current_trial": 125, "trialdata": {"rt": -1, "trial_type": "single-stim", "stimulus": "<p id=\"stim\">3</p>", "internal_node_id": "0.0-91.0-7.0", "time_elapsed": 2009874, "key_press": -1, "trial_index": 125}, "uniqueid": "MTK2267:32ZKVD547GU1HJNJQ1ECIAEV12I3BG", "dateTime": 1516909769361}, {"current_trial": 126, "trialdata": {"rt": -1, "trial_type": "single-stim", "stimulus": "<p id=\"stim\">2</p>", "internal_node_id": "0.0-91.0-8.0", "time_elapsed": 2010875, "key_press": -1, "trial_index": 126}, "uniqueid": "MTK2267:32ZKVD547GU1HJNJQ1ECIAEV12I3BG", "dateTime": 1516909770363}, {"current_trial": 127, "trialdata": {"rt": -1, "trial_type": "single-stim", "stimulus": "<p id=\"stim\">1</p>", "internal_node_id": "0.0-91.0-9.0", "time_elapsed": 2011878, "key_press": -1, "trial_index": 127}, "uniqueid": "MTK2267:32ZKVD547GU1HJNJQ1ECIAEV12I3BG", "dateTime": 1516909771365}, {"current_trial": 128, "trialdata": {"rt": -1, "trial_type": "single-stim", "stimulus": "<p id=\"stim\">+</p>", "internal_node_id": "0.0-92.0-0.0", "time_elapsed": 2013380, "key_press": -1, "type": "FIXATION", "trial_index": 128}, "uniqueid": "MTK2267:32ZKVD547GU1HJNJQ1ECIAEV12I3BG", "dateTime": 1516909772868}, {"current_trial": 129, "trialdata": {"rt": -1000, "trial_type": "single-audio", "word": "butcher", "stimulus": "/static/audio/wordpool/BUTCHER.wav", "conditions": [24, 1600, "a", 24000], "internal_node_id": "0.0-93.0", "trial": 3, "time_elapsed": 2016135, "serialpos": 0, "key_press": -1, "wordID": 202, "type": "PRES_AUD", "trial_index": 129}, "uniqueid": "MTK2267:32ZKVD547GU1HJNJQ1ECIAEV12I3BG", "dateTime": 1516909775622}, {"current_trial": 130, "trialdata": {"rt": -1000, "trial_type": "single-audio", "word": "blender", "stimulus": "/static/audio/wordpool/BLENDER.wav", "conditions": [24, 1600, "a", 24000], "internal_node_id": "0.0-94.0", "trial": 3, "time_elapsed": 2018704, "serialpos": 1, "key_press": -1, "wordID": 135, "type": "PRES_AUD", "trial_index": 130}, "uniqueid": "MTK2267:32ZKVD547GU1HJNJQ1ECIAEV12I3BG", "dateTime": 1516909778191}, {"current_trial": 131, "trialdata": {"rt": -1000, "trial_type": "single-audio", "word": "dress", "stimulus": "/static/audio/wordpool/DRESS.wav", "conditions": [24, 1600, "a", 24000], "internal_node_id": "0.0-95.0", "trial": 3, "time_elapsed": 2021209, "serialpos": 2, "key_press": -1, "wordID": 494, "type": "PRES_AUD", "trial_index": 131}, "uniqueid": "MTK2267:32ZKVD547GU1HJNJQ1ECIAEV12I3BG", "dateTime": 1516909780696}, {"current_trial": 132, "trialdata": {"rt": -1000, "trial_type": "single-audio", "word": "blouse", "stimulus": "/static/audio/wordpool/BLOUSE.wav", "conditions": [24, 1600, "a", 24000], "internal_node_id": "0.0-96.0", "trial": 3, "time_elapsed": 2023826, "serialpos": 3, "key_press": -1, "wordID": 138, "type": "PRES_AUD", "trial_index": 132}, "uniqueid": "MTK2267:32ZKVD547GU1HJNJQ1ECIAEV12I3BG", "dateTime": 1516909783314}, {"current_trial": 133, "trialdata": {"rt": -1000, "trial_type": "single-audio", "word": "turtle", "stimulus": "/static/audio/wordpool/TURTLE.wav", "conditions": [24, 1600, "a", 24000], "internal_node_id": "0.0-97.0", "trial": 3, "time_elapsed": 2026323, "serialpos": 4, "key_press": -1, "wordID": 1521, "type": "PRES_AUD", "trial_index": 133}, "uniqueid": "MTK2267:32ZKVD547GU1HJNJQ1ECIAEV12I3BG", "dateTime": 1516909785814}, {"current_trial": 134, "trialdata": {"rt": -1000, "trial_type": "single-audio", "word": "item", "stimulus": "/static/audio/wordpool/ITEM.wav", "conditions": [24, 1600, "a", 24000], "internal_node_id": "0.0-98.0", "trial": 3, "time_elapsed": 2028979, "serialpos": 5, "key_press": -1, "wordID": 745, "type": "PRES_AUD", "trial_index": 134}, "uniqueid": "MTK2267:32ZKVD547GU1HJNJQ1ECIAEV12I3BG", "dateTime": 1516909788467}, {"current_trial": 135, "trialdata": {"rt": -1000, "trial_type": "single-audio", "word": "space", "stimulus": "/static/audio/wordpool/SPACE.wav", "conditions": [24, 1600, "a", 24000], "internal_node_id": "0.0-99.0", "trial": 3, "time_elapsed": 2031604, "serialpos": 6, "key_press": -1, "wordID": 1344, "type": "PRES_AUD", "trial_index": 135}, "uniqueid": "MTK2267:32ZKVD547GU1HJNJQ1ECIAEV12I3BG", "dateTime": 1516909791091}, {"current_trial": 136, "trialdata": {"rt": -1000, "trial_type": "single-audio", "word": "casket", "stimulus": "/static/audio/wordpool/CASKET.wav", "conditions": [24, 1600, "a", 24000], "internal_node_id": "0.0-100.0", "trial": 3, "time_elapsed": 2034088, "serialpos": 7, "key_press": -1, "wordID": 254, "type": "PRES_AUD", "trial_index": 136}, "uniqueid": "MTK2267:32ZKVD547GU1HJNJQ1ECIAEV12I3BG", "dateTime": 1516909793575}, {"current_trial": 137, "trialdata": {"rt": -1000, "trial_type": "single-audio", "word": "atom", "stimulus": "/static/audio/wordpool/ATOM.wav", "conditions": [24, 1600, "a", 24000], "internal_node_id": "0.0-101.0", "trial": 3, "time_elapsed": 2036684, "serialpos": 8, "key_press": -1, "wordID": 54, "type": "PRES_AUD", "trial_index": 137}, "uniqueid": "MTK2267:32ZKVD547GU1HJNJQ1ECIAEV12I3BG", "dateTime": 1516909796172}, {"current_trial": 138, "trialdata": {"rt": -1000, "trial_type": "single-audio", "word": "lady", "stimulus": "/static/audio/wordpool/LADY.wav", "conditions": [24, 1600, "a", 24000], "internal_node_id": "0.0-102.0", "trial": 3, "time_elapsed": 2039098, "serialpos": 9, "key_press": -1, "wordID": 793, "type": "PRES_AUD", "trial_index": 138}, "uniqueid": "MTK2267:32ZKVD547GU1HJNJQ1ECIAEV12I3BG", "dateTime": 1516909798585}, {"current_trial": 139, "trialdata": {"rt": -1000, "trial_type": "single-audio", "word": "scarf", "stimulus": "/static/audio/wordpool/SCARF.wav", "conditions": [24, 1600, "a", 24000], "internal_node_id": "0.0-103.0", "trial": 3, "time_elapsed": 2041897, "serialpos": 10, "key_press": -1, "wordID": 1245, "type": "PRES_AUD", "trial_index": 139}, "uniqueid": "MTK2267:32ZKVD547GU1HJNJQ1ECIAEV12I3BG", "dateTime": 1516909801385}, {"current_trial": 140, "trialdata": {"rt": -1000, "trial_type": "single-audio", "word": "lizard", "stimulus": "/static/audio/wordpool/LIZARD.wav", "conditions": [24, 1600, "a", 24000], "internal_node_id": "0.0-104.0", "trial": 3, "time_elapsed": 2044368, "serialpos": 11, "key_press": -1, "wordID": 833, "type": "PRES_AUD", "trial_index": 140}, "uniqueid": "MTK2267:32ZKVD547GU1HJNJQ1ECIAEV12I3BG", "dateTime": 1516909803855}, {"current_trial": 141, "trialdata": {"rt": -1000, "trial_type": "single-audio", "word": "mailbox", "stimulus": "/static/audio/wordpool/MAILBOX.wav", "conditions": [24, 1600, "a", 24000], "internal_node_id": "0.0-105.0", "trial": 3, "time_elapsed": 2046812, "serialpos": 12, "key_press": -1, "wordID": 856, "type": "PRES_AUD", "trial_index": 141}, "uniqueid": "MTK2267:32ZKVD547GU1HJNJQ1ECIAEV12I3BG", "dateTime": 1516909806299}, {"current_trial": 142, "trialdata": {"rt": -1000, "trial_type": "single-audio", "word": "crib", "stimulus": "/static/audio/wordpool/CRIB.wav", "conditions": [24, 1600, "a", 24000], "internal_node_id": "0.0-106.0", "trial": 3, "time_elapsed": 2049608, "serialpos": 13, "key_press": -1, "wordID": 406, "type": "PRES_AUD", "trial_index": 142}, "uniqueid": "MTK2267:32ZKVD547GU1HJNJQ1ECIAEV12I3BG", "dateTime": 1516909809095}, {"current_trial": 143, "trialdata": {"rt": -1000, "trial_type": "single-audio", "word": "receipt", "stimulus": "/static/audio/wordpool/RECEIPT.wav", "conditions": [24, 1600, "a", 24000], "internal_node_id": "0.0-107.0", "trial": 3, "time_elapsed": 2052290, "serialpos": 14, "key_press": -1, "wordID": 1172, "type": "PRES_AUD", "trial_index": 143}, "uniqueid": "MTK2267:32ZKVD547GU1HJNJQ1ECIAEV12I3BG", "dateTime": 1516909811777}, {"current_trial": 144, "trialdata": {"rt": -1000, "trial_type": "single-audio", "word": "message", "stimulus": "/static/audio/wordpool/MESSAGE.wav", "conditions": [24, 1600, "a", 24000], "internal_node_id": "0.0-108.0", "trial": 3, "time_elapsed": 2055037, "serialpos": 15, "key_press": -1, "wordID": 887, "type": "PRES_AUD", "trial_index": 144}, "uniqueid": "MTK2267:32ZKVD547GU1HJNJQ1ECIAEV12I3BG", "dateTime": 1516909814524}, {"current_trial": 145, "trialdata": {"rt": -1000, "trial_type": "single-audio", "word": "thread", "stimulus": "/static/audio/wordpool/THREAD.wav", "conditions": [24, 1600, "a", 24000], "internal_node_id": "0.0-109.0", "trial": 3, "time_elapsed": 2057771, "serialpos": 16, "key_press": -1, "wordID": 1459, "type": "PRES_AUD", "trial_index": 145}, "uniqueid": "MTK2267:32ZKVD547GU1HJNJQ1ECIAEV12I3BG", "dateTime": 1516909817258}, {"current_trial": 146, "trialdata": {"rt": -1000, "trial_type": "single-audio", "word": "mattress", "stimulus": "/static/audio/wordpool/MATTRESS.wav", "conditions": [24, 1600, "a", 24000], "internal_node_id": "0.0-110.0", "trial": 3, "time_elapsed": 2060419, "serialpos": 17, "key_press": -1, "wordID": 878, "type": "PRES_AUD", "trial_index": 146}, "uniqueid": "MTK2267:32ZKVD547GU1HJNJQ1ECIAEV12I3BG", "dateTime": 1516909819906}, {"current_trial": 147, "trialdata": {"rt": -1000, "trial_type": "single-audio", "word": "suitcase", "stimulus": "/static/audio/wordpool/SUITCASE.wav", "conditions": [24, 1600, "a", 24000], "internal_node_id": "0.0-111.0", "trial": 3, "time_elapsed": 2062914, "serialpos": 18, "key_press": -1, "wordID": 1402, "type": "PRES_AUD", "trial_index": 147}, "uniqueid": "MTK2267:32ZKVD547GU1HJNJQ1ECIAEV12I3BG", "dateTime": 1516909822402}, {"current_trial": 148, "trialdata": {"rt": -1000, "trial_type": "single-audio", "word": "marine", "stimulus": "/static/audio/wordpool/MARINE.wav", "conditions": [24, 1600, "a", 24000], "internal_node_id": "0.0-112.0", "trial": 3, "time_elapsed": 2065468, "serialpos": 19, "key_press": -1, "wordID": 868, "type": "PRES_AUD", "trial_index": 148}, "uniqueid": "MTK2267:32ZKVD547GU1HJNJQ1ECIAEV12I3BG", "dateTime": 1516909824955}, {"current_trial": 149, "trialdata": {"rt": -1000, "trial_type": "single-audio", "word": "handbag", "stimulus": "/static/audio/wordpool/HANDBAG.wav", "conditions": [24, 1600, "a", 24000], "internal_node_id": "0.0-113.0", "trial": 3, "time_elapsed": 2068264, "serialpos": 20, "key_press": -1, "wordID": 683, "type": "PRES_AUD", "trial_index": 149}, "uniqueid": "MTK2267:32ZKVD547GU1HJNJQ1ECIAEV12I3BG", "dateTime": 1516909827752}, {"current_trial": 150, "trialdata": {"rt": -1000, "trial_type": "single-audio", "word": "necklace", "stimulus": "/static/audio/wordpool/NECKLACE.wav", "conditions": [24, 1600, "a", 24000], "internal_node_id": "0.0-114.0", "trial": 3, "time_elapsed": 2070690, "serialpos": 21, "key_press": -1, "wordID": 939, "type": "PRES_AUD", "trial_index": 150}, "uniqueid": "MTK2267:32ZKVD547GU1HJNJQ1ECIAEV12I3BG", "dateTime": 1516909830178}, {"current_trial": 151, "trialdata": {"rt": -1000, "trial_type": "single-audio", "word": "baby", "stimulus": "/static/audio/wordpool/BABY.wav", "conditions": [24, 1600, "a", 24000], "internal_node_id": "0.0-115.0", "trial": 3, "time_elapsed": 2073327, "serialpos": 22, "key_press": -1, "wordID": 63, "type": "PRES_AUD", "trial_index": 151}, "uniqueid": "MTK2267:32ZKVD547GU1HJNJQ1ECIAEV12I3BG", "dateTime": 1516909832814}, {"current_trial": 152, "trialdata": {"rt": -1000, "trial_type": "single-audio", "word": "fruit", "stimulus": "/static/audio/wordpool/FRUIT.wav", "conditions": [24, 1600, "a", 24000], "internal_node_id": "0.0-116.0", "trial": 3, "time_elapsed": 2076035, "serialpos": 23, "key_press": -1, "wordID": 609, "type": "PRES_AUD", "trial_index": 152}, "uniqueid": "MTK2267:32ZKVD547GU1HJNJQ1ECIAEV12I3BG", "dateTime": 1516909835522}, {"current_trial": 153, "trialdata": {"rt": -1, "trial_type": "single-stim", "stimulus": "", "internal_node_id": "0.0-117.0-0.0", "time_elapsed": 2077395, "key_press": -1, "type": "PRE_RECALL_DELAY", "trial_index": 153}, "uniqueid": "MTK2267:32ZKVD547GU1HJNJQ1ECIAEV12I3BG", "dateTime": 1516909836882}, {"current_trial": 154, "trialdata": {"rt": -1000, "trial_type": "single-audio", "stimulus": "/static/audio/400Hz.wav", "internal_node_id": "0.0-118.0", "time_elapsed": 2077901, "key_press": -1, "type": "PRE_RECALL_ALERT", "trial_index": 154}, "uniqueid": "MTK2267:32ZKVD547GU1HJNJQ1ECIAEV12I3BG", "dateTime": 1516909837388}, {"current_trial": 155, "trialdata": {"rt": [2249, 3449, 5521, 6937, 8585, 9682, 11537, 12962, 14545, 16810, 24538, 25985, 30489, 34993, 40490, 47594, 48610, 58658], "recwords": ["baby", "fruit", "mattress", "necklace", "handbag", "mailbox", "lizard", "message", "thread", "crib", "baby", "fruit", "dress", "space", "spark", "butcher", "blender", "outfit"], "key_times": [1547, 1699, 1818, 1977, 2249, 2538, 2714, 2946, 3099, 3226, 3449, 3665, 3729, 3906, 4130, 4657, 4737, 4937, 5042, 5274, 5426, 5521, 5714, 5810, 6022, 6075, 6314, 6459, 6641, 6866, 6937, 7153, 7257, 7385, 7497, 7745, 8034, 8267, 8585, 8803, 8858, 9018, 9171, 9290, 9394, 9553, 9682, 9890, 10083, 10522, 10787, 10867, 11162, 11537, 11747, 11803, 12091, 12290, 12482, 12538, 12747, 12962, 13746, 13817, 13971, 14058, 14121, 14402, 14545, 16186, 16411, 16507, 16650, 16810, 23506, 23906, 24057, 24266, 24538, 25299, 25483, 25609, 25706, 25793, 25985, 29586, 29810, 29898, 30194, 30371, 30489, 34220, 34356, 34451, 34635, 34851, 34993, 39786, 39924, 40051, 40171, 40275, 40490, 46514, 46715, 46858, 47171, 47274, 47427, 47475, 47594, 47795, 47907, 48010, 48124, 48227, 48403, 48467, 48610, 57175, 57869, 58059, 58308, 58371, 58522, 58658], "trial_type": "free-recall", "conditions": [24, 1600, "a", 24000], "internal_node_id": "0.0-119.0-0.0", "key_presses": [66, 65, 66, 89, 13, 70, 82, 85, 73, 84, 13, 77, 65, 84, 82, 8, 84, 82, 69, 83, 83, 13, 78, 69, 67, 75, 76, 65, 67, 69, 13, 72, 65, 78, 68, 66, 65, 71, 13, 77, 65, 73, 76, 66, 79, 88, 13, 76, 73, 90, 65, 82, 68, 13, 77, 69, 83, 83, 65, 71, 69, 13, 84, 72, 82, 69, 65, 68, 13, 67, 82, 73, 66, 13, 66, 65, 66, 89, 13, 70, 82, 85, 73, 84, 13, 68, 82, 69, 83, 83, 13, 83, 80, 65, 67, 69, 13, 83, 80, 65, 82, 75, 13, 66, 85, 84, 67, 72, 69, 82, 13, 66, 76, 69, 78, 68, 69, 82, 13, 79, 85, 84, 70, 73, 84, 13], "trial": 3, "time_elapsed": 2137905, "type": "FREE_RECALL", "trial_index": 155}, "uniqueid": "MTK2267:32ZKVD547GU1HJNJQ1ECIAEV12I3BG", "dateTime": 1516909897398}, {"current_trial": 156, "trialdata": {"rt": 4577, "trial_type": "text", "internal_node_id": "0.0-120.0", "time_elapsed": 2144490, "key_press": 68, "type": "INSTRUCTIONS", "trial_index": 156}, "uniqueid": "MTK2267:32ZKVD547GU1HJNJQ1ECIAEV12I3BG", "dateTime": 1516909903978}, {"current_trial": 157, "trialdata": {"rt": [5026, 7602, 9626, 13178, 15465, 18306], "trial_type": "math-distractor", "key_times": [4635, 4763, 5026, 7330, 7602, 9052, 9355, 9626, 12725, 12923, 13178, 15140, 15277, 15465, 17899, 18067, 18306, 23572], "responses": ["21", "9", "18", "16", "10", "15"], "num2": [8, 1, 3, 8, 4, 6, 9], "num3": [7, 3, 8, 4, 1, 5, 8], "conditions": [24, 1600, "a", 24000], "internal_node_id": "0.0-121.0", "key_presses": [98, 97, 13, 105, 13, 97, 104, 13, 97, 102, 13, 97, 96, 13, 97, 101, 13, 98], "trial": 4, "time_elapsed": 2170495, "type": "DISTRACTOR", "trial_index": 157, "num1": [7, 5, 7, 4, 5, 4, 5]}, "uniqueid": "MTK2267:32ZKVD547GU1HJNJQ1ECIAEV12I3BG", "dateTime": 1516909929983}, {"current_trial": 158, "trialdata": {"rt": -1, "trial_type": "single-stim", "stimulus": "<p id=\"stim\">10</p>", "internal_node_id": "0.0-122.0-0.0", "time_elapsed": 2173499, "key_press": -1, "trial_index": 158}, "uniqueid": "MTK2267:32ZKVD547GU1HJNJQ1ECIAEV12I3BG", "dateTime": 1516909932987}, {"current_trial": 159, "trialdata": {"rt": -1, "trial_type": "single-stim", "stimulus": "<p id=\"stim\">9</p>", "internal_node_id": "0.0-122.0-1.0", "time_elapsed": 2174502, "key_press": -1, "trial_index": 159}, "uniqueid": "MTK2267:32ZKVD547GU1HJNJQ1ECIAEV12I3BG", "dateTime": 1516909933989}, {"current_trial": 160, "trialdata": {"rt": -1, "trial_type": "single-stim", "stimulus": "<p id=\"stim\">8</p>", "internal_node_id": "0.0-122.0-2.0", "time_elapsed": 2175504, "key_press": -1, "trial_index": 160}, "uniqueid": "MTK2267:32ZKVD547GU1HJNJQ1ECIAEV12I3BG", "dateTime": 1516909934991}, {"current_trial": 161, "trialdata": {"rt": -1, "trial_type": "single-stim", "stimulus": "<p id=\"stim\">7</p>", "internal_node_id": "0.0-122.0-3.0", "time_elapsed": 2176507, "key_press": -1, "trial_index": 161}, "uniqueid": "MTK2267:32ZKVD547GU1HJNJQ1ECIAEV12I3BG", "dateTime": 1516909935995}, {"current_trial": 162, "trialdata": {"rt": -1, "trial_type": "single-stim", "stimulus": "<p id=\"stim\">6</p>", "internal_node_id": "0.0-122.0-4.0", "time_elapsed": 2177510, "key_press": -1, "trial_index": 162}, "uniqueid": "MTK2267:32ZKVD547GU1HJNJQ1ECIAEV12I3BG", "dateTime": 1516909936997}, {"current_trial": 163, "trialdata": {"rt": -1, "trial_type": "single-stim", "stimulus": "<p id=\"stim\">5</p>", "internal_node_id": "0.0-122.0-5.0", "time_elapsed": 2178514, "key_press": -1, "trial_index": 163}, "uniqueid": "MTK2267:32ZKVD547GU1HJNJQ1ECIAEV12I3BG", "dateTime": 1516909938001}, {"current_trial": 164, "trialdata": {"rt": -1, "trial_type": "single-stim", "stimulus": "<p id=\"stim\">4</p>", "internal_node_id": "0.0-122.0-6.0", "time_elapsed": 2179516, "key_press": -1, "trial_index": 164}, "uniqueid": "MTK2267:32ZKVD547GU1HJNJQ1ECIAEV12I3BG", "dateTime": 1516909939003}, {"current_trial": 165, "trialdata": {"rt": -1, "trial_type": "single-stim", "stimulus": "<p id=\"stim\">3</p>", "internal_node_id": "0.0-122.0-7.0", "time_elapsed": 2180518, "key_press": -1, "trial_index": 165}, "uniqueid": "MTK2267:32ZKVD547GU1HJNJQ1ECIAEV12I3BG", "dateTime": 1516909940006}, {"current_trial": 166, "trialdata": {"rt": -1, "trial_type": "single-stim", "stimulus": "<p id=\"stim\">2</p>", "internal_node_id": "0.0-122.0-8.0", "time_elapsed": 2181521, "key_press": -1, "trial_index": 166}, "uniqueid": "MTK2267:32ZKVD547GU1HJNJQ1ECIAEV12I3BG", "dateTime": 1516909941008}, {"current_trial": 167, "trialdata": {"rt": -1, "trial_type": "single-stim", "stimulus": "<p id=\"stim\">1</p>", "internal_node_id": "0.0-122.0-9.0", "time_elapsed": 2182525, "key_press": -1, "trial_index": 167}, "uniqueid": "MTK2267:32ZKVD547GU1HJNJQ1ECIAEV12I3BG", "dateTime": 1516909942012}, {"current_trial": 168, "trialdata": {"rt": -1, "trial_type": "single-stim", "stimulus": "<p id=\"stim\">+</p>", "internal_node_id": "0.0-123.0-0.0", "time_elapsed": 2184026, "key_press": -1, "type": "FIXATION", "trial_index": 168}, "uniqueid": "MTK2267:32ZKVD547GU1HJNJQ1ECIAEV12I3BG", "dateTime": 1516909943515}, {"current_trial": 169, "trialdata": {"rt": -1000, "trial_type": "single-audio", "word": "frame", "stimulus": "/static/audio/wordpool/FRAME.wav", "conditions": [24, 1600, "a", 24000], "internal_node_id": "0.0-124.0", "trial": 4, "time_elapsed": 2186609, "serialpos": 0, "key_press": -1, "wordID": 599, "type": "PRES_AUD", "trial_index": 169}, "uniqueid": "MTK2267:32ZKVD547GU1HJNJQ1ECIAEV12I3BG", "dateTime": 1516909946096}, {"current_trial": 170, "trialdata": {"rt": -1000, "trial_type": "single-audio", "word": "tuba", "stimulus": "/static/audio/wordpool/TUBA.wav", "conditions": [24, 1600, "a", 24000], "internal_node_id": "0.0-125.0", "trial": 4, "time_elapsed": 2189357, "serialpos": 1, "key_press": -1, "wordID": 1514, "type": "PRES_AUD", "trial_index": 170}, "uniqueid": "MTK2267:32ZKVD547GU1HJNJQ1ECIAEV12I3BG", "dateTime": 1516909948845}, {"current_trial": 171, "trialdata": {"rt": -1000, "trial_type": "single-audio", "word": "college", "stimulus": "/static/audio/wordpool/COLLEGE.wav", "conditions": [24, 1600, "a", 24000], "internal_node_id": "0.0-126.0", "trial": 4, "time_elapsed": 2191792, "serialpos": 2, "key_press": -1, "wordID": 345, "type": "PRES_AUD", "trial_index": 171}, "uniqueid": "MTK2267:32ZKVD547GU1HJNJQ1ECIAEV12I3BG", "dateTime": 1516909951279}, {"current_trial": 172, "trialdata": {"rt": -1000, "trial_type": "single-audio", "word": "heart", "stimulus": "/static/audio/wordpool/HEART.wav", "conditions": [24, 1600, "a", 24000], "internal_node_id": "0.0-127.0", "trial": 4, "time_elapsed": 2194324, "serialpos": 3, "key_press": -1, "wordID": 696, "type": "PRES_AUD", "trial_index": 172}, "uniqueid": "MTK2267:32ZKVD547GU1HJNJQ1ECIAEV12I3BG", "dateTime": 1516909953812}, {"current_trial": 173, "trialdata": {"rt": -1000, "trial_type": "single-audio", "word": "plaster", "stimulus": "/static/audio/wordpool/PLASTER.wav", "conditions": [24, 1600, "a", 24000], "internal_node_id": "0.0-128.0", "trial": 4, "time_elapsed": 2196812, "serialpos": 4, "key_press": -1, "wordID": 1084, "type": "PRES_AUD", "trial_index": 173}, "uniqueid": "MTK2267:32ZKVD547GU1HJNJQ1ECIAEV12I3BG", "dateTime": 1516909956299}, {"current_trial": 174, "trialdata": {"rt": -1000, "trial_type": "single-audio", "word": "body", "stimulus": "/static/audio/wordpool/BODY.wav", "conditions": [24, 1600, "a", 24000], "internal_node_id": "0.0-129.0", "trial": 4, "time_elapsed": 2199555, "serialpos": 5, "key_press": -1, "wordID": 144, "type": "PRES_AUD", "trial_index": 174}, "uniqueid": "MTK2267:32ZKVD547GU1HJNJQ1ECIAEV12I3BG", "dateTime": 1516909959042}, {"current_trial": 175, "trialdata": {"rt": -1000, "trial_type": "single-audio", "word": "brandy", "stimulus": "/static/audio/wordpool/BRANDY.wav", "conditions": [24, 1600, "a", 24000], "internal_node_id": "0.0-130.0", "trial": 4, "time_elapsed": 2201990, "serialpos": 6, "key_press": -1, "wordID": 168, "type": "PRES_AUD", "trial_index": 175}, "uniqueid": "MTK2267:32ZKVD547GU1HJNJQ1ECIAEV12I3BG", "dateTime": 1516909961477}, {"current_trial": 176, "trialdata": {"rt": -1000, "trial_type": "single-audio", "word": "cupboard", "stimulus": "/static/audio/wordpool/CUPBOARD.wav", "conditions": [24, 1600, "a", 24000], "internal_node_id": "0.0-131.0", "trial": 4, "time_elapsed": 2204607, "serialpos": 7, "key_press": -1, "wordID": 424, "type": "PRES_AUD", "trial_index": 176}, "uniqueid": "MTK2267:32ZKVD547GU1HJNJQ1ECIAEV12I3BG", "dateTime": 1516909964094}, {"current_trial": 177, "trialdata": {"rt": -1000, "trial_type": "single-audio", "word": "dresser", "stimulus": "/static/audio/wordpool/DRESSER.wav", "conditions": [24, 1600, "a", 24000], "internal_node_id": "0.0-132.0", "trial": 4, "time_elapsed": 2207130, "serialpos": 8, "key_press": -1, "wordID": 495, "type": "PRES_AUD", "trial_index": 177}, "uniqueid": "MTK2267:32ZKVD547GU1HJNJQ1ECIAEV12I3BG", "dateTime": 1516909966617}, {"current_trial": 178, "trialdata": {"rt": -1000, "trial_type": "single-audio", "word": "viking", "stimulus": "/static/audio/wordpool/VIKING.wav", "conditions": [24, 1600, "a", 24000], "internal_node_id": "0.0-133.0", "trial": 4, "time_elapsed": 2209679, "serialpos": 9, "key_press": -1, "wordID": 1564, "type": "PRES_AUD", "trial_index": 178}, "uniqueid": "MTK2267:32ZKVD547GU1HJNJQ1ECIAEV12I3BG", "dateTime": 1516909969166}, {"current_trial": 179, "trialdata": {"rt": -1000, "trial_type": "single-audio", "word": "scotch", "stimulus": "/static/audio/wordpool/SCOTCH.wav", "conditions": [24, 1600, "a", 24000], "internal_node_id": "0.0-134.0", "trial": 4, "time_elapsed": 2212335, "serialpos": 10, "key_press": -1, "wordID": 1250, "type": "PRES_AUD", "trial_index": 179}, "uniqueid": "MTK2267:32ZKVD547GU1HJNJQ1ECIAEV12I3BG", "dateTime": 1516909971823}, {"current_trial": 180, "trialdata": {"rt": -1000, "trial_type": "single-audio", "word": "shoulder", "stimulus": "/static/audio/wordpool/SHOULDER.wav", "conditions": [24, 1600, "a", 24000], "internal_node_id": "0.0-135.0", "trial": 4, "time_elapsed": 2214893, "serialpos": 11, "key_press": -1, "wordID": 1293, "type": "PRES_AUD", "trial_index": 180}, "uniqueid": "MTK2267:32ZKVD547GU1HJNJQ1ECIAEV12I3BG", "dateTime": 1516909974380}, {"current_trial": 181, "trialdata": {"rt": -1000, "trial_type": "single-audio", "word": "robin", "stimulus": "/static/audio/wordpool/ROBIN.wav", "conditions": [24, 1600, "a", 24000], "internal_node_id": "0.0-136.0", "trial": 4, "time_elapsed": 2217348, "serialpos": 12, "key_press": -1, "wordID": 1198, "type": "PRES_AUD", "trial_index": 181}, "uniqueid": "MTK2267:32ZKVD547GU1HJNJQ1ECIAEV12I3BG", "dateTime": 1516909976835}, {"current_trial": 182, "trialdata": {"rt": -1000, "trial_type": "single-audio", "word": "canyon", "stimulus": "/static/audio/wordpool/CANYON.wav", "conditions": [24, 1600, "a", 24000], "internal_node_id": "0.0-137.0", "trial": 4, "time_elapsed": 2219931, "serialpos": 13, "key_press": -1, "wordID": 234, "type": "PRES_AUD", "trial_index": 182}, "uniqueid": "MTK2267:32ZKVD547GU1HJNJQ1ECIAEV12I3BG", "dateTime": 1516909979422}, {"current_trial": 183, "trialdata": {"rt": -1000, "trial_type": "single-audio", "word": "shirt", "stimulus": "/static/audio/wordpool/SHIRT.wav", "conditions": [24, 1600, "a", 24000], "internal_node_id": "0.0-138.0", "trial": 4, "time_elapsed": 2222492, "serialpos": 14, "key_press": -1, "wordID": 1286, "type": "PRES_AUD", "trial_index": 183}, "uniqueid": "MTK2267:32ZKVD547GU1HJNJQ1ECIAEV12I3BG", "dateTime": 1516909981979}, {"current_trial": 184, "trialdata": {"rt": -1000, "trial_type": "single-audio", "word": "camel", "stimulus": "/static/audio/wordpool/CAMEL.wav", "conditions": [24, 1600, "a", 24000], "internal_node_id": "0.0-139.0", "trial": 4, "time_elapsed": 2224960, "serialpos": 15, "key_press": -1, "wordID": 222, "type": "PRES_AUD", "trial_index": 184}, "uniqueid": "MTK2267:32ZKVD547GU1HJNJQ1ECIAEV12I3BG", "dateTime": 1516909984448}, {"current_trial": 185, "trialdata": {"rt": -1000, "trial_type": "single-audio", "word": "donkey", "stimulus": "/static/audio/wordpool/DONKEY.wav", "conditions": [24, 1600, "a", 24000], "internal_node_id": "0.0-140.0", "trial": 4, "time_elapsed": 2227428, "serialpos": 16, "key_press": -1, "wordID": 483, "type": "PRES_AUD", "trial_index": 185}, "uniqueid": "MTK2267:32ZKVD547GU1HJNJQ1ECIAEV12I3BG", "dateTime": 1516909986915}, {"current_trial": 186, "trialdata": {"rt": -1000, "trial_type": "single-audio", "word": "patrol", "stimulus": "/static/audio/wordpool/PATROL.wav", "conditions": [24, 1600, "a", 24000], "internal_node_id": "0.0-141.0", "trial": 4, "time_elapsed": 2229854, "serialpos": 17, "key_press": -1, "wordID": 1026, "type": "PRES_AUD", "trial_index": 186}, "uniqueid": "MTK2267:32ZKVD547GU1HJNJQ1ECIAEV12I3BG", "dateTime": 1516909989341}, {"current_trial": 187, "trialdata": {"rt": -1000, "trial_type": "single-audio", "word": "omelet", "stimulus": "/static/audio/wordpool/OMELET.wav", "conditions": [24, 1600, "a", 24000], "internal_node_id": "0.0-142.0", "trial": 4, "time_elapsed": 2232334, "serialpos": 18, "key_press": -1, "wordID": 975, "type": "PRES_AUD", "trial_index": 187}, "uniqueid": "MTK2267:32ZKVD547GU1HJNJQ1ECIAEV12I3BG", "dateTime": 1516909991821}, {"current_trial": 188, "trialdata": {"rt": -1000, "trial_type": "single-audio", "word": "spouse", "stimulus": "/static/audio/wordpool/SPOUSE.wav", "conditions": [24, 1600, "a", 24000], "internal_node_id": "0.0-143.0", "trial": 4, "time_elapsed": 2234838, "serialpos": 19, "key_press": -1, "wordID": 1357, "type": "PRES_AUD", "trial_index": 188}, "uniqueid": "MTK2267:32ZKVD547GU1HJNJQ1ECIAEV12I3BG", "dateTime": 1516909994325}, {"current_trial": 189, "trialdata": {"rt": -1000, "trial_type": "single-audio", "word": "church", "stimulus": "/static/audio/wordpool/CHURCH.wav", "conditions": [24, 1600, "a", 24000], "internal_node_id": "0.0-144.0", "trial": 4, "time_elapsed": 2237543, "serialpos": 20, "key_press": -1, "wordID": 306, "type": "PRES_AUD", "trial_index": 189}, "uniqueid": "MTK2267:32ZKVD547GU1HJNJQ1ECIAEV12I3BG", "dateTime": 1516909997030}, {"current_trial": 190, "trialdata": {"rt": -1000, "trial_type": "single-audio", "word": "cashier", "stimulus": "/static/audio/wordpool/CASHIER.wav", "conditions": [24, 1600, "a", 24000], "internal_node_id": "0.0-145.0", "trial": 4, "time_elapsed": 2240296, "serialpos": 21, "key_press": -1, "wordID": 253, "type": "PRES_AUD", "trial_index": 190}, "uniqueid": "MTK2267:32ZKVD547GU1HJNJQ1ECIAEV12I3BG", "dateTime": 1516909999784}, {"current_trial": 191, "trialdata": {"rt": -1000, "trial_type": "single-audio", "word": "luggage", "stimulus": "/static/audio/wordpool/LUGGAGE.wav", "conditions": [24, 1600, "a", 24000], "internal_node_id": "0.0-146.0", "trial": 4, "time_elapsed": 2242768, "serialpos": 22, "key_press": -1, "wordID": 846, "type": "PRES_AUD", "trial_index": 191}, "uniqueid": "MTK2267:32ZKVD547GU1HJNJQ1ECIAEV12I3BG", "dateTime": 1516910002256}, {"current_trial": 192, "trialdata": {"rt": -1000, "trial_type": "single-audio", "word": "valley", "stimulus": "/static/audio/wordpool/VALLEY.wav", "conditions": [24, 1600, "a", 24000], "internal_node_id": "0.0-147.0", "trial": 4, "time_elapsed": 2245545, "serialpos": 23, "key_press": -1, "wordID": 1544, "type": "PRES_AUD", "trial_index": 192}, "uniqueid": "MTK2267:32ZKVD547GU1HJNJQ1ECIAEV12I3BG", "dateTime": 1516910005032}, {"current_trial": 193, "trialdata": {"rt": -1, "trial_type": "single-stim", "stimulus": "", "internal_node_id": "0.0-148.0-0.0", "time_elapsed": 2246814, "key_press": -1, "type": "PRE_RECALL_DELAY", "trial_index": 193}, "uniqueid": "MTK2267:32ZKVD547GU1HJNJQ1ECIAEV12I3BG", "dateTime": 1516910006301}, {"current_trial": 194, "trialdata": {"rt": -1000, "trial_type": "single-audio", "stimulus": "/static/audio/400Hz.wav", "internal_node_id": "0.0-149.0", "time_elapsed": 2247315, "key_press": -1, "type": "PRE_RECALL_ALERT", "trial_index": 194}, "uniqueid": "MTK2267:32ZKVD547GU1HJNJQ1ECIAEV12I3BG", "dateTime": 1516910006802}, {"current_trial": 195, "trialdata": {"rt": [3683, 5411, 6523, 7715, 10755, 11539, 13403, 14987, 17148, 19595, 23499, 24571, 25876, 29595, 34187, 36083, 37755, 39652, 42427], "recwords": ["luggage", "valley", "shirt", "cashier", "frame", "tuba", "college", "plaster", "cupboard", "dresser", "valley", "viking", "shoulder", "scotch", "shirt", "camel", "donkey", "patrol", "spouse"], "key_times": [1694, 1981, 2131, 2275, 2435, 2597, 2797, 3683, 3973, 4382, 4460, 4612, 4700, 4859, 4967, 5092, 5411, 5981, 6075, 6157, 6260, 6396, 6523, 6757, 6957, 7140, 7236, 7373, 7444, 7549, 7715, 10101, 10293, 10349, 10493, 10581, 10755, 10940, 11060, 11188, 11324, 11539, 11997, 12092, 12293, 12430, 12484, 12692, 13108, 13403, 13764, 14012, 14139, 14356, 14559, 14763, 14837, 14987, 15637, 15732, 15869, 16028, 16140, 16280, 16341, 16629, 17148, 18195, 18427, 18515, 18757, 18934, 19140, 19179, 19595, 21644, 21949, 22132, 22292, 22397, 22559, 23499, 23717, 23813, 23997, 24187, 24331, 24381, 24571, 25027, 25099, 25212, 25301, 25461, 25533, 25717, 25788, 25876, 28262, 28493, 28661, 28831, 29238, 29331, 29595, 33510, 33725, 33829, 33917, 34103, 34187, 35292, 35452, 35580, 35676, 35805, 36083, 36893, 37046, 37147, 37260, 37357, 37517, 37755, 38116, 38508, 38725, 38781, 38957, 39140, 39228, 39417, 39652, 41583, 41725, 41903, 42036, 42164, 42252, 42427], "trial_type": "free-recall", "conditions": [24, 1600, "a", 24000], "internal_node_id": "0.0-150.0-0.0", "key_presses": [76, 85, 71, 71, 65, 71, 69, 13, 70, 8, 86, 65, 76, 76, 69, 89, 13, 83, 72, 73, 82, 84, 13, 67, 65, 83, 72, 73, 69, 82, 13, 70, 82, 65, 77, 69, 13, 84, 85, 66, 65, 13, 67, 79, 76, 76, 69, 71, 69, 13, 80, 76, 65, 83, 84, 69, 82, 13, 67, 85, 80, 66, 79, 65, 82, 68, 13, 68, 82, 69, 83, 83, 69, 82, 13, 86, 65, 76, 76, 69, 89, 13, 86, 73, 75, 73, 78, 71, 13, 83, 72, 79, 85, 76, 68, 69, 82, 13, 83, 67, 79, 84, 67, 72, 13, 83, 72, 73, 82, 84, 13, 67, 65, 77, 69, 76, 13, 68, 79, 78, 75, 69, 89, 13, 66, 8, 80, 65, 84, 82, 79, 76, 13, 83, 80, 79, 85, 83, 69, 13], "trial": 4, "time_elapsed": 2307319, "type": "FREE_RECALL", "trial_index": 195}, "uniqueid": "MTK2267:32ZKVD547GU1HJNJQ1ECIAEV12I3BG", "dateTime": 1516910066813}, {"current_trial": 196, "trialdata": {"rt": 1033, "trial_type": "text", "internal_node_id": "0.0-151.0", "time_elapsed": 2310363, "key_press": 75, "type": "INSTRUCTIONS", "trial_index": 196}, "uniqueid": "MTK2267:32ZKVD547GU1HJNJQ1ECIAEV12I3BG", "dateTime": 1516910069850}, {"current_trial": 197, "trialdata": {"rt": [3018, 5065, 7217, 9409, 12226, 16265, 18633, 21201, 22961], "trial_type": "math-distractor", "key_times": [2193, 2315, 3018, 4681, 4875, 5065, 6509, 6994, 7217, 8971, 9186, 9409, 11826, 12003, 12226, 15970, 16081, 16265, 18321, 18633, 20581, 20891, 21201, 22402, 22547, 22961], "responses": ["12", "13", "19", "19", "13", "20", "9", "18", "14"], "num2": [8, 1, 7, 9, 3, 8, 1, 9, 6, 1], "num3": [2, 3, 7, 2, 9, 3, 7, 2, 6, 1], "conditions": [12, 1600, "a", 24000], "internal_node_id": "0.0-152.0", "key_presses": [97, 98, 13, 97, 99, 13, 97, 105, 13, 97, 105, 13, 97, 99, 13, 98, 96, 13, 105, 13, 97, 104, 13, 97, 100, 13], "trial": 5, "time_elapsed": 2336368, "type": "DISTRACTOR", "trial_index": 197, "num1": [2, 9, 5, 8, 1, 9, 1, 7, 2, 2]}, "uniqueid": "MTK2267:32ZKVD547GU1HJNJQ1ECIAEV12I3BG", "dateTime": 1516910095855}, {"current_trial": 198, "trialdata": {"rt": -1, "trial_type": "single-stim", "stimulus": "<p id=\"stim\">10</p>", "internal_node_id": "0.0-153.0-0.0", "time_elapsed": 2339370, "key_press": -1, "trial_index": 198}, "uniqueid": "MTK2267:32ZKVD547GU1HJNJQ1ECIAEV12I3BG", "dateTime": 1516910098858}, {"current_trial": 199, "trialdata": {"rt": -1, "trial_type": "single-stim", "stimulus": "<p id=\"stim\">9</p>", "internal_node_id": "0.0-153.0-1.0", "time_elapsed": 2340373, "key_press": -1, "trial_index": 199}, "uniqueid": "MTK2267:32ZKVD547GU1HJNJQ1ECIAEV12I3BG", "dateTime": 1516910099860}, {"current_trial": 200, "trialdata": {"rt": -1, "trial_type": "single-stim", "stimulus": "<p id=\"stim\">8</p>", "internal_node_id": "0.0-153.0-2.0", "time_elapsed": 2341377, "key_press": -1, "trial_index": 200}, "uniqueid": "MTK2267:32ZKVD547GU1HJNJQ1ECIAEV12I3BG", "dateTime": 1516910100865}, {"current_trial": 201, "trialdata": {"rt": -1, "trial_type": "single-stim", "stimulus": "<p id=\"stim\">7</p>", "internal_node_id": "0.0-153.0-3.0", "time_elapsed": 2342394, "key_press": -1, "trial_index": 201}, "uniqueid": "MTK2267:32ZKVD547GU1HJNJQ1ECIAEV12I3BG", "dateTime": 1516910101881}, {"current_trial": 202, "trialdata": {"rt": -1, "trial_type": "single-stim", "stimulus": "<p id=\"stim\">6</p>", "internal_node_id": "0.0-153.0-4.0", "time_elapsed": 2343460, "key_press": -1, "trial_index": 202}, "uniqueid": "MTK2267:32ZKVD547GU1HJNJQ1ECIAEV12I3BG", "dateTime": 1516910102947}, {"current_trial": 203, "trialdata": {"rt": -1, "trial_type": "single-stim", "stimulus": "<p id=\"stim\">5</p>", "internal_node_id": "0.0-153.0-5.0", "time_elapsed": 2344461, "key_press": -1, "trial_index": 203}, "uniqueid": "MTK2267:32ZKVD547GU1HJNJQ1ECIAEV12I3BG", "dateTime": 1516910103949}, {"current_trial": 204, "trialdata": {"rt": -1, "trial_type": "single-stim", "stimulus": "<p id=\"stim\">4</p>", "internal_node_id": "0.0-153.0-6.0", "time_elapsed": 2345464, "key_press": -1, "trial_index": 204}, "uniqueid": "MTK2267:32ZKVD547GU1HJNJQ1ECIAEV12I3BG", "dateTime": 1516910104951}, {"current_trial": 205, "trialdata": {"rt": -1, "trial_type": "single-stim", "stimulus": "<p id=\"stim\">3</p>", "internal_node_id": "0.0-153.0-7.0", "time_elapsed": 2346466, "key_press": -1, "trial_index": 205}, "uniqueid": "MTK2267:32ZKVD547GU1HJNJQ1ECIAEV12I3BG", "dateTime": 1516910105953}, {"current_trial": 206, "trialdata": {"rt": -1, "trial_type": "single-stim", "stimulus": "<p id=\"stim\">2</p>", "internal_node_id": "0.0-153.0-8.0", "time_elapsed": 2347468, "key_press": -1, "trial_index": 206}, "uniqueid": "MTK2267:32ZKVD547GU1HJNJQ1ECIAEV12I3BG", "dateTime": 1516910106955}, {"current_trial": 207, "trialdata": {"rt": -1, "trial_type": "single-stim", "stimulus": "<p id=\"stim\">1</p>", "internal_node_id": "0.0-153.0-9.0", "time_elapsed": 2348470, "key_press": -1, "trial_index": 207}, "uniqueid": "MTK2267:32ZKVD547GU1HJNJQ1ECIAEV12I3BG", "dateTime": 1516910107957}, {"current_trial": 208, "trialdata": {"rt": -1, "trial_type": "single-stim", "stimulus": "<p id=\"stim\">+</p>", "internal_node_id": "0.0-154.0-0.0", "time_elapsed": 2349972, "key_press": -1, "type": "FIXATION", "trial_index": 208}, "uniqueid": "MTK2267:32ZKVD547GU1HJNJQ1ECIAEV12I3BG", "dateTime": 1516910109459}, {"current_trial": 209, "trialdata": {"rt": -1000, "trial_type": "single-audio", "word": "beaker", "stimulus": "/static/audio/wordpool/BEAKER.wav", "conditions": [12, 1600, "a", 24000], "internal_node_id": "0.0-155.0", "trial": 5, "time_elapsed": 2352724, "serialpos": 0, "key_press": -1, "wordID": 103, "type": "PRES_AUD", "trial_index": 209}, "uniqueid": "MTK2267:32ZKVD547GU1HJNJQ1ECIAEV12I3BG", "dateTime": 1516910112211}, {"current_trial": 210, "trialdata": {"rt": -1000, "trial_type": "single-audio", "word": "virus", "stimulus": "/static/audio/wordpool/VIRUS.wav", "conditions": [12, 1600, "a", 24000], "internal_node_id": "0.0-156.0", "trial": 5, "time_elapsed": 2355430, "serialpos": 1, "key_press": -1, "wordID": 1571, "type": "PRES_AUD", "trial_index": 210}, "uniqueid": "MTK2267:32ZKVD547GU1HJNJQ1ECIAEV12I3BG", "dateTime": 1516910114917}, {"current_trial": 211, "trialdata": {"rt": -1000, "trial_type": "single-audio", "word": "staple", "stimulus": "/static/audio/wordpool/STAPLE.wav", "conditions": [12, 1600, "a", 24000], "internal_node_id": "0.0-157.0", "trial": 5, "time_elapsed": 2357972, "serialpos": 2, "key_press": -1, "wordID": 1370, "type": "PRES_AUD", "trial_index": 211}, "uniqueid": "MTK2267:32ZKVD547GU1HJNJQ1ECIAEV12I3BG", "dateTime": 1516910117459}, {"current_trial": 212, "trialdata": {"rt": -1000, "trial_type": "single-audio", "word": "bubble", "stimulus": "/static/audio/wordpool/BUBBLE.wav", "conditions": [12, 1600, "a", 24000], "internal_node_id": "0.0-158.0", "trial": 5, "time_elapsed": 2360461, "serialpos": 3, "key_press": -1, "wordID": 182, "type": "PRES_AUD", "trial_index": 212}, "uniqueid": "MTK2267:32ZKVD547GU1HJNJQ1ECIAEV12I3BG", "dateTime": 1516910119948}, {"current_trial": 213, "trialdata": {"rt": -1000, "trial_type": "single-audio", "word": "actor", "stimulus": "/static/audio/wordpool/ACTOR.wav", "conditions": [12, 1600, "a", 24000], "internal_node_id": "0.0-159.0", "trial": 5, "time_elapsed": 2362894, "serialpos": 4, "key_press": -1, "wordID": 4, "type": "PRES_AUD", "trial_index": 213}, "uniqueid": "MTK2267:32ZKVD547GU1HJNJQ1ECIAEV12I3BG", "dateTime": 1516910122386}, {"current_trial": 214, "trialdata": {"rt": -1000, "trial_type": "single-audio", "word": "film", "stimulus": "/static/audio/wordpool/FILM.wav", "conditions": [12, 1600, "a", 24000], "internal_node_id": "0.0-160.0", "trial": 5, "time_elapsed": 2365689, "serialpos": 5, "key_press": -1, "wordID": 564, "type": "PRES_AUD", "trial_index": 214}, "uniqueid": "MTK2267:32ZKVD547GU1HJNJQ1ECIAEV12I3BG", "dateTime": 1516910125176}, {"current_trial": 215, "trialdata": {"rt": -1000, "trial_type": "single-audio", "word": "lagoon", "stimulus": "/static/audio/wordpool/LAGOON.wav", "conditions": [12, 1600, "a", 24000], "internal_node_id": "0.0-161.0", "trial": 5, "time_elapsed": 2368131, "serialpos": 6, "key_press": -1, "wordID": 794, "type": "PRES_AUD", "trial_index": 215}, "uniqueid": "MTK2267:32ZKVD547GU1HJNJQ1ECIAEV12I3BG", "dateTime": 1516910127618}, {"current_trial": 216, "trialdata": {"rt": -1000, "trial_type": "single-audio", "word": "preacher", "stimulus": "/static/audio/wordpool/PREACHER.wav", "conditions": [12, 1600, "a", 24000], "internal_node_id": "0.0-162.0", "trial": 5, "time_elapsed": 2370642, "serialpos": 7, "key_press": -1, "wordID": 1118, "type": "PRES_AUD", "trial_index": 216}, "uniqueid": "MTK2267:32ZKVD547GU1HJNJQ1ECIAEV12I3BG", "dateTime": 1516910130130}, {"current_trial": 217, "trialdata": {"rt": -1000, "trial_type": "single-audio", "word": "catcher", "stimulus": "/static/audio/wordpool/CATCHER.wav", "conditions": [12, 1600, "a", 24000], "internal_node_id": "0.0-163.0", "trial": 5, "time_elapsed": 2373246, "serialpos": 8, "key_press": -1, "wordID": 257, "type": "PRES_AUD", "trial_index": 217}, "uniqueid": "MTK2267:32ZKVD547GU1HJNJQ1ECIAEV12I3BG", "dateTime": 1516910132734}, {"current_trial": 218, "trialdata": {"rt": -1000, "trial_type": "single-audio", "word": "banjo", "stimulus": "/static/audio/wordpool/BANJO.wav", "conditions": [12, 1600, "a", 24000], "internal_node_id": "0.0-164.0", "trial": 5, "time_elapsed": 2375721, "serialpos": 9, "key_press": -1, "wordID": 81, "type": "PRES_AUD", "trial_index": 218}, "uniqueid": "MTK2267:32ZKVD547GU1HJNJQ1ECIAEV12I3BG", "dateTime": 1516910135208}, {"current_trial": 219, "trialdata": {"rt": -1000, "trial_type": "single-audio", "word": "lake", "stimulus": "/static/audio/wordpool/LAKE.wav", "conditions": [12, 1600, "a", 24000], "internal_node_id": "0.0-165.0", "trial": 5, "time_elapsed": 2378318, "serialpos": 10, "key_press": -1, "wordID": 795, "type": "PRES_AUD", "trial_index": 219}, "uniqueid": "MTK2267:32ZKVD547GU1HJNJQ1ECIAEV12I3BG", "dateTime": 1516910137806}, {"current_trial": 220, "trialdata": {"rt": -1000, "trial_type": "single-audio", "word": "icing", "stimulus": "/static/audio/wordpool/ICING.wav", "conditions": [12, 1600, "a", 24000], "internal_node_id": "0.0-166.0", "trial": 5, "time_elapsed": 2381053, "serialpos": 11, "key_press": -1, "wordID": 731, "type": "PRES_AUD", "trial_index": 220}, "uniqueid": "MTK2267:32ZKVD547GU1HJNJQ1ECIAEV12I3BG", "dateTime": 1516910140540}, {"current_trial": 221, "trialdata": {"rt": -1, "trial_type": "single-stim", "stimulus": "", "internal_node_id": "0.0-167.0-0.0", "time_elapsed": 2382372, "key_press": -1, "type": "PRE_RECALL_DELAY", "trial_index": 221}, "uniqueid": "MTK2267:32ZKVD547GU1HJNJQ1ECIAEV12I3BG", "dateTime": 1516910141860}, {"current_trial": 222, "trialdata": {"rt": -1000, "trial_type": "single-audio", "stimulus": "/static/audio/400Hz.wav", "internal_node_id": "0.0-168.0", "time_elapsed": 2382875, "key_press": -1, "type": "PRE_RECALL_ALERT", "trial_index": 222}, "uniqueid": "MTK2267:32ZKVD547GU1HJNJQ1ECIAEV12I3BG", "dateTime": 1516910142363}, {"current_trial": 223, "trialdata": {"rt": [2465, 3785, 4473, 5729, 7929, 9441, 10777, 11833, 15113], "recwords": ["preacher", "banjo", "lake", "icing", "actor", "beaker", "staple", "virus", "bubble"], "key_times": [1592, 1706, 1770, 1826, 2034, 2129, 2298, 2362, 2465, 2642, 2777, 2961, 3409, 3537, 3785, 4043, 4082, 4226, 4291, 4473, 4689, 4842, 5201, 5378, 5482, 5729, 7178, 7370, 7577, 7644, 7849, 7929, 8105, 8321, 8433, 8541, 8913, 9130, 9228, 9282, 9441, 9634, 9850, 9930, 10306, 10498, 10593, 10777, 10881, 11043, 11146, 11298, 11467, 11833, 14306, 14467, 14593, 14762, 14834, 14963, 15113], "trial_type": "free-recall", "conditions": [12, 1600, "a", 24000], "internal_node_id": "0.0-169.0-0.0", "key_presses": [80, 82, 69, 65, 67, 72, 69, 82, 13, 66, 65, 78, 74, 79, 13, 76, 65, 75, 69, 32, 73, 67, 73, 78, 71, 13, 65, 67, 84, 79, 82, 13, 66, 69, 65, 82, 8, 75, 69, 82, 13, 83, 84, 65, 80, 76, 69, 13, 86, 73, 82, 85, 83, 13, 66, 85, 66, 66, 76, 69, 13], "trial": 5, "time_elapsed": 2442881, "type": "FREE_RECALL", "trial_index": 223}, "uniqueid": "MTK2267:32ZKVD547GU1HJNJQ1ECIAEV12I3BG", "dateTime": 1516910202376}, {"current_trial": 224, "trialdata": {"rt": 2657, "trial_type": "text", "internal_node_id": "0.0-170.0", "time_elapsed": 2447548, "key_press": 76, "type": "INSTRUCTIONS", "trial_index": 224}, "uniqueid": "MTK2267:32ZKVD547GU1HJNJQ1ECIAEV12I3BG", "dateTime": 1516910207035}, {"current_trial": 225, "trialdata": {"rt": [2680, 4313, 8089, 10321, 12465, 15361, 17561, 19393, 21858, 23510], "trial_type": "math-distractor", "key_times": [1960, 2216, 2680, 3648, 3897, 4313, 7386, 7834, 8089, 9842, 10059, 10321, 12025, 12283, 12465, 14953, 15115, 15361, 17130, 17378, 17561, 18998, 19210, 19393, 21314, 21620, 21858, 23034, 23265, 23510], "responses": ["11", "12", "19", "10", "15", "16", "14", "11", "15", "14"], "num2": [1, 2, 6, 2, 6, 3, 1, 6, 6, 4, 2], "num3": [6, 5, 5, 1, 4, 6, 5, 1, 4, 1, 1], "conditions": [12, 800, "a", 24000], "internal_node_id": "0.0-171.0", "key_presses": [97, 97, 13, 97, 98, 13, 97, 105, 13, 97, 96, 13, 97, 101, 13, 97, 102, 13, 97, 100, 13, 97, 97, 13, 97, 101, 13, 97, 100, 13], "trial": 6, "time_elapsed": 2473553, "type": "DISTRACTOR", "trial_index": 225, "num1": [4, 5, 9, 7, 5, 7, 8, 4, 5, 9, 2]}, "uniqueid": "MTK2267:32ZKVD547GU1HJNJQ1ECIAEV12I3BG", "dateTime": 1516910233040}, {"current_trial": 226, "trialdata": {"rt": -1, "trial_type": "single-stim", "stimulus": "<p id=\"stim\">10</p>", "internal_node_id": "0.0-172.0-0.0", "time_elapsed": 2476556, "key_press": -1, "trial_index": 226}, "uniqueid": "MTK2267:32ZKVD547GU1HJNJQ1ECIAEV12I3BG", "dateTime": 1516910236043}, {"current_trial": 227, "trialdata": {"rt": -1, "trial_type": "single-stim", "stimulus": "<p id=\"stim\">9</p>", "internal_node_id": "0.0-172.0-1.0", "time_elapsed": 2477559, "key_press": -1, "trial_index": 227}, "uniqueid": "MTK2267:32ZKVD547GU1HJNJQ1ECIAEV12I3BG", "dateTime": 1516910237047}, {"current_trial": 228, "trialdata": {"rt": -1, "trial_type": "single-stim", "stimulus": "<p id=\"stim\">8</p>", "internal_node_id": "0.0-172.0-2.0", "time_elapsed": 2478562, "key_press": -1, "trial_index": 228}, "uniqueid": "MTK2267:32ZKVD547GU1HJNJQ1ECIAEV12I3BG", "dateTime": 1516910238049}, {"current_trial": 229, "trialdata": {"rt": -1, "trial_type": "single-stim", "stimulus": "<p id=\"stim\">7</p>", "internal_node_id": "0.0-172.0-3.0", "time_elapsed": 2479564, "key_press": -1, "trial_index": 229}, "uniqueid": "MTK2267:32ZKVD547GU1HJNJQ1ECIAEV12I3BG", "dateTime": 1516910239052}, {"current_trial": 230, "trialdata": {"rt": -1, "trial_type": "single-stim", "stimulus": "<p id=\"stim\">6</p>", "internal_node_id": "0.0-172.0-4.0", "time_elapsed": 2480566, "key_press": -1, "trial_index": 230}, "uniqueid": "MTK2267:32ZKVD547GU1HJNJQ1ECIAEV12I3BG", "dateTime": 1516910240053}, {"current_trial": 231, "trialdata": {"rt": -1, "trial_type": "single-stim", "stimulus": "<p id=\"stim\">5</p>", "internal_node_id": "0.0-172.0-5.0", "time_elapsed": 2481567, "key_press": -1, "trial_index": 231}, "uniqueid": "MTK2267:32ZKVD547GU1HJNJQ1ECIAEV12I3BG", "dateTime": 1516910241054}, {"current_trial": 232, "trialdata": {"rt": -1, "trial_type": "single-stim", "stimulus": "<p id=\"stim\">4</p>", "internal_node_id": "0.0-172.0-6.0", "time_elapsed": 2482569, "key_press": -1, "trial_index": 232}, "uniqueid": "MTK2267:32ZKVD547GU1HJNJQ1ECIAEV12I3BG", "dateTime": 1516910242056}, {"current_trial": 233, "trialdata": {"rt": -1, "trial_type": "single-stim", "stimulus": "<p id=\"stim\">3</p>", "internal_node_id": "0.0-172.0-7.0", "time_elapsed": 2483572, "key_press": -1, "trial_index": 233}, "uniqueid": "MTK2267:32ZKVD547GU1HJNJQ1ECIAEV12I3BG", "dateTime": 1516910243059}, {"current_trial": 234, "trialdata": {"rt": -1, "trial_type": "single-stim", "stimulus": "<p id=\"stim\">2</p>", "internal_node_id": "0.0-172.0-8.0", "time_elapsed": 2484575, "key_press": -1, "trial_index": 234}, "uniqueid": "MTK2267:32ZKVD547GU1HJNJQ1ECIAEV12I3BG", "dateTime": 1516910244062}, {"current_trial": 235, "trialdata": {"rt": -1, "trial_type": "single-stim", "stimulus": "<p id=\"stim\">1</p>", "internal_node_id": "0.0-172.0-9.0", "time_elapsed": 2485576, "key_press": -1, "trial_index": 235}, "uniqueid": "MTK2267:32ZKVD547GU1HJNJQ1ECIAEV12I3BG", "dateTime": 1516910245064}, {"current_trial": 236, "trialdata": {"rt": -1, "trial_type": "single-stim", "stimulus": "<p id=\"stim\">+</p>", "internal_node_id": "0.0-173.0-0.0", "time_elapsed": 2487079, "key_press": -1, "type": "FIXATION", "trial_index": 236}, "uniqueid": "MTK2267:32ZKVD547GU1HJNJQ1ECIAEV12I3BG", "dateTime": 1516910246566}, {"current_trial": 237, "trialdata": {"rt": -1000, "trial_type": "single-audio", "word": "friend", "stimulus": "/static/audio/wordpool/FRIEND.wav", "conditions": [12, 800, "a", 24000], "internal_node_id": "0.0-174.0", "trial": 6, "time_elapsed": 2488779, "serialpos": 0, "key_press": -1, "wordID": 605, "type": "PRES_AUD", "tr