{"assignmentId": "3EICBYG6453VC2HE7M2U9112FLOJC1", "workerId": "MTK2286", "questiondata": {"origin": "United States", "strat-rehearsal": "50", "marital": "Single", "education": "High school diploma", "ethnicity": "Hispanic", "color_depth": 24, "distracted": "No", "wrote-notes": "No", "strat-other": "yes grouping similar words.", "screen_width": 1920, "avail_screen_width": 1858, "avail_screen_height": 1080, "strat-image": "74", "language": "English", "gender": "Female", "age": "46", "gender_other": "", "race": ["White"], "strat-categorize": "84", "pixel_depth": 24, "strat-spatial": "0", "strat-story": "33", "race_other": "", "screen_height": 1080}, "bonus": 0, "hitId": "37G6BXQPLQSP837B81NW76H7V0EEQN", "counterbalance": 1331, "useragent": "Mozilla/5.0 (Windows NT 10.0; Win64; x64) AppleWebKit/537.36 (KHTML, like Gecko) Chrome/63.0.3239.132 Safari/537.36", "eventdata": [{"eventtype": "initialized", "interval": 0, "value": null, "timestamp": 1516918080567}, {"eventtype": "window_resize", "interval": 0, "value": [1858, 1030], "timestamp": 1516918080567}, {"eventtype": "focus", "interval": 6550, "value": "off", "timestamp": 1516918087117}, {"eventtype": "focus", "interval": 36003, "value": "on", "timestamp": 1516918123120}, {"eventtype": "focus", "interval": 19190, "value": "off", "timestamp": 1516918142310}, {"eventtype": "focus", "interval": 0, "value": "on", "timestamp": 1516918142310}, {"eventtype": "focus", "interval": 1724708, "value": "off", "timestamp": 1516919867018}, {"eventtype": "window_resize", "interval": 1086, "value": [917, 1022], "timestamp": 1516919868104}, {"eventtype": "focus", "interval": 29175, "value": "on", "timestamp": 1516919897279}, {"eventtype": "focus", "interval": 370104, "value": "off", "timestamp": 1516920267383}, {"eventtype": "focus", "interval": 4568, "value": "on", "timestamp": 1516920271951}], "data": [{"current_trial": 0, "trialdata": {"rt": 2551, "trial_type": "text", "internal_node_id": "0.0-0.0", "time_elapsed": 2552, "key_press": 32, "type": "INSTRUCTIONS", "trial_index": 0}, "uniqueid": "MTK2286:3EICBYG6453VC2HE7M2U9112FLOJC1", "dateTime": 1516918083403}, {"current_trial": 1, "trialdata": {"rt": 40333, "trial_type": "text", "internal_node_id": "0.0-1.0", "time_elapsed": 42887, "key_press": 32, "type": "INSTRUCTIONS", "trial_index": 1}, "uniqueid": "MTK2286:3EICBYG6453VC2HE7M2U9112FLOJC1", "dateTime": 1516918123737}, {"current_trial": 2, "trialdata": {"rt": [10513], "trial_type": "audio-test", "responses": ["ocean"], "internal_node_id": "0.0-2.0", "time_elapsed": 53407, "type": "AUDIO_TEST", "trial_index": 2}, "uniqueid": "MTK2286:3EICBYG6453VC2HE7M2U9112FLOJC1", "dateTime": 1516918134257}, {"current_trial": 3, "trialdata": {"rt": [4532, 16252], "trial_type": "audio-test", "responses": ["ocean", "crystal"], "internal_node_id": "0.0-3.0", "time_elapsed": 69662, "type": "AUDIO_TEST", "trial_index": 3}, "uniqueid": "MTK2286:3EICBYG6453VC2HE7M2U9112FLOJC1", "dateTime": 1516918150512}, {"current_trial": 4, "trialdata": {"rt": [6662], "trial_type": "audio-test", "responses": ["spice"], "internal_node_id": "0.0-4.0", "time_elapsed": 76325, "type": "AUDIO_TEST", "trial_index": 4}, "uniqueid": "MTK2286:3EICBYG6453VC2HE7M2U9112FLOJC1", "dateTime": 1516918157175}, {"current_trial": 5, "trialdata": {"rt": 39207, "trial_type": "survey-text", "responses": "{\"Q0\":\"10:45 PM\",\"Q1\":\"6:00 AM\",\"Q2\":\"3\"}", "internal_node_id": "0.0-5.0", "time_elapsed": 116286, "type": "SLEEP_SURVEY", "trial_index": 5}, "uniqueid": "MTK2286:3EICBYG6453VC2HE7M2U9112FLOJC1", "dateTime": 1516918197136}, {"current_trial": 6, "trialdata": {"rt": 14904, "trial_type": "text", "internal_node_id": "0.0-6.0", "time_elapsed": 132192, "key_press": 32, "type": "INSTRUCTIONS", "trial_index": 6}, "uniqueid": "MTK2286:3EICBYG6453VC2HE7M2U9112FLOJC1", "dateTime": 1516918213042}, {"current_trial": 7, "trialdata": {"rt": 4713, "trial_type": "text", "internal_node_id": "0.0-7.0", "time_elapsed": 137406, "key_press": 32, "type": "INSTRUCTIONS", "trial_index": 7}, "uniqueid": "MTK2286:3EICBYG6453VC2HE7M2U9112FLOJC1", "dateTime": 1516918218256}, {"current_trial": 8, "trialdata": {"rt": 6203, "trial_type": "text", "internal_node_id": "0.0-8.0", "time_elapsed": 144110, "key_press": 32, "type": "INSTRUCTIONS", "trial_index": 8}, "uniqueid": "MTK2286:3EICBYG6453VC2HE7M2U9112FLOJC1", "dateTime": 1516918224960}, {"current_trial": 9, "trialdata": {"rt": [5216, 8368, 11071, 15000, 17800], "trial_type": "math-distractor", "key_times": [3794, 4017, 5216, 7154, 7545, 8368, 10104, 11071, 14280, 14656, 15000, 16936, 17193, 17800], "responses": ["16", "13", "9", "14", "12"], "num2": [4, 5, 5, 5, 6, 1], "num3": [7, 2, 1, 9, 3, 1], "conditions": [18, 1200, "v", 18000], "internal_node_id": "0.0-9.0", "key_presses": [49, 54, 13, 49, 51, 13, 57, 13, 49, 52, 13, 49, 50, 13], "trial": 0, "time_elapsed": 163118, "type": "DISTRACTOR", "trial_index": 9, "num1": [5, 6, 3, 1, 5, 3]}, "uniqueid": "MTK2286:3EICBYG6453VC2HE7M2U9112FLOJC1", "dateTime": 1516918243968}, {"current_trial": 10, "trialdata": {"rt": -1, "trial_type": "single-stim", "stimulus": "<p id=\"stim\">10</p>", "internal_node_id": "0.0-10.0-0.0", "time_elapsed": 166121, "key_press": -1, "trial_index": 10}, "uniqueid": "MTK2286:3EICBYG6453VC2HE7M2U9112FLOJC1", "dateTime": 1516918246972}, {"current_trial": 11, "trialdata": {"rt": -1, "trial_type": "single-stim", "stimulus": "<p id=\"stim\">9</p>", "internal_node_id": "0.0-10.0-1.0", "time_elapsed": 167123, "key_press": -1, "trial_index": 11}, "uniqueid": "MTK2286:3EICBYG6453VC2HE7M2U9112FLOJC1", "dateTime": 1516918247973}, {"current_trial": 12, "trialdata": {"rt": -1, "trial_type": "single-stim", "stimulus": "<p id=\"stim\">8</p>", "internal_node_id": "0.0-10.0-2.0", "time_elapsed": 168125, "key_press": -1, "trial_index": 12}, "uniqueid": "MTK2286:3EICBYG6453VC2HE7M2U9112FLOJC1", "dateTime": 1516918248975}, {"current_trial": 13, "trialdata": {"rt": -1, "trial_type": "single-stim", "stimulus": "<p id=\"stim\">7</p>", "internal_node_id": "0.0-10.0-3.0", "time_elapsed": 169127, "key_press": -1, "trial_index": 13}, "uniqueid": "MTK2286:3EICBYG6453VC2HE7M2U9112FLOJC1", "dateTime": 1516918249977}, {"current_trial": 14, "trialdata": {"rt": -1, "trial_type": "single-stim", "stimulus": "<p id=\"stim\">6</p>", "internal_node_id": "0.0-10.0-4.0", "time_elapsed": 170129, "key_press": -1, "trial_index": 14}, "uniqueid": "MTK2286:3EICBYG6453VC2HE7M2U9112FLOJC1", "dateTime": 1516918250979}, {"current_trial": 15, "trialdata": {"rt": -1, "trial_type": "single-stim", "stimulus": "<p id=\"stim\">5</p>", "internal_node_id": "0.0-10.0-5.0", "time_elapsed": 171130, "key_press": -1, "trial_index": 15}, "uniqueid": "MTK2286:3EICBYG6453VC2HE7M2U9112FLOJC1", "dateTime": 1516918251980}, {"current_trial": 16, "trialdata": {"rt": -1, "trial_type": "single-stim", "stimulus": "<p id=\"stim\">4</p>", "internal_node_id": "0.0-10.0-6.0", "time_elapsed": 172131, "key_press": -1, "trial_index": 16}, "uniqueid": "MTK2286:3EICBYG6453VC2HE7M2U9112FLOJC1", "dateTime": 1516918252981}, {"current_trial": 17, "trialdata": {"rt": -1, "trial_type": "single-stim", "stimulus": "<p id=\"stim\">3</p>", "internal_node_id": "0.0-10.0-7.0", "time_elapsed": 173132, "key_press": -1, "trial_index": 17}, "uniqueid": "MTK2286:3EICBYG6453VC2HE7M2U9112FLOJC1", "dateTime": 1516918253982}, {"current_trial": 18, "trialdata": {"rt": -1, "trial_type": "single-stim", "stimulus": "<p id=\"stim\">2</p>", "internal_node_id": "0.0-10.0-8.0", "time_elapsed": 174134, "key_press": -1, "trial_index": 18}, "uniqueid": "MTK2286:3EICBYG6453VC2HE7M2U9112FLOJC1", "dateTime": 1516918254984}, {"current_trial": 19, "trialdata": {"rt": -1, "trial_type": "single-stim", "stimulus": "<p id=\"stim\">1</p>", "internal_node_id": "0.0-10.0-9.0", "time_elapsed": 175135, "key_press": -1, "trial_index": 19}, "uniqueid": "MTK2286:3EICBYG6453VC2HE7M2U9112FLOJC1", "dateTime": 1516918255986}, {"current_trial": 20, "trialdata": {"rt": -1, "trial_type": "single-stim", "stimulus": "<p id=\"stim\">+</p>", "internal_node_id": "0.0-11.0-0.0", "time_elapsed": 176637, "key_press": -1, "type": "FIXATION", "trial_index": 20}, "uniqueid": "MTK2286:3EICBYG6453VC2HE7M2U9112FLOJC1", "dateTime": 1516918257487}, {"current_trial": 21, "trialdata": {"rt": -1, "trial_type": "single-stim", "word": "lodge", "stimulus": "<p id=\"stim\">LODGE</p>", "conditions": [18, 1200, "v", 18000], "internal_node_id": "0.0-12.0", "trial": 0, "time_elapsed": 177838, "serialpos": 0, "key_press": -1, "wordID": 838, "type": "PRES_VIS", "trial_index": 21}, "uniqueid": "MTK2286:3EICBYG6453VC2HE7M2U9112FLOJC1", "dateTime": 1516918258688}, {"current_trial": 22, "trialdata": {"rt": -1, "trial_type": "single-stim", "word": "county", "stimulus": "<p id=\"stim\">COUNTY</p>", "conditions": [18, 1200, "v", 18000], "internal_node_id": "0.0-13.0", "trial": 0, "time_elapsed": 179939, "serialpos": 1, "key_press": -1, "wordID": 388, "type": "PRES_VIS", "trial_index": 22}, "uniqueid": "MTK2286:3EICBYG6453VC2HE7M2U9112FLOJC1", "dateTime": 1516918260789}, {"current_trial": 23, "trialdata": {"rt": -1, "trial_type": "single-stim", "word": "marsh", "stimulus": "<p id=\"stim\">MARSH</p>", "conditions": [18, 1200, "v", 18000], "internal_node_id": "0.0-14.0", "trial": 0, "time_elapsed": 182173, "serialpos": 2, "key_press": -1, "wordID": 873, "type": "PRES_VIS", "trial_index": 23}, "uniqueid": "MTK2286:3EICBYG6453VC2HE7M2U9112FLOJC1", "dateTime": 1516918263023}, {"current_trial": 24, "trialdata": {"rt": -1, "trial_type": "single-stim", "word": "brick", "stimulus": "<p id=\"stim\">BRICK</p>", "conditions": [18, 1200, "v", 18000], "internal_node_id": "0.0-15.0", "trial": 0, "time_elapsed": 184251, "serialpos": 3, "key_press": -1, "wordID": 171, "type": "PRES_VIS", "trial_index": 24}, "uniqueid": "MTK2286:3EICBYG6453VC2HE7M2U9112FLOJC1", "dateTime": 1516918265102}, {"current_trial": 25, "trialdata": {"rt": -1, "trial_type": "single-stim", "word": "salt", "stimulus": "<p id=\"stim\">SALT</p>", "conditions": [18, 1200, "v", 18000], "internal_node_id": "0.0-16.0", "trial": 0, "time_elapsed": 186420, "serialpos": 4, "key_press": -1, "wordID": 1228, "type": "PRES_VIS", "trial_index": 25}, "uniqueid": "MTK2286:3EICBYG6453VC2HE7M2U9112FLOJC1", "dateTime": 1516918267270}, {"current_trial": 26, "trialdata": {"rt": -1, "trial_type": "single-stim", "word": "racket", "stimulus": "<p id=\"stim\">RACKET</p>", "conditions": [18, 1200, "v", 18000], "internal_node_id": "0.0-17.0", "trial": 0, "time_elapsed": 188454, "serialpos": 5, "key_press": -1, "wordID": 1154, "type": "PRES_VIS", "trial_index": 26}, "uniqueid": "MTK2286:3EICBYG6453VC2HE7M2U9112FLOJC1", "dateTime": 1516918269304}, {"current_trial": 27, "trialdata": {"rt": -1, "trial_type": "single-stim", "word": "hawk", "stimulus": "<p id=\"stim\">HAWK</p>", "conditions": [18, 1200, "v", 18000], "internal_node_id": "0.0-18.0", "trial": 0, "time_elapsed": 190530, "serialpos": 6, "key_press": -1, "wordID": 691, "type": "PRES_VIS", "trial_index": 27}, "uniqueid": "MTK2286:3EICBYG6453VC2HE7M2U9112FLOJC1", "dateTime": 1516918271380}, {"current_trial": 28, "trialdata": {"rt": -1, "trial_type": "single-stim", "word": "coin", "stimulus": "<p id=\"stim\">COIN</p>", "conditions": [18, 1200, "v", 18000], "internal_node_id": "0.0-19.0", "trial": 0, "time_elapsed": 192877, "serialpos": 7, "key_press": -1, "wordID": 342, "type": "PRES_VIS", "trial_index": 28}, "uniqueid": "MTK2286:3EICBYG6453VC2HE7M2U9112FLOJC1", "dateTime": 1516918273727}, {"current_trial": 29, "trialdata": {"rt": -1, "trial_type": "single-stim", "word": "elbow", "stimulus": "<p id=\"stim\">ELBOW</p>", "conditions": [18, 1200, "v", 18000], "internal_node_id": "0.0-20.0", "trial": 0, "time_elapsed": 195040, "serialpos": 8, "key_press": -1, "wordID": 519, "type": "PRES_VIS", "trial_index": 29}, "uniqueid": "MTK2286:3EICBYG6453VC2HE7M2U9112FLOJC1", "dateTime": 1516918275890}, {"current_trial": 30, "trialdata": {"rt": -1, "trial_type": "single-stim", "word": "foot", "stimulus": "<p id=\"stim\">FOOT</p>", "conditions": [18, 1200, "v", 18000], "internal_node_id": "0.0-21.0", "trial": 0, "time_elapsed": 197415, "serialpos": 9, "key_press": -1, "wordID": 589, "type": "PRES_VIS", "trial_index": 30}, "uniqueid": "MTK2286:3EICBYG6453VC2HE7M2U9112FLOJC1", "dateTime": 1516918278265}, {"current_trial": 31, "trialdata": {"rt": -1, "trial_type": "single-stim", "word": "staple", "stimulus": "<p id=\"stim\">STAPLE</p>", "conditions": [18, 1200, "v", 18000], "internal_node_id": "0.0-22.0", "trial": 0, "time_elapsed": 199463, "serialpos": 10, "key_press": -1, "wordID": 1370, "type": "PRES_VIS", "trial_index": 31}, "uniqueid": "MTK2286:3EICBYG6453VC2HE7M2U9112FLOJC1", "dateTime": 1516918280313}, {"current_trial": 32, "trialdata": {"rt": -1, "trial_type": "single-stim", "word": "parrot", "stimulus": "<p id=\"stim\">PARROT</p>", "conditions": [18, 1200, "v", 18000], "internal_node_id": "0.0-23.0", "trial": 0, "time_elapsed": 201695, "serialpos": 11, "key_press": -1, "wordID": 1014, "type": "PRES_VIS", "trial_index": 32}, "uniqueid": "MTK2286:3EICBYG6453VC2HE7M2U9112FLOJC1", "dateTime": 1516918282545}, {"current_trial": 33, "trialdata": {"rt": -1, "trial_type": "single-stim", "word": "nurse", "stimulus": "<p id=\"stim\">NURSE</p>", "conditions": [18, 1200, "v", 18000], "internal_node_id": "0.0-24.0", "trial": 0, "time_elapsed": 203705, "serialpos": 12, "key_press": -1, "wordID": 962, "type": "PRES_VIS", "trial_index": 33}, "uniqueid": "MTK2286:3EICBYG6453VC2HE7M2U9112FLOJC1", "dateTime": 1516918284555}, {"current_trial": 34, "trialdata": {"rt": -1, "trial_type": "single-stim", "word": "denim", "stimulus": "<p id=\"stim\">DENIM</p>", "conditions": [18, 1200, "v", 18000], "internal_node_id": "0.0-25.0", "trial": 0, "time_elapsed": 206080, "serialpos": 13, "key_press": -1, "wordID": 445, "type": "PRES_VIS", "trial_index": 34}, "uniqueid": "MTK2286:3EICBYG6453VC2HE7M2U9112FLOJC1", "dateTime": 1516918286930}, {"current_trial": 35, "trialdata": {"rt": -1, "trial_type": "single-stim", "word": "motel", "stimulus": "<p id=\"stim\">MOTEL</p>", "conditions": [18, 1200, "v", 18000], "internal_node_id": "0.0-26.0", "trial": 0, "time_elapsed": 208299, "serialpos": 14, "key_press": -1, "wordID": 918, "type": "PRES_VIS", "trial_index": 35}, "uniqueid": "MTK2286:3EICBYG6453VC2HE7M2U9112FLOJC1", "dateTime": 1516918289149}, {"current_trial": 36, "trialdata": {"rt": -1, "trial_type": "single-stim", "word": "airplane", "stimulus": "<p id=\"stim\">AIRPLANE</p>", "conditions": [18, 1200, "v", 18000], "internal_node_id": "0.0-27.0", "trial": 0, "time_elapsed": 210371, "serialpos": 15, "key_press": -1, "wordID": 11, "type": "PRES_VIS", "trial_index": 36}, "uniqueid": "MTK2286:3EICBYG6453VC2HE7M2U9112FLOJC1", "dateTime": 1516918291221}, {"current_trial": 37, "trialdata": {"rt": -1, "trial_type": "single-stim", "word": "piston", "stimulus": "<p id=\"stim\">PISTON</p>", "conditions": [18, 1200, "v", 18000], "internal_node_id": "0.0-28.0", "trial": 0, "time_elapsed": 212496, "serialpos": 16, "key_press": -1, "wordID": 1075, "type": "PRES_VIS", "trial_index": 37}, "uniqueid": "MTK2286:3EICBYG6453VC2HE7M2U9112FLOJC1", "dateTime": 1516918293347}, {"current_trial": 38, "trialdata": {"rt": -1, "trial_type": "single-stim", "word": "burglar", "stimulus": "<p id=\"stim\">BURGLAR</p>", "conditions": [18, 1200, "v", 18000], "internal_node_id": "0.0-29.0", "trial": 0, "time_elapsed": 214661, "serialpos": 17, "key_press": -1, "wordID": 199, "type": "PRES_VIS", "trial_index": 38}, "uniqueid": "MTK2286:3EICBYG6453VC2HE7M2U9112FLOJC1", "dateTime": 1516918295511}, {"current_trial": 39, "trialdata": {"rt": -1, "trial_type": "single-stim", "stimulus": "", "internal_node_id": "0.0-30.0-0.0", "time_elapsed": 217124, "key_press": -1, "type": "PRE_RECALL_DELAY", "trial_index": 39}, "uniqueid": "MTK2286:3EICBYG6453VC2HE7M2U9112FLOJC1", "dateTime": 1516918297974}, {"current_trial": 40, "trialdata": {"rt": -1000, "trial_type": "single-audio", "stimulus": "/static/audio/400Hz.wav", "internal_node_id": "0.0-31.0", "time_elapsed": 217629, "key_press": -1, "type": "PRE_RECALL_ALERT", "trial_index": 40}, "uniqueid": "MTK2286:3EICBYG6453VC2HE7M2U9112FLOJC1", "dateTime": 1516918298479}, {"current_trial": 41, "trialdata": {"rt": [5279, 5702, 8742, 12230, 15390, 18823, 34694, 36270, 47518], "recwords": ["lodge", "", "county", "lodge", "brook", "marsh", "staple", "", "bracket"], "key_times": [2539, 2766, 4071, 4550, 4775, 5279, 5702, 5967, 6125, 6358, 6559, 6951, 7198, 8742, 10134, 10312, 10814, 11023, 11383, 12230, 13654, 13927, 14334, 14471, 14662, 15390, 16439, 16998, 17439, 17743, 17895, 18823, 30567, 30847, 31199, 31727, 31903, 32287, 33383, 33878, 34694, 36270, 44880, 45223, 45502, 45783, 46199, 46574, 46767, 47518], "trial_type": "free-recall", "conditions": [18, 1200, "v", 18000], "internal_node_id": "0.0-32.0-0.0", "key_presses": [76, 79, 68, 71, 69, 188, 32, 67, 79, 85, 78, 84, 89, 13, 76, 79, 68, 71, 69, 13, 66, 82, 79, 79, 75, 13, 77, 65, 82, 83, 72, 13, 83, 84, 65, 80, 76, 82, 8, 69, 13, 32, 66, 82, 65, 67, 75, 69, 84, 13], "trial": 0, "time_elapsed": 277633, "type": "FREE_RECALL", "trial_index": 41}, "uniqueid": "MTK2286:3EICBYG6453VC2HE7M2U9112FLOJC1", "dateTime": 1516918358485}, {"current_trial": 42, "trialdata": {"rt": 2049, "trial_type": "text", "internal_node_id": "0.0-33.0", "time_elapsed": 281686, "key_press": 32, "type": "INSTRUCTIONS", "trial_index": 42}, "uniqueid": "MTK2286:3EICBYG6453VC2HE7M2U9112FLOJC1", "dateTime": 1516918362536}, {"current_trial": 43, "trialdata": {"rt": [5797, 9477, 12413, 17245], "trial_type": "math-distractor", "key_times": [4390, 4887, 5797, 8126, 8630, 9477, 11430, 11942, 12413, 16086, 16582, 17245], "responses": ["17", "18", "10", "19"], "num2": [9, 6, 2, 8, 6], "num3": [4, 6, 7, 4, 5], "conditions": [18, 1200, "v", 18000], "internal_node_id": "0.0-34.0", "key_presses": [49, 55, 13, 49, 56, 13, 49, 48, 13, 49, 57, 13], "trial": 1, "time_elapsed": 301690, "type": "DISTRACTOR", "trial_index": 43, "num1": [4, 6, 1, 7, 7]}, "uniqueid": "MTK2286:3EICBYG6453VC2HE7M2U9112FLOJC1", "dateTime": 1516918382540}, {"current_trial": 44, "trialdata": {"rt": -1, "trial_type": "single-stim", "stimulus": "<p id=\"stim\">10</p>", "internal_node_id": "0.0-35.0-0.0", "time_elapsed": 304692, "key_press": -1, "trial_index": 44}, "uniqueid": "MTK2286:3EICBYG6453VC2HE7M2U9112FLOJC1", "dateTime": 1516918385542}, {"current_trial": 45, "trialdata": {"rt": -1, "trial_type": "single-stim", "stimulus": "<p id=\"stim\">9</p>", "internal_node_id": "0.0-35.0-1.0", "time_elapsed": 305693, "key_press": -1, "trial_index": 45}, "uniqueid": "MTK2286:3EICBYG6453VC2HE7M2U9112FLOJC1", "dateTime": 1516918386544}, {"current_trial": 46, "trialdata": {"rt": -1, "trial_type": "single-stim", "stimulus": "<p id=\"stim\">8</p>", "internal_node_id": "0.0-35.0-2.0", "time_elapsed": 306695, "key_press": -1, "trial_index": 46}, "uniqueid": "MTK2286:3EICBYG6453VC2HE7M2U9112FLOJC1", "dateTime": 1516918387545}, {"current_trial": 47, "trialdata": {"rt": -1, "trial_type": "single-stim", "stimulus": "<p id=\"stim\">7</p>", "internal_node_id": "0.0-35.0-3.0", "time_elapsed": 307696, "key_press": -1, "trial_index": 47}, "uniqueid": "MTK2286:3EICBYG6453VC2HE7M2U9112FLOJC1", "dateTime": 1516918388546}, {"current_trial": 48, "trialdata": {"rt": -1, "trial_type": "single-stim", "stimulus": "<p id=\"stim\">6</p>", "internal_node_id": "0.0-35.0-4.0", "time_elapsed": 308697, "key_press": -1, "trial_index": 48}, "uniqueid": "MTK2286:3EICBYG6453VC2HE7M2U9112FLOJC1", "dateTime": 1516918389547}, {"current_trial": 49, "trialdata": {"rt": -1, "trial_type": "single-stim", "stimulus": "<p id=\"stim\">5</p>", "internal_node_id": "0.0-35.0-5.0", "time_elapsed": 309698, "key_press": -1, "trial_index": 49}, "uniqueid": "MTK2286:3EICBYG6453VC2HE7M2U9112FLOJC1", "dateTime": 1516918390549}, {"current_trial": 50, "trialdata": {"rt": -1, "trial_type": "single-stim", "stimulus": "<p id=\"stim\">4</p>", "internal_node_id": "0.0-35.0-6.0", "time_elapsed": 310700, "key_press": -1, "trial_index": 50}, "uniqueid": "MTK2286:3EICBYG6453VC2HE7M2U9112FLOJC1", "dateTime": 1516918391550}, {"current_trial": 51, "trialdata": {"rt": -1, "trial_type": "single-stim", "stimulus": "<p id=\"stim\">3</p>", "internal_node_id": "0.0-35.0-7.0", "time_elapsed": 311701, "key_press": -1, "trial_index": 51}, "uniqueid": "MTK2286:3EICBYG6453VC2HE7M2U9112FLOJC1", "dateTime": 1516918392551}, {"current_trial": 52, "trialdata": {"rt": -1, "trial_type": "single-stim", "stimulus": "<p id=\"stim\">2</p>", "internal_node_id": "0.0-35.0-8.0", "time_elapsed": 312703, "key_press": -1, "trial_index": 52}, "uniqueid": "MTK2286:3EICBYG6453VC2HE7M2U9112FLOJC1", "dateTime": 1516918393553}, {"current_trial": 53, "trialdata": {"rt": -1, "trial_type": "single-stim", "stimulus": "<p id=\"stim\">1</p>", "internal_node_id": "0.0-35.0-9.0", "time_elapsed": 313704, "key_press": -1, "trial_index": 53}, "uniqueid": "MTK2286:3EICBYG6453VC2HE7M2U9112FLOJC1", "dateTime": 1516918394554}, {"current_trial": 54, "trialdata": {"rt": -1, "trial_type": "single-stim", "stimulus": "<p id=\"stim\">+</p>", "internal_node_id": "0.0-36.0-0.0", "time_elapsed": 315207, "key_press": -1, "type": "FIXATION", "trial_index": 54}, "uniqueid": "MTK2286:3EICBYG6453VC2HE7M2U9112FLOJC1", "dateTime": 1516918396057}, {"current_trial": 55, "trialdata": {"rt": -1, "trial_type": "single-stim", "word": "scallop", "stimulus": "<p id=\"stim\">SCALLOP</p>", "conditions": [18, 1200, "v", 18000], "internal_node_id": "0.0-37.0", "trial": 1, "time_elapsed": 316408, "serialpos": 0, "key_press": -1, "wordID": 1241, "type": "PRES_VIS", "trial_index": 55}, "uniqueid": "MTK2286:3EICBYG6453VC2HE7M2U9112FLOJC1", "dateTime": 1516918397258}, {"current_trial": 56, "trialdata": {"rt": -1, "trial_type": "single-stim", "word": "paddle", "stimulus": "<p id=\"stim\">PADDLE</p>", "conditions": [18, 1200, "v", 18000], "internal_node_id": "0.0-38.0", "trial": 1, "time_elapsed": 318683, "serialpos": 1, "key_press": -1, "wordID": 999, "type": "PRES_VIS", "trial_index": 56}, "uniqueid": "MTK2286:3EICBYG6453VC2HE7M2U9112FLOJC1", "dateTime": 1516918399533}, {"current_trial": 57, "trialdata": {"rt": -1, "trial_type": "single-stim", "word": "daughter", "stimulus": "<p id=\"stim\">DAUGHTER</p>", "conditions": [18, 1200, "v", 18000], "internal_node_id": "0.0-39.0", "trial": 1, "time_elapsed": 320919, "serialpos": 2, "key_press": -1, "wordID": 441, "type": "PRES_VIS", "trial_index": 57}, "uniqueid": "MTK2286:3EICBYG6453VC2HE7M2U9112FLOJC1", "dateTime": 1516918401769}, {"current_trial": 58, "trialdata": {"rt": -1, "trial_type": "single-stim", "word": "velvet", "stimulus": "<p id=\"stim\">VELVET</p>", "conditions": [18, 1200, "v", 18000], "internal_node_id": "0.0-40.0", "trial": 1, "time_elapsed": 323049, "serialpos": 3, "key_press": -1, "wordID": 1554, "type": "PRES_VIS", "trial_index": 58}, "uniqueid": "MTK2286:3EICBYG6453VC2HE7M2U9112FLOJC1", "dateTime": 1516918403899}, {"current_trial": 59, "trialdata": {"rt": -1, "trial_type": "single-stim", "word": "jello", "stimulus": "<p id=\"stim\">JELLO</p>", "conditions": [18, 1200, "v", 18000], "internal_node_id": "0.0-41.0", "trial": 1, "time_elapsed": 325313, "serialpos": 4, "key_press": -1, "wordID": 753, "type": "PRES_VIS", "trial_index": 59}, "uniqueid": "MTK2286:3EICBYG6453VC2HE7M2U9112FLOJC1", "dateTime": 1516918406163}, {"current_trial": 60, "trialdata": {"rt": -1, "trial_type": "single-stim", "word": "sunrise", "stimulus": "<p id=\"stim\">SUNRISE</p>", "conditions": [18, 1200, "v", 18000], "internal_node_id": "0.0-42.0", "trial": 1, "time_elapsed": 327667, "serialpos": 5, "key_press": -1, "wordID": 1406, "type": "PRES_VIS", "trial_index": 60}, "uniqueid": "MTK2286:3EICBYG6453VC2HE7M2U9112FLOJC1", "dateTime": 1516918408518}, {"current_trial": 61, "trialdata": {"rt": -1, "trial_type": "single-stim", "word": "forehead", "stimulus": "<p id=\"stim\">FOREHEAD</p>", "conditions": [18, 1200, "v", 18000], "internal_node_id": "0.0-43.0", "trial": 1, "time_elapsed": 329719, "serialpos": 6, "key_press": -1, "wordID": 591, "type": "PRES_VIS", "trial_index": 61}, "uniqueid": "MTK2286:3EICBYG6453VC2HE7M2U9112FLOJC1", "dateTime": 1516918410569}, {"current_trial": 62, "trialdata": {"rt": -1, "trial_type": "single-stim", "word": "preacher", "stimulus": "<p id=\"stim\">PREACHER</p>", "conditions": [18, 1200, "v", 18000], "internal_node_id": "0.0-44.0", "trial": 1, "time_elapsed": 332092, "serialpos": 7, "key_press": -1, "wordID": 1118, "type": "PRES_VIS", "trial_index": 62}, "uniqueid": "MTK2286:3EICBYG6453VC2HE7M2U9112FLOJC1", "dateTime": 1516918412942}, {"current_trial": 63, "trialdata": {"rt": -1, "trial_type": "single-stim", "word": "infant", "stimulus": "<p id=\"stim\">INFANT</p>", "conditions": [18, 1200, "v", 18000], "internal_node_id": "0.0-45.0", "trial": 1, "time_elapsed": 334310, "serialpos": 8, "key_press": -1, "wordID": 736, "type": "PRES_VIS", "trial_index": 63}, "uniqueid": "MTK2286:3EICBYG6453VC2HE7M2U9112FLOJC1", "dateTime": 1516918415160}, {"current_trial": 64, "trialdata": {"rt": -1, "trial_type": "single-stim", "word": "suitcase", "stimulus": "<p id=\"stim\">SUITCASE</p>", "conditions": [18, 1200, "v", 18000], "internal_node_id": "0.0-46.0", "trial": 1, "time_elapsed": 336680, "serialpos": 9, "key_press": -1, "wordID": 1402, "type": "PRES_VIS", "trial_index": 64}, "uniqueid": "MTK2286:3EICBYG6453VC2HE7M2U9112FLOJC1", "dateTime": 1516918417531}, {"current_trial": 65, "trialdata": {"rt": -1, "trial_type": "single-stim", "word": "scribble", "stimulus": "<p id=\"stim\">SCRIBBLE</p>", "conditions": [18, 1200, "v", 18000], "internal_node_id": "0.0-47.0", "trial": 1, "time_elapsed": 338736, "serialpos": 10, "key_press": -1, "wordID": 1255, "type": "PRES_VIS", "trial_index": 65}, "uniqueid": "MTK2286:3EICBYG6453VC2HE7M2U9112FLOJC1", "dateTime": 1516918419586}, {"current_trial": 66, "trialdata": {"rt": -1, "trial_type": "single-stim", "word": "banker", "stimulus": "<p id=\"stim\">BANKER</p>", "conditions": [18, 1200, "v", 18000], "internal_node_id": "0.0-48.0", "trial": 1, "time_elapsed": 340804, "serialpos": 11, "key_press": -1, "wordID": 83, "type": "PRES_VIS", "trial_index": 66}, "uniqueid": "MTK2286:3EICBYG6453VC2HE7M2U9112FLOJC1", "dateTime": 1516918421655}, {"current_trial": 67, "trialdata": {"rt": -1, "trial_type": "single-stim", "word": "sausage", "stimulus": "<p id=\"stim\">SAUSAGE</p>", "conditions": [18, 1200, "v", 18000], "internal_node_id": "0.0-49.0", "trial": 1, "time_elapsed": 343149, "serialpos": 12, "key_press": -1, "wordID": 1237, "type": "PRES_VIS", "trial_index": 67}, "uniqueid": "MTK2286:3EICBYG6453VC2HE7M2U9112FLOJC1", "dateTime": 1516918423999}, {"current_trial": 68, "trialdata": {"rt": -1, "trial_type": "single-stim", "word": "finger", "stimulus": "<p id=\"stim\">FINGER</p>", "conditions": [18, 1200, "v", 18000], "internal_node_id": "0.0-50.0", "trial": 1, "time_elapsed": 345260, "serialpos": 13, "key_press": -1, "wordID": 566, "type": "PRES_VIS", "trial_index": 68}, "uniqueid": "MTK2286:3EICBYG6453VC2HE7M2U9112FLOJC1", "dateTime": 1516918426114}, {"current_trial": 69, "trialdata": {"rt": -1, "trial_type": "single-stim", "word": "garbage", "stimulus": "<p id=\"stim\">GARBAGE</p>", "conditions": [18, 1200, "v", 18000], "internal_node_id": "0.0-51.0", "trial": 1, "time_elapsed": 347511, "serialpos": 14, "key_press": -1, "wordID": 621, "type": "PRES_VIS", "trial_index": 69}, "uniqueid": "MTK2286:3EICBYG6453VC2HE7M2U9112FLOJC1", "dateTime": 1516918428362}, {"current_trial": 70, "trialdata": {"rt": -1, "trial_type": "single-stim", "word": "dentist", "stimulus": "<p id=\"stim\">DENTIST</p>", "conditions": [18, 1200, "v", 18000], "internal_node_id": "0.0-52.0", "trial": 1, "time_elapsed": 349854, "serialpos": 15, "key_press": -1, "wordID": 446, "type": "PRES_VIS", "trial_index": 70}, "uniqueid": "MTK2286:3EICBYG6453VC2HE7M2U9112FLOJC1", "dateTime": 1516918430705}, {"current_trial": 71, "trialdata": {"rt": -1, "trial_type": "single-stim", "word": "permit", "stimulus": "<p id=\"stim\">PERMIT</p>", "conditions": [18, 1200, "v", 18000], "internal_node_id": "0.0-53.0", "trial": 1, "time_elapsed": 352217, "serialpos": 16, "key_press": -1, "wordID": 1050, "type": "PRES_VIS", "trial_index": 71}, "uniqueid": "MTK2286:3EICBYG6453VC2HE7M2U9112FLOJC1", "dateTime": 1516918433068}, {"current_trial": 72, "trialdata": {"rt": -1, "trial_type": "single-stim", "word": "girl", "stimulus": "<p id=\"stim\">GIRL</p>", "conditions": [18, 1200, "v", 18000], "internal_node_id": "0.0-54.0", "trial": 1, "time_elapsed": 354391, "serialpos": 17, "key_press": -1, "wordID": 636, "type": "PRES_VIS", "trial_index": 72}, "uniqueid": "MTK2286:3EICBYG6453VC2HE7M2U9112FLOJC1", "dateTime": 1516918435241}, {"current_trial": 73, "trialdata": {"rt": -1, "trial_type": "single-stim", "stimulus": "", "internal_node_id": "0.0-55.0-0.0", "time_elapsed": 356730, "key_press": -1, "type": "PRE_RECALL_DELAY", "trial_index": 73}, "uniqueid": "MTK2286:3EICBYG6453VC2HE7M2U9112FLOJC1", "dateTime": 1516918437580}, {"current_trial": 74, "trialdata": {"rt": -1000, "trial_type": "single-audio", "stimulus": "/static/audio/400Hz.wav", "internal_node_id": "0.0-56.0", "time_elapsed": 357240, "key_press": -1, "type": "PRE_RECALL_ALERT", "trial_index": 74}, "uniqueid": "MTK2286:3EICBYG6453VC2HE7M2U9112FLOJC1", "dateTime": 1516918438090}, {"current_trial": 75, "trialdata": {"rt": [6395, 11076, 14139, 25237, 44555, 53643], "recwords": ["scallop", "velvet", "girl", "", "brick", "mallet"], "key_times": [2685, 3027, 3316, 3820, 3956, 4172, 4341, 6395, 7860, 8772, 9388, 9862, 10187, 10356, 11076, 12204, 12564, 12940, 13564, 14139, 25237, 42518, 42884, 43204, 43581, 44052, 44555, 49509, 49956, 50562, 50685, 50918, 52084, 52548, 52780, 53643], "trial_type": "free-recall", "conditions": [18, 1200, "v", 18000], "internal_node_id": "0.0-57.0-0.0", "key_presses": [83, 67, 65, 76, 76, 79, 80, 13, 86, 69, 76, 86, 69, 84, 13, 71, 73, 82, 76, 13, 32, 66, 82, 73, 67, 75, 13, 77, 65, 76, 76, 76, 8, 69, 84, 13], "trial": 1, "time_elapsed": 417243, "type": "FREE_RECALL", "trial_index": 75}, "uniqueid": "MTK2286:3EICBYG6453VC2HE7M2U9112FLOJC1", "dateTime": 1516918498096}, {"current_trial": 76, "trialdata": {"rt": 3585, "trial_type": "text", "internal_node_id": "0.0-58.0", "time_elapsed": 422831, "key_press": 32, "type": "INSTRUCTIONS", "trial_index": 76}, "uniqueid": "MTK2286:3EICBYG6453VC2HE7M2U9112FLOJC1", "dateTime": 1516918503681}, {"current_trial": 77, "trialdata": {"rt": [3699, 6483, 9212], "trial_type": "math-distractor", "key_times": [2396, 2852, 3699, 5732, 6483, 8284, 8539, 9212, 11972], "responses": ["17", "6", "13"], "num2": [9, 1, 4, 7], "num3": [4, 3, 8, 2], "conditions": [12, 1600, "v", 12000], "internal_node_id": "0.0-59.0", "key_presses": [49, 55, 13, 54, 13, 49, 51, 13, 49], "trial": 2, "time_elapsed": 435835, "type": "DISTRACTOR", "trial_index": 77, "num1": [3, 2, 1, 5]}, "uniqueid": "MTK2286:3EICBYG6453VC2HE7M2U9112FLOJC1", "dateTime": 1516918516686}, {"current_trial": 78, "trialdata": {"rt": -1, "trial_type": "single-stim", "stimulus": "<p id=\"stim\">10</p>", "internal_node_id": "0.0-60.0-0.0", "time_elapsed": 438837, "key_press": -1, "trial_index": 78}, "uniqueid": "MTK2286:3EICBYG6453VC2HE7M2U9112FLOJC1", "dateTime": 1516918519688}, {"current_trial": 79, "trialdata": {"rt": -1, "trial_type": "single-stim", "stimulus": "<p id=\"stim\">9</p>", "internal_node_id": "0.0-60.0-1.0", "time_elapsed": 439839, "key_press": -1, "trial_index": 79}, "uniqueid": "MTK2286:3EICBYG6453VC2HE7M2U9112FLOJC1", "dateTime": 1516918520689}, {"current_trial": 80, "trialdata": {"rt": -1, "trial_type": "single-stim", "stimulus": "<p id=\"stim\">8</p>", "internal_node_id": "0.0-60.0-2.0", "time_elapsed": 440841, "key_press": -1, "trial_index": 80}, "uniqueid": "MTK2286:3EICBYG6453VC2HE7M2U9112FLOJC1", "dateTime": 1516918521691}, {"current_trial": 81, "trialdata": {"rt": -1, "trial_type": "single-stim", "stimulus": "<p id=\"stim\">7</p>", "internal_node_id": "0.0-60.0-3.0", "time_elapsed": 441842, "key_press": -1, "trial_index": 81}, "uniqueid": "MTK2286:3EICBYG6453VC2HE7M2U9112FLOJC1", "dateTime": 1516918522692}, {"current_trial": 82, "trialdata": {"rt": -1, "trial_type": "single-stim", "stimulus": "<p id=\"stim\">6</p>", "internal_node_id": "0.0-60.0-4.0", "time_elapsed": 442845, "key_press": -1, "trial_index": 82}, "uniqueid": "MTK2286:3EICBYG6453VC2HE7M2U9112FLOJC1", "dateTime": 1516918523695}, {"current_trial": 83, "trialdata": {"rt": -1, "trial_type": "single-stim", "stimulus": "<p id=\"stim\">5</p>", "internal_node_id": "0.0-60.0-5.0", "time_elapsed": 443846, "key_press": -1, "trial_index": 83}, "uniqueid": "MTK2286:3EICBYG6453VC2HE7M2U9112FLOJC1", "dateTime": 1516918524696}, {"current_trial": 84, "trialdata": {"rt": -1, "trial_type": "single-stim", "stimulus": "<p id=\"stim\">4</p>", "internal_node_id": "0.0-60.0-6.0", "time_elapsed": 444848, "key_press": -1, "trial_index": 84}, "uniqueid": "MTK2286:3EICBYG6453VC2HE7M2U9112FLOJC1", "dateTime": 1516918525698}, {"current_trial": 85, "trialdata": {"rt": -1, "trial_type": "single-stim", "stimulus": "<p id=\"stim\">3</p>", "internal_node_id": "0.0-60.0-7.0", "time_elapsed": 445849, "key_press": -1, "trial_index": 85}, "uniqueid": "MTK2286:3EICBYG6453VC2HE7M2U9112FLOJC1", "dateTime": 1516918526699}, {"current_trial": 86, "trialdata": {"rt": -1, "trial_type": "single-stim", "stimulus": "<p id=\"stim\">2</p>", "internal_node_id": "0.0-60.0-8.0", "time_elapsed": 446850, "key_press": -1, "trial_index": 86}, "uniqueid": "MTK2286:3EICBYG6453VC2HE7M2U9112FLOJC1", "dateTime": 1516918527701}, {"current_trial": 87, "trialdata": {"rt": -1, "trial_type": "single-stim", "stimulus": "<p id=\"stim\">1</p>", "internal_node_id": "0.0-60.0-9.0", "time_elapsed": 447852, "key_press": -1, "trial_index": 87}, "uniqueid": "MTK2286:3EICBYG6453VC2HE7M2U9112FLOJC1", "dateTime": 1516918528702}, {"current_trial": 88, "trialdata": {"rt": -1, "trial_type": "single-stim", "stimulus": "<p id=\"stim\">+</p>", "internal_node_id": "0.0-61.0-0.0", "time_elapsed": 449354, "key_press": -1, "type": "FIXATION", "trial_index": 88}, "uniqueid": "MTK2286:3EICBYG6453VC2HE7M2U9112FLOJC1", "dateTime": 1516918530204}, {"current_trial": 89, "trialdata": {"rt": -1, "trial_type": "single-stim", "word": "shovel", "stimulus": "<p id=\"stim\">SHOVEL</p>", "conditions": [12, 1600, "v", 12000], "internal_node_id": "0.0-62.0", "trial": 2, "time_elapsed": 450955, "serialpos": 0, "key_press": -1, "wordID": 1294, "type": "PRES_VIS", "trial_index": 89}, "uniqueid": "MTK2286:3EICBYG6453VC2HE7M2U9112FLOJC1", "dateTime": 1516918531805}, {"current_trial": 90, "trialdata": {"rt": -1, "trial_type": "single-stim", "word": "tuba", "stimulus": "<p id=\"stim\">TUBA</p>", "conditions": [12, 1600, "v", 12000], "internal_node_id": "0.0-63.0", "trial": 2, "time_elapsed": 453410, "serialpos": 1, "key_press": -1, "wordID": 1514, "type": "PRES_VIS", "trial_index": 90}, "uniqueid": "MTK2286:3EICBYG6453VC2HE7M2U9112FLOJC1", "dateTime": 1516918534260}, {"current_trial": 91, "trialdata": {"rt": -1, "trial_type": "single-stim", "word": "mustard", "stimulus": "<p id=\"stim\">MUSTARD</p>", "conditions": [12, 1600, "v", 12000], "internal_node_id": "0.0-64.0", "trial": 2, "time_elapsed": 456154, "serialpos": 2, "key_press": -1, "wordID": 934, "type": "PRES_VIS", "trial_index": 91}, "uniqueid": "MTK2286:3EICBYG6453VC2HE7M2U9112FLOJC1", "dateTime": 1516918537004}, {"current_trial": 92, "trialdata": {"rt": -1, "trial_type": "single-stim", "word": "market", "stimulus": "<p id=\"stim\">MARKET</p>", "conditions": [12, 1600, "v", 12000], "internal_node_id": "0.0-65.0", "trial": 2, "time_elapsed": 458724, "serialpos": 3, "key_press": -1, "wordID": 870, "type": "PRES_VIS", "trial_index": 92}, "uniqueid": "MTK2286:3EICBYG6453VC2HE7M2U9112FLOJC1", "dateTime": 1516918539574}, {"current_trial": 93, "trialdata": {"rt": -1, "trial_type": "single-stim", "word": "bathtub", "stimulus": "<p id=\"stim\">BATHTUB</p>", "conditions": [12, 1600, "v", 12000], "internal_node_id": "0.0-66.0", "trial": 2, "time_elapsed": 461320, "serialpos": 4, "key_press": -1, "wordID": 99, "type": "PRES_VIS", "trial_index": 93}, "uniqueid": "MTK2286:3EICBYG6453VC2HE7M2U9112FLOJC1", "dateTime": 1516918542170}, {"current_trial": 94, "trialdata": {"rt": -1, "trial_type": "single-stim", "word": "gymnast", "stimulus": "<p id=\"stim\">GYMNAST</p>", "conditions": [12, 1600, "v", 12000], "internal_node_id": "0.0-67.0", "trial": 2, "time_elapsed": 464080, "serialpos": 5, "key_press": -1, "wordID": 674, "type": "PRES_VIS", "trial_index": 94}, "uniqueid": "MTK2286:3EICBYG6453VC2HE7M2U9112FLOJC1", "dateTime": 1516918544931}, {"current_trial": 95, "trialdata": {"rt": -1, "trial_type": "single-stim", "word": "flesh", "stimulus": "<p id=\"stim\">FLESH</p>", "conditions": [12, 1600, "v", 12000], "internal_node_id": "0.0-68.0", "trial": 2, "time_elapsed": 466537, "serialpos": 6, "key_press": -1, "wordID": 578, "type": "PRES_VIS", "trial_index": 95}, "uniqueid": "MTK2286:3EICBYG6453VC2HE7M2U9112FLOJC1", "dateTime": 1516918547387}, {"current_trial": 96, "trialdata": {"rt": -1, "trial_type": "single-stim", "word": "creature", "stimulus": "<p id=\"stim\">CREATURE</p>", "conditions": [12, 1600, "v", 12000], "internal_node_id": "0.0-69.0", "trial": 2, "time_elapsed": 469270, "serialpos": 7, "key_press": -1, "wordID": 402, "type": "PRES_VIS", "trial_index": 96}, "uniqueid": "MTK2286:3EICBYG6453VC2HE7M2U9112FLOJC1", "dateTime": 1516918550121}, {"current_trial": 97, "trialdata": {"rt": -1, "trial_type": "single-stim", "word": "dancer", "stimulus": "<p id=\"stim\">DANCER</p>", "conditions": [12, 1600, "v", 12000], "internal_node_id": "0.0-70.0", "trial": 2, "time_elapsed": 471817, "serialpos": 8, "key_press": -1, "wordID": 436, "type": "PRES_VIS", "trial_index": 97}, "uniqueid": "MTK2286:3EICBYG6453VC2HE7M2U9112FLOJC1", "dateTime": 1516918552667}, {"current_trial": 98, "trialdata": {"rt": -1, "trial_type": "single-stim", "word": "diver", "stimulus": "<p id=\"stim\">DIVER</p>", "conditions": [12, 1600, "v", 12000], "internal_node_id": "0.0-71.0", "trial": 2, "time_elapsed": 474366, "serialpos": 9, "key_press": -1, "wordID": 475, "type": "PRES_VIS", "trial_index": 98}, "uniqueid": "MTK2286:3EICBYG6453VC2HE7M2U9112FLOJC1", "dateTime": 1516918555217}, {"current_trial": 99, "trialdata": {"rt": -1, "trial_type": "single-stim", "word": "swimmer", "stimulus": "<p id=\"stim\">SWIMMER</p>", "conditions": [12, 1600, "v", 12000], "internal_node_id": "0.0-72.0", "trial": 2, "time_elapsed": 476934, "serialpos": 10, "key_press": -1, "wordID": 1419, "type": "PRES_VIS", "trial_index": 99}, "uniqueid": "MTK2286:3EICBYG6453VC2HE7M2U9112FLOJC1", "dateTime": 1516918557785}, {"current_trial": 100, "trialdata": {"rt": -1, "trial_type": "single-stim", "word": "termite", "stimulus": "<p id=\"stim\">TERMITE</p>", "conditions": [12, 1600, "v", 12000], "internal_node_id": "0.0-73.0", "trial": 2, "time_elapsed": 479469, "serialpos": 11, "key_press": -1, "wordID": 1450, "type": "PRES_VIS", "trial_index": 100}, "uniqueid": "MTK2286:3EICBYG6453VC2HE7M2U9112FLOJC1", "dateTime": 1516918560319}, {"current_trial": 101, "trialdata": {"rt": -1, "trial_type": "single-stim", "stimulus": "", "internal_node_id": "0.0-74.0-0.0", "time_elapsed": 481752, "key_press": -1, "type": "PRE_RECALL_DELAY", "trial_index": 101}, "uniqueid": "MTK2286:3EICBYG6453VC2HE7M2U9112FLOJC1", "dateTime": 1516918562602}, {"current_trial": 102, "trialdata": {"rt": -1000, "trial_type": "single-audio", "stimulus": "/static/audio/400Hz.wav", "internal_node_id": "0.0-75.0", "time_elapsed": 482262, "key_press": -1, "type": "PRE_RECALL_ALERT", "trial_index": 102}, "uniqueid": "MTK2286:3EICBYG6453VC2HE7M2U9112FLOJC1", "dateTime": 1516918563112}, {"current_trial": 103, "trialdata": {"rt": [3951, 7224, 10192, 37120, 37168, 56791], "recwords": ["jumgle", "mustard", "tuba", "", "", "jungle"], "key_times": [1599, 1808, 1992, 2280, 2703, 3112, 3951, 4992, 5288, 5624, 5992, 6320, 6551, 6728, 7224, 8208, 8848, 9112, 9496, 10192, 37120, 37168, 54944, 55160, 55352, 55576, 55832, 56264, 56791, 59120, 59360, 59592], "trial_type": "free-recall", "conditions": [12, 1600, "v", 12000], "internal_node_id": "0.0-76.0-0.0", "key_presses": [74, 85, 77, 71, 76, 69, 13, 77, 85, 83, 84, 65, 82, 68, 13, 84, 85, 66, 65, 13, 32, 32, 74, 85, 78, 71, 76, 69, 13, 71, 73, 78], "trial": 2, "time_elapsed": 542264, "type": "FREE_RECALL", "trial_index": 103}, "uniqueid": "MTK2286:3EICBYG6453VC2HE7M2U9112FLOJC1", "dateTime": 1516918623117}, {"current_trial": 104, "trialdata": {"rt": 1987, "trial_type": "text", "internal_node_id": "0.0-77.0", "time_elapsed": 546254, "key_press": 32, "type": "INSTRUCTIONS", "trial_index": 104}, "uniqueid": "MTK2286:3EICBYG6453VC2HE7M2U9112FLOJC1", "dateTime": 1516918627104}, {"current_trial": 105, "trialdata": {"rt": [5661, 7893, 11221, 16069, 18510, 21589], "trial_type": "math-distractor", "key_times": [1966, 2774, 4086, 4598, 5661, 7278, 7447, 7893, 10238, 10686, 11221, 15127, 15598, 16069, 17838, 18045, 18510, 20614, 21076, 21589, 23206, 23878], "responses": ["18", "12", "15", "24", "13", "18"], "num2": [2, 6, 7, 7, 3, 2, 5], "num3": [9, 2, 6, 9, 1, 8, 4], "conditions": [12, 1600, "v", 24000], "internal_node_id": "0.0-78.0", "key_presses": [49, 57, 8, 56, 13, 49, 50, 13, 49, 53, 13, 50, 52, 13, 49, 51, 13, 49, 56, 13, 49, 48], "trial": 3, "time_elapsed": 572258, "type": "DISTRACTOR", "trial_index": 105, "num1": [6, 4, 2, 9, 9, 8, 1]}, "uniqueid": "MTK2286:3EICBYG6453VC2HE7M2U9112FLOJC1", "dateTime": 1516918653108}, {"current_trial": 106, "trialdata": {"rt": -1, "trial_type": "single-stim", "stimulus": "<p id=\"stim\">10</p>", "internal_node_id": "0.0-79.0-0.0", "time_elapsed": 575260, "key_press": -1, "trial_index": 106}, "uniqueid": "MTK2286:3EICBYG6453VC2HE7M2U9112FLOJC1", "dateTime": 1516918656110}, {"current_trial": 107, "trialdata": {"rt": -1, "trial_type": "single-stim", "stimulus": "<p id=\"stim\">9</p>", "internal_node_id": "0.0-79.0-1.0", "time_elapsed": 576261, "key_press": -1, "trial_index": 107}, "uniqueid": "MTK2286:3EICBYG6453VC2HE7M2U9112FLOJC1", "dateTime": 1516918657112}, {"current_trial": 108, "trialdata": {"rt": -1, "trial_type": "single-stim", "stimulus": "<p id=\"stim\">8</p>", "internal_node_id": "0.0-79.0-2.0", "time_elapsed": 577264, "key_press": -1, "trial_index": 108}, "uniqueid": "MTK2286:3EICBYG6453VC2HE7M2U9112FLOJC1", "dateTime": 1516918658114}, {"current_trial": 109, "trialdata": {"rt": -1, "trial_type": "single-stim", "stimulus": "<p id=\"stim\">7</p>", "internal_node_id": "0.0-79.0-3.0", "time_elapsed": 578265, "key_press": -1, "trial_index": 109}, "uniqueid": "MTK2286:3EICBYG6453VC2HE7M2U9112FLOJC1", "dateTime": 1516918659115}, {"current_trial": 110, "trialdata": {"rt": -1, "trial_type": "single-stim", "stimulus": "<p id=\"stim\">6</p>", "internal_node_id": "0.0-79.0-4.0", "time_elapsed": 579266, "key_press": -1, "trial_index": 110}, "uniqueid": "MTK2286:3EICBYG6453VC2HE7M2U9112FLOJC1", "dateTime": 1516918660116}, {"current_trial": 111, "trialdata": {"rt": -1, "trial_type": "single-stim", "stimulus": "<p id=\"stim\">5</p>", "internal_node_id": "0.0-79.0-5.0", "time_elapsed": 580268, "key_press": -1, "trial_index": 111}, "uniqueid": "MTK2286:3EICBYG6453VC2HE7M2U9112FLOJC1", "dateTime": 1516918661118}, {"current_trial": 112, "trialdata": {"rt": -1, "trial_type": "single-stim", "stimulus": "<p id=\"stim\">4</p>", "internal_node_id": "0.0-79.0-6.0", "time_elapsed": 581269, "key_press": -1, "trial_index": 112}, "uniqueid": "MTK2286:3EICBYG6453VC2HE7M2U9112FLOJC1", "dateTime": 1516918662119}, {"current_trial": 113, "trialdata": {"rt": -1, "trial_type": "single-stim", "stimulus": "<p id=\"stim\">3</p>", "internal_node_id": "0.0-79.0-7.0", "time_elapsed": 582270, "key_press": -1, "trial_index": 113}, "uniqueid": "MTK2286:3EICBYG6453VC2HE7M2U9112FLOJC1", "dateTime": 1516918663120}, {"current_trial": 114, "trialdata": {"rt": -1, "trial_type": "single-stim", "stimulus": "<p id=\"stim\">2</p>", "internal_node_id": "0.0-79.0-8.0", "time_elapsed": 583271, "key_press": -1, "trial_index": 114}, "uniqueid": "MTK2286:3EICBYG6453VC2HE7M2U9112FLOJC1", "dateTime": 1516918664121}, {"current_trial": 115, "trialdata": {"rt": -1, "trial_type": "single-stim", "stimulus": "<p id=\"stim\">1</p>", "internal_node_id": "0.0-79.0-9.0", "time_elapsed": 584272, "key_press": -1, "trial_index": 115}, "uniqueid": "MTK2286:3EICBYG6453VC2HE7M2U9112FLOJC1", "dateTime": 1516918665122}, {"current_trial": 116, "trialdata": {"rt": -1, "trial_type": "single-stim", "stimulus": "<p id=\"stim\">+</p>", "internal_node_id": "0.0-80.0-0.0", "time_elapsed": 585774, "key_press": -1, "type": "FIXATION", "trial_index": 116}, "uniqueid": "MTK2286:3EICBYG6453VC2HE7M2U9112FLOJC1", "dateTime": 1516918666624}, {"current_trial": 117, "trialdata": {"rt": -1, "trial_type": "single-stim", "word": "france", "stimulus": "<p id=\"stim\">FRANCE</p>", "conditions": [12, 1600, "v", 24000], "internal_node_id": "0.0-81.0", "trial": 3, "time_elapsed": 587375, "serialpos": 0, "key_press": -1, "wordID": 600, "type": "PRES_VIS", "trial_index": 117}, "uniqueid": "MTK2286:3EICBYG6453VC2HE7M2U9112FLOJC1", "dateTime": 1516918668225}, {"current_trial": 118, "trialdata": {"rt": -1, "trial_type": "single-stim", "word": "igloo", "stimulus": "<p id=\"stim\">IGLOO</p>", "conditions": [12, 1600, "v", 24000], "internal_node_id": "0.0-82.0", "trial": 3, "time_elapsed": 590170, "serialpos": 1, "key_press": -1, "wordID": 733, "type": "PRES_VIS", "trial_index": 118}, "uniqueid": "MTK2286:3EICBYG6453VC2HE7M2U9112FLOJC1", "dateTime": 1516918671021}, {"current_trial": 119, "trialdata": {"rt": -1, "trial_type": "single-stim", "word": "bug", "stimulus": "<p id=\"stim\">BUG</p>", "conditions": [12, 1600, "v", 24000], "internal_node_id": "0.0-83.0", "trial": 3, "time_elapsed": 592694, "serialpos": 2, "key_press": -1, "wordID": 186, "type": "PRES_VIS", "trial_index": 119}, "uniqueid": "MTK2286:3EICBYG6453VC2HE7M2U9112FLOJC1", "dateTime": 1516918673544}, {"current_trial": 120, "trialdata": {"rt": -1, "trial_type": "single-stim", "word": "razor", "stimulus": "<p id=\"stim\">RAZOR</p>", "conditions": [12, 1600, "v", 24000], "internal_node_id": "0.0-84.0", "trial": 3, "time_elapsed": 595480, "serialpos": 3, "key_press": -1, "wordID": 1170, "type": "PRES_VIS", "trial_index": 120}, "uniqueid": "MTK2286:3EICBYG6453VC2HE7M2U9112FLOJC1", "dateTime": 1516918676330}, {"current_trial": 121, "trialdata": {"rt": -1, "trial_type": "single-stim", "word": "zipper", "stimulus": "<p id=\"stim\">ZIPPER</p>", "conditions": [12, 1600, "v", 24000], "internal_node_id": "0.0-85.0", "trial": 3, "time_elapsed": 598145, "serialpos": 4, "key_press": -1, "wordID": 1635, "type": "PRES_VIS", "trial_index": 121}, "uniqueid": "MTK2286:3EICBYG6453VC2HE7M2U9112FLOJC1", "dateTime": 1516918678995}, {"current_trial": 122, "trialdata": {"rt": -1, "trial_type": "single-stim", "word": "record", "stimulus": "<p id=\"stim\">RECORD</p>", "conditions": [12, 1600, "v", 24000], "internal_node_id": "0.0-86.0", "trial": 3, "time_elapsed": 600553, "serialpos": 5, "key_press": -1, "wordID": 1175, "type": "PRES_VIS", "trial_index": 122}, "uniqueid": "MTK2286:3EICBYG6453VC2HE7M2U9112FLOJC1", "dateTime": 1516918681404}, {"current_trial": 123, "trialdata": {"rt": -1, "trial_type": "single-stim", "word": "slide", "stimulus": "<p id=\"stim\">SLIDE</p>", "conditions": [12, 1600, "v", 24000], "internal_node_id": "0.0-87.0", "trial": 3, "time_elapsed": 603335, "serialpos": 6, "key_press": -1, "wordID": 1325, "type": "PRES_VIS", "trial_index": 123}, "uniqueid": "MTK2286:3EICBYG6453VC2HE7M2U9112FLOJC1", "dateTime": 1516918684185}, {"current_trial": 124, "trialdata": {"rt": -1, "trial_type": "single-stim", "word": "ozone", "stimulus": "<p id=\"stim\">OZONE</p>", "conditions": [12, 1600, "v", 24000], "internal_node_id": "0.0-88.0", "trial": 3, "time_elapsed": 606051, "serialpos": 7, "key_press": -1, "wordID": 995, "type": "PRES_VIS", "trial_index": 124}, "uniqueid": "MTK2286:3EICBYG6453VC2HE7M2U9112FLOJC1", "dateTime": 1516918686901}, {"current_trial": 125, "trialdata": {"rt": -1, "trial_type": "single-stim", "word": "blender", "stimulus": "<p id=\"stim\">BLENDER</p>", "conditions": [12, 1600, "v", 24000], "internal_node_id": "0.0-89.0", "trial": 3, "time_elapsed": 608650, "serialpos": 8, "key_press": -1, "wordID": 135, "type": "PRES_VIS", "trial_index": 125}, "uniqueid": "MTK2286:3EICBYG6453VC2HE7M2U9112FLOJC1", "dateTime": 1516918689501}, {"current_trial": 126, "trialdata": {"rt": -1, "trial_type": "single-stim", "word": "skillet", "stimulus": "<p id=\"stim\">SKILLET</p>", "conditions": [12, 1600, "v", 24000], "internal_node_id": "0.0-90.0", "trial": 3, "time_elapsed": 611342, "serialpos": 9, "key_press": -1, "wordID": 1316, "type": "PRES_VIS", "trial_index": 126}, "uniqueid": "MTK2286:3EICBYG6453VC2HE7M2U9112FLOJC1", "dateTime": 1516918692192}, {"current_trial": 127, "trialdata": {"rt": -1, "trial_type": "single-stim", "word": "trombone", "stimulus": "<p id=\"stim\">TROMBONE</p>", "conditions": [12, 1600, "v", 24000], "internal_node_id": "0.0-91.0", "trial": 3, "time_elapsed": 614073, "serialpos": 10, "key_press": -1, "wordID": 1507, "type": "PRES_VIS", "trial_index": 127}, "uniqueid": "MTK2286:3EICBYG6453VC2HE7M2U9112FLOJC1", "dateTime": 1516918694923}, {"current_trial": 128, "trialdata": {"rt": -1, "trial_type": "single-stim", "word": "london", "stimulus": "<p id=\"stim\">LONDON</p>", "conditions": [12, 1600, "v", 24000], "internal_node_id": "0.0-92.0", "trial": 3, "time_elapsed": 616585, "serialpos": 11, "key_press": -1, "wordID": 842, "type": "PRES_VIS", "trial_index": 128}, "uniqueid": "MTK2286:3EICBYG6453VC2HE7M2U9112FLOJC1", "dateTime": 1516918697435}, {"current_trial": 129, "trialdata": {"rt": -1, "trial_type": "single-stim", "stimulus": "", "internal_node_id": "0.0-93.0-0.0", "time_elapsed": 618894, "key_press": -1, "type": "PRE_RECALL_DELAY", "trial_index": 129}, "uniqueid": "MTK2286:3EICBYG6453VC2HE7M2U9112FLOJC1", "dateTime": 1516918699745}, {"current_trial": 130, "trialdata": {"rt": -1000, "trial_type": "single-audio", "stimulus": "/static/audio/400Hz.wav", "internal_node_id": "0.0-94.0", "time_elapsed": 619399, "key_press": -1, "type": "PRE_RECALL_ALERT", "trial_index": 130}, "uniqueid": "MTK2286:3EICBYG6453VC2HE7M2U9112FLOJC1", "dateTime": 1516918700249}, {"current_trial": 131, "trialdata": {"rt": [3725, 7053, 9102, 12278, 35062, 40382, 48045], "recwords": ["france", "razor", "bug", "skillet", "pen", "", "bench"], "key_times": [1407, 1614, 1878, 2671, 2990, 3207, 3725, 5078, 5358, 5735, 6150, 6535, 7053, 8158, 8446, 8694, 9102, 10206, 10646, 10854, 11072, 11207, 11614, 11798, 12278, 33167, 33654, 34326, 35062, 40382, 45791, 46167, 47031, 47358, 47598, 48045], "trial_type": "free-recall", "conditions": [12, 1600, "v", 24000], "internal_node_id": "0.0-95.0-0.0", "key_presses": [70, 82, 65, 78, 67, 69, 13, 82, 65, 90, 79, 82, 13, 66, 85, 71, 13, 83, 75, 73, 76, 76, 69, 84, 13, 80, 69, 78, 13, 32, 66, 69, 78, 67, 72, 13], "trial": 3, "time_elapsed": 679402, "type": "FREE_RECALL", "trial_index": 131}, "uniqueid": "MTK2286:3EICBYG6453VC2HE7M2U9112FLOJC1", "dateTime": 1516918760256}, {"current_trial": 132, "trialdata": {"rt": 1696, "trial_type": "text", "internal_node_id": "0.0-96.0", "time_elapsed": 683103, "key_press": 32, "type": "INSTRUCTIONS", "trial_index": 132}, "uniqueid": "MTK2286:3EICBYG6453VC2HE7M2U9112FLOJC1", "dateTime": 1516918763953}, {"current_trial": 133, "trialdata": {"rt": [4549, 7253, 10565, 12965, 15428, 18045, 21469], "trial_type": "math-distractor", "key_times": [2429, 3148, 4549, 6685, 7253, 9125, 9989, 10565, 12478, 12965, 14893, 15428, 17197, 17374, 18045, 19925, 20447, 21469, 23669], "responses": ["14", "0", "17", "5", "8", "11", "20"], "num2": [2, 3, 6, 1, 1, 9, 3, 8], "num3": [4, 2, 7, 3, 5, 2, 8, 6], "conditions": [24, 1600, "v", 24000], "internal_node_id": "0.0-97.0", "key_presses": [49, 52, 13, 48, 13, 49, 55, 13, 53, 13, 56, 13, 49, 49, 13, 50, 48, 13, 49], "trial": 4, "time_elapsed": 709107, "type": "DISTRACTOR", "trial_index": 133, "num1": [8, 5, 4, 1, 2, 5, 9, 1]}, "uniqueid": "MTK2286:3EICBYG6453VC2HE7M2U9112FLOJC1", "dateTime": 1516918789957}, {"current_trial": 134, "trialdata": {"rt": -1, "trial_type": "single-stim", "stimulus": "<p id=\"stim\">10</p>", "internal_node_id": "0.0-98.0-0.0", "time_elapsed": 712109, "key_press": -1, "trial_index": 134}, "uniqueid": "MTK2286:3EICBYG6453VC2HE7M2U9112FLOJC1", "dateTime": 1516918792959}, {"current_trial": 135, "trialdata": {"rt": -1, "trial_type": "single-stim", "stimulus": "<p id=\"stim\">9</p>", "internal_node_id": "0.0-98.0-1.0", "time_elapsed": 713110, "key_press": -1, "trial_index": 135}, "uniqueid": "MTK2286:3EICBYG6453VC2HE7M2U9112FLOJC1", "dateTime": 1516918793960}, {"current_trial": 136, "trialdata": {"rt": -1, "trial_type": "single-stim", "stimulus": "<p id=\"stim\">8</p>", "internal_node_id": "0.0-98.0-2.0", "time_elapsed": 714111, "key_press": -1, "trial_index": 136}, "uniqueid": "MTK2286:3EICBYG6453VC2HE7M2U9112FLOJC1", "dateTime": 1516918794961}, {"current_trial": 137, "trialdata": {"rt": -1, "trial_type": "single-stim", "stimulus": "<p id=\"stim\">7</p>", "internal_node_id": "0.0-98.0-3.0", "time_elapsed": 715112, "key_press": -1, "trial_index": 137}, "uniqueid": "MTK2286:3EICBYG6453VC2HE7M2U9112FLOJC1", "dateTime": 1516918795963}, {"current_trial": 138, "trialdata": {"rt": -1, "trial_type": "single-stim", "stimulus": "<p id=\"stim\">6</p>", "internal_node_id": "0.0-98.0-4.0", "time_elapsed": 716114, "key_press": -1, "trial_index": 138}, "uniqueid": "MTK2286:3EICBYG6453VC2HE7M2U9112FLOJC1", "dateTime": 1516918796964}, {"current_trial": 139, "trialdata": {"rt": -1, "trial_type": "single-stim", "stimulus": "<p id=\"stim\">5</p>", "internal_node_id": "0.0-98.0-5.0", "time_elapsed": 717115, "key_press": -1, "trial_index": 139}, "uniqueid": "MTK2286:3EICBYG6453VC2HE7M2U9112FLOJC1", "dateTime": 1516918797965}, {"current_trial": 140, "trialdata": {"rt": -1, "trial_type": "single-stim", "stimulus": "<p id=\"stim\">4</p>", "internal_node_id": "0.0-98.0-6.0", "time_elapsed": 718116, "key_press": -1, "trial_index": 140}, "uniqueid": "MTK2286:3EICBYG6453VC2HE7M2U9112FLOJC1", "dateTime": 1516918798966}, {"current_trial": 141, "trialdata": {"rt": -1, "trial_type": "single-stim", "stimulus": "<p id=\"stim\">3</p>", "internal_node_id": "0.0-98.0-7.0", "time_elapsed": 719117, "key_press": -1, "trial_index": 141}, "uniqueid": "MTK2286:3EICBYG6453VC2HE7M2U9112FLOJC1", "dateTime": 1516918799967}, {"current_trial": 142, "trialdata": {"rt": -1, "trial_type": "single-stim", "stimulus": "<p id=\"stim\">2</p>", "internal_node_id": "0.0-98.0-8.0", "time_elapsed": 720119, "key_press": -1, "trial_index": 142}, "uniqueid": "MTK2286:3EICBYG6453VC2HE7M2U9112FLOJC1", "dateTime": 1516918800969}, {"current_trial": 143, "trialdata": {"rt": -1, "trial_type": "single-stim", "stimulus": "<p id=\"stim\">1</p>", "internal_node_id": "0.0-98.0-9.0", "time_elapsed": 721120, "key_press": -1, "trial_index": 143}, "uniqueid": "MTK2286:3EICBYG6453VC2HE7M2U9112FLOJC1", "dateTime": 1516918801971}, {"current_trial": 144, "trialdata": {"rt": -1, "trial_type": "single-stim", "stimulus": "<p id=\"stim\">+</p>", "internal_node_id": "0.0-99.0-0.0", "time_elapsed": 722622, "key_press": -1, "type": "FIXATION", "trial_index": 144}, "uniqueid": "MTK2286:3EICBYG6453VC2HE7M2U9112FLOJC1", "dateTime": 1516918803472}, {"current_trial": 145, "trialdata": {"rt": -1, "trial_type": "single-stim", "word": "antler", "stimulus": "<p id=\"stim\">ANTLER</p>", "conditions": [24, 1600, "v", 24000], "internal_node_id": "0.0-100.0", "trial": 4, "time_elapsed": 724224, "serialpos": 0, "key_press": -1, "wordID": 28, "type": "PRES_VIS", "trial_index": 145}, "uniqueid": "MTK2286:3EICBYG6453VC2HE7M2U9112FLOJC1", "dateTime": 1516918805074}, {"current_trial": 146, "trialdata": {"rt": -1, "trial_type": "single-stim", "word": "plaid", "stimulus": "<p id=\"stim\">PLAID</p>", "conditions": [24, 1600, "v", 24000], "internal_node_id": "0.0-101.0", "trial": 4, "time_elapsed": 727006, "serialpos": 1, "key_press": -1, "wordID": 1079, "type": "PRES_VIS", "trial_index": 146}, "uniqueid": "MTK2286:3EICBYG6453VC2HE7M2U9112FLOJC1", "dateTime": 1516918807856}, {"current_trial": 147, "trialdata": {"rt": -1, "trial_type": "single-stim", "word": "zebra", "stimulus": "<p id=\"stim\">ZEBRA</p>", "conditions": [24, 1600, "v", 24000], "internal_node_id": "0.0-102.0", "trial": 4, "time_elapsed": 729582, "serialpos": 2, "key_press": -1, "wordID": 1634, "type": "PRES_VIS", "trial_index": 147}, "uniqueid": "MTK2286:3EICBYG6453VC2HE7M2U9112FLOJC1", "dateTime": 1516918810432}, {"current_trial": 148, "trialdata": {"rt": -1, "trial_type": "single-stim", "word": "leopard", "stimulus": "<p id=\"stim\">LEOPARD</p>", "conditions": [24, 1600, "v", 24000], "internal_node_id": "0.0-103.0", "trial": 4, "time_elapsed": 731990, "serialpos": 3, "key_press": -1, "wordID": 811, "type": "PRES_VIS", "trial_index": 148}, "uniqueid": "MTK2286:3EICBYG6453VC2HE7M2U9112FLOJC1", "dateTime": 1516918812841}, {"current_trial": 149, "trialdata": {"rt": -1, "trial_type": "single-stim", "word": "lake", "stimulus": "<p id=\"stim\">LAKE</p>", "conditions": [24, 1600, "v", 24000], "internal_node_id": "0.0-104.0", "trial": 4, "time_elapsed": 734439, "serialpos": 4, "key_press": -1, "wordID": 795, "type": "PRES_VIS", "trial_index": 149}, "uniqueid": "MTK2286:3EICBYG6453VC2HE7M2U9112FLOJC1", "dateTime": 1516918815289}, {"current_trial": 150, "trialdata": {"rt": -1, "trial_type": "single-stim", "word": "canal", "stimulus": "<p id=\"stim\">CANAL</p>", "conditions": [24, 1600, "v", 24000], "internal_node_id": "0.0-105.0", "trial": 4, "time_elapsed": 736877, "serialpos": 5, "key_press": -1, "wordID": 225, "type": "PRES_VIS", "trial_index": 150}, "uniqueid": "MTK2286:3EICBYG6453VC2HE7M2U9112FLOJC1", "dateTime": 1516918817728}, {"current_trial": 151, "trialdata": {"rt": -1, "trial_type": "single-stim", "word": "branch", "stimulus": "<p id=\"stim\">BRANCH</p>", "conditions": [24, 1600, "v", 24000], "internal_node_id": "0.0-106.0", "trial": 4, "time_elapsed": 739672, "serialpos": 6, "key_press": -1, "wordID": 167, "type": "PRES_VIS", "trial_index": 151}, "uniqueid": "MTK2286:3EICBYG6453VC2HE7M2U9112FLOJC1", "dateTime": 1516918820522}, {"current_trial": 152, "trialdata": {"rt": -1, "trial_type": "single-stim", "word": "pizza", "stimulus": "<p id=\"stim\">PIZZA</p>", "conditions": [24, 1600, "v", 24000], "internal_node_id": "0.0-107.0", "trial": 4, "time_elapsed": 742300, "serialpos": 7, "key_press": -1, "wordID": 1078, "type": "PRES_VIS", "trial_index": 152}, "uniqueid": "MTK2286:3EICBYG6453VC2HE7M2U9112FLOJC1", "dateTime": 1516918823150}, {"current_trial": 153, "trialdata": {"rt": -1, "trial_type": "single-stim", "word": "spouse", "stimulus": "<p id=\"stim\">SPOUSE</p>", "conditions": [24, 1600, "v", 24000], "internal_node_id": "0.0-108.0", "trial": 4, "time_elapsed": 744785, "serialpos": 8, "key_press": -1, "wordID": 1357, "type": "PRES_VIS", "trial_index": 153}, "uniqueid": "MTK2286:3EICBYG6453VC2HE7M2U9112FLOJC1", "dateTime": 1516918825635}, {"current_trial": 154, "trialdata": {"rt": -1, "trial_type": "single-stim", "word": "cousin", "stimulus": "<p id=\"stim\">COUSIN</p>", "conditions": [24, 1600, "v", 24000], "internal_node_id": "0.0-109.0", "trial": 4, "time_elapsed": 747458, "serialpos": 9, "key_press": -1, "wordID": 391, "type": "PRES_VIS", "trial_index": 154}, "uniqueid": "MTK2286:3EICBYG6453VC2HE7M2U9112FLOJC1", "dateTime": 1516918828308}, {"current_trial": 155, "trialdata": {"rt": -1, "trial_type": "single-stim", "word": "lagoon", "stimulus": "<p id=\"stim\">LAGOON</p>", "conditions": [24, 1600, "v", 24000], "internal_node_id": "0.0-110.0", "trial": 4, "time_elapsed": 749965, "serialpos": 10, "key_press": -1, "wordID": 794, "type": "PRES_VIS", "trial_index": 155}, "uniqueid": "MTK2286:3EICBYG6453VC2HE7M2U9112FLOJC1", "dateTime": 1516918830815}, {"current_trial": 156, "trialdata": {"rt": -1, "trial_type": "single-stim", "word": "cellar", "stimulus": "<p id=\"stim\">CELLAR</p>", "conditions": [24, 1600, "v", 24000], "internal_node_id": "0.0-111.0", "trial": 4, "time_elapsed": 752763, "serialpos": 11, "key_press": -1, "wordID": 266, "type": "PRES_VIS", "trial_index": 156}, "uniqueid": "MTK2286:3EICBYG6453VC2HE7M2U9112FLOJC1", "dateTime": 1516918833613}, {"current_trial": 157, "trialdata": {"rt": -1, "trial_type": "single-stim", "word": "kitchen", "stimulus": "<p id=\"stim\">KITCHEN</p>", "conditions": [24, 1600, "v", 24000], "internal_node_id": "0.0-112.0", "trial": 4, "time_elapsed": 755395, "serialpos": 12, "key_press": -1, "wordID": 777, "type": "PRES_VIS", "trial_index": 157}, "uniqueid": "MTK2286:3EICBYG6453VC2HE7M2U9112FLOJC1", "dateTime": 1516918836245}, {"current_trial": 158, "trialdata": {"rt": -1, "trial_type": "single-stim", "word": "mailbox", "stimulus": "<p id=\"stim\">MAILBOX</p>", "conditions": [24, 1600, "v", 24000], "internal_node_id": "0.0-113.0", "trial": 4, "time_elapsed": 758014, "serialpos": 13, "key_press": -1, "wordID": 856, "type": "PRES_VIS", "trial_index": 158}, "uniqueid": "MTK2286:3EICBYG6453VC2HE7M2U9112FLOJC1", "dateTime": 1516918838864}, {"current_trial": 159, "trialdata": {"rt": -1, "trial_type": "single-stim", "word": "wrist", "stimulus": "<p id=\"stim\">WRIST</p>", "conditions": [24, 1600, "v", 24000], "internal_node_id": "0.0-114.0", "trial": 4, "time_elapsed": 760476, "serialpos": 14, "key_press": -1, "wordID": 1625, "type": "PRES_VIS", "trial_index": 159}, "uniqueid": "MTK2286:3EICBYG6453VC2HE7M2U9112FLOJC1", "dateTime": 1516918841326}, {"current_trial": 160, "trialdata": {"rt": -1, "trial_type": "single-stim", "word": "arm", "stimulus": "<p id=\"stim\">ARM</p>", "conditions": [24, 1600, "v", 24000], "internal_node_id": "0.0-115.0", "trial": 4, "time_elapsed": 762961, "serialpos": 15, "key_press": -1, "wordID": 37, "type": "PRES_VIS", "trial_index": 160}, "uniqueid": "MTK2286:3EICBYG6453VC2HE7M2U9112FLOJC1", "dateTime": 1516918843811}, {"current_trial": 161, "trialdata": {"rt": -1, "trial_type": "single-stim", "word": "blade", "stimulus": "<p id=\"stim\">BLADE</p>", "conditions": [24, 1600, "v", 24000], "internal_node_id": "0.0-116.0", "trial": 4, "time_elapsed": 765437, "serialpos": 16, "key_press": -1, "wordID": 133, "type": "PRES_VIS", "trial_index": 161}, "uniqueid": "MTK2286:3EICBYG6453VC2HE7M2U9112FLOJC1", "dateTime": 1516918846287}, {"current_trial": 162, "trialdata": {"rt": -1, "trial_type": "single-stim", "word": "knife", "stimulus": "<p id=\"stim\">KNIFE</p>", "conditions": [24, 1600, "v", 24000], "internal_node_id": "0.0-117.0", "trial": 4, "time_elapsed": 768018, "serialpos": 17, "key_press": -1, "wordID": 784, "type": "PRES_VIS", "trial_index": 162}, "uniqueid": "MTK2286:3EICBYG6453VC2HE7M2U9112FLOJC1", "dateTime": 1516918848869}, {"current_trial": 163, "trialdata": {"rt": -1, "trial_type": "single-stim", "word": "poet", "stimulus": "<p id=\"stim\">POET</p>", "conditions": [24, 1600, "v", 24000], "internal_node_id": "0.0-118.0", "trial": 4, "time_elapsed": 770625, "serialpos": 18, "key_press": -1, "wordID": 1094, "type": "PRES_VIS", "trial_index": 163}, "uniqueid": "MTK2286:3EICBYG6453VC2HE7M2U9112FLOJC1", "dateTime": 1516918851475}, {"current_trial": 164, "trialdata": {"rt": -1, "trial_type": "single-stim", "word": "tribe", "stimulus": "<p id=\"stim\">TRIBE</p>", "conditions": [24, 1600, "v", 24000], "internal_node_id": "0.0-119.0", "trial": 4, "time_elapsed": 773110, "serialpos": 19, "key_press": -1, "wordID": 1504, "type": "PRES_VIS", "trial_index": 164}, "uniqueid": "MTK2286:3EICBYG6453VC2HE7M2U9112FLOJC1", "dateTime": 1516918853960}, {"current_trial": 165, "trialdata": {"rt": -1, "trial_type": "single-stim", "word": "omelet", "stimulus": "<p id=\"stim\">OMELET</p>", "conditions": [24, 1600, "v", 24000], "internal_node_id": "0.0-120.0", "trial": 4, "time_elapsed": 775614, "serialpos": 20, "key_press": -1, "wordID": 975, "type": "PRES_VIS", "trial_index": 165}, "uniqueid": "MTK2286:3EICBYG6453VC2HE7M2U9112FLOJC1", "dateTime": 1516918856464}, {"current_trial": 166, "trialdata": {"rt": -1, "trial_type": "single-stim", "word": "stove", "stimulus": "<p id=\"stim\">STOVE</p>", "conditions": [24, 1600, "v", 24000], "internal_node_id": "0.0-121.0", "trial": 4, "time_elapsed": 778074, "serialpos": 21, "key_press": -1, "wordID": 1387, "type": "PRES_VIS", "trial_index": 166}, "uniqueid": "MTK2286:3EICBYG6453VC2HE7M2U9112FLOJC1", "dateTime": 1516918858924}, {"current_trial": 167, "trialdata": {"rt": -1, "trial_type": "single-stim", "word": "stamp", "stimulus": "<p id=\"stim\">STAMP</p>", "conditions": [24, 1600, "v", 24000], "internal_node_id": "0.0-122.0", "trial": 4, "time_elapsed": 780804, "serialpos": 22, "key_press": -1, "wordID": 1369, "type": "PRES_VIS", "trial_index": 167}, "uniqueid": "MTK2286:3EICBYG6453VC2HE7M2U9112FLOJC1", "dateTime": 1516918861654}, {"current_trial": 168, "trialdata": {"rt": -1, "trial_type": "single-stim", "word": "bank", "stimulus": "<p id=\"stim\">BANK</p>", "conditions": [24, 1600, "v", 24000], "internal_node_id": "0.0-123.0", "trial": 4, "time_elapsed": 783407, "serialpos": 23, "key_press": -1, "wordID": 82, "type": "PRES_VIS", "trial_index": 168}, "uniqueid": "MTK2286:3EICBYG6453VC2HE7M2U9112FLOJC1", "dateTime": 1516918864257}, {"current_trial": 169, "trialdata": {"rt": -1, "trial_type": "single-stim", "stimulus": "", "internal_node_id": "0.0-124.0-0.0", "time_elapsed": 785772, "key_press": -1, "type": "PRE_RECALL_DELAY", "trial_index": 169}, "uniqueid": "MTK2286:3EICBYG6453VC2HE7M2U9112FLOJC1", "dateTime": 1516918866622}, {"current_trial": 170, "trialdata": {"rt": -1000, "trial_type": "single-audio", "stimulus": "/static/audio/400Hz.wav", "internal_node_id": "0.0-125.0", "time_elapsed": 786275, "key_press": -1, "type": "PRE_RECALL_ALERT", "trial_index": 170}, "uniqueid": "MTK2286:3EICBYG6453VC2HE7M2U9112FLOJC1", "dateTime": 1516918867125}, {"current_trial": 171, "trialdata": {"rt": [3554, 7040, 11361, 14657, 52146], "recwords": ["plaid", "zebra", "leather", "spouse", ""], "key_times": [1441, 1633, 2056, 2464, 2849, 3554, 4857, 5113, 6017, 6329, 6569, 7040, 8633, 9057, 9290, 9698, 9929, 10273, 10449, 11361, 12297, 12786, 12977, 13201, 13537, 13745, 14657, 52146], "trial_type": "free-recall", "conditions": [24, 1600, "v", 24000], "internal_node_id": "0.0-126.0-0.0", "key_presses": [80, 76, 65, 73, 68, 13, 90, 69, 66, 82, 65, 13, 76, 69, 65, 84, 72, 69, 82, 13, 83, 80, 79, 85, 83, 69, 13, 32], "trial": 4, "time_elapsed": 846278, "type": "FREE_RECALL", "trial_index": 171}, "uniqueid": "MTK2286:3EICBYG6453VC2HE7M2U9112FLOJC1", "dateTime": 1516918927132}, {"current_trial": 172, "trialdata": {"rt": 1251, "trial_type": "text", "internal_node_id": "0.0-127.0", "time_elapsed": 849534, "key_press": 32, "type": "INSTRUCTIONS", "trial_index": 172}, "uniqueid": "MTK2286:3EICBYG6453VC2HE7M2U9112FLOJC1", "dateTime": 1516918930385}, {"current_trial": 173, "trialdata": {"rt": [3502, 7694, 10110, 12478, 14814, 20669, 23013], "trial_type": "math-distractor", "key_times": [2070, 2622, 3502, 6846, 7030, 7694, 9126, 9302, 10110, 11958, 12478, 13751, 13942, 14814, 16303, 16685, 19200, 19814, 20669, 22254, 22462, 23013], "responses": ["26", "23", "11", "9", "12", "14", "13"], "num2": [9, 9, 3, 2, 4, 2, 6, 9], "num3": [7, 7, 4, 6, 2, 4, 1, 5], "conditions": [12, 800, "v", 24000], "internal_node_id": "0.0-128.0", "key_presses": [50, 54, 13, 50, 51, 13, 49, 49, 13, 57, 13, 49, 50, 13, 49, 53, 8, 52, 13, 49, 51, 13], "trial": 5, "time_elapsed": 875537, "type": "DISTRACTOR", "trial_index": 173, "num1": [9, 7, 4, 1, 6, 8, 6, 6]}, "uniqueid": "MTK2286:3EICBYG6453VC2HE7M2U9112FLOJC1", "dateTime": 1516918956387}, {"current_trial": 174, "trialdata": {"rt": -1, "trial_type": "single-stim", "stimulus": "<p id=\"stim\">10</p>", "internal_node_id": "0.0-129.0-0.0", "time_elapsed": 878539, "key_press": -1, "trial_index": 174}, "uniqueid": "MTK2286:3EICBYG6453VC2HE7M2U9112FLOJC1", "dateTime": 1516918959389}, {"current_trial": 175, "trialdata": {"rt": -1, "trial_type": "single-stim", "stimulus": "<p id=\"stim\">9</p>", "internal_node_id": "0.0-129.0-1.0", "time_elapsed": 879541, "key_press": -1, "trial_index": 175}, "uniqueid": "MTK2286:3EICBYG6453VC2HE7M2U9112FLOJC1", "dateTime": 1516918960392}, {"current_trial": 176, "trialdata": {"rt": -1, "trial_type": "single-stim", "stimulus": "<p id=\"stim\">8</p>", "internal_node_id": "0.0-129.0-2.0", "time_elapsed": 880543, "key_press": -1, "trial_index": 176}, "uniqueid": "MTK2286:3EICBYG6453VC2HE7M2U9112FLOJC1", "dateTime": 1516918961394}, {"current_trial": 177, "trialdata": {"rt": -1, "trial_type": "single-stim", "stimulus": "<p id=\"stim\">7</p>", "internal_node_id": "0.0-129.0-3.0", "time_elapsed": 881545, "key_press": -1, "trial_index": 177}, "uniqueid": "MTK2286:3EICBYG6453VC2HE7M2U9112FLOJC1", "dateTime": 1516918962395}, {"current_trial": 178, "trialdata": {"rt": -1, "trial_type": "single-stim", "stimulus": "<p id=\"stim\">6</p>", "internal_node_id": "0.0-129.0-4.0", "time_elapsed": 882546, "key_press": -1, "trial_index": 178}, "uniqueid": "MTK2286:3EICBYG6453VC2HE7M2U9112FLOJC1", "dateTime": 1516918963396}, {"current_trial": 179, "trialdata": {"rt": -1, "trial_type": "single-stim", "stimulus": "<p id=\"stim\">5</p>", "internal_node_id": "0.0-129.0-5.0", "time_elapsed": 883547, "key_press": -1, "trial_index": 179}, "uniqueid": "MTK2286:3EICBYG6453VC2HE7M2U9112FLOJC1", "dateTime": 1516918964397}, {"current_trial": 180, "trialdata": {"rt": -1, "trial_type": "single-stim", "stimulus": "<p id=\"stim\">4</p>", "internal_node_id": "0.0-129.0-6.0", "time_elapsed": 884549, "key_press": -1, "trial_index": 180}, "uniqueid": "MTK2286:3EICBYG6453VC2HE7M2U9112FLOJC1", "dateTime": 1516918965399}, {"current_trial": 181, "trialdata": {"rt": -1, "trial_type": "single-stim", "stimulus": "<p id=\"stim\">3</p>", "internal_node_id": "0.0-129.0-7.0", "time_elapsed": 885550, "key_press": -1, "trial_index": 181}, "uniqueid": "MTK2286:3EICBYG6453VC2HE7M2U9112FLOJC1", "dateTime": 1516918966400}, {"current_trial": 182, "trialdata": {"rt": -1, "trial_type": "single-stim", "stimulus": "<p id=\"stim\">2</p>", "internal_node_id": "0.0-129.0-8.0", "time_elapsed": 886552, "key_press": -1, "trial_index": 182}, "uniqueid": "MTK2286:3EICBYG6453VC2HE7M2U9112FLOJC1", "dateTime": 1516918967402}, {"current_trial": 183, "trialdata": {"rt": -1, "trial_type": "single-stim", "stimulus": "<p id=\"stim\">1</p>", "internal_node_id": "0.0-129.0-9.0", "time_elapsed": 887553, "key_press": -1, "trial_index": 183}, "uniqueid": "MTK2286:3EICBYG6453VC2HE7M2U9112FLOJC1", "dateTime": 1516918968403}, {"current_trial": 184, "trialdata": {"rt": -1, "trial_type": "single-stim", "stimulus": "<p id=\"stim\">+</p>", "internal_node_id": "0.0-130.0-0.0", "time_elapsed": 889055, "key_press": -1, "type": "FIXATION", "trial_index": 184}, "uniqueid": "MTK2286:3EICBYG6453VC2HE7M2U9112FLOJC1", "dateTime": 1516918969905}, {"current_trial": 185, "trialdata": {"rt": -1, "trial_type": "single-stim", "word": "backbone", "stimulus": "<p id=\"stim\">BACKBONE</p>", "conditions": [12, 800, "v", 24000], "internal_node_id": "0.0-131.0", "trial": 5, "time_elapsed": 889856, "serialpos": 0, "key_press": -1, "wordID": 65, "type": "PRES_VIS", "trial_index": 185}, "uniqueid": "MTK2286:3EICBYG6453VC2HE7M2U9112FLOJC1", "dateTime": 1516918970706}, {"current_trial": 186, "trialdata": {"rt": -1, "trial_type": "single-stim", "word": "award", "stimulus": "<p id=\"stim\">AWARD</p>", "conditions": [12, 800, "v", 24000], "internal_node_id": "0.0-132.0", "trial": 5, "time_elapsed": 891550, "serialpos": 1, "key_press": -1, "wordID": 62, "type": "PRES_VIS", "trial_index": 186}, "uniqueid": "MTK2286:3EICBYG6453VC2HE7M2U9112FLOJC1", "dateTime": 1516918972400}, {"current_trial": 187, "trialdata": {"rt": -1, "trial_type": "single-stim", "word": "grill", "stimulus": "<p id=\"stim\">GRILL</p>", "conditions": [12, 800, "v", 24000], "internal_node_id": "0.0-133.0", "trial": 5, "time_elapsed": 893220, "serialpos": 2, "key_press": -1, "wordID": 660, "type": "PRES_VIS", "trial_index": 187}, "uniqueid": "MTK2286:3EICBYG6453VC2HE7M2U9112FLOJC1", "dateTime": 1516918974071}, {"current_trial": 188, "trialdata": {"rt": -1, "trial_type": "single-stim", "word": "cook", "stimulus": "<p id=\"stim\">COOK</p>", "conditions": [12, 800, "v", 24000], "internal_node_id": "0.0-134.0", "trial": 5, "time_elapsed": 894948, "serialpos": 3, "key_press": -1, "wordID": 371, "type": "PRES_VIS", "trial_index": 188}, "uniqueid": "MTK2286:3EICBYG6453VC2HE7M2U9112FLOJC1", "dateTime": 1516918975799}, {"current_trial": 189, "trialdata": {"rt": -1, "trial_type": "single-stim", "word": "coffee", "stimulus": "<p id=\"stim\">COFFEE</p>", "conditions": [12, 800, "v", 24000], "internal_node_id": "0.0-135.0", "trial": 5, "time_elapsed": 896653, "serialpos": 4, "key_press": -1, "wordID": 340, "type": "PRES_VIS", "trial_index": 189}, "uniqueid": "MTK2286:3EICBYG6453VC2HE7M2U9112FLOJC1", "dateTime": 1516918977504}, {"current_trial": 190, "trialdata": {"rt": -1, "trial_type": "single-stim", "word": "frame", "stimulus": "<p id=\"stim\">FRAME</p>", "conditions": [12, 800, "v", 24000], "internal_node_id": "0.0-136.0", "trial": 5, "time_elapsed": 898278, "serialpos": 5, "key_press": -1, "wordID": 599, "type": "PRES_VIS", "trial_index": 190}, "uniqueid": "MTK2286:3EICBYG6453VC2HE7M2U9112FLOJC1", "dateTime": 1516918979128}, {"current_trial": 191, "trialdata": {"rt": -1, "trial_type": "single-stim", "word": "pimple", "stimulus": "<p id=\"stim\">PIMPLE</p>", "conditions": [12, 800, "v", 24000], "internal_node_id": "0.0-137.0", "trial": 5, "time_elapsed": 900037, "serialpos": 6, "key_press": -1, "wordID": 1070, "type": "PRES_VIS", "trial_index": 191}, "uniqueid": "MTK2286:3EICBYG6453VC2HE7M2U9112FLOJC1", "dateTime": 1516918980887}, {"current_trial": 192, "trialdata": {"rt": -1, "trial_type": "single-stim", "word": "tart", "stimulus": "<p id=\"stim\">TART</p>", "conditions": [12, 800, "v", 24000], "internal_node_id": "0.0-138.0", "trial": 5, "time_elapsed": 901699, "serialpos": 7, "key_press": -1, "wordID": 1435, "type": "PRES_VIS", "trial_index": 192}, "uniqueid": "MTK2286:3EICBYG6453VC2HE7M2U9112FLOJC1", "dateTime": 1516918982549}, {"current_trial": 193, "trialdata": {"rt": -1, "trial_type": "single-stim", "word": "sticker", "stimulus": "<p id=\"stim\">STICKER</p>", "conditions": [12, 800, "v", 24000], "internal_node_id": "0.0-139.0", "trial": 5, "time_elapsed": 903409, "serialpos": 8, "key_press": -1, "wordID": 1381, "type": "PRES_VIS", "trial_index": 193}, "uniqueid": "MTK2286:3EICBYG6453VC2HE7M2U9112FLOJC1", "dateTime": 1516918984259}, {"current_trial": 194, "trialdata": {"rt": -1, "trial_type": "single-stim", "word": "heart", "stimulus": "<p id=\"stim\">HEART</p>", "conditions": [12, 800, "v", 24000], "internal_node_id": "0.0-140.0", "trial": 5, "time_elapsed": 905229, "serialpos": 9, "key_press": -1, "wordID": 696, "type": "PRES_VIS", "trial_index": 194}, "uniqueid": "MTK2286:3EICBYG6453VC2HE7M2U9112FLOJC1", "dateTime": 1516918986079}, {"current_trial": 195, "trialdata": {"rt": -1, "trial_type": "single-stim", "word": "princess", "stimulus": "<p id=\"stim\">PRINCESS</p>", "conditions": [12, 800, "v", 24000], "internal_node_id": "0.0-141.0", "trial": 5, "time_elapsed": 907116, "serialpos": 10, "key_press": -1, "wordID": 1124, "type": "PRES_VIS", "trial_index": 195}, "uniqueid": "MTK2286:3EICBYG6453VC2HE7M2U9112FLOJC1", "dateTime": 1516918987966}, {"current_trial": 196, "trialdata": {"rt": -1, "trial_type": "single-stim", "word": "badge", "stimulus": "<p id=\"stim\">BADGE</p>", "conditions": [12, 800, "v", 24000], "internal_node_id": "0.0-142.0", "trial": 5, "time_elapsed": 908823, "serialpos": 11, "key_press": -1, "wordID": 67, "type": "PRES_VIS", "trial_index": 196}, "uniqueid": "MTK2286:3EICBYG6453VC2HE7M2U9112FLOJC1", "dateTime": 1516918989674}, {"current_trial": 197, "trialdata": {"rt": -1, "trial_type": "single-stim", "stimulus": "", "internal_node_id": "0.0-143.0-0.0", "time_elapsed": 911210, "key_press": -1, "type": "PRE_RECALL_DELAY", "trial_index": 197}, "uniqueid": "MTK2286:3EICBYG6453VC2HE7M2U9112FLOJC1", "dateTime": 1516918992060}, {"current_trial": 198, "trialdata": {"rt": -1000, "trial_type": "single-audio", "stimulus": "/static/audio/400Hz.wav", "internal_node_id": "0.0-144.0", "time_elapsed": 911715, "key_press": -1, "type": "PRE_RECALL_ALERT", "trial_index": 198}, "uniqueid": "MTK2286:3EICBYG6453VC2HE7M2U9112FLOJC1", "dateTime": 1516918992565}, {"current_trial": 199, "trialdata": {"rt": [9064, 11712, 14184, 21754, 25560, 31025, 32177], "recwords": ["blackboard", "award", "grill", "coffee", "sticker", "frame", ""], "key_times": [1345, 1777, 2073, 2737, 3977, 4486, 4698, 5585, 6050, 6305, 6681, 7008, 7265, 7705, 7945, 8137, 9064, 10088, 10401, 10577, 10953, 11169, 11712, 12881, 13121, 13568, 13794, 13928, 14184, 15192, 15545, 15945, 16257, 16393, 20365, 21754, 22826, 23305, 23537, 23849, 24153, 24537, 24697, 25560, 26569, 27249, 27929, 28121, 29241, 30129, 30505, 31025, 32177], "trial_type": "free-recall", "conditions": [12, 800, "v", 24000], "internal_node_id": "0.0-145.0-0.0", "key_presses": [66, 65, 67, 75, 8, 8, 8, 76, 65, 67, 75, 66, 79, 65, 82, 68, 13, 65, 87, 65, 82, 68, 13, 71, 82, 73, 76, 76, 13, 67, 79, 70, 69, 69, 70, 13, 83, 84, 73, 67, 75, 69, 82, 13, 71, 8, 70, 82, 65, 77, 69, 13, 13], "trial": 5, "time_elapsed": 971719, "type": "FREE_RECALL", "trial_index": 199}, "uniqueid": "MTK2286:3EICBYG6453VC2HE7M2U9112FLOJC1", "dateTime": 1516919052573}, {"current_trial": 200, "trialdata": {"rt": 11011, "trial_type": "text", "internal_node_id": "0.0-146.0", "time_elapsed": 984735, "key_press": 32, "type": "INSTRUCTIONS", "trial_index": 200}, "uniqueid": "MTK2286:3EICBYG6453VC2HE7M2U9112FLOJC1", "dateTime": 1516919065585}, {"current_trial": 201, "trialdata": {"rt": [4500, 7204, 9708], "trial_type": "math-distractor", "key_times": [2484, 3517, 4500, 6364, 6756, 7204, 8668, 9236, 9708, 11092, 11645], "responses": ["15", "15", "14"], "num2": [9, 8, 6, 4], "num3": [6, 3, 2, 4], "conditions": [12, 800, "v", 12000], "internal_node_id": "0.0-147.0", "key_presses": [49, 53, 13, 49, 53, 13, 49, 52, 13, 49, 54], "trial": 6, "time_elapsed": 998739, "type": "DISTRACTOR", "trial_index": 201, "num1": [2, 3, 9, 6]}, "uniqueid": "MTK2286:3EICBYG6453VC2HE7M2U9112FLOJC1", "dateTime": 1516919079589}, {"current_trial": 202, "trialdata": {"rt": -1, "trial_type": "single-stim", "stimulus": "<p id=\"stim\">10</p>", "internal_node_id": "0.0-148.0-0.0", "time_elapsed": 1001740, "key_press": -1, "trial_index": 202}, "uniqueid": "MTK2286:3EICBYG6453VC2HE7M2U9112FLOJC1", "dateTime": 1516919082591}, {"current_trial": 203, "trialdata": {"rt": -1, "trial_type": "single-stim", "stimulus": "<p id=\"stim\">9</p>", "internal_node_id": "0.0-148.0-1.0", "time_elapsed": 1002742, "key_press": -1, "trial_index": 203}, "uniqueid": "MTK2286:3EICBYG6453VC2HE7M2U9112FLOJC1", "dateTime": 1516919083592}, {"current_trial": 204, "trialdata": {"rt": -1, "trial_type": "single-stim", "stimulus": "<p id=\"stim\">8</p>", "internal_node_id": "0.0-148.0-2.0", "time_elapsed": 1003744, "key_press": -1, "trial_index": 204}, "uniqueid": "MTK2286:3EICBYG6453VC2HE7M2U9112FLOJC1", "dateTime": 1516919084594}, {"current_trial": 205, "trialdata": {"rt": -1, "trial_type": "single-stim", "stimulus": "<p id=\"stim\">7</p>", "internal_node_id": "0.0-148.0-3.0", "time_elapsed": 1004745, "key_press": -1, "trial_index": 205}, "uniqueid": "MTK2286:3EICBYG6453VC2HE7M2U9112FLOJC1", "dateTime": 1516919085595}, {"current_trial": 206, "trialdata": {"rt": -1, "trial_type": "single-stim", "stimulus": "<p id=\"stim\">6</p>", "internal_node_id": "0.0-148.0-4.0", "time_elapsed": 1005746, "key_press": -1, "trial_index": 206}, "uniqueid": "MTK2286:3EICBYG6453VC2HE7M2U9112FLOJC1", "dateTime": 1516919086596}, {"current_trial": 207, "trialdata": {"rt": -1, "trial_type": "single-stim", "stimulus": "<p id=\"stim\">5</p>", "internal_node_id": "0.0-148.0-5.0", "time_elapsed": 1006748, "key_press": -1, "trial_index": 207}, "uniqueid": "MTK2286:3EICBYG6453VC2HE7M2U9112FLOJC1", "dateTime": 1516919087598}, {"current_trial": 208, "trialdata": {"rt": -1, "trial_type": "single-stim", "stimulus": "<p id=\"stim\">4</p>", "internal_node_id": "0.0-148.0-6.0", "time_elapsed": 1007749, "key_press": -1, "trial_index": 208}, "uniqueid": "MTK2286:3EICBYG6453VC2HE7M2U9112FLOJC1", "dateTime": 1516919088599}, {"current_trial": 209, "trialdata": {"rt": -1, "trial_type": "single-stim", "stimulus": "<p id=\"stim\">3</p>", "internal_node_id": "0.0-148.0-7.0", "time_elapsed": 1008751, "key_press": -1, "trial_index": 209}, "uniqueid": "MTK2286:3EICBYG6453VC2HE7M2U9112FLOJC1", "dateTime": 1516919089601}, {"current_trial": 210, "trialdata": {"rt": -1, "trial_type": "single-stim", "stimulus": "<p id=\"stim\">2</p>", "internal_node_id": "0.0-148.0-8.0", "time_elapsed": 1009752, "key_press": -1, "trial_index": 210}, "uniqueid": "MTK2286:3EICBYG6453VC2HE7M2U9112FLOJC1", "dateTime": 1516919090603}, {"current_trial": 211, "trialdata": {"rt": -1, "trial_type": "single-stim", "stimulus": "<p id=\"stim\">1</p>", "internal_node_id": "0.0-148.0-9.0", "time_elapsed": 1010754, "key_press": -1, "trial_index": 211}, "uniqueid": "MTK2286:3EICBYG6453VC2HE7M2U9112FLOJC1", "dateTime": 1516919091604}, {"current_trial": 212, "trialdata": {"rt": -1, "trial_type": "single-stim", "stimulus": "<p id=\"stim\">+</p>", "internal_node_id": "0.0-149.0-0.0", "time_elapsed": 1012255, "key_press": -1, "type": "FIXATION", "trial_index": 212}, "uniqueid": "MTK2286:3EICBYG6453VC2HE7M2U9112FLOJC1", "dateTime": 1516919093106}, {"current_trial": 213, "trialdata": {"rt": -1, "trial_type": "single-stim", "word": "subway", "stimulus": "<p id=\"stim\">SUBWAY</p>", "conditions": [12, 800, "v", 12000], "internal_node_id": "0.0-150.0", "trial": 6, "time_elapsed": 1013057, "serialpos": 0, "key_press": -1, "wordID": 1399, "type": "PRES_VIS", "trial_index": 213}, "uniqueid": "MTK2286:3EICBYG6453VC2HE7M2U9112FLOJC1", "dateTime": 1516919093907}, {"current_trial": 214, "trialdata": {"rt": -1, "trial_type": "single-stim", "word": "sandwich", "stimulus": "<p id=\"stim\">SANDWICH</p>", "conditions": [12, 800, "v", 12000], "internal_node_id": "0.0-151.0", "trial": 6, "time_elapsed": 1014859, "serialpos": 1, "key_press": -1, "wordID": 1231, "type": "PRES_VIS", "trial_index": 214}, "uniqueid": "MTK2286:3EICBYG6453VC2HE7M2U9112FLOJC1", "dateTime": 1516919095709}, {"current_trial": 215, "trialdata": {"rt": -1, "trial_type": "single-stim", "word": "carriage", "stimulus": "<p id=\"stim\">CARRIAGE</p>", "conditions": [12, 800, "v", 12000], "internal_node_id": "0.0-152.0", "trial": 6, "time_elapsed": 1016537, "serialpos": 2, "key_press": -1, "wordID": 247, "type": "PRES_VIS", "trial_index": 215}, "uniqueid": "MTK2286:3EICBYG6453VC2HE7M2U9112FLOJC1", "dateTime": 1516919097388}, {"current_trial": 216, "trialdata": {"rt": -1, "trial_type": "single-stim", "word": "nightgown", "stimulus": "<p id=\"stim\">NIGHTGOWN</p>", "conditions": [12, 800, "v", 12000], "internal_node_id": "0.0-153.0", "trial": 6, "time_elapsed": 1018177, "serialpos": 3, "key_press": -1, "wordID": 952, "type": "PRES_VIS", "trial_index": 216}, "uniqueid": "MTK2286:3EICBYG6453VC2HE7M2U9112FLOJC1", "dateTime": 1516919099027}, {"current_trial": 217, "trialdata": {"rt": -1, "trial_type": "single-stim", "word": "leg", "stimulus": "<p id=\"stim\">LEG</p>", "conditions": [12, 800, "v", 12000], "internal_node_id": "0.0-154.0", "trial": 6, "time_elapsed": 1020115, "serialpos": 4, "key_press": -1, "wordID": 808, "type": "PRES_VIS", "trial_index": 217}, "uniqueid": "MTK2286:3EICBYG6453VC2HE7M2U9112FLOJC1", "dateTime": 1516919100965}, {"current_trial": 218, "trialdata": {"rt": -1, "trial_type": "single-stim", "word": "hiker", "stimulus": "<p id=\"stim\">HIKER</p>", "conditions": [12, 800, "v", 12000], "internal_node_id": "0.0-155.0", "trial": 6, "time_elapsed": 1021757, "serialpos": 5, "key_press": -1, "wordID": 707, "type": "PRES_VIS", "trial_index": 218}, "uniqueid": "MTK2286:3EICBYG6453VC2HE7M2U9112FLOJC1", "dateTime": 1516919102607}, {"current_trial": 219, "trialdata": {"rt": -1, "trial_type": "single-stim", "word": "climber", "stimulus": "<p id=\"stim\">CLIMBER</p>", "conditions": [12, 800, "v", 12000], "internal_node_id": "0.0-156.0", "trial": 6, "time_elapsed": 1023419, "serialpos": 6, "key_press": -1, "wordID": 322, "type": "PRES_VIS", "trial_index": 219}, "uniqueid": "MTK2286:3EICBYG6453VC2HE7M2U9112FLOJC1", "dateTime": 1516919104269}, {"current_trial": 220, "trialdata": {"rt": -1, "trial_type": "single-stim", "word": "shoulder", "stimulus": "<p id=\"stim\">SHOULDER</p>", "conditions": [12, 800, "v", 12000], "internal_node_id": "0.0-157.0", "trial": 6, "time_elapsed": 1025062, "serialpos": 7, "key_press": -1, "wordID": 1293, "type": "PRES_VIS", "trial_index": 220}, "uniqueid": "MTK2286:3EICBYG6453VC2HE7M2U9112FLOJC1", "dateTime": 1516919105912}, {"current_trial": 221, "trialdata": {"rt": -1, "trial_type": "single-stim", "word": "football", "stimulus": "<p id=\"stim\">FOOTBALL</p>", "conditions": [12, 800, "v", 12000], "internal_node_id": "0.0-158.0", "trial": 6, "time_elapsed": 1026896, "serialpos": 8, "key_press": -1, "wordID": 590, "type": "PRES_VIS", "trial_index": 221}, "uniqueid": "MTK2286:3EICBYG6453VC2HE7M2U9112FLOJC1", "dateTime": 1516919107746}, {"current_trial": 222, "trialdata": {"rt": -1, "trial_type": "single-stim", "word": "cafe", "stimulus": "<p id=\"stim\">CAFE</p>", "conditions": [12, 800, "v", 12000], "internal_node_id": "0.0-159.0", "trial": 6, "time_elapsed": 1028783, "serialpos": 9, "key_press": -1, "wordID": 215, "type": "PRES_VIS", "trial_index": 222}, "uniqueid": "MTK2286:3EICBYG6453VC2HE7M2U9112FLOJC1", "dateTime": 1516919109633}, {"current_trial": 223, "trialdata": {"rt": -1, "trial_type": "single-stim", "word": "cyclone", "stimulus": "<p id=\"stim\">CYCLONE</p>", "conditions": [12, 800, "v", 12000], "internal_node_id": "0.0-160.0", "trial": 6, "time_elapsed": 1030488, "serialpos": 10, "key_press": -1, "wordID": 430, "type": "PRES_VIS", "trial_index": 223}, "uniqueid": "MTK2286:3EICBYG6453VC2HE7M2U9112FLOJC1", "dateTime": 1516919111338}, {"current_trial": 224, "trialdata": {"rt": -1, "trial_type": "single-stim", "word": "tractor", "stimulus": "<p id=\"stim\">TRACTOR</p>", "conditions": [12, 800, "v", 12000], "internal_node_id": "0.0-161.0", "trial": 6, "time_elapsed": 1032157, "serialpos": 11, "key_press": -1, "wordID": 1492, "type": "PRES_VIS", "trial_index": 224}, "uniqueid": "MTK2286:3EICBYG6453VC2HE7M2U9112FLOJC1", "dateTime": 1516919113007}, {"current_trial": 225, "trialdata": {"rt": -1, "trial_type": "single-stim", "stimulus": "", "internal_node_id": "0.0-162.0-0.0", "time_elapsed": 1034465, "key_press": -1, "type": "PRE_RECALL_DELAY", "trial_index": 225}, "uniqueid": "MTK2286:3EICBYG6453VC2HE7M2U9112FLOJC1", "dateTime": 1516919115315}, {"current_trial": 226, "trialdata": {"rt": -1000, "trial_type": "single-audio", "stimulus": "/static/audio/400Hz.wav", "internal_node_id": "0.0-163.0", "time_elapsed": 1034967, "key_press": -1, "type": "PRE_RECALL_ALERT", "trial_index": 226}, "uniqueid": "MTK2286:3EICBYG6453VC2HE7M2U9112FLOJC1", "dateTime": 1516919115817}, {"current_trial": 227, "trialdata": {"rt": [4781, 8709, 12957, 16421, 22975], "recwords": ["subway", "carriage", "nightgown", "sandwich", ""], "key_times": [1662, 1941, 2349, 2749, 2965, 3077, 3797, 4237, 4781, 5661, 5917, 6254, 6382, 6613, 6813, 7277, 7469, 8709, 9996, 10181, 10381, 10597, 10797, 11117, 11262, 11629, 11910, 12957, 13940, 14165, 14309, 14581, 14814, 15030, 15725, 16030, 16421, 22975], "trial_type": "free-recall", "conditions": [12, 800, "v", 12000], "internal_node_id": "0.0-164.0-0.0", "key_presses": [83, 85, 66, 87, 65, 84, 8, 89, 13, 67, 65, 82, 82, 73, 65, 71, 69, 13, 78, 73, 71, 72, 84, 71, 79, 87, 78, 13, 83, 65, 78, 68, 87, 73, 67, 72, 13, 32], "trial": 6, "time_elapsed": 1094970, "type": "FREE_RECALL", "trial_index": 227}, "uniqueid": "MTK2286:3EICBYG6453VC2HE7M2U9112FLOJC1", "dateTime": 1516919175825}, {"current_trial": 228, "trialdata": {"rt": 1672, "trial_type": "text", "internal_node_id": "0.0-165.0", "time_elapsed": 1098647, "key_press": 32, "type": "INSTRUCTIONS", "trial_index": 228}, "uniqueid": "MTK2286:3EICBYG6453VC2HE7M2U9112FLOJC1", "dateTime": 1516919179497}, {"current_trial": 229, "trialdata": {"rt": [3229, 6381, 8861, 11949, 15741, 18229, 20317, 23341], "trial_type": "math-distractor", "key_times": [1645, 2198, 3229, 5534, 5925, 6381, 7893, 8382, 8861, 10935, 11469, 11949, 14870, 15238, 15741, 17263, 17733, 18229, 19628, 19837, 20317, 22357, 22886, 23341], "responses": ["20", "14", "16", "26", "14", "10", "12", "16"], "num2": [4, 3, 6, 9, 4, 3, 1, 5, 5], "num3": [8, 5, 3, 8, 8, 4, 9, 2, 2], "conditions": [12, 800, "v", 24000], "internal_node_id": "0.0-166.0", "key_presses": [50, 48, 13, 49, 52, 13, 49, 54, 13, 50, 54, 13, 49, 52, 13, 49, 48, 13, 49, 50, 13, 49, 54, 13], "trial": 7, "time_elapsed": 1124651, "type": "DISTRACTOR", "trial_index": 229, "num1": [4, 5, 7, 9, 2, 2, 2, 9, 9]}, "uniqueid": "MTK2286:3EICBYG6453VC2HE7M2U9112FLOJC1", "dateTime": 1516919205501}, {"current_trial": 230, "trialdata": {"rt": -1, "trial_type": "single-stim", "stimulus": "<p id=\"stim\">10</p>", "internal_node_id": "0.0-167.0-0.0", "time_elapsed": 1127653, "key_press": -1, "trial_index": 230}, "uniqueid": "MTK2286:3EICBYG6453VC2HE7M2U9112FLOJC1", "dateTime": 1516919208503}, {"current_trial": 231, "trialdata": {"rt": -1, "trial_type": "single-stim", "stimulus": "<p id=\"stim\">9</p>", "internal_node_id": "0.0-167.0-1.0", "time_elapsed": 1128656, "key_press": -1, "trial_index": 231}, "uniqueid": "MTK2286:3EICBYG6453VC2HE7M2U9112FLOJC1", "dateTime": 1516919209506}, {"current_trial": 232, "trialdata": {"rt": -1, "trial_type": "single-stim", "stimulus": "<p id=\"stim\">8</p>", "internal_node_id": "0.0-167.0-2.0", "time_elapsed": 1129657, "key_press": -1, "trial_index": 232}, "uniqueid": "MTK2286:3EICBYG6453VC2HE7M2U9112FLOJC1", "dateTime": 1516919210507}, {"current_trial": 233, "trialdata": {"rt": -1, "trial_type": "single-stim", "stimulus": "<p id=\"stim\">7</p>", "internal_node_id": "0.0-167.0-3.0", "time_elapsed": 1130658, "key_press": -1, "trial_index": 233}, "uniqueid": "MTK2286:3EICBYG6453VC2HE7M2U9112FLOJC1", "dateTime": 1516919211509}, {"current_trial": 234, "trialdata": {"rt": -1, "trial_type": "single-stim", "stimulus": "<p id=\"stim\">6</p>", "internal_node_id": "0.0-167.0-4.0", "time_elapsed": 1131660, "key_press": -1, "trial_index": 234}, "uniqueid": "MTK2286:3EICBYG6453VC2HE7M2U9112FLOJC1", "dateTime": 1516919212510}, {"current_trial": 235, "trialdata": {"rt": -1, "trial_type": "single-stim", "stimulus": "<p id=\"stim\">5</p>", "internal_node_id": "0.0-167.0-5.0", "time_elapsed": 1132661, "key_press": -1, "trial_index": 235}, "uniqueid": "MTK2286:3EICBYG6453VC2HE7M2U9112FLOJC1", "dateTime": 1516919213512}, {"current_trial": 236, "trialdata": {"rt": -1, "trial_type": "single-stim", "stimulus": "<p id=\"stim\">4</p>", "internal_node_id": "0.0-167.0-6.0", "time_elapsed": 1133663, "key_press": -1, "trial_index": 236}, "uniqueid": "MTK2286:3EICBYG6453VC2HE7M2U9112FLOJC1", "dateTime": 1516919214513}, {"current_trial": 237, "trialdata": {"rt": -1, "trial_type": "single-stim", "stimulus": "<p id=\"stim\">3</p>", "internal_node_id": "0.0-167.0-7.0", "time_elapsed": 1134664, "key_press": -1, "trial_index": 237}, "uniqueid": "MTK2286:3EICBYG6453VC2HE7M2U9112FLOJC1", "dateTime": 1516919215514}, {"current_trial": 238, "trialdata": {"rt": -1, "trial_type": "single-stim", "stimulus": "<p id=\"stim\">2</p>", "internal_node_id": "0.0-167.0-8.0", "time_elapsed": 1135666, "key_press": -1, "trial_index": 238}, "uniqueid": "MTK2286:3EICBYG6453VC2HE7M2U9112FLOJC1", "dateTime": 1516919216516}, {"current_trial": 239, "trialdata": {"rt": -1, "trial_type": "single-stim", "stimulus": "<p id=\"stim\">1</p>", "internal_node_id": "0.0-167.0-9.0", "time_elapsed": 1136667, "key_press": -1, "trial_index": 239}, "uniqueid": "MTK2286:3EICBYG6453VC2HE7M2U9112FLOJC1", "dateTime": 1516919217517}, {"current_trial": 240, "trialdata": {"rt": -1, "trial_type": "single-stim", "stimulus": "<p id=\"stim\">+</p>", "internal_node_id": "0.0-168.0-0.0", "time_elapsed": 1138168, "key_press": -1, "type": "FIXATION", "trial_index": 240}, "uniqueid": "MTK2286:3EICBYG6453VC2HE7M2U9112FLOJC1", "dateTime": 1516919219018}, {"current_trial": 241, "trialdata": {"rt": -1, "trial_type": "single-stim", "word": "rust", "stimulus": "<p id=\"stim\">RUST</p>", "conditions": [12, 800, "v", 24000], "internal_node_id": "0.0-169.0", "trial": 7, "time_elapsed": 1138969, "serialpos": 0, "key_press": -1, "wordID": 1218, "type": "PRES_VIS", "trial_index": 241}, "uniqueid": "MTK2286:3EICBYG6453VC2HE7M2U9112FLOJC1", "dateTime": 1516919219820}, {"current_trial": 242, "trialdata": {"rt": -1, "trial_type": "single-stim", "word": "receipt", "stimulus": "<p id=\"stim\">RECEIPT</p>", "conditions": [12, 800, "v", 24000], "internal_node_id": "0.0-170.0", "trial": 7, "time_elapsed": 1140965, "serialpos": 1, "key_press": -1, "wordID": 1172, "type": "PRES_VIS", "trial_index": 242}, "uniqueid": "MTK2286:3EICBYG6453VC2HE7M2U9112FLOJC1", "dateTime": 1516919221815}, {"current_trial": 243, "trialdata": {"rt": -1, "trial_type": "single-stim", "word": "missile", "stimulus": "<p id=\"stim\">MISSILE</p>", "conditions": [12, 800, "v", 24000], "internal_node_id": "0.0-171.0", "trial": 7, "time_elapsed": 1142712, "serialpos": 2, "key_press": -1, "wordID": 899, "type": "PRES_VIS", "trial_index": 243}, "uniqueid": "MTK2286:3EICBYG6453VC2HE7M2U9112FLOJC1", "dateTime": 1516919223562}, {"current_trial": 244, "trialdata": {"rt": -1, "trial_type": "single-stim", "word": "garlic", "stimulus": "<p id=\"stim\">GARLIC</p>", "conditions": [12, 800, "v", 24000], "internal_node_id": "0.0-172.0", "trial": 7, "time_elapsed": 1144573, "serialpos": 3, "key_press": -1, "wordID": 623, "type": "PRES_VIS", "trial_index": 244}, "uniqueid": "MTK2286:3EICBYG6453VC2HE7M2U9112FLOJC1", "dateTime": 1516919225423}, {"current_trial": 245, "trialdata": {"rt": -1, "trial_type": "single-stim", "word": "orange", "stimulus": "<p id=\"stim\">ORANGE</p>", "conditions": [12, 800, "v", 24000], "internal_node_id": "0.0-173.0", "trial": 7, "time_elapsed": 1146447, "serialpos": 4, "key_press": -1, "wordID": 979, "type": "PRES_VIS", "trial_index": 245}, "uniqueid": "MTK2286:3EICBYG6453VC2HE7M2U9112FLOJC1", "dateTime": 1516919227297}, {"current_trial": 246, "trialdata": {"rt": -1, "trial_type": "single-stim", "word": "crater", "stimulus": "<p id=\"stim\">CRATER</p>", "conditions": [12, 800, "v", 24000], "internal_node_id": "0.0-174.0", "trial": 7, "time_elapsed": 1148178, "serialpos": 5, "key_press": -1, "wordID": 399, "type": "PRES_VIS", "trial_index": 246}, "uniqueid": "MTK2286:3EICBYG6453VC2HE7M2U9112FLOJC1", "dateTime": 1516919229028}, {"current_trial": 247, "trialdata": {"rt": -1, "trial_type": "single-stim", "word": "turkey", "stimulus": "<p id=\"stim\">TURKEY</p>", "conditions": [12, 800, "v", 24000], "internal_node_id": "0.0-175.0", "trial": 7, "time_elapsed": 1149965, "serialpos": 6, "key_press": -1, "wordID": 1519, "type": "PRES_VIS", "trial_index": 247}, "uniqueid": "MTK2286:3EICBYG6453VC2HE7M2U9112FLOJC1", "dateTime": 1516919230815}, {"current_trial": 248, "trialdata": {"rt": -1, "trial_type": "single-stim", "word": "bacon", "stimulus": "<p id=\"stim\">BACON</p>", "conditions": [12, 800, "v", 24000], "internal_node_id": "0.0-176.0", "trial": 7, "time_elapsed": 1151680, "serialpos": 7, "key_press": -1, "wordID": 66, "type": "PRES_VIS", "trial_index": 248}, "uniqueid": "MTK2286:3EICBYG6453VC2HE7M2U9112FLOJC1", "dateTime": 1516919232530}, {"current_trial": 249, "trialdata": {"rt": -1, "trial_type": "single-stim", "word": "church", "stimulus": "<p id=\"stim\">CHURCH</p>", "conditions": [12, 800, "v", 24000], "internal_node_id": "0.0-177.0", "trial": 7, "time_elapsed": 1153517, "serialpos": 8, "key_press": -1, "wordID": 306, "type": "PRES_VIS", "trial_index": 249}, "uniqueid": "MTK2286:3EICBYG6453VC2HE7M2U9112FLOJC1", "dateTime": 1516919234367}, {"current_trial": 250, "trialdata": {"rt": -1, "trial_type": "single-stim", "word": "lava", "stimulus": "<p id=\"stim\">LAVA</p>", "conditions": [12, 800, "v", 24000], "internal_node_id": "0.0-178.0", "trial": 7, "time_elapsed": 1155216, "serialpos": 9, "key_press": -1, "wordID": 803, "type": "PRES_VIS", "trial_index": 250}, "uniqueid": "MTK2286:3EICBYG6453VC2HE7M2U9112FLOJC1", "dateTime": 1516919236066}, {"current_trial": 251, "trialdata": {"rt": -1, "trial_type": "single-stim", "word": "swamp", "stimulus": "<p id=\"stim\">SWAMP</p>", "conditions": [12, 800, "v", 24000], "internal_node_id": "0.0-179.0", "trial": 7, "time_elapsed": 1157145, "serialpos": 10, "key_press": -1, "wordID": 1415, "type": "PRES_VIS", "trial_index": 251}, "uniqueid": "MTK2286:3EICBYG6453VC2HE7M2U9112FLOJC1", "dateTime": 1516919237995}, {"current_trial": 252, "trialdata": {"rt": -1, "trial_type": "single-stim", "word": "sparrow", "stimulus": "<p id=\"stim\">SPARROW</p>", "conditions": [12, 800, "v", 24000], "internal_node_id": "0.0-180.0", "trial": 7, "time_elapsed": 1158955, "serialpos": 11, "key_press": -1, "wordID": 1346, "type": "PRES_VIS", "trial_index": 252}, "uniqueid": "MTK2286:3EICBYG6453VC2HE7M2U9112FLOJC1", "dateTime": 1516919239805}, {"current_trial": 253, "trialdata": {"rt": -1, "trial_type": "single-stim", "stimulus": "", "internal_node_id": "0.0-181.0-0.0", "time_elapsed": 1161227, "key_press": -1, "type": "PRE_RECALL_DELAY", "trial_index": 253}, "uniqueid": "MTK2286:3EICBYG6453VC2HE7M2U9112FLOJC1", "dateTime": 1516919242077}, {"current_trial": 254, "trialdata": {"rt": -1000, "trial_type": "single-audio", "stimulus": "/static/audio/400Hz.wav", "internal_node_id": "0.0-182.0", "time_elapsed": 1161734, "key_press": -1, "type": "PRE_RECALL_ALERT", "trial_index": 254}, "uniqueid": "MTK2286:3EICBYG6453VC2HE7M2U9112FLOJC1", "dateTime": 1516919242585}, {"current_trial": 255, "trialdata": {"rt": [3880, 6670, 9022, 13262, 16471, 21038], "recwords": ["rust", "missile", "crater", "garlic", "swamp", ""], "key_times": [1527, 2437, 2768, 3086, 3880, 5006, 5256, 5542, 5687, 5862, 6056, 6247, 6670, 7647, 7942, 8207, 8365, 8606, 8782, 9022, 9976, 10222, 10840, 11086, 11399, 11535, 11750, 12015, 13262, 14262, 14511, 14710, 14982, 15351, 16471, 21038], "trial_type": "free-recall", "conditions": [12, 800, "v", 24000], "internal_node_id": "0.0-183.0-0.0", "key_presses": [82, 85, 83, 84, 13, 77, 73, 83, 83, 73, 76, 69, 13, 67, 82, 65, 84, 69, 82, 13, 71, 82, 8, 65, 82, 76, 73, 67, 13, 83, 87, 65, 77, 80, 13, 32], "trial": 7, "time_elapsed": 1221738, "type": "FREE_RECALL", "trial_index": 255}, "uniqueid": "MTK2286:3EICBYG6453VC2HE7M2U9112FLOJC1", "dateTime": 1516919302593}, {"current_trial": 256, "trialdata": {"rt": 1487, "trial_type": "text", "internal_node_id": "0.0-184.0", "time_elapsed": 1225231, "key_press": 32, "type": "INSTRUCTIONS", "trial_index": 256}, "uniqueid": "MTK2286:3EICBYG6453VC2HE7M2U9112FLOJC1", "dateTime": 1516919306081}, {"current_trial": 257, "trialdata": {"rt": [3389, 7565, 11045, 13933, 17797, 20342, 23565], "trial_type": "math-distractor", "key_times": [1582, 2485, 3389, 5918, 6157, 7565, 10110, 10542, 11045, 12862, 13366, 13933, 17030, 17246, 17797, 19821, 20342, 22646, 22839, 23565], "responses": ["13", "12", "14", "17", "21", "9", "23"], "num2": [4, 6, 1, 5, 8, 4, 7, 1], "num3": [3, 4, 4, 4, 9, 2, 7, 1], "conditions": [12, 1600, "v", 24000], "internal_node_id": "0.0-185.0", "key_presses": [49, 51, 13, 49, 50, 13, 49, 52, 13, 49, 55, 13, 50, 49, 13, 57, 13, 50, 51, 13], "trial": 8, "time_elapsed": 1251234, "type": "DISTRACTOR", "trial_index": 257, "num1": [6, 4, 9, 8, 3, 3, 7, 3]}, "uniqueid": "MTK2286:3EICBYG6453VC2HE7M2U9112FLOJC1", "dateTime": 1516919332084}, {"current_trial": 258, "trialdata": {"rt": -1, "trial