{"assignmentId": "336YQZE83WL0EPEKV9SEBNN9TZZM56", "workerId": "MTK2762", "questiondata": {"avail_screen_height": 1040, "color_depth": 24, "screen_width": 1920, "pixel_depth": 24, "avail_screen_width": 1920, "screen_height": 1080}, "bonus": 0, "hitId": "3X55NP42EON1YTQZJ4RBOAN0ZYYP3E", "counterbalance": 880, "useragent": "Mozilla/5.0 (Windows NT 6.1; Win64; x64) AppleWebKit/537.36 (KHTML, like Gecko) Chrome/63.0.3239.132 Safari/537.36", "eventdata": [{"eventtype": "initialized", "interval": 0, "value": null, "timestamp": 1519323060402}, {"eventtype": "window_resize", "interval": 1, "value": [1920, 1034], "timestamp": 1519323060403}, {"eventtype": "focus", "interval": 32619, "value": "off", "timestamp": 1519323093022}, {"eventtype": "focus", "interval": 5145, "value": "on", "timestamp": 1519323098167}], "data": [{"current_trial": 0, "trialdata": {"rt": 2919, "trial_type": "text", "internal_node_id": "0.0-0.0", "time_elapsed": 2922, "key_press": 13, "type": "INSTRUCTIONS", "trial_index": 0}, "uniqueid": "MTK2762:336YQZE83WL0EPEKV9SEBNN9TZZM56", "dateTime": 1519323064135}, {"current_trial": 1, "trialdata": {"rt": 24250, "trial_type": "text", "internal_node_id": "0.0-1.0", "time_elapsed": 27177, "key_press": 32, "type": "INSTRUCTIONS", "trial_index": 1}, "uniqueid": "MTK2762:336YQZE83WL0EPEKV9SEBNN9TZZM56", "dateTime": 1519323088389}, {"current_trial": 2, "trialdata": {"rt": [13928], "trial_type": "audio-test", "responses": ["ocean"], "internal_node_id": "0.0-2.0", "time_elapsed": 41333, "type": "AUDIO_TEST", "trial_index": 2}, "uniqueid": "MTK2762:336YQZE83WL0EPEKV9SEBNN9TZZM56", "dateTime": 1519323102544}, {"current_trial": 3, "trialdata": {"rt": [8945], "trial_type": "audio-test", "responses": ["crystal"], "internal_node_id": "0.0-3.0", "time_elapsed": 50287, "type": "AUDIO_TEST", "trial_index": 3}, "uniqueid": "MTK2762:336YQZE83WL0EPEKV9SEBNN9TZZM56", "dateTime": 1519323111498}, {"current_trial": 4, "trialdata": {"rt": [7385], "trial_type": "audio-test", "responses": ["spice"], "internal_node_id": "0.0-4.0", "time_elapsed": 57681, "type": "AUDIO_TEST", "trial_index": 4}, "uniqueid": "MTK2762:336YQZE83WL0EPEKV9SEBNN9TZZM56", "dateTime": 1519323118892}, {"current_trial": 5, "trialdata": {"rt": 19149, "trial_type": "survey-text", "responses": "{\"Q0\":\"11\",\"Q1\":\"6\",\"Q2\":\"5\"}", "internal_node_id": "0.0-5.0", "time_elapsed": 77585, "type": "SLEEP_SURVEY", "trial_index": 5}, "uniqueid": "MTK2762:336YQZE83WL0EPEKV9SEBNN9TZZM56", "dateTime": 1519323138796}, {"current_trial": 6, "trialdata": {"rt": 37711, "trial_type": "text", "internal_node_id": "0.0-6.0", "time_elapsed": 116298, "key_press": 13, "type": "INSTRUCTIONS", "trial_index": 6}, "uniqueid": "MTK2762:336YQZE83WL0EPEKV9SEBNN9TZZM56", "dateTime": 1519323177510}, {"current_trial": 7, "trialdata": {"rt": 18896, "trial_type": "text", "internal_node_id": "0.0-7.0", "time_elapsed": 135697, "key_press": 13, "type": "INSTRUCTIONS", "trial_index": 7}, "uniqueid": "MTK2762:336YQZE83WL0EPEKV9SEBNN9TZZM56", "dateTime": 1519323196908}, {"current_trial": 8, "trialdata": {"rt": 11585, "trial_type": "text", "internal_node_id": "0.0-8.0", "time_elapsed": 147784, "key_press": 13, "type": "INSTRUCTIONS", "trial_index": 8}, "uniqueid": "MTK2762:336YQZE83WL0EPEKV9SEBNN9TZZM56", "dateTime": 1519323208995}, {"current_trial": 9, "trialdata": {"rt": [5752, 8584, 11312, 13600, 15864, 17984], "trial_type": "math-distractor", "key_times": [4417, 4664, 5752, 7632, 7840, 8584, 10449, 10616, 11312, 13032, 13600, 14968, 15152, 15864, 17224, 17400, 17984], "responses": ["14", "20", "12", "9", "10", "15"], "num2": [7, 8, 4, 1, 5, 8, 2], "num3": [5, 4, 7, 2, 4, 1, 9], "conditions": [18, 1200, "v", 18000], "internal_node_id": "0.0-9.0", "key_presses": [97, 100, 13, 98, 96, 13, 97, 98, 13, 105, 13, 97, 96, 13, 97, 101, 13], "trial": 0, "time_elapsed": 166792, "type": "DISTRACTOR", "trial_index": 9, "num1": [2, 8, 1, 6, 1, 6, 9]}, "uniqueid": "MTK2762:336YQZE83WL0EPEKV9SEBNN9TZZM56", "dateTime": 1519323228004}, {"current_trial": 10, "trialdata": {"rt": -1, "trial_type": "single-stim", "stimulus": "<p id=\"stim\">10</p>", "internal_node_id": "0.0-10.0-0.0", "time_elapsed": 169797, "key_press": -1, "trial_index": 10}, "uniqueid": "MTK2762:336YQZE83WL0EPEKV9SEBNN9TZZM56", "dateTime": 1519323231009}, {"current_trial": 11, "trialdata": {"rt": -1, "trial_type": "single-stim", "stimulus": "<p id=\"stim\">9</p>", "internal_node_id": "0.0-10.0-1.0", "time_elapsed": 170800, "key_press": -1, "trial_index": 11}, "uniqueid": "MTK2762:336YQZE83WL0EPEKV9SEBNN9TZZM56", "dateTime": 1519323232011}, {"current_trial": 12, "trialdata": {"rt": -1, "trial_type": "single-stim", "stimulus": "<p id=\"stim\">8</p>", "internal_node_id": "0.0-10.0-2.0", "time_elapsed": 171802, "key_press": -1, "trial_index": 12}, "uniqueid": "MTK2762:336YQZE83WL0EPEKV9SEBNN9TZZM56", "dateTime": 1519323233013}, {"current_trial": 13, "trialdata": {"rt": -1, "trial_type": "single-stim", "stimulus": "<p id=\"stim\">7</p>", "internal_node_id": "0.0-10.0-3.0", "time_elapsed": 172804, "key_press": -1, "trial_index": 13}, "uniqueid": "MTK2762:336YQZE83WL0EPEKV9SEBNN9TZZM56", "dateTime": 1519323234015}, {"current_trial": 14, "trialdata": {"rt": -1, "trial_type": "single-stim", "stimulus": "<p id=\"stim\">6</p>", "internal_node_id": "0.0-10.0-4.0", "time_elapsed": 173806, "key_press": -1, "trial_index": 14}, "uniqueid": "MTK2762:336YQZE83WL0EPEKV9SEBNN9TZZM56", "dateTime": 1519323235017}, {"current_trial": 15, "trialdata": {"rt": -1, "trial_type": "single-stim", "stimulus": "<p id=\"stim\">5</p>", "internal_node_id": "0.0-10.0-5.0", "time_elapsed": 174809, "key_press": -1, "trial_index": 15}, "uniqueid": "MTK2762:336YQZE83WL0EPEKV9SEBNN9TZZM56", "dateTime": 1519323236021}, {"current_trial": 16, "trialdata": {"rt": -1, "trial_type": "single-stim", "stimulus": "<p id=\"stim\">4</p>", "internal_node_id": "0.0-10.0-6.0", "time_elapsed": 175811, "key_press": -1, "trial_index": 16}, "uniqueid": "MTK2762:336YQZE83WL0EPEKV9SEBNN9TZZM56", "dateTime": 1519323237022}, {"current_trial": 17, "trialdata": {"rt": -1, "trial_type": "single-stim", "stimulus": "<p id=\"stim\">3</p>", "internal_node_id": "0.0-10.0-7.0", "time_elapsed": 176813, "key_press": -1, "trial_index": 17}, "uniqueid": "MTK2762:336YQZE83WL0EPEKV9SEBNN9TZZM56", "dateTime": 1519323238024}, {"current_trial": 18, "trialdata": {"rt": -1, "trial_type": "single-stim", "stimulus": "<p id=\"stim\">2</p>", "internal_node_id": "0.0-10.0-8.0", "time_elapsed": 177815, "key_press": -1, "trial_index": 18}, "uniqueid": "MTK2762:336YQZE83WL0EPEKV9SEBNN9TZZM56", "dateTime": 1519323239026}, {"current_trial": 19, "trialdata": {"rt": -1, "trial_type": "single-stim", "stimulus": "<p id=\"stim\">1</p>", "internal_node_id": "0.0-10.0-9.0", "time_elapsed": 178817, "key_press": -1, "trial_index": 19}, "uniqueid": "MTK2762:336YQZE83WL0EPEKV9SEBNN9TZZM56", "dateTime": 1519323240028}, {"current_trial": 20, "trialdata": {"rt": -1, "trial_type": "single-stim", "stimulus": "<p id=\"stim\">+</p>", "internal_node_id": "0.0-11.0-0.0", "time_elapsed": 180319, "key_press": -1, "type": "FIXATION", "trial_index": 20}, "uniqueid": "MTK2762:336YQZE83WL0EPEKV9SEBNN9TZZM56", "dateTime": 1519323241531}, {"current_trial": 21, "trialdata": {"rt": -1, "trial_type": "single-stim", "word": "sunrise", "stimulus": "<p id=\"stim\">SUNRISE</p>", "conditions": [18, 1200, "v", 18000], "internal_node_id": "0.0-12.0", "trial": 0, "time_elapsed": 181521, "serialpos": 0, "key_press": -1, "wordID": 1406, "type": "PRES_VIS", "trial_index": 21}, "uniqueid": "MTK2762:336YQZE83WL0EPEKV9SEBNN9TZZM56", "dateTime": 1519323242733}, {"current_trial": 22, "trialdata": {"rt": -1, "trial_type": "single-stim", "word": "sidewalk", "stimulus": "<p id=\"stim\">SIDEWALK</p>", "conditions": [18, 1200, "v", 18000], "internal_node_id": "0.0-13.0", "trial": 0, "time_elapsed": 183610, "serialpos": 1, "key_press": -1, "wordID": 1302, "type": "PRES_VIS", "trial_index": 22}, "uniqueid": "MTK2762:336YQZE83WL0EPEKV9SEBNN9TZZM56", "dateTime": 1519323244821}, {"current_trial": 23, "trialdata": {"rt": -1, "trial_type": "single-stim", "word": "pimple", "stimulus": "<p id=\"stim\">PIMPLE</p>", "conditions": [18, 1200, "v", 18000], "internal_node_id": "0.0-14.0", "trial": 0, "time_elapsed": 186008, "serialpos": 2, "key_press": -1, "wordID": 1070, "type": "PRES_VIS", "trial_index": 23}, "uniqueid": "MTK2762:336YQZE83WL0EPEKV9SEBNN9TZZM56", "dateTime": 1519323247219}, {"current_trial": 24, "trialdata": {"rt": -1, "trial_type": "single-stim", "word": "thief", "stimulus": "<p id=\"stim\">THIEF</p>", "conditions": [18, 1200, "v", 18000], "internal_node_id": "0.0-15.0", "trial": 0, "time_elapsed": 188019, "serialpos": 3, "key_press": -1, "wordID": 1455, "type": "PRES_VIS", "trial_index": 24}, "uniqueid": "MTK2762:336YQZE83WL0EPEKV9SEBNN9TZZM56", "dateTime": 1519323249230}, {"current_trial": 25, "trialdata": {"rt": -1, "trial_type": "single-stim", "word": "ketchup", "stimulus": "<p id=\"stim\">KETCHUP</p>", "conditions": [18, 1200, "v", 18000], "internal_node_id": "0.0-16.0", "trial": 0, "time_elapsed": 190315, "serialpos": 4, "key_press": -1, "wordID": 770, "type": "PRES_VIS", "trial_index": 25}, "uniqueid": "MTK2762:336YQZE83WL0EPEKV9SEBNN9TZZM56", "dateTime": 1519323251526}, {"current_trial": 26, "trialdata": {"rt": -1, "trial_type": "single-stim", "word": "cobra", "stimulus": "<p id=\"stim\">COBRA</p>", "conditions": [18, 1200, "v", 18000], "internal_node_id": "0.0-17.0", "trial": 0, "time_elapsed": 192548, "serialpos": 5, "key_press": -1, "wordID": 335, "type": "PRES_VIS", "trial_index": 26}, "uniqueid": "MTK2762:336YQZE83WL0EPEKV9SEBNN9TZZM56", "dateTime": 1519323253759}, {"current_trial": 27, "trialdata": {"rt": -1, "trial_type": "single-stim", "word": "temple", "stimulus": "<p id=\"stim\">TEMPLE</p>", "conditions": [18, 1200, "v", 18000], "internal_node_id": "0.0-18.0", "trial": 0, "time_elapsed": 194627, "serialpos": 6, "key_press": -1, "wordID": 1447, "type": "PRES_VIS", "trial_index": 27}, "uniqueid": "MTK2762:336YQZE83WL0EPEKV9SEBNN9TZZM56", "dateTime": 1519323255838}, {"current_trial": 28, "trialdata": {"rt": -1, "trial_type": "single-stim", "word": "twister", "stimulus": "<p id=\"stim\">TWISTER</p>", "conditions": [18, 1200, "v", 18000], "internal_node_id": "0.0-19.0", "trial": 0, "time_elapsed": 196633, "serialpos": 7, "key_press": -1, "wordID": 1529, "type": "PRES_VIS", "trial_index": 28}, "uniqueid": "MTK2762:336YQZE83WL0EPEKV9SEBNN9TZZM56", "dateTime": 1519323257844}, {"current_trial": 29, "trialdata": {"rt": -1, "trial_type": "single-stim", "word": "cowboy", "stimulus": "<p id=\"stim\">COWBOY</p>", "conditions": [18, 1200, "v", 18000], "internal_node_id": "0.0-20.0", "trial": 0, "time_elapsed": 198766, "serialpos": 8, "key_press": -1, "wordID": 394, "type": "PRES_VIS", "trial_index": 29}, "uniqueid": "MTK2762:336YQZE83WL0EPEKV9SEBNN9TZZM56", "dateTime": 1519323259977}, {"current_trial": 30, "trialdata": {"rt": -1, "trial_type": "single-stim", "word": "napkin", "stimulus": "<p id=\"stim\">NAPKIN</p>", "conditions": [18, 1200, "v", 18000], "internal_node_id": "0.0-21.0", "trial": 0, "time_elapsed": 200787, "serialpos": 9, "key_press": -1, "wordID": 936, "type": "PRES_VIS", "trial_index": 30}, "uniqueid": "MTK2762:336YQZE83WL0EPEKV9SEBNN9TZZM56", "dateTime": 1519323261998}, {"current_trial": 31, "trialdata": {"rt": -1, "trial_type": "single-stim", "word": "drug", "stimulus": "<p id=\"stim\">DRUG</p>", "conditions": [18, 1200, "v", 18000], "internal_node_id": "0.0-22.0", "trial": 0, "time_elapsed": 203023, "serialpos": 10, "key_press": -1, "wordID": 500, "type": "PRES_VIS", "trial_index": 31}, "uniqueid": "MTK2762:336YQZE83WL0EPEKV9SEBNN9TZZM56", "dateTime": 1519323264235}, {"current_trial": 32, "trialdata": {"rt": -1, "trial_type": "single-stim", "word": "mister", "stimulus": "<p id=\"stim\">MISTER</p>", "conditions": [18, 1200, "v", 18000], "internal_node_id": "0.0-23.0", "trial": 0, "time_elapsed": 205220, "serialpos": 11, "key_press": -1, "wordID": 900, "type": "PRES_VIS", "trial_index": 32}, "uniqueid": "MTK2762:336YQZE83WL0EPEKV9SEBNN9TZZM56", "dateTime": 1519323266432}, {"current_trial": 33, "trialdata": {"rt": -1, "trial_type": "single-stim", "word": "statue", "stimulus": "<p id=\"stim\">STATUE</p>", "conditions": [18, 1200, "v", 18000], "internal_node_id": "0.0-24.0", "trial": 0, "time_elapsed": 207613, "serialpos": 12, "key_press": -1, "wordID": 1373, "type": "PRES_VIS", "trial_index": 33}, "uniqueid": "MTK2762:336YQZE83WL0EPEKV9SEBNN9TZZM56", "dateTime": 1519323268824}, {"current_trial": 34, "trialdata": {"rt": -1, "trial_type": "single-stim", "word": "tablet", "stimulus": "<p id=\"stim\">TABLET</p>", "conditions": [18, 1200, "v", 18000], "internal_node_id": "0.0-25.0", "trial": 0, "time_elapsed": 209767, "serialpos": 13, "key_press": -1, "wordID": 1426, "type": "PRES_VIS", "trial_index": 34}, "uniqueid": "MTK2762:336YQZE83WL0EPEKV9SEBNN9TZZM56", "dateTime": 1519323270978}, {"current_trial": 35, "trialdata": {"rt": -1, "trial_type": "single-stim", "word": "swimmer", "stimulus": "<p id=\"stim\">SWIMMER</p>", "conditions": [18, 1200, "v", 18000], "internal_node_id": "0.0-26.0", "trial": 0, "time_elapsed": 211827, "serialpos": 14, "key_press": -1, "wordID": 1419, "type": "PRES_VIS", "trial_index": 35}, "uniqueid": "MTK2762:336YQZE83WL0EPEKV9SEBNN9TZZM56", "dateTime": 1519323273038}, {"current_trial": 36, "trialdata": {"rt": -1, "trial_type": "single-stim", "word": "money", "stimulus": "<p id=\"stim\">MONEY</p>", "conditions": [18, 1200, "v", 18000], "internal_node_id": "0.0-27.0", "trial": 0, "time_elapsed": 214214, "serialpos": 15, "key_press": -1, "wordID": 907, "type": "PRES_VIS", "trial_index": 36}, "uniqueid": "MTK2762:336YQZE83WL0EPEKV9SEBNN9TZZM56", "dateTime": 1519323275425}, {"current_trial": 37, "trialdata": {"rt": -1, "trial_type": "single-stim", "word": "eagle", "stimulus": "<p id=\"stim\">EAGLE</p>", "conditions": [18, 1200, "v", 18000], "internal_node_id": "0.0-28.0", "trial": 0, "time_elapsed": 216543, "serialpos": 16, "key_press": -1, "wordID": 511, "type": "PRES_VIS", "trial_index": 37}, "uniqueid": "MTK2762:336YQZE83WL0EPEKV9SEBNN9TZZM56", "dateTime": 1519323277754}, {"current_trial": 38, "trialdata": {"rt": -1, "trial_type": "single-stim", "word": "necklace", "stimulus": "<p id=\"stim\">NECKLACE</p>", "conditions": [18, 1200, "v", 18000], "internal_node_id": "0.0-29.0", "trial": 0, "time_elapsed": 218718, "serialpos": 17, "key_press": -1, "wordID": 939, "type": "PRES_VIS", "trial_index": 38}, "uniqueid": "MTK2762:336YQZE83WL0EPEKV9SEBNN9TZZM56", "dateTime": 1519323279929}, {"current_trial": 39, "trialdata": {"rt": -1, "trial_type": "single-stim", "stimulus": "", "internal_node_id": "0.0-30.0-0.0", "time_elapsed": 221128, "key_press": -1, "type": "PRE_RECALL_DELAY", "trial_index": 39}, "uniqueid": "MTK2762:336YQZE83WL0EPEKV9SEBNN9TZZM56", "dateTime": 1519323282339}, {"current_trial": 40, "trialdata": {"rt": -1000, "trial_type": "single-audio", "stimulus": "/static/audio/400Hz.wav", "internal_node_id": "0.0-31.0", "time_elapsed": 221681, "key_press": -1, "type": "PRE_RECALL_ALERT", "trial_index": 40}, "uniqueid": "MTK2762:336YQZE83WL0EPEKV9SEBNN9TZZM56", "dateTime": 1519323282893}, {"current_trial": 41, "trialdata": {"rt": [5004, 7352, 9364, 11364, 15004, 17700, 20188], "recwords": ["necklace", "swimmer", "eagle", "drug", "sidewalk", "cowboy", "twister"], "key_times": [1443, 1705, 2010, 2252, 2468, 2596, 2884, 3100, 3668, 3932, 4324, 4564, 5004, 5484, 5764, 5916, 6236, 6436, 6701, 6893, 7352, 7732, 7940, 8124, 8324, 8612, 9364, 9948, 10228, 10412, 10708, 11364, 12477, 12692, 12876, 13132, 13460, 13676, 14212, 14612, 15004, 15420, 15628, 15924, 16236, 16452, 16788, 17700, 18148, 18388, 18556, 18748, 19012, 19228, 19324, 20188], "trial_type": "free-recall", "conditions": [18, 1200, "v", 18000], "internal_node_id": "0.0-32.0-0.0", "key_presses": [78, 69, 67, 75, 76, 65, 83, 83, 8, 8, 67, 69, 13, 83, 87, 73, 77, 77, 69, 82, 13, 69, 65, 71, 76, 69, 13, 68, 82, 85, 71, 13, 83, 73, 68, 69, 87, 65, 76, 75, 13, 67, 79, 87, 66, 79, 89, 13, 84, 87, 73, 83, 84, 69, 82, 13], "trial": 0, "time_elapsed": 281682, "type": "FREE_RECALL", "trial_index": 41}, "uniqueid": "MTK2762:336YQZE83WL0EPEKV9SEBNN9TZZM56", "dateTime": 1519323342898}, {"current_trial": 42, "trialdata": {"rt": 1665, "trial_type": "text", "internal_node_id": "0.0-33.0", "time_elapsed": 285353, "key_press": 32, "type": "INSTRUCTIONS", "trial_index": 42}, "uniqueid": "MTK2762:336YQZE83WL0EPEKV9SEBNN9TZZM56", "dateTime": 1519323346565}, {"current_trial": 43, "trialdata": {"rt": [3364, 5556, 7356, 9244, 10876, 13500, 15004, 17212], "trial_type": "math-distractor", "key_times": [2172, 2364, 3364, 4996, 5220, 5556, 6876, 7084, 7356, 8621, 8884, 9244, 10260, 10556, 10876, 12588, 12884, 13500, 14507, 14756, 15004, 16803, 17044, 17212], "responses": ["10", "12", "12", "19", "17", "19", "15", "15"], "num2": [3, 1, 7, 4, 8, 8, 7, 3, 8], "num3": [3, 8, 4, 9, 8, 5, 1, 9, 3], "conditions": [18, 1200, "v", 18000], "internal_node_id": "0.0-34.0", "key_presses": [97, 96, 13, 97, 98, 13, 97, 98, 13, 97, 105, 13, 97, 103, 13, 97, 105, 13, 97, 101, 13, 97, 101, 13], "trial": 1, "time_elapsed": 305358, "type": "DISTRACTOR", "trial_index": 43, "num1": [4, 3, 1, 6, 1, 7, 7, 6, 5]}, "uniqueid": "MTK2762:336YQZE83WL0EPEKV9SEBNN9TZZM56", "dateTime": 1519323366569}, {"current_trial": 44, "trialdata": {"rt": -1, "trial_type": "single-stim", "stimulus": "<p id=\"stim\">10</p>", "internal_node_id": "0.0-35.0-0.0", "time_elapsed": 308360, "key_press": -1, "trial_index": 44}, "uniqueid": "MTK2762:336YQZE83WL0EPEKV9SEBNN9TZZM56", "dateTime": 1519323369571}, {"current_trial": 45, "trialdata": {"rt": -1, "trial_type": "single-stim", "stimulus": "<p id=\"stim\">9</p>", "internal_node_id": "0.0-35.0-1.0", "time_elapsed": 309362, "key_press": -1, "trial_index": 45}, "uniqueid": "MTK2762:336YQZE83WL0EPEKV9SEBNN9TZZM56", "dateTime": 1519323370573}, {"current_trial": 46, "trialdata": {"rt": -1, "trial_type": "single-stim", "stimulus": "<p id=\"stim\">8</p>", "internal_node_id": "0.0-35.0-2.0", "time_elapsed": 310364, "key_press": -1, "trial_index": 46}, "uniqueid": "MTK2762:336YQZE83WL0EPEKV9SEBNN9TZZM56", "dateTime": 1519323371576}, {"current_trial": 47, "trialdata": {"rt": -1, "trial_type": "single-stim", "stimulus": "<p id=\"stim\">7</p>", "internal_node_id": "0.0-35.0-3.0", "time_elapsed": 311366, "key_press": -1, "trial_index": 47}, "uniqueid": "MTK2762:336YQZE83WL0EPEKV9SEBNN9TZZM56", "dateTime": 1519323372577}, {"current_trial": 48, "trialdata": {"rt": -1, "trial_type": "single-stim", "stimulus": "<p id=\"stim\">6</p>", "internal_node_id": "0.0-35.0-4.0", "time_elapsed": 312368, "key_press": -1, "trial_index": 48}, "uniqueid": "MTK2762:336YQZE83WL0EPEKV9SEBNN9TZZM56", "dateTime": 1519323373580}, {"current_trial": 49, "trialdata": {"rt": -1, "trial_type": "single-stim", "stimulus": "<p id=\"stim\">5</p>", "internal_node_id": "0.0-35.0-5.0", "time_elapsed": 313370, "key_press": -1, "trial_index": 49}, "uniqueid": "MTK2762:336YQZE83WL0EPEKV9SEBNN9TZZM56", "dateTime": 1519323374582}, {"current_trial": 50, "trialdata": {"rt": -1, "trial_type": "single-stim", "stimulus": "<p id=\"stim\">4</p>", "internal_node_id": "0.0-35.0-6.0", "time_elapsed": 314372, "key_press": -1, "trial_index": 50}, "uniqueid": "MTK2762:336YQZE83WL0EPEKV9SEBNN9TZZM56", "dateTime": 1519323375584}, {"current_trial": 51, "trialdata": {"rt": -1, "trial_type": "single-stim", "stimulus": "<p id=\"stim\">3</p>", "internal_node_id": "0.0-35.0-7.0", "time_elapsed": 315375, "key_press": -1, "trial_index": 51}, "uniqueid": "MTK2762:336YQZE83WL0EPEKV9SEBNN9TZZM56", "dateTime": 1519323376586}, {"current_trial": 52, "trialdata": {"rt": -1, "trial_type": "single-stim", "stimulus": "<p id=\"stim\">2</p>", "internal_node_id": "0.0-35.0-8.0", "time_elapsed": 316377, "key_press": -1, "trial_index": 52}, "uniqueid": "MTK2762:336YQZE83WL0EPEKV9SEBNN9TZZM56", "dateTime": 1519323377588}, {"current_trial": 53, "trialdata": {"rt": -1, "trial_type": "single-stim", "stimulus": "<p id=\"stim\">1</p>", "internal_node_id": "0.0-35.0-9.0", "time_elapsed": 317379, "key_press": -1, "trial_index": 53}, "uniqueid": "MTK2762:336YQZE83WL0EPEKV9SEBNN9TZZM56", "dateTime": 1519323378590}, {"current_trial": 54, "trialdata": {"rt": -1, "trial_type": "single-stim", "stimulus": "<p id=\"stim\">+</p>", "internal_node_id": "0.0-36.0-0.0", "time_elapsed": 318881, "key_press": -1, "type": "FIXATION", "trial_index": 54}, "uniqueid": "MTK2762:336YQZE83WL0EPEKV9SEBNN9TZZM56", "dateTime": 1519323380092}, {"current_trial": 55, "trialdata": {"rt": -1, "trial_type": "single-stim", "word": "scarecrow", "stimulus": "<p id=\"stim\">SCARECROW</p>", "conditions": [18, 1200, "v", 18000], "internal_node_id": "0.0-37.0", "trial": 1, "time_elapsed": 320083, "serialpos": 0, "key_press": -1, "wordID": 1244, "type": "PRES_VIS", "trial_index": 55}, "uniqueid": "MTK2762:336YQZE83WL0EPEKV9SEBNN9TZZM56", "dateTime": 1519323381294}, {"current_trial": 56, "trialdata": {"rt": -1, "trial_type": "single-stim", "word": "helmet", "stimulus": "<p id=\"stim\">HELMET</p>", "conditions": [18, 1200, "v", 18000], "internal_node_id": "0.0-38.0", "trial": 1, "time_elapsed": 322102, "serialpos": 1, "key_press": -1, "wordID": 701, "type": "PRES_VIS", "trial_index": 56}, "uniqueid": "MTK2762:336YQZE83WL0EPEKV9SEBNN9TZZM56", "dateTime": 1519323383313}, {"current_trial": 57, "trialdata": {"rt": -1, "trial_type": "single-stim", "word": "snake", "stimulus": "<p id=\"stim\">SNAKE</p>", "conditions": [18, 1200, "v", 18000], "internal_node_id": "0.0-39.0", "trial": 1, "time_elapsed": 324410, "serialpos": 2, "key_press": -1, "wordID": 1332, "type": "PRES_VIS", "trial_index": 57}, "uniqueid": "MTK2762:336YQZE83WL0EPEKV9SEBNN9TZZM56", "dateTime": 1519323385621}, {"current_trial": 58, "trialdata": {"rt": -1, "trial_type": "single-stim", "word": "proton", "stimulus": "<p id=\"stim\">PROTON</p>", "conditions": [18, 1200, "v", 18000], "internal_node_id": "0.0-40.0", "trial": 1, "time_elapsed": 326433, "serialpos": 3, "key_press": -1, "wordID": 1131, "type": "PRES_VIS", "trial_index": 58}, "uniqueid": "MTK2762:336YQZE83WL0EPEKV9SEBNN9TZZM56", "dateTime": 1519323387644}, {"current_trial": 59, "trialdata": {"rt": -1, "trial_type": "single-stim", "word": "curtain", "stimulus": "<p id=\"stim\">CURTAIN</p>", "conditions": [18, 1200, "v", 18000], "internal_node_id": "0.0-41.0", "trial": 1, "time_elapsed": 328592, "serialpos": 4, "key_press": -1, "wordID": 426, "type": "PRES_VIS", "trial_index": 59}, "uniqueid": "MTK2762:336YQZE83WL0EPEKV9SEBNN9TZZM56", "dateTime": 1519323389803}, {"current_trial": 60, "trialdata": {"rt": -1, "trial_type": "single-stim", "word": "student", "stimulus": "<p id=\"stim\">STUDENT</p>", "conditions": [18, 1200, "v", 18000], "internal_node_id": "0.0-42.0", "trial": 1, "time_elapsed": 330944, "serialpos": 5, "key_press": -1, "wordID": 1394, "type": "PRES_VIS", "trial_index": 60}, "uniqueid": "MTK2762:336YQZE83WL0EPEKV9SEBNN9TZZM56", "dateTime": 1519323392156}, {"current_trial": 61, "trialdata": {"rt": -1, "trial_type": "single-stim", "word": "palace", "stimulus": "<p id=\"stim\">PALACE</p>", "conditions": [18, 1200, "v", 18000], "internal_node_id": "0.0-43.0", "trial": 1, "time_elapsed": 333127, "serialpos": 6, "key_press": -1, "wordID": 1005, "type": "PRES_VIS", "trial_index": 61}, "uniqueid": "MTK2762:336YQZE83WL0EPEKV9SEBNN9TZZM56", "dateTime": 1519323394338}, {"current_trial": 62, "trialdata": {"rt": -1, "trial_type": "single-stim", "word": "outdoors", "stimulus": "<p id=\"stim\">OUTDOORS</p>", "conditions": [18, 1200, "v", 18000], "internal_node_id": "0.0-44.0", "trial": 1, "time_elapsed": 335478, "serialpos": 7, "key_press": -1, "wordID": 986, "type": "PRES_VIS", "trial_index": 62}, "uniqueid": "MTK2762:336YQZE83WL0EPEKV9SEBNN9TZZM56", "dateTime": 1519323396690}, {"current_trial": 63, "trialdata": {"rt": -1, "trial_type": "single-stim", "word": "rifle", "stimulus": "<p id=\"stim\">RIFLE</p>", "conditions": [18, 1200, "v", 18000], "internal_node_id": "0.0-45.0", "trial": 1, "time_elapsed": 337769, "serialpos": 8, "key_press": -1, "wordID": 1191, "type": "PRES_VIS", "trial_index": 63}, "uniqueid": "MTK2762:336YQZE83WL0EPEKV9SEBNN9TZZM56", "dateTime": 1519323398980}, {"current_trial": 64, "trialdata": {"rt": -1, "trial_type": "single-stim", "word": "clamp", "stimulus": "<p id=\"stim\">CLAMP</p>", "conditions": [18, 1200, "v", 18000], "internal_node_id": "0.0-46.0", "trial": 1, "time_elapsed": 339796, "serialpos": 9, "key_press": -1, "wordID": 315, "type": "PRES_VIS", "trial_index": 64}, "uniqueid": "MTK2762:336YQZE83WL0EPEKV9SEBNN9TZZM56", "dateTime": 1519323401007}, {"current_trial": 65, "trialdata": {"rt": -1, "trial_type": "single-stim", "word": "record", "stimulus": "<p id=\"stim\">RECORD</p>", "conditions": [18, 1200, "v", 18000], "internal_node_id": "0.0-47.0", "trial": 1, "time_elapsed": 342118, "serialpos": 10, "key_press": -1, "wordID": 1175, "type": "PRES_VIS", "trial_index": 65}, "uniqueid": "MTK2762:336YQZE83WL0EPEKV9SEBNN9TZZM56", "dateTime": 1519323403329}, {"current_trial": 66, "trialdata": {"rt": -1, "trial_type": "single-stim", "word": "dorm", "stimulus": "<p id=\"stim\">DORM</p>", "conditions": [18, 1200, "v", 18000], "internal_node_id": "0.0-48.0", "trial": 1, "time_elapsed": 344310, "serialpos": 11, "key_press": -1, "wordID": 487, "type": "PRES_VIS", "trial_index": 66}, "uniqueid": "MTK2762:336YQZE83WL0EPEKV9SEBNN9TZZM56", "dateTime": 1519323405522}, {"current_trial": 67, "trialdata": {"rt": -1, "trial_type": "single-stim", "word": "plaster", "stimulus": "<p id=\"stim\">PLASTER</p>", "conditions": [18, 1200, "v", 18000], "internal_node_id": "0.0-49.0", "trial": 1, "time_elapsed": 346646, "serialpos": 12, "key_press": -1, "wordID": 1084, "type": "PRES_VIS", "trial_index": 67}, "uniqueid": "MTK2762:336YQZE83WL0EPEKV9SEBNN9TZZM56", "dateTime": 1519323407857}, {"current_trial": 68, "trialdata": {"rt": -1, "trial_type": "single-stim", "word": "quail", "stimulus": "<p id=\"stim\">QUAIL</p>", "conditions": [18, 1200, "v", 18000], "internal_node_id": "0.0-50.0", "trial": 1, "time_elapsed": 348746, "serialpos": 13, "key_press": -1, "wordID": 1146, "type": "PRES_VIS", "trial_index": 68}, "uniqueid": "MTK2762:336YQZE83WL0EPEKV9SEBNN9TZZM56", "dateTime": 1519323409962}, {"current_trial": 69, "trialdata": {"rt": -1, "trial_type": "single-stim", "word": "banjo", "stimulus": "<p id=\"stim\">BANJO</p>", "conditions": [18, 1200, "v", 18000], "internal_node_id": "0.0-51.0", "trial": 1, "time_elapsed": 350980, "serialpos": 14, "key_press": -1, "wordID": 81, "type": "PRES_VIS", "trial_index": 69}, "uniqueid": "MTK2762:336YQZE83WL0EPEKV9SEBNN9TZZM56", "dateTime": 1519323412191}, {"current_trial": 70, "trialdata": {"rt": -1, "trial_type": "single-stim", "word": "seafood", "stimulus": "<p id=\"stim\">SEAFOOD</p>", "conditions": [18, 1200, "v", 18000], "internal_node_id": "0.0-52.0", "trial": 1, "time_elapsed": 353094, "serialpos": 15, "key_press": -1, "wordID": 1259, "type": "PRES_VIS", "trial_index": 70}, "uniqueid": "MTK2762:336YQZE83WL0EPEKV9SEBNN9TZZM56", "dateTime": 1519323414305}, {"current_trial": 71, "trialdata": {"rt": -1, "trial_type": "single-stim", "word": "camel", "stimulus": "<p id=\"stim\">CAMEL</p>", "conditions": [18, 1200, "v", 18000], "internal_node_id": "0.0-53.0", "trial": 1, "time_elapsed": 355439, "serialpos": 16, "key_press": -1, "wordID": 222, "type": "PRES_VIS", "trial_index": 71}, "uniqueid": "MTK2762:336YQZE83WL0EPEKV9SEBNN9TZZM56", "dateTime": 1519323416650}, {"current_trial": 72, "trialdata": {"rt": -1, "trial_type": "single-stim", "word": "trout", "stimulus": "<p id=\"stim\">TROUT</p>", "conditions": [18, 1200, "v", 18000], "internal_node_id": "0.0-54.0", "trial": 1, "time_elapsed": 357470, "serialpos": 17, "key_press": -1, "wordID": 1510, "type": "PRES_VIS", "trial_index": 72}, "uniqueid": "MTK2762:336YQZE83WL0EPEKV9SEBNN9TZZM56", "dateTime": 1519323418681}, {"current_trial": 73, "trialdata": {"rt": -1, "trial_type": "single-stim", "stimulus": "", "internal_node_id": "0.0-55.0-0.0", "time_elapsed": 359682, "key_press": -1, "type": "PRE_RECALL_DELAY", "trial_index": 73}, "uniqueid": "MTK2762:336YQZE83WL0EPEKV9SEBNN9TZZM56", "dateTime": 1519323420893}, {"current_trial": 74, "trialdata": {"rt": -1000, "trial_type": "single-audio", "stimulus": "/static/audio/400Hz.wav", "internal_node_id": "0.0-56.0", "time_elapsed": 360184, "key_press": -1, "type": "PRE_RECALL_ALERT", "trial_index": 74}, "uniqueid": "MTK2762:336YQZE83WL0EPEKV9SEBNN9TZZM56", "dateTime": 1519323421396}, {"current_trial": 75, "trialdata": {"rt": [3197, 5309, 7549, 21565, 27636, 45941], "recwords": ["scarecrow", "student", "quail", "trout", "sunrise", "tablet"], "key_times": [1014, 1341, 1566, 1749, 1893, 2213, 2445, 2693, 2909, 3197, 3565, 3749, 3949, 4197, 4429, 4613, 4813, 5309, 5757, 5989, 6245, 6485, 6773, 7549, 20373, 20621, 20845, 21005, 21205, 21565, 26165, 26389, 26644, 26829, 26997, 27181, 27412, 27636, 44590, 44804, 44996, 45205, 45389, 45597, 45941], "trial_type": "free-recall", "conditions": [18, 1200, "v", 18000], "internal_node_id": "0.0-57.0-0.0", "key_presses": [83, 67, 65, 82, 69, 67, 82, 79, 87, 13, 83, 84, 85, 68, 69, 78, 84, 13, 81, 85, 65, 73, 76, 13, 84, 82, 79, 85, 84, 13, 83, 85, 78, 82, 73, 83, 69, 13, 84, 65, 66, 76, 69, 84, 13], "trial": 1, "time_elapsed": 420190, "type": "FREE_RECALL", "trial_index": 75}, "uniqueid": "MTK2762:336YQZE83WL0EPEKV9SEBNN9TZZM56", "dateTime": 1519323481427}, {"current_trial": 76, "trialdata": {"rt": 2679, "trial_type": "text", "internal_node_id": "0.0-58.0", "time_elapsed": 424897, "key_press": 32, "type": "INSTRUCTIONS", "trial_index": 76}, "uniqueid": "MTK2762:336YQZE83WL0EPEKV9SEBNN9TZZM56", "dateTime": 1519323486108}, {"current_trial": 77, "trialdata": {"rt": [2581, 5605, 7469, 9285, 10933, 12781, 14389, 16516, 18317, 20773, 22509], "trial_type": "math-distractor", "key_times": [1789, 1989, 2581, 5093, 5325, 5605, 6997, 7189, 7469, 8885, 9093, 9285, 10669, 10933, 12373, 12613, 12781, 14077, 14389, 16149, 16348, 16516, 17925, 18125, 18317, 20478, 20773, 22125, 22300, 22509], "responses": ["11", "16", "20", "21", "8", "17", "8", "15", "12", "9", "10"], "num2": [7, 5, 4, 6, 5, 7, 1, 5, 6, 2, 2, 9], "num3": [3, 9, 8, 7, 2, 2, 3, 4, 4, 4, 6, 8], "conditions": [12, 1600, "v", 24000], "internal_node_id": "0.0-59.0", "key_presses": [97, 97, 13, 97, 102, 13, 98, 96, 13, 98, 97, 13, 104, 13, 97, 103, 13, 104, 13, 97, 101, 13, 97, 98, 13, 105, 13, 97, 96, 13], "trial": 2, "time_elapsed": 449901, "type": "DISTRACTOR", "trial_index": 77, "num1": [1, 2, 8, 8, 1, 8, 4, 6, 2, 3, 2, 5]}, "uniqueid": "MTK2762:336YQZE83WL0EPEKV9SEBNN9TZZM56", "dateTime": 1519323511112}, {"current_trial": 78, "trialdata": {"rt": -1, "trial_type": "single-stim", "stimulus": "<p id=\"stim\">10</p>", "internal_node_id": "0.0-60.0-0.0", "time_elapsed": 452904, "key_press": -1, "trial_index": 78}, "uniqueid": "MTK2762:336YQZE83WL0EPEKV9SEBNN9TZZM56", "dateTime": 1519323514115}, {"current_trial": 79, "trialdata": {"rt": -1, "trial_type": "single-stim", "stimulus": "<p id=\"stim\">9</p>", "internal_node_id": "0.0-60.0-1.0", "time_elapsed": 453906, "key_press": -1, "trial_index": 79}, "uniqueid": "MTK2762:336YQZE83WL0EPEKV9SEBNN9TZZM56", "dateTime": 1519323515117}, {"current_trial": 80, "trialdata": {"rt": -1, "trial_type": "single-stim", "stimulus": "<p id=\"stim\">8</p>", "internal_node_id": "0.0-60.0-2.0", "time_elapsed": 454908, "key_press": -1, "trial_index": 80}, "uniqueid": "MTK2762:336YQZE83WL0EPEKV9SEBNN9TZZM56", "dateTime": 1519323516119}, {"current_trial": 81, "trialdata": {"rt": -1, "trial_type": "single-stim", "stimulus": "<p id=\"stim\">7</p>", "internal_node_id": "0.0-60.0-3.0", "time_elapsed": 455910, "key_press": -1, "trial_index": 81}, "uniqueid": "MTK2762:336YQZE83WL0EPEKV9SEBNN9TZZM56", "dateTime": 1519323517121}, {"current_trial": 82, "trialdata": {"rt": -1, "trial_type": "single-stim", "stimulus": "<p id=\"stim\">6</p>", "internal_node_id": "0.0-60.0-4.0", "time_elapsed": 456912, "key_press": -1, "trial_index": 82}, "uniqueid": "MTK2762:336YQZE83WL0EPEKV9SEBNN9TZZM56", "dateTime": 1519323518123}, {"current_trial": 83, "trialdata": {"rt": -1, "trial_type": "single-stim", "stimulus": "<p id=\"stim\">5</p>", "internal_node_id": "0.0-60.0-5.0", "time_elapsed": 457914, "key_press": -1, "trial_index": 83}, "uniqueid": "MTK2762:336YQZE83WL0EPEKV9SEBNN9TZZM56", "dateTime": 1519323519125}, {"current_trial": 84, "trialdata": {"rt": -1, "trial_type": "single-stim", "stimulus": "<p id=\"stim\">4</p>", "internal_node_id": "0.0-60.0-6.0", "time_elapsed": 458916, "key_press": -1, "trial_index": 84}, "uniqueid": "MTK2762:336YQZE83WL0EPEKV9SEBNN9TZZM56", "dateTime": 1519323520127}, {"current_trial": 85, "trialdata": {"rt": -1, "trial_type": "single-stim", "stimulus": "<p id=\"stim\">3</p>", "internal_node_id": "0.0-60.0-7.0", "time_elapsed": 459918, "key_press": -1, "trial_index": 85}, "uniqueid": "MTK2762:336YQZE83WL0EPEKV9SEBNN9TZZM56", "dateTime": 1519323521129}, {"current_trial": 86, "trialdata": {"rt": -1, "trial_type": "single-stim", "stimulus": "<p id=\"stim\">2</p>", "internal_node_id": "0.0-60.0-8.0", "time_elapsed": 460920, "key_press": -1, "trial_index": 86}, "uniqueid": "MTK2762:336YQZE83WL0EPEKV9SEBNN9TZZM56", "dateTime": 1519323522131}, {"current_trial": 87, "trialdata": {"rt": -1, "trial_type": "single-stim", "stimulus": "<p id=\"stim\">1</p>", "internal_node_id": "0.0-60.0-9.0", "time_elapsed": 461922, "key_press": -1, "trial_index": 87}, "uniqueid": "MTK2762:336YQZE83WL0EPEKV9SEBNN9TZZM56", "dateTime": 1519323523133}, {"current_trial": 88, "trialdata": {"rt": -1, "trial_type": "single-stim", "stimulus": "<p id=\"stim\">+</p>", "internal_node_id": "0.0-61.0-0.0", "time_elapsed": 463424, "key_press": -1, "type": "FIXATION", "trial_index": 88}, "uniqueid": "MTK2762:336YQZE83WL0EPEKV9SEBNN9TZZM56", "dateTime": 1519323524635}, {"current_trial": 89, "trialdata": {"rt": -1, "trial_type": "single-stim", "word": "victim", "stimulus": "<p id=\"stim\">VICTIM</p>", "conditions": [12, 1600, "v", 24000], "internal_node_id": "0.0-62.0", "trial": 2, "time_elapsed": 465027, "serialpos": 0, "key_press": -1, "wordID": 1561, "type": "PRES_VIS", "trial_index": 89}, "uniqueid": "MTK2762:336YQZE83WL0EPEKV9SEBNN9TZZM56", "dateTime": 1519323526238}, {"current_trial": 90, "trialdata": {"rt": -1, "trial_type": "single-stim", "word": "crib", "stimulus": "<p id=\"stim\">CRIB</p>", "conditions": [12, 1600, "v", 24000], "internal_node_id": "0.0-63.0", "trial": 2, "time_elapsed": 467676, "serialpos": 1, "key_press": -1, "wordID": 406, "type": "PRES_VIS", "trial_index": 90}, "uniqueid": "MTK2762:336YQZE83WL0EPEKV9SEBNN9TZZM56", "dateTime": 1519323528887}, {"current_trial": 91, "trialdata": {"rt": -1, "trial_type": "single-stim", "word": "pudding", "stimulus": "<p id=\"stim\">PUDDING</p>", "conditions": [12, 1600, "v", 24000], "internal_node_id": "0.0-64.0", "trial": 2, "time_elapsed": 470373, "serialpos": 2, "key_press": -1, "wordID": 1138, "type": "PRES_VIS", "trial_index": 91}, "uniqueid": "MTK2762:336YQZE83WL0EPEKV9SEBNN9TZZM56", "dateTime": 1519323531584}, {"current_trial": 92, "trialdata": {"rt": -1, "trial_type": "single-stim", "word": "pizza", "stimulus": "<p id=\"stim\">PIZZA</p>", "conditions": [12, 1600, "v", 24000], "internal_node_id": "0.0-65.0", "trial": 2, "time_elapsed": 472824, "serialpos": 3, "key_press": -1, "wordID": 1078, "type": "PRES_VIS", "trial_index": 92}, "uniqueid": "MTK2762:336YQZE83WL0EPEKV9SEBNN9TZZM56", "dateTime": 1519323534035}, {"current_trial": 93, "trialdata": {"rt": -1, "trial_type": "single-stim", "word": "banker", "stimulus": "<p id=\"stim\">BANKER</p>", "conditions": [12, 1600, "v", 24000], "internal_node_id": "0.0-66.0", "trial": 2, "time_elapsed": 475375, "serialpos": 4, "key_press": -1, "wordID": 83, "type": "PRES_VIS", "trial_index": 93}, "uniqueid": "MTK2762:336YQZE83WL0EPEKV9SEBNN9TZZM56", "dateTime": 1519323536586}, {"current_trial": 94, "trialdata": {"rt": -1, "trial_type": "single-stim", "word": "donor", "stimulus": "<p id=\"stim\">DONOR</p>", "conditions": [12, 1600, "v", 24000], "internal_node_id": "0.0-67.0", "trial": 2, "time_elapsed": 477865, "serialpos": 5, "key_press": -1, "wordID": 484, "type": "PRES_VIS", "trial_index": 94}, "uniqueid": "MTK2762:336YQZE83WL0EPEKV9SEBNN9TZZM56", "dateTime": 1519323539077}, {"current_trial": 95, "trialdata": {"rt": -1, "trial_type": "single-stim", "word": "suspect", "stimulus": "<p id=\"stim\">SUSPECT</p>", "conditions": [12, 1600, "v", 24000], "internal_node_id": "0.0-68.0", "trial": 2, "time_elapsed": 480340, "serialpos": 6, "key_press": -1, "wordID": 1414, "type": "PRES_VIS", "trial_index": 95}, "uniqueid": "MTK2762:336YQZE83WL0EPEKV9SEBNN9TZZM56", "dateTime": 1519323541551}, {"current_trial": 96, "trialdata": {"rt": -1, "trial_type": "single-stim", "word": "servant", "stimulus": "<p id=\"stim\">SERVANT</p>", "conditions": [12, 1600, "v", 24000], "internal_node_id": "0.0-69.0", "trial": 2, "time_elapsed": 482887, "serialpos": 7, "key_press": -1, "wordID": 1270, "type": "PRES_VIS", "trial_index": 96}, "uniqueid": "MTK2762:336YQZE83WL0EPEKV9SEBNN9TZZM56", "dateTime": 1519323544098}, {"current_trial": 97, "trialdata": {"rt": -1, "trial_type": "single-stim", "word": "patrol", "stimulus": "<p id=\"stim\">PATROL</p>", "conditions": [12, 1600, "v", 24000], "internal_node_id": "0.0-70.0", "trial": 2, "time_elapsed": 485333, "serialpos": 8, "key_press": -1, "wordID": 1026, "type": "PRES_VIS", "trial_index": 97}, "uniqueid": "MTK2762:336YQZE83WL0EPEKV9SEBNN9TZZM56", "dateTime": 1519323546544}, {"current_trial": 98, "trialdata": {"rt": -1, "trial_type": "single-stim", "word": "police", "stimulus": "<p id=\"stim\">POLICE</p>", "conditions": [12, 1600, "v", 24000], "internal_node_id": "0.0-71.0", "trial": 2, "time_elapsed": 487738, "serialpos": 9, "key_press": -1, "wordID": 1097, "type": "PRES_VIS", "trial_index": 98}, "uniqueid": "MTK2762:336YQZE83WL0EPEKV9SEBNN9TZZM56", "dateTime": 1519323548949}, {"current_trial": 99, "trialdata": {"rt": -1, "trial_type": "single-stim", "word": "bouquet", "stimulus": "<p id=\"stim\">BOUQUET</p>", "conditions": [12, 1600, "v", 24000], "internal_node_id": "0.0-72.0", "trial": 2, "time_elapsed": 490417, "serialpos": 10, "key_press": -1, "wordID": 156, "type": "PRES_VIS", "trial_index": 99}, "uniqueid": "MTK2762:336YQZE83WL0EPEKV9SEBNN9TZZM56", "dateTime": 1519323551628}, {"current_trial": 100, "trialdata": {"rt": -1, "trial_type": "single-stim", "word": "convict", "stimulus": "<p id=\"stim\">CONVICT</p>", "conditions": [12, 1600, "v", 24000], "internal_node_id": "0.0-73.0", "trial": 2, "time_elapsed": 493069, "serialpos": 11, "key_press": -1, "wordID": 370, "type": "PRES_VIS", "trial_index": 100}, "uniqueid": "MTK2762:336YQZE83WL0EPEKV9SEBNN9TZZM56", "dateTime": 1519323554280}, {"current_trial": 101, "trialdata": {"rt": -1, "trial_type": "single-stim", "stimulus": "", "internal_node_id": "0.0-74.0-0.0", "time_elapsed": 495413, "key_press": -1, "type": "PRE_RECALL_DELAY", "trial_index": 101}, "uniqueid": "MTK2762:336YQZE83WL0EPEKV9SEBNN9TZZM56", "dateTime": 1519323556624}, {"current_trial": 102, "trialdata": {"rt": -1000, "trial_type": "single-audio", "stimulus": "/static/audio/400Hz.wav", "internal_node_id": "0.0-75.0", "time_elapsed": 495917, "key_press": -1, "type": "PRE_RECALL_ALERT", "trial_index": 102}, "uniqueid": "MTK2762:336YQZE83WL0EPEKV9SEBNN9TZZM56", "dateTime": 1519323557128}, {"current_trial": 103, "trialdata": {"rt": [3161, 5185, 7345, 10833, 13577, 15649, 25297], "recwords": ["convict", "police", "banker", "victim", "crib", "donor", "suspect"], "key_times": [1106, 1337, 1569, 1841, 2049, 2153, 2793, 3161, 3929, 4147, 4337, 4521, 4657, 4857, 5185, 5505, 5713, 5921, 6145, 6417, 6545, 7345, 9465, 9697, 9819, 10049, 10233, 10433, 10833, 12002, 12553, 12769, 12977, 13577, 13889, 14033, 14281, 14529, 14817, 15649, 23770, 23985, 24217, 24425, 24609, 24848, 25057, 25297], "trial_type": "free-recall", "conditions": [12, 1600, "v", 24000], "internal_node_id": "0.0-76.0-0.0", "key_presses": [67, 79, 78, 86, 73, 67, 84, 13, 80, 79, 76, 73, 67, 69, 13, 66, 65, 78, 75, 69, 82, 13, 86, 73, 67, 84, 73, 77, 13, 67, 82, 73, 66, 13, 68, 79, 78, 79, 82, 13, 83, 85, 83, 80, 69, 67, 84, 13], "trial": 2, "time_elapsed": 555922, "type": "FREE_RECALL", "trial_index": 103}, "uniqueid": "MTK2762:336YQZE83WL0EPEKV9SEBNN9TZZM56", "dateTime": 1519323617137}, {"current_trial": 104, "trialdata": {"rt": 2355, "trial_type": "text", "internal_node_id": "0.0-77.0", "time_elapsed": 560282, "key_press": 32, "type": "INSTRUCTIONS", "trial_index": 104}, "uniqueid": "MTK2762:336YQZE83WL0EPEKV9SEBNN9TZZM56", "dateTime": 1519323621493}, {"current_trial": 105, "trialdata": {"rt": [1828, 3500, 5868, 8269, 9716, 11076], "trial_type": "math-distractor", "key_times": [1428, 1620, 1828, 3100, 3300, 3500, 5324, 5596, 5868, 7564, 7788, 8269, 9396, 9716, 10804, 11076], "responses": ["12", "12", "21", "19", "8", "8"], "num2": [2, 1, 9, 9, 1, 2, 6], "num3": [8, 2, 8, 6, 4, 1, 2], "conditions": [12, 1600, "v", 12000], "internal_node_id": "0.0-78.0", "key_presses": [97, 98, 13, 97, 98, 13, 98, 97, 13, 97, 105, 13, 104, 13, 104, 13], "trial": 3, "time_elapsed": 574286, "type": "DISTRACTOR", "trial_index": 105, "num1": [2, 9, 4, 4, 3, 5, 8]}, "uniqueid": "MTK2762:336YQZE83WL0EPEKV9SEBNN9TZZM56", "dateTime": 1519323635497}, {"current_trial": 106, "trialdata": {"rt": -1, "trial_type": "single-stim", "stimulus": "<p id=\"stim\">10</p>", "internal_node_id": "0.0-79.0-0.0", "time_elapsed": 577289, "key_press": -1, "trial_index": 106}, "uniqueid": "MTK2762:336YQZE83WL0EPEKV9SEBNN9TZZM56", "dateTime": 1519323638501}, {"current_trial": 107, "trialdata": {"rt": -1, "trial_type": "single-stim", "stimulus": "<p id=\"stim\">9</p>", "internal_node_id": "0.0-79.0-1.0", "time_elapsed": 578292, "key_press": -1, "trial_index": 107}, "uniqueid": "MTK2762:336YQZE83WL0EPEKV9SEBNN9TZZM56", "dateTime": 1519323639503}, {"current_trial": 108, "trialdata": {"rt": -1, "trial_type": "single-stim", "stimulus": "<p id=\"stim\">8</p>", "internal_node_id": "0.0-79.0-2.0", "time_elapsed": 579294, "key_press": -1, "trial_index": 108}, "uniqueid": "MTK2762:336YQZE83WL0EPEKV9SEBNN9TZZM56", "dateTime": 1519323640505}, {"current_trial": 109, "trialdata": {"rt": -1, "trial_type": "single-stim", "stimulus": "<p id=\"stim\">7</p>", "internal_node_id": "0.0-79.0-3.0", "time_elapsed": 580296, "key_press": -1, "trial_index": 109}, "uniqueid": "MTK2762:336YQZE83WL0EPEKV9SEBNN9TZZM56", "dateTime": 1519323641507}, {"current_trial": 110, "trialdata": {"rt": -1, "trial_type": "single-stim", "stimulus": "<p id=\"stim\">6</p>", "internal_node_id": "0.0-79.0-4.0", "time_elapsed": 581298, "key_press": -1, "trial_index": 110}, "uniqueid": "MTK2762:336YQZE83WL0EPEKV9SEBNN9TZZM56", "dateTime": 1519323642509}, {"current_trial": 111, "trialdata": {"rt": -1, "trial_type": "single-stim", "stimulus": "<p id=\"stim\">5</p>", "internal_node_id": "0.0-79.0-5.0", "time_elapsed": 582300, "key_press": -1, "trial_index": 111}, "uniqueid": "MTK2762:336YQZE83WL0EPEKV9SEBNN9TZZM56", "dateTime": 1519323643511}, {"current_trial": 112, "trialdata": {"rt": -1, "trial_type": "single-stim", "stimulus": "<p id=\"stim\">4</p>", "internal_node_id": "0.0-79.0-6.0", "time_elapsed": 583302, "key_press": -1, "trial_index": 112}, "uniqueid": "MTK2762:336YQZE83WL0EPEKV9SEBNN9TZZM56", "dateTime": 1519323644513}, {"current_trial": 113, "trialdata": {"rt": -1, "trial_type": "single-stim", "stimulus": "<p id=\"stim\">3</p>", "internal_node_id": "0.0-79.0-7.0", "time_elapsed": 584304, "key_press": -1, "trial_index": 113}, "uniqueid": "MTK2762:336YQZE83WL0EPEKV9SEBNN9TZZM56", "dateTime": 1519323645515}, {"current_trial": 114, "trialdata": {"rt": -1, "trial_type": "single-stim", "stimulus": "<p id=\"stim\">2</p>", "internal_node_id": "0.0-79.0-8.0", "time_elapsed": 585307, "key_press": -1, "trial_index": 114}, "uniqueid": "MTK2762:336YQZE83WL0EPEKV9SEBNN9TZZM56", "dateTime": 1519323646518}, {"current_trial": 115, "trialdata": {"rt": -1, "trial_type": "single-stim", "stimulus": "<p id=\"stim\">1</p>", "internal_node_id": "0.0-79.0-9.0", "time_elapsed": 586309, "key_press": -1, "trial_index": 115}, "uniqueid": "MTK2762:336YQZE83WL0EPEKV9SEBNN9TZZM56", "dateTime": 1519323647520}, {"current_trial": 116, "trialdata": {"rt": -1, "trial_type": "single-stim", "stimulus": "<p id=\"stim\">+</p>", "internal_node_id": "0.0-80.0-0.0", "time_elapsed": 587811, "key_press": -1, "type": "FIXATION", "trial_index": 116}, "uniqueid": "MTK2762:336YQZE83WL0EPEKV9SEBNN9TZZM56", "dateTime": 1519323649022}, {"current_trial": 117, "trialdata": {"rt": -1, "trial_type": "single-stim", "word": "mattress", "stimulus": "<p id=\"stim\">MATTRESS</p>", "conditions": [12, 1600, "v", 12000], "internal_node_id": "0.0-81.0", "trial": 3, "time_elapsed": 589413, "serialpos": 0, "key_press": -1, "wordID": 878, "type": "PRES_VIS", "trial_index": 117}, "uniqueid": "MTK2762:336YQZE83WL0EPEKV9SEBNN9TZZM56", "dateTime": 1519323650624}, {"current_trial": 118, "trialdata": {"rt": -1, "trial_type": "single-stim", "word": "portrait", "stimulus": "<p id=\"stim\">PORTRAIT</p>", "conditions": [12, 1600, "v", 12000], "internal_node_id": "0.0-82.0", "trial": 3, "time_elapsed": 592178, "serialpos": 1, "key_press": -1, "wordID": 1110, "type": "PRES_VIS", "trial_index": 118}, "uniqueid": "MTK2762:336YQZE83WL0EPEKV9SEBNN9TZZM56", "dateTime": 1519323653389}, {"current_trial": 119, "trialdata": {"rt": -1, "trial_type": "single-stim", "word": "truck", "stimulus": "<p id=\"stim\">TRUCK</p>", "conditions": [12, 1600, "v", 12000], "internal_node_id": "0.0-83.0", "trial": 3, "time_elapsed": 594968, "serialpos": 2, "key_press": -1, "wordID": 1511, "type": "PRES_VIS", "trial_index": 119}, "uniqueid": "MTK2762:336YQZE83WL0EPEKV9SEBNN9TZZM56", "dateTime": 1519323656179}, {"current_trial": 120, "trialdata": {"rt": -1, "trial_type": "single-stim", "word": "tractor", "stimulus": "<p id=\"stim\">TRACTOR</p>", "conditions": [12, 1600, "v", 12000], "internal_node_id": "0.0-84.0", "trial": 3, "time_elapsed": 597762, "serialpos": 3, "key_press": -1, "wordID": 1492, "type": "PRES_VIS", "trial_index": 120}, "uniqueid": "MTK2762:336YQZE83WL0EPEKV9SEBNN9TZZM56", "dateTime": 1519323658974}, {"current_trial": 121, "trialdata": {"rt": -1, "trial_type": "single-stim", "word": "supper", "stimulus": "<p id=\"stim\">SUPPER</p>", "conditions": [12, 1600, "v", 12000], "internal_node_id": "0.0-85.0", "trial": 3, "time_elapsed": 600358, "serialpos": 4, "key_press": -1, "wordID": 1410, "type": "PRES_VIS", "trial_index": 121}, "uniqueid": "MTK2762:336YQZE83WL0EPEKV9SEBNN9TZZM56", "dateTime": 1519323661570}, {"current_trial": 122, "trialdata": {"rt": -1, "trial_type": "single-stim", "word": "picture", "stimulus": "<p id=\"stim\">PICTURE</p>", "conditions": [12, 1600, "v", 12000], "internal_node_id": "0.0-86.0", "trial": 3, "time_elapsed": 603083, "serialpos": 5, "key_press": -1, "wordID": 1060, "type": "PRES_VIS", "trial_index": 122}, "uniqueid": "MTK2762:336YQZE83WL0EPEKV9SEBNN9TZZM56", "dateTime": 1519323664294}, {"current_trial": 123, "trialdata": {"rt": -1, "trial_type": "single-stim", "word": "marker", "stimulus": "<p id=\"stim\">MARKER</p>", "conditions": [12, 1600, "v", 12000], "internal_node_id": "0.0-87.0", "trial": 3, "time_elapsed": 605576, "serialpos": 6, "key_press": -1, "wordID": 869, "type": "PRES_VIS", "trial_index": 123}, "uniqueid": "MTK2762:336YQZE83WL0EPEKV9SEBNN9TZZM56", "dateTime": 1519323666787}, {"current_trial": 124, "trialdata": {"rt": -1, "trial_type": "single-stim", "word": "saddle", "stimulus": "<p id=\"stim\">SADDLE</p>", "conditions": [12, 1600, "v", 12000], "internal_node_id": "0.0-88.0", "trial": 3, "time_elapsed": 608336, "serialpos": 7, "key_press": -1, "wordID": 1220, "type": "PRES_VIS", "trial_index": 124}, "uniqueid": "MTK2762:336YQZE83WL0EPEKV9SEBNN9TZZM56", "dateTime": 1519323669547}, {"current_trial": 125, "trialdata": {"rt": -1, "trial_type": "single-stim", "word": "shoulder", "stimulus": "<p id=\"stim\">SHOULDER</p>", "conditions": [12, 1600, "v", 12000], "internal_node_id": "0.0-89.0", "trial": 3, "time_elapsed": 610762, "serialpos": 8, "key_press": -1, "wordID": 1293, "type": "PRES_VIS", "trial_index": 125}, "uniqueid": "MTK2762:336YQZE83WL0EPEKV9SEBNN9TZZM56", "dateTime": 1519323671973}, {"current_trial": 126, "trialdata": {"rt": -1, "trial_type": "single-stim", "word": "orange", "stimulus": "<p id=\"stim\">ORANGE</p>", "conditions": [12, 1600, "v", 12000], "internal_node_id": "0.0-90.0", "trial": 3, "time_elapsed": 613396, "serialpos": 9, "key_press": -1, "wordID": 979, "type": "PRES_VIS", "trial_index": 126}, "uniqueid": "MTK2762:336YQZE83WL0EPEKV9SEBNN9TZZM56", "dateTime": 1519323674607}, {"current_trial": 127, "trialdata": {"rt": -1, "trial_type": "single-stim", "word": "belly", "stimulus": "<p id=\"stim\">BELLY</p>", "conditions": [12, 1600, "v", 12000], "internal_node_id": "0.0-91.0", "trial": 3, "time_elapsed": 615897, "serialpos": 10, "key_press": -1, "wordID": 118, "type": "PRES_VIS", "trial_index": 127}, "uniqueid": "MTK2762:336YQZE83WL0EPEKV9SEBNN9TZZM56", "dateTime": 1519323677108}, {"current_trial": 128, "trialdata": {"rt": -1, "trial_type": "single-stim", "word": "omelet", "stimulus": "<p id=\"stim\">OMELET</p>", "conditions": [12, 1600, "v", 12000], "internal_node_id": "0.0-92.0", "trial": 3, "time_elapsed": 618315, "serialpos": 11, "key_press": -1, "wordID": 975, "type": "PRES_VIS", "trial_index": 128}, "uniqueid": "MTK2762:336YQZE83WL0EPEKV9SEBNN9TZZM56", "dateTime": 1519323679527}, {"current_trial": 129, "trialdata": {"rt": -1, "trial_type": "single-stim", "stimulus": "", "internal_node_id": "0.0-93.0-0.0", "time_elapsed": 620670, "key_press": -1, "type": "PRE_RECALL_DELAY", "trial_index": 129}, "uniqueid": "MTK2762:336YQZE83WL0EPEKV9SEBNN9TZZM56", "dateTime": 1519323681881}, {"current_trial": 130, "trialdata": {"rt": -1000, "trial_type": "single-audio", "stimulus": "/static/audio/400Hz.wav", "internal_node_id": "0.0-94.0", "time_elapsed": 621173, "key_press": -1, "type": "PRE_RECALL_ALERT", "trial_index": 130}, "uniqueid": "MTK2762:336YQZE83WL0EPEKV9SEBNN9TZZM56", "dateTime": 1519323682384}, {"current_trial": 131, "trialdata": {"rt": [3001, 4817, 6881, 8705, 10497, 14665, 17297, 34249], "recwords": ["omelet", "orange", "truck", "tractor", "supper", "portrait", "picture", "belly"], "key_times": [1354, 1729, 2009, 2177, 2329, 2505, 3001, 3649, 3817, 3977, 4201, 4385, 4593, 4817, 5081, 5265, 5449, 5641, 6353, 6881, 7193, 7393, 7513, 7697, 7905, 8065, 8273, 8705, 9009, 9225, 9489, 9673, 9961, 10193, 10497, 11017, 12050, 12217, 12465, 12737, 13265, 14017, 14393, 14665, 15073, 15385, 15641, 15929, 16081, 16329, 16609, 17297, 32794, 33057, 33305, 33497, 33745, 34249], "trial_type": "free-recall", "conditions": [12, 1600, "v", 12000], "internal_node_id": "0.0-95.0-0.0", "key_presses": [79, 77, 69, 76, 69, 84, 13, 79, 82, 65, 78, 71, 69, 13, 84, 82, 85, 67, 75, 13, 84, 82, 65, 67, 84, 79, 82, 13, 83, 85, 80, 80, 69, 82, 13, 80, 79, 82, 84, 82, 65, 73, 84, 13, 80, 73, 67, 84, 85, 82, 69, 13, 66, 69, 76, 76, 89, 13], "trial": 3, "time_elapsed": 681178, "type": "FREE_RECALL", "trial_index": 131}, "uniqueid": "MTK2762:336YQZE83WL0EPEKV9SEBNN9TZZM56", "dateTime": 1519323742420}, {"current_trial": 132, "trialdata": {"rt": 2207, "trial_type": "text", "internal_node_id": "0.0-96.0", "time_elapsed": 685417, "key_press": 13, "type": "INSTRUCTIONS", "trial_index": 132}, "uniqueid": "MTK2762:336YQZE83WL0EPEKV9SEBNN9TZZM56", "dateTime": 1519323746628}, {"current_trial": 133, "trialdata": {"rt": [5276, 7348, 9212, 10916, 14220, 16284, 19182, 21061, 22925], "trial_type": "math-distractor", "key_times": [3941, 4156, 5276, 6988, 7156, 7348, 8853, 8996, 9212, 10500, 10716, 10916, 13772, 13988, 14220, 15948, 16284, 17976, 19182, 20669, 20869, 21061, 22501, 22733, 22925, 23989], "responses": ["24", "21", "20", "12", "19", "9", "9", "16", "18"], "num2": [9, 9, 8, 1, 6, 5, 1, 5, 4, 5], "num3": [9, 8, 5, 8, 6, 1, 2, 7, 5, 4], "conditions": [12, 800, "v", 24000], "internal_node_id": "0.0-97.0", "key_presses": [98, 100, 13, 98, 97, 13, 98, 96, 13, 97, 98, 13, 97, 105, 13, 105, 13, 105, 13, 97, 102, 13, 97, 104, 13, 97], "trial": 4, "time_elapsed": 711421, "type": "DISTRACTOR", "trial_index": 133, "num1": [6, 4, 7, 3, 7, 3, 7, 4, 9, 1]}, "uniqueid": "MTK2762:336YQZE83WL0EPEKV9SEBNN9TZZM56", "dateTime": 1519323772632}, {"current_trial": 134, "trialdata": {"rt": -1, "trial_type": "single-stim", "stimulus": "<p id=\"stim\">10</p>", "internal_node_id": "0.0-98.0-0.0", "time_elapsed": 714424, "key_press": -1, "trial_index": 134}, "uniqueid": "MTK2762:336YQZE83WL0EPEKV9SEBNN9TZZM56", "dateTime": 1519323775635}, {"current_trial": 135, "trialdata": {"rt": -1, "trial_type": "single-stim", "stimulus": "<p id=\"stim\">9</p>", "internal_node_id": "0.0-98.0-1.0", "time_elapsed": 715426, "key_press": -1, "trial_index": 135}, "uniqueid": "MTK2762:336YQZE83WL0EPEKV9SEBNN9TZZM56", "dateTime": 1519323776637}, {"current_trial": 136, "trialdata": {"rt": -1, "trial_type": "single-stim", "stimulus": "<p id=\"stim\">8</p>", "internal_node_id": "0.0-98.0-2.0", "time_elapsed": 716428, "key_press": -1, "trial_index": 136}, "uniqueid": "MTK2762:336YQZE83WL0EPEKV9SEBNN9TZZM56", "dateTime": 1519323777639}, {"current_trial": 137, "trialdata": {"rt": -1, "trial_type": "single-stim", "stimulus": "<p id=\"stim\">7</p>", "internal_node_id": "0.0-98.0-3.0", "time_elapsed": 717430, "key_press": -1, "trial_index": 137}, "uniqueid": "MTK2762:336YQZE83WL0EPEKV9SEBNN9TZZM56", "dateTime": 1519323778641}, {"current_trial": 138, "trialdata": {"rt": -1, "trial_type": "single-stim", "stimulus": "<p id=\"stim\">6</p>", "internal_node_id": "0.0-98.0-4.0", "time_elapsed": 718432, "key_press": -1, "trial_index": 138}, "uniqueid": "MTK2762:336YQZE83WL0EPEKV9SEBNN9TZZM56", "dateTime": 1519323779643}, {"current_trial": 139, "trialdata": {"rt": -1, "trial_type": "single-stim", "stimulus": "<p id=\"stim\">5</p>", "internal_node_id": "0.0-98.0-5.0", "time_elapsed": 719434, "key_press": -1, "trial_index": 139}, "uniqueid": "MTK2762:336YQZE83WL0EPEKV9SEBNN9TZZM56", "dateTime": 1519323780645}, {"current_trial": 140, "trialdata": {"rt": -1, "trial_type": "single-stim", "stimulus": "<p id=\"stim\">4</p>", "internal_node_id": "0.0-98.0-6.0", "time_elapsed": 720436, "key_press": -1, "trial_index": 140}, "uniqueid": "MTK2762:336YQZE83WL0EPEKV9SEBNN9TZZM56", "dateTime": 1519323781648}, {"current_trial": 141, "trialdata": {"rt": -1, "trial_type": "single-stim", "stimulus": "<p id=\"stim\">3</p>", "internal_node_id": "0.0-98.0-7.0", "time_elapsed": 721438, "key_press": -1, "trial_index": 141}, "uniqueid": "MTK2762:336YQZE83WL0EPEKV9SEBNN9TZZM56", "dateTime": 1519323782650}, {"current_trial": 142, "trialdata": {"rt": -1, "trial_type": "single-stim", "stimulus": "<p id=\"stim\">2</p>", "internal_node_id": "0.0-98.0-8.0", "time_elapsed": 722440, "key_press": -1, "trial_index": 142}, "uniqueid": "MTK2762:336YQZE83WL0EPEKV9SEBNN9TZZM56", "dateTime": 1519323783652}, {"current_trial": 143, "trialdata": {"rt": -1, "trial_type": "single-stim", "stimulus": "<p id=\"stim\">1</p>", "internal_node_id": "0.0-98.0-9.0", "time_elapsed": 723443, "key_press": -1, "trial_index": 143}, "uniqueid": "MTK2762:336YQZE83WL0EPEKV9SEBNN9TZZM56", "dateTime": 1519323784654}, {"current_trial": 144, "trialdata": {"rt": -1, "trial_type": "single-stim", "stimulus": "<p id=\"stim\">+</p>", "internal_node_id": "0.0-99.0-0.0", "time_elapsed": 724944, "key_press": -1, "type": "FIXATION", "trial_index": 144}, "uniqueid": "MTK2762:336YQZE83WL0EPEKV9SEBNN9TZZM56", "dateTime": 1519323786156}, {"current_trial": 145, "trialdata": {"rt": -1, "trial_type": "single-stim", "word": "briefcase", "stimulus": "<p id=\"stim\">BRIEFCASE</p>", "conditions": [12, 800, "v", 24000], "internal_node_id": "0.0-100.0", "trial": 4, "time_elapsed": 725747, "serialpos": 0, "key_press": -1, "wordID": 174, "type": "PRES_VIS", "trial_index": 145}, "uniqueid": "MTK2762:336YQZE83WL0EPEKV9SEBNN9TZZM56", "dateTime": 1519323786958}, {"current_trial": 146, "trialdata": {"rt": -1, "trial_type": "single-stim", "word": "dandruff", "stimulus": "<p id=\"stim\">DANDRUFF</p>", "conditions": [12, 800, "v", 24000], "internal_node_id": "0.0-101.0", "trial": 4, "time_elapsed": 727653, "serialpos": 1, "key_press": -1, "wordID": 438, "type": "PRES_VIS", "trial_index": 146}, "uniqueid": "MTK2762:336YQZE83WL0EPEKV9SEBNN9TZZM56", "dateTime": 1519323788864}, {"current_trial": 147, "trialdata": {"rt": -1, "trial_type": "single-stim", "word": "tombstone", "stimulus": "<p id=\"stim\">TOMBSTONE</p>", "conditions": [12, 800, "v", 24000], "internal_node_id": "0.0-102.0", "trial": 4, "time_elapsed": 729271, "serialpos": 2, "key_press": -1, "wordID": 1477, "type": "PRES_VIS", "trial_index": 147}, "uniqueid": "MTK2762:336YQZE83WL0EPEKV9SEBNN9TZZM56", "dateTime": 1519323790482}, {"current_trial": 148, "trialdata": {"rt": -1, "trial_type": "single-stim", "word": "inmate", "stimulus": "<p id=\"stim\">INMATE</p>", "conditions": [12, 800, "v", 24000], "internal_node_id": "0.0-103.0", "trial": 4, "time_elapsed": 731193, "serialpos": 3, "key_press": -1, "wordID": 737, "type": "PRES_VIS", "trial_index": 148}, "uniqueid": "MTK2762:336YQZE83WL0EPEKV9SEBNN9TZZM56", "dateTime": 1519323792404}, {"current_trial": 149, "trialdata": {"rt": -1, "trial_type": "single-stim", "word": "package", "stimulus": "<p id=\"stim\">PACKAGE</p>", "conditions": [12, 800, "v", 24000], "internal_node_id": "0.0-104.0", "trial": 4, "time_elapsed": 733070, "serialpos": 4, "key_press": -1, "wordID": 996, "type": "PRES_VIS", "trial_index": 149}, "uniqueid": "MTK2762:336YQZE83WL0EPEKV9SEBNN9TZZM56", "dateTime": 1519323794281}, {"current_trial": 150, "trialdata": {"rt": -1, "trial_type": "single-stim", "word": "pepper", "stimulus": "<p id=\"stim\">PEPPER</p>", "conditions": [12, 800, "v", 24000], "internal_node_id": "0.0-105.0", "trial": 4, "time_elapsed": 734750, "serialpos": 5, "key_press": -1, "wordID": 1046, "type": "PRES_VIS", "trial_index": 150}, "uniqueid": "MTK2762:336YQZE83WL0EPEKV9SEBNN9TZZM56", "dateTime": 1519323795961}, {"current_trial": 151, "trialdata": {"rt": -1, "trial_type": "single-stim", "word": "onion", "stimulus": "<p id=\"stim\">ONION</p>", "conditions": [12, 800, "v", 24000], "internal_node_id": "0.0-106.0", "trial": 4, "time_elapsed": 736522, "serialpos": 6, "key_press": -1, "wordID": 976, "type": "PRES_VIS", "trial_index": 151}, "uniqueid": "MTK2762:336YQZE83WL0EPEKV9SEBNN9TZZM56", "dateTime": 1519323797733}, {"current_trial": 152, "trialdata": {"rt": -1, "trial_type": "single-stim", "word": "pocket", "stimulus": "<p id=\"stim\">POCKET</p>", "conditions": [12, 800, "v", 24000], "internal_node_id": "0.0-107.0", "trial": 4, "time_elapsed": 738423, "serialpos": 7, "key_press": -1, "wordID": 1092, "type": "PRES_VIS", "trial_index": 152}, "uniqueid": "MTK2762:336YQZE83WL0EPEKV9SEBNN9TZZM56", "dateTime": 1519323799634}, {"current_trial": 153, "trialdata": {"rt": -1, "trial_type": "single-stim", "word": "contract", "stimulus": "<p id=\"stim\">CONTRACT</p>", "conditions": [12, 800, "v", 24000], "internal_node_id": "0.0-108.0", "trial": 4, "time_elapsed": 740405, "serialpos": 8, "key_press": -1, "wordID": 367, "type": "PRES_VIS", "trial_index": 153}, "uniqueid": "MTK2762:336YQZE83WL0EPEKV9SEBNN9TZZM56", "dateTime": 1519323801617}, {"current_trial": 154, "trialdata": {"rt": -1, "trial_type": "single-stim", "word": "jelly", "stimulus": "<p id=\"stim\">JELLY</p>", "conditions": [12, 800, "v", 24000], "internal_node_id": "0.0-109.0", "trial": 4, "time_elapsed": 742087, "serialpos": 9, "key_press": -1, "wordID": 754, "type": "PRES_VIS", "trial_index": 154}, "uniqueid": "MTK2762:336YQZE83WL0EPEKV9SEBNN9TZZM56", "dateTime": 1519323803298}, {"current_trial": 155, "trialdata": {"rt": -1, "trial_type": "single-stim", "word": "cupboard", "stimulus": "<p id=\"stim\">CUPBOARD</p>", "conditions": [12, 800, "v", 24000], "internal_node_id": "0.0-110.0", "trial": 4, "time_elapsed": 743991, "serialpos": 10, "key_press": -1, "wordID": 424, "type": "PRES_VIS", "trial_index": 155}, "uniqueid": "MTK2762:336YQZE83WL0EPEKV9SEBNN9TZZM56", "dateTime": 1519323805202}, {"current_trial": 156, "trialdata": {"rt": -1, "trial_type": "single-stim", "word": "maple", "stimulus": "<p id=\"stim\">MAPLE</p>", "conditions": [12, 800, "v", 24000], "internal_node_id": "0.0-111.0", "trial": 4, "time_elapsed": 745646, "serialpos": 11, "key_press": -1, "wordID": 865, "type": "PRES_VIS", "trial_index": 156}, "uniqueid": "MTK2762:336YQZE83WL0EPEKV9SEBNN9TZZM56", "dateTime": 1519323806857}, {"current_trial": 157, "trialdata": {"rt": -1, "trial_type": "single-stim", "stimulus": "", "internal_node_id": "0.0-112.0-0.0", "time_elapsed": 747879, "key_press": -1, "type": "PRE_RECALL_DELAY", "trial_index": 157}, "uniqueid": "MTK2762:336YQZE83WL0EPEKV9SEBNN9TZZM56", "dateTime": 1519323809090}, {"current_trial": 158, "trialdata": {"rt": -1000, "trial_type": "single-audio", "stimulus": "/static/audio/400Hz.wav", "internal_node_id": "0.0-113.0", "time_elapsed": 748386, "key_press": -1, "type": "PRE_RECALL_ALERT", "trial_index": 158}, "uniqueid": "MTK2762:336YQZE83WL0EPEKV9SEBNN9TZZM56", "dateTime": 1519323809597}, {"current_trial": 159, "trialdata": {"rt": [2132, 4908, 7716, 16348, 34007, 58807], "recwords": ["maple", "cupboard", "jelly", "inmate", "briefcase", "dandruff"], "key_times": [1109, 1268, 1444, 1692, 1884, 2132, 2564, 2804, 3284, 3668, 3804, 3956, 4132, 4596, 4908, 5548, 5804, 6428, 6620, 6932, 7716, 14557, 14780, 15028, 15196, 15716, 15972, 16348, 31840, 32111, 32367, 32567, 32799, 33063, 33255, 33495, 33695, 34007, 56304, 56519, 56687, 56895, 57071, 57231, 57768, 58087, 58343, 58535, 58807], "trial_type": "free-recall", "conditions": [12, 800, "v", 24000], "internal_node_id": "0.0-114.0-0.0", "key_presses": [77, 65, 80, 76, 69, 13, 67, 85, 80, 66, 79, 65, 82, 68, 13, 74, 69, 76, 76, 89, 13, 73, 78, 77, 65, 84, 69, 13, 66, 82, 73, 69, 70, 67, 65, 83, 69, 13, 68, 65, 78, 68, 82, 73, 8, 85, 70, 70, 13], "trial": 4, "time_elapsed": 808386, "type": "FREE_RECALL", "trial_index": 159}, "uniqueid": "MTK2762:336YQZE83WL0EPEKV9SEBNN9TZZM56", "dateTime": 1519323869602}, {"current_trial": 160, "trialdata": {"rt": 1283, "trial_type": "text", "internal_node_id": "0.0-115.0", "time_elapsed": 811675, "key_press": 32, "type": "INSTRUCTIONS", "trial_index": 160}, "uniqueid": "MTK2762:336YQZE83WL0EPEKV9SEBNN9TZZM56", "dateTime": 1519323872887}, {"current_trial": 161, "trialdata": {"rt": [3581, 5221, 6821, 8597, 10725], "trial_type": "math-distractor", "key_times": [1798, 2693, 3581, 4821, 5029, 5221, 6453, 6653, 6821, 8197, 8373, 8597, 10301, 10469, 10725, 11971], "responses": ["18", "13", "15", "10", "20"], "num2": [1, 1, 5, 4, 9, 2], "num3": [9, 4, 7, 3, 6, 4], "conditions": [12, 800, "v", 12000], "internal_node_id": "0.0-116.0", "key_presses": [97, 104, 13, 97, 99, 13, 97, 101, 13, 97, 96, 13, 98, 96, 13, 104], "trial": 5, "time_elapsed": 825686, "type": "DISTRACTOR", "trial_index": 161, "num1": [8, 8, 3, 3, 6, 2]}, "uniqueid": "MTK2762:336YQZE83WL0EPEKV9SEBNN9TZZM56", "dateTime": 1519323886897}, {"current_trial": 162, "trialdata": {"rt": -1, "trial_type": "single-stim", "stimulus": "<p id=\"stim\">10</p>", "internal_node_id": "0.0-117.0-0.0", "time_elapsed": 828688, "key_press": -1, "trial_index": 162}, "uniqueid": "MTK2762:336YQZE83WL0EPEKV9SEBNN9TZZM56", "dateTime": 1519323889900}, {"current_trial": 163, "trialdata": {"rt": -1, "trial_type": "single-stim", "stimulus": "<p id=\"stim\">9</p>", "internal_node_id": "0.0-117.0-1.0", "time_elapsed": 829690, "key_press": -1, "trial_index": 163}, "uniqueid": "MTK2762:336YQZE83WL0EPEKV9SEBNN9TZZM56", "dateTime": 1519323890902}, {"current_trial": 164, "trialdata": {"rt": -1, "trial_type": "single-stim", "stimulus": "<p id=\"stim\">8</p>", "internal_node_id": "0.0-117.0-2.0", "time_elapsed": 830693, "key_press": -1, "trial_index": 164}, "uniqueid": "MTK2762:336YQZE83WL0EPEKV9SEBNN9TZZM56", "dateTime": 1519323891904}, {"current_trial": 165, "trialdata": {"rt": -1, "trial_type": "single-stim", "stimulus": "<p id=\"stim\">7</p>", "internal_node_id": "0.0-117.0-3.0", "time_elapsed": 831695, "key_press": -1, "trial_index": 165}, "uniqueid": "MTK2762:336YQZE83WL0EPEKV9SEBNN9TZZM56", "dateTime": 1519323892906}, {"current_trial": 166, "trialdata": {"rt": -1, "trial_type": "single-stim", "stimulus": "<p id=\"stim\">6</p>", "internal_node_id": "0.0-117.0-4.0", "time_elapsed": 832697, "key_press": -1, "trial_index": 166}, "uniqueid": "MTK2762:336YQZE83WL0EPEKV9SEBNN9TZZM56", "dateTime": 1519323893908}, {"current_trial": 167, "trialdata": {"rt": -1, "trial_type": "single-stim", "stimulus": "<p id=\"stim\">5</p>", "internal_node_id": "0.0-117.0-5.0", "time_elapsed": 833699, "key_press": -1, "trial_index": 167}, "uniqueid": "MTK2762:336YQZE83WL0EPEKV9SEBNN9TZZM56", "dateTime": 1519323894910}, {"current_trial": 168, "trialdata": {"rt": -1, "trial_type": "single-stim", "stimulus": "<p id=\"stim\">4</p>", "internal_node_id": "0.0-117.0-6.0", "time_elapsed": 834701, "key_press": -1, "trial_index": 168}, "uniqueid": "MTK2762:336YQZE83WL0EPEKV9SEBNN9TZZM56", "dateTime": 1519323895912}, {"current_trial": 169, "trialdata": {"rt": -1, "trial_type": "single-stim", "stimulus": "<p id=\"stim\">3</p>", "internal_node_id": "0.0-117.0-7.0", "time_elapsed": 835703, "key_press": -1, "trial_index": 169}, "uniqueid": "MTK2762:336YQZE83WL0EPEKV9SEBNN9TZZM56", "dateTime": 1519323896914}, {"current_trial": 170, "trialdata": {"rt": -1, "trial_type": "single-stim", "stimulus": "<p id=\"stim\">2</p>", "internal_node_id": "0.0-117.0-8.0", "time_elapsed": 836705, "key_press": -1, "trial_index": 170}, "uniqueid": "MTK2762:336YQZE83WL0EPEKV9SEBNN9TZZM56", "dateTime": 1519323897916}, {"current_trial": 171, "trialdata": {"rt": -1, "trial_type": "single-stim", "stimulus": "<p id=\"stim\">1</p>", "internal_node_id": "0.0-117.0-9.0", "time_elapsed": 837707, "key_press": -1, "trial_index": 171}, "uniqueid": "MTK2762:336YQZE83WL0EPEKV9SEBNN9TZZM56", "dateTime": 1519323898918}, {"current_trial": 172, "trialdata": {"rt": -1, "trial_type": "single-stim", "stimulus": "<p id=\"stim\">+</p>", "internal_node_id": "0.0-118.0-0.0", "time_elapsed": 839209, "key_press": -1, "type": "FIXATION", "trial_index": 172}, "uniqueid": "MTK2762:336YQZE83WL0EPEKV9SEBNN9TZZM56", "dateTime": 1519323900420}, {"current_trial": 173, "trialdata": {"rt": -1, "trial_type": "single-stim", "word": "ankle", "stimulus": "<p id=\"stim\">ANKLE</p>", "conditions": [12, 800, "v", 12000], "internal_node_id": "0.0-119.0", "trial": 5, "time_elapsed": 840011, "serialpos": 0, "key_press": -1, "wordID": 23, "type": "PRES_VIS", "trial_index": 173}, "uniqueid": "MTK2762:336YQZE83WL0EPEKV9SEBNN9TZZM56", "dateTime": 1519323901222}, {"current_trial": 174, "trialdata": {"rt": -1, "trial_type": "single-stim", "word": "football", "stimulus": "<p id=\"stim\">FOOTBALL</p>", "conditions": [12, 800, "v", 12000], "internal_node_id": "0.0-120.0", "trial": 5, "time_elapsed": 841780, "serialpos": 1, "key_press": -1, "wordID": 590, "type": "PRES_VIS", "trial_index": 174}, "uniqueid": "MTK2762:336YQZE83WL0EPEKV9SEBNN9TZZM56", "dateTime": 1519323902991}, {"current_trial": 175, "trialdata": {"rt": -1, "trial_type": "single-stim", "word": "film", "stimulus": "<p id=\"stim\">FILM</p>", "conditions": [12, 800, "v", 12000], "internal_node_id": "0.0-121.0", "trial": 5, "time_elapsed": 843689, "serialpos": 2, "key_press": -1, "wordID": 564, "type": "PRES_VIS", "trial_index": 175}, "uniqueid": "MTK2762:336YQZE83WL0EPEKV9SEBNN9TZZM56", "dateTime": 1519323904900}, {"current_trial": 176, "trialdata": {"rt": -1, "trial_type": "single-stim", "word": "muffin", "stimulus": "<p id=\"stim\">MUFFIN</p>", "conditions": [12, 800, "v", 12000], "internal_node_id": "0.0-122.0", "trial": 5, "time_elapsed": 845653, "serialpos": 3, "key_press": -1, "wordID": 928, "type": "PRES_VIS", "trial_index": 176}, "uniqueid": "MTK2762:336YQZE83WL0EPEKV9SEBNN9TZZM56", "dateTime": 1519323906864}, {"current_trial": 177, "trialdata": {"rt": -1, "trial_type": "single-stim", "word": "notebook", "stimulus": "<p id=\"stim\">NOTEBOOK</p>", "conditions": [12, 800, "v", 12000], "internal_node_id": "0.0-123.0", "trial": 5, "time_elapsed": 847339, "serialpos": 4, "key_press": -1, "wordID": 958, "type": "PRES_VIS", "trial_index": 177}, "uniqueid": "MTK2762:336YQZE83WL0EPEKV9SEBNN9TZZM56", "dateTime": 1519323908551}, {"current_trial": 178, "trialdata": {"rt": -1, "trial_type": "single-stim", "word": "actor", "stimulus": "<p id=\"stim\">ACTOR</p>", "conditions": [12, 800, "v", 12000], "internal_node_id": "0.0-124.0", "trial": 5, "time_elapsed": 849311, "serialpos": 5, "key_press": -1, "wordID": 4, "type": "PRES_VIS", "trial_index": 178}, "uniqueid": "MTK2762:336YQZE83WL0EPEKV9SEBNN9TZZM56", "dateTime": 1519323910523}, {"current_trial": 179, "trialdata": {"rt": -1, "trial_type": "single-stim", "word": "slope", "stimulus": "<p id=\"stim\">SLOPE</p>", "conditions": [12, 800, "v", 12000], "internal_node_id": "0.0-125.0", "trial": 5, "time_elapsed": 851010, "serialpos": 6, "key_press": -1, "wordID": 1327, "type": "PRES_VIS", "trial_index": 179}, "uniqueid": "MTK2762:336YQZE83WL0EPEKV9SEBNN9TZZM56", "dateTime": 1519323912221}, {"current_trial": 180, "trialdata": {"rt": -1, "trial_type": "single-stim", "word": "stamp", "stimulus": "<p id=\"stim\">STAMP</p>", "conditions": [12, 800, "v", 12000], "internal_node_id": "0.0-126.0", "trial": 5, "time_elapsed": 852746, "serialpos": 7, "key_press": -1, "wordID": 1369, "type": "PRES_VIS", "trial_index": 180}, "uniqueid": "MTK2762:336YQZE83WL0EPEKV9SEBNN9TZZM56", "dateTime": 1519323913957}, {"current_trial": 181, "trialdata": {"rt": -1, "trial_type": "single-stim", "word": "glove", "stimulus": "<p id=\"stim\">GLOVE</p>", "conditions": [12, 800, "v", 12000], "internal_node_id": "0.0-127.0", "trial": 5, "time_elapsed": 854524, "serialpos": 8, "key_press": -1, "wordID": 641, "type": "PRES_VIS", "trial_index": 181}, "uniqueid": "MTK2762:336YQZE83WL0EPEKV9SEBNN9TZZM56", "dateTime": 1519323915735}, {"current_trial": 182, "trialdata": {"rt": -1, "trial_type": "single-stim", "word": "farmer", "stimulus": "<p id=\"stim\">FARMER</p>", "conditions": [12, 800, "v", 12000], "internal_node_id": "0.0-128.0", "trial": 5, "time_elapsed": 856177, "serialpos": 9, "key_press": -1, "wordID": 552, "type": "PRES_VIS", "trial_index": 182}, "uniqueid": "MTK2762:336YQZE83WL0EPEKV9SEBNN9TZZM56", "dateTime": 1519323917388}, {"current_trial": 183, "trialdata": {"rt": -1, "trial_type": "single-stim", "word": "forehead", "stimulus": "<p id=\"stim\">FOREHEAD</p>", "conditions": [12, 800, "v", 12000], "internal_node_id": "0.0-129.0", "trial": 5, "time_elapsed": 857935, "serialpos": 10, "key_press": -1, "wordID": 591, "type": "PRES_VIS", "trial_index": 183}, "uniqueid": "MTK2762:336YQZE83WL0EPEKV9SEBNN9TZZM56", "dateTime": 1519323919146}, {"current_trial": 184, "trialdata": {"rt": -1, "trial_type": "single-stim", "word": "chest", "stimulus": "<p id=\"stim\">CHEST</p>", "conditions": [12, 800, "v", 12000], "internal_node_id": "0.0-130.0", "trial": 5, "time_elapsed": 859666, "serialpos": 11, "key_press": -1, "wordID": 294, "type": "PRES_VIS", "trial_index": 184}, "uniqueid": "MTK2762:336YQZE83WL0EPEKV9SEBNN9TZZM56", "dateTime": 1519323920877}, {"current_trial": 185, "trialdata": {"rt": -1, "trial_type": "single-stim", "stimulus": "", "internal_node_id": "0.0-131.0-0.0", "time_elapsed": 862103, "key_press": -1, "type": "PRE_RECALL_DELAY", "trial_index": 185}, "uniqueid": "MTK2762:336YQZE83WL0EPEKV9SEBNN9TZZM56", "dateTime": 1519323923314}, {"current_trial": 186, "trialdata": {"rt": -1000, "trial_type": "single-audio", "stimulus": "/static/audio/400Hz.wav", "internal_node_id": "0.0-132.0", "time_elapsed": 862605, "key_press": -1, "type": "PRE_RECALL_ALERT", "trial_index": 186}, "uniqueid": "MTK2762:336YQZE83WL0EPEKV9SEBNN9TZZM56", "dateTime": 1519323923816}, {"current_trial": 187, "trialdata": {"rt": [2177, 4249, 5665, 7105, 10177, 12416, 16257, 24793], "recwords": ["chest", "forehead", "farmer", "actor", "notebook", "ankle", "farmer", "slope"], "key_times": [1229, 1417, 1569, 1729, 1914, 2177, 2481, 2649, 2801, 2890, 3305, 3481, 3673, 3953, 4249, 4537, 4712, 4793, 4969, 5201, 5377, 5665, 5881, 6073, 6289, 6433, 6681, 7105, 8097, 8441, 8697, 8865, 9105, 9305, 9497, 9769, 10177, 10569, 10849, 11153, 11610, 12017, 12416, 15297, 15457, 15593, 15737, 15889, 16001, 16257, 23634, 23977, 24217, 24369, 24521, 24793], "trial_type": "free-recall", "conditions": [12, 800, "v", 12000], "internal_node_id": "0.0-133.0-0.0", "key_presses": [67, 72, 69, 83, 84, 13, 70, 79, 82, 69, 72, 69, 65, 68, 13, 70, 65, 82, 77, 69, 82, 13, 65, 67, 84, 79, 82, 13, 78, 79, 84, 69, 66, 79, 79, 75, 13, 65, 78, 75, 76, 69, 13, 70, 65, 82, 77, 69, 82, 13, 83, 76, 79, 80, 69, 13], "trial": 5, "time_elapsed": 922610, "type": "FREE_RECALL", "trial_index": 187}, "uniqueid": "MTK2762:336YQZE83WL0EPEKV9SEBNN9TZZM56", "dateTime": 1519323983826}, {"current_trial": 188, "trialdata": {"rt": 2481, "trial_type": "text", "internal_node_id": "0.0-134.0", "time_elapsed": 927098, "key_press": 100, "type": "INSTRUCTIONS", "trial_index": 188}, "uniqueid": "MTK2762:336YQZE83WL0EPEKV9SEBNN9TZZM56", "dateTime": 1519323988309}, {"current_trial": 189, "trialdata": {"rt": [2164, 4420, 6612, 8932, 10708, 12860, 14388, 16076, 18621, 20276, 22156], "trial_type": "math-distractor", "key_times": [1756, 1948, 2164, 4036, 4244, 4420, 6156, 6380, 6612, 8453, 8684, 8932, 10292, 10484, 10708, 12468, 12668, 12860, 13812, 14028, 14388, 15476, 15740, 16076, 18116, 18356, 18621, 19844, 20060, 20276, 21628, 21828, 22156, 23844], "responses": ["15", "16", "18", "18", "12", "16", "15", "12", "19", "16", "11"], "num2": [7, 7, 5, 5, 1, 6, 8, 8, 9, 5, 2, 3], "num3": [6, 5, 6, 9, 4, 3, 1, 2, 2, 2, 5, 8], "conditions": [12, 1600, "v", 24000], "internal_node_id": "0.0-135.0", "key_presses": [97, 101, 13, 97, 102, 13, 97, 104, 13, 97, 104, 13, 97, 98, 13, 97, 102, 13, 97, 101, 13, 97, 98, 13, 97, 105, 13, 97, 102, 13, 97, 97, 13, 97], "trial": 6, "time_elapsed": 953102, "type": "DISTRACTOR", "trial_index": 189, "num1": [2, 4, 7, 3, 7, 7, 6, 2, 8, 9, 4, 6]}, "uniqueid": "MTK2762:336YQZE83WL0EPEKV9SEBNN9TZZM56", "dateTime": 1519324014314}, {"current_trial": 190, "trialdata": {"rt": -1, "trial_type": "single-stim", "stimulus": "<p id=\"stim\">10</p>", "internal_node_id": "0.0-136.0-0.0", "time_elapsed": 956105, "key_press": -1, "trial_index": 190}, "uniqueid": "MTK2762:336YQZE83WL0EPEKV9SEBNN9TZZM56", "dateTime": 1519324017316}, {"current_trial": 191, "trialdata": {"rt": -1, "trial_type": "single-stim", "stimulus": "<p id=\"stim\">9</p>", "internal_node_id": "0.0-136.0-1.0", "time_elapsed": 957107, "key_press": -1, "trial_index": 191}, "uniqueid": "MTK2762:336YQZE83WL0EPEKV9SEBNN9TZZM56", "dateTime": 1519324018318}, {"current_trial": 192, "trialdata": {"rt": -1, "trial_type": "single-stim", "stimulus": "<p id=\"stim\">8</p>", "internal_node_id": "0.0-136.0-2.0", "time_elapsed": 958108, "key_press": -1, "trial_index": 192}, "uniqueid": "MTK2762:336YQZE83WL0EPEKV9SEBNN9TZZM56", "dateTime": 1519324019319}, {"current_trial": 193, "trialdata": {"rt": -1, "trial_type": "single-stim", "stimulus": "<p id=\"stim\">7</p>", "internal_node_id": "0.0-136.0-3.0", "time_elapsed": 959110, "key_press": -1, "trial_index": 193}, "uniqueid": "MTK2762:336YQZE83WL0EPEKV9SEBNN9TZZM56", "dateTime": 1519324020321}, {"current_trial": 194, "trialdata": {"rt": -1, "trial_type": "single-stim", "stimulus": "<p id=\"stim\">6</p>", "internal_node_id": "0.0-136.0-4.0", "time_elapsed": 960112, "key_press": -1, "trial_index": 194}, "uniqueid": "MTK2762:336YQZE83WL0EPEKV9SEBNN9TZZM56", "dateTime": 1519324021323}, {"current_trial": 195, "trialdata": {"rt": -1, "trial_type": "single-stim", "stimulus": "<p id=\"stim\">5</p>", "internal_node_id": "0.0-136.0-5.0", "time_elapsed": 961114, "key_press": -1, "trial_index": 195}, "uniqueid": "MTK2762:336YQZE83WL0EPEKV9SEBNN9TZZM56", "dateTime": 1519324022325}, {"current_trial": 196, "trialdata": {"rt": -1, "trial_type": "single-stim", "stimulus": "<p id=\"stim\">4</p>", "internal_node_id": "0.0-136.0-6.0", "time_elapsed": 962116, "key_press": -1, "trial_index": 196}, "uniqueid": "MTK2762:336YQZE83WL0EPEKV9SEBNN9TZZM56", "dateTime": 1519324023327}, {"current_trial": 197, "trialdata": {"rt": -1, "trial_type": "single-stim", "stimulus": "<p id=\"stim\">3</p>", "internal_node_id": "0.0-136.0-7.0", "time_elapsed": 963118, "key_press": -1, "trial_index": 197}, "uniqueid": "MTK2762:336YQZE83WL0EPEKV9SEBNN9TZZM56", "dateTime": 1519324024329}, {"current_trial": 198, "trialdata": {"rt": -1, "trial_type": "single-stim", "stimulus": "<p id=\"stim\">2</p>", "internal_node_id": "0.0-136.0-8.0", "time_elapsed": 964120, "key_press": -1, "trial_index": 198}, "uniqueid": "MTK2762:336YQZE83WL0EPEKV9SEBNN9TZZM56", "dateTime": 1519324025331}, {"current_trial": 199, "trialdata": {"rt": -1, "trial_type": "single-stim", "stimulus": "<p id=\"stim\">1</p>", "internal_node_id": "0.0-136.0-9.0", "time_elapsed": 965122, "key_press": -1, "trial_index": 199}, "uniqueid": "MTK2762:336YQZE83WL0EPEKV9SEBNN9TZZM56", "dateTime": 1519324026333}, {"current_trial": 200, "trialdata": {"rt": -1, "trial_type": "single-stim", "stimulus": "<p id=\"stim\">+</p>", "internal_node_id": "0.0-137.0-0.0", "time_elapsed": 966624, "key_press": -1, "type": "FIXATION", "trial_index": 200}, "uniqueid": "MTK2762:336YQZE83WL0EPEKV9SEBNN9TZZM56", "dateTime": 1519324027835}, {"current_trial": 201, "trialdata": {"rt": -1, "trial_type": "single-stim", "word": "honey", "stimulus": "<p id=\"stim\">HONEY</p>", "conditions": [12, 1600, "v", 24000], "internal_node_id": "0.0-138.0", "trial": 6, "time_elapsed": 968226, "serialpos": 0, "key_press": -1, "wordID": 712, "type": "PRES_VIS", "trial_index": 201}, "uniqueid": "MTK2762:336YQZE83WL0EPEKV9SEBNN9TZZM56", "dateTime": 1519324029438}, {"current_trial": 202, "trialdata": {"rt": -1, "trial_type": "single-stim", "word": "panther", "stimulus": "<p id=\"stim\">PANTHER</p>", "conditions": [12, 1600, "v", 24000], "internal_node_id": "0.0-139.0", "trial": 6, "time_elapsed": 970877, "serialpos": 1, "key_press": -1, "wordID": 1008, "type": "PRES_VIS", "trial_index": 202}, "uniqueid": "MTK2762:336YQZE83WL0EPEKV9SEBNN9TZZM56", "dateTime": 1519324032088}, {"current_trial": 203, "trialdata": {"rt": -1, "trial_type": "single-stim", "word": "toaster", "stimulus": "<p id=\"stim\">TOASTER</p>", "conditions": [12, 1600, "v", 24000], "internal_node_id": "0.0-140.0", "trial": 6, "time_elapsed": 973605, "serialpos": 2, "key_press": -1, "wordID": 1471, "type": "PRES_VIS", "trial_index": 203}, "uniqueid": "MTK2762:336YQZE83WL0EPEKV9SEBNN9TZZM56", "dateTime": 1519324034816}, {"current_trial": 204, "trialdata": {"rt": -1, "trial_type": "single-stim", "word": "flask", "stimulus": "<p id=\"stim\">FLASK</p>", "conditions": [12, 1600, "v", 24000], "internal_node_id": "0.0-141.0", "trial": 6, "time_elapsed": 976012, "serialpos": 3, "key_press": -1, "wordID": 575, "type": "PRES_VIS", "trial_index": 204}, "uniqueid": "MTK2762:336YQZE83WL0EPEKV9SEBNN9TZZM56", "dateTime": 1519324037223}, {"current_trial": 205, "trialdata": {"rt": -1, "trial_type": "single-stim", "word": "bacon", "stimulus": "<p id=\"stim\">BACON</p>", "conditions": [12, 1600, "v", 24000], "internal_node_id": "0.0-142.0", "trial": 6, "time_elapsed": 978443, "serialpos": 4, "key_press": -1, "wordID": 66, "type": "PRES_VIS", "trial_index": 205}, "uniqueid": "MTK2762:336YQZE83WL0EPEKV9SEBNN9TZZM56", "dateTime": 1519324039654}, {"current_trial": 206, "trialdata": {"rt": -1, "trial_type": "single-stim", "word": "turkey", "stimulus": "<p id=\"stim\">TURKEY</p>", "conditions": [12, 1600, "v", 24000], "internal_node_id": "0.0-143.0", "trial": 6, "time_elapsed": 981056, "serialpos": 5, "key_press": -1, "wordID": 1519, "type": "PRES_VIS", "trial_index": 206}, "uniqueid": "MTK2762:336YQZE83WL0EPEKV9SEBNN9TZZM56", "dateTime": 1519324042267}, {"current_trial": 207, "trialdata": {"rt": -1, "trial_type": "single-stim", "word": "garbage", "stimulus": "<p id=\"stim\">GARBAGE</p>", "conditions": [12, 1600, "v", 24000], "internal_node_id": "0.0-144.0", "trial": 6, "time_elapsed": 983560, "serialpos": 6, "key_press": -1, "wordID": 621, "type": "PRES_VIS", "trial_index": 207}, "uniqueid": "MTK2762:336YQZE83WL0EPEKV9SEBNN9TZZM56", "dateTime": 1519324044772}, {"current_trial": 208, "trialdata": {"rt": -1, "trial_type": "single-stim", "word": "drawing", "stimulus": "<p id=\"stim\">DRAWING</p>", "conditions": [12, 1600, "v", 24000], "internal_node_id": "0.0-145.0", "trial": 6, "time_elapsed": 986096, "serialpos": 7, "key_press": -1, "wordID": 493, "type": "PRES_VIS", "trial_index": 208}, "uniqueid": "MTK2762:336YQZE83WL0EPEKV9SEBNN9TZZM56", "dateTime": 1519324047307}, {"current_trial": 209, "trialdata": {"rt": -1, "trial_type": "single-stim", "word": "tunnel", "stimulus": "<p id=\"stim\">TUNNEL</p>", "conditions": [12, 1600, "v", 24000], "internal_node_id": "0.0-146.0", "trial": 6, "time_elapsed": 988829, "serialpos": 8, "key_press": -1, "wordID": 1518, "type": "PRES_VIS", "trial_index": 209}, "uniqueid": "MTK2762:336YQZE83WL0EPEKV9SEBNN9TZZM56", "dateTime": 1519324050041}, {"current_trial": 210, "trialdata": {"rt": -1, "trial_type": "single-stim", "word": "peach", "stimulus": "<p id=\"stim\">PEACH</p>", "conditions": [12, 1600, "v", 24000], "internal_node_id": "0.0-147.0", "trial": 6, "time_elapsed": 991344, "serialpos": 9, "key_press": -1, "wordID": 1030, "type": "PRES_VIS", "trial_index": 210}, "uniqueid": "MTK2762:336YQZE83WL0EPEKV9SEBNN9TZZM56", "dateTime": 1519324052555}, {"current_trial": 211, "trialdata": {"rt": -1, "trial_type": "single-stim", "word": "scribble", "stimulus": "<p id=\"stim\">SCRIBBLE</p>", "conditions": [12, 1600, "v", 24000], "internal_node_id": "0.0-148.0", "trial": 6, "time_elapsed": 993785, "serialpos": 10, "key_press": -1, "wordID": 1255, "type": "PRES_VIS", "trial_index": 211}, "uniqueid": "MTK2762:336YQZE83WL0EPEKV9SEBNN9TZZM56", "dateTime": 1519324054996}, {"current_trial": 212, "trialdata": {"rt": -1, "trial_type": "single-stim", "word": "zebra", "stimulus": "<p id=\"stim\">ZEBRA</p>", "conditions": [12, 1600, "v", 24000], "internal_node_id": "0.0-149.0", "trial": 6, "time_elapsed": 996585, "serialpos": 11, "key_press": -1, "wordID": 1634, "type": "PRES_VIS", "trial_index": 212}, "uniqueid": "MTK2762:336YQZE83WL0EPEKV9SEBNN9TZZM56", "dateTime": 1519324057796}, {"current_trial": 213, "trialdata": {"rt": -1, "trial_type": "single-stim", "stimulus": "", "internal_node_id": "0.0-150.0-0.0", "time_elapsed": 998901, "key_press": -1, "type": "PRE_RECALL_DELAY", "trial_index": 213}, "uniqueid": "MTK2762:336YQZE83WL0EPEKV9SEBNN9TZZM56", "dateTime": 1519324060112}, {"current_trial": 214, "trialdata": {"rt": -1000, "trial_type": "single-audio", "stimulus": "/static/audio/400Hz.wav", "internal_node_id": "0.0-151.0", "time_elapsed": 999403, "key_press": -1, "type": "PRE_RECALL_ALERT", "trial_index": 214}, "uniqueid": "MTK2762:336YQZE83WL0EPEKV9SEBNN9TZZM56", "dateTime": 1519324060614}, {"current_trial": 215, "trialdata": {"rt": [1635, 4739, 6846, 9422, 12869, 15469, 18341, 25093, 51973], "recwords": ["peach", "scribble", "zebra", "toast", "honey", "bacom", "turkey", "flask", "panther"], "key_times": [550, 659, 795, 1043, 1219, 1635, 1923, 2155, 2355, 2531, 2867, 3043, 3444, 3939, 4259, 4483, 4739, 5379, 5802, 6094, 6357, 6533, 6846, 7230, 8430, 8638, 8870, 9062, 9422, 9894, 10157, 10429, 11175, 11358, 11541, 11869, 12038, 12181, 12358, 12510, 12869, 13453, 13694, 13925, 14101, 14462, 15469, 16229, 16557, 16741, 16997, 17317, 17397, 18341, 23606, 23965, 24205, 24462, 24653, 25093, 50758, 50941, 51102, 51293, 51421, 51549, 51637, 51973], "trial_type": "free-recall", "conditions": [12, 1600, "v", 24000], "internal_node_id": "0.0-152.0-0.0", "key_presses": [80, 69, 65, 67, 72, 13, 83, 67, 82, 73, 66, 66, 69, 8, 76, 69, 13, 90, 69, 66, 82, 65, 13, 84, 79, 65, 83, 84, 13, 78, 79, 78, 8, 8, 8, 72, 79, 78, 69, 89, 13, 66, 65, 67, 79, 77, 13, 84, 85, 82, 75, 69, 89, 13, 70, 76, 65, 83, 75, 13, 80, 65, 78, 84, 72, 69, 82, 13], "trial": 6, "time_elapsed": 1059401, "type": "FREE_RECALL", "trial_index": 215}, "uniqueid": "MTK2762:336YQZE83WL0EPEKV9SEBNN9TZZM56", "dateTime": 1519324120620}, {"current_trial": 216, "trialdata": {"rt": 1906, "trial_type": "text", "internal_node_id": "0.0-153.0", "time_elapsed": 1063316, "key_press": 100, "type": "INSTRUCTIONS", "trial_index": 216}, "uniqueid": "MTK2762:336YQZE83WL0EPEKV9SEBNN9TZZM56", "dateTime": 1519324124527}, {"current_trial": 217, "trialdata": {"rt": [1835, 3203, 5371, 7339, 9107, 11211, 13436, 15019, 17139, 19395, 21436, 23211], "trial_type": "math-distractor", "key_times": [1435, 1619, 1835, 2931, 3203, 4891, 5123, 5371, 6891, 7148, 7339, 8780, 9107, 10739, 10947, 11211, 12995, 13195, 13436, 14555, 14771, 15019, 16747, 16947, 17139, 19004, 19187, 19395, 21035, 21235, 21436, 22683, 22947, 23211], "responses": ["20", "5", "19", "15", "9", "16", "20", "15", "11", "15", "23", "16"], "num2": [3, 1, 1, 6, 6, 9, 9, 7, 2, 4, 7, 1, 2], "num3": [9, 1, 9, 4, 2, 4, 2, 3, 2, 9, 7, 9, 3], "conditions": [24, 1600, "v", 24000], "internal_node_id": "0.0-154.0", "key_presses": [98, 96, 13, 101, 13, 97, 105, 13, 97, 101, 13, 105, 13, 97, 102, 13, 98, 96, 13, 97, 101, 13, 97, 97, 13, 97, 101, 13, 98, 99, 13, 97, 102, 13], "trial": 7, "time_elapsed": 1089326, "type": "DISTRACTOR", "trial_index": 217, "num1": [8, 3, 9, 5, 1, 3, 9, 6, 7, 2, 9, 6, 5]}, "uniqueid": "MTK2762:336YQZE83WL0EPEKV9SEBNN9TZZM56", "dateTime": 1519324150537}, {"current_trial": 218, "trialdata": {"rt": -1, "trial_type": "single-stim", "stimulus": "<p id=\"stim\">10</p>", "internal_node_id": "0.0-155.0-0.0", "time_elapsed": 1092328, "key_press": -1, "trial_index": 218}, "uniqueid": "MTK2762:336YQZE83WL0EPEKV9SEBNN9TZZM56", "dateTime": 1519324153540}, {"current_trial": 219, "trialdata": {"rt": -1, "trial_type": "single-stim", "stimulus": "<p id=\"stim\">9</p>", "internal_node_id": "0.0-155.0-1.0", "time_elapsed": 1093331, "key_press": -1, "trial_index": 219}, "uniqueid": "MTK2762:336YQZE83WL0EPEKV9SEBNN9TZZM56", "dateTime": 1519324154542}, {"current_trial": 220, "trialdata": {"rt": -1, "trial_type": "single-stim", "stimulus": "<p id=\"stim\">8</p>", "internal_node_id": "0.0-155.0-2.0", "time_elapsed": 1094333, "key_press": -1, "trial_index": 220}, "uniqueid": "MTK2762:336YQZE83WL0EPEKV9SEBNN9TZZM56", "dateTime": 1519324155544}, {"current_trial": 221, "trialdata": {"rt": -1, "trial_type": "single-stim", "stimulus": "<p id=\"stim\">7</p>", "internal_node_id": "0.0-155.0-3.0", "time_elapsed": 1095335, "key_press": -1, "trial_index": 221}, "uniqueid": "MTK2762:336YQZE83WL0EPEKV9SEBNN9TZZM56", "dateTime": 1519324156546}, {"current_trial": 222, "trialdata": {"rt": -1, "trial_type": "single-stim", "stimulus": "<p id=\"stim\">6</p>", "internal_node_id": "0.0-155.0-4.0", "time_elapsed": 1096337, "key_press": -1, "trial_index": 222}, "uniqueid": "MTK2762:336YQZE83WL0EPEKV9SEBNN9TZZM56", "dateTime": 1519324157548}, {"current_trial": 223, "trialdata": {"rt": -1, "trial_type": "single-stim", "stimulus": "<p id=\"stim\">5</p>", "internal_node_id": "0.0-155.0-5.0", "time_elapsed": 1097339, "key_press": -1, "trial_index": 223}, "uniqueid": "MTK2762:336YQZE83WL0EPEKV9SEBNN9TZZM56", "dateTime": 1519324158550}, {"current_trial": 224, "trialdata": {"rt": -1, "trial_type": "single-stim", "stimulus": "<p id=\"stim\">4</p>", "internal_node_id": "0.0-155.0-6.0", "time_elapsed": 1098341, "key_press": -1, "trial_index": 224}, "uniqueid": "MTK2762:336YQZE83WL0EPEKV9SEBNN9TZZM56", "dateTime": 1519324159552}, {"current_trial": 225, "trialdata": {"rt": -1, "trial_type": "single-stim", "stimulus": "<p id=\"stim\">3</p>", "internal_node_id": "0.0-155.0-7.0", "time_elapsed": 1099343, "key_press": -1, "trial_index": 225}, "uniqueid": "MTK2762:336YQZE83WL0EPEKV9SEBNN9TZZM56", "dateTime": 1519324160554}, {"current_trial": 226, "trialdata": {"rt": -1, "trial_type": "single-stim", "stimulus": "<p id=\"stim\">2</p>", "internal_node_id": "0.0-155.0-8.0", "time_elapsed": 1100345, "key_press": -1, "trial_index": 226}, "uniqueid": "MTK2762:336YQZE83WL0EPEKV9SEBNN9TZZM56", "dateTime": 1519324161556}, {"current_trial": 227, "trialdata": {"rt": -1, "trial_type": "single-stim", "stimulus": "<p id=\"stim\">1</p>", "internal_node_id": "0.0-155.0-9.0", "time_elapsed": 1101347, "key_press": -1, "trial_index": 227}, "uniqueid": "MTK2762:336YQZE83WL0EPEKV9SEBNN9TZZM56", "dateTime": 1519324162558}, {"current_trial": 228, "trialdata": {"rt": -1, "trial_type": "single-stim", "stimulus": "<p id=\"stim\">+</p>", "internal_node_id": "0.0-156.0-0.0", "time_elapsed": 1102849, "key_press": -1, "type": "FIXATION", "trial_index": 228}, "uniqueid": "MTK2762:336YQZE83WL0EPEKV9SEBNN9TZZM56", "dateTime": 1519324164060}, {"current_trial": 229, "trialdata": {"rt": -1, "trial_type": "single-stim", "word": "jungle", "stimulus": "<p id=\"stim\">JUNGLE</p>", "conditions": [24, 1600, "v", 24000], "internal_node_id": "0.0-157.0", "trial": 7, "time_elapsed": 1104451, "serialpos": 0, "key_press": -1, "wordID": 763, "type": "PRES_VIS", "trial_index": 229}, "uniqueid": "MTK2762:336YQZE83WL0EPEKV9SEBNN9TZZM56", "dateTime": 1519324165662}, {"current_trial": 230, "trialdata": {"rt": -1, "trial_type": "single-stim", "word": "blade", "stimulus": "<p id=\"stim\">BLADE</p>", "conditions": [24, 1600, "v", 24000], "internal_node_id": "0.0-158.0", "trial": 7, "time_elapsed": 1107226, "serialpos": 1, "key_press": -1, "wordID": 133, "type": "PRES_VIS", "trial_index": 230}, "uniqueid": "MTK2762:336YQZE83WL0EPEKV9SEBNN9TZZM56", "dateTime": 1519324168438}, {"current_trial": 231, "trialdata": {"rt": -1, "trial_type": "single-stim", "word": "salt", "stimulus": "<p id=\"stim\">SALT</p>", "conditions": [24, 1600, "v", 24000], "internal_node_id": "0.0-159.0", "trial": 7, "time_elapsed": 1109857, "serialpos": 2, "key_press": -1, "wordID": 1228, "type": "PRES_VIS", "trial_index": 231}, "uniqueid": "MTK2762:336YQZE83WL0EPEKV9SEBNN9TZZM56", "dateTime": 1519324171069}, {"current_trial": 232, "trialdata": {"rt": -1, "trial_type": "single-stim", "word": "garden", "stimulus": "<p id=\"stim\">GARDEN</p>", "conditions": [24, 1600, "v", 24000], "internal_node_id": "0.0-160.0", "trial": 7, "time_elapsed": 1112270, "serialpos": 3, "key_press": -1, "wordID": 622, "type": "PRES_VIS", "trial_index": 232}, "uniqueid": "MTK2762:336YQZE83WL0EPEKV9SEBNN9TZZM56", "dateTime": 1519324173482}, {"current_trial": 233, "trialdata": {"rt": -1, "trial_type": "single-stim", "word": "donkey", "stimulus": "<p id=\"stim\">DONKEY</p>", "conditions": [24, 1600, "v", 24000], "internal_node_id": "0.0-161.0", "trial": 7, "time_elapsed": 1114813, "serialpos": 4, "key_press": -1, "wordID": 483, "type": "PRES_VIS", "trial_index": 233}, "uniqueid": "MTK2762:336YQZE83WL0EPEKV9SEBNN9TZZM56", "dateTime": 1519324176024}, {"current_trial": 234, "trialdata": {"rt": -1, "trial_type": "single-stim", "word": "knife", "stimulus": "<p id=\"stim\">KNIFE</p>", "conditions": [24, 1600, "v", 24000], "internal_node_id": "0.0-162.0", "trial": 7, "time_elapsed": 1117544, "serialpos": 5, "key_press": -1, "wordID": 784, "type": "PRES_VIS", "trial_index": 234}, "uniqueid": "MTK2762:336YQZE83WL0EPEKV9SEBNN9TZZM56", "dateTime": 1519324178755}, {"current_trial": 235, "trialdata": {"rt": -1, "trial_type": "single-stim", "word": "cashew", "stimulus": "<p id=\"stim\">CASHEW</p>", "conditions": [24, 1600, "v", 24000], "internal_node_id": "0.0-163.0", "trial": 7, "time_elapsed": 1119983, "serialpos": 6, "key_press": -1, "wordID": 252, "type": "PRES_VIS", "trial_index": 235}, "uniqueid": "MTK2762:336YQZE83WL0EPEKV9SEBNN9TZZM56", "dateTime": 1519324181194}, {"current_trial": 236, "trialdata": {"rt": -1, "trial_type": "single-stim", "word": "lava", "stimulus": "<p id=\"stim\">LAVA</p>", "conditions": [24, 1600, "v", 24000], "internal_node_id": "0.0-164.0", "trial": 7, "time_elapsed": 1122655, "serialpos": 7, "key_press": -1, "wordID": 803, "type": "PRES_VIS", "trial_index": 236}, "uniqueid": "MTK2762:336YQZE83WL0EPEKV9SEBNN9TZZM56", "dateTime": 1519324183866}, {"current_trial": 237, "trialdata": {"rt": -1, "trial_type": "single-stim", "word": "stream", "stimulus": "<p id=\"stim\">STREAM</p>", "conditions": [24, 1600, "v", 24000], "internal_node_id": "0.0-165.0", "trial": 7, "time_elapsed": 1125419, "serialpos": 8, "key_press": -1, "wordID": 1391, "type": "PRES_VIS", "trial_index": 237}, "uniqueid": "MTK2762:336YQZE83WL0EPEKV9SEBNN9TZZM56", "dateTime": 1519324186630}, {"current_trial": 238, "trialdata": {"rt": -1, "trial_type": "single-stim", "word": "human", "stimulus": "<p id=\"stim\">HUMAN</p>", "conditions": [24, 1600, "v", 24000], "internal_node_id": "0.0-166.0", "trial": 7, "time_elapsed": 1128129, "serialpos": 9, "key_press": -1, "wordID": 725, "type": "PRES_VIS", "trial_index": 238}, "uniqueid": "MTK2762:336YQZE83WL0EPEKV9SEBNN9TZZM56", "dateTime": 1519324189340}, {"current_trial": 239, "trialdata": {"rt": -1, "trial_type": "single-stim", "word": "suitcase", "stimulus": "<p id=\"stim\">SUITCASE</p>", "conditions": [24, 1600, "v", 24000], "internal_node_id": "0.0-167.0", "trial": 7, "time_elapsed": 1130672, "serialpos": 10, "key_press": -1, "wordID": 1402, "type": "PRES_VIS", "trial_index": 239}, "uniqueid": "MTK2762:336YQZE83WL0EPEKV9SEBNN9TZZM56", "dateTime": 1519324191883}, {"current_trial": 240, "trialdata": {"rt": -1, "trial_type": "single-stim", "word": "knapsack", "stimulus": "<p id=\"stim\">KNAPSACK</p>", "conditions": [24, 1600, "v", 24000], "internal_node_id": "0.0-168.0", "trial": 7, "time_elapsed": 1133372, "serialpos": 11, "key_press": -1, "wordID": 782, "type": "PRES_VIS", "trial_index": 240}, "uniqueid": "MTK2762:336YQZE83WL0EPEKV9SEBNN9TZZM56", "dateTime": 1519324194584}, {"current_trial": 241, "trialdata": {"rt": -1, "trial_type": "single-stim", "word": "diner", "stimulus": "<p id=\"stim\">DINER</p>", "conditions": [24, 1600, "v", 24000], "internal_node_id": "0.0-169.0", "trial": 7, "time_elapsed": 1136005, "serialpos": 12, "key_press": -1, "wordID": 466, "type": "PRES_VIS", "trial_index": 241}, "uniqueid": "MTK2762:336YQZE83WL0EPEKV9SEBNN9TZZM56", "dateTime": 1519324197217}, {"current_trial": 242, "trialdata": {"rt": -1, "trial_type": "single-stim", "word": "clam", "stimulus": "<p id=\"stim\">CLAM</p>", "conditions": [24, 1600, "v", 24000], "internal_node_id": "0.0-170.0", "trial": 7, "time_elapsed": 1138666, "serialpos": 13, "key_press": -1, "wordID": 314, "type": "PRES_VIS", "trial_index": 242}, "uniqueid": "MTK2762:336YQZE83WL0EPEKV9SEBNN9TZZM56", "dateTime": 1519324199877}, {"current_trial": 243, "trialdata": {"rt": -1, "trial_type": "single-stim", "word": "scissors", "stimulus": "<p id=\"stim\">SCISSORS</p>", "conditions": [24, 1600, "v", 24000], "internal_node_id": "0.0-171.0", "trial": 7, "time_elapsed": 1141368, "serialpos": 14, "key_press": -1, "wordID": 1249, "type": "PRES_VIS", "trial_index": 243}, "uniqueid": "MTK2762:336YQZE83WL0EPEKV9SEBNN9TZZM56", "dateTime": 1519324202579}, {"current_trial": 244, "trialdata": {"rt": -1, "trial_type": "single-stim", "word": "buggy", "stimulus": "<p id=\"stim\">BUGGY</p>", "conditions": [24, 1600, "v", 24000], "internal_node_id": "0.0-172.0", "trial": 7, "time_elapsed": 1144141, "serialpos": 15, "key_press": -1, "wordID": 187, "type": "PRES_VIS", "trial_index": 244}, "uniqueid": "MTK2762:336YQZE83WL0EPEKV9SEBNN9TZZM56", "dateTime": 1519324205352}, {"current_trial": 245, "trialdata": {"rt": -1, "trial_type": "single-stim", "word": "lake", "stimulus": "<p id=\"stim\">LAKE</p>", "conditions": [24, 1600, "v", 24000], "internal_node_id": "0.0-173.0", "trial": 7, "time_elapsed": 1146852, "serialpos": 16, "key_press": -1, "wordID": 795, "type": "PRES_VIS", "trial_index": 245}, "uniqueid": "MTK2762:336YQZE83WL0EPEKV9SEBNN9TZZM56", "dateTime": 1519324208063}, {"current_trial": 246, "trialdata": {"rt": -1, "trial_type": "single-stim", "word": "canal", "stimulus": "<p id=\"stim\">CANAL</p>", "conditions": [24, 1600, "v", 24000], "internal_node_id": "0.0-174.0", "trial": 7, "time_elapsed": 1149429, "serialpos": 17, "key_press": -1, "wordID": 225, "type": "PRES_VIS", "trial_index": 246}, "uniqueid": "MTK2762:336YQZE83WL0EPEKV9SEBNN9TZZM56", "dateTime": 1519324210640}, {"current_trial": 247, "trialdata": {"rt": -1, "trial_type": "single-stim", "word": "cabin", "stimulus": "<p id=\"stim\">CABIN</p>", "conditions": [24, 1600, "v", 24000], "internal_node_id": "0.0-175.0", "trial": 7, "time_elapsed": 1151971, "serialpos": 18, "key_press": -1, "wordID": 210, "type": "PRES_VIS", "trial_index": 247}, "uniqueid": "MTK2762:336YQZE83WL0EPEKV9SEBNN9TZZM56", "dateTime": 1519324213182}, {"current_trial": 248, "trialdata": {"rt": -1, "trial_type": "single-stim", "word": "scalpel", "stimulus": "<p id=\"stim\">SCALPEL</p>", "conditions": [24, 1600, "v", 24000], "internal_node_id": "0.0-176.0", "trial": 7, "time_elapsed": 1154551, "serialpos": 19, "key_press": -1, "wordID": 1242, "type": "PRES_VIS", "trial_index": 248}, "uniqueid": "MTK2762:336YQZE83WL0EPEKV9SEBNN9TZZM56", "dateTime": 1519324215763}, {"current_trial": 249, "trialdata": {"rt": -1, "trial_type": "single-stim", "word": "xerox", "stimulus": "<p id=\"stim\">XEROX</p>", "conditions": [24, 1600, "v", 24000], "internal_node_id": "0.0-177.0", "trial": 7, "time_elapsed": 1156957, "serialpos": 20, "key_press": -1, "wordID": 1627, "type": "PRES_VIS", "trial_index": 249}, "uniqueid": "MTK2762:336YQZE83WL0EPEKV9SEBNN9TZZM56", "dateTime": 1519324218168}, {"current_trial": 250, "trialdata": {"rt": -1, "trial_type": "single-stim", "word": "zipper", "stimulus": "<p id=\"stim\">ZIPPER</p>", "conditions": [24, 1600, "v", 24000], "internal_node_id": "0.0-178.0", "trial": 7, "time_elapsed": 1159382, "serialpos": 21, "key_press": -1, "wordID": 1635, "type": "PRES_VIS", "trial_index": 250}, "uniqueid": "MTK2762:336YQZE83WL0EPEKV9SEBNN9TZZM56", "dateTime": 1519324220593}, {"current_trial": 251, "trialdata": {"rt": -1, "trial_type": "single-stim", "word": "viking", "stimulus": "<p id=\"stim\">VIKING</p>", "conditions": [24, 1600, "v", 24000], "internal_node_id": "0.0-179.0", "trial": 7, "time_elapsed": 1161805, "serialpos": 22, "key_press": -1, "wordID": 1564, "type": "PRES_VIS", "trial_index": 251}, "uniqueid": "MTK2762:336YQZE83WL0EPEKV9SEBNN9TZZM56", "dateTime": 1519324223016}, {"current_trial": 252, "trialdata": {"rt": -1, "trial_type": "single-stim", "word": "brick", "stimulus": "<p id=\"stim\">BRICK</p>", "conditions": [24, 1600, "v", 24000], "internal_node_id": "0.0-180.0", "trial": 7, "time_elapsed": 1164538, "serialpos": 23, "key_press": -1, "wordID": 171, "type": "PRES_VIS", "trial_index": 252}, "uniqueid": "MTK2762:336YQZE83WL0EPEKV9SEBNN9TZZM56", "dateTime": 1519324225749}, {"current_trial": 253, "trialdata": {"rt": -1, "trial_type": "single-stim", "stimulus": "", "internal_node_id": "0.0-181.0-0.0", "time_elapsed": 1166924, "key_press": -1, "type": "PRE_RECALL_DELAY", "trial_index": 253}, "uniqueid": "MTK2762:336YQZE83WL0EPEKV9SEBNN9TZZM56", "dateTime": 1519324228135}, {"current_trial": 254, "trialdata": {"rt": -1000, "trial_type": "single-audio", "stimulus": "/static/audio/400Hz.wav", "internal_node_id": "0.0-182.0", "time_elapsed": 1167426, "key_press": -1, "type": "PRE_RECALL_ALERT", "trial_index": 254}, "uniqueid": "MTK2762:336YQZE83WL0EPEKV9SEBNN9TZZM56", "dateTime": 1519324228637}, {"current_trial": 255, "trialdata": {"rt": [2962, 5042, 8042, 10802, 16362, 21652, 24827, 32643, 48643], "recwords": ["brick", "viking", "garden", "jungle", "zebra", "knapsack", "suitcase", "zipper", "donkey"], "key_times": [1484, 1819, 2092, 2309, 2530, 2962, 3291, 3474, 4099, 4331, 4514, 4730, 5042, 5834, 6514, 6731, 6890, 6970, 7306, 7522, 7659, 8042, 8818, 9026, 9242, 9490, 9714, 10019, 10802, 14988, 15250, 1