{"assignmentId": "3ZWFC4W1UVEJD2K16T14JY8WMEXRFX", "workerId": "MTK2231", "questiondata": {"origin": "United States", "strat-rehearsal": "0", "marital": "Single", "education": "Associate degree", "ethnicity": "Not Hispanic", "color_depth": 24, "distracted": "No", "wrote-notes": "Yes", "strat-other": "", "screen_width": 1536, "avail_screen_width": 1536, "avail_screen_height": 824, "strat-image": "49", "language": "English", "gender": "Male", "age": "28", "gender_other": "", "race": ["White"], "strat-categorize": "70", "pixel_depth": 24, "strat-spatial": "0", "strat-story": "0", "race_other": "", "screen_height": 864}, "bonus": 0, "hitId": "3NCN4N1H1GO6Y3IZIITP24GHNR4BNL", "counterbalance": 1445, "useragent": "Mozilla/5.0 (Windows NT 10.0; Win64; x64) AppleWebKit/537.36 (KHTML, like Gecko) Chrome/63.0.3239.132 Safari/537.36", "eventdata": [{"eventtype": "initialized", "interval": 0, "value": null, "timestamp": 1516897902448}, {"eventtype": "window_resize", "interval": 0, "value": [1925, 1020], "timestamp": 1516897902448}, {"eventtype": "focus", "interval": 4799, "value": "off", "timestamp": 1516897907247}, {"eventtype": "focus", "interval": 12179, "value": "on", "timestamp": 1516897919426}, {"eventtype": "focus", "interval": 1452, "value": "off", "timestamp": 1516897920878}, {"eventtype": "focus", "interval": 4305, "value": "on", "timestamp": 1516897925183}, {"eventtype": "window_resize", "interval": 1523, "value": [1920, 967], "timestamp": 1516897926706}, {"eventtype": "window_resize", "interval": 5599, "value": [1925, 1020], "timestamp": 1516897932305}, {"eventtype": "focus", "interval": 6484, "value": "off", "timestamp": 1516897938789}, {"eventtype": "focus", "interval": 8179, "value": "on", "timestamp": 1516897946968}, {"eventtype": "focus", "interval": 23549, "value": "off", "timestamp": 1516897970517}, {"eventtype": "focus", "interval": 0, "value": "on", "timestamp": 1516897970517}, {"eventtype": "focus", "interval": 72673, "value": "off", "timestamp": 1516898043190}, {"eventtype": "focus", "interval": 3803, "value": "on", "timestamp": 1516898046993}, {"eventtype": "focus", "interval": 161492, "value": "off", "timestamp": 1516898208485}, {"eventtype": "focus", "interval": 4049, "value": "on", "timestamp": 1516898212534}, {"eventtype": "focus", "interval": 38664, "value": "off", "timestamp": 1516898251198}, {"eventtype": "focus", "interval": 4257, "value": "on", "timestamp": 1516898255455}, {"eventtype": "focus", "interval": 10702, "value": "off", "timestamp": 1516898266157}, {"eventtype": "focus", "interval": 107, "value": "on", "timestamp": 1516898266264}, {"eventtype": "focus", "interval": 950, "value": "off", "timestamp": 1516898267214}, {"eventtype": "focus", "interval": 16120, "value": "on", "timestamp": 1516898283334}, {"eventtype": "focus", "interval": 88695, "value": "off", "timestamp": 1516898372029}, {"eventtype": "focus", "interval": 11001, "value": "on", "timestamp": 1516898383030}, {"eventtype": "focus", "interval": 547437, "value": "off", "timestamp": 1516898930467}, {"eventtype": "focus", "interval": 17178, "value": "on", "timestamp": 1516898947645}, {"eventtype": "focus", "interval": 1874945, "value": "off", "timestamp": 1516900822590}, {"eventtype": "focus", "interval": 3853, "value": "on", "timestamp": 1516900826443}, {"eventtype": "focus", "interval": 2282, "value": "off", "timestamp": 1516900828725}, {"eventtype": "focus", "interval": 889, "value": "on", "timestamp": 1516900829614}, {"eventtype": "focus", "interval": 25919, "value": "off", "timestamp": 1516900855533}, {"eventtype": "focus", "interval": 4994, "value": "on", "timestamp": 1516900860527}], "data": [{"current_trial": 0, "trialdata": {"rt": 4602, "trial_type": "text", "internal_node_id": "0.0-0.0", "time_elapsed": 4603, "key_press": 67, "type": "INSTRUCTIONS", "trial_index": 0}, "uniqueid": "MTK2231:3ZWFC4W1UVEJD2K16T14JY8WMEXRFX", "dateTime": 1516897948470}, {"current_trial": 1, "trialdata": {"rt": 13951, "trial_type": "text", "internal_node_id": "0.0-1.0", "time_elapsed": 18554, "key_press": 68, "type": "INSTRUCTIONS", "trial_index": 1}, "uniqueid": "MTK2231:3ZWFC4W1UVEJD2K16T14JY8WMEXRFX", "dateTime": 1516897962421}, {"current_trial": 2, "trialdata": {"rt": [4023], "trial_type": "audio-test", "responses": ["ocean"], "internal_node_id": "0.0-2.0", "time_elapsed": 22586, "type": "AUDIO_TEST", "trial_index": 2}, "uniqueid": "MTK2231:3ZWFC4W1UVEJD2K16T14JY8WMEXRFX", "dateTime": 1516897966453}, {"current_trial": 3, "trialdata": {"rt": [2206, 8830], "trial_type": "audio-test", "responses": ["", "crystal"], "internal_node_id": "0.0-3.0", "time_elapsed": 31418, "type": "AUDIO_TEST", "trial_index": 3}, "uniqueid": "MTK2231:3ZWFC4W1UVEJD2K16T14JY8WMEXRFX", "dateTime": 1516897975285}, {"current_trial": 4, "trialdata": {"rt": [8141], "trial_type": "audio-test", "responses": ["spice"], "internal_node_id": "0.0-4.0", "time_elapsed": 39562, "type": "AUDIO_TEST", "trial_index": 4}, "uniqueid": "MTK2231:3ZWFC4W1UVEJD2K16T14JY8WMEXRFX", "dateTime": 1516897983429}, {"current_trial": 5, "trialdata": {"rt": 45921, "trial_type": "survey-text", "responses": "{\"Q0\":\"12:00 am\",\"Q1\":\"6:00 am\",\"Q2\":\"5\"}", "internal_node_id": "0.0-5.0", "time_elapsed": 86235, "type": "SLEEP_SURVEY", "trial_index": 5}, "uniqueid": "MTK2231:3ZWFC4W1UVEJD2K16T14JY8WMEXRFX", "dateTime": 1516898030102}, {"current_trial": 6, "trialdata": {"rt": 27221, "trial_type": "text", "internal_node_id": "0.0-6.0", "time_elapsed": 114458, "key_press": 67, "type": "INSTRUCTIONS", "trial_index": 6}, "uniqueid": "MTK2231:3ZWFC4W1UVEJD2K16T14JY8WMEXRFX", "dateTime": 1516898058325}, {"current_trial": 7, "trialdata": {"rt": 3609, "trial_type": "text", "internal_node_id": "0.0-7.0", "time_elapsed": 118570, "key_press": 67, "type": "INSTRUCTIONS", "trial_index": 7}, "uniqueid": "MTK2231:3ZWFC4W1UVEJD2K16T14JY8WMEXRFX", "dateTime": 1516898062437}, {"current_trial": 8, "trialdata": {"rt": 411, "trial_type": "text", "internal_node_id": "0.0-8.0", "time_elapsed": 119482, "key_press": 67, "type": "INSTRUCTIONS", "trial_index": 8}, "uniqueid": "MTK2231:3ZWFC4W1UVEJD2K16T14JY8WMEXRFX", "dateTime": 1516898063349}, {"current_trial": 9, "trialdata": {"rt": [3108, 7060, 9524, 11348, 13700, 15508], "trial_type": "math-distractor", "key_times": [2741, 3108, 6660, 6836, 7060, 9284, 9381, 9524, 11204, 11348, 13364, 13620, 13700, 15236, 15396, 15508], "responses": ["8", "17", "18", "7", "14", "15"], "num2": [2, 8, 3, 1, 5, 8, 1], "num3": [1, 5, 6, 1, 6, 4, 1], "conditions": [18, 1200, "a", 18000], "internal_node_id": "0.0-9.0", "key_presses": [56, 13, 49, 55, 13, 49, 56, 13, 55, 13, 49, 52, 13, 49, 53, 13], "trial": 0, "time_elapsed": 138487, "type": "DISTRACTOR", "trial_index": 9, "num1": [5, 4, 9, 5, 3, 3, 4]}, "uniqueid": "MTK2231:3ZWFC4W1UVEJD2K16T14JY8WMEXRFX", "dateTime": 1516898082354}, {"current_trial": 10, "trialdata": {"rt": -1, "trial_type": "single-stim", "stimulus": "<p id=\"stim\">10</p>", "internal_node_id": "0.0-10.0-0.0", "time_elapsed": 141489, "key_press": -1, "trial_index": 10}, "uniqueid": "MTK2231:3ZWFC4W1UVEJD2K16T14JY8WMEXRFX", "dateTime": 1516898085356}, {"current_trial": 11, "trialdata": {"rt": -1, "trial_type": "single-stim", "stimulus": "<p id=\"stim\">9</p>", "internal_node_id": "0.0-10.0-1.0", "time_elapsed": 142490, "key_press": -1, "trial_index": 11}, "uniqueid": "MTK2231:3ZWFC4W1UVEJD2K16T14JY8WMEXRFX", "dateTime": 1516898086357}, {"current_trial": 12, "trialdata": {"rt": -1, "trial_type": "single-stim", "stimulus": "<p id=\"stim\">8</p>", "internal_node_id": "0.0-10.0-2.0", "time_elapsed": 143492, "key_press": -1, "trial_index": 12}, "uniqueid": "MTK2231:3ZWFC4W1UVEJD2K16T14JY8WMEXRFX", "dateTime": 1516898087359}, {"current_trial": 13, "trialdata": {"rt": -1, "trial_type": "single-stim", "stimulus": "<p id=\"stim\">7</p>", "internal_node_id": "0.0-10.0-3.0", "time_elapsed": 144493, "key_press": -1, "trial_index": 13}, "uniqueid": "MTK2231:3ZWFC4W1UVEJD2K16T14JY8WMEXRFX", "dateTime": 1516898088360}, {"current_trial": 14, "trialdata": {"rt": -1, "trial_type": "single-stim", "stimulus": "<p id=\"stim\">6</p>", "internal_node_id": "0.0-10.0-4.0", "time_elapsed": 145494, "key_press": -1, "trial_index": 14}, "uniqueid": "MTK2231:3ZWFC4W1UVEJD2K16T14JY8WMEXRFX", "dateTime": 1516898089361}, {"current_trial": 15, "trialdata": {"rt": -1, "trial_type": "single-stim", "stimulus": "<p id=\"stim\">5</p>", "internal_node_id": "0.0-10.0-5.0", "time_elapsed": 146495, "key_press": -1, "trial_index": 15}, "uniqueid": "MTK2231:3ZWFC4W1UVEJD2K16T14JY8WMEXRFX", "dateTime": 1516898090362}, {"current_trial": 16, "trialdata": {"rt": -1, "trial_type": "single-stim", "stimulus": "<p id=\"stim\">4</p>", "internal_node_id": "0.0-10.0-6.0", "time_elapsed": 147497, "key_press": -1, "trial_index": 16}, "uniqueid": "MTK2231:3ZWFC4W1UVEJD2K16T14JY8WMEXRFX", "dateTime": 1516898091364}, {"current_trial": 17, "trialdata": {"rt": -1, "trial_type": "single-stim", "stimulus": "<p id=\"stim\">3</p>", "internal_node_id": "0.0-10.0-7.0", "time_elapsed": 148498, "key_press": -1, "trial_index": 17}, "uniqueid": "MTK2231:3ZWFC4W1UVEJD2K16T14JY8WMEXRFX", "dateTime": 1516898092365}, {"current_trial": 18, "trialdata": {"rt": -1, "trial_type": "single-stim", "stimulus": "<p id=\"stim\">2</p>", "internal_node_id": "0.0-10.0-8.0", "time_elapsed": 149499, "key_press": -1, "trial_index": 18}, "uniqueid": "MTK2231:3ZWFC4W1UVEJD2K16T14JY8WMEXRFX", "dateTime": 1516898093366}, {"current_trial": 19, "trialdata": {"rt": -1, "trial_type": "single-stim", "stimulus": "<p id=\"stim\">1</p>", "internal_node_id": "0.0-10.0-9.0", "time_elapsed": 150502, "key_press": -1, "trial_index": 19}, "uniqueid": "MTK2231:3ZWFC4W1UVEJD2K16T14JY8WMEXRFX", "dateTime": 1516898094369}, {"current_trial": 20, "trialdata": {"rt": -1, "trial_type": "single-stim", "stimulus": "<p id=\"stim\">+</p>", "internal_node_id": "0.0-11.0-0.0", "time_elapsed": 152003, "key_press": -1, "type": "FIXATION", "trial_index": 20}, "uniqueid": "MTK2231:3ZWFC4W1UVEJD2K16T14JY8WMEXRFX", "dateTime": 1516898095870}, {"current_trial": 21, "trialdata": {"rt": -1000, "trial_type": "single-audio", "word": "thread", "stimulus": "/static/audio/wordpool/THREAD.wav", "conditions": [18, 1200, "a", 18000], "internal_node_id": "0.0-12.0", "trial": 0, "time_elapsed": 154317, "serialpos": 0, "key_press": -1, "wordID": 1459, "type": "PRES_AUD", "trial_index": 21}, "uniqueid": "MTK2231:3ZWFC4W1UVEJD2K16T14JY8WMEXRFX", "dateTime": 1516898098184}, {"current_trial": 22, "trialdata": {"rt": -1000, "trial_type": "single-audio", "word": "rocket", "stimulus": "/static/audio/wordpool/ROCKET.wav", "conditions": [18, 1200, "a", 18000], "internal_node_id": "0.0-13.0", "trial": 0, "time_elapsed": 156672, "serialpos": 1, "key_press": -1, "wordID": 1201, "type": "PRES_AUD", "trial_index": 22}, "uniqueid": "MTK2231:3ZWFC4W1UVEJD2K16T14JY8WMEXRFX", "dateTime": 1516898100539}, {"current_trial": 23, "trialdata": {"rt": -1000, "trial_type": "single-audio", "word": "convict", "stimulus": "/static/audio/wordpool/CONVICT.wav", "conditions": [18, 1200, "a", 18000], "internal_node_id": "0.0-14.0", "trial": 0, "time_elapsed": 158908, "serialpos": 2, "key_press": -1, "wordID": 370, "type": "PRES_AUD", "trial_index": 23}, "uniqueid": "MTK2231:3ZWFC4W1UVEJD2K16T14JY8WMEXRFX", "dateTime": 1516898102775}, {"current_trial": 24, "trialdata": {"rt": -1000, "trial_type": "single-audio", "word": "window", "stimulus": "/static/audio/wordpool/WINDOW.wav", "conditions": [18, 1200, "a", 18000], "internal_node_id": "0.0-15.0", "trial": 0, "time_elapsed": 161107, "serialpos": 3, "key_press": -1, "wordID": 1610, "type": "PRES_AUD", "trial_index": 24}, "uniqueid": "MTK2231:3ZWFC4W1UVEJD2K16T14JY8WMEXRFX", "dateTime": 1516898104974}, {"current_trial": 25, "trialdata": {"rt": -1000, "trial_type": "single-audio", "word": "hatchet", "stimulus": "/static/audio/wordpool/HATCHET.wav", "conditions": [18, 1200, "a", 18000], "internal_node_id": "0.0-16.0", "trial": 0, "time_elapsed": 163443, "serialpos": 4, "key_press": -1, "wordID": 690, "type": "PRES_AUD", "trial_index": 25}, "uniqueid": "MTK2231:3ZWFC4W1UVEJD2K16T14JY8WMEXRFX", "dateTime": 1516898107310}, {"current_trial": 26, "trialdata": {"rt": -1000, "trial_type": "single-audio", "word": "critic", "stimulus": "/static/audio/wordpool/CRITIC.wav", "conditions": [18, 1200, "a", 18000], "internal_node_id": "0.0-17.0", "trial": 0, "time_elapsed": 165586, "serialpos": 5, "key_press": -1, "wordID": 409, "type": "PRES_AUD", "trial_index": 26}, "uniqueid": "MTK2231:3ZWFC4W1UVEJD2K16T14JY8WMEXRFX", "dateTime": 1516898109453}, {"current_trial": 27, "trialdata": {"rt": -1000, "trial_type": "single-audio", "word": "uncle", "stimulus": "/static/audio/wordpool/UNCLE.wav", "conditions": [18, 1200, "a", 18000], "internal_node_id": "0.0-18.0", "trial": 0, "time_elapsed": 167682, "serialpos": 6, "key_press": -1, "wordID": 1535, "type": "PRES_AUD", "trial_index": 27}, "uniqueid": "MTK2231:3ZWFC4W1UVEJD2K16T14JY8WMEXRFX", "dateTime": 1516898111549}, {"current_trial": 28, "trialdata": {"rt": -1000, "trial_type": "single-audio", "word": "cookbook", "stimulus": "/static/audio/wordpool/COOKBOOK.wav", "conditions": [18, 1200, "a", 18000], "internal_node_id": "0.0-19.0", "trial": 0, "time_elapsed": 170001, "serialpos": 7, "key_press": -1, "wordID": 372, "type": "PRES_AUD", "trial_index": 28}, "uniqueid": "MTK2231:3ZWFC4W1UVEJD2K16T14JY8WMEXRFX", "dateTime": 1516898113868}, {"current_trial": 29, "trialdata": {"rt": -1000, "trial_type": "single-audio", "word": "slug", "stimulus": "/static/audio/wordpool/SLUG.wav", "conditions": [18, 1200, "a", 18000], "internal_node_id": "0.0-20.0", "trial": 0, "time_elapsed": 172061, "serialpos": 8, "key_press": -1, "wordID": 1328, "type": "PRES_AUD", "trial_index": 29}, "uniqueid": "MTK2231:3ZWFC4W1UVEJD2K16T14JY8WMEXRFX", "dateTime": 1516898115928}, {"current_trial": 30, "trialdata": {"rt": -1000, "trial_type": "single-audio", "word": "beast", "stimulus": "/static/audio/wordpool/BEAST.wav", "conditions": [18, 1200, "a", 18000], "internal_node_id": "0.0-21.0", "trial": 0, "time_elapsed": 174321, "serialpos": 9, "key_press": -1, "wordID": 107, "type": "PRES_AUD", "trial_index": 30}, "uniqueid": "MTK2231:3ZWFC4W1UVEJD2K16T14JY8WMEXRFX", "dateTime": 1516898118188}, {"current_trial": 31, "trialdata": {"rt": -1000, "trial_type": "single-audio", "word": "france", "stimulus": "/static/audio/wordpool/FRANCE.wav", "conditions": [18, 1200, "a", 18000], "internal_node_id": "0.0-22.0", "trial": 0, "time_elapsed": 176515, "serialpos": 10, "key_press": -1, "wordID": 600, "type": "PRES_AUD", "trial_index": 31}, "uniqueid": "MTK2231:3ZWFC4W1UVEJD2K16T14JY8WMEXRFX", "dateTime": 1516898120382}, {"current_trial": 32, "trialdata": {"rt": -1000, "trial_type": "single-audio", "word": "trombone", "stimulus": "/static/audio/wordpool/TROMBONE.wav", "conditions": [18, 1200, "a", 18000], "internal_node_id": "0.0-23.0", "trial": 0, "time_elapsed": 178849, "serialpos": 11, "key_press": -1, "wordID": 1507, "type": "PRES_AUD", "trial_index": 32}, "uniqueid": "MTK2231:3ZWFC4W1UVEJD2K16T14JY8WMEXRFX", "dateTime": 1516898122716}, {"current_trial": 33, "trialdata": {"rt": -1000, "trial_type": "single-audio", "word": "basement", "stimulus": "/static/audio/wordpool/BASEMENT.wav", "conditions": [18, 1200, "a", 18000], "internal_node_id": "0.0-24.0", "trial": 0, "time_elapsed": 181165, "serialpos": 12, "key_press": -1, "wordID": 93, "type": "PRES_AUD", "trial_index": 33}, "uniqueid": "MTK2231:3ZWFC4W1UVEJD2K16T14JY8WMEXRFX", "dateTime": 1516898125032}, {"current_trial": 34, "trialdata": {"rt": -1000, "trial_type": "single-audio", "word": "pasta", "stimulus": "/static/audio/wordpool/PASTA.wav", "conditions": [18, 1200, "a", 18000], "internal_node_id": "0.0-25.0", "trial": 0, "time_elapsed": 183449, "serialpos": 13, "key_press": -1, "wordID": 1020, "type": "PRES_AUD", "trial_index": 34}, "uniqueid": "MTK2231:3ZWFC4W1UVEJD2K16T14JY8WMEXRFX", "dateTime": 1516898127316}, {"current_trial": 35, "trialdata": {"rt": -1000, "trial_type": "single-audio", "word": "forest", "stimulus": "/static/audio/wordpool/FOREST.wav", "conditions": [18, 1200, "a", 18000], "internal_node_id": "0.0-26.0", "trial": 0, "time_elapsed": 185803, "serialpos": 14, "key_press": -1, "wordID": 592, "type": "PRES_AUD", "trial_index": 35}, "uniqueid": "MTK2231:3ZWFC4W1UVEJD2K16T14JY8WMEXRFX", "dateTime": 1516898129670}, {"current_trial": 36, "trialdata": {"rt": -1000, "trial_type": "single-audio", "word": "lettuce", "stimulus": "/static/audio/wordpool/LETTUCE.wav", "conditions": [18, 1200, "a", 18000], "internal_node_id": "0.0-27.0", "trial": 0, "time_elapsed": 187963, "serialpos": 15, "key_press": -1, "wordID": 813, "type": "PRES_AUD", "trial_index": 36}, "uniqueid": "MTK2231:3ZWFC4W1UVEJD2K16T14JY8WMEXRFX", "dateTime": 1516898131830}, {"current_trial": 37, "trialdata": {"rt": -1000, "trial_type": "single-audio", "word": "shovel", "stimulus": "/static/audio/wordpool/SHOVEL.wav", "conditions": [18, 1200, "a", 18000], "internal_node_id": "0.0-28.0", "trial": 0, "time_elapsed": 190150, "serialpos": 16, "key_press": -1, "wordID": 1294, "type": "PRES_AUD", "trial_index": 37}, "uniqueid": "MTK2231:3ZWFC4W1UVEJD2K16T14JY8WMEXRFX", "dateTime": 1516898134017}, {"current_trial": 38, "trialdata": {"rt": -1000, "trial_type": "single-audio", "word": "freckle", "stimulus": "/static/audio/wordpool/FRECKLE.wav", "conditions": [18, 1200, "a", 18000], "internal_node_id": "0.0-29.0", "trial": 0, "time_elapsed": 192459, "serialpos": 17, "key_press": -1, "wordID": 601, "type": "PRES_AUD", "trial_index": 38}, "uniqueid": "MTK2231:3ZWFC4W1UVEJD2K16T14JY8WMEXRFX", "dateTime": 1516898136326}, {"current_trial": 39, "trialdata": {"rt": -1, "trial_type": "single-stim", "stimulus": "", "internal_node_id": "0.0-30.0-0.0", "time_elapsed": 193820, "key_press": -1, "type": "PRE_RECALL_DELAY", "trial_index": 39}, "uniqueid": "MTK2231:3ZWFC4W1UVEJD2K16T14JY8WMEXRFX", "dateTime": 1516898137687}, {"current_trial": 40, "trialdata": {"rt": -1000, "trial_type": "single-audio", "stimulus": "/static/audio/400Hz.wav", "internal_node_id": "0.0-31.0", "time_elapsed": 194321, "key_press": -1, "type": "PRE_RECALL_ALERT", "trial_index": 40}, "uniqueid": "MTK2231:3ZWFC4W1UVEJD2K16T14JY8WMEXRFX", "dateTime": 1516898138188}, {"current_trial": 41, "trialdata": {"rt": [4599, 17895, 19704, 22535, 26168, 28808, 29896, 30712, 32119, 34247, 40439, 43351, 44343, 46711, 51335, 52903, 56871], "recwords": ["crystal", "sheckel", "forest", "convict", "slug", "curtain", "house", "barn", "yard", "tree", "jail", "field", "sky", "bloom", "thug", "criminal", "chain"], "key_times": [2952, 3272, 3512, 4071, 4152, 4311, 4408, 4599, 16856, 17016, 17144, 17367, 17479, 17607, 17736, 17895, 18983, 19143, 19256, 19352, 19511, 19576, 19704, 21496, 21623, 21783, 21911, 22023, 22167, 22408, 22535, 25623, 25784, 25960, 26104, 26168, 27800, 27976, 28120, 28311, 28440, 28504, 28615, 28808, 29367, 29544, 29623, 29688, 29767, 29896, 30311, 30456, 30535, 30583, 30712, 31607, 31736, 31784, 32008, 32119, 33687, 33895, 33943, 34135, 34247, 39128, 39383, 39495, 40039, 40439, 42295, 42775, 42888, 43047, 43255, 43351, 43911, 43959, 44199, 44343, 45479, 45783, 46151, 46375, 46583, 46711, 50359, 50423, 50599, 51063, 51335, 51751, 51975, 52023, 52231, 52423, 52535, 52711, 52775, 52903, 56375, 56423, 56599, 56631, 56743, 56871, 59623, 59751, 59911], "trial_type": "free-recall", "conditions": [18, 1200, "a", 18000], "internal_node_id": "0.0-32.0-0.0", "key_presses": [67, 82, 89, 83, 84, 65, 76, 13, 83, 72, 69, 67, 75, 69, 76, 13, 70, 79, 82, 69, 83, 84, 13, 67, 79, 78, 86, 73, 67, 84, 13, 83, 76, 85, 71, 13, 67, 85, 82, 84, 65, 73, 78, 13, 72, 79, 85, 83, 69, 13, 66, 65, 82, 78, 13, 89, 65, 82, 68, 13, 84, 82, 69, 69, 13, 74, 65, 73, 76, 13, 70, 73, 69, 76, 68, 13, 83, 75, 89, 13, 66, 76, 79, 79, 77, 13, 84, 72, 85, 71, 13, 67, 82, 73, 77, 73, 78, 65, 76, 13, 67, 72, 65, 73, 78, 13, 65, 80, 80], "trial": 0, "time_elapsed": 254323, "type": "FREE_RECALL", "trial_index": 41}, "uniqueid": "MTK2231:3ZWFC4W1UVEJD2K16T14JY8WMEXRFX", "dateTime": 1516898198191}, {"current_trial": 42, "trialdata": {"rt": 1317, "trial_type": "text", "internal_node_id": "0.0-33.0", "time_elapsed": 257641, "key_press": 74, "type": "INSTRUCTIONS", "trial_index": 42}, "uniqueid": "MTK2231:3ZWFC4W1UVEJD2K16T14JY8WMEXRFX", "dateTime": 1516898201508}, {"current_trial": 43, "trialdata": {"rt": [11951, 14335, 16143], "trial_type": "math-distractor", "key_times": [11487, 11711, 11951, 13823, 14047, 14335, 15711, 15903, 16143], "responses": ["12", "17", "21"], "num2": [2, 7, 7, 4], "num3": [2, 8, 7, 4], "conditions": [18, 1200, "a", 18000], "internal_node_id": "0.0-34.0", "key_presses": [97, 98, 13, 97, 103, 13, 98, 97, 13], "trial": 1, "time_elapsed": 277645, "type": "DISTRACTOR", "trial_index": 43, "num1": [8, 2, 7, 1]}, "uniqueid": "MTK2231:3ZWFC4W1UVEJD2K16T14JY8WMEXRFX", "dateTime": 1516898221512}, {"current_trial": 44, "trialdata": {"rt": -1, "trial_type": "single-stim", "stimulus": "<p id=\"stim\">10</p>", "internal_node_id": "0.0-35.0-0.0", "time_elapsed": 280647, "key_press": -1, "trial_index": 44}, "uniqueid": "MTK2231:3ZWFC4W1UVEJD2K16T14JY8WMEXRFX", "dateTime": 1516898224514}, {"current_trial": 45, "trialdata": {"rt": -1, "trial_type": "single-stim", "stimulus": "<p id=\"stim\">9</p>", "internal_node_id": "0.0-35.0-1.0", "time_elapsed": 281648, "key_press": -1, "trial_index": 45}, "uniqueid": "MTK2231:3ZWFC4W1UVEJD2K16T14JY8WMEXRFX", "dateTime": 1516898225515}, {"current_trial": 46, "trialdata": {"rt": -1, "trial_type": "single-stim", "stimulus": "<p id=\"stim\">8</p>", "internal_node_id": "0.0-35.0-2.0", "time_elapsed": 282649, "key_press": -1, "trial_index": 46}, "uniqueid": "MTK2231:3ZWFC4W1UVEJD2K16T14JY8WMEXRFX", "dateTime": 1516898226516}, {"current_trial": 47, "trialdata": {"rt": -1, "trial_type": "single-stim", "stimulus": "<p id=\"stim\">7</p>", "internal_node_id": "0.0-35.0-3.0", "time_elapsed": 283650, "key_press": -1, "trial_index": 47}, "uniqueid": "MTK2231:3ZWFC4W1UVEJD2K16T14JY8WMEXRFX", "dateTime": 1516898227517}, {"current_trial": 48, "trialdata": {"rt": -1, "trial_type": "single-stim", "stimulus": "<p id=\"stim\">6</p>", "internal_node_id": "0.0-35.0-4.0", "time_elapsed": 284652, "key_press": -1, "trial_index": 48}, "uniqueid": "MTK2231:3ZWFC4W1UVEJD2K16T14JY8WMEXRFX", "dateTime": 1516898228519}, {"current_trial": 49, "trialdata": {"rt": -1, "trial_type": "single-stim", "stimulus": "<p id=\"stim\">5</p>", "internal_node_id": "0.0-35.0-5.0", "time_elapsed": 285653, "key_press": -1, "trial_index": 49}, "uniqueid": "MTK2231:3ZWFC4W1UVEJD2K16T14JY8WMEXRFX", "dateTime": 1516898229520}, {"current_trial": 50, "trialdata": {"rt": -1, "trial_type": "single-stim", "stimulus": "<p id=\"stim\">4</p>", "internal_node_id": "0.0-35.0-6.0", "time_elapsed": 286654, "key_press": -1, "trial_index": 50}, "uniqueid": "MTK2231:3ZWFC4W1UVEJD2K16T14JY8WMEXRFX", "dateTime": 1516898230522}, {"current_trial": 51, "trialdata": {"rt": -1, "trial_type": "single-stim", "stimulus": "<p id=\"stim\">3</p>", "internal_node_id": "0.0-35.0-7.0", "time_elapsed": 287656, "key_press": -1, "trial_index": 51}, "uniqueid": "MTK2231:3ZWFC4W1UVEJD2K16T14JY8WMEXRFX", "dateTime": 1516898231523}, {"current_trial": 52, "trialdata": {"rt": -1, "trial_type": "single-stim", "stimulus": "<p id=\"stim\">2</p>", "internal_node_id": "0.0-35.0-8.0", "time_elapsed": 288657, "key_press": -1, "trial_index": 52}, "uniqueid": "MTK2231:3ZWFC4W1UVEJD2K16T14JY8WMEXRFX", "dateTime": 1516898232524}, {"current_trial": 53, "trialdata": {"rt": -1, "trial_type": "single-stim", "stimulus": "<p id=\"stim\">1</p>", "internal_node_id": "0.0-35.0-9.0", "time_elapsed": 289658, "key_press": -1, "trial_index": 53}, "uniqueid": "MTK2231:3ZWFC4W1UVEJD2K16T14JY8WMEXRFX", "dateTime": 1516898233525}, {"current_trial": 54, "trialdata": {"rt": -1, "trial_type": "single-stim", "stimulus": "<p id=\"stim\">+</p>", "internal_node_id": "0.0-36.0-0.0", "time_elapsed": 291159, "key_press": -1, "type": "FIXATION", "trial_index": 54}, "uniqueid": "MTK2231:3ZWFC4W1UVEJD2K16T14JY8WMEXRFX", "dateTime": 1516898235026}, {"current_trial": 55, "trialdata": {"rt": -1000, "trial_type": "single-audio", "word": "pliers", "stimulus": "/static/audio/wordpool/PLIERS.wav", "conditions": [18, 1200, "a", 18000], "internal_node_id": "0.0-37.0", "trial": 1, "time_elapsed": 293547, "serialpos": 0, "key_press": -1, "wordID": 1088, "type": "PRES_AUD", "trial_index": 55}, "uniqueid": "MTK2231:3ZWFC4W1UVEJD2K16T14JY8WMEXRFX", "dateTime": 1516898237414}, {"current_trial": 56, "trialdata": {"rt": -1000, "trial_type": "single-audio", "word": "student", "stimulus": "/static/audio/wordpool/STUDENT.wav", "conditions": [18, 1200, "a", 18000], "internal_node_id": "0.0-38.0", "trial": 1, "time_elapsed": 295756, "serialpos": 1, "key_press": -1, "wordID": 1394, "type": "PRES_AUD", "trial_index": 56}, "uniqueid": "MTK2231:3ZWFC4W1UVEJD2K16T14JY8WMEXRFX", "dateTime": 1516898239623}, {"current_trial": 57, "trialdata": {"rt": -1000, "trial_type": "single-audio", "word": "driver", "stimulus": "/static/audio/wordpool/DRIVER.wav", "conditions": [18, 1200, "a", 18000], "internal_node_id": "0.0-39.0", "trial": 1, "time_elapsed": 297835, "serialpos": 2, "key_press": -1, "wordID": 498, "type": "PRES_AUD", "trial_index": 57}, "uniqueid": "MTK2231:3ZWFC4W1UVEJD2K16T14JY8WMEXRFX", "dateTime": 1516898241702}, {"current_trial": 58, "trialdata": {"rt": -1000, "trial_type": "single-audio", "word": "cafe", "stimulus": "/static/audio/wordpool/CAFE.wav", "conditions": [18, 1200, "a", 18000], "internal_node_id": "0.0-40.0", "trial": 1, "time_elapsed": 300065, "serialpos": 3, "key_press": -1, "wordID": 215, "type": "PRES_AUD", "trial_index": 58}, "uniqueid": "MTK2231:3ZWFC4W1UVEJD2K16T14JY8WMEXRFX", "dateTime": 1516898243932}, {"current_trial": 59, "trialdata": {"rt": -1000, "trial_type": "single-audio", "word": "camel", "stimulus": "/static/audio/wordpool/CAMEL.wav", "conditions": [18, 1200, "a", 18000], "internal_node_id": "0.0-41.0", "trial": 1, "time_elapsed": 302442, "serialpos": 4, "key_press": -1, "wordID": 222, "type": "PRES_AUD", "trial_index": 59}, "uniqueid": "MTK2231:3ZWFC4W1UVEJD2K16T14JY8WMEXRFX", "dateTime": 1516898246309}, {"current_trial": 60, "trialdata": {"rt": -1000, "trial_type": "single-audio", "word": "sister", "stimulus": "/static/audio/wordpool/SISTER.wav", "conditions": [18, 1200, "a", 18000], "internal_node_id": "0.0-42.0", "trial": 1, "time_elapsed": 304555, "serialpos": 5, "key_press": -1, "wordID": 1311, "type": "PRES_AUD", "trial_index": 60}, "uniqueid": "MTK2231:3ZWFC4W1UVEJD2K16T14JY8WMEXRFX", "dateTime": 1516898248422}, {"current_trial": 61, "trialdata": {"rt": -1000, "trial_type": "single-audio", "word": "crab", "stimulus": "/static/audio/wordpool/CRAB.wav", "conditions": [18, 1200, "a", 18000], "internal_node_id": "0.0-43.0", "trial": 1, "time_elapsed": 306942, "serialpos": 6, "key_press": -1, "wordID": 396, "type": "PRES_AUD", "trial_index": 61}, "uniqueid": "MTK2231:3ZWFC4W1UVEJD2K16T14JY8WMEXRFX", "dateTime": 1516898250809}, {"current_trial": 62, "trialdata": {"rt": 129.33333333330665, "trial_type": "single-audio", "word": "mustard", "stimulus": "/static/audio/wordpool/MUSTARD.wav", "conditions": [18, 1200, "a", 18000], "internal_node_id": "0.0-44.0", "trial": 1, "time_elapsed": 309195, "serialpos": 7, "key_press": 17, "wordID": 934, "type": "PRES_AUD", "trial_index": 62}, "uniqueid": "MTK2231:3ZWFC4W1UVEJD2K16T14JY8WMEXRFX", "dateTime": 1516898253062}, {"current_trial": 63, "trialdata": {"rt": -1000, "trial_type": "single-audio", "word": "perch", "stimulus": "/static/audio/wordpool/PERCH.wav", "conditions": [18, 1200, "a", 18000], "internal_node_id": "0.0-45.0", "trial": 1, "time_elapsed": 311253, "serialpos": 8, "key_press": -1, "wordID": 1047, "type": "PRES_AUD", "trial_index": 63}, "uniqueid": "MTK2231:3ZWFC4W1UVEJD2K16T14JY8WMEXRFX", "dateTime": 1516898255120}, {"current_trial": 64, "trialdata": {"rt": -1000, "trial_type": "single-audio", "word": "mummy", "stimulus": "/static/audio/wordpool/MUMMY.wav", "conditions": [18, 1200, "a", 18000], "internal_node_id": "0.0-46.0", "trial": 1, "time_elapsed": 313364, "serialpos": 9, "key_press": -1, "wordID": 931, "type": "PRES_AUD", "trial_index": 64}, "uniqueid": "MTK2231:3ZWFC4W1UVEJD2K16T14JY8WMEXRFX", "dateTime": 1516898257231}, {"current_trial": 65, "trialdata": {"rt": -1000, "trial_type": "single-audio", "word": "umpire", "stimulus": "/static/audio/wordpool/UMPIRE.wav", "conditions": [18, 1200, "a", 18000], "internal_node_id": "0.0-47.0", "trial": 1, "time_elapsed": 315763, "serialpos": 10, "key_press": -1, "wordID": 1534, "type": "PRES_AUD", "trial_index": 65}, "uniqueid": "MTK2231:3ZWFC4W1UVEJD2K16T14JY8WMEXRFX", "dateTime": 1516898259630}, {"current_trial": 66, "trialdata": {"rt": -1000, "trial_type": "single-audio", "word": "razor", "stimulus": "/static/audio/wordpool/RAZOR.wav", "conditions": [18, 1200, "a", 18000], "internal_node_id": "0.0-48.0", "trial": 1, "time_elapsed": 317921, "serialpos": 11, "key_press": -1, "wordID": 1170, "type": "PRES_AUD", "trial_index": 66}, "uniqueid": "MTK2231:3ZWFC4W1UVEJD2K16T14JY8WMEXRFX", "dateTime": 1516898261788}, {"current_trial": 67, "trialdata": {"rt": -1000, "trial_type": "single-audio", "word": "wrench", "stimulus": "/static/audio/wordpool/WRENCH.wav", "conditions": [18, 1200, "a", 18000], "internal_node_id": "0.0-49.0", "trial": 1, "time_elapsed": 319943, "serialpos": 12, "key_press": -1, "wordID": 1624, "type": "PRES_AUD", "trial_index": 67}, "uniqueid": "MTK2231:3ZWFC4W1UVEJD2K16T14JY8WMEXRFX", "dateTime": 1516898263810}, {"current_trial": 68, "trialdata": {"rt": -1000, "trial_type": "single-audio", "word": "ulcer", "stimulus": "/static/audio/wordpool/ULCER.wav", "conditions": [18, 1200, "a", 18000], "internal_node_id": "0.0-50.0", "trial": 1, "time_elapsed": 322024, "serialpos": 13, "key_press": -1, "wordID": 1532, "type": "PRES_AUD", "trial_index": 68}, "uniqueid": "MTK2231:3ZWFC4W1UVEJD2K16T14JY8WMEXRFX", "dateTime": 1516898265892}, {"current_trial": 69, "trialdata": {"rt": -1000, "trial_type": "single-audio", "word": "cocktail", "stimulus": "/static/audio/wordpool/COCKTAIL.wav", "conditions": [18, 1200, "a", 18000], "internal_node_id": "0.0-51.0", "trial": 1, "time_elapsed": 324351, "serialpos": 14, "key_press": -1, "wordID": 337, "type": "PRES_AUD", "trial_index": 69}, "uniqueid": "MTK2231:3ZWFC4W1UVEJD2K16T14JY8WMEXRFX", "dateTime": 1516898268218}, {"current_trial": 70, "trialdata": {"rt": -1000, "trial_type": "single-audio", "word": "chest", "stimulus": "/static/audio/wordpool/CHEST.wav", "conditions": [18, 1200, "a", 18000], "internal_node_id": "0.0-52.0", "trial": 1, "time_elapsed": 326462, "serialpos": 15, "key_press": -1, "wordID": 294, "type": "PRES_AUD", "trial_index": 70}, "uniqueid": "MTK2231:3ZWFC4W1UVEJD2K16T14JY8WMEXRFX", "dateTime": 1516898270329}, {"current_trial": 71, "trialdata": {"rt": -1000, "trial_type": "single-audio", "word": "penguin", "stimulus": "/static/audio/wordpool/PENGUIN.wav", "conditions": [18, 1200, "a", 18000], "internal_node_id": "0.0-53.0", "trial": 1, "time_elapsed": 328609, "serialpos": 16, "key_press": -1, "wordID": 1043, "type": "PRES_AUD", "trial_index": 71}, "uniqueid": "MTK2231:3ZWFC4W1UVEJD2K16T14JY8WMEXRFX", "dateTime": 1516898272476}, {"current_trial": 72, "trialdata": {"rt": -1000, "trial_type": "single-audio", "word": "doughnut", "stimulus": "/static/audio/wordpool/DOUGHNUT.wav", "conditions": [18, 1200, "a", 18000], "internal_node_id": "0.0-54.0", "trial": 1, "time_elapsed": 330748, "serialpos": 17, "key_press": -1, "wordID": 489, "type": "PRES_AUD", "trial_index": 72}, "uniqueid": "MTK2231:3ZWFC4W1UVEJD2K16T14JY8WMEXRFX", "dateTime": 1516898274615}, {"current_trial": 73, "trialdata": {"rt": -1, "trial_type": "single-stim", "stimulus": "", "internal_node_id": "0.0-55.0-0.0", "time_elapsed": 332143, "key_press": -1, "type": "PRE_RECALL_DELAY", "trial_index": 73}, "uniqueid": "MTK2231:3ZWFC4W1UVEJD2K16T14JY8WMEXRFX", "dateTime": 1516898276010}, {"current_trial": 74, "trialdata": {"rt": -1000, "trial_type": "single-audio", "stimulus": "/static/audio/400Hz.wav", "internal_node_id": "0.0-56.0", "time_elapsed": 332644, "key_press": -1, "type": "PRE_RECALL_ALERT", "trial_index": 74}, "uniqueid": "MTK2231:3ZWFC4W1UVEJD2K16T14JY8WMEXRFX", "dateTime": 1516898276511}, {"current_trial": 75, "trialdata": {"rt": [8212, 9092, 10692, 11764, 16068, 17860, 18980, 20628, 23604, 24644, 26692, 29348, 35156, 37428, 42708, 44436, 45556, 47332, 52931, 55844, 57300, 58532], "recwords": ["donut", "copy", "raise", "shop", "bread", "kitchen", "knife", "house", "job", "road", "car", "knife", "coffee", "cup", "heritage", "street", "bill", "fold", "bone", "fall", "tree", "house"], "key_times": [7493, 7604, 7716, 7940, 8052, 8212, 8580, 8628, 8804, 8964, 9092, 10004, 10116, 10356, 10484, 10532, 10692, 11284, 11364, 11444, 11620, 11764, 15508, 15588, 15652, 15732, 15956, 16068, 16948, 17140, 17220, 17476, 17572, 17700, 17748, 17860, 18436, 18548, 18708, 18804, 18884, 18980, 20212, 20372, 20420, 20516, 20564, 20628, 22676, 22821, 23268, 23604, 24052, 24180, 24276, 24532, 24644, 26308, 26548, 26596, 26692, 28740, 28820, 29028, 29124, 29252, 29348, 34292, 34404, 34564, 34708, 34852, 35060, 35156, 37076, 37140, 37284, 37428, 41748, 41892, 41972, 42116, 42244, 42404, 42500, 42628, 42708, 43700, 43796, 43972, 44036, 44212, 44340, 44436, 44964, 45124, 45284, 45460, 45556, 46884, 46980, 47172, 47268, 47332, 48052, 50292, 51524, 51684, 51828, 51876, 51924, 52388, 52580, 52820, 52931, 55300, 55476, 55524, 55700, 55844, 56804, 56964, 57060, 57220, 57300, 58100, 58276, 58340, 58388, 58420, 58532, 59908], "trial_type": "free-recall", "conditions": [18, 1200, "a", 18000], "internal_node_id": "0.0-57.0-0.0", "key_presses": [68, 79, 78, 85, 84, 13, 67, 79, 80, 89, 13, 82, 65, 73, 83, 69, 13, 83, 72, 79, 80, 13, 66, 82, 69, 65, 68, 13, 75, 73, 84, 67, 72, 69, 78, 13, 75, 78, 73, 70, 69, 13, 72, 79, 85, 83, 69, 13, 74, 79, 66, 13, 82, 79, 65, 68, 13, 67, 65, 82, 13, 75, 78, 73, 70, 69, 13, 67, 79, 70, 70, 69, 69, 13, 67, 85, 80, 13, 72, 69, 82, 73, 84, 65, 71, 69, 13, 83, 84, 82, 69, 69, 84, 13, 66, 73, 76, 76, 13, 70, 79, 76, 68, 13, 66, 8, 66, 79, 78, 77, 69, 8, 8, 69, 13, 70, 65, 76, 76, 13, 84, 82, 69, 69, 13, 72, 79, 85, 83, 69, 13, 83], "trial": 1, "time_elapsed": 392646, "type": "FREE_RECALL", "trial_index": 75}, "uniqueid": "MTK2231:3ZWFC4W1UVEJD2K16T14JY8WMEXRFX", "dateTime": 1516898336514}, {"current_trial": 76, "trialdata": {"rt": 1985, "trial_type": "text", "internal_node_id": "0.0-58.0", "time_elapsed": 396633, "key_press": 32, "type": "INSTRUCTIONS", "trial_index": 76}, "uniqueid": "MTK2231:3ZWFC4W1UVEJD2K16T14JY8WMEXRFX", "dateTime": 1516898340500}, {"current_trial": 77, "trialdata": {"rt": [7463, 12327, 16279, 23799], "trial_type": "math-distractor", "key_times": [7015, 7239, 7463, 11879, 12103, 12327, 15943, 16039, 16279, 23239, 23623, 23799], "responses": ["10", "24", "16", "14"], "num2": [2, 7, 5, 1, 1], "num3": [4, 9, 9, 9, 7], "conditions": [24, 1600, "a", 24000], "internal_node_id": "0.0-59.0", "key_presses": [49, 48, 13, 50, 52, 13, 49, 54, 13, 49, 52, 13], "trial": 2, "time_elapsed": 421635, "type": "DISTRACTOR", "trial_index": 77, "num1": [4, 8, 2, 4, 4]}, "uniqueid": "MTK2231:3ZWFC4W1UVEJD2K16T14JY8WMEXRFX", "dateTime": 1516898365502}, {"current_trial": 78, "trialdata": {"rt": -1, "trial_type": "single-stim", "stimulus": "<p id=\"stim\">10</p>", "internal_node_id": "0.0-60.0-0.0", "time_elapsed": 424638, "key_press": -1, "trial_index": 78}, "uniqueid": "MTK2231:3ZWFC4W1UVEJD2K16T14JY8WMEXRFX", "dateTime": 1516898368505}, {"current_trial": 79, "trialdata": {"rt": -1, "trial_type": "single-stim", "stimulus": "<p id=\"stim\">9</p>", "internal_node_id": "0.0-60.0-1.0", "time_elapsed": 425639, "key_press": -1, "trial_index": 79}, "uniqueid": "MTK2231:3ZWFC4W1UVEJD2K16T14JY8WMEXRFX", "dateTime": 1516898369506}, {"current_trial": 80, "trialdata": {"rt": -1, "trial_type": "single-stim", "stimulus": "<p id=\"stim\">8</p>", "internal_node_id": "0.0-60.0-2.0", "time_elapsed": 426641, "key_press": -1, "trial_index": 80}, "uniqueid": "MTK2231:3ZWFC4W1UVEJD2K16T14JY8WMEXRFX", "dateTime": 1516898370508}, {"current_trial": 81, "trialdata": {"rt": -1, "trial_type": "single-stim", "stimulus": "<p id=\"stim\">7</p>", "internal_node_id": "0.0-60.0-3.0", "time_elapsed": 427642, "key_press": -1, "trial_index": 81}, "uniqueid": "MTK2231:3ZWFC4W1UVEJD2K16T14JY8WMEXRFX", "dateTime": 1516898371509}, {"current_trial": 82, "trialdata": {"rt": -1, "trial_type": "single-stim", "stimulus": "<p id=\"stim\">6</p>", "internal_node_id": "0.0-60.0-4.0", "time_elapsed": 428643, "key_press": -1, "trial_index": 82}, "uniqueid": "MTK2231:3ZWFC4W1UVEJD2K16T14JY8WMEXRFX", "dateTime": 1516898372510}, {"current_trial": 83, "trialdata": {"rt": -1, "trial_type": "single-stim", "stimulus": "<p id=\"stim\">5</p>", "internal_node_id": "0.0-60.0-5.0", "time_elapsed": 429645, "key_press": -1, "trial_index": 83}, "uniqueid": "MTK2231:3ZWFC4W1UVEJD2K16T14JY8WMEXRFX", "dateTime": 1516898373512}, {"current_trial": 84, "trialdata": {"rt": -1, "trial_type": "single-stim", "stimulus": "<p id=\"stim\">4</p>", "internal_node_id": "0.0-60.0-6.0", "time_elapsed": 430646, "key_press": -1, "trial_index": 84}, "uniqueid": "MTK2231:3ZWFC4W1UVEJD2K16T14JY8WMEXRFX", "dateTime": 1516898374513}, {"current_trial": 85, "trialdata": {"rt": -1, "trial_type": "single-stim", "stimulus": "<p id=\"stim\">3</p>", "internal_node_id": "0.0-60.0-7.0", "time_elapsed": 431647, "key_press": -1, "trial_index": 85}, "uniqueid": "MTK2231:3ZWFC4W1UVEJD2K16T14JY8WMEXRFX", "dateTime": 1516898375514}, {"current_trial": 86, "trialdata": {"rt": -1, "trial_type": "single-stim", "stimulus": "<p id=\"stim\">2</p>", "internal_node_id": "0.0-60.0-8.0", "time_elapsed": 432648, "key_press": -1, "trial_index": 86}, "uniqueid": "MTK2231:3ZWFC4W1UVEJD2K16T14JY8WMEXRFX", "dateTime": 1516898376515}, {"current_trial": 87, "trialdata": {"rt": -1, "trial_type": "single-stim", "stimulus": "<p id=\"stim\">1</p>", "internal_node_id": "0.0-60.0-9.0", "time_elapsed": 433651, "key_press": -1, "trial_index": 87}, "uniqueid": "MTK2231:3ZWFC4W1UVEJD2K16T14JY8WMEXRFX", "dateTime": 1516898377518}, {"current_trial": 88, "trialdata": {"rt": -1, "trial_type": "single-stim", "stimulus": "<p id=\"stim\">+</p>", "internal_node_id": "0.0-61.0-0.0", "time_elapsed": 435151, "key_press": -1, "type": "FIXATION", "trial_index": 88}, "uniqueid": "MTK2231:3ZWFC4W1UVEJD2K16T14JY8WMEXRFX", "dateTime": 1516898379018}, {"current_trial": 89, "trialdata": {"rt": -1000, "trial_type": "single-audio", "word": "brick", "stimulus": "/static/audio/wordpool/BRICK.wav", "conditions": [24, 1600, "a", 24000], "internal_node_id": "0.0-62.0", "trial": 2, "time_elapsed": 437715, "serialpos": 0, "key_press": -1, "wordID": 171, "type": "PRES_AUD", "trial_index": 89}, "uniqueid": "MTK2231:3ZWFC4W1UVEJD2K16T14JY8WMEXRFX", "dateTime": 1516898381582}, {"current_trial": 90, "trialdata": {"rt": -1000, "trial_type": "single-audio", "word": "tile", "stimulus": "/static/audio/wordpool/TILE.wav", "conditions": [24, 1600, "a", 24000], "internal_node_id": "0.0-63.0", "trial": 2, "time_elapsed": 440163, "serialpos": 1, "key_press": -1, "wordID": 1467, "type": "PRES_AUD", "trial_index": 90}, "uniqueid": "MTK2231:3ZWFC4W1UVEJD2K16T14JY8WMEXRFX", "dateTime": 1516898384030}, {"current_trial": 91, "trialdata": {"rt": -1000, "trial_type": "single-audio", "word": "canal", "stimulus": "/static/audio/wordpool/CANAL.wav", "conditions": [24, 1600, "a", 24000], "internal_node_id": "0.0-64.0", "trial": 2, "time_elapsed": 442589, "serialpos": 2, "key_press": -1, "wordID": 225, "type": "PRES_AUD", "trial_index": 91}, "uniqueid": "MTK2231:3ZWFC4W1UVEJD2K16T14JY8WMEXRFX", "dateTime": 1516898386456}, {"current_trial": 92, "trialdata": {"rt": -1000, "trial_type": "single-audio", "word": "staple", "stimulus": "/static/audio/wordpool/STAPLE.wav", "conditions": [24, 1600, "a", 24000], "internal_node_id": "0.0-65.0", "trial": 2, "time_elapsed": 445273, "serialpos": 3, "key_press": -1, "wordID": 1370, "type": "PRES_AUD", "trial_index": 92}, "uniqueid": "MTK2231:3ZWFC4W1UVEJD2K16T14JY8WMEXRFX", "dateTime": 1516898389140}, {"current_trial": 93, "trialdata": {"rt": -1000, "trial_type": "single-audio", "word": "shortcake", "stimulus": "/static/audio/wordpool/SHORTCAKE.wav", "conditions": [24, 1600, "a", 24000], "internal_node_id": "0.0-66.0", "trial": 2, "time_elapsed": 447982, "serialpos": 4, "key_press": -1, "wordID": 1291, "type": "PRES_AUD", "trial_index": 93}, "uniqueid": "MTK2231:3ZWFC4W1UVEJD2K16T14JY8WMEXRFX", "dateTime": 1516898391849}, {"current_trial": 94, "trialdata": {"rt": -1000, "trial_type": "single-audio", "word": "seafood", "stimulus": "/static/audio/wordpool/SEAFOOD.wav", "conditions": [24, 1600, "a", 24000], "internal_node_id": "0.0-67.0", "trial": 2, "time_elapsed": 450639, "serialpos": 5, "key_press": -1, "wordID": 1259, "type": "PRES_AUD", "trial_index": 94}, "uniqueid": "MTK2231:3ZWFC4W1UVEJD2K16T14JY8WMEXRFX", "dateTime": 1516898394506}, {"current_trial": 95, "trialdata": {"rt": -1000, "trial_type": "single-audio", "word": "sheriff", "stimulus": "/static/audio/wordpool/SHERIFF.wav", "conditions": [24, 1600, "a", 24000], "internal_node_id": "0.0-68.0", "trial": 2, "time_elapsed": 453215, "serialpos": 6, "key_press": -1, "wordID": 1283, "type": "PRES_AUD", "trial_index": 95}, "uniqueid": "MTK2231:3ZWFC4W1UVEJD2K16T14JY8WMEXRFX", "dateTime": 1516898397082}, {"current_trial": 96, "trialdata": {"rt": -1000, "trial_type": "single-audio", "word": "leader", "stimulus": "/static/audio/wordpool/LEADER.wav", "conditions": [24, 1600, "a", 24000], "internal_node_id": "0.0-69.0", "trial": 2, "time_elapsed": 455720, "serialpos": 7, "key_press": -1, "wordID": 806, "type": "PRES_AUD", "trial_index": 96}, "uniqueid": "MTK2231:3ZWFC4W1UVEJD2K16T14JY8WMEXRFX", "dateTime": 1516898399587}, {"current_trial": 97, "trialdata": {"rt": -1000, "trial_type": "single-audio", "word": "flask", "stimulus": "/static/audio/wordpool/FLASK.wav", "conditions": [24, 1600, "a", 24000], "internal_node_id": "0.0-70.0", "trial": 2, "time_elapsed": 458206, "serialpos": 8, "key_press": -1, "wordID": 575, "type": "PRES_AUD", "trial_index": 97}, "uniqueid": "MTK2231:3ZWFC4W1UVEJD2K16T14JY8WMEXRFX", "dateTime": 1516898402073}, {"current_trial": 98, "trialdata": {"rt": -1000, "trial_type": "single-audio", "word": "female", "stimulus": "/static/audio/wordpool/FEMALE.wav", "conditions": [24, 1600, "a", 24000], "internal_node_id": "0.0-71.0", "trial": 2, "time_elapsed": 460793, "serialpos": 9, "key_press": -1, "wordID": 558, "type": "PRES_AUD", "trial_index": 98}, "uniqueid": "MTK2231:3ZWFC4W1UVEJD2K16T14JY8WMEXRFX", "dateTime": 1516898404660}, {"current_trial": 99, "trialdata": {"rt": -1000, "trial_type": "single-audio", "word": "passage", "stimulus": "/static/audio/wordpool/PASSAGE.wav", "conditions": [24, 1600, "a", 24000], "internal_node_id": "0.0-72.0", "trial": 2, "time_elapsed": 463480, "serialpos": 10, "key_press": -1, "wordID": 1018, "type": "PRES_AUD", "trial_index": 99}, "uniqueid": "MTK2231:3ZWFC4W1UVEJD2K16T14JY8WMEXRFX", "dateTime": 1516898407347}, {"current_trial": 100, "trialdata": {"rt": -1000, "trial_type": "single-audio", "word": "cod", "stimulus": "/static/audio/wordpool/COD.wav", "conditions": [24, 1600, "a", 24000], "internal_node_id": "0.0-73.0", "trial": 2, "time_elapsed": 466118, "serialpos": 11, "key_press": -1, "wordID": 339, "type": "PRES_AUD", "trial_index": 100}, "uniqueid": "MTK2231:3ZWFC4W1UVEJD2K16T14JY8WMEXRFX", "dateTime": 1516898409985}, {"current_trial": 101, "trialdata": {"rt": -1000, "trial_type": "single-audio", "word": "juggler", "stimulus": "/static/audio/wordpool/JUGGLER.wav", "conditions": [24, 1600, "a", 24000], "internal_node_id": "0.0-74.0", "trial": 2, "time_elapsed": 468651, "serialpos": 12, "key_press": -1, "wordID": 762, "type": "PRES_AUD", "trial_index": 101}, "uniqueid": "MTK2231:3ZWFC4W1UVEJD2K16T14JY8WMEXRFX", "dateTime": 1516898412518}, {"current_trial": 102, "trialdata": {"rt": -1000, "trial_type": "single-audio", "word": "waiter", "stimulus": "/static/audio/wordpool/WAITER.wav", "conditions": [24, 1600, "a", 24000], "internal_node_id": "0.0-75.0", "trial": 2, "time_elapsed": 471078, "serialpos": 13, "key_press": -1, "wordID": 1579, "type": "PRES_AUD", "trial_index": 102}, "uniqueid": "MTK2231:3ZWFC4W1UVEJD2K16T14JY8WMEXRFX", "dateTime": 1516898414945}, {"current_trial": 103, "trialdata": {"rt": -1000, "trial_type": "single-audio", "word": "dentist", "stimulus": "/static/audio/wordpool/DENTIST.wav", "conditions": [24, 1600, "a", 24000], "internal_node_id": "0.0-76.0", "trial": 2, "time_elapsed": 473691, "serialpos": 14, "key_press": -1, "wordID": 446, "type": "PRES_AUD", "trial_index": 103}, "uniqueid": "MTK2231:3ZWFC4W1UVEJD2K16T14JY8WMEXRFX", "dateTime": 1516898417558}, {"current_trial": 104, "trialdata": {"rt": -1000, "trial_type": "single-audio", "word": "dress", "stimulus": "/static/audio/wordpool/DRESS.wav", "conditions": [24, 1600, "a", 24000], "internal_node_id": "0.0-77.0", "trial": 2, "time_elapsed": 476129, "serialpos": 15, "key_press": -1, "wordID": 494, "type": "PRES_AUD", "trial_index": 104}, "uniqueid": "MTK2231:3ZWFC4W1UVEJD2K16T14JY8WMEXRFX", "dateTime": 1516898419996}, {"current_trial": 105, "trialdata": {"rt": -1000, "trial_type": "single-audio", "word": "muffin", "stimulus": "/static/audio/wordpool/MUFFIN.wav", "conditions": [24, 1600, "a", 24000], "internal_node_id": "0.0-78.0", "trial": 2, "time_elapsed": 478644, "serialpos": 16, "key_press": -1, "wordID": 928, "type": "PRES_AUD", "trial_index": 105}, "uniqueid": "MTK2231:3ZWFC4W1UVEJD2K16T14JY8WMEXRFX", "dateTime": 1516898422511}, {"current_trial": 106, "trialdata": {"rt": -1000, "trial_type": "single-audio", "word": "hamper", "stimulus": "/static/audio/wordpool/HAMPER.wav", "conditions": [24, 1600, "a", 24000], "internal_node_id": "0.0-79.0", "trial": 2, "time_elapsed": 481175, "serialpos": 17, "key_press": -1, "wordID": 681, "type": "PRES_AUD", "trial_index": 106}, "uniqueid": "MTK2231:3ZWFC4W1UVEJD2K16T14JY8WMEXRFX", "dateTime": 1516898425042}, {"current_trial": 107, "trialdata": {"rt": -1000, "trial_type": "single-audio", "word": "waitress", "stimulus": "/static/audio/wordpool/WAITRESS.wav", "conditions": [24, 1600, "a", 24000], "internal_node_id": "0.0-80.0", "trial": 2, "time_elapsed": 483793, "serialpos": 18, "key_press": -1, "wordID": 1580, "type": "PRES_AUD", "trial_index": 107}, "uniqueid": "MTK2231:3ZWFC4W1UVEJD2K16T14JY8WMEXRFX", "dateTime": 1516898427660}, {"current_trial": 108, "trialdata": {"rt": -1000, "trial_type": "single-audio", "word": "flute", "stimulus": "/static/audio/wordpool/FLUTE.wav", "conditions": [24, 1600, "a", 24000], "internal_node_id": "0.0-81.0", "trial": 2, "time_elapsed": 486252, "serialpos": 19, "key_press": -1, "wordID": 584, "type": "PRES_AUD", "trial_index": 108}, "uniqueid": "MTK2231:3ZWFC4W1UVEJD2K16T14JY8WMEXRFX", "dateTime": 1516898430119}, {"current_trial": 109, "trialdata": {"rt": -1000, "trial_type": "single-audio", "word": "tuba", "stimulus": "/static/audio/wordpool/TUBA.wav", "conditions": [24, 1600, "a", 24000], "internal_node_id": "0.0-82.0", "trial": 2, "time_elapsed": 488943, "serialpos": 20, "key_press": -1, "wordID": 1514, "type": "PRES_AUD", "trial_index": 109}, "uniqueid": "MTK2231:3ZWFC4W1UVEJD2K16T14JY8WMEXRFX", "dateTime": 1516898432810}, {"current_trial": 110, "trialdata": {"rt": -1000, "trial_type": "single-audio", "word": "cupboard", "stimulus": "/static/audio/wordpool/CUPBOARD.wav", "conditions": [24, 1600, "a", 24000], "internal_node_id": "0.0-83.0", "trial": 2, "time_elapsed": 491619, "serialpos": 21, "key_press": -1, "wordID": 424, "type": "PRES_AUD", "trial_index": 110}, "uniqueid": "MTK2231:3ZWFC4W1UVEJD2K16T14JY8WMEXRFX", "dateTime": 1516898435486}, {"current_trial": 111, "trialdata": {"rt": -1000, "trial_type": "single-audio", "word": "cashier", "stimulus": "/static/audio/wordpool/CASHIER.wav", "conditions": [24, 1600, "a", 24000], "internal_node_id": "0.0-84.0", "trial": 2, "time_elapsed": 494054, "serialpos": 22, "key_press": -1, "wordID": 253, "type": "PRES_AUD", "trial_index": 111}, "uniqueid": "MTK2231:3ZWFC4W1UVEJD2K16T14JY8WMEXRFX", "dateTime": 1516898437921}, {"current_trial": 112, "trialdata": {"rt": -1000, "trial_type": "single-audio", "word": "belly", "stimulus": "/static/audio/wordpool/BELLY.wav", "conditions": [24, 1600, "a", 24000], "internal_node_id": "0.0-85.0", "trial": 2, "time_elapsed": 496517, "serialpos": 23, "key_press": -1, "wordID": 118, "type": "PRES_AUD", "trial_index": 112}, "uniqueid": "MTK2231:3ZWFC4W1UVEJD2K16T14JY8WMEXRFX", "dateTime": 1516898440384}, {"current_trial": 113, "trialdata": {"rt": -1, "trial_type": "single-stim", "stimulus": "", "internal_node_id": "0.0-86.0-0.0", "time_elapsed": 497896, "key_press": -1, "type": "PRE_RECALL_DELAY", "trial_index": 113}, "uniqueid": "MTK2231:3ZWFC4W1UVEJD2K16T14JY8WMEXRFX", "dateTime": 1516898441763}, {"current_trial": 114, "trialdata": {"rt": -1000, "trial_type": "single-audio", "stimulus": "/static/audio/400Hz.wav", "internal_node_id": "0.0-87.0", "time_elapsed": 498397, "key_press": -1, "type": "PRE_RECALL_ALERT", "trial_index": 114}, "uniqueid": "MTK2231:3ZWFC4W1UVEJD2K16T14JY8WMEXRFX", "dateTime": 1516898442264}, {"current_trial": 115, "trialdata": {"rt": [2844, 4972, 6172, 8076, 9628, 14379, 16332, 54667, 56235, 58747], "recwords": ["belly", "cup", "flute", "chair", "singer", "desk", "teacher", "tuna", "fish", "water"], "key_times": [2060, 2267, 2364, 2539, 2716, 2844, 4411, 4556, 4684, 4972, 5499, 5580, 5755, 5868, 5980, 6172, 7499, 7580, 7723, 7852, 7948, 8076, 9003, 9068, 9196, 9276, 9467, 9548, 9628, 13788, 13963, 14139, 14220, 14379, 15403, 15516, 15596, 15867, 15995, 16108, 16204, 16332, 51660, 51996, 52316, 52508, 53068, 53323, 53500, 53660, 53835, 54156, 54220, 54444, 54556, 54667, 55596, 55835, 55996, 56092, 56235, 58220, 58347, 58476, 58620, 58700, 58747], "trial_type": "free-recall", "conditions": [24, 1600, "a", 24000], "internal_node_id": "0.0-88.0-0.0", "key_presses": [66, 69, 76, 76, 89, 32, 67, 85, 80, 32, 70, 76, 85, 84, 69, 32, 67, 72, 65, 73, 82, 32, 83, 73, 78, 71, 69, 82, 32, 68, 69, 83, 75, 13, 84, 69, 65, 67, 72, 69, 82, 13, 66, 69, 76, 76, 8, 8, 8, 8, 8, 84, 85, 78, 65, 13, 70, 73, 83, 72, 13, 87, 65, 84, 69, 82, 13], "trial": 2, "time_elapsed": 558399, "type": "FREE_RECALL", "trial_index": 115}, "uniqueid": "MTK2231:3ZWFC4W1UVEJD2K16T14JY8WMEXRFX", "dateTime": 1516898502267}, {"current_trial": 116, "trialdata": {"rt": 1383, "trial_type": "text", "internal_node_id": "0.0-89.0", "time_elapsed": 561785, "key_press": 32, "type": "INSTRUCTIONS", "trial_index": 116}, "uniqueid": "MTK2231:3ZWFC4W1UVEJD2K16T14JY8WMEXRFX", "dateTime": 1516898505652}, {"current_trial": 117, "trialdata": {"rt": [2879, 4798, 8814, 10974], "trial_type": "math-distractor", "key_times": [2542, 2750, 2879, 4383, 4654, 4798, 8223, 8462, 8814, 10734, 10974], "responses": ["11", "12", "21", "7"], "num2": [4, 3, 9, 1, 6], "num3": [3, 8, 7, 3, 2], "conditions": [12, 800, "a", 12000], "internal_node_id": "0.0-90.0", "key_presses": [49, 49, 13, 49, 50, 13, 50, 49, 13, 55, 13], "trial": 3, "time_elapsed": 575787, "type": "DISTRACTOR", "trial_index": 117, "num1": [4, 1, 5, 3, 4]}, "uniqueid": "MTK2231:3ZWFC4W1UVEJD2K16T14JY8WMEXRFX", "dateTime": 1516898519654}, {"current_trial": 118, "trialdata": {"rt": -1, "trial_type": "single-stim", "stimulus": "<p id=\"stim\">10</p>", "internal_node_id": "0.0-91.0-0.0", "time_elapsed": 578790, "key_press": -1, "trial_index": 118}, "uniqueid": "MTK2231:3ZWFC4W1UVEJD2K16T14JY8WMEXRFX", "dateTime": 1516898522657}, {"current_trial": 119, "trialdata": {"rt": -1, "trial_type": "single-stim", "stimulus": "<p id=\"stim\">9</p>", "internal_node_id": "0.0-91.0-1.0", "time_elapsed": 579791, "key_press": -1, "trial_index": 119}, "uniqueid": "MTK2231:3ZWFC4W1UVEJD2K16T14JY8WMEXRFX", "dateTime": 1516898523658}, {"current_trial": 120, "trialdata": {"rt": -1, "trial_type": "single-stim", "stimulus": "<p id=\"stim\">8</p>", "internal_node_id": "0.0-91.0-2.0", "time_elapsed": 580792, "key_press": -1, "trial_index": 120}, "uniqueid": "MTK2231:3ZWFC4W1UVEJD2K16T14JY8WMEXRFX", "dateTime": 1516898524659}, {"current_trial": 121, "trialdata": {"rt": -1, "trial_type": "single-stim", "stimulus": "<p id=\"stim\">7</p>", "internal_node_id": "0.0-91.0-3.0", "time_elapsed": 581793, "key_press": -1, "trial_index": 121}, "uniqueid": "MTK2231:3ZWFC4W1UVEJD2K16T14JY8WMEXRFX", "dateTime": 1516898525660}, {"current_trial": 122, "trialdata": {"rt": -1, "trial_type": "single-stim", "stimulus": "<p id=\"stim\">6</p>", "internal_node_id": "0.0-91.0-4.0", "time_elapsed": 582795, "key_press": -1, "trial_index": 122}, "uniqueid": "MTK2231:3ZWFC4W1UVEJD2K16T14JY8WMEXRFX", "dateTime": 1516898526662}, {"current_trial": 123, "trialdata": {"rt": -1, "trial_type": "single-stim", "stimulus": "<p id=\"stim\">5</p>", "internal_node_id": "0.0-91.0-5.0", "time_elapsed": 583796, "key_press": -1, "trial_index": 123}, "uniqueid": "MTK2231:3ZWFC4W1UVEJD2K16T14JY8WMEXRFX", "dateTime": 1516898527663}, {"current_trial": 124, "trialdata": {"rt": -1, "trial_type": "single-stim", "stimulus": "<p id=\"stim\">4</p>", "internal_node_id": "0.0-91.0-6.0", "time_elapsed": 584797, "key_press": -1, "trial_index": 124}, "uniqueid": "MTK2231:3ZWFC4W1UVEJD2K16T14JY8WMEXRFX", "dateTime": 1516898528664}, {"current_trial": 125, "trialdata": {"rt": -1, "trial_type": "single-stim", "stimulus": "<p id=\"stim\">3</p>", "internal_node_id": "0.0-91.0-7.0", "time_elapsed": 585798, "key_press": -1, "trial_index": 125}, "uniqueid": "MTK2231:3ZWFC4W1UVEJD2K16T14JY8WMEXRFX", "dateTime": 1516898529665}, {"current_trial": 126, "trialdata": {"rt": -1, "trial_type": "single-stim", "stimulus": "<p id=\"stim\">2</p>", "internal_node_id": "0.0-91.0-8.0", "time_elapsed": 586799, "key_press": -1, "trial_index": 126}, "uniqueid": "MTK2231:3ZWFC4W1UVEJD2K16T14JY8WMEXRFX", "dateTime": 1516898530666}, {"current_trial": 127, "trialdata": {"rt": -1, "trial_type": "single-stim", "stimulus": "<p id=\"stim\">1</p>", "internal_node_id": "0.0-91.0-9.0", "time_elapsed": 587799, "key_press": -1, "trial_index": 127}, "uniqueid": "MTK2231:3ZWFC4W1UVEJD2K16T14JY8WMEXRFX", "dateTime": 1516898531667}, {"current_trial": 128, "trialdata": {"rt": -1, "trial_type": "single-stim", "stimulus": "<p id=\"stim\">+</p>", "internal_node_id": "0.0-92.0-0.0", "time_elapsed": 589300, "key_press": -1, "type": "FIXATION", "trial_index": 128}, "uniqueid": "MTK2231:3ZWFC4W1UVEJD2K16T14JY8WMEXRFX", "dateTime": 1516898533167}, {"current_trial": 129, "trialdata": {"rt": -1000, "trial_type": "single-audio", "word": "egypt", "stimulus": "/static/audio/wordpool/EGYPT.wav", "conditions": [12, 800, "a", 12000], "internal_node_id": "0.0-93.0", "trial": 3, "time_elapsed": 591213, "serialpos": 0, "key_press": -1, "wordID": 518, "type": "PRES_AUD", "trial_index": 129}, "uniqueid": "MTK2231:3ZWFC4W1UVEJD2K16T14JY8WMEXRFX", "dateTime": 1516898535081}, {"current_trial": 130, "trialdata": {"rt": -1000, "trial_type": "single-audio", "word": "agent", "stimulus": "/static/audio/wordpool/AGENT.wav", "conditions": [12, 800, "a", 12000], "internal_node_id": "0.0-94.0", "trial": 3, "time_elapsed": 592941, "serialpos": 1, "key_press": -1, "wordID": 9, "type": "PRES_AUD", "trial_index": 130}, "uniqueid": "MTK2231:3ZWFC4W1UVEJD2K16T14JY8WMEXRFX", "dateTime": 1516898536808}, {"current_trial": 131, "trialdata": {"rt": -1000, "trial_type": "single-audio", "word": "banker", "stimulus": "/static/audio/wordpool/BANKER.wav", "conditions": [12, 800, "a", 12000], "internal_node_id": "0.0-95.0", "trial": 3, "time_elapsed": 594829, "serialpos": 2, "key_press": -1, "wordID": 83, "type": "PRES_AUD", "trial_index": 131}, "uniqueid": "MTK2231:3ZWFC4W1UVEJD2K16T14JY8WMEXRFX", "dateTime": 1516898538696}, {"current_trial": 132, "trialdata": {"rt": -1000, "trial_type": "single-audio", "word": "bacon", "stimulus": "/static/audio/wordpool/BACON.wav", "conditions": [12, 800, "a", 12000], "internal_node_id": "0.0-96.0", "trial": 3, "time_elapsed": 596520, "serialpos": 3, "key_press": -1, "wordID": 66, "type": "PRES_AUD", "trial_index": 132}, "uniqueid": "MTK2231:3ZWFC4W1UVEJD2K16T14JY8WMEXRFX", "dateTime": 1516898540387}, {"current_trial": 133, "trialdata": {"rt": -1000, "trial_type": "single-audio", "word": "virus", "stimulus": "/static/audio/wordpool/VIRUS.wav", "conditions": [12, 800, "a", 12000], "internal_node_id": "0.0-97.0", "trial": 3, "time_elapsed": 598194, "serialpos": 4, "key_press": -1, "wordID": 1571, "type": "PRES_AUD", "trial_index": 133}, "uniqueid": "MTK2231:3ZWFC4W1UVEJD2K16T14JY8WMEXRFX", "dateTime": 1516898542061}, {"current_trial": 134, "trialdata": {"rt": -1000, "trial_type": "single-audio", "word": "bug", "stimulus": "/static/audio/wordpool/BUG.wav", "conditions": [12, 800, "a", 12000], "internal_node_id": "0.0-98.0", "trial": 3, "time_elapsed": 600034, "serialpos": 5, "key_press": -1, "wordID": 186, "type": "PRES_AUD", "trial_index": 134}, "uniqueid": "MTK2231:3ZWFC4W1UVEJD2K16T14JY8WMEXRFX", "dateTime": 1516898543901}, {"current_trial": 135, "trialdata": {"rt": -1000, "trial_type": "single-audio", "word": "jelly", "stimulus": "/static/audio/wordpool/JELLY.wav", "conditions": [12, 800, "a", 12000], "internal_node_id": "0.0-99.0", "trial": 3, "time_elapsed": 601832, "serialpos": 6, "key_press": -1, "wordID": 754, "type": "PRES_AUD", "trial_index": 135}, "uniqueid": "MTK2231:3ZWFC4W1UVEJD2K16T14JY8WMEXRFX", "dateTime": 1516898545699}, {"current_trial": 136, "trialdata": {"rt": -1000, "trial_type": "single-audio", "word": "silk", "stimulus": "/static/audio/wordpool/SILK.wav", "conditions": [12, 800, "a", 12000], "internal_node_id": "0.0-100.0", "trial": 3, "time_elapsed": 603446, "serialpos": 7, "key_press": -1, "wordID": 1306, "type": "PRES_AUD", "trial_index": 136}, "uniqueid": "MTK2231:3ZWFC4W1UVEJD2K16T14JY8WMEXRFX", "dateTime": 1516898547313}, {"current_trial": 137, "trialdata": {"rt": -1000, "trial_type": "single-audio", "word": "flipper", "stimulus": "/static/audio/wordpool/FLIPPER.wav", "conditions": [12, 800, "a", 12000], "internal_node_id": "0.0-101.0", "trial": 3, "time_elapsed": 605077, "serialpos": 8, "key_press": -1, "wordID": 579, "type": "PRES_AUD", "trial_index": 137}, "uniqueid": "MTK2231:3ZWFC4W1UVEJD2K16T14JY8WMEXRFX", "dateTime": 1516898548944}, {"current_trial": 138, "trialdata": {"rt": -1000, "trial_type": "single-audio", "word": "london", "stimulus": "/static/audio/wordpool/LONDON.wav", "conditions": [12, 800, "a", 12000], "internal_node_id": "0.0-102.0", "trial": 3, "time_elapsed": 607019, "serialpos": 9, "key_press": -1, "wordID": 842, "type": "PRES_AUD", "trial_index": 138}, "uniqueid": "MTK2231:3ZWFC4W1UVEJD2K16T14JY8WMEXRFX", "dateTime": 1516898550886}, {"current_trial": 139, "trialdata": {"rt": -1000, "trial_type": "single-audio", "word": "omelet", "stimulus": "/static/audio/wordpool/OMELET.wav", "conditions": [12, 800, "a", 12000], "internal_node_id": "0.0-103.0", "trial": 3, "time_elapsed": 608790, "serialpos": 10, "key_press": -1, "wordID": 975, "type": "PRES_AUD", "trial_index": 139}, "uniqueid": "MTK2231:3ZWFC4W1UVEJD2K16T14JY8WMEXRFX", "dateTime": 1516898552657}, {"current_trial": 140, "trialdata": {"rt": -1000, "trial_type": "single-audio", "word": "europe", "stimulus": "/static/audio/wordpool/EUROPE.wav", "conditions": [12, 800, "a", 12000], "internal_node_id": "0.0-104.0", "trial": 3, "time_elapsed": 610741, "serialpos": 11, "key_press": -1, "wordID": 540, "type": "PRES_AUD", "trial_index": 140}, "uniqueid": "MTK2231:3ZWFC4W1UVEJD2K16T14JY8WMEXRFX", "dateTime": 1516898554608}, {"current_trial": 141, "trialdata": {"rt": -1, "trial_type": "single-stim", "stimulus": "", "internal_node_id": "0.0-105.0-0.0", "time_elapsed": 612041, "key_press": -1, "type": "PRE_RECALL_DELAY", "trial_index": 141}, "uniqueid": "MTK2231:3ZWFC4W1UVEJD2K16T14JY8WMEXRFX", "dateTime": 1516898555908}, {"current_trial": 142, "trialdata": {"rt": -1000, "trial_type": "single-audio", "stimulus": "/static/audio/400Hz.wav", "internal_node_id": "0.0-106.0", "time_elapsed": 612542, "key_press": -1, "type": "PRE_RECALL_ALERT", "trial_index": 142}, "uniqueid": "MTK2231:3ZWFC4W1UVEJD2K16T14JY8WMEXRFX", "dateTime": 1516898556409}, {"current_trial": 143, "trialdata": {"rt": [2921, 5673, 7897, 8841, 13689, 21929, 29593, 36329, 39113, 54489, 58057], "recwords": ["omlet", "europe", "bakery", "silk", "europe", "baker", "stilt", "chunk", "bed", "bed", "omlett"], "key_times": [1817, 1993, 2121, 2265, 2489, 2921, 4457, 4617, 4809, 4905, 5113, 5273, 5673, 6761, 6937, 7049, 7177, 7305, 7417, 7897, 8281, 8377, 8569, 8665, 8841, 12329, 12617, 12857, 12953, 13161, 13353, 13689, 20761, 21049, 21305, 21561, 21657, 21929, 28233, 28521, 28665, 28857, 29305, 29593, 32345, 32393, 32697, 34041, 34809, 36329, 38665, 38793, 39017, 39113, 54057, 54185, 54393, 54489, 56857, 57081, 57209, 57321, 57513, 57945, 58057], "trial_type": "free-recall", "conditions": [12, 800, "a", 12000], "internal_node_id": "0.0-107.0-0.0", "key_presses": [79, 77, 76, 69, 84, 32, 69, 85, 82, 79, 80, 69, 32, 66, 65, 75, 69, 82, 89, 32, 83, 73, 76, 75, 32, 69, 85, 82, 79, 80, 69, 13, 66, 65, 75, 69, 82, 13, 83, 84, 73, 76, 84, 13, 67, 72, 85, 78, 75, 13, 66, 69, 68, 13, 66, 69, 68, 13, 79, 77, 76, 69, 84, 84, 13], "trial": 3, "time_elapsed": 672544, "type": "FREE_RECALL", "trial_index": 143}, "uniqueid": "MTK2231:3ZWFC4W1UVEJD2K16T14JY8WMEXRFX", "dateTime": 1516898616412}, {"current_trial": 144, "trialdata": {"rt": 7094, "trial_type": "text", "internal_node_id": "0.0-108.0", "time_elapsed": 681641, "key_press": 32, "type": "INSTRUCTIONS", "trial_index": 144}, "uniqueid": "MTK2231:3ZWFC4W1UVEJD2K16T14JY8WMEXRFX", "dateTime": 1516898625508}, {"current_trial": 145, "trialdata": {"rt": [2622, 4110, 6270, 9422, 23118], "trial_type": "math-distractor", "key_times": [2030, 2190, 2622, 3774, 3982, 4110, 5950, 6126, 6270, 9086, 9278, 9422, 22862, 23006, 23118], "responses": ["18", "15", "19", "14", "14"], "num2": [4, 5, 5, 4, 2, 7], "num3": [5, 5, 9, 2, 8, 6], "conditions": [24, 800, "a", 24000], "internal_node_id": "0.0-109.0", "key_presses": [49, 56, 13, 49, 53, 13, 49, 57, 13, 49, 52, 13, 49, 52, 13], "trial": 4, "time_elapsed": 707642, "type": "DISTRACTOR", "trial_index": 145, "num1": [9, 5, 5, 8, 4, 7]}, "uniqueid": "MTK2231:3ZWFC4W1UVEJD2K16T14JY8WMEXRFX", "dateTime": 1516898651509}, {"current_trial": 146, "trialdata": {"rt": -1, "trial_type": "single-stim", "stimulus": "<p id=\"stim\">10</p>", "internal_node_id": "0.0-110.0-0.0", "time_elapsed": 710644, "key_press": -1, "trial_index": 146}, "uniqueid": "MTK2231:3ZWFC4W1UVEJD2K16T14JY8WMEXRFX", "dateTime": 1516898654511}, {"current_trial": 147, "trialdata": {"rt": -1, "trial_type": "single-stim", "stimulus": "<p id=\"stim\">9</p>", "internal_node_id": "0.0-110.0-1.0", "time_elapsed": 711646, "key_press": -1, "trial_index": 147}, "uniqueid": "MTK2231:3ZWFC4W1UVEJD2K16T14JY8WMEXRFX", "dateTime": 1516898655513}, {"current_trial": 148, "trialdata": {"rt": -1, "trial_type": "single-stim", "stimulus": "<p id=\"stim\">8</p>", "internal_node_id": "0.0-110.0-2.0", "time_elapsed": 712648, "key_press": -1, "trial_index": 148}, "uniqueid": "MTK2231:3ZWFC4W1UVEJD2K16T14JY8WMEXRFX", "dateTime": 1516898656515}, {"current_trial": 149, "trialdata": {"rt": -1, "trial_type": "single-stim", "stimulus": "<p id=\"stim\">7</p>", "internal_node_id": "0.0-110.0-3.0", "time_elapsed": 713649, "key_press": -1, "trial_index": 149}, "uniqueid": "MTK2231:3ZWFC4W1UVEJD2K16T14JY8WMEXRFX", "dateTime": 1516898657516}, {"current_trial": 150, "trialdata": {"rt": -1, "trial_type": "single-stim", "stimulus": "<p id=\"stim\">6</p>", "internal_node_id": "0.0-110.0-4.0", "time_elapsed": 714650, "key_press": -1, "trial_index": 150}, "uniqueid": "MTK2231:3ZWFC4W1UVEJD2K16T14JY8WMEXRFX", "dateTime": 1516898658517}, {"current_trial": 151, "trialdata": {"rt": -1, "trial_type": "single-stim", "stimulus": "<p id=\"stim\">5</p>", "internal_node_id": "0.0-110.0-5.0", "time_elapsed": 715651, "key_press": -1, "trial_index": 151}, "uniqueid": "MTK2231:3ZWFC4W1UVEJD2K16T14JY8WMEXRFX", "dateTime": 1516898659518}, {"current_trial": 152, "trialdata": {"rt": -1, "trial_type": "single-stim", "stimulus": "<p id=\"stim\">4</p>", "internal_node_id": "0.0-110.0-6.0", "time_elapsed": 716652, "key_press": -1, "trial_index": 152}, "uniqueid": "MTK2231:3ZWFC4W1UVEJD2K16T14JY8WMEXRFX", "dateTime": 1516898660519}, {"current_trial": 153, "trialdata": {"rt": -1, "trial_type": "single-stim", "stimulus": "<p id=\"stim\">3</p>", "internal_node_id": "0.0-110.0-7.0", "time_elapsed": 717653, "key_press": -1, "trial_index": 153}, "uniqueid": "MTK2231:3ZWFC4W1UVEJD2K16T14JY8WMEXRFX", "dateTime": 1516898661520}, {"current_trial": 154, "trialdata": {"rt": -1, "trial_type": "single-stim", "stimulus": "<p id=\"stim\">2</p>", "internal_node_id": "0.0-110.0-8.0", "time_elapsed": 718656, "key_press": -1, "trial_index": 154}, "uniqueid": "MTK2231:3ZWFC4W1UVEJD2K16T14JY8WMEXRFX", "dateTime": 1516898662523}, {"current_trial": 155, "trialdata": {"rt": -1, "trial_type": "single-stim", "stimulus": "<p id=\"stim\">1</p>", "internal_node_id": "0.0-110.0-9.0", "time_elapsed": 719658, "key_press": -1, "trial_index": 155}, "uniqueid": "MTK2231:3ZWFC4W1UVEJD2K16T14JY8WMEXRFX", "dateTime": 1516898663525}, {"current_trial": 156, "trialdata": {"rt": -1, "trial_type": "single-stim", "stimulus": "<p id=\"stim\">+</p>", "internal_node_id": "0.0-111.0-0.0", "time_elapsed": 721159, "key_press": -1, "type": "FIXATION", "trial_index": 156}, "uniqueid": "MTK2231:3ZWFC4W1UVEJD2K16T14JY8WMEXRFX", "dateTime": 1516898665026}, {"current_trial": 157, "trialdata": {"rt": -1000, "trial_type": "single-audio", "word": "knapsack", "stimulus": "/static/audio/wordpool/KNAPSACK.wav", "conditions": [24, 800, "a", 24000], "internal_node_id": "0.0-112.0", "trial": 4, "time_elapsed": 723039, "serialpos": 0, "key_press": -1, "wordID": 782, "type": "PRES_AUD", "trial_index": 157}, "uniqueid": "MTK2231:3ZWFC4W1UVEJD2K16T14JY8WMEXRFX", "dateTime": 1516898666906}, {"current_trial": 158, "trialdata": {"rt": -1000, "trial_type": "single-audio", "word": "daughter", "stimulus": "/static/audio/wordpool/DAUGHTER.wav", "conditions": [24, 800, "a", 24000], "internal_node_id": "0.0-113.0", "trial": 4, "time_elapsed": 724804, "serialpos": 1, "key_press": -1, "wordID": 441, "type": "PRES_AUD", "trial_index": 158}, "uniqueid": "MTK2231:3ZWFC4W1UVEJD2K16T14JY8WMEXRFX", "dateTime": 1516898668671}, {"current_trial": 159, "trialdata": {"rt": -1000, "trial_type": "single-audio", "word": "pepper", "stimulus": "/static/audio/wordpool/PEPPER.wav", "conditions": [24, 800, "a", 24000], "internal_node_id": "0.0-114.0", "trial": 4, "time_elapsed": 726454, "serialpos": 2, "key_press": -1, "wordID": 1046, "type": "PRES_AUD", "trial_index": 159}, "uniqueid": "MTK2231:3ZWFC4W1UVEJD2K16T14JY8WMEXRFX", "dateTime": 1516898670321}, {"current_trial": 160, "trialdata": {"rt": -1000, "trial_type": "single-audio", "word": "necklace", "stimulus": "/static/audio/wordpool/NECKLACE.wav", "conditions": [24, 800, "a", 24000], "internal_node_id": "0.0-115.0", "trial": 4, "time_elapsed": 728107, "serialpos": 3, "key_press": -1, "wordID": 939, "type": "PRES_AUD", "trial_index": 160}, "uniqueid": "MTK2231:3ZWFC4W1UVEJD2K16T14JY8WMEXRFX", "dateTime": 1516898671974}, {"current_trial": 161, "trialdata": {"rt": -1000, "trial_type": "single-audio", "word": "snake", "stimulus": "/static/audio/wordpool/SNAKE.wav", "conditions": [24, 800, "a", 24000], "internal_node_id": "0.0-116.0", "trial": 4, "time_elapsed": 729711, "serialpos": 4, "key_press": -1, "wordID": 1332, "type": "PRES_AUD", "trial_index": 161}, "uniqueid": "MTK2231:3ZWFC4W1UVEJD2K16T14JY8WMEXRFX", "dateTime": 1516898673578}, {"current_trial": 162, "trialdata": {"rt": -1000, "trial_type": "single-audio", "word": "parsley", "stimulus": "/static/audio/wordpool/PARSLEY.wav", "conditions": [24, 800, "a", 24000], "internal_node_id": "0.0-117.0", "trial": 4, "time_elapsed": 731401, "serialpos": 5, "key_press": -1, "wordID": 1015, "type": "PRES_AUD", "trial_index": 162}, "uniqueid": "MTK2231:3ZWFC4W1UVEJD2K16T14JY8WMEXRFX", "dateTime": 1516898675268}, {"current_trial": 163, "trialdata": {"rt": -1000, "trial_type": "single-audio", "word": "nightgown", "stimulus": "/static/audio/wordpool/NIGHTGOWN.wav", "conditions": [24, 800, "a", 24000], "internal_node_id": "0.0-118.0", "trial": 4, "time_elapsed": 733136, "serialpos": 6, "key_press": -1, "wordID": 952, "type": "PRES_AUD", "trial_index": 163}, "uniqueid": "MTK2231:3ZWFC4W1UVEJD2K16T14JY8WMEXRFX", "dateTime": 1516898677003}, {"current_trial": 164, "trialdata": {"rt": -1000, "trial_type": "single-audio", "word": "tortoise", "stimulus": "/static/audio/wordpool/TORTOISE.wav", "conditions": [24, 800, "a", 24000], "internal_node_id": "0.0-119.0", "trial": 4, "time_elapsed": 734933, "serialpos": 7, "key_press": -1, "wordID": 1485, "type": "PRES_AUD", "trial_index": 164}, "uniqueid": "MTK2231:3ZWFC4W1UVEJD2K16T14JY8WMEXRFX", "dateTime": 1516898678800}, {"current_trial": 165, "trialdata": {"rt": -1000, "trial_type": "single-audio", "word": "snail", "stimulus": "/static/audio/wordpool/SNAIL.wav", "conditions": [24, 800, "a", 24000], "internal_node_id": "0.0-120.0", "trial": 4, "time_elapsed": 736831, "serialpos": 8, "key_press": -1, "wordID": 1331, "type": "PRES_AUD", "trial_index": 165}, "uniqueid": "MTK2231:3ZWFC4W1UVEJD2K16T14JY8WMEXRFX", "dateTime": 1516898680698}, {"current_trial": 166, "trialdata": {"rt": -1000, "trial_type": "single-audio", "word": "yacht", "stimulus": "/static/audio/wordpool/YACHT.wav", "conditions": [24, 800, "a", 24000], "internal_node_id": "0.0-121.0", "trial": 4, "time_elapsed": 738658, "serialpos": 9, "key_press": -1, "wordID": 1628, "type": "PRES_AUD", "trial_index": 166}, "uniqueid": "MTK2231:3ZWFC4W1UVEJD2K16T14JY8WMEXRFX", "dateTime": 1516898682525}, {"current_trial": 167, "trialdata": {"rt": -1000, "trial_type": "single-audio", "word": "twig", "stimulus": "/static/audio/wordpool/TWIG.wav", "conditions": [24, 800, "a", 24000], "internal_node_id": "0.0-122.0", "trial": 4, "time_elapsed": 740636, "serialpos": 10, "key_press": -1, "wordID": 1526, "type": "PRES_AUD", "trial_index": 167}, "uniqueid": "MTK2231:3ZWFC4W1UVEJD2K16T14JY8WMEXRFX", "dateTime": 1516898684503}, {"current_trial": 168, "trialdata": {"rt": -1000, "trial_type": "single-audio", "word": "mailman", "stimulus": "/static/audio/wordpool/MAILMAN.wav", "conditions": [24, 800, "a", 24000], "internal_node_id": "0.0-123.0", "trial": 4, "time_elapsed": 742470, "serialpos": 11, "key_press": -1, "wordID": 857, "type": "PRES_AUD", "trial_index": 168}, "uniqueid": "MTK2231:3ZWFC4W1UVEJD2K16T14JY8WMEXRFX", "dateTime": 1516898686337}, {"current_trial": 169, "trialdata": {"rt": -1000, "trial_type": "single-audio", "word": "friend", "stimulus": "/static/audio/wordpool/FRIEND.wav", "conditions": [24, 800, "a", 24000], "internal_node_id": "0.0-124.0", "trial": 4, "time_elapsed": 744311, "serialpos": 12, "key_press": -1, "wordID": 605, "type": "PRES_AUD", "trial_index": 169}, "uniqueid": "MTK2231:3ZWFC4W1UVEJD2K16T14JY8WMEXRFX", "dateTime": 1516898688178}, {"current_trial": 170, "trialdata": {"rt": -1000, "trial_type": "single-audio", "word": "laser", "stimulus": "/static/audio/wordpool/LASER.wav", "conditions": [24, 800, "a", 24000], "internal_node_id": "0.0-125.0", "trial": 4, "time_elapsed": 746234, "serialpos": 13, "key_press": -1, "wordID": 800, "type": "PRES_AUD", "trial_index": 170}, "uniqueid": "MTK2231:3ZWFC4W1UVEJD2K16T14JY8WMEXRFX", "dateTime": 1516898690102}, {"current_trial": 171, "trialdata": {"rt": -1000, "trial_type": "single-audio", "word": "gallon", "stimulus": "/static/audio/wordpool/GALLON.wav", "conditions": [24, 800, "a", 24000], "internal_node_id": "0.0-126.0", "trial": 4, "time_elapsed": 747926, "serialpos": 14, "key_press": -1, "wordID": 617, "type": "PRES_AUD", "trial_index": 171}, "uniqueid": "MTK2231:3ZWFC4W1UVEJD2K16T14JY8WMEXRFX", "dateTime": 1516898691793}, {"current_trial": 172, "trialdata": {"rt": -1000, "trial_type": "single-audio", "word": "onion", "stimulus": "/static/audio/wordpool/ONION.wav", "conditions": [24, 800, "a", 24000], "internal_node_id": "0.0-127.0", "trial": 4, "time_elapsed": 749860, "serialpos": 15, "key_press": -1, "wordID": 976, "type": "PRES_AUD", "trial_index": 172}, "uniqueid": "MTK2231:3ZWFC4W1UVEJD2K16T14JY8WMEXRFX", "dateTime": 1516898693727}, {"current_trial": 173, "trialdata": {"rt": -1000, "trial_type": "single-audio", "word": "grape", "stimulus": "/static/audio/wordpool/GRAPE.wav", "conditions": [24, 800, "a", 24000], "internal_node_id": "0.0-128.0", "trial": 4, "time_elapsed": 751548, "serialpos": 16, "key_press": -1, "wordID": 653, "type": "PRES_AUD", "trial_index": 173}, "uniqueid": "MTK2231:3ZWFC4W1UVEJD2K16T14JY8WMEXRFX", "dateTime": 1516898695415}, {"current_trial": 174, "trialdata": {"rt": -1000, "trial_type": "single-audio", "word": "cyclone", "stimulus": "/static/audio/wordpool/CYCLONE.wav", "conditions": [24, 800, "a", 24000], "internal_node_id": "0.0-129.0", "trial": 4, "time_elapsed": 753368, "serialpos": 17, "key_press": -1, "wordID": 430, "type": "PRES_AUD", "trial_index": 174}, "uniqueid": "MTK2231:3ZWFC4W1UVEJD2K16T14JY8WMEXRFX", "dateTime": 1516898697236}, {"current_trial": 175, "trialdata": {"rt": -1000, "trial_type": "single-audio", "word": "vagrant", "stimulus": "/static/audio/wordpool/VAGRANT.wav", "conditions": [24, 800, "a", 24000], "internal_node_id": "0.0-130.0", "trial": 4, "time_elapsed": 755232, "serialpos": 18, "key_press": -1, "wordID": 1543, "type": "PRES_AUD", "trial_index": 175}, "uniqueid": "MTK2231:3ZWFC4W1UVEJD2K16T14JY8WMEXRFX", "dateTime": 1516898699099}, {"current_trial": 176, "trialdata": {"rt": -1000, "trial_type": "single-audio", "word": "rod", "stimulus": "/static/audio/wordpool/ROD.wav", "conditions": [24, 800, "a", 24000], "internal_node_id": "0.0-131.0", "trial": 4, "time_elapsed": 756896, "serialpos": 19, "key_press": -1, "wordID": 1202, "type": "PRES_AUD", "trial_index": 176}, "uniqueid": "MTK2231:3ZWFC4W1UVEJD2K16T14JY8WMEXRFX", "dateTime": 1516898700763}, {"current_trial": 177, "trialdata": {"rt": -1000, "trial_type": "single-audio", "word": "spool", "stimulus": "/static/audio/wordpool/SPOOL.wav", "conditions": [24, 800, "a", 24000], "internal_node_id": "0.0-132.0", "trial": 4, "time_elapsed": 758689, "serialpos": 20, "key_press": -1, "wordID": 1355, "type": "PRES_AUD", "trial_index": 177}, "uniqueid": "MTK2231:3ZWFC4W1UVEJD2K16T14JY8WMEXRFX", "dateTime": 1516898702556}, {"current_trial": 178, "trialdata": {"rt": -1000, "trial_type": "single-audio", "word": "apple", "stimulus": "/static/audio/wordpool/APPLE.wav", "conditions": [24, 800, "a", 24000], "internal_node_id": "0.0-133.0", "trial": 4, "time_elapsed": 760522, "serialpos": 21, "key_press": -1, "wordID": 32, "type": "PRES_AUD", "trial_index": 178}, "uniqueid": "MTK2231:3ZWFC4W1UVEJD2K16T14JY8WMEXRFX", "dateTime": 1516898704389}, {"current_trial": 179, "trialdata": {"rt": -1000, "trial_type": "single-audio", "word": "hero", "stimulus": "/static/audio/wordpool/HERO.wav", "conditions": [24, 800, "a", 24000], "internal_node_id": "0.0-134.0", "trial": 4, "time_elapsed": 762510, "serialpos": 22, "key_press": -1, "wordID": 705, "type": "PRES_AUD", "trial_index": 179}, "uniqueid": "MTK2231:3ZWFC4W1UVEJD2K16T14JY8WMEXRFX", "dateTime": 1516898706377}, {"current_trial": 180, "trialdata": {"rt": -1000, "trial_type": "single-audio", "word": "blender", "stimulus": "/static/audio/wordpool/BLENDER.wav", "conditions": [24, 800, "a", 24000], "internal_node_id": "0.0-135.0", "trial": 4, "time_elapsed": 764379, "serialpos": 23, "key_press": -1, "wordID": 135, "type": "PRES_AUD", "trial_index": 180}, "uniqueid": "MTK2231:3ZWFC4W1UVEJD2K16T14JY8WMEXRFX", "dateTime": 1516898708246}, {"current_trial": 181, "trialdata": {"rt": -1, "trial_type": "single-stim", "stimulus": "", "internal_node_id": "0.0-136.0-0.0", "time_elapsed": 765691, "key_press": -1, "type": "PRE_RECALL_DELAY", "trial_index": 181}, "uniqueid": "MTK2231:3ZWFC4W1UVEJD2K16T14JY8WMEXRFX", "dateTime": 1516898709558}, {"current_trial": 182, "trialdata": {"rt": -1000, "trial_type": "single-audio", "stimulus": "/static/audio/400Hz.wav", "internal_node_id": "0.0-137.0", "time_elapsed": 766192, "key_press": -1, "type": "PRE_RECALL_ALERT", "trial_index": 182}, "uniqueid": "MTK2231:3ZWFC4W1UVEJD2K16T14JY8WMEXRFX", "dateTime": 1516898710059}, {"current_trial": 183, "trialdata": {"rt": [1671, 2823, 3623, 4919, 6791, 10391, 16407, 18727, 22951], "recwords": ["blender", "apple", "hero", "spool", "vagrant", "school", "dress", "parsley", "diner"], "key_times": [471, 711, 871, 1047, 1175, 1431, 1527, 1671, 2039, 2151, 2375, 2567, 2711, 2823, 3063, 3207, 3303, 3367, 3623, 4055, 4151, 4359, 4519, 4711, 4919, 5623, 5831, 6039, 6199, 6327, 6487, 6599, 6791, 8167, 9015, 9111, 9335, 9399, 9559, 9767, 10231, 10391, 15495, 15767, 15831, 16055, 16247, 16407, 17559, 17671, 17799, 17991, 18103, 18215, 18359, 18727, 22119, 22215, 22487, 22727, 22855, 22951], "trial_type": "free-recall", "conditions": [24, 800, "a", 24000], "internal_node_id": "0.0-138.0-0.0", "key_presses": [66, 76, 69, 78, 68, 69, 82, 13, 65, 80, 80, 76, 69, 13, 72, 69, 82, 79, 32, 83, 80, 79, 79, 76, 32, 86, 65, 71, 82, 65, 78, 84, 32, 72, 8, 83, 67, 72, 79, 79, 76, 32, 68, 82, 69, 83, 83, 32, 80, 65, 82, 83, 76, 69, 89, 32, 68, 73, 78, 69, 82, 32], "trial": 4, "time_elapsed": 826194, "type": "FREE_RECALL", "trial_index": 183}, "uniqueid": "MTK2231:3ZWFC4W1UVEJD2K16T14JY8WMEXRFX", "dateTime": 1516898770063}, {"current_trial": 184, "trialdata": {"rt": 6980, "trial_type": "text", "internal_node_id": "0.0-139.0", "time_elapsed": 835176, "key_press": 32, "type": "INSTRUCTIONS", "trial_index": 184}, "uniqueid": "MTK2231:3ZWFC4W1UVEJD2K16T14JY8WMEXRFX", "dateTime": 1516898779043}, {"current_trial": 185, "trialdata": {"rt": [2638, 4862, 8510, 10814, 12574, 14398, 16782, 19806, 21806], "trial_type": "math-distractor", "key_times": [2095, 2446, 2638, 4158, 4494, 4862, 7567, 8030, 8510, 10526, 10814, 12126, 12335, 12574, 13919, 14254, 14398, 16606, 16782, 19551, 19806, 21406, 21550, 21806], "responses": ["14", "16", "13", "9", "11", "15", "7", "9", "18"], "num2": [1, 8, 2, 2, 9, 6, 4, 1, 2, 5], "num3": [7, 3, 4, 1, 1, 4, 1, 6, 8, 2], "conditions": [12, 800, "a", 24000], "internal_node_id": "0.0-140.0", "key_presses": [49, 52, 13, 49, 54, 13, 49, 51, 13, 57, 13, 49, 49, 13, 49, 53, 13, 55, 13, 57, 13, 49, 56, 13], "trial": 5, "time_elapsed": 861177, "type": "DISTRACTOR", "trial_index": 185, "num1": [6, 5, 7, 6, 1, 5, 2, 2, 8, 6]}, "uniqueid": "MTK2231:3ZWFC4W1UVEJD2K16T14JY8WMEXRFX", "dateTime": 1516898805044}, {"current_trial": 186, "trialdata": {"rt": -1, "trial_type": "single-stim", "stimulus": "<p id=\"stim\">10</p>", "internal_node_id": "0.0-141.0-0.0", "time_elapsed": 864179, "key_press": -1, "trial_index": 186}, "uniqueid": "MTK2231:3ZWFC4W1UVEJD2K16T14JY8WMEXRFX", "dateTime": 1516898808046}, {"current_trial": 187, "trialdata": {"rt": -1, "trial_type": "single-stim", "stimulus": "<p id=\"stim\">9</p>", "internal_node_id": "0.0-141.0-1.0", "time_elapsed": 865181, "key_press": -1, "trial_index": 187}, "uniqueid": "MTK2231:3ZWFC4W1UVEJD2K16T14JY8WMEXRFX", "dateTime": 1516898809048}, {"current_trial": 188, "trialdata": {"rt": -1, "trial_type": "single-stim", "stimulus": "<p id=\"stim\">8</p>", "internal_node_id": "0.0-141.0-2.0", "time_elapsed": 866182, "key_press": -1, "trial_index": 188}, "uniqueid": "MTK2231:3ZWFC4W1UVEJD2K16T14JY8WMEXRFX", "dateTime": 1516898810049}, {"current_trial": 189, "trialdata": {"rt": -1, "trial_type": "single-stim", "stimulus": "<p id=\"stim\">7</p>", "internal_node_id": "0.0-141.0-3.0", "time_elapsed": 867183, "key_press": -1, "trial_index": 189}, "uniqueid": "MTK2231:3ZWFC4W1UVEJD2K16T14JY8WMEXRFX", "dateTime": 1516898811050}, {"current_trial": 190, "trialdata": {"rt": -1, "trial_type": "single-stim", "stimulus": "<p id=\"stim\">6</p>", "internal_node_id": "0.0-141.0-4.0", "time_elapsed": 868184, "key_press": -1, "trial_index": 190}, "uniqueid": "MTK2231:3ZWFC4W1UVEJD2K16T14JY8WMEXRFX", "dateTime": 1516898812051}, {"current_trial": 191, "trialdata": {"rt": -1, "trial_type": "single-stim", "stimulus": "<p id=\"stim\">5</p>", "internal_node_id": "0.0-141.0-5.0", "time_elapsed": 869185, "key_press": -1, "trial_index": 191}, "uniqueid": "MTK2231:3ZWFC4W1UVEJD2K16T14JY8WMEXRFX", "dateTime": 1516898813052}, {"current_trial": 192, "trialdata": {"rt": -1, "trial_type": "single-stim", "stimulus": "<p id=\"stim\">4</p>", "internal_node_id": "0.0-141.0-6.0", "time_elapsed": 870186, "key_press": -1, "trial_index": 192}, "uniqueid": "MTK2231:3ZWFC4W1UVEJD2K16T14JY8WMEXRFX", "dateTime": 1516898814053}, {"current_trial": 193, "trialdata": {"rt": -1, "trial_type": "single-stim", "stimulus": "<p id=\"stim\">3</p>", "internal_node_id": "0.0-141.0-7.0", "time_elapsed": 871187, "key_press": -1, "trial_index": 193}, "uniqueid": "MTK2231:3ZWFC4W1UVEJD2K16T14JY8WMEXRFX", "dateTime": 1516898815054}, {"current_trial": 194, "trialdata": {"rt": -1, "trial_type": "single-stim", "stimulus": "<p id=\"stim\">2</p>", "internal_node_id": "0.0-141.0-8.0", "time_elapsed": 872188, "key_press": -1, "trial_index": 194}, "uniqueid": "MTK2231:3ZWFC4W1UVEJD2K16T14JY8WMEXRFX", "dateTime": 1516898816055}, {"current_trial": 195, "trialdata": {"rt": -1, "trial_type": "single-stim", "stimulus": "<p id=\"stim\">1</p>", "internal_node_id": "0.0-141.0-9.0", "time_elapsed": 873190, "key_press": -1, "trial_index": 195}, "uniqueid": "MTK2231:3ZWFC4W1UVEJD2K16T14JY8WMEXRFX", "dateTime": 1516898817057}, {"current_trial": 196, "trialdata": {"rt": -1, "trial_type": "single-stim", "stimulus": "<p id=\"stim\">+</p>", "internal_node_id": "0.0-142.0-0.0", "time_elapsed": 874691, "key_press": -1, "type": "FIXATION", "trial_index": 196}, "uniqueid": "MTK2231:3ZWFC4W1UVEJD2K16T14JY8WMEXRFX", "dateTime": 1516898818558}, {"current_trial": 197, "trialdata": {"rt": -1000, "trial_type": "single-audio", "word": "lunch", "stimulus": "/static/audio/wordpool/LUNCH.wav", "conditions": [12, 800, "a", 24000], "internal_node_id": "0.0-143.0", "trial": 5, "time_elapsed": 876561, "serialpos": 0, "key_press": -1, "wordID": 848, "type": "PRES_AUD", "trial_index": 197}, "uniqueid": "MTK2231:3ZWFC4W1UVEJD2K16T14JY8WMEXRFX", "dateTime": 1516898820428}, {"current_trial": 198, "trialdata": {"rt": -1000, "trial_type": "single-audio", "word": "napkin", "stimulus": "/static/audio/wordpool/NAPKIN.wav", "conditions": [12, 800, "a", 24000], "internal_node_id": "0.0-144.0", "trial": 5, "time_elapsed": 878485, "serialpos": 1, "key_press": -1, "wordID": 936, "type": "PRES_AUD", "trial_index": 198}, "uniqueid": "MTK2231:3ZWFC4W1UVEJD2K16T14JY8WMEXRFX", "dateTime": 1516898822352}, {"current_trial": 199, "trialdata": {"rt": -1000, "trial_type": "single-audio", "word": "termite", "stimulus": "/static/audio/wordpool/TERMITE.wav", "conditions": [12, 800, "a", 24000], "internal_node_id": "0.0-145.0", "trial": 5, "time_elapsed": 880187, "serialpos": 2, "key_press": -1, "wordID": 1450, "type": "PRES_AUD", "trial_index": 199}, "uniqueid": "MTK2231:3ZWFC4W1UVEJD2K16T14JY8WMEXRFX", "dateTime": 1516898824054}, {"current_trial": 200, "trialdata": {"rt": -1000, "trial_type": "single-audio", "word": "powder", "stimulus": "/static/audio/wordpool/POWDER.wav", "conditions": [12, 800, "a", 24000], "internal_node_id": "0.0-146.0", "trial": 5, "time_elapsed": 882103, "serialpos": 3, "key_press": -1, "wordID": 1116, "type": "PRES_AUD", "trial_index": 200}, "uniqueid": "MTK2231:3ZWFC4W1UVEJD2K16T14JY8WMEXRFX", "dateTime": 1516898825970}, {"current_trial": 201, "trialdata": {"rt": -1000, "trial_type": "single-audio", "word": "money", "stimulus": "/static/audio/wordpool/MONEY.wav", "conditions": [12, 800, "a", 24000], "internal_node_id": "0.0-147.0", "trial": 5, "time_elapsed": 883776, "serialpos": 4, "key_press": -1, "wordID": 907, "type": "PRES_AUD", "trial_index": 201}, "uniqueid": "MTK2231:3ZWFC4W1UVEJD2K16T14JY8WMEXRFX", "dateTime": 1516898827643}, {"current_trial": 202, "trialdata": {"rt": -1000, "trial_type": "single-audio", "word": "oyster", "stimulus": "/static/audio/wordpool/OYSTER.wav", "conditions": [12, 800, "a", 24000], "internal_node_id": "0.0-148.0", "trial": 5, "time_elapsed": 885687, "serialpos": 5, "key_press": -1, "wordID": 994, "type": "PRES_AUD", "trial_index": 202}, "uniqueid": "MTK2231:3ZWFC4W1UVEJD2K16T14JY8WMEXRFX", "dateTime": 1516898829554}, {"current_trial": 203, "trialdata": {"rt": -1000, "trial_type": "single-audio", "word": "dashboard", "stimulus": "/static/audio/wordpool/DASHBOARD.wav", "conditions": [12, 800, "a", 24000], "internal_node_id": "0.0-149.0", "trial": 5, "time_elapsed": 887428, "serialpos": 6, "key_press": -1, "wordID": 440, "type": "PRES_AUD", "trial_index": 203}, "uniqueid": "MTK2231:3ZWFC4W1UVEJD2K16T14JY8WMEXRFX", "dateTime": 1516898831295}, {"current_trial": 204, "trialdata": {"rt": -1000, "trial_type": "single-audio", "word": "harp", "stimulus": "/static/audio/wordpool/HARP.wav", "conditions": [12, 800, "a", 24000], "internal_node_id": "0.0-150.0", "trial": 5, "time_elapsed": 889199, "serialpos": 7, "key_press": -1, "wordID": 688, "type": "PRES_AUD", "trial_index": 204}, "uniqueid": "MTK2231:3ZWFC4W1UVEJD2K16T14JY8WMEXRFX", "dateTime": 1516898833066}, {"current_trial": 205, "trialdata": {"rt": -1000, "trial_type": "single-audio", "word": "fiddle", "stimulus": "/static/audio/wordpool/FIDDLE.wav", "conditions": [12, 800, "a", 24000], "internal_node_id": "0.0-151.0", "trial": 5, "time_elapsed": 891128, "serialpos": 8, "key_press": -1, "wordID": 560, "type": "PRES_AUD", "trial_index": 205}, "uniqueid": "MTK2231:3ZWFC4W1UVEJD2K16T14JY8WMEXRFX", "dateTime": 1516898834995}, {"current_trial": 206, "trialdata": {"rt": -1000, "trial_type": "single-audio", "word": "hound", "stimulus": "/static/audio/wordpool/HOUND.wav", "conditions": [12, 800, "a", 24000], "internal_node_id": "0.0-152.0", "trial": 5, "time_elapsed": 892808, "serialpos": 9, "key_press": -1, "wordID": 723, "type": "PRES_AUD", "trial_index": 206}, "uniqueid": "MTK2231:3ZWFC4W1UVEJD2K16T14JY8WMEXRFX", "dateTime": 1516898836675}, {"current_trial": 207, "trialdata": {"rt": -1000, "trial_type": "single-audio", "word": "fungus", "stimulus": "/static/audio/wordpool/FUNGUS.wav", "conditions": [12, 800, "a", 24000], "internal_node_id": "0.0-153.0", "trial": 5, "time_elapsed": 894493, "serialpos": 10, "key_press": -1, "wordID": 613, "type": "PRES_AUD", "trial_index": 207}, "uniqueid": "MTK2231:3ZWFC4W1UVEJD2K16T14JY8WMEXRFX", "dateTime": 1516898838360}, {"current_trial": 208, "trialdata": {"rt": -1000, "trial_type": "single-audio", "word": "scissors", "stimulus": "/static/audio/wordpool/SCISSORS.wav", "conditions": [12, 800, "a", 24000], "internal_node_id": "0.0-154.0", "trial": 5, "time_elapsed": 896433, "serialpos": 11, "key_press": -1, "wordID": 1249, "type": "PRES_AUD", "trial_index": 208}, "uniqueid": "MTK2231:3ZWFC4W1UVEJD2K16T14JY8WMEXRFX", "dateTime": 1516898840300}, {"current_trial": 209, "trialdata": {"rt": -1, "trial_type": "single-stim", "stimulus": "", "internal_node_id": "0.0-155.0-0.0", "time_elapsed": 897764, "key_press": -1, "type": "PRE_RECALL_DELAY", "trial_index": 209}, "uniqueid": "MTK2231:3ZWFC4W1UVEJD2K16T14JY8WMEXRFX", "dateTime": 1516898841631}, {"current_trial": 210, "trialdata": {"rt": -1000, "trial_type": "single-audio", "stimulus": "/static/audio/400Hz.wav", "internal_node_id": "0.0-156.0", "time_elapsed": 898266, "key_press": -1, "type": "PRE_RECALL_ALERT", "trial_index": 210}, "uniqueid": "MTK2231:3ZWFC4W1UVEJD2K16T14JY8WMEXRFX", "dateTime": 1516898842133}, {"current_trial": 211, "trialdata": {"rt": [2108, 3356, 5084, 6588, 7676, 11660, 19180, 23004, 29292], "recwords": ["fungus", "house", "scissors", "needle", "house", "clothes", "knapsack", "covers", "needle"], "key_times": [1084, 1244, 1468, 1597, 1740, 1884, 2108, 2844, 2988, 3068, 3164, 3228, 3356, 3628, 3852, 4012, 4140, 4300, 4396, 4524, 4684, 5084, 5421, 5532, 5708, 5932, 6060, 6317, 6588, 7020, 7180, 7260, 7324, 7388, 7676, 10812, 10908, 11100, 11212, 11324, 11404, 11565, 11660, 16748, 17356, 17660, 17804, 18188, 18268, 18524, 18668, 18924, 19004, 19180, 22028, 22156, 22300, 22476, 22572, 22764, 23004, 28444, 28572, 28732, 28956, 29036, 29212, 29292], "trial_type": "free-recall", "conditions": [12, 800, "a", 24000], "internal_node_id": "0.0-157.0-0.0", "key_presses": [70, 85, 78, 71, 85, 83, 13, 72, 79, 85, 83, 69, 13, 83, 67, 73, 83, 83, 79, 82, 83, 13, 78, 69, 69, 68, 76, 69, 13, 72, 79, 85, 83, 69, 13, 67, 76, 79, 84, 72, 69, 83, 13, 78, 8, 75, 78, 65, 80, 83, 65, 67, 75, 13, 67, 79, 86, 69, 82, 83, 13, 78, 69, 69, 68, 76, 69, 13], "trial": 5, "time_elapsed": 958267, "type": "FREE_RECALL", "trial_index": 211}, "uniqueid": "MTK2231:3ZWFC4W1UVEJD2K16T14JY8WMEXRFX", "dateTime": 1516898902136}, {"current_trial": 212, "trialdata": {"rt": 3785, "trial_type": "text", "internal_node_id": "0.0-158.0", "time_elapsed": 964056, "key_press": 32, "type": "INSTRUCTIONS", "trial_index": 212}, "uniqueid": "MTK2231:3ZWFC4W1UVEJD2K16T14JY8WMEXRFX", "dateTime": 1516898907923}, {"current_trial": 213, "trialdata": {"rt": [2030, 4847, 7342, 10190], "trial_type": "math-distractor", "key_times": [1583, 1774, 2030, 4142, 4526, 4847, 6830, 7182, 7342, 9742, 10030, 10190, 11774, 11982], "responses": ["14", "13", "19", "18"], "num2": [6, 5, 5, 7, 8], "num3": [4, 4, 6, 5, 1], "conditions": [12, 800, "a", 12000], "internal_node_id": "0.0-159.0", "key_presses": [49, 52, 13, 49, 51, 13, 49, 57, 13, 49, 56, 13, 49, 56], "trial": 6, "time_elapsed": 978058, "type": "DISTRACTOR", "trial_index": 213, "num1": [4, 4, 8, 6, 9]}, "uniqueid": "MTK2231:3ZWFC4W1UVEJD2K16T14JY8WMEXRFX", "dateTime": 1516898921925}, {"current_trial": 214, "trialdata": {"rt": -1, "trial_type": "single-stim", "stimulus": "<p id=\"stim\">10</p>", "internal_node_id": "0.0-160.0-0.0", "time_elapsed": 981059, "key_press": -1, "trial_index": 214}, "uniqueid": "MTK2231:3ZWFC4W1UVEJD2K16T14JY8WMEXRFX", "dateTime": 1516898924926}, {"current_trial": 215, "trialdata": {"rt": -1, "trial_type": "single-stim", "stimulus": "<p id=\"stim\">9</p>", "internal_node_id": "0.0-160.0-1.0", "time_elapsed": 982060, "key_press": -1, "trial_index": 215}, "uniqueid": "MTK2231:3ZWFC4W1UVEJD2K16T14JY8WMEXRFX", "dateTime": 1516898925927}, {"current_trial": 216, "trialdata": {"rt": -1, "trial_type": "single-stim", "stimulus": "<p id=\"stim\">8</p>", "internal_node_id": "0.0-160.0-2.0", "time_elapsed": 983062, "key_press": -1, "trial_index": 216}, "uniqueid": "MTK2231:3ZWFC4W1UVEJD2K16T14JY8WMEXRFX", "dateTime": 1516898926929}, {"current_trial": 217, "trialdata": {"rt": -1, "trial_type": "single-stim", "stimulus": "<p id=\"stim\">7</p>", "internal_node_id": "0.0-160.0-3.0", "time_elapsed": 984063, "key_press": -1, "trial_index": 217}, "uniqueid": "MTK2231:3ZWFC4W1UVEJD2K16T14JY8WMEXRFX", "dateTime": 1516898927930}, {"current_trial": 218, "trialdata": {"rt": -1, "trial_type": "single-stim", "stimulus": "<p id=\"stim\">6</p>", "internal_node_id": "0.0-160.0-4.0", "time_elapsed": 985064, "key_press": -1, "trial_index": 218}, "uniqueid": "MTK2231:3ZWFC4W1UVEJD2K16T14JY8WMEXRFX", "dateTime": 1516898928931}, {"current_trial": 219, "trialdata": {"rt": -1, "trial_type": "single-stim", "stimulus": "<p id=\"stim\">5</p>", "internal_node_id": "0.0-160.0-5.0", "time_elapsed": 986066, "key_press": -1, "trial_index": 219}, "uniqueid": "MTK2231:3ZWFC4W1UVEJD2K16T14JY8WMEXRFX", "dateTime": 1516898929933}, {"current_trial": 220, "trialdata": {"rt": -1, "trial_type": "single-stim", "stimulus": "<p id=\"stim\">4</p>", "internal_node_id": "0.0-160.0-6.0", "time_elapsed": 987067, "key_press": -1, "trial_index": 220}, "uniqueid": "MTK2231:3ZWFC4W1UVEJD2K16T14JY8WMEXRFX", "dateTime": 1516898930934}, {"current_trial": 221, "trialdata": {"rt": -1, "trial_type": "single-stim", "stimulus": "<p id=\"stim\">3</p>", "internal_node_id": "0.0-160.0-7.0", "time_elapsed": 988068, "key_press": -1, "trial_index": 221}, "uniqueid": "MTK2231:3ZWFC4W1UVEJD2K16T14JY8WMEXRFX", "dateTime": 1516898931936}, {"current_trial": 222, "trialdata": {"rt": -1, "trial_type": "single-stim", "stimulus": "<p id=\"stim\">2</p>", "internal_node_id": "0.0-160.0-8.0", "time_elapsed": 989070, "key_press": -1, "trial_index": 222}, "uniqueid": "MTK2231:3ZWFC4W1UVEJD2K16T14JY8WMEXRFX", "dateTime": 1516898932937}, {"current_trial": 223, "trialdata": {"rt": -1, "trial_type": "single-stim", "stimulus": "<p id=\"stim\">1</p>", "internal_node_id": "0.0-160.0-9.0", "time_elapsed": 990071, "key_press": -1, "trial_index": 223}, "uniqueid": "MTK2231:3ZWFC4W1UVEJD2K16T14JY8WMEXRFX", "dateTime": 1516898933938}, {"current_trial": 224, "trialdata": {"rt": -1, "trial_type": "single-stim", "stimulus": "<p id=\"stim\">+</p>", "internal_node_id": "0.0-161.0-0.0", "time_elapsed": 991573, "key_press": -1, "type": "FIXATION", "trial_index": 224}, "uniqueid": "MTK2231:3ZWFC4W1UVEJD2K16T14JY8WMEXRFX", "dateTime": 1516898935440}, {"current_trial": 225, "trialdata": {"rt": -1000, "trial_type": "single-audio", "word": "leg", "stimulus": "/static/audio/wordpool/LEG.wav", "conditions": [12, 800, "a", 12000], "internal_node_id": "0.0-162.0", "trial": 6, "time_elapsed": 993183, "serialpos": 0, "key_press": -1, "wordID": 808, "type": "PRES_AUD", "trial_index": 225}, "uniqueid": "MTK2231:3ZWFC4W1UVEJD2K16T14JY8WMEXRFX", "dateTime": 1516898937050}, {"current_trial": 226, "trialdata": {"rt": -1000, "trial_type": "single-audio", "word": "shoulder", "stimulus": "/static/audio/wordpool/SHOULDER.wav", "conditions": [12, 800, "a", 12000], "internal_node_id": "0.0-163.0", "trial": 6, "time_elapsed": 994889, "serialpos": 1, "key_press": -1, "wordID": 1293, "type": "PRES_AUD", "trial_index": 226}, "uniqueid": "MTK2231:3ZWFC4W1UVEJD2K16T14JY8WMEXRFX", "dateTime": 1516898938757}, {"current_trial": 227, "trialdata": {"rt": -1000, "trial_type": "single-audio", "word": "diver", "stimulus": "/static/audio/wordpool/DIVER.wav", "conditions": [12, 800, "a", 12000], "internal_node_id": "0.0-164.0", "trial": 6, "time_elapsed": 996862, "serialpos": 2, "key_press": -1, "wordID": 475, "type": "PRES_AUD", "trial_index": 227}, "uniqueid": "MTK2231:3ZWFC4W1UVEJD2K16T14JY8WMEXRFX", "dateTime": 1516898940730}, {"current_trial": 228, "trialdata": {"rt": -1000, "trial_type": "single-audio", "word": "college", "stimulus": "/static/audio/wordpool/COLLEGE.wav", "conditions": [12, 800, "a", 12000], "internal_node_id": "0.0-165.0", "trial": 6, "time_elapsed": 998743, "serialpos": 3, "key_press": -1, "wordID": 345, "type": "PRES_AUD", "trial_index": 228}, "uniqueid": "MTK2231:3ZWFC4W1UVEJD2K16T14JY8WMEXRFX", "dateTime": 1516898942610}, {"current_trial": 229, "trialdata": {"rt": -1000, "trial_type": "single-audio", "word": "infant", "stimulus": "/static/audio/wordpool/INFANT.wav", "conditions": [12, 800, "a", 12000], "internal_node_id": "0.0-166.0", "trial": 6, "time_elapsed": 1000594, "serialpos": 4, "key_press": -1, "wordID": 736, "type": "PRES_AUD", "trial_index": 229}, "uniqueid": "MTK2231:3ZWFC4W1UVEJD2K16T14JY8WMEXRFX", "dateTime": 1516898944461}, {"current_trial": 230, "trialdata": {"rt": -1000, "trial_type": "single-audio", "word": "lover", "stimulus": "/static/audio/wordpool/LOVER.wav", "conditions": [12, 800, "a", 12000], "internal_node_id": "0.0-167.0", "trial": 6, "time_elapsed": 1002211, "serialpos": 5, "key_press": -1, "wordID": 845, "type": "PRES_AUD", "trial_index": 230}, "uniqueid": "MTK2231:3ZWFC4W1UVEJD2K16T14JY8WMEXRFX", "dateTime": 1516898946078}, {"current_trial": 231, "trialdata": {"rt": -1000, "trial_type": "single-audio", "word": "chauffeur", "stimulus": "/static/audio/wordpool/CHAUFFEUR.wav", "conditions": [12, 800, "a", 12000], "internal_node_id": "0.0-168.0", "trial": 6, "time_elapsed": 1004034, "serialpos": 6, "key_press": -1, "wordID": 282, "type": "PRES_AUD", "trial_index": 231}, "uniqueid": "MTK2231:3ZWFC4W1UVEJD2K16T14JY8WMEXRFX", "dateTime": 1516898947901}, {"current_trial": 232, "trialdata": {"rt": -1000, "trial_type": "single-audio", "word": "child", "stimulus": "/static/audio/wordpool/CHILD.wav", "conditions": [12, 800, "a", 12000], "internal_node_id": "0.0-169.0", "trial": 6, "time_elapsed": 1005997, "serialpos": 7, "key_press": -1, "wordID": 298, "type": "PRES_AUD", "trial_index": 232}, "uniqueid": "MTK2231:3ZWFC4W1UVEJD2K16T14JY8WMEXRFX", "dateTime": 1516898949864}, {"current_trial": 233, "trialdata": {"rt": -1000, "trial_type": "single-audio", "word": "barley", "stimulus": "/static/audio/wordpool/BARLEY.wav", "conditions": [12, 800, "a", 12000], "internal_node_id": "0.0-170.0", "trial": 6, "time_elapsed": 1007883, "serialpos": 8, "key_press": -1, "wordID": 87, "type": "PRES_AUD", "trial_index": 233}, "uniqueid": "MTK2231:3ZWFC4W1UVEJD2K16T14JY8WMEXRFX", "dateTime": 1516898951750}, {"current_trial": 234, "trialdata": {"rt": -1000, "trial_type": "single-audio", "word": "actor", "stimulus": "/static/audio/wordpool/ACTOR.wav", "conditions": [12, 800, "a", 12000], "internal_node_id": "0.0-171.0", "trial": 6, "time_elapsed": 1009673, "serialpos": 9, "key_press": -1, "wordID": 4, "type": "PRES_AUD", "trial_index": 234}, "uniqueid": "MTK2231:3ZWFC4W1UVEJD2K16T14JY8WMEXRFX", "dateTime": 1516898953540}, {"current_trial": 235, "trialdata": {"rt": -1000, "trial_type": "single-audio", "word": "bureau", "stimulus": "/static/audio/wordpool/BUREAU.wav", "conditions": [12, 800, "a", 12000], "internal_node_id": "0.0-172.0", "trial": 6, "time_elapsed": 1011476, "serialpos": 10, "key_press": -1, "wordID": 198, "type": "PRES_AUD", "trial_index": 235}, "uniqueid": "MTK2231:3ZWFC4W1UVEJD2K16T14JY8WMEXRFX", "dateTime": 1516898955344}, {"current_trial": 236, "trialdata": {"rt": -1000, "trial_type": "single-audio", "word": "ghetto", "stimulus": "/static/audio/wordpool/GHETTO.wav", "conditions": [12, 800, "a", 12000], "internal_node_id": "0.0-173.0", "trial": 6, "time_elapsed": 1013340, "serialpos": 11, "key_press": -1, "wordID": 632, "type": "PRES_AUD", "trial_index": 236}, "uniqueid": "MTK2231:3ZWFC4W1UVEJD2K16T14JY8WMEXRFX", "dateTime": 1516898957207}, {"current_trial": 237, "trialdata": {"rt": -1, "trial_type": "single-stim", "stimulus": "", "internal_node_id": "0.0-174.0-0.0", "time_elapsed": 1014551, "key_press": -1, "type": "PRE_RECALL_DELAY", "trial_index": 237}, "uniqueid": "MTK2231:3ZWFC4W1UVEJD2K16T14JY8WMEXRFX", "dateTime": 1516898958418}, {"current_trial": 238, "trialdata": {"rt": -1000, "trial_type": "single-audio", "stimulus": "/static/audio/400Hz.wav", "internal_node_id": "0.0-175.0", "time_elapsed": 1015053, "key_press": -1, "type": "PRE_RECALL_ALERT", "trial_index": 238}, "uniqueid": "MTK2231:3ZWFC4W1UVEJD2K16T14JY8WMEXRFX", "dateTime": 1516898958920}, {"current_trial": 239, "trialdata": {"rt": [15162, 16218, 17050, 19754, 22570, 25882, 27450, 29786, 36282, 52218], "recwords": ["arrow", "dress", "eye", "trunk", "drawer", "court", "file", "eye", "blanket", "bow"], "key_times": [14522, 14698, 14842, 14954, 15018, 15162, 15498, 15706, 15786, 15978, 16122, 16218, 16746, 16842, 16938, 17050, 18890, 19082, 19083, 19418, 19610, 19754, 21626, 21802, 21946, 22058, 22186, 22394, 22570, 25274, 25402, 25498, 25610, 25786, 25882, 26906, 27034, 27242, 27370, 27450, 29482, 29562, 29690, 29786, 35322, 35578, 35706, 35770, 35962, 36058, 36186, 36282, 51546, 51754, 51898, 52218], "trial_type": "free-recall", "conditions": [12, 800, "a", 12000], "internal_node_id": "0.0-176.0-0.0", "key_presses": [65, 82, 82, 79, 87, 13, 68, 82, 69, 83, 83, 13, 69, 89, 69, 13, 84, 82, 85, 78, 75, 13, 68, 82, 65, 87, 69, 82, 13, 67, 79, 85, 82, 84, 13, 70, 73, 76, 69, 13, 69, 89, 69, 13, 66, 76, 65, 78, 75, 69, 84, 13, 66, 79, 87, 13], "trial": 6, "time_elapsed": 1075055, "type": "FREE_RECALL", "trial_index": 239}, "uniqueid": "MTK2231:3ZWFC4W1UVEJD2K16T