{"assignmentId": "3Q5C1WP23N83I0SV2N9GRVZ6SHS51O", "workerId": "MTK2169", "questiondata": {"origin": "United States", "strat-rehearsal": "46", "marital": "Married/Domestic Partnership", "education": "Bachelor's degree", "ethnicity": "Not Hispanic", "color_depth": 24, "distracted": "No", "wrote-notes": "No", "strat-other": "I didn't have any other strategies. You listed everything I did.", "screen_width": 1920, "avail_screen_width": 1920, "avail_screen_height": 1040, "strat-image": "100", "language": "English", "gender": "Male", "age": "34", "gender_other": "", "race": ["White"], "strat-categorize": "100", "pixel_depth": 24, "strat-spatial": "100", "strat-story": "100", "race_other": "", "screen_height": 1080}, "bonus": 0, "hitId": "3CVBMEMMXBNRMVTY23MWSIXPIOT7H9", "counterbalance": 770, "useragent": "Mozilla/5.0 (Windows NT 10.0; Win64; x64) AppleWebKit/537.36 (KHTML, like Gecko) Chrome/63.0.3239.132 Safari/537.36", "eventdata": [{"eventtype": "initialized", "interval": 0, "value": null, "timestamp": 1516819343257}, {"eventtype": "window_resize", "interval": 0, "value": [1920, 1033], "timestamp": 1516819343257}, {"eventtype": "window_resize", "interval": 6722, "value": [1920, 989], "timestamp": 1516819349979}, {"eventtype": "window_resize", "interval": 4042, "value": [1920, 1033], "timestamp": 1516819354021}, {"eventtype": "focus", "interval": 103505, "value": "off", "timestamp": 1516819457526}, {"eventtype": "focus", "interval": 3250, "value": "on", "timestamp": 1516819460776}, {"eventtype": "focus", "interval": 599795, "value": "off", "timestamp": 1516820060571}, {"eventtype": "focus", "interval": 13956, "value": "on", "timestamp": 1516820074527}, {"eventtype": "focus", "interval": 818617, "value": "off", "timestamp": 1516820893144}, {"eventtype": "focus", "interval": 3613, "value": "on", "timestamp": 1516820896757}, {"eventtype": "focus", "interval": 1513, "value": "off", "timestamp": 1516820898270}, {"eventtype": "focus", "interval": 2872, "value": "on", "timestamp": 1516820901142}, {"eventtype": "focus", "interval": 24840, "value": "off", "timestamp": 1516820925982}, {"eventtype": "focus", "interval": 3496, "value": "on", "timestamp": 1516820929478}, {"eventtype": "focus", "interval": 111983, "value": "off", "timestamp": 1516821041461}, {"eventtype": "focus", "interval": 6603, "value": "on", "timestamp": 1516821048064}, {"eventtype": "focus", "interval": 246532, "value": "off", "timestamp": 1516821294596}, {"eventtype": "focus", "interval": 16083, "value": "on", "timestamp": 1516821310679}, {"eventtype": "focus", "interval": 1425, "value": "off", "timestamp": 1516821312104}, {"eventtype": "focus", "interval": 6926, "value": "on", "timestamp": 1516821319030}, {"eventtype": "focus", "interval": 152257, "value": "off", "timestamp": 1516821471287}, {"eventtype": "focus", "interval": 2009, "value": "on", "timestamp": 1516821473296}, {"eventtype": "focus", "interval": 410389, "value": "off", "timestamp": 1516821883685}, {"eventtype": "focus", "interval": 2115, "value": "on", "timestamp": 1516821885800}, {"eventtype": "focus", "interval": 2752, "value": "off", "timestamp": 1516821888552}, {"eventtype": "focus", "interval": 1317, "value": "on", "timestamp": 1516821889869}, {"eventtype": "focus", "interval": 1179, "value": "off", "timestamp": 1516821891048}, {"eventtype": "focus", "interval": 8309, "value": "on", "timestamp": 1516821899357}], "data": [{"current_trial": 0, "trialdata": {"rt": 5298, "trial_type": "text", "internal_node_id": "0.0-0.0", "time_elapsed": 5298, "key_press": 32, "type": "INSTRUCTIONS", "trial_index": 0}, "uniqueid": "MTK2169:3Q5C1WP23N83I0SV2N9GRVZ6SHS51O", "dateTime": 1516819360929}, {"current_trial": 1, "trialdata": {"rt": 17662, "trial_type": "text", "internal_node_id": "0.0-1.0", "time_elapsed": 22961, "key_press": 32, "type": "INSTRUCTIONS", "trial_index": 1}, "uniqueid": "MTK2169:3Q5C1WP23N83I0SV2N9GRVZ6SHS51O", "dateTime": 1516819378591}, {"current_trial": 2, "trialdata": {"rt": [4831], "trial_type": "audio-test", "responses": ["ocean"], "internal_node_id": "0.0-2.0", "time_elapsed": 27825, "type": "AUDIO_TEST", "trial_index": 2}, "uniqueid": "MTK2169:3Q5C1WP23N83I0SV2N9GRVZ6SHS51O", "dateTime": 1516819383455}, {"current_trial": 3, "trialdata": {"rt": [6484], "trial_type": "audio-test", "responses": ["crystal"], "internal_node_id": "0.0-3.0", "time_elapsed": 34314, "type": "AUDIO_TEST", "trial_index": 3}, "uniqueid": "MTK2169:3Q5C1WP23N83I0SV2N9GRVZ6SHS51O", "dateTime": 1516819389944}, {"current_trial": 4, "trialdata": {"rt": [4084], "trial_type": "audio-test", "responses": ["spice"], "internal_node_id": "0.0-4.0", "time_elapsed": 38401, "type": "AUDIO_TEST", "trial_index": 4}, "uniqueid": "MTK2169:3Q5C1WP23N83I0SV2N9GRVZ6SHS51O", "dateTime": 1516819394031}, {"current_trial": 5, "trialdata": {"rt": 34712, "trial_type": "survey-text", "responses": "{\"Q0\":\"2:00 a.m\",\"Q1\":\"10:00 a.m\",\"Q2\":\"5\"}", "internal_node_id": "0.0-5.0", "time_elapsed": 73865, "type": "SLEEP_SURVEY", "trial_index": 5}, "uniqueid": "MTK2169:3Q5C1WP23N83I0SV2N9GRVZ6SHS51O", "dateTime": 1516819429495}, {"current_trial": 6, "trialdata": {"rt": 41885, "trial_type": "text", "internal_node_id": "0.0-6.0", "time_elapsed": 116751, "key_press": 13, "type": "INSTRUCTIONS", "trial_index": 6}, "uniqueid": "MTK2169:3Q5C1WP23N83I0SV2N9GRVZ6SHS51O", "dateTime": 1516819472381}, {"current_trial": 7, "trialdata": {"rt": 16683, "trial_type": "text", "internal_node_id": "0.0-7.0", "time_elapsed": 133936, "key_press": 13, "type": "INSTRUCTIONS", "trial_index": 7}, "uniqueid": "MTK2169:3Q5C1WP23N83I0SV2N9GRVZ6SHS51O", "dateTime": 1516819489566}, {"current_trial": 8, "trialdata": {"rt": 25082, "trial_type": "text", "internal_node_id": "0.0-8.0", "time_elapsed": 159519, "key_press": 13, "type": "INSTRUCTIONS", "trial_index": 8}, "uniqueid": "MTK2169:3Q5C1WP23N83I0SV2N9GRVZ6SHS51O", "dateTime": 1516819515149}, {"current_trial": 9, "trialdata": {"rt": [3820, 5653, 7869, 10069, 14461, 17316], "trial_type": "math-distractor", "key_times": [3005, 3285, 3820, 5309, 5421, 5653, 6853, 6989, 7493, 7621, 7869, 9581, 9821, 10069, 13653, 13741, 14461, 16701, 17045, 17316], "responses": ["18", "12", "13", "18", "21", "20"], "num2": [5, 1, 6, 1, 6, 6, 2], "num3": [4, 2, 1, 9, 7, 6, 1], "conditions": [18, 1200, "a", 18000], "internal_node_id": "0.0-9.0", "key_presses": [49, 56, 13, 49, 50, 13, 49, 52, 8, 51, 13, 49, 56, 13, 50, 49, 13, 50, 48, 13], "trial": 0, "time_elapsed": 178547, "type": "DISTRACTOR", "trial_index": 9, "num1": [9, 9, 6, 8, 8, 8, 6]}, "uniqueid": "MTK2169:3Q5C1WP23N83I0SV2N9GRVZ6SHS51O", "dateTime": 1516819534177}, {"current_trial": 10, "trialdata": {"rt": -1, "trial_type": "single-stim", "stimulus": "<p id=\"stim\">10</p>", "internal_node_id": "0.0-10.0-0.0", "time_elapsed": 181550, "key_press": -1, "trial_index": 10}, "uniqueid": "MTK2169:3Q5C1WP23N83I0SV2N9GRVZ6SHS51O", "dateTime": 1516819537180}, {"current_trial": 11, "trialdata": {"rt": -1, "trial_type": "single-stim", "stimulus": "<p id=\"stim\">9</p>", "internal_node_id": "0.0-10.0-1.0", "time_elapsed": 182551, "key_press": -1, "trial_index": 11}, "uniqueid": "MTK2169:3Q5C1WP23N83I0SV2N9GRVZ6SHS51O", "dateTime": 1516819538182}, {"current_trial": 12, "trialdata": {"rt": -1, "trial_type": "single-stim", "stimulus": "<p id=\"stim\">8</p>", "internal_node_id": "0.0-10.0-2.0", "time_elapsed": 183552, "key_press": -1, "trial_index": 12}, "uniqueid": "MTK2169:3Q5C1WP23N83I0SV2N9GRVZ6SHS51O", "dateTime": 1516819539182}, {"current_trial": 13, "trialdata": {"rt": -1, "trial_type": "single-stim", "stimulus": "<p id=\"stim\">7</p>", "internal_node_id": "0.0-10.0-3.0", "time_elapsed": 184553, "key_press": -1, "trial_index": 13}, "uniqueid": "MTK2169:3Q5C1WP23N83I0SV2N9GRVZ6SHS51O", "dateTime": 1516819540183}, {"current_trial": 14, "trialdata": {"rt": -1, "trial_type": "single-stim", "stimulus": "<p id=\"stim\">6</p>", "internal_node_id": "0.0-10.0-4.0", "time_elapsed": 185554, "key_press": -1, "trial_index": 14}, "uniqueid": "MTK2169:3Q5C1WP23N83I0SV2N9GRVZ6SHS51O", "dateTime": 1516819541184}, {"current_trial": 15, "trialdata": {"rt": -1, "trial_type": "single-stim", "stimulus": "<p id=\"stim\">5</p>", "internal_node_id": "0.0-10.0-5.0", "time_elapsed": 186556, "key_press": -1, "trial_index": 15}, "uniqueid": "MTK2169:3Q5C1WP23N83I0SV2N9GRVZ6SHS51O", "dateTime": 1516819542186}, {"current_trial": 16, "trialdata": {"rt": -1, "trial_type": "single-stim", "stimulus": "<p id=\"stim\">4</p>", "internal_node_id": "0.0-10.0-6.0", "time_elapsed": 187557, "key_press": -1, "trial_index": 16}, "uniqueid": "MTK2169:3Q5C1WP23N83I0SV2N9GRVZ6SHS51O", "dateTime": 1516819543187}, {"current_trial": 17, "trialdata": {"rt": -1, "trial_type": "single-stim", "stimulus": "<p id=\"stim\">3</p>", "internal_node_id": "0.0-10.0-7.0", "time_elapsed": 188558, "key_press": -1, "trial_index": 17}, "uniqueid": "MTK2169:3Q5C1WP23N83I0SV2N9GRVZ6SHS51O", "dateTime": 1516819544188}, {"current_trial": 18, "trialdata": {"rt": -1, "trial_type": "single-stim", "stimulus": "<p id=\"stim\">2</p>", "internal_node_id": "0.0-10.0-8.0", "time_elapsed": 189559, "key_press": -1, "trial_index": 18}, "uniqueid": "MTK2169:3Q5C1WP23N83I0SV2N9GRVZ6SHS51O", "dateTime": 1516819545189}, {"current_trial": 19, "trialdata": {"rt": -1, "trial_type": "single-stim", "stimulus": "<p id=\"stim\">1</p>", "internal_node_id": "0.0-10.0-9.0", "time_elapsed": 190560, "key_press": -1, "trial_index": 19}, "uniqueid": "MTK2169:3Q5C1WP23N83I0SV2N9GRVZ6SHS51O", "dateTime": 1516819546191}, {"current_trial": 20, "trialdata": {"rt": -1, "trial_type": "single-stim", "stimulus": "<p id=\"stim\">+</p>", "internal_node_id": "0.0-11.0-0.0", "time_elapsed": 192061, "key_press": -1, "type": "FIXATION", "trial_index": 20}, "uniqueid": "MTK2169:3Q5C1WP23N83I0SV2N9GRVZ6SHS51O", "dateTime": 1516819547691}, {"current_trial": 21, "trialdata": {"rt": -1000, "trial_type": "single-audio", "word": "survey", "stimulus": "/static/audio/wordpool/SURVEY.wav", "conditions": [18, 1200, "a", 18000], "internal_node_id": "0.0-12.0", "trial": 0, "time_elapsed": 194225, "serialpos": 0, "key_press": -1, "wordID": 1413, "type": "PRES_AUD", "trial_index": 21}, "uniqueid": "MTK2169:3Q5C1WP23N83I0SV2N9GRVZ6SHS51O", "dateTime": 1516819549855}, {"current_trial": 22, "trialdata": {"rt": 1478.666666666669, "trial_type": "single-audio", "word": "dashboard", "stimulus": "/static/audio/wordpool/DASHBOARD.wav", "conditions": [18, 1200, "a", 18000], "internal_node_id": "0.0-13.0", "trial": 0, "time_elapsed": 196250, "serialpos": 1, "key_press": 175, "wordID": 440, "type": "PRES_AUD", "trial_index": 22}, "uniqueid": "MTK2169:3Q5C1WP23N83I0SV2N9GRVZ6SHS51O", "dateTime": 1516819551880}, {"current_trial": 23, "trialdata": {"rt": -99.99999999999432, "trial_type": "single-audio", "word": "bunny", "stimulus": "/static/audio/wordpool/BUNNY.wav", "conditions": [18, 1200, "a", 18000], "internal_node_id": "0.0-14.0", "trial": 0, "time_elapsed": 198460, "serialpos": 2, "key_press": 175, "wordID": 197, "type": "PRES_AUD", "trial_index": 23}, "uniqueid": "MTK2169:3Q5C1WP23N83I0SV2N9GRVZ6SHS51O", "dateTime": 1516819554090}, {"current_trial": 24, "trialdata": {"rt": -1000, "trial_type": "single-audio", "word": "hostess", "stimulus": "/static/audio/wordpool/HOSTESS.wav", "conditions": [18, 1200, "a", 18000], "internal_node_id": "0.0-15.0", "trial": 0, "time_elapsed": 200677, "serialpos": 3, "key_press": -1, "wordID": 722, "type": "PRES_AUD", "trial_index": 24}, "uniqueid": "MTK2169:3Q5C1WP23N83I0SV2N9GRVZ6SHS51O", "dateTime": 1516819556307}, {"current_trial": 25, "trialdata": {"rt": -1000, "trial_type": "single-audio", "word": "flask", "stimulus": "/static/audio/wordpool/FLASK.wav", "conditions": [18, 1200, "a", 18000], "internal_node_id": "0.0-16.0", "trial": 0, "time_elapsed": 202967, "serialpos": 4, "key_press": -1, "wordID": 575, "type": "PRES_AUD", "trial_index": 25}, "uniqueid": "MTK2169:3Q5C1WP23N83I0SV2N9GRVZ6SHS51O", "dateTime": 1516819558597}, {"current_trial": 26, "trialdata": {"rt": -1000, "trial_type": "single-audio", "word": "shirt", "stimulus": "/static/audio/wordpool/SHIRT.wav", "conditions": [18, 1200, "a", 18000], "internal_node_id": "0.0-17.0", "trial": 0, "time_elapsed": 205219, "serialpos": 5, "key_press": -1, "wordID": 1286, "type": "PRES_AUD", "trial_index": 26}, "uniqueid": "MTK2169:3Q5C1WP23N83I0SV2N9GRVZ6SHS51O", "dateTime": 1516819560849}, {"current_trial": 27, "trialdata": {"rt": -1000, "trial_type": "single-audio", "word": "missile", "stimulus": "/static/audio/wordpool/MISSILE.wav", "conditions": [18, 1200, "a", 18000], "internal_node_id": "0.0-18.0", "trial": 0, "time_elapsed": 207520, "serialpos": 6, "key_press": -1, "wordID": 899, "type": "PRES_AUD", "trial_index": 27}, "uniqueid": "MTK2169:3Q5C1WP23N83I0SV2N9GRVZ6SHS51O", "dateTime": 1516819563150}, {"current_trial": 28, "trialdata": {"rt": -1000, "trial_type": "single-audio", "word": "gangster", "stimulus": "/static/audio/wordpool/GANGSTER.wav", "conditions": [18, 1200, "a", 18000], "internal_node_id": "0.0-19.0", "trial": 0, "time_elapsed": 209573, "serialpos": 7, "key_press": -1, "wordID": 619, "type": "PRES_AUD", "trial_index": 28}, "uniqueid": "MTK2169:3Q5C1WP23N83I0SV2N9GRVZ6SHS51O", "dateTime": 1516819565203}, {"current_trial": 29, "trialdata": {"rt": -1000, "trial_type": "single-audio", "word": "hound", "stimulus": "/static/audio/wordpool/HOUND.wav", "conditions": [18, 1200, "a", 18000], "internal_node_id": "0.0-20.0", "trial": 0, "time_elapsed": 211708, "serialpos": 8, "key_press": -1, "wordID": 723, "type": "PRES_AUD", "trial_index": 29}, "uniqueid": "MTK2169:3Q5C1WP23N83I0SV2N9GRVZ6SHS51O", "dateTime": 1516819567338}, {"current_trial": 30, "trialdata": {"rt": -1000, "trial_type": "single-audio", "word": "umpire", "stimulus": "/static/audio/wordpool/UMPIRE.wav", "conditions": [18, 1200, "a", 18000], "internal_node_id": "0.0-21.0", "trial": 0, "time_elapsed": 213790, "serialpos": 9, "key_press": -1, "wordID": 1534, "type": "PRES_AUD", "trial_index": 30}, "uniqueid": "MTK2169:3Q5C1WP23N83I0SV2N9GRVZ6SHS51O", "dateTime": 1516819569420}, {"current_trial": 31, "trialdata": {"rt": -1000, "trial_type": "single-audio", "word": "quarter", "stimulus": "/static/audio/wordpool/QUARTER.wav", "conditions": [18, 1200, "a", 18000], "internal_node_id": "0.0-22.0", "trial": 0, "time_elapsed": 215843, "serialpos": 10, "key_press": -1, "wordID": 1147, "type": "PRES_AUD", "trial_index": 31}, "uniqueid": "MTK2169:3Q5C1WP23N83I0SV2N9GRVZ6SHS51O", "dateTime": 1516819571473}, {"current_trial": 32, "trialdata": {"rt": -1000, "trial_type": "single-audio", "word": "egypt", "stimulus": "/static/audio/wordpool/EGYPT.wav", "conditions": [18, 1200, "a", 18000], "internal_node_id": "0.0-23.0", "trial": 0, "time_elapsed": 217973, "serialpos": 11, "key_press": -1, "wordID": 518, "type": "PRES_AUD", "trial_index": 32}, "uniqueid": "MTK2169:3Q5C1WP23N83I0SV2N9GRVZ6SHS51O", "dateTime": 1516819573603}, {"current_trial": 33, "trialdata": {"rt": -1000, "trial_type": "single-audio", "word": "flashlight", "stimulus": "/static/audio/wordpool/FLASHLIGHT.wav", "conditions": [18, 1200, "a", 18000], "internal_node_id": "0.0-24.0", "trial": 0, "time_elapsed": 220033, "serialpos": 12, "key_press": -1, "wordID": 574, "type": "PRES_AUD", "trial_index": 33}, "uniqueid": "MTK2169:3Q5C1WP23N83I0SV2N9GRVZ6SHS51O", "dateTime": 1516819575663}, {"current_trial": 34, "trialdata": {"rt": -1000, "trial_type": "single-audio", "word": "partner", "stimulus": "/static/audio/wordpool/PARTNER.wav", "conditions": [18, 1200, "a", 18000], "internal_node_id": "0.0-25.0", "trial": 0, "time_elapsed": 222217, "serialpos": 13, "key_press": -1, "wordID": 1016, "type": "PRES_AUD", "trial_index": 34}, "uniqueid": "MTK2169:3Q5C1WP23N83I0SV2N9GRVZ6SHS51O", "dateTime": 1516819577847}, {"current_trial": 35, "trialdata": {"rt": -1000, "trial_type": "single-audio", "word": "gavel", "stimulus": "/static/audio/wordpool/GAVEL.wav", "conditions": [18, 1200, "a", 18000], "internal_node_id": "0.0-26.0", "trial": 0, "time_elapsed": 224536, "serialpos": 14, "key_press": -1, "wordID": 626, "type": "PRES_AUD", "trial_index": 35}, "uniqueid": "MTK2169:3Q5C1WP23N83I0SV2N9GRVZ6SHS51O", "dateTime": 1516819580166}, {"current_trial": 36, "trialdata": {"rt": -1000, "trial_type": "single-audio", "word": "suitcase", "stimulus": "/static/audio/wordpool/SUITCASE.wav", "conditions": [18, 1200, "a", 18000], "internal_node_id": "0.0-27.0", "trial": 0, "time_elapsed": 226617, "serialpos": 15, "key_press": -1, "wordID": 1402, "type": "PRES_AUD", "trial_index": 36}, "uniqueid": "MTK2169:3Q5C1WP23N83I0SV2N9GRVZ6SHS51O", "dateTime": 1516819582247}, {"current_trial": 37, "trialdata": {"rt": -1000, "trial_type": "single-audio", "word": "xerox", "stimulus": "/static/audio/wordpool/XEROX.wav", "conditions": [18, 1200, "a", 18000], "internal_node_id": "0.0-28.0", "trial": 0, "time_elapsed": 228964, "serialpos": 16, "key_press": -1, "wordID": 1627, "type": "PRES_AUD", "trial_index": 37}, "uniqueid": "MTK2169:3Q5C1WP23N83I0SV2N9GRVZ6SHS51O", "dateTime": 1516819584594}, {"current_trial": 38, "trialdata": {"rt": -1000, "trial_type": "single-audio", "word": "panther", "stimulus": "/static/audio/wordpool/PANTHER.wav", "conditions": [18, 1200, "a", 18000], "internal_node_id": "0.0-29.0", "trial": 0, "time_elapsed": 231337, "serialpos": 17, "key_press": -1, "wordID": 1008, "type": "PRES_AUD", "trial_index": 38}, "uniqueid": "MTK2169:3Q5C1WP23N83I0SV2N9GRVZ6SHS51O", "dateTime": 1516819586967}, {"current_trial": 39, "trialdata": {"rt": -1, "trial_type": "single-stim", "stimulus": "", "internal_node_id": "0.0-30.0-0.0", "time_elapsed": 232736, "key_press": -1, "type": "PRE_RECALL_DELAY", "trial_index": 39}, "uniqueid": "MTK2169:3Q5C1WP23N83I0SV2N9GRVZ6SHS51O", "dateTime": 1516819588366}, {"current_trial": 40, "trialdata": {"rt": -1000, "trial_type": "single-audio", "stimulus": "/static/audio/400Hz.wav", "internal_node_id": "0.0-31.0", "time_elapsed": 233237, "key_press": -1, "type": "PRE_RECALL_ALERT", "trial_index": 40}, "uniqueid": "MTK2169:3Q5C1WP23N83I0SV2N9GRVZ6SHS51O", "dateTime": 1516819588867}, {"current_trial": 41, "trialdata": {"rt": [1832, 3144, 4512, 6072, 8168, 10312, 12992, 14608, 17344, 20296, 23720, 29976, 57975], "recwords": ["panther", "xerox", "quarter", "partner", "flashlight", "egypt", "dashboard", "bunny", "hostess", "survey", "gavel", "gangster", "pamphlet"], "key_times": [777, 904, 1040, 1168, 1304, 1472, 1528, 1832, 2160, 2313, 2384, 2528, 2664, 3144, 3520, 3680, 3792, 3960, 4176, 4296, 4376, 4512, 4960, 5024, 5120, 5288, 5392, 5568, 5640, 6072, 6592, 6688, 6808, 6920, 7072, 7448, 7560, 7664, 7760, 7825, 8168, 8600, 8696, 9376, 9632, 9792, 9936, 10312, 11473, 11584, 11729, 11864, 12000, 12200, 12320, 12416, 12688, 12992, 13312, 13448, 13800, 14112, 14368, 14608, 15184, 15296, 15408, 15584, 15704, 15856, 16176, 16296, 16464, 17344, 18736, 18880, 18992, 19224, 19600, 19736, 20296, 21216, 21360, 21616, 21728, 21840, 22560, 22704, 22816, 22952, 23720, 28048, 28160, 28296, 28448, 28832, 28952, 29112, 29192, 29976, 47312, 47496, 47792, 47960, 48376, 48736, 48839, 48968, 49439, 49623, 49808, 49975, 50152, 50480, 51392, 51807, 51903, 51999, 53128, 53628, 53660, 53693, 53727, 53760, 54488, 55008, 55232, 55431, 55616, 56151, 56703, 56976, 57079, 57184, 57975, 59967], "trial_type": "free-recall", "conditions": [18, 1200, "a", 18000], "internal_node_id": "0.0-32.0-0.0", "key_presses": [80, 65, 78, 84, 72, 69, 82, 13, 88, 69, 82, 79, 88, 13, 81, 85, 65, 82, 84, 69, 82, 13, 80, 65, 82, 84, 78, 69, 82, 13, 70, 76, 65, 83, 72, 76, 73, 71, 72, 84, 13, 16, 69, 71, 89, 80, 84, 13, 68, 65, 83, 72, 66, 79, 65, 82, 68, 13, 66, 85, 78, 78, 89, 13, 72, 79, 83, 84, 69, 76, 8, 83, 83, 13, 83, 85, 82, 86, 69, 89, 13, 71, 65, 86, 73, 76, 8, 8, 69, 76, 13, 71, 65, 78, 71, 83, 84, 69, 82, 13, 80, 65, 77, 80, 72, 76, 69, 84, 8, 8, 8, 8, 8, 80, 72, 76, 69, 84, 8, 8, 8, 8, 8, 8, 78, 8, 77, 80, 76, 8, 72, 76, 69, 84, 13, 72], "trial": 0, "time_elapsed": 293239, "type": "FREE_RECALL", "trial_index": 41}, "uniqueid": "MTK2169:3Q5C1WP23N83I0SV2N9GRVZ6SHS51O", "dateTime": 1516819648871}, {"current_trial": 42, "trialdata": {"rt": 1716, "trial_type": "text", "internal_node_id": "0.0-33.0", "time_elapsed": 296957, "key_press": 13, "type": "INSTRUCTIONS", "trial_index": 42}, "uniqueid": "MTK2169:3Q5C1WP23N83I0SV2N9GRVZ6SHS51O", "dateTime": 1516819652588}, {"current_trial": 43, "trialdata": {"rt": [2870, 6822, 9334, 12558, 15278], "trial_type": "math-distractor", "key_times": [2326, 2726, 2870, 6542, 6630, 6822, 8799, 9207, 9334, 12110, 12222, 12558, 14807, 15278, 17574, 17710], "responses": ["13", "19", "16", "21", "9"], "num2": [4, 6, 9, 9, 2, 5], "num3": [2, 6, 5, 7, 3, 3], "conditions": [18, 1200, "a", 18000], "internal_node_id": "0.0-34.0", "key_presses": [49, 51, 13, 49, 57, 13, 49, 54, 13, 50, 49, 13, 57, 13, 49, 48], "trial": 1, "time_elapsed": 316960, "type": "DISTRACTOR", "trial_index": 43, "num1": [7, 7, 2, 5, 4, 3]}, "uniqueid": "MTK2169:3Q5C1WP23N83I0SV2N9GRVZ6SHS51O", "dateTime": 1516819672590}, {"current_trial": 44, "trialdata": {"rt": -1, "trial_type": "single-stim", "stimulus": "<p id=\"stim\">10</p>", "internal_node_id": "0.0-35.0-0.0", "time_elapsed": 319961, "key_press": -1, "trial_index": 44}, "uniqueid": "MTK2169:3Q5C1WP23N83I0SV2N9GRVZ6SHS51O", "dateTime": 1516819675591}, {"current_trial": 45, "trialdata": {"rt": -1, "trial_type": "single-stim", "stimulus": "<p id=\"stim\">9</p>", "internal_node_id": "0.0-35.0-1.0", "time_elapsed": 320962, "key_press": -1, "trial_index": 45}, "uniqueid": "MTK2169:3Q5C1WP23N83I0SV2N9GRVZ6SHS51O", "dateTime": 1516819676592}, {"current_trial": 46, "trialdata": {"rt": -1, "trial_type": "single-stim", "stimulus": "<p id=\"stim\">8</p>", "internal_node_id": "0.0-35.0-2.0", "time_elapsed": 321963, "key_press": -1, "trial_index": 46}, "uniqueid": "MTK2169:3Q5C1WP23N83I0SV2N9GRVZ6SHS51O", "dateTime": 1516819677593}, {"current_trial": 47, "trialdata": {"rt": -1, "trial_type": "single-stim", "stimulus": "<p id=\"stim\">7</p>", "internal_node_id": "0.0-35.0-3.0", "time_elapsed": 322964, "key_press": -1, "trial_index": 47}, "uniqueid": "MTK2169:3Q5C1WP23N83I0SV2N9GRVZ6SHS51O", "dateTime": 1516819678594}, {"current_trial": 48, "trialdata": {"rt": -1, "trial_type": "single-stim", "stimulus": "<p id=\"stim\">6</p>", "internal_node_id": "0.0-35.0-4.0", "time_elapsed": 323965, "key_press": -1, "trial_index": 48}, "uniqueid": "MTK2169:3Q5C1WP23N83I0SV2N9GRVZ6SHS51O", "dateTime": 1516819679595}, {"current_trial": 49, "trialdata": {"rt": -1, "trial_type": "single-stim", "stimulus": "<p id=\"stim\">5</p>", "internal_node_id": "0.0-35.0-5.0", "time_elapsed": 324966, "key_press": -1, "trial_index": 49}, "uniqueid": "MTK2169:3Q5C1WP23N83I0SV2N9GRVZ6SHS51O", "dateTime": 1516819680596}, {"current_trial": 50, "trialdata": {"rt": -1, "trial_type": "single-stim", "stimulus": "<p id=\"stim\">4</p>", "internal_node_id": "0.0-35.0-6.0", "time_elapsed": 325967, "key_press": -1, "trial_index": 50}, "uniqueid": "MTK2169:3Q5C1WP23N83I0SV2N9GRVZ6SHS51O", "dateTime": 1516819681597}, {"current_trial": 51, "trialdata": {"rt": -1, "trial_type": "single-stim", "stimulus": "<p id=\"stim\">3</p>", "internal_node_id": "0.0-35.0-7.0", "time_elapsed": 326969, "key_press": -1, "trial_index": 51}, "uniqueid": "MTK2169:3Q5C1WP23N83I0SV2N9GRVZ6SHS51O", "dateTime": 1516819682599}, {"current_trial": 52, "trialdata": {"rt": -1, "trial_type": "single-stim", "stimulus": "<p id=\"stim\">2</p>", "internal_node_id": "0.0-35.0-8.0", "time_elapsed": 327971, "key_press": -1, "trial_index": 52}, "uniqueid": "MTK2169:3Q5C1WP23N83I0SV2N9GRVZ6SHS51O", "dateTime": 1516819683601}, {"current_trial": 53, "trialdata": {"rt": -1, "trial_type": "single-stim", "stimulus": "<p id=\"stim\">1</p>", "internal_node_id": "0.0-35.0-9.0", "time_elapsed": 328972, "key_press": -1, "trial_index": 53}, "uniqueid": "MTK2169:3Q5C1WP23N83I0SV2N9GRVZ6SHS51O", "dateTime": 1516819684602}, {"current_trial": 54, "trialdata": {"rt": -1, "trial_type": "single-stim", "stimulus": "<p id=\"stim\">+</p>", "internal_node_id": "0.0-36.0-0.0", "time_elapsed": 330473, "key_press": -1, "type": "FIXATION", "trial_index": 54}, "uniqueid": "MTK2169:3Q5C1WP23N83I0SV2N9GRVZ6SHS51O", "dateTime": 1516819686103}, {"current_trial": 55, "trialdata": {"rt": -1000, "trial_type": "single-audio", "word": "sketch", "stimulus": "/static/audio/wordpool/SKETCH.wav", "conditions": [18, 1200, "a", 18000], "internal_node_id": "0.0-37.0", "trial": 1, "time_elapsed": 332476, "serialpos": 0, "key_press": -1, "wordID": 1314, "type": "PRES_AUD", "trial_index": 55}, "uniqueid": "MTK2169:3Q5C1WP23N83I0SV2N9GRVZ6SHS51O", "dateTime": 1516819688106}, {"current_trial": 56, "trialdata": {"rt": -1000, "trial_type": "single-audio", "word": "victim", "stimulus": "/static/audio/wordpool/VICTIM.wav", "conditions": [18, 1200, "a", 18000], "internal_node_id": "0.0-38.0", "trial": 1, "time_elapsed": 334669, "serialpos": 1, "key_press": -1, "wordID": 1561, "type": "PRES_AUD", "trial_index": 56}, "uniqueid": "MTK2169:3Q5C1WP23N83I0SV2N9GRVZ6SHS51O", "dateTime": 1516819690299}, {"current_trial": 57, "trialdata": {"rt": -1000, "trial_type": "single-audio", "word": "blueprint", "stimulus": "/static/audio/wordpool/BLUEPRINT.wav", "conditions": [18, 1200, "a", 18000], "internal_node_id": "0.0-39.0", "trial": 1, "time_elapsed": 336918, "serialpos": 2, "key_press": -1, "wordID": 141, "type": "PRES_AUD", "trial_index": 57}, "uniqueid": "MTK2169:3Q5C1WP23N83I0SV2N9GRVZ6SHS51O", "dateTime": 1516819692548}, {"current_trial": 58, "trialdata": {"rt": -1000, "trial_type": "single-audio", "word": "preacher", "stimulus": "/static/audio/wordpool/PREACHER.wav", "conditions": [18, 1200, "a", 18000], "internal_node_id": "0.0-40.0", "trial": 1, "time_elapsed": 339316, "serialpos": 3, "key_press": -1, "wordID": 1118, "type": "PRES_AUD", "trial_index": 58}, "uniqueid": "MTK2169:3Q5C1WP23N83I0SV2N9GRVZ6SHS51O", "dateTime": 1516819694946}, {"current_trial": 59, "trialdata": {"rt": -1000, "trial_type": "single-audio", "word": "beast", "stimulus": "/static/audio/wordpool/BEAST.wav", "conditions": [18, 1200, "a", 18000], "internal_node_id": "0.0-41.0", "trial": 1, "time_elapsed": 341616, "serialpos": 4, "key_press": -1, "wordID": 107, "type": "PRES_AUD", "trial_index": 59}, "uniqueid": "MTK2169:3Q5C1WP23N83I0SV2N9GRVZ6SHS51O", "dateTime": 1516819697246}, {"current_trial": 60, "trialdata": {"rt": -1000, "trial_type": "single-audio", "word": "headband", "stimulus": "/static/audio/wordpool/HEADBAND.wav", "conditions": [18, 1200, "a", 18000], "internal_node_id": "0.0-42.0", "trial": 1, "time_elapsed": 343907, "serialpos": 5, "key_press": -1, "wordID": 695, "type": "PRES_AUD", "trial_index": 60}, "uniqueid": "MTK2169:3Q5C1WP23N83I0SV2N9GRVZ6SHS51O", "dateTime": 1516819699538}, {"current_trial": 61, "trialdata": {"rt": -1000, "trial_type": "single-audio", "word": "plaster", "stimulus": "/static/audio/wordpool/PLASTER.wav", "conditions": [18, 1200, "a", 18000], "internal_node_id": "0.0-43.0", "trial": 1, "time_elapsed": 346265, "serialpos": 6, "key_press": -1, "wordID": 1084, "type": "PRES_AUD", "trial_index": 61}, "uniqueid": "MTK2169:3Q5C1WP23N83I0SV2N9GRVZ6SHS51O", "dateTime": 1516819701895}, {"current_trial": 62, "trialdata": {"rt": -1000, "trial_type": "single-audio", "word": "shovel", "stimulus": "/static/audio/wordpool/SHOVEL.wav", "conditions": [18, 1200, "a", 18000], "internal_node_id": "0.0-44.0", "trial": 1, "time_elapsed": 348499, "serialpos": 7, "key_press": -1, "wordID": 1294, "type": "PRES_AUD", "trial_index": 62}, "uniqueid": "MTK2169:3Q5C1WP23N83I0SV2N9GRVZ6SHS51O", "dateTime": 1516819704129}, {"current_trial": 63, "trialdata": {"rt": -1000, "trial_type": "single-audio", "word": "blade", "stimulus": "/static/audio/wordpool/BLADE.wav", "conditions": [18, 1200, "a", 18000], "internal_node_id": "0.0-45.0", "trial": 1, "time_elapsed": 350530, "serialpos": 8, "key_press": -1, "wordID": 133, "type": "PRES_AUD", "trial_index": 63}, "uniqueid": "MTK2169:3Q5C1WP23N83I0SV2N9GRVZ6SHS51O", "dateTime": 1516819706160}, {"current_trial": 64, "trialdata": {"rt": -1000, "trial_type": "single-audio", "word": "county", "stimulus": "/static/audio/wordpool/COUNTY.wav", "conditions": [18, 1200, "a", 18000], "internal_node_id": "0.0-46.0", "trial": 1, "time_elapsed": 352905, "serialpos": 9, "key_press": -1, "wordID": 388, "type": "PRES_AUD", "trial_index": 64}, "uniqueid": "MTK2169:3Q5C1WP23N83I0SV2N9GRVZ6SHS51O", "dateTime": 1516819708535}, {"current_trial": 65, "trialdata": {"rt": -1000, "trial_type": "single-audio", "word": "brother", "stimulus": "/static/audio/wordpool/BROTHER.wav", "conditions": [18, 1200, "a", 18000], "internal_node_id": "0.0-47.0", "trial": 1, "time_elapsed": 355129, "serialpos": 10, "key_press": -1, "wordID": 178, "type": "PRES_AUD", "trial_index": 65}, "uniqueid": "MTK2169:3Q5C1WP23N83I0SV2N9GRVZ6SHS51O", "dateTime": 1516819710759}, {"current_trial": 66, "trialdata": {"rt": -1000, "trial_type": "single-audio", "word": "eyelash", "stimulus": "/static/audio/wordpool/EYELASH.wav", "conditions": [18, 1200, "a", 18000], "internal_node_id": "0.0-48.0", "trial": 1, "time_elapsed": 357239, "serialpos": 11, "key_press": -1, "wordID": 545, "type": "PRES_AUD", "trial_index": 66}, "uniqueid": "MTK2169:3Q5C1WP23N83I0SV2N9GRVZ6SHS51O", "dateTime": 1516819712869}, {"current_trial": 67, "trialdata": {"rt": -1000, "trial_type": "single-audio", "word": "plate", "stimulus": "/static/audio/wordpool/PLATE.wav", "conditions": [18, 1200, "a", 18000], "internal_node_id": "0.0-49.0", "trial": 1, "time_elapsed": 359349, "serialpos": 12, "key_press": -1, "wordID": 1085, "type": "PRES_AUD", "trial_index": 67}, "uniqueid": "MTK2169:3Q5C1WP23N83I0SV2N9GRVZ6SHS51O", "dateTime": 1516819714979}, {"current_trial": 68, "trialdata": {"rt": -1000, "trial_type": "single-audio", "word": "bank", "stimulus": "/static/audio/wordpool/BANK.wav", "conditions": [18, 1200, "a", 18000], "internal_node_id": "0.0-50.0", "trial": 1, "time_elapsed": 361479, "serialpos": 13, "key_press": -1, "wordID": 82, "type": "PRES_AUD", "trial_index": 68}, "uniqueid": "MTK2169:3Q5C1WP23N83I0SV2N9GRVZ6SHS51O", "dateTime": 1516819717111}, {"current_trial": 69, "trialdata": {"rt": -1000, "trial_type": "single-audio", "word": "goblin", "stimulus": "/static/audio/wordpool/GOBLIN.wav", "conditions": [18, 1200, "a", 18000], "internal_node_id": "0.0-51.0", "trial": 1, "time_elapsed": 363546, "serialpos": 14, "key_press": -1, "wordID": 644, "type": "PRES_AUD", "trial_index": 69}, "uniqueid": "MTK2169:3Q5C1WP23N83I0SV2N9GRVZ6SHS51O", "dateTime": 1516819719176}, {"current_trial": 70, "trialdata": {"rt": -1000, "trial_type": "single-audio", "word": "saddle", "stimulus": "/static/audio/wordpool/SADDLE.wav", "conditions": [18, 1200, "a", 18000], "internal_node_id": "0.0-52.0", "trial": 1, "time_elapsed": 365891, "serialpos": 15, "key_press": -1, "wordID": 1220, "type": "PRES_AUD", "trial_index": 70}, "uniqueid": "MTK2169:3Q5C1WP23N83I0SV2N9GRVZ6SHS51O", "dateTime": 1516819721521}, {"current_trial": 71, "trialdata": {"rt": -1000, "trial_type": "single-audio", "word": "cloud", "stimulus": "/static/audio/wordpool/CLOUD.wav", "conditions": [18, 1200, "a", 18000], "internal_node_id": "0.0-53.0", "trial": 1, "time_elapsed": 367932, "serialpos": 16, "key_press": -1, "wordID": 327, "type": "PRES_AUD", "trial_index": 71}, "uniqueid": "MTK2169:3Q5C1WP23N83I0SV2N9GRVZ6SHS51O", "dateTime": 1516819723562}, {"current_trial": 72, "trialdata": {"rt": -1000, "trial_type": "single-audio", "word": "tablet", "stimulus": "/static/audio/wordpool/TABLET.wav", "conditions": [18, 1200, "a", 18000], "internal_node_id": "0.0-54.0", "trial": 1, "time_elapsed": 369979, "serialpos": 17, "key_press": -1, "wordID": 1426, "type": "PRES_AUD", "trial_index": 72}, "uniqueid": "MTK2169:3Q5C1WP23N83I0SV2N9GRVZ6SHS51O", "dateTime": 1516819725609}, {"current_trial": 73, "trialdata": {"rt": -1, "trial_type": "single-stim", "stimulus": "", "internal_node_id": "0.0-55.0-0.0", "time_elapsed": 371350, "key_press": -1, "type": "PRE_RECALL_DELAY", "trial_index": 73}, "uniqueid": "MTK2169:3Q5C1WP23N83I0SV2N9GRVZ6SHS51O", "dateTime": 1516819726980}, {"current_trial": 74, "trialdata": {"rt": -1000, "trial_type": "single-audio", "stimulus": "/static/audio/400Hz.wav", "internal_node_id": "0.0-56.0", "time_elapsed": 371851, "key_press": -1, "type": "PRE_RECALL_ALERT", "trial_index": 74}, "uniqueid": "MTK2169:3Q5C1WP23N83I0SV2N9GRVZ6SHS51O", "dateTime": 1516819727481}, {"current_trial": 75, "trialdata": {"rt": [2449, 3761, 5176, 6489, 7857, 9737, 11249, 13368, 16552, 18792, 20128, 25720, 28160, 32232, 33368, 35608], "recwords": ["saddle", "goblin", "cloud", "tablet", "brother", "eyelash", "shovel", "headband", "victim", "blueprint", "sketch", "plaster", "plate", "preacher", "blade", "beast"], "key_times": [1457, 1617, 1801, 1961, 2073, 2184, 2449, 2801, 2913, 3185, 3312, 3409, 3505, 3761, 4481, 4609, 4769, 4849, 4953, 5176, 5577, 5729, 5832, 5985, 6097, 6185, 6489, 6912, 7089, 7201, 7345, 7441, 7576, 7640, 7857, 8081, 8265, 8736, 9017, 9105, 9233, 9393, 9737, 10001, 10193, 10281, 10432, 10592, 10689, 11249, 11657, 11704, 11809, 11921, 12192, 12296, 12480, 12656, 13368, 14208, 14289, 14369, 14760, 14936, 15105, 15273, 15377, 15801, 16017, 16097, 16200, 16552, 17136, 17265, 17384, 17488, 17881, 18024, 18129, 18208, 18384, 18792, 18984, 19288, 19424, 19528, 19752, 19864, 20128, 24801, 24952, 25008, 25144, 25297, 25417, 25512, 25720, 27473, 27625, 27696, 27825, 27904, 28160, 29896, 30488, 30568, 30640, 30912, 31040, 31152, 31224, 32232, 32736, 32824, 32921, 33041, 33224, 33368, 34864, 35048, 35168, 35272, 35432, 35608], "trial_type": "free-recall", "conditions": [18, 1200, "a", 18000], "internal_node_id": "0.0-57.0-0.0", "key_presses": [83, 65, 68, 68, 76, 69, 13, 71, 79, 66, 76, 73, 78, 13, 67, 76, 79, 85, 68, 13, 84, 65, 66, 76, 69, 84, 13, 66, 82, 79, 84, 72, 69, 82, 13, 69, 89, 69, 76, 65, 83, 72, 13, 83, 72, 79, 86, 69, 76, 13, 72, 69, 65, 68, 66, 65, 78, 68, 13, 80, 65, 82, 8, 8, 8, 86, 73, 67, 84, 73, 77, 13, 66, 76, 85, 69, 80, 82, 73, 78, 84, 13, 83, 75, 69, 84, 67, 72, 13, 80, 76, 65, 83, 84, 69, 82, 13, 80, 76, 65, 84, 69, 13, 80, 82, 69, 65, 67, 72, 69, 82, 13, 66, 76, 65, 68, 69, 13, 66, 69, 65, 83, 84, 13], "trial": 1, "time_elapsed": 431853, "type": "FREE_RECALL", "trial_index": 75}, "uniqueid": "MTK2169:3Q5C1WP23N83I0SV2N9GRVZ6SHS51O", "dateTime": 1516819787484}, {"current_trial": 76, "trialdata": {"rt": 2397, "trial_type": "text", "internal_node_id": "0.0-58.0", "time_elapsed": 436252, "key_press": 13, "type": "INSTRUCTIONS", "trial_index": 76}, "uniqueid": "MTK2169:3Q5C1WP23N83I0SV2N9GRVZ6SHS51O", "dateTime": 1516819791882}, {"current_trial": 77, "trialdata": {"rt": [3764, 5461, 7484, 8940, 10812], "trial_type": "math-distractor", "key_times": [3501, 3605, 3764, 5204, 5293, 5461, 7012, 7293, 7484, 8669, 8797, 8940, 10525, 10652, 10812], "responses": ["13", "12", "15", "12", "13"], "num2": [4, 6, 2, 8, 9, 1], "num3": [5, 2, 5, 2, 2, 1], "conditions": [12, 1600, "a", 12000], "internal_node_id": "0.0-59.0", "key_presses": [49, 51, 13, 49, 50, 13, 49, 53, 13, 49, 50, 13, 49, 51, 13], "trial": 2, "time_elapsed": 449257, "type": "DISTRACTOR", "trial_index": 77, "num1": [4, 4, 8, 2, 2, 1]}, "uniqueid": "MTK2169:3Q5C1WP23N83I0SV2N9GRVZ6SHS51O", "dateTime": 1516819804887}, {"current_trial": 78, "trialdata": {"rt": -1, "trial_type": "single-stim", "stimulus": "<p id=\"stim\">10</p>", "internal_node_id": "0.0-60.0-0.0", "time_elapsed": 452258, "key_press": -1, "trial_index": 78}, "uniqueid": "MTK2169:3Q5C1WP23N83I0SV2N9GRVZ6SHS51O", "dateTime": 1516819807888}, {"current_trial": 79, "trialdata": {"rt": -1, "trial_type": "single-stim", "stimulus": "<p id=\"stim\">9</p>", "internal_node_id": "0.0-60.0-1.0", "time_elapsed": 453259, "key_press": -1, "trial_index": 79}, "uniqueid": "MTK2169:3Q5C1WP23N83I0SV2N9GRVZ6SHS51O", "dateTime": 1516819808889}, {"current_trial": 80, "trialdata": {"rt": -1, "trial_type": "single-stim", "stimulus": "<p id=\"stim\">8</p>", "internal_node_id": "0.0-60.0-2.0", "time_elapsed": 454260, "key_press": -1, "trial_index": 80}, "uniqueid": "MTK2169:3Q5C1WP23N83I0SV2N9GRVZ6SHS51O", "dateTime": 1516819809890}, {"current_trial": 81, "trialdata": {"rt": -1, "trial_type": "single-stim", "stimulus": "<p id=\"stim\">7</p>", "internal_node_id": "0.0-60.0-3.0", "time_elapsed": 455261, "key_press": -1, "trial_index": 81}, "uniqueid": "MTK2169:3Q5C1WP23N83I0SV2N9GRVZ6SHS51O", "dateTime": 1516819810891}, {"current_trial": 82, "trialdata": {"rt": -1, "trial_type": "single-stim", "stimulus": "<p id=\"stim\">6</p>", "internal_node_id": "0.0-60.0-4.0", "time_elapsed": 456262, "key_press": -1, "trial_index": 82}, "uniqueid": "MTK2169:3Q5C1WP23N83I0SV2N9GRVZ6SHS51O", "dateTime": 1516819811893}, {"current_trial": 83, "trialdata": {"rt": 712, "trial_type": "single-stim", "stimulus": "<p id=\"stim\">5</p>", "internal_node_id": "0.0-60.0-5.0", "time_elapsed": 457263, "key_press": 175, "trial_index": 83}, "uniqueid": "MTK2169:3Q5C1WP23N83I0SV2N9GRVZ6SHS51O", "dateTime": 1516819812893}, {"current_trial": 84, "trialdata": {"rt": 162, "trial_type": "single-stim", "stimulus": "<p id=\"stim\">4</p>", "internal_node_id": "0.0-60.0-6.0", "time_elapsed": 458264, "key_press": 175, "trial_index": 84}, "uniqueid": "MTK2169:3Q5C1WP23N83I0SV2N9GRVZ6SHS51O", "dateTime": 1516819813894}, {"current_trial": 85, "trialdata": {"rt": -1, "trial_type": "single-stim", "stimulus": "<p id=\"stim\">3</p>", "internal_node_id": "0.0-60.0-7.0", "time_elapsed": 459265, "key_press": -1, "trial_index": 85}, "uniqueid": "MTK2169:3Q5C1WP23N83I0SV2N9GRVZ6SHS51O", "dateTime": 1516819814895}, {"current_trial": 86, "trialdata": {"rt": -1, "trial_type": "single-stim", "stimulus": "<p id=\"stim\">2</p>", "internal_node_id": "0.0-60.0-8.0", "time_elapsed": 460266, "key_press": -1, "trial_index": 86}, "uniqueid": "MTK2169:3Q5C1WP23N83I0SV2N9GRVZ6SHS51O", "dateTime": 1516819815896}, {"current_trial": 87, "trialdata": {"rt": -1, "trial_type": "single-stim", "stimulus": "<p id=\"stim\">1</p>", "internal_node_id": "0.0-60.0-9.0", "time_elapsed": 461267, "key_press": -1, "trial_index": 87}, "uniqueid": "MTK2169:3Q5C1WP23N83I0SV2N9GRVZ6SHS51O", "dateTime": 1516819816897}, {"current_trial": 88, "trialdata": {"rt": -1, "trial_type": "single-stim", "stimulus": "<p id=\"stim\">+</p>", "internal_node_id": "0.0-61.0-0.0", "time_elapsed": 462768, "key_press": -1, "type": "FIXATION", "trial_index": 88}, "uniqueid": "MTK2169:3Q5C1WP23N83I0SV2N9GRVZ6SHS51O", "dateTime": 1516819818398}, {"current_trial": 89, "trialdata": {"rt": -1000, "trial_type": "single-audio", "word": "chipmunk", "stimulus": "/static/audio/wordpool/CHIPMUNK.wav", "conditions": [12, 1600, "a", 12000], "internal_node_id": "0.0-62.0", "trial": 2, "time_elapsed": 465345, "serialpos": 0, "key_press": -1, "wordID": 303, "type": "PRES_AUD", "trial_index": 89}, "uniqueid": "MTK2169:3Q5C1WP23N83I0SV2N9GRVZ6SHS51O", "dateTime": 1516819820975}, {"current_trial": 90, "trialdata": {"rt": -1000, "trial_type": "single-audio", "word": "quail", "stimulus": "/static/audio/wordpool/QUAIL.wav", "conditions": [12, 1600, "a", 12000], "internal_node_id": "0.0-63.0", "trial": 2, "time_elapsed": 467931, "serialpos": 1, "key_press": -1, "wordID": 1146, "type": "PRES_AUD", "trial_index": 90}, "uniqueid": "MTK2169:3Q5C1WP23N83I0SV2N9GRVZ6SHS51O", "dateTime": 1516819823561}, {"current_trial": 91, "trialdata": {"rt": -1000, "trial_type": "single-audio", "word": "cupboard", "stimulus": "/static/audio/wordpool/CUPBOARD.wav", "conditions": [12, 1600, "a", 12000], "internal_node_id": "0.0-64.0", "trial": 2, "time_elapsed": 470555, "serialpos": 2, "key_press": -1, "wordID": 424, "type": "PRES_AUD", "trial_index": 91}, "uniqueid": "MTK2169:3Q5C1WP23N83I0SV2N9GRVZ6SHS51O", "dateTime": 1516819826185}, {"current_trial": 92, "trialdata": {"rt": -1000, "trial_type": "single-audio", "word": "dresser", "stimulus": "/static/audio/wordpool/DRESSER.wav", "conditions": [12, 1600, "a", 12000], "internal_node_id": "0.0-65.0", "trial": 2, "time_elapsed": 473239, "serialpos": 3, "key_press": -1, "wordID": 495, "type": "PRES_AUD", "trial_index": 92}, "uniqueid": "MTK2169:3Q5C1WP23N83I0SV2N9GRVZ6SHS51O", "dateTime": 1516819828869}, {"current_trial": 93, "trialdata": {"rt": -1000, "trial_type": "single-audio", "word": "outfit", "stimulus": "/static/audio/wordpool/OUTFIT.wav", "conditions": [12, 1600, "a", 12000], "internal_node_id": "0.0-66.0", "trial": 2, "time_elapsed": 475676, "serialpos": 4, "key_press": -1, "wordID": 987, "type": "PRES_AUD", "trial_index": 93}, "uniqueid": "MTK2169:3Q5C1WP23N83I0SV2N9GRVZ6SHS51O", "dateTime": 1516819831306}, {"current_trial": 94, "trialdata": {"rt": -1000, "trial_type": "single-audio", "word": "razor", "stimulus": "/static/audio/wordpool/RAZOR.wav", "conditions": [12, 1600, "a", 12000], "internal_node_id": "0.0-67.0", "trial": 2, "time_elapsed": 478102, "serialpos": 5, "key_press": -1, "wordID": 1170, "type": "PRES_AUD", "trial_index": 94}, "uniqueid": "MTK2169:3Q5C1WP23N83I0SV2N9GRVZ6SHS51O", "dateTime": 1516819833732}, {"current_trial": 95, "trialdata": {"rt": -1000, "trial_type": "single-audio", "word": "piano", "stimulus": "/static/audio/wordpool/PIANO.wav", "conditions": [12, 1600, "a", 12000], "internal_node_id": "0.0-68.0", "trial": 2, "time_elapsed": 480850, "serialpos": 6, "key_press": -1, "wordID": 1056, "type": "PRES_AUD", "trial_index": 95}, "uniqueid": "MTK2169:3Q5C1WP23N83I0SV2N9GRVZ6SHS51O", "dateTime": 1516819836480}, {"current_trial": 96, "trialdata": {"rt": -1000, "trial_type": "single-audio", "word": "jungle", "stimulus": "/static/audio/wordpool/JUNGLE.wav", "conditions": [12, 1600, "a", 12000], "internal_node_id": "0.0-69.0", "trial": 2, "time_elapsed": 483432, "serialpos": 7, "key_press": -1, "wordID": 763, "type": "PRES_AUD", "trial_index": 96}, "uniqueid": "MTK2169:3Q5C1WP23N83I0SV2N9GRVZ6SHS51O", "dateTime": 1516819839062}, {"current_trial": 97, "trialdata": {"rt": -1000, "trial_type": "single-audio", "word": "subway", "stimulus": "/static/audio/wordpool/SUBWAY.wav", "conditions": [12, 1600, "a", 12000], "internal_node_id": "0.0-70.0", "trial": 2, "time_elapsed": 486118, "serialpos": 8, "key_press": -1, "wordID": 1399, "type": "PRES_AUD", "trial_index": 97}, "uniqueid": "MTK2169:3Q5C1WP23N83I0SV2N9GRVZ6SHS51O", "dateTime": 1516819841748}, {"current_trial": 98, "trialdata": {"rt": -1000, "trial_type": "single-audio", "word": "tuba", "stimulus": "/static/audio/wordpool/TUBA.wav", "conditions": [12, 1600, "a", 12000], "internal_node_id": "0.0-71.0", "trial": 2, "time_elapsed": 488796, "serialpos": 9, "key_press": -1, "wordID": 1514, "type": "PRES_AUD", "trial_index": 98}, "uniqueid": "MTK2169:3Q5C1WP23N83I0SV2N9GRVZ6SHS51O", "dateTime": 1516819844426}, {"current_trial": 99, "trialdata": {"rt": -1000, "trial_type": "single-audio", "word": "neutron", "stimulus": "/static/audio/wordpool/NEUTRON.wav", "conditions": [12, 1600, "a", 12000], "internal_node_id": "0.0-72.0", "trial": 2, "time_elapsed": 491436, "serialpos": 10, "key_press": -1, "wordID": 946, "type": "PRES_AUD", "trial_index": 99}, "uniqueid": "MTK2169:3Q5C1WP23N83I0SV2N9GRVZ6SHS51O", "dateTime": 1516819847066}, {"current_trial": 100, "trialdata": {"rt": -1000, "trial_type": "single-audio", "word": "tourist", "stimulus": "/static/audio/wordpool/TOURIST.wav", "conditions": [12, 1600, "a", 12000], "internal_node_id": "0.0-73.0", "trial": 2, "time_elapsed": 493866, "serialpos": 11, "key_press": -1, "wordID": 1487, "type": "PRES_AUD", "trial_index": 100}, "uniqueid": "MTK2169:3Q5C1WP23N83I0SV2N9GRVZ6SHS51O", "dateTime": 1516819849496}, {"current_trial": 101, "trialdata": {"rt": -1, "trial_type": "single-stim", "stimulus": "", "internal_node_id": "0.0-74.0-0.0", "time_elapsed": 495213, "key_press": -1, "type": "PRE_RECALL_DELAY", "trial_index": 101}, "uniqueid": "MTK2169:3Q5C1WP23N83I0SV2N9GRVZ6SHS51O", "dateTime": 1516819850843}, {"current_trial": 102, "trialdata": {"rt": -1000, "trial_type": "single-audio", "stimulus": "/static/audio/400Hz.wav", "internal_node_id": "0.0-75.0", "time_elapsed": 495714, "key_press": -1, "type": "PRE_RECALL_ALERT", "trial_index": 102}, "uniqueid": "MTK2169:3Q5C1WP23N83I0SV2N9GRVZ6SHS51O", "dateTime": 1516819851345}, {"current_trial": 103, "trialdata": {"rt": [5336, 6600, 8016, 9520, 11096, 13480, 14928, 17496, 19503, 22616, 33968, 42184, 45775], "recwords": ["neutron", "tourist", "subway", "jungle", "razor", "dresser", "outfit", "chipmunk", "quail", "cupboard", "", "tuba", "piano"], "key_times": [1304, 1424, 1648, 1936, 2112, 2208, 2312, 2968, 3144, 4792, 4944, 5336, 5680, 5784, 5872, 5976, 6160, 6304, 6368, 6600, 6896, 7048, 7144, 7512, 7640, 7752, 8016, 8272, 8448, 8600, 8704, 8792, 8928, 9520, 10048, 10152, 10448, 10696, 10792, 11096, 11952, 12104, 12240, 12576, 12744, 12904, 12992, 13480, 13880, 13984, 14104, 14472, 14576, 14744, 14928, 16000, 16112, 16192, 16296, 16664, 16848, 17048, 17167, 17496, 17936, 18040, 18192, 18320, 18424, 19503, 20872, 21016, 21160, 21448, 21608, 21704, 21784, 21976, 22616, 33968, 41328, 41912, 41992, 42072, 42184, 44640, 44792, 45144, 45351, 45407, 45512, 45600, 45775], "trial_type": "free-recall", "conditions": [12, 1600, "a", 12000], "internal_node_id": "0.0-76.0-0.0", "key_presses": [78, 69, 85, 84, 82, 79, 78, 8, 8, 79, 78, 13, 84, 79, 85, 82, 73, 83, 84, 13, 83, 85, 66, 87, 65, 89, 13, 74, 85, 78, 71, 76, 69, 13, 82, 65, 90, 79, 82, 13, 68, 82, 69, 83, 83, 69, 82, 13, 79, 85, 84, 70, 73, 84, 13, 67, 72, 73, 80, 77, 85, 78, 75, 13, 81, 85, 65, 73, 76, 13, 67, 85, 80, 66, 79, 65, 82, 68, 13, 13, 84, 85, 66, 65, 13, 80, 65, 8, 73, 65, 78, 79, 13], "trial": 2, "time_elapsed": 555717, "type": "FREE_RECALL", "trial_index": 103}, "uniqueid": "MTK2169:3Q5C1WP23N83I0SV2N9GRVZ6SHS51O", "dateTime": 1516819911349}, {"current_trial": 104, "trialdata": {"rt": 1066, "trial_type": "text", "internal_node_id": "0.0-77.0", "time_elapsed": 558786, "key_press": 13, "type": "INSTRUCTIONS", "trial_index": 104}, "uniqueid": "MTK2169:3Q5C1WP23N83I0SV2N9GRVZ6SHS51O", "dateTime": 1516819914417}, {"current_trial": 105, "trialdata": {"rt": [5421, 7581], "trial_type": "math-distractor", "key_times": [4885, 5014, 5421, 6910, 7445, 7581], "responses": ["21", "18"], "num2": [9, 7, 8], "num3": [7, 7, 8], "conditions": [24, 800, "a", 12000], "internal_node_id": "0.0-78.0", "key_presses": [50, 49, 13, 49, 56, 13], "trial": 3, "time_elapsed": 572790, "type": "DISTRACTOR", "trial_index": 105, "num1": [5, 4, 6]}, "uniqueid": "MTK2169:3Q5C1WP23N83I0SV2N9GRVZ6SHS51O", "dateTime": 1516819928420}, {"current_trial": 106, "trialdata": {"rt": -1, "trial_type": "single-stim", "stimulus": "<p id=\"stim\">10</p>", "internal_node_id": "0.0-79.0-0.0", "time_elapsed": 575792, "key_press": -1, "trial_index": 106}, "uniqueid": "MTK2169:3Q5C1WP23N83I0SV2N9GRVZ6SHS51O", "dateTime": 1516819931422}, {"current_trial": 107, "trialdata": {"rt": -1, "trial_type": "single-stim", "stimulus": "<p id=\"stim\">9</p>", "internal_node_id": "0.0-79.0-1.0", "time_elapsed": 576793, "key_press": -1, "trial_index": 107}, "uniqueid": "MTK2169:3Q5C1WP23N83I0SV2N9GRVZ6SHS51O", "dateTime": 1516819932423}, {"current_trial": 108, "trialdata": {"rt": -1, "trial_type": "single-stim", "stimulus": "<p id=\"stim\">8</p>", "internal_node_id": "0.0-79.0-2.0", "time_elapsed": 577794, "key_press": -1, "trial_index": 108}, "uniqueid": "MTK2169:3Q5C1WP23N83I0SV2N9GRVZ6SHS51O", "dateTime": 1516819933424}, {"current_trial": 109, "trialdata": {"rt": -1, "trial_type": "single-stim", "stimulus": "<p id=\"stim\">7</p>", "internal_node_id": "0.0-79.0-3.0", "time_elapsed": 578794, "key_press": -1, "trial_index": 109}, "uniqueid": "MTK2169:3Q5C1WP23N83I0SV2N9GRVZ6SHS51O", "dateTime": 1516819934424}, {"current_trial": 110, "trialdata": {"rt": -1, "trial_type": "single-stim", "stimulus": "<p id=\"stim\">6</p>", "internal_node_id": "0.0-79.0-4.0", "time_elapsed": 579796, "key_press": -1, "trial_index": 110}, "uniqueid": "MTK2169:3Q5C1WP23N83I0SV2N9GRVZ6SHS51O", "dateTime": 1516819935426}, {"current_trial": 111, "trialdata": {"rt": -1, "trial_type": "single-stim", "stimulus": "<p id=\"stim\">5</p>", "internal_node_id": "0.0-79.0-5.0", "time_elapsed": 580797, "key_press": -1, "trial_index": 111}, "uniqueid": "MTK2169:3Q5C1WP23N83I0SV2N9GRVZ6SHS51O", "dateTime": 1516819936427}, {"current_trial": 112, "trialdata": {"rt": -1, "trial_type": "single-stim", "stimulus": "<p id=\"stim\">4</p>", "internal_node_id": "0.0-79.0-6.0", "time_elapsed": 581798, "key_press": -1, "trial_index": 112}, "uniqueid": "MTK2169:3Q5C1WP23N83I0SV2N9GRVZ6SHS51O", "dateTime": 1516819937428}, {"current_trial": 113, "trialdata": {"rt": -1, "trial_type": "single-stim", "stimulus": "<p id=\"stim\">3</p>", "internal_node_id": "0.0-79.0-7.0", "time_elapsed": 582799, "key_press": -1, "trial_index": 113}, "uniqueid": "MTK2169:3Q5C1WP23N83I0SV2N9GRVZ6SHS51O", "dateTime": 1516819938429}, {"current_trial": 114, "trialdata": {"rt": -1, "trial_type": "single-stim", "stimulus": "<p id=\"stim\">2</p>", "internal_node_id": "0.0-79.0-8.0", "time_elapsed": 583800, "key_press": -1, "trial_index": 114}, "uniqueid": "MTK2169:3Q5C1WP23N83I0SV2N9GRVZ6SHS51O", "dateTime": 1516819939430}, {"current_trial": 115, "trialdata": {"rt": -1, "trial_type": "single-stim", "stimulus": "<p id=\"stim\">1</p>", "internal_node_id": "0.0-79.0-9.0", "time_elapsed": 584801, "key_press": -1, "trial_index": 115}, "uniqueid": "MTK2169:3Q5C1WP23N83I0SV2N9GRVZ6SHS51O", "dateTime": 1516819940431}, {"current_trial": 116, "trialdata": {"rt": -1, "trial_type": "single-stim", "stimulus": "<p id=\"stim\">+</p>", "internal_node_id": "0.0-80.0-0.0", "time_elapsed": 586302, "key_press": -1, "type": "FIXATION", "trial_index": 116}, "uniqueid": "MTK2169:3Q5C1WP23N83I0SV2N9GRVZ6SHS51O", "dateTime": 1516819941932}, {"current_trial": 117, "trialdata": {"rt": -1000, "trial_type": "single-audio", "word": "ketchup", "stimulus": "/static/audio/wordpool/KETCHUP.wav", "conditions": [24, 800, "a", 12000], "internal_node_id": "0.0-81.0", "trial": 3, "time_elapsed": 588185, "serialpos": 0, "key_press": -1, "wordID": 770, "type": "PRES_AUD", "trial_index": 117}, "uniqueid": "MTK2169:3Q5C1WP23N83I0SV2N9GRVZ6SHS51O", "dateTime": 1516819943815}, {"current_trial": 118, "trialdata": {"rt": -1000, "trial_type": "single-audio", "word": "rooster", "stimulus": "/static/audio/wordpool/ROOSTER.wav", "conditions": [24, 800, "a", 12000], "internal_node_id": "0.0-82.0", "trial": 3, "time_elapsed": 589812, "serialpos": 1, "key_press": -1, "wordID": 1208, "type": "PRES_AUD", "trial_index": 118}, "uniqueid": "MTK2169:3Q5C1WP23N83I0SV2N9GRVZ6SHS51O", "dateTime": 1516819945442}, {"current_trial": 119, "trialdata": {"rt": -1000, "trial_type": "single-audio", "word": "onion", "stimulus": "/static/audio/wordpool/ONION.wav", "conditions": [24, 800, "a", 12000], "internal_node_id": "0.0-83.0", "trial": 3, "time_elapsed": 591737, "serialpos": 2, "key_press": -1, "wordID": 976, "type": "PRES_AUD", "trial_index": 119}, "uniqueid": "MTK2169:3Q5C1WP23N83I0SV2N9GRVZ6SHS51O", "dateTime": 1516819947367}, {"current_trial": 120, "trialdata": {"rt": -1000, "trial_type": "single-audio", "word": "shark", "stimulus": "/static/audio/wordpool/SHARK.wav", "conditions": [24, 800, "a", 12000], "internal_node_id": "0.0-84.0", "trial": 3, "time_elapsed": 593708, "serialpos": 3, "key_press": -1, "wordID": 1274, "type": "PRES_AUD", "trial_index": 120}, "uniqueid": "MTK2169:3Q5C1WP23N83I0SV2N9GRVZ6SHS51O", "dateTime": 1516819949338}, {"current_trial": 121, "trialdata": {"rt": -1000, "trial_type": "single-audio", "word": "princess", "stimulus": "/static/audio/wordpool/PRINCESS.wav", "conditions": [24, 800, "a", 12000], "internal_node_id": "0.0-85.0", "trial": 3, "time_elapsed": 595322, "serialpos": 4, "key_press": -1, "wordID": 1124, "type": "PRES_AUD", "trial_index": 121}, "uniqueid": "MTK2169:3Q5C1WP23N83I0SV2N9GRVZ6SHS51O", "dateTime": 1516819950952}, {"current_trial": 122, "trialdata": {"rt": -1000, "trial_type": "single-audio", "word": "snail", "stimulus": "/static/audio/wordpool/SNAIL.wav", "conditions": [24, 800, "a", 12000], "internal_node_id": "0.0-86.0", "trial": 3, "time_elapsed": 597126, "serialpos": 5, "key_press": -1, "wordID": 1331, "type": "PRES_AUD", "trial_index": 122}, "uniqueid": "MTK2169:3Q5C1WP23N83I0SV2N9GRVZ6SHS51O", "dateTime": 1516819952756}, {"current_trial": 123, "trialdata": {"rt": -1000, "trial_type": "single-audio", "word": "pigment", "stimulus": "/static/audio/wordpool/PIGMENT.wav", "conditions": [24, 800, "a", 12000], "internal_node_id": "0.0-87.0", "trial": 3, "time_elapsed": 598890, "serialpos": 6, "key_press": -1, "wordID": 1065, "type": "PRES_AUD", "trial_index": 123}, "uniqueid": "MTK2169:3Q5C1WP23N83I0SV2N9GRVZ6SHS51O", "dateTime": 1516819954520}, {"current_trial": 124, "trialdata": {"rt": -1000, "trial_type": "single-audio", "word": "garlic", "stimulus": "/static/audio/wordpool/GARLIC.wav", "conditions": [24, 800, "a", 12000], "internal_node_id": "0.0-88.0", "trial": 3, "time_elapsed": 600656, "serialpos": 7, "key_press": -1, "wordID": 623, "type": "PRES_AUD", "trial_index": 124}, "uniqueid": "MTK2169:3Q5C1WP23N83I0SV2N9GRVZ6SHS51O", "dateTime": 1516819956286}, {"current_trial": 125, "trialdata": {"rt": -1000, "trial_type": "single-audio", "word": "rabbit", "stimulus": "/static/audio/wordpool/RABBIT.wav", "conditions": [24, 800, "a", 12000], "internal_node_id": "0.0-89.0", "trial": 3, "time_elapsed": 602445, "serialpos": 8, "key_press": -1, "wordID": 1151, "type": "PRES_AUD", "trial_index": 125}, "uniqueid": "MTK2169:3Q5C1WP23N83I0SV2N9GRVZ6SHS51O", "dateTime": 1516819958075}, {"current_trial": 126, "trialdata": {"rt": -1000, "trial_type": "single-audio", "word": "picture", "stimulus": "/static/audio/wordpool/PICTURE.wav", "conditions": [24, 800, "a", 12000], "internal_node_id": "0.0-90.0", "trial": 3, "time_elapsed": 604066, "serialpos": 9, "key_press": -1, "wordID": 1060, "type": "PRES_AUD", "trial_index": 126}, "uniqueid": "MTK2169:3Q5C1WP23N83I0SV2N9GRVZ6SHS51O", "dateTime": 1516819959696}, {"current_trial": 127, "trialdata": {"rt": -1000, "trial_type": "single-audio", "word": "portrait", "stimulus": "/static/audio/wordpool/PORTRAIT.wav", "conditions": [24, 800, "a", 12000], "internal_node_id": "0.0-91.0", "trial": 3, "time_elapsed": 605837, "serialpos": 10, "key_press": -1, "wordID": 1110, "type": "PRES_AUD", "trial_index": 127}, "uniqueid": "MTK2169:3Q5C1WP23N83I0SV2N9GRVZ6SHS51O", "dateTime": 1516819961467}, {"current_trial": 128, "trialdata": {"rt": -1000, "trial_type": "single-audio", "word": "report", "stimulus": "/static/audio/wordpool/REPORT.wav", "conditions": [24, 800, "a", 12000], "internal_node_id": "0.0-92.0", "trial": 3, "time_elapsed": 607753, "serialpos": 11, "key_press": -1, "wordID": 1183, "type": "PRES_AUD", "trial_index": 128}, "uniqueid": "MTK2169:3Q5C1WP23N83I0SV2N9GRVZ6SHS51O", "dateTime": 1516819963383}, {"current_trial": 129, "trialdata": {"rt": -1000, "trial_type": "single-audio", "word": "harp", "stimulus": "/static/audio/wordpool/HARP.wav", "conditions": [24, 800, "a", 12000], "internal_node_id": "0.0-93.0", "trial": 3, "time_elapsed": 609487, "serialpos": 12, "key_press": -1, "wordID": 688, "type": "PRES_AUD", "trial_index": 129}, "uniqueid": "MTK2169:3Q5C1WP23N83I0SV2N9GRVZ6SHS51O", "dateTime": 1516819965117}, {"current_trial": 130, "trialdata": {"rt": -1000, "trial_type": "single-audio", "word": "office", "stimulus": "/static/audio/wordpool/OFFICE.wav", "conditions": [24, 800, "a", 12000], "internal_node_id": "0.0-94.0", "trial": 3, "time_elapsed": 611232, "serialpos": 13, "key_press": -1, "wordID": 971, "type": "PRES_AUD", "trial_index": 130}, "uniqueid": "MTK2169:3Q5C1WP23N83I0SV2N9GRVZ6SHS51O", "dateTime": 1516819966862}, {"current_trial": 131, "trialdata": {"rt": -1000, "trial_type": "single-audio", "word": "lover", "stimulus": "/static/audio/wordpool/LOVER.wav", "conditions": [24, 800, "a", 12000], "internal_node_id": "0.0-95.0", "trial": 3, "time_elapsed": 612885, "serialpos": 14, "key_press": -1, "wordID": 845, "type": "PRES_AUD", "trial_index": 131}, "uniqueid": "MTK2169:3Q5C1WP23N83I0SV2N9GRVZ6SHS51O", "dateTime": 1516819968515}, {"current_trial": 132, "trialdata": {"rt": -1000, "trial_type": "single-audio", "word": "blackboard", "stimulus": "/static/audio/wordpool/BLACKBOARD.wav", "conditions": [24, 800, "a", 12000], "internal_node_id": "0.0-96.0", "trial": 3, "time_elapsed": 614533, "serialpos": 15, "key_press": -1, "wordID": 132, "type": "PRES_AUD", "trial_index": 132}, "uniqueid": "MTK2169:3Q5C1WP23N83I0SV2N9GRVZ6SHS51O", "dateTime": 1516819970163}, {"current_trial": 133, "trialdata": {"rt": -1000, "trial_type": "single-audio", "word": "scribble", "stimulus": "/static/audio/wordpool/SCRIBBLE.wav", "conditions": [24, 800, "a", 12000], "internal_node_id": "0.0-97.0", "trial": 3, "time_elapsed": 616304, "serialpos": 16, "key_press": -1, "wordID": 1255, "type": "PRES_AUD", "trial_index": 133}, "uniqueid": "MTK2169:3Q5C1WP23N83I0SV2N9GRVZ6SHS51O", "dateTime": 1516819971934}, {"current_trial": 134, "trialdata": {"rt": -1000, "trial_type": "single-audio", "word": "pluto", "stimulus": "/static/audio/wordpool/PLUTO.wav", "conditions": [24, 800, "a", 12000], "internal_node_id": "0.0-98.0", "trial": 3, "time_elapsed": 618265, "serialpos": 17, "key_press": -1, "wordID": 1091, "type": "PRES_AUD", "trial_index": 134}, "uniqueid": "MTK2169:3Q5C1WP23N83I0SV2N9GRVZ6SHS51O", "dateTime": 1516819973895}, {"current_trial": 135, "trialdata": {"rt": -1000, "trial_type": "single-audio", "word": "statue", "stimulus": "/static/audio/wordpool/STATUE.wav", "conditions": [24, 800, "a", 12000], "internal_node_id": "0.0-99.0", "trial": 3, "time_elapsed": 620187, "serialpos": 18, "key_press": -1, "wordID": 1373, "type": "PRES_AUD", "trial_index": 135}, "uniqueid": "MTK2169:3Q5C1WP23N83I0SV2N9GRVZ6SHS51O", "dateTime": 1516819975817}, {"current_trial": 136, "trialdata": {"rt": -1000, "trial_type": "single-audio", "word": "sculpture", "stimulus": "/static/audio/wordpool/SCULPTURE.wav", "conditions": [24, 800, "a", 12000], "internal_node_id": "0.0-100.0", "trial": 3, "time_elapsed": 622177, "serialpos": 19, "key_press": -1, "wordID": 1257, "type": "PRES_AUD", "trial_index": 136}, "uniqueid": "MTK2169:3Q5C1WP23N83I0SV2N9GRVZ6SHS51O", "dateTime": 1516819977807}, {"current_trial": 137, "trialdata": {"rt": -1000, "trial_type": "single-audio", "word": "muffin", "stimulus": "/static/audio/wordpool/MUFFIN.wav", "conditions": [24, 800, "a", 12000], "internal_node_id": "0.0-101.0", "trial": 3, "time_elapsed": 623784, "serialpos": 20, "key_press": -1, "wordID": 928, "type": "PRES_AUD", "trial_index": 137}, "uniqueid": "MTK2169:3Q5C1WP23N83I0SV2N9GRVZ6SHS51O", "dateTime": 1516819979414}, {"current_trial": 138, "trialdata": {"rt": -1000, "trial_type": "single-audio", "word": "keeper", "stimulus": "/static/audio/wordpool/KEEPER.wav", "conditions": [24, 800, "a", 12000], "internal_node_id": "0.0-102.0", "trial": 3, "time_elapsed": 625761, "serialpos": 21, "key_press": -1, "wordID": 768, "type": "PRES_AUD", "trial_index": 138}, "uniqueid": "MTK2169:3Q5C1WP23N83I0SV2N9GRVZ6SHS51O", "dateTime": 1516819981391}, {"current_trial": 139, "trialdata": {"rt": -1000, "trial_type": "single-audio", "word": "boyfriend", "stimulus": "/static/audio/wordpool/BOYFRIEND.wav", "conditions": [24, 800, "a", 12000], "internal_node_id": "0.0-103.0", "trial": 3, "time_elapsed": 627687, "serialpos": 22, "key_press": -1, "wordID": 161, "type": "PRES_AUD", "trial_index": 139}, "uniqueid": "MTK2169:3Q5C1WP23N83I0SV2N9GRVZ6SHS51O", "dateTime": 1516819983317}, {"current_trial": 140, "trialdata": {"rt": -1000, "trial_type": "single-audio", "word": "nurse", "stimulus": "/static/audio/wordpool/NURSE.wav", "conditions": [24, 800, "a", 12000], "internal_node_id": "0.0-104.0", "trial": 3, "time_elapsed": 629482, "serialpos": 23, "key_press": -1, "wordID": 962, "type": "PRES_AUD", "trial_index": 140}, "uniqueid": "MTK2169:3Q5C1WP23N83I0SV2N9GRVZ6SHS51O", "dateTime": 1516819985112}, {"current_trial": 141, "trialdata": {"rt": -1, "trial_type": "single-stim", "stimulus": "", "internal_node_id": "0.0-105.0-0.0", "time_elapsed": 630844, "key_press": -1, "type": "PRE_RECALL_DELAY", "trial_index": 141}, "uniqueid": "MTK2169:3Q5C1WP23N83I0SV2N9GRVZ6SHS51O", "dateTime": 1516819986474}, {"current_trial": 142, "trialdata": {"rt": -1000, "trial_type": "single-audio", "stimulus": "/static/audio/400Hz.wav", "internal_node_id": "0.0-106.0", "time_elapsed": 631345, "key_press": -1, "type": "PRE_RECALL_ALERT", "trial_index": 142}, "uniqueid": "MTK2169:3Q5C1WP23N83I0SV2N9GRVZ6SHS51O", "dateTime": 1516819986975}, {"current_trial": 143, "trialdata": {"rt": [3479, 4455, 5448, 6983, 8671, 9887, 11584, 17144, 18488, 20447, 22191, 23751, 25143, 26920, 30183, 31287, 33007, 56039], "recwords": ["boyfriend", "lover", "keeper", "nurse", "shark", "rabbit", "ketchup", "sculpture", "statue", "portrait", "picture", "rooster", "pluto", "pigment", "garlic", "onion", "muffin", "office"], "key_times": [1328, 1735, 1800, 2088, 2272, 2344, 2488, 2735, 3048, 3255, 3336, 3479, 3863, 4040, 4127, 4247, 4335, 4455, 4767, 4863, 5015, 5111, 5247, 5327, 5448, 6263, 6431, 6551, 6679, 6767, 6983, 8047, 8160, 8224, 8295, 8463, 8671, 9111, 9215, 9367, 9511, 9615, 9735, 9887, 10303, 10415, 10535, 10751, 10847, 10991, 11103, 11584, 12143, 12496, 12607, 12824, 13312, 16039, 16160, 16271, 16352, 17144, 17359, 17495, 17592, 17728, 17975, 18087, 18488, 18784, 19088, 19232, 19432, 19656, 19744, 19895, 20152, 20447, 20727, 20799, 20967, 21160, 21240, 21375, 21456, 22191, 22536, 22616, 22791, 22895, 23008, 23320, 23423, 23535, 23640, 23751, 23912, 24127, 24319, 24423, 24567, 24672, 25143, 25943, 26120, 26303, 26415, 26559, 26640, 26743, 26920, 29327, 29439, 29567, 29695, 29808, 29975, 30183, 30543, 30656, 30775, 30903, 30952, 31287, 31543, 31735, 31887, 32007, 32095, 32167, 33007, 55332, 55447, 55575, 55695, 55823, 55863, 56039], "trial_type": "free-recall", "conditions": [24, 800, "a", 12000], "internal_node_id": "0.0-107.0-0.0", "key_presses": [66, 79, 89, 70, 82, 73, 69, 68, 8, 78, 68, 13, 76, 79, 86, 69, 82, 13, 75, 69, 69, 80, 69, 82, 32, 78, 85, 82, 83, 69, 13, 83, 72, 65, 82, 75, 13, 82, 65, 66, 66, 73, 84, 13, 75, 69, 84, 67, 72, 85, 80, 13, 83, 67, 85, 76, 80, 84, 85, 82, 69, 13, 83, 84, 65, 84, 85, 69, 13, 80, 79, 82, 84, 82, 65, 73, 84, 13, 80, 73, 67, 84, 85, 82, 69, 13, 82, 79, 79, 83, 69, 8, 84, 69, 82, 13, 16, 80, 76, 85, 84, 79, 13, 80, 73, 71, 77, 69, 78, 84, 13, 71, 65, 82, 76, 73, 67, 13, 79, 78, 73, 79, 78, 13, 77, 85, 70, 70, 73, 78, 13, 79, 70, 70, 73, 67, 69, 13], "trial": 3, "time_elapsed": 691347, "type": "FREE_RECALL", "trial_index": 143}, "uniqueid": "MTK2169:3Q5C1WP23N83I0SV2N9GRVZ6SHS51O", "dateTime": 1516820046979}, {"current_trial": 144, "trialdata": {"rt": 27435, "trial_type": "text", "internal_node_id": "0.0-108.0", "time_elapsed": 720785, "key_press": 13, "type": "INSTRUCTIONS", "trial_index": 144}, "uniqueid": "MTK2169:3Q5C1WP23N83I0SV2N9GRVZ6SHS51O", "dateTime": 1516820076415}, {"current_trial": 145, "trialdata": {"rt": [3670, 5430, 8390, 11182, 13182, 15678, 18294, 23126], "trial_type": "math-distractor", "key_times": [3183, 3494, 3670, 4999, 5102, 5430, 7975, 8206, 8390, 10958, 11062, 11182, 12710, 13030, 13182, 14934, 15558, 15678, 18047, 18150, 18294, 22862, 22958, 23126], "responses": ["17", "13", "19", "21", "18", "16", "21", "23"], "num2": [2, 4, 5, 6, 8, 5, 5, 7, 9], "num3": [9, 6, 6, 7, 5, 7, 7, 8, 1], "conditions": [12, 1600, "a", 24000], "internal_node_id": "0.0-109.0", "key_presses": [49, 55, 13, 49, 51, 13, 49, 57, 13, 50, 49, 13, 49, 56, 13, 49, 54, 13, 50, 49, 13, 50, 51, 13], "trial": 4, "time_elapsed": 746788, "type": "DISTRACTOR", "trial_index": 145, "num1": [6, 3, 8, 8, 5, 4, 9, 8, 5]}, "uniqueid": "MTK2169:3Q5C1WP23N83I0SV2N9GRVZ6SHS51O", "dateTime": 1516820102418}, {"current_trial": 146, "trialdata": {"rt": -1, "trial_type": "single-stim", "stimulus": "<p id=\"stim\">10</p>", "internal_node_id": "0.0-110.0-0.0", "time_elapsed": 749789, "key_press": -1, "trial_index": 146}, "uniqueid": "MTK2169:3Q5C1WP23N83I0SV2N9GRVZ6SHS51O", "dateTime": 1516820105419}, {"current_trial": 147, "trialdata": {"rt": -1, "trial_type": "single-stim", "stimulus": "<p id=\"stim\">9</p>", "internal_node_id": "0.0-110.0-1.0", "time_elapsed": 750790, "key_press": -1, "trial_index": 147}, "uniqueid": "MTK2169:3Q5C1WP23N83I0SV2N9GRVZ6SHS51O", "dateTime": 1516820106420}, {"current_trial": 148, "trialdata": {"rt": -1, "trial_type": "single-stim", "stimulus": "<p id=\"stim\">8</p>", "internal_node_id": "0.0-110.0-2.0", "time_elapsed": 751792, "key_press": -1, "trial_index": 148}, "uniqueid": "MTK2169:3Q5C1WP23N83I0SV2N9GRVZ6SHS51O", "dateTime": 1516820107422}, {"current_trial": 149, "trialdata": {"rt": -1, "trial_type": "single-stim", "stimulus": "<p id=\"stim\">7</p>", "internal_node_id": "0.0-110.0-3.0", "time_elapsed": 752793, "key_press": -1, "trial_index": 149}, "uniqueid": "MTK2169:3Q5C1WP23N83I0SV2N9GRVZ6SHS51O", "dateTime": 1516820108423}, {"current_trial": 150, "trialdata": {"rt": -1, "trial_type": "single-stim", "stimulus": "<p id=\"stim\">6</p>", "internal_node_id": "0.0-110.0-4.0", "time_elapsed": 753793, "key_press": -1, "trial_index": 150}, "uniqueid": "MTK2169:3Q5C1WP23N83I0SV2N9GRVZ6SHS51O", "dateTime": 1516820109423}, {"current_trial": 151, "trialdata": {"rt": -1, "trial_type": "single-stim", "stimulus": "<p id=\"stim\">5</p>", "internal_node_id": "0.0-110.0-5.0", "time_elapsed": 754794, "key_press": -1, "trial_index": 151}, "uniqueid": "MTK2169:3Q5C1WP23N83I0SV2N9GRVZ6SHS51O", "dateTime": 1516820110424}, {"current_trial": 152, "trialdata": {"rt": -1, "trial_type": "single-stim", "stimulus": "<p id=\"stim\">4</p>", "internal_node_id": "0.0-110.0-6.0", "time_elapsed": 755795, "key_press": -1, "trial_index": 152}, "uniqueid": "MTK2169:3Q5C1WP23N83I0SV2N9GRVZ6SHS51O", "dateTime": 1516820111425}, {"current_trial": 153, "trialdata": {"rt": -1, "trial_type": "single-stim", "stimulus": "<p id=\"stim\">3</p>", "internal_node_id": "0.0-110.0-7.0", "time_elapsed": 756797, "key_press": -1, "trial_index": 153}, "uniqueid": "MTK2169:3Q5C1WP23N83I0SV2N9GRVZ6SHS51O", "dateTime": 1516820112427}, {"current_trial": 154, "trialdata": {"rt": -1, "trial_type": "single-stim", "stimulus": "<p id=\"stim\">2</p>", "internal_node_id": "0.0-110.0-8.0", "time_elapsed": 757798, "key_press": -1, "trial_index": 154}, "uniqueid": "MTK2169:3Q5C1WP23N83I0SV2N9GRVZ6SHS51O", "dateTime": 1516820113428}, {"current_trial": 155, "trialdata": {"rt": -1, "trial_type": "single-stim", "stimulus": "<p id=\"stim\">1</p>", "internal_node_id": "0.0-110.0-9.0", "time_elapsed": 758798, "key_press": -1, "trial_index": 155}, "uniqueid": "MTK2169:3Q5C1WP23N83I0SV2N9GRVZ6SHS51O", "dateTime": 1516820114429}, {"current_trial": 156, "trialdata": {"rt": -1, "trial_type": "single-stim", "stimulus": "<p id=\"stim\">+</p>", "internal_node_id": "0.0-111.0-0.0", "time_elapsed": 760300, "key_press": -1, "type": "FIXATION", "trial_index": 156}, "uniqueid": "MTK2169:3Q5C1WP23N83I0SV2N9GRVZ6SHS51O", "dateTime": 1516820115930}, {"current_trial": 157, "trialdata": {"rt": -1000, "trial_type": "single-audio", "word": "beef", "stimulus": "/static/audio/wordpool/BEEF.wav", "conditions": [12, 1600, "a", 24000], "internal_node_id": "0.0-112.0", "trial": 4, "time_elapsed": 762760, "serialpos": 0, "key_press": -1, "wordID": 112, "type": "PRES_AUD", "trial_index": 157}, "uniqueid": "MTK2169:3Q5C1WP23N83I0SV2N9GRVZ6SHS51O", "dateTime": 1516820118390}, {"current_trial": 158, "trialdata": {"rt": -1000, "trial_type": "single-audio", "word": "dolphin", "stimulus": "/static/audio/wordpool/DOLPHIN.wav", "conditions": [12, 1600, "a", 24000], "internal_node_id": "0.0-113.0", "trial": 4, "time_elapsed": 765316, "serialpos": 1, "key_press": -1, "wordID": 482, "type": "PRES_AUD", "trial_index": 158}, "uniqueid": "MTK2169:3Q5C1WP23N83I0SV2N9GRVZ6SHS51O", "dateTime": 1516820120946}, {"current_trial": 159, "trialdata": {"rt": -1000, "trial_type": "single-audio", "word": "shortcake", "stimulus": "/static/audio/wordpool/SHORTCAKE.wav", "conditions": [12, 1600, "a", 24000], "internal_node_id": "0.0-114.0", "trial": 4, "time_elapsed": 768040, "serialpos": 2, "key_press": -1, "wordID": 1291, "type": "PRES_AUD", "trial_index": 159}, "uniqueid": "MTK2169:3Q5C1WP23N83I0SV2N9GRVZ6SHS51O", "dateTime": 1516820123670}, {"current_trial": 160, "trialdata": {"rt": -1000, "trial_type": "single-audio", "word": "dentist", "stimulus": "/static/audio/wordpool/DENTIST.wav", "conditions": [12, 1600, "a", 24000], "internal_node_id": "0.0-115.0", "trial": 4, "time_elapsed": 770626, "serialpos": 3, "key_press": -1, "wordID": 446, "type": "PRES_AUD", "trial_index": 160}, "uniqueid": "MTK2169:3Q5C1WP23N83I0SV2N9GRVZ6SHS51O", "dateTime": 1516820126256}, {"current_trial": 161, "trialdata": {"rt": -1000, "trial_type": "single-audio", "word": "waitress", "stimulus": "/static/audio/wordpool/WAITRESS.wav", "conditions": [12, 1600, "a", 24000], "internal_node_id": "0.0-116.0", "trial": 4, "time_elapsed": 773349, "serialpos": 4, "key_press": -1, "wordID": 1580, "type": "PRES_AUD", "trial_index": 161}, "uniqueid": "MTK2169:3Q5C1WP23N83I0SV2N9GRVZ6SHS51O", "dateTime": 1516820128979}, {"current_trial": 162, "trialdata": {"rt": -1000, "trial_type": "single-audio", "word": "dragon", "stimulus": "/static/audio/wordpool/DRAGON.wav", "conditions": [12, 1600, "a", 24000], "internal_node_id": "0.0-117.0", "trial": 4, "time_elapsed": 775925, "serialpos": 5, "key_press": -1, "wordID": 491, "type": "PRES_AUD", "trial_index": 162}, "uniqueid": "MTK2169:3Q5C1WP23N83I0SV2N9GRVZ6SHS51O", "dateTime": 1516820131555}, {"current_trial": 163, "trialdata": {"rt": -1000, "trial_type": "single-audio", "word": "creature", "stimulus": "/static/audio/wordpool/CREATURE.wav", "conditions": [12, 1600, "a", 24000], "internal_node_id": "0.0-118.0", "trial": 4, "time_elapsed": 778491, "serialpos": 6, "key_press": -1, "wordID": 402, "type": "PRES_AUD", "trial_index": 163}, "uniqueid": "MTK2169:3Q5C1WP23N83I0SV2N9GRVZ6SHS51O", "dateTime": 1516820134121}, {"current_trial": 164, "trialdata": {"rt": -1000, "trial_type": "single-audio", "word": "pasta", "stimulus": "/static/audio/wordpool/PASTA.wav", "conditions": [12, 1600, "a", 24000], "internal_node_id": "0.0-119.0", "trial": 4, "time_elapsed": 781103, "serialpos": 7, "key_press": -1, "wordID": 1020, "type": "PRES_AUD", "trial_index": 164}, "uniqueid": "MTK2169:3Q5C1WP23N83I0SV2N9GRVZ6SHS51O", "dateTime": 1516820136733}, {"current_trial": 165, "trialdata": {"rt": -1000, "trial_type": "single-audio", "word": "radish", "stimulus": "/static/audio/wordpool/RADISH.wav", "conditions": [12, 1600, "a", 24000], "internal_node_id": "0.0-120.0", "trial": 4, "time_elapsed": 783618, "serialpos": 8, "key_press": -1, "wordID": 1157, "type": "PRES_AUD", "trial_index": 165}, "uniqueid": "MTK2169:3Q5C1WP23N83I0SV2N9GRVZ6SHS51O", "dateTime": 1516820139248}, {"current_trial": 166, "trialdata": {"rt": -1000, "trial_type": "single-audio", "word": "body", "stimulus": "/static/audio/wordpool/BODY.wav", "conditions": [12, 1600, "a", 24000], "internal_node_id": "0.0-121.0", "trial": 4, "time_elapsed": 786179, "serialpos": 9, "key_press": -1, "wordID": 144, "type": "PRES_AUD", "trial_index": 166}, "uniqueid": "MTK2169:3Q5C1WP23N83I0SV2N9GRVZ6SHS51O", "dateTime": 1516820141809}, {"current_trial": 167, "trialdata": {"rt": -1000, "trial_type": "single-audio", "word": "salmon", "stimulus": "/static/audio/wordpool/SALMON.wav", "conditions": [12, 1600, "a", 24000], "internal_node_id": "0.0-122.0", "trial": 4, "time_elapsed": 788816, "serialpos": 10, "key_press": -1, "wordID": 1226, "type": "PRES_AUD", "trial_index": 167}, "uniqueid": "MTK2169:3Q5C1WP23N83I0SV2N9GRVZ6SHS51O", "dateTime": 1516820144446}, {"current_trial": 168, "trialdata": {"rt": -1000, "trial_type": "single-audio", "word": "clothes", "stimulus": "/static/audio/wordpool/CLOTHES.wav", "conditions": [12, 1600, "a", 24000], "internal_node_id": "0.0-123.0", "trial": 4, "time_elapsed": 791459, "serialpos": 11, "key_press": -1, "wordID": 326, "type": "PRES_AUD", "trial_index": 168}, "uniqueid": "MTK2169:3Q5C1WP23N83I0SV2N9GRVZ6SHS51O", "dateTime": 1516820147089}, {"current_trial": 169, "trialdata": {"rt": -1, "trial_type": "single-stim", "stimulus": "", "internal_node_id": "0.0-124.0-0.0", "time_elapsed": 792724, "key_press": -1, "type": "PRE_RECALL_DELAY", "trial_index": 169}, "uniqueid": "MTK2169:3Q5C1WP23N83I0SV2N9GRVZ6SHS51O", "dateTime": 1516820148354}, {"current_trial": 170, "trialdata": {"rt": -1000, "trial_type": "single-audio", "stimulus": "/static/audio/400Hz.wav", "internal_node_id": "0.0-125.0", "time_elapsed": 793226, "key_press": -1, "type": "PRE_RECALL_ALERT", "trial_index": 170}, "uniqueid": "MTK2169:3Q5C1WP23N83I0SV2N9GRVZ6SHS51O", "dateTime": 1516820148856}, {"current_trial": 171, "trialdata": {"rt": [2469, 3733, 6645, 7901, 10949, 14901, 16381, 17493, 18637, 28405], "recwords": ["clothes", "salmon", "dolphin", "beef", "body", "shortcake", "dentist", "dragon", "creature", "radish"], "key_times": [1589, 1701, 1877, 1981, 2085, 2181, 2285, 2469, 2765, 2869, 2989, 3093, 3229, 3325, 3733, 4213, 4333, 4877, 5069, 5261, 5500, 5684, 5893, 6005, 6117, 6237, 6645, 6933, 7108, 7277, 7429, 7901, 10301, 10365, 10516, 10629, 10949, 13285, 13389, 13469, 13581, 13773, 14005, 14141, 14301, 14421, 14901, 15221, 15389, 15437, 15621, 15701, 15813, 15932, 16381, 16565, 16700, 16813, 16941, 17069, 17165, 17493, 17757, 17924, 17997, 18117, 18181, 18309, 18413, 18485, 18637, 27301, 27437, 27796, 27917, 28053, 28173, 28405], "trial_type": "free-recall", "conditions": [12, 1600, "a", 24000], "internal_node_id": "0.0-126.0-0.0", "key_presses": [67, 76, 79, 84, 72, 69, 83, 13, 83, 65, 76, 77, 79, 78, 13, 83, 72, 8, 8, 68, 79, 76, 80, 72, 73, 78, 13, 66, 69, 69, 70, 13, 66, 79, 68, 89, 13, 83, 72, 79, 82, 84, 67, 65, 75, 69, 13, 68, 69, 78, 84, 73, 83, 84, 13, 68, 82, 65, 71, 79, 78, 13, 67, 82, 69, 65, 84, 85, 82, 69, 13, 82, 65, 68, 73, 83, 72, 13], "trial": 4, "time_elapsed": 853227, "type": "FREE_RECALL", "trial_index": 171}, "uniqueid": "MTK2169:3Q5C1WP23N83I0SV2N9GRVZ6SHS51O", "dateTime": 1516820208859}, {"current_trial": 172, "trialdata": {"rt": 1377, "trial_type": "text", "internal_node_id": "0.0-127.0", "time_elapsed": 856607, "key_press": 13, "type": "INSTRUCTIONS", "trial_index": 172}, "uniqueid": "MTK2169:3Q5C1WP23N83I0SV2N9GRVZ6SHS51O", "dateTime": 1516820212237}, {"current_trial": 173, "trialdata": {"rt": [3022, 4791, 6375, 7671, 9502, 11551], "trial_type": "math-distractor", "key_times": [2599, 2871, 3022, 4270, 4631, 4791, 6055, 6183, 6375, 7367, 7527, 7671, 9015, 9383, 9502, 10639, 11126, 11551], "responses": ["14", "18", "10", "11", "16", "13"], "num2": [6, 8, 4, 4, 4, 9, 2], "num3": [1, 2, 2, 1, 8, 3, 7], "conditions": [24, 800, "a", 12000], "internal_node_id": "0.0-128.0", "key_presses": [49, 52, 13, 49, 56, 13, 49, 48, 13, 49, 49, 13, 49, 54, 13, 49, 51, 13], "trial": 5, "time_elapsed": 870609, "type": "DISTRACTOR", "trial_index": 173, "num1": [7, 8, 4, 6, 4, 1, 8]}, "uniqueid": "MTK2169:3Q5C1WP23N83I0SV2N9GRVZ6SHS51O", "dateTime": 1516820226240}, {"current_trial": 174, "trialdata": {"rt": -1, "trial_type": "single-stim", "stimulus": "<p id=\"stim\">10</p>", "internal_node_id": "0.0-129.0-0.0", "time_elapsed": 873612, "key_press": -1, "trial_index": 174}, "uniqueid": "MTK2169:3Q5C1WP23N83I0SV2N9GRVZ6SHS51O", "dateTime": 1516820229242}, {"current_trial": 175, "trialdata": {"rt": -1, "trial_type": "single-stim", "stimulus": "<p id=\"stim\">9</p>", "internal_node_id": "0.0-129.0-1.0", "time_elapsed": 874613, "key_press": -1, "trial_index": 175}, "uniqueid": "MTK2169:3Q5C1WP23N83I0SV2N9GRVZ6SHS51O", "dateTime": 1516820230243}, {"current_trial": 176, "trialdata": {"rt": -1, "trial_type": "single-stim", "stimulus": "<p id=\"stim\">8</p>", "internal_node_id": "0.0-129.0-2.0", "time_elapsed": 875615, "key_press": -1, "trial_index": 176}, "uniqueid": "MTK2169:3Q5C1WP23N83I0SV2N9GRVZ6SHS51O", "dateTime": 1516820231245}, {"current_trial": 177, "trialdata": {"rt": -1, "trial_type": "single-stim", "stimulus": "<p id=\"stim\">7</p>", "internal_node_id": "0.0-129.0-3.0", "time_elapsed": 876616, "key_press": -1, "trial_index": 177}, "uniqueid": "MTK2169:3Q5C1WP23N83I0SV2N9GRVZ6SHS51O", "dateTime": 1516820232246}, {"current_trial": 178, "trialdata": {"rt": -1, "trial_type": "single-stim", "stimulus": "<p id=\"stim\">6</p>", "internal_node_id": "0.0-129.0-4.0", "time_elapsed": 877617, "key_press": -1, "trial_index": 178}, "uniqueid": "MTK2169:3Q5C1WP23N83I0SV2N9GRVZ6SHS51O", "dateTime": 1516820233247}, {"current_trial": 179, "trialdata": {"rt": -1, "trial_type": "single-stim", "stimulus": "<p id=\"stim\">5</p>", "internal_node_id": "0.0-129.0-5.0", "time_elapsed": 878618, "key_press": -1, "trial_index": 179}, "uniqueid": "MTK2169:3Q5C1WP23N83I0SV2N9GRVZ6SHS51O", "dateTime": 1516820234248}, {"current_trial": 180, "trialdata": {"rt": -1, "trial_type": "single-stim", "stimulus": "<p id=\"stim\">4</p>", "internal_node_id": "0.0-129.0-6.0", "time_elapsed": 879619, "key_press": -1, "trial_index": 180}, "uniqueid": "MTK2169:3Q5C1WP23N83I0SV2N9GRVZ6SHS51O", "dateTime": 1516820235249}, {"current_trial": 181, "trialdata": {"rt": -1, "trial_type": "single-stim", "stimulus": "<p id=\"stim\">3</p>", "internal_node_id": "0.0-129.0-7.0", "time_elapsed": 880620, "key_press": -1, "trial_index": 181}, "uniqueid": "MTK2169:3Q5C1WP23N83I0SV2N9GRVZ6SHS51O", "dateTime": 1516820236250}, {"current_trial": 182, "trialdata": {"rt": -1, "trial_type": "single-stim", "stimulus": "<p id=\"stim\">2</p>", "internal_node_id": "0.0-129.0-8.0", "time_elapsed": 881620, "key_press": -1, "trial_index": 182}, "uniqueid": "MTK2169:3Q5C1WP23N83I0SV2N9GRVZ6SHS51O", "dateTime": 1516820237250}, {"current_trial": 183, "trialdata": {"rt": -1, "trial_type": "single-stim", "stimulus": "<p id=\"stim\">1</p>", "internal_node_id": "0.0-129.0-9.0", "time_elapsed": 882621, "key_press": -1, "trial_index": 183}, "uniqueid": "MTK2169:3Q5C1WP23N83I0SV2N9GRVZ6SHS51O", "dateTime": 1516820238251}, {"current_trial": 184, "trialdata": {"rt": -1, "trial_type": "single-stim", "stimulus": "<p id=\"stim\">+</p>", "internal_node_id": "0.0-130.0-0.0", "time_elapsed": 884122, "key_press": -1, "type": "FIXATION", "trial_index": 184}, "uniqueid": "MTK2169:3Q5C1WP23N83I0SV2N9GRVZ6SHS51O", "dateTime": 1516820239752}, {"current_trial": 185, "trialdata": {"rt": -1000, "trial_type": "single-audio", "word": "ankle", "stimulus": "/static/audio/wordpool/ANKLE.wav", "conditions": [24, 800, "a", 12000], "internal_node_id": "0.0-131.0", "trial": 5, "time_elapsed": 886089, "serialpos": 0, "key_press": -1, "wordID": 23, "type": "PRES_AUD", "trial_index": 185}, "uniqueid": "MTK2169:3Q5C1WP23N83I0SV2N9GRVZ6SHS51O", "dateTime": 1516820241719}, {"current_trial": 186, "trialdata": {"rt": -1000, "trial_type": "single-audio", "word": "daughter", "stimulus": "/static/audio/wordpool/DAUGHTER.wav", "conditions": [24, 800, "a", 12000], "internal_node_id": "0.0-132.0", "trial": 5, "time_elapsed": 887828, "serialpos": 1, "key_press": -1, "wordID": 441, "type": "PRES_AUD", "trial_index": 186}, "uniqueid": "MTK2169:3Q5C1WP23N83I0SV2N9GRVZ6SHS51O", "dateTime": 1516820243458}, {"current_trial": 187, "trialdata": {"rt": -1000, "trial_type": "single-audio", "word": "cousin", "stimulus": "/static/audio/wordpool/COUSIN.wav", "conditions": [24, 800, "a", 12000], "internal_node_id": "0.0-133.0", "trial": 5, "time_elapsed": 889504, "serialpos": 2, "key_press": -1, "wordID": 391, "type": "PRES_AUD", "trial_index": 187}, "uniqueid": "MTK2169:3Q5C1WP23N83I0SV2N9GRVZ6SHS51O", "dateTime": 1516820245135}, {"current_trial": 188, "trialdata": {"rt": -1000, "trial_type": "single-audio", "word": "silk", "stimulus": "/static/audio/wordpool/SILK.wav", "conditions": [24, 800, "a", 12000], "internal_node_id": "0.0-134.0", "trial": 5, "time_elapsed": 891201, "serialpos": 3, "key_press": -1, "wordID": 1306, "type": "PRES_AUD", "trial_index": 188}, "uniqueid": "MTK2169:3Q5C1WP23N83I0SV2N9GRVZ6SHS51O", "dateTime": 1516820246832}, {"current_trial": 189, "trialdata": {"rt": -1000, "trial_type": "single-audio", "word": "fragrance", "stimulus": "/static/audio/wordpool/FRAGRANCE.wav", "conditions": [24, 800, "a", 12000], "internal_node_id": "0.0-135.0", "trial": 5, "time_elapsed": 892922, "serialpos": 4, "key_press": -1, "wordID": 598, "type": "PRES_AUD", "trial_index": 189}, "uniqueid": "MTK2169:3Q5C1WP23N83I0SV2N9GRVZ6SHS51O", "dateTime": 1516820248552}, {"current_trial": 190, "trialdata": {"rt": -1000, "trial_type": "single-audio", "word": "shoulder", "stimulus": "/static/audio/wordpool/SHOULDER.wav", "conditions": [24, 800, "a", 12000], "internal_node_id": "0.0-136.0", "trial": 5, "time_elapsed": 894727, "serialpos": 5, "key_press": -1, "wordID": 1293, "type": "PRES_AUD", "trial_index": 190}, "uniqueid": "MTK2169:3Q5C1WP23N83I0SV2N9GRVZ6SHS51O", "dateTime": 1516820250357}, {"current_trial": 191, "trialdata": {"rt": -1000, "trial_type": "single-audio", "word": "lumber", "stimulus": "/static/audio/wordpool/LUMBER.wav", "conditions": [24, 800, "a", 12000], "internal_node_id": "0.0-137.0", "trial": 5, "time_elapsed": 896651, "serialpos": 6, "key_press": -1, "wordID": 847, "type": "PRES_AUD", "trial_index": 191}, "uniqueid": "MTK2169:3Q5C1WP23N83I0SV2N9GRVZ6SHS51O", "dateTime": 1516820252281}, {"current_trial": 192, "trialdata": {"rt": -1000, "trial_type": "single-audio", "word": "helmet", "stimulus": "/static/audio/wordpool/HELMET.wav", "conditions": [24, 800, "a", 12000], "internal_node_id": "0.0-138.0", "trial": 5, "time_elapsed": 898629, "serialpos": 7, "key_press": -1, "wordID": 701, "type": "PRES_AUD", "trial_index": 192}, "uniqueid": "MTK2169:3Q5C1WP23N83I0SV2N9GRVZ6SHS51O", "dateTime": 1516820254259}, {"current_trial": 193, "trialdata": {"rt": -1000, "trial_type": "single-audio", "word": "briefcase", "stimulus": "/static/audio/wordpool/BRIEFCASE.wav", "conditions": [24, 800, "a", 12000], "internal_node_id": "0.0-139.0", "trial": 5, "time_elapsed": 900502, "serialpos": 8, "key_press": -1, "wordID": 174, "type": "PRES_AUD", "trial_index": 193}, "uniqueid": "MTK2169:3Q5C1WP23N83I0SV2N9GRVZ6SHS51O", "dateTime": 1516820256132}, {"current_trial": 194, "trialdata": {"rt": -1000, "trial_type": "single-audio", "word": "flag", "stimulus": "/static/audio/wordpool/FLAG.wav", "conditions": [24, 800, "a", 12000], "internal_node_id": "0.0-140.0", "trial": 5, "time_elapsed": 902409, "serialpos": 9, "key_press": -1, "wordID": 572, "type": "PRES_AUD", "trial_index": 194}, "uniqueid": "MTK2169:3Q5C1WP23N83I0SV2N9GRVZ6SHS51O", "dateTime": 1516820258040}, {"current_trial": 195, "trialdata": {"rt": -1000, "trial_type": "single-audio", "word": "rug", "stimulus": "/static/audio/wordpool/RUG.wav", "conditions": [24, 800, "a", 12000], "internal_node_id": "0.0-141.0", "trial": 5, "time_elapsed": 904402, "serialpos": 10, "key_press": -1, "wordID": 1214, "type": "PRES_AUD", "trial_index": 195}, "uniqueid": "MTK2169:3Q5C1WP23N83I0SV2N9GRVZ6SHS51O", "dateTime": 1516820260033}, {"current_trial": 196, "trialdata": {"rt": -1000, "trial_type": "single-audio", "word": "novel", "stimulus": "/static/audio/wordpool/NOVEL.wav", "conditions": [24, 800, "a", 12000], "internal_node_id": "0.0-142.0", "trial": 5, "time_elapsed": 906312, "serialpos": 11, "key_press": -1, "wordID": 959, "type": "PRES_AUD", "trial_index": 196}, "uniqueid": "MTK2169:3Q5C1WP23N83I0SV2N9GRVZ6SHS51O", "dateTime": 1516820261942}, {"current_trial": 197, "trialdata": {"rt": -1000, "trial_type": "single-audio", "word": "robin", "stimulus": "/static/audio/wordpool/ROBIN.wav", "conditions": [24, 800, "a", 12000], "internal_node_id": "0.0-143.0", "trial": 5, "time_elapsed": 908061, "serialpos": 12, "key_press": -1, "wordID": 1198, "type": "PRES_AUD", "trial_index": 197}, "uniqueid": "MTK2169:3Q5C1WP23N83I0SV2N9GRVZ6SHS51O", "dateTime": 1516820263691}, {"current_trial": 198, "trialdata": {"rt": -1000, "trial_type": "single-audio", "word": "tunnel", "stimulus": "/static/audio/wordpool/TUNNEL.wav", "conditions": [24, 800, "a", 12000], "internal_node_id": "0.0-144.0", "trial": 5, "time_elapsed": 909826, "serialpos": 13, "key_press": -1, "wordID": 1518, "type": "PRES_AUD", "trial_index": 198}, "uniqueid": "MTK2169:3Q5C1WP23N83I0SV2N9GRVZ6SHS51O", "dateTime": 1516820265457}, {"current_trial": 199, "trialdata": {"rt": -1000, "trial_type": "single-audio", "word": "cod", "stimulus": "/static/audio/wordpool/COD.wav", "conditions": [24, 800, "a", 12000], "internal_node_id": "0.0-145.0", "trial": 5, "time_elapsed": 911726, "serialpos": 14, "key_press": -1, "wordID": 339, "type": "PRES_AUD", "trial_index": 199}, "uniqueid": "MTK2169:3Q5C1WP23N83I0SV2N9GRVZ6SHS51O", "dateTime": 1516820267356}, {"current_trial": 200, "trialdata": {"rt": -1000, "trial_type": "single-audio", "word": "crab", "stimulus": "/static/audio/wordpool/CRAB.wav", "conditions": [24, 800, "a", 12000], "internal_node_id": "0.0-146.0", "trial": 5, "time_elapsed": 913474, "serialpos": 15, "key_press": -1, "wordID": 396, "type": "PRES_AUD", "trial_index": 200}, "uniqueid": "MTK2169:3Q5C1WP23N83I0SV2N9GRVZ6SHS51O", "dateTime": 1516820269104}, {"current_trial": 201, "trialdata": {"rt": -1000, "trial_type": "single-audio", "word": "star", "stimulus": "/static/audio/wordpool/STAR.wav", "conditions": [24, 800, "a", 12000], "internal_node_id": "0.0-147.0", "trial": 5, "time_elapsed": 915280, "serialpos": 16, "key_press": -1, "wordID": 1372, "type": "PRES_AUD", "trial_index": 201}, "uniqueid": "MTK2169:3Q5C1WP23N83I0SV2N9GRVZ6SHS51O", "dateTime": 1516820270910}, {"current_trial": 202, "trialdata": {"rt": -1000, "trial_type": "single-audio", "word": "sponge", "stimulus": "/static/audio/wordpool/SPONGE.wav", "conditions": [24, 800, "a", 12000], "internal_node_id": "0.0-148.0", "trial": 5, "time_elapsed": 917230, "serialpos": 17, "key_press": -1, "wordID": 1354, "type": "PRES_AUD", "trial_index": 202}, "uniqueid": "MTK2169:3Q5C1WP23N83I0SV2N9GRVZ6SHS51O", "dateTime": 1516820272860}, {"current_trial": 203, "trialdata": {"rt": -1000, "trial_type": "single-audio", "word": "crib", "stimulus": "/static/audio/wordpool/CRIB.wav", "conditions": [24, 800, "a", 12000], "internal_node_id": "0.0-149.0", "trial": 5, "time_elapsed": 918865, "serialpos": 18, "key_press": -1, "wordID": 406, "type": "PRES_AUD", "trial_index": 203}, "uniqueid": "MTK2169:3Q5C1WP23N83I0SV2N9GRVZ6SHS51O", "dateTime": 1516820274495}, {"current_trial": 204, "trialdata": {"rt": -1000, "trial_type": "single-audio", "word": "binder", "stimulus": "/static/audio/wordpool/BINDER.wav", "conditions": [24, 800, "a", 12000], "internal_node_id": "0.0-150.0", "trial": 5, "time_elapsed": 920730, "serialpos": 19, "key_press": -1, "wordID": 126, "type": "PRES_AUD", "trial_index": 204}, "uniqueid": "MTK2169:3Q5C1WP23N83I0SV2N9GRVZ6SHS51O", "dateTime": 1516820276360}, {"current_trial": 205, "trialdata": {"rt": -1000, "trial_type": "single-audio", "word": "grill", "stimulus": "/static/audio/wordpool/GRILL.wav", "conditions": [24, 800, "a", 12000], "internal_node_id": "0.0-151.0", "trial": 5, "time_elapsed": 922398, "serialpos": 20, "key_press": -1, "wordID": 660, "type": "PRES_AUD", "trial_index": 205}, "uniqueid": "MTK2169:3Q5C1WP23N83I0SV2N9GRVZ6SHS51O", "dateTime": 1516820278028}, {"current_trial": 206, "trialdata": {"rt": -1000, "trial_type": "single-audio", "word": "canal", "stimulus": "/static/audio/wordpool/CANAL.wav", "conditions": [24, 800, "a", 12000], "internal_node_id": "0.0-152.0", "trial": 5, "time_elapsed": 924384, "serialpos": 21, "key_press": -1, "wordID": 225, "type": "PRES_AUD", "trial_index": 206}, "uniqueid": "MTK2169:3Q5C1WP23N83I0SV2N9GRVZ6SHS51O", "dateTime": 1516820280014}, {"current_trial": 207, "trialdata": {"rt": -1000, "trial_type": "single-audio", "word": "sparrow", "stimulus": "/static/audio/wordpool/SPARROW.wav", "conditions": [24, 800, "a", 12000], "internal_node_id": "0.0-153.0", "trial": 5, "time_elapsed": 926156, "serialpos": 22, "key_press": -1, "wordID": 1346, "type": "PRES_AUD", "trial_index": 207}, "uniqueid": "MTK2169:3Q5C1WP23N83I0SV2N9GRVZ6SHS51O", "dateTime": 1516820281786}, {"current_trial": 208, "trialdata": {"rt": -1000, "trial_type": "single-audio", "word": "slug", "stimulus": "/static/audio/wordpool/SLUG.wav", "conditions": [24, 800, "a", 12000], "internal_node_id": "0.0-154.0", "trial": 5, "time_elapsed": 928013, "serialpos": 23, "key_press": -1, "wordID": 1328, "type": "PRES_AUD", "trial_index": 208}, "uniqueid": "MTK2169:3Q5C1WP23N83I0SV2N9GRVZ6SHS51O", "dateTime": 1516820283644}, {"current_trial": 209, "trialdata": {"rt": -1, "trial_type": "single-stim", "stimulus": "", "internal_node_id": "0.0-155.0-0.0", "time_elapsed": 929260, "key_press": -1, "type": "PRE_RECALL_DELAY", "trial_index": 209}, "uniqueid": "MTK2169:3Q5C1WP23N83I0SV2N9GRVZ6SHS51O", "dateTime": 1516820284890}, {"current_trial": 210, "trialdata": {"rt": -1000, "trial_type": "single-audio", "stimulus": "/static/audio/400Hz.wav", "internal_node_id": "0.0-156.0", "time_elapsed": 929761, "key_press": -1, "type": "PRE_RECALL_ALERT", "trial_index": 210}, "uniqueid": "MTK2169:3Q5C1WP23N83I0SV2N9GRVZ6SHS51O", "dateTime": 1516820285391}, {"current_trial": 211, "trialdata": {"rt": [2972, 3740, 4836, 6372, 9412, 11476, 15164, 16396, 18540, 19980, 21700, 24308, 25372, 36756, 40012], "recwords": ["sparrow", "slug", "robin", "ankle", "shoulder", "daughter", "lumber", "helmet", "briefcase", "tunnel", "star", "sponge", "crib", "cod", "crab"], "key_times": [1244, 1388, 1524, 1764, 2228, 2380, 2460, 2972, 3293, 3356, 3500, 3604, 3740, 4060, 4180, 4284, 4380, 4452, 4836, 5685, 5780, 5876, 5996, 6172, 6372, 6644, 6756, 6836, 6932, 7068, 7292, 7372, 8156, 8316, 8388, 8564, 8653, 9412, 9740, 9820, 9948, 10100, 10292, 10484, 10732, 10796, 11476, 13764, 13908, 14100, 14203, 14372, 14460, 15164, 15604, 15692, 15772, 15900, 16092, 16212, 16396, 16988, 17164, 17260, 17380, 17500, 17780, 17884, 18060, 18140, 18540, 19092, 19244, 19444, 19588, 19708, 19804, 19980, 21084, 21300, 21428, 21532, 21700, 21988, 22556, 22852, 22964, 23116, 23252, 24308, 24788, 24988, 25124, 25228, 25372, 35068, 35780, 35908, 36756, 39308, 39508, 39588, 39796, 40012], "trial_type": "free-recall", "conditions": [24, 800, "a", 12000], "internal_node_id": "0.0-157.0-0.0", "key_presses": [83, 80, 65, 82, 82, 79, 87, 13, 83, 76, 85, 71, 13, 82, 79, 66, 73, 78, 13, 65, 78, 75, 76, 69, 13, 83, 72, 79, 85, 76, 69, 82, 8, 8, 68, 69, 82, 13, 68, 65, 85, 71, 72, 84, 69, 82, 13, 76, 85, 77, 66, 69, 82, 13, 72, 69, 76, 77, 69, 84, 13, 66, 82, 73, 69, 70, 67, 65, 83, 69, 13, 84, 85, 78, 78, 69, 76, 13, 83, 84, 65, 82, 13, 83, 80, 79, 78, 71, 69, 13, 67, 82, 73, 66, 13, 67, 79, 68, 13, 67, 82, 65, 66, 13], "trial": 5, "time_elapsed": 989763, "type": "FREE_RECALL", "trial_index": 211}, "uniqueid": "MTK2169:3Q5C1WP23N83I0SV2N9GRVZ6SHS51O", "dateTime": 1516820345396}, {"current_trial": 212, "trialdata": {"rt": 1070, "trial_type": "text", "internal_node_id": "0.0-158.0", "time_elapsed": 992838, "key_press": 13, "type": "INSTRUCTIONS", "trial_index": 212}, "uniqueid": "MTK2169:3Q5C1WP23N83I0SV2N9GRVZ6SHS51O", "dateTime": 1516820348468}, {"current_trial": 213, "trialdata": {"rt": [2494, 7230, 9590, 11470, 14670, 17734, 19974, 23542], "trial_type": "math-distractor", "key_times": [1743, 2039, 2494, 6990, 7134, 7230, 9167, 9390, 9590, 11150, 11310, 11470, 14422, 14574, 14670, 16958, 17566, 17734, 19686, 19806, 19974, 23142, 23390, 23542], "responses": ["10", "22", "18", "13", "22", "20", "10", "16"], "num2": [3, 6, 8, 1, 7, 7, 4, 2, 9], "num3": [1, 8, 9, 4, 7, 9, 3, 5, 5], "conditions": [24, 800, "a", 24000], "internal_node_id": "0.0-159.0", "key_presses": [49, 48, 13, 50, 50, 13, 49, 56, 13, 49, 51, 13, 50, 50, 13, 50, 48, 13, 49, 48, 13, 49, 54, 13], "trial": 6, "time_elapsed": 1018839, "type": "DISTRACTOR", "trial_index": 213, "num1": [6, 8, 1, 8, 8, 4, 3, 9, 9]}, "uniqueid": "MTK2169:3Q5C1WP23N83I0SV2N9GRVZ6SHS51O", "dateTime": 1516820374469}, {"current_trial": 214, "trialdata": {"rt": -1, "trial_type": "single-stim", "stimulus": "<p id=\"stim\">10</p>", "internal_node_id": "0.0-160.0-0.0", "time_elapsed": 1021841, "key_press": -1, "trial_index": 214}, "uniqueid": "MTK2169:3Q5C1WP23N83I0SV2N9GRVZ6SHS51O", "dateTime": 1516820377471}, {"current_trial": 215, "trialdata": {"rt": -1, "trial_type": "single-stim", "stimulus": "<p id=\"stim\">9</p>", "internal_node_id": "0.0-160.0-1.0", "time_elapsed": 1022842, "key_press": -1, "trial_index": 215}, "uniqueid": "MTK2169:3Q5C1WP23N83I0SV2N9GRVZ6SHS51O", "dateTime": 1516820378473}, {"current_trial": 216, "trialdata": {"rt": -1, "trial_type": "single-stim", "stimulus": "<p id=\"stim\">8</p>", "internal_node_id": "0.0-160.0-2.0", "time_elapsed": 1023843, "key_press": -1, "trial_index": 216}, "uniqueid": "MTK2169:3Q5C1WP23N83I0SV2N9GRVZ6SHS51O", "dateTime": 1516820379474}, {"current_trial": 217, "trialdata": {"rt": -1, "trial_type": "single-stim", "stimulus": "<p id=\"stim\">7</p>", "internal_node_id": "0.0-160.0-3.0", "time_elapsed": 1024844, "key_press": -1, "trial_index": 217}, "uniqueid": "MTK2169:3Q5C1WP23N83I0SV2N9GRVZ6SHS51O", "dateTime": 1516820380474}, {"current_trial": 218, "trialdata": {"rt": -1, "trial_type": "single-stim", "stimulus": "<p id=\"stim\">6</p>", "internal_node_id": "0.0-160.0-4.0", "time_elapsed": 1025845, "key_press": -1, "trial_index": 218}, "uniqueid": "MTK2169:3Q5C1WP23N83I0SV2N9GRVZ6SHS51O", "dateTime": 1516820381475}, {"current_trial": 219, "trialdata": {"rt": -1, "trial_type": "single-stim", "stimulus": "<p id=\"stim\">5</p>", "internal_node_id": "0.0-160.0-5.0", "time_elapsed": 1026847, "key_press": -1, "trial_index": 219}, "uniqueid": "MTK2169:3Q5C1WP23N83I0SV2N9GRVZ6SHS51O", "dateTime": 1516820382477}, {"current_trial": 220, "trialdata": {"rt": -1, "trial_type": "single-stim", "stimulus": "<p id=\"stim\">4</p>", "internal_node_id": "0.0-160.0-6.0", "time_elapsed": 1027848, "key_press": -1, "trial_index": 220}, "uniqueid": "MTK2169:3Q5C1WP23N83I0SV2N9GRVZ6SHS51O", "dateTime": 1516820383478}, {"current_trial": 221, "trialdata": {"rt": -1, "trial_type": "single-stim", "stimulus": "<p id=\"stim\">3</p>", "internal_node_id": "0.0-160.0-7.0", "time_elapsed": 1028849, "key_press": -1, "trial_index": 221}, "uniqueid": "MTK2169:3Q5C1WP23N83I0SV2N9GRVZ6SHS51O", "dateTime": 1516820384479}, {"current_trial": 222, "trialdata": {"rt": -1, "trial_type": "single-stim", "stimulus": "<p id=\"stim\">2</p>", "internal_node_id": "0.0-160.0-8.0", "time_elapsed": 1029850, "key_press": -1, "trial_index": 222}, "uniqueid": "MTK2169:3Q5C1WP23N83I0SV2N9GRVZ6SHS51O", "dateTime": 1516820385480}, {"current_trial": 223, "trialdata": {"rt": -1, "trial_type": "single-stim", "stimulus": "<p id=\"stim\">1</p>", "internal_node_id": "0.0-160.0-9.0", "time_elapsed": 1030851, "key_press": -1, "trial_index": 223}, "uniqueid": "MTK2169:3Q5C1WP23N83I0SV2N9GRVZ6SHS51O", "dateTime": 1516820386481}, {"current_trial": 224, "trialdata": {"rt": -1, "trial_type": "single-stim", "stimulus": "<p id=\"stim\">+</p>", "internal_node_id": "0.0-161.0-0.0", "time_elapsed": 1032352, "key_press": -1, "type": "FIXATION", "trial_index": 224}, "uniqueid": "MTK2169:3Q5C1WP23N83I0SV2N9GRVZ6SHS51O", "dateTime": 1516820387982}, {"current_trial": 225, "trialdata": {"rt": -1000, "trial_type": "single-audio", "word": "actor", "stimulus": "/static/audio/wordpool/ACTOR.wav", "conditions": [24, 800, "a", 24000], "internal_node_id": "0.0-162.0", "trial": 6, "time_elapsed": 1034161, "serialpos": 0, "key_press": -1, "wordID": 4, "type": "PRES_AUD", "trial_index": 225}, "uniqueid": "MTK2169:3Q5C1WP23N83I0SV2N9GRVZ6SHS51O", "dateTime": 1516820389791}, {"current_trial": 226, "trialdata": {"rt": -1000, "trial_type": "single-audio", "word": "icing", "stimulus": "/static/audio/wordpool/ICING.wav", "conditions": [24, 800, "a", 24000], "internal_node_id": "0.0-163.0", "trial": 6, "time_elapsed": 1036108, "serialpos": 1, "key_press": -1, "wordID": 731, "type": "PRES_AUD", "trial_index": 226}, "uniqueid": "MTK2169:3Q5C1WP23N83I0SV2N9GRVZ6SHS51O", "dateTime": 1516820391738}, {"current_trial": 227, "trialdata": {"rt": -1000, "trial_type": "single-audio", "word": "proton", "stimulus": "/static/audio/wordpool/PROTON.wav", "conditions": [24, 800, "a", 24000], "internal_node_id": "0.0-164.0", "trial": 6, "time_elapsed": 1037834, "serialpos": 2, "key_press": -1, "wordID": 1131, "type": "PRES_AUD", "trial_index": 227}, "uniqueid": "MTK2169:3Q5C1WP23N83I0SV2N9GRVZ6SHS51O", "dateTime": 1516820393464}, {"current_trial": 228, "trialdata": {"rt": -1000, "trial_type": "single-audio", "word": "jury", "stimulus": "/static/audio/wordpool/JURY.wav", "conditions": [24, 800, "a", 24000], "internal_node_id": "0.0-165.0", "trial": 6, "time_elapsed": 1039717, "serialpos": 3, "key_press": -1, "wordID": 765, "type": "PRES_AUD", "trial_index": 228}, "uniqueid": "MTK2169:3Q5C1WP23N83I0SV2N9GRVZ6SHS51O", "dateTime": 1516820395347}, {"current_trial": 229, "trialdata": {"rt": -1000, "trial_type": "single-audio", "word": "concert", "stimulus": "/static/audio/wordpool/CONCERT.wav", "conditions": [24, 800, "a", 24000], "internal_node_id": "0.0-166.0", "trial": 6, "time_elapsed": 1041347, "serialpos": 4, "key_press": -1, "wordID": 359, "type": "PRES_AUD", "trial_index": 229}, "uniqueid": "MTK2169:3Q5C1WP23N83I0SV2N9GRVZ6SHS51O", "dateTime": 1516820396977}, {"current_trial": 230, "trialdata": {"rt": -1000, "trial_type": "single-audio", "word": "sausage", "stimulus": "/static/audio/wordpool/SAUSAGE.wav", "conditions": [24, 800, "a", 24000], "internal_node_id": "0.0-167.0", "trial": 6, "time_elapsed": 1043046, "serialpos": 5, "key_press": -1, "wordID": 1237, "type": "PRES_AUD", "trial_index": 230}, "uniqueid": "MTK2169:3Q5C1WP23N83I0SV2N9GRVZ6SHS51O", "dateTime": 1516820398676}, {"current_trial": 231, "trialdata": {"rt": -1000, "trial_type": "single-audio", "word": "pork", "stimulus": "/static/audio/wordpool/PORK.wav", "conditions": [24, 800, "a", 24000], "internal_node_id": "0.0-168.0", "trial": 6, "time_elapsed": 1044739, "serialpos": 6, "key_press": -1, "wordID": 1107, "type": "PRES_AUD", "trial_index": 231}, "uniqueid": "MTK2169:3Q5C1WP23N83I0SV2N9GRVZ6SHS51O", "dateTime": 1516820400369}, {"current_trial": 232, "trialdata": {"rt": -1000, "trial_type": "single-audio", "word": "banquet", "stimulus": "/static/audio/wordpool/BANQUET.wav", "conditions": [24, 800, "a", 24000], "internal_node_id": "0.0-169.0", "trial": 6, "time_elapsed": 1046359, "serialpos": 7, "key_press": -1, "wordID": 85, "type": "PRES_AUD", "trial_index": 232}, "uniqueid": "MTK2169:3Q5C1WP23N83I0SV2N9GRVZ6SHS51O", "dateTime": 1516820401989}, {"current_trial": 233, "trialdata": {"rt": -1000, "trial_type": "single-audio", "word": "message", "stimulus": "/static/audio/wordpool/MESSAGE.wav", "conditions": [24, 800, "a", 24000], "internal_node_id": "0.0-170.0", "trial": 6, "time_elapsed": 1047994, "serialpos": 8, "key_press": -1, "wordID": 887, "type": "PRES_AUD", "trial_index": 233}, "uniqueid": "MTK2169:3Q5C1WP23N83I0SV2N9GRVZ6SHS51O", "dateTime": 1516820403624}, {"current_trial": 234, "trialdata": {"rt": -1000, "trial_type": "single-audio", "word": "zebra", "stimulus": "/static/audio/wordpool/ZEBRA.wav", "conditions": [24, 800, "a", 24000], "internal_node_id": "0.0-171.0", "trial": 6, "time_elapsed": 1049756, "serialpos": 9, "key_press": -1, "wordID": 1634, "type": "PRES_AUD", "trial_index": 234}, "uniqueid": "MTK2169:3Q5C1WP23N83I0SV2N9GRVZ6SHS51O", "dateTime": 1516820405386}, {"current_trial": 235, "trialdata": {"rt": -1000, "trial_type": "single-audio", "word": "honey", "stimulus": "/static/audio/wordpool/HONEY.wav", "conditions": [24, 800, "a", 24000], "internal_node_id": "0.0-172.0", "trial": 6, "time_elapsed": 1051741, "serialpos": 10, "key_press": -1, "wordID": 712, "type": "PRES_AUD", "trial_index": 235}, "uniqueid": "MTK2169:3Q5C1WP23N83I0SV2N9GRVZ6SHS51O", "dateTime": 1516820407371}, {"curre