{"assignmentId": "339ANSOTR69H0P9WHHYSLJZA9NSKI5", "workerId": "MTK2989", "questiondata": {"origin": "United States", "strat-rehearsal": "26", "marital": "Single", "education": "High school diploma", "ethnicity": "Not Hispanic", "color_depth": 24, "distracted": "No", "wrote-notes": "No", "strat-other": "Repeating each word out loud", "screen_width": 1920, "avail_screen_width": 1920, "avail_screen_height": 1040, "strat-image": "0", "language": "English", "gender": "Male", "age": "24", "gender_other": "", "race": ["White"], "strat-categorize": "63", "pixel_depth": 24, "strat-spatial": "0", "strat-story": "0", "race_other": "", "screen_height": 1080}, "bonus": 0, "hitId": "3J06WJ78HNRYFMPEPQ6GDX41CB7VVR", "counterbalance": 2914, "useragent": "Mozilla/5.0 (Windows NT 10.0; Win64; x64) AppleWebKit/537.36 (KHTML, like Gecko) Chrome/64.0.3282.186 Safari/537.36", "eventdata": [{"eventtype": "initialized", "interval": 0, "value": null, "timestamp": 1519663357116}, {"eventtype": "window_resize", "interval": 0, "value": [1920, 1033], "timestamp": 1519663357116}, {"eventtype": "window_resize", "interval": 424, "value": [1920, 989], "timestamp": 1519663357540}, {"eventtype": "focus", "interval": 5500, "value": "off", "timestamp": 1519663363040}, {"eventtype": "focus", "interval": 3076, "value": "on", "timestamp": 1519663366116}, {"eventtype": "focus", "interval": 35131, "value": "off", "timestamp": 1519663401247}, {"eventtype": "focus", "interval": 1, "value": "on", "timestamp": 1519663401248}, {"eventtype": "focus", "interval": 4062, "value": "off", "timestamp": 1519663405310}, {"eventtype": "focus", "interval": 2962, "value": "on", "timestamp": 1519663408272}, {"eventtype": "window_resize", "interval": 380, "value": [1920, 940], "timestamp": 1519663408652}, {"eventtype": "focus", "interval": 1785, "value": "off", "timestamp": 1519663410437}, {"eventtype": "focus", "interval": 3351, "value": "on", "timestamp": 1519663413788}, {"eventtype": "focus", "interval": 356, "value": "off", "timestamp": 1519663414144}, {"eventtype": "window_resize", "interval": 1076, "value": [1920, 989], "timestamp": 1519663415220}, {"eventtype": "focus", "interval": 1064, "value": "on", "timestamp": 1519663416284}, {"eventtype": "focus", "interval": 6972, "value": "off", "timestamp": 1519663423256}, {"eventtype": "focus", "interval": 4365, "value": "on", "timestamp": 1519663427621}, {"eventtype": "focus", "interval": 1034637, "value": "off", "timestamp": 1519664462258}, {"eventtype": "focus", "interval": 2314, "value": "on", "timestamp": 1519664464572}, {"eventtype": "window_resize", "interval": 130117, "value": [1920, 1033], "timestamp": 1519664594689}, {"eventtype": "window_resize", "interval": 3470, "value": [1920, 989], "timestamp": 1519664598159}, {"eventtype": "window_resize", "interval": 452333, "value": [1920, 1033], "timestamp": 1519665050492}, {"eventtype": "window_resize", "interval": 1752, "value": [1920, 989], "timestamp": 1519665052244}, {"eventtype": "window_resize", "interval": 397145, "value": [1920, 1033], "timestamp": 1519665449389}, {"eventtype": "window_resize", "interval": 4771, "value": [1920, 989], "timestamp": 1519665454160}, {"eventtype": "window_resize", "interval": 151622, "value": [1920, 1033], "timestamp": 1519665605782}, {"eventtype": "window_resize", "interval": 3953, "value": [1920, 989], "timestamp": 1519665609735}, {"eventtype": "focus", "interval": 122897, "value": "off", "timestamp": 1519665732632}, {"eventtype": "focus", "interval": 44420, "value": "on", "timestamp": 1519665777052}, {"eventtype": "focus", "interval": 117913, "value": "off", "timestamp": 1519665894965}, {"eventtype": "focus", "interval": 40774, "value": "on", "timestamp": 1519665935739}], "data": [{"current_trial": 0, "trialdata": {"rt": 2571, "trial_type": "text", "internal_node_id": "0.0-0.0", "time_elapsed": 2572, "key_press": 101, "type": "INSTRUCTIONS", "trial_index": 0}, "uniqueid": "MTK2989:339ANSOTR69H0P9WHHYSLJZA9NSKI5", "dateTime": 1519663371722}, {"current_trial": 1, "trialdata": {"rt": 13452, "trial_type": "text", "internal_node_id": "0.0-1.0", "time_elapsed": 16026, "key_press": 98, "type": "INSTRUCTIONS", "trial_index": 1}, "uniqueid": "MTK2989:339ANSOTR69H0P9WHHYSLJZA9NSKI5", "dateTime": 1519663385176}, {"current_trial": 2, "trialdata": {"rt": [13673, 34826], "trial_type": "audio-test", "responses": ["", "ocean"], "internal_node_id": "0.0-2.0", "time_elapsed": 50859, "type": "AUDIO_TEST", "trial_index": 2}, "uniqueid": "MTK2989:339ANSOTR69H0P9WHHYSLJZA9NSKI5", "dateTime": 1519663420009}, {"current_trial": 3, "trialdata": {"rt": [12477], "trial_type": "audio-test", "responses": ["crystal"], "internal_node_id": "0.0-3.0", "time_elapsed": 63338, "type": "AUDIO_TEST", "trial_index": 3}, "uniqueid": "MTK2989:339ANSOTR69H0P9WHHYSLJZA9NSKI5", "dateTime": 1519663432488}, {"current_trial": 4, "trialdata": {"rt": [4940], "trial_type": "audio-test", "responses": ["spice"], "internal_node_id": "0.0-4.0", "time_elapsed": 68280, "type": "AUDIO_TEST", "trial_index": 4}, "uniqueid": "MTK2989:339ANSOTR69H0P9WHHYSLJZA9NSKI5", "dateTime": 1519663437430}, {"current_trial": 5, "trialdata": {"rt": 29923, "trial_type": "survey-text", "responses": "{\"Q0\":\"2PM\",\"Q1\":\"10PM\",\"Q2\":\"4\"}", "internal_node_id": "0.0-5.0", "time_elapsed": 98956, "type": "SLEEP_SURVEY", "trial_index": 5}, "uniqueid": "MTK2989:339ANSOTR69H0P9WHHYSLJZA9NSKI5", "dateTime": 1519663468106}, {"current_trial": 6, "trialdata": {"rt": 36891, "trial_type": "text", "internal_node_id": "0.0-6.0", "time_elapsed": 136849, "key_press": 37, "type": "INSTRUCTIONS", "trial_index": 6}, "uniqueid": "MTK2989:339ANSOTR69H0P9WHHYSLJZA9NSKI5", "dateTime": 1519663505999}, {"current_trial": 7, "trialdata": {"rt": 26666, "trial_type": "text", "internal_node_id": "0.0-7.0", "time_elapsed": 164018, "key_press": 39, "type": "INSTRUCTIONS", "trial_index": 7}, "uniqueid": "MTK2989:339ANSOTR69H0P9WHHYSLJZA9NSKI5", "dateTime": 1519663533168}, {"current_trial": 8, "trialdata": {"rt": 9981, "trial_type": "text", "internal_node_id": "0.0-8.0", "time_elapsed": 174500, "key_press": 39, "type": "INSTRUCTIONS", "trial_index": 8}, "uniqueid": "MTK2989:339ANSOTR69H0P9WHHYSLJZA9NSKI5", "dateTime": 1519663543650}, {"current_trial": 9, "trialdata": {"rt": [3744, 6550, 9233, 12105, 13766, 16340], "trial_type": "math-distractor", "key_times": [3438, 3581, 3744, 5969, 6250, 6550, 8676, 8884, 9233, 11590, 11883, 12105, 13554, 13766, 16140, 16340], "responses": ["11", "19", "16", "17", "9", "7"], "num2": [3, 7, 8, 7, 1, 4, 5], "num3": [6, 7, 3, 2, 7, 2, 2], "conditions": [18, 1200, "a", 18000], "internal_node_id": "0.0-9.0", "key_presses": [97, 97, 13, 97, 105, 13, 97, 102, 13, 97, 103, 13, 105, 13, 103, 13], "trial": 0, "time_elapsed": 193503, "type": "DISTRACTOR", "trial_index": 9, "num1": [2, 5, 5, 8, 1, 1, 2]}, "uniqueid": "MTK2989:339ANSOTR69H0P9WHHYSLJZA9NSKI5", "dateTime": 1519663562653}, {"current_trial": 10, "trialdata": {"rt": -1, "trial_type": "single-stim", "stimulus": "<p id=\"stim\">10</p>", "internal_node_id": "0.0-10.0-0.0", "time_elapsed": 196503, "key_press": -1, "trial_index": 10}, "uniqueid": "MTK2989:339ANSOTR69H0P9WHHYSLJZA9NSKI5", "dateTime": 1519663565653}, {"current_trial": 11, "trialdata": {"rt": -1, "trial_type": "single-stim", "stimulus": "<p id=\"stim\">9</p>", "internal_node_id": "0.0-10.0-1.0", "time_elapsed": 197503, "key_press": -1, "trial_index": 11}, "uniqueid": "MTK2989:339ANSOTR69H0P9WHHYSLJZA9NSKI5", "dateTime": 1519663566653}, {"current_trial": 12, "trialdata": {"rt": -1, "trial_type": "single-stim", "stimulus": "<p id=\"stim\">8</p>", "internal_node_id": "0.0-10.0-2.0", "time_elapsed": 198503, "key_press": -1, "trial_index": 12}, "uniqueid": "MTK2989:339ANSOTR69H0P9WHHYSLJZA9NSKI5", "dateTime": 1519663567653}, {"current_trial": 13, "trialdata": {"rt": -1, "trial_type": "single-stim", "stimulus": "<p id=\"stim\">7</p>", "internal_node_id": "0.0-10.0-3.0", "time_elapsed": 199503, "key_press": -1, "trial_index": 13}, "uniqueid": "MTK2989:339ANSOTR69H0P9WHHYSLJZA9NSKI5", "dateTime": 1519663568653}, {"current_trial": 14, "trialdata": {"rt": -1, "trial_type": "single-stim", "stimulus": "<p id=\"stim\">6</p>", "internal_node_id": "0.0-10.0-4.0", "time_elapsed": 200504, "key_press": -1, "trial_index": 14}, "uniqueid": "MTK2989:339ANSOTR69H0P9WHHYSLJZA9NSKI5", "dateTime": 1519663569654}, {"current_trial": 15, "trialdata": {"rt": -1, "trial_type": "single-stim", "stimulus": "<p id=\"stim\">5</p>", "internal_node_id": "0.0-10.0-5.0", "time_elapsed": 201504, "key_press": -1, "trial_index": 15}, "uniqueid": "MTK2989:339ANSOTR69H0P9WHHYSLJZA9NSKI5", "dateTime": 1519663570654}, {"current_trial": 16, "trialdata": {"rt": -1, "trial_type": "single-stim", "stimulus": "<p id=\"stim\">4</p>", "internal_node_id": "0.0-10.0-6.0", "time_elapsed": 202505, "key_press": -1, "trial_index": 16}, "uniqueid": "MTK2989:339ANSOTR69H0P9WHHYSLJZA9NSKI5", "dateTime": 1519663571655}, {"current_trial": 17, "trialdata": {"rt": -1, "trial_type": "single-stim", "stimulus": "<p id=\"stim\">3</p>", "internal_node_id": "0.0-10.0-7.0", "time_elapsed": 203506, "key_press": -1, "trial_index": 17}, "uniqueid": "MTK2989:339ANSOTR69H0P9WHHYSLJZA9NSKI5", "dateTime": 1519663572656}, {"current_trial": 18, "trialdata": {"rt": -1, "trial_type": "single-stim", "stimulus": "<p id=\"stim\">2</p>", "internal_node_id": "0.0-10.0-8.0", "time_elapsed": 204506, "key_press": -1, "trial_index": 18}, "uniqueid": "MTK2989:339ANSOTR69H0P9WHHYSLJZA9NSKI5", "dateTime": 1519663573656}, {"current_trial": 19, "trialdata": {"rt": -1, "trial_type": "single-stim", "stimulus": "<p id=\"stim\">1</p>", "internal_node_id": "0.0-10.0-9.0", "time_elapsed": 205507, "key_press": -1, "trial_index": 19}, "uniqueid": "MTK2989:339ANSOTR69H0P9WHHYSLJZA9NSKI5", "dateTime": 1519663574657}, {"current_trial": 20, "trialdata": {"rt": -1, "trial_type": "single-stim", "stimulus": "<p id=\"stim\">+</p>", "internal_node_id": "0.0-11.0-0.0", "time_elapsed": 207008, "key_press": -1, "type": "FIXATION", "trial_index": 20}, "uniqueid": "MTK2989:339ANSOTR69H0P9WHHYSLJZA9NSKI5", "dateTime": 1519663576158}, {"current_trial": 21, "trialdata": {"rt": -1000, "trial_type": "single-audio", "word": "coin", "stimulus": "/static/audio/wordpool/COIN.wav", "conditions": [18, 1200, "a", 18000], "internal_node_id": "0.0-12.0", "trial": 0, "time_elapsed": 209161, "serialpos": 0, "key_press": -1, "wordID": 342, "type": "PRES_AUD", "trial_index": 21}, "uniqueid": "MTK2989:339ANSOTR69H0P9WHHYSLJZA9NSKI5", "dateTime": 1519663578311}, {"current_trial": 22, "trialdata": {"rt": -1000, "trial_type": "single-audio", "word": "neutron", "stimulus": "/static/audio/wordpool/NEUTRON.wav", "conditions": [18, 1200, "a", 18000], "internal_node_id": "0.0-13.0", "trial": 0, "time_elapsed": 211522, "serialpos": 1, "key_press": -1, "wordID": 946, "type": "PRES_AUD", "trial_index": 22}, "uniqueid": "MTK2989:339ANSOTR69H0P9WHHYSLJZA9NSKI5", "dateTime": 1519663580672}, {"current_trial": 23, "trialdata": {"rt": -1000, "trial_type": "single-audio", "word": "viking", "stimulus": "/static/audio/wordpool/VIKING.wav", "conditions": [18, 1200, "a", 18000], "internal_node_id": "0.0-14.0", "trial": 0, "time_elapsed": 213588, "serialpos": 2, "key_press": -1, "wordID": 1564, "type": "PRES_AUD", "trial_index": 23}, "uniqueid": "MTK2989:339ANSOTR69H0P9WHHYSLJZA9NSKI5", "dateTime": 1519663582738}, {"current_trial": 24, "trialdata": {"rt": -1000, "trial_type": "single-audio", "word": "servant", "stimulus": "/static/audio/wordpool/SERVANT.wav", "conditions": [18, 1200, "a", 18000], "internal_node_id": "0.0-15.0", "trial": 0, "time_elapsed": 215929, "serialpos": 3, "key_press": -1, "wordID": 1270, "type": "PRES_AUD", "trial_index": 24}, "uniqueid": "MTK2989:339ANSOTR69H0P9WHHYSLJZA9NSKI5", "dateTime": 1519663585079}, {"current_trial": 25, "trialdata": {"rt": -1000, "trial_type": "single-audio", "word": "bucket", "stimulus": "/static/audio/wordpool/BUCKET.wav", "conditions": [18, 1200, "a", 18000], "internal_node_id": "0.0-16.0", "trial": 0, "time_elapsed": 218067, "serialpos": 4, "key_press": -1, "wordID": 183, "type": "PRES_AUD", "trial_index": 25}, "uniqueid": "MTK2989:339ANSOTR69H0P9WHHYSLJZA9NSKI5", "dateTime": 1519663587217}, {"current_trial": 26, "trialdata": {"rt": -1000, "trial_type": "single-audio", "word": "sponge", "stimulus": "/static/audio/wordpool/SPONGE.wav", "conditions": [18, 1200, "a", 18000], "internal_node_id": "0.0-17.0", "trial": 0, "time_elapsed": 220257, "serialpos": 5, "key_press": -1, "wordID": 1354, "type": "PRES_AUD", "trial_index": 26}, "uniqueid": "MTK2989:339ANSOTR69H0P9WHHYSLJZA9NSKI5", "dateTime": 1519663589407}, {"current_trial": 27, "trialdata": {"rt": -1000, "trial_type": "single-audio", "word": "princess", "stimulus": "/static/audio/wordpool/PRINCESS.wav", "conditions": [18, 1200, "a", 18000], "internal_node_id": "0.0-18.0", "trial": 0, "time_elapsed": 222468, "serialpos": 6, "key_press": -1, "wordID": 1124, "type": "PRES_AUD", "trial_index": 27}, "uniqueid": "MTK2989:339ANSOTR69H0P9WHHYSLJZA9NSKI5", "dateTime": 1519663591618}, {"current_trial": 28, "trialdata": {"rt": -1000, "trial_type": "single-audio", "word": "summit", "stimulus": "/static/audio/wordpool/SUMMIT.wav", "conditions": [18, 1200, "a", 18000], "internal_node_id": "0.0-19.0", "trial": 0, "time_elapsed": 224474, "serialpos": 7, "key_press": -1, "wordID": 1404, "type": "PRES_AUD", "trial_index": 28}, "uniqueid": "MTK2989:339ANSOTR69H0P9WHHYSLJZA9NSKI5", "dateTime": 1519663593624}, {"current_trial": 29, "trialdata": {"rt": -1000, "trial_type": "single-audio", "word": "pastry", "stimulus": "/static/audio/wordpool/PASTRY.wav", "conditions": [18, 1200, "a", 18000], "internal_node_id": "0.0-20.0", "trial": 0, "time_elapsed": 226619, "serialpos": 8, "key_press": -1, "wordID": 1021, "type": "PRES_AUD", "trial_index": 29}, "uniqueid": "MTK2989:339ANSOTR69H0P9WHHYSLJZA9NSKI5", "dateTime": 1519663595769}, {"current_trial": 30, "trialdata": {"rt": -1000, "trial_type": "single-audio", "word": "female", "stimulus": "/static/audio/wordpool/FEMALE.wav", "conditions": [18, 1200, "a", 18000], "internal_node_id": "0.0-21.0", "trial": 0, "time_elapsed": 228659, "serialpos": 9, "key_press": -1, "wordID": 558, "type": "PRES_AUD", "trial_index": 30}, "uniqueid": "MTK2989:339ANSOTR69H0P9WHHYSLJZA9NSKI5", "dateTime": 1519663597809}, {"current_trial": 31, "trialdata": {"rt": -1000, "trial_type": "single-audio", "word": "apron", "stimulus": "/static/audio/wordpool/APRON.wav", "conditions": [18, 1200, "a", 18000], "internal_node_id": "0.0-22.0", "trial": 0, "time_elapsed": 230792, "serialpos": 10, "key_press": -1, "wordID": 34, "type": "PRES_AUD", "trial_index": 31}, "uniqueid": "MTK2989:339ANSOTR69H0P9WHHYSLJZA9NSKI5", "dateTime": 1519663599942}, {"current_trial": 32, "trialdata": {"rt": -1000, "trial_type": "single-audio", "word": "quail", "stimulus": "/static/audio/wordpool/QUAIL.wav", "conditions": [18, 1200, "a", 18000], "internal_node_id": "0.0-23.0", "trial": 0, "time_elapsed": 232997, "serialpos": 11, "key_press": -1, "wordID": 1146, "type": "PRES_AUD", "trial_index": 32}, "uniqueid": "MTK2989:339ANSOTR69H0P9WHHYSLJZA9NSKI5", "dateTime": 1519663602147}, {"current_trial": 33, "trialdata": {"rt": -1000, "trial_type": "single-audio", "word": "paper", "stimulus": "/static/audio/wordpool/PAPER.wav", "conditions": [18, 1200, "a", 18000], "internal_node_id": "0.0-24.0", "trial": 0, "time_elapsed": 235155, "serialpos": 12, "key_press": -1, "wordID": 1010, "type": "PRES_AUD", "trial_index": 33}, "uniqueid": "MTK2989:339ANSOTR69H0P9WHHYSLJZA9NSKI5", "dateTime": 1519663604306}, {"current_trial": 34, "trialdata": {"rt": -1000, "trial_type": "single-audio", "word": "seagull", "stimulus": "/static/audio/wordpool/SEAGULL.wav", "conditions": [18, 1200, "a", 18000], "internal_node_id": "0.0-25.0", "trial": 0, "time_elapsed": 237266, "serialpos": 13, "key_press": -1, "wordID": 1260, "type": "PRES_AUD", "trial_index": 34}, "uniqueid": "MTK2989:339ANSOTR69H0P9WHHYSLJZA9NSKI5", "dateTime": 1519663606416}, {"current_trial": 35, "trialdata": {"rt": -1000, "trial_type": "single-audio", "word": "cocoon", "stimulus": "/static/audio/wordpool/COCOON.wav", "conditions": [18, 1200, "a", 18000], "internal_node_id": "0.0-26.0", "trial": 0, "time_elapsed": 239295, "serialpos": 14, "key_press": -1, "wordID": 338, "type": "PRES_AUD", "trial_index": 35}, "uniqueid": "MTK2989:339ANSOTR69H0P9WHHYSLJZA9NSKI5", "dateTime": 1519663608445}, {"current_trial": 36, "trialdata": {"rt": -1000, "trial_type": "single-audio", "word": "tart", "stimulus": "/static/audio/wordpool/TART.wav", "conditions": [18, 1200, "a", 18000], "internal_node_id": "0.0-27.0", "trial": 0, "time_elapsed": 241401, "serialpos": 15, "key_press": -1, "wordID": 1435, "type": "PRES_AUD", "trial_index": 36}, "uniqueid": "MTK2989:339ANSOTR69H0P9WHHYSLJZA9NSKI5", "dateTime": 1519663610551}, {"current_trial": 37, "trialdata": {"rt": -1000, "trial_type": "single-audio", "word": "dragon", "stimulus": "/static/audio/wordpool/DRAGON.wav", "conditions": [18, 1200, "a", 18000], "internal_node_id": "0.0-28.0", "trial": 0, "time_elapsed": 243420, "serialpos": 16, "key_press": -1, "wordID": 491, "type": "PRES_AUD", "trial_index": 37}, "uniqueid": "MTK2989:339ANSOTR69H0P9WHHYSLJZA9NSKI5", "dateTime": 1519663612570}, {"current_trial": 38, "trialdata": {"rt": -1000, "trial_type": "single-audio", "word": "banker", "stimulus": "/static/audio/wordpool/BANKER.wav", "conditions": [18, 1200, "a", 18000], "internal_node_id": "0.0-29.0", "trial": 0, "time_elapsed": 245665, "serialpos": 17, "key_press": -1, "wordID": 83, "type": "PRES_AUD", "trial_index": 38}, "uniqueid": "MTK2989:339ANSOTR69H0P9WHHYSLJZA9NSKI5", "dateTime": 1519663614815}, {"current_trial": 39, "trialdata": {"rt": -1, "trial_type": "single-stim", "stimulus": "", "internal_node_id": "0.0-30.0-0.0", "time_elapsed": 246868, "key_press": -1, "type": "PRE_RECALL_DELAY", "trial_index": 39}, "uniqueid": "MTK2989:339ANSOTR69H0P9WHHYSLJZA9NSKI5", "dateTime": 1519663616018}, {"current_trial": 40, "trialdata": {"rt": -1000, "trial_type": "single-audio", "stimulus": "/static/audio/400Hz.wav", "internal_node_id": "0.0-31.0", "time_elapsed": 247369, "key_press": -1, "type": "PRE_RECALL_ALERT", "trial_index": 40}, "uniqueid": "MTK2989:339ANSOTR69H0P9WHHYSLJZA9NSKI5", "dateTime": 1519663616519}, {"current_trial": 41, "trialdata": {"rt": [3313, 4952, 6920, 8310, 9868, 14259, 17299, 37889], "recwords": ["banker", "dragon", "servant", "summon", "viking", "cocoon", "tart", "dragon"], "key_times": [2014, 2130, 2259, 2400, 2502, 2618, 3313, 4020, 4204, 4288, 4453, 4592, 4698, 4952, 5233, 5561, 5663, 6372, 6492, 6649, 6771, 6920, 7132, 7348, 7590, 7729, 7847, 7960, 8310, 9062, 9232, 9372, 9492, 9603, 9742, 9868, 10135, 10244, 10580, 10733, 11476, 11777, 12065, 12241, 14259, 16738, 16851, 16941, 17103, 17299, 36682, 36881, 36950, 37165, 37536, 37650, 37889], "trial_type": "free-recall", "conditions": [18, 1200, "a", 18000], "internal_node_id": "0.0-32.0-0.0", "key_presses": [66, 65, 78, 75, 69, 82, 13, 68, 82, 65, 71, 79, 78, 13, 83, 69, 82, 86, 65, 78, 84, 13, 83, 85, 77, 77, 79, 78, 13, 86, 73, 75, 73, 78, 71, 13, 67, 79, 67, 67, 8, 79, 79, 78, 13, 84, 65, 82, 84, 13, 68, 82, 65, 71, 79, 78, 13], "trial": 0, "time_elapsed": 307371, "type": "FREE_RECALL", "trial_index": 41}, "uniqueid": "MTK2989:339ANSOTR69H0P9WHHYSLJZA9NSKI5", "dateTime": 1519663676523}, {"current_trial": 42, "trialdata": {"rt": 1288, "trial_type": "text", "internal_node_id": "0.0-33.0", "time_elapsed": 310661, "key_press": 39, "type": "INSTRUCTIONS", "trial_index": 42}, "uniqueid": "MTK2989:339ANSOTR69H0P9WHHYSLJZA9NSKI5", "dateTime": 1519663679811}, {"current_trial": 43, "trialdata": {"rt": [3427, 5887, 7749, 10818, 13700, 15940], "trial_type": "math-distractor", "key_times": [3031, 3231, 3427, 5440, 5638, 5887, 7351, 7562, 7749, 10382, 10643, 10818, 13420, 13537, 13700, 15490, 15749, 15940], "responses": ["18", "18", "18", "20", "12", "18"], "num2": [8, 6, 6, 7, 3, 9, 8], "num3": [6, 4, 8, 8, 1, 4, 8], "conditions": [18, 1200, "a", 18000], "internal_node_id": "0.0-34.0", "key_presses": [97, 104, 13, 97, 104, 13, 97, 104, 13, 98, 96, 13, 97, 98, 13, 97, 104, 13], "trial": 1, "time_elapsed": 330693, "type": "DISTRACTOR", "trial_index": 43, "num1": [4, 8, 4, 5, 8, 5, 7]}, "uniqueid": "MTK2989:339ANSOTR69H0P9WHHYSLJZA9NSKI5", "dateTime": 1519663699843}, {"current_trial": 44, "trialdata": {"rt": -1, "trial_type": "single-stim", "stimulus": "<p id=\"stim\">10</p>", "internal_node_id": "0.0-35.0-0.0", "time_elapsed": 333694, "key_press": -1, "trial_index": 44}, "uniqueid": "MTK2989:339ANSOTR69H0P9WHHYSLJZA9NSKI5", "dateTime": 1519663702844}, {"current_trial": 45, "trialdata": {"rt": -1, "trial_type": "single-stim", "stimulus": "<p id=\"stim\">9</p>", "internal_node_id": "0.0-35.0-1.0", "time_elapsed": 334695, "key_press": -1, "trial_index": 45}, "uniqueid": "MTK2989:339ANSOTR69H0P9WHHYSLJZA9NSKI5", "dateTime": 1519663703845}, {"current_trial": 46, "trialdata": {"rt": -1, "trial_type": "single-stim", "stimulus": "<p id=\"stim\">8</p>", "internal_node_id": "0.0-35.0-2.0", "time_elapsed": 335695, "key_press": -1, "trial_index": 46}, "uniqueid": "MTK2989:339ANSOTR69H0P9WHHYSLJZA9NSKI5", "dateTime": 1519663704845}, {"current_trial": 47, "trialdata": {"rt": -1, "trial_type": "single-stim", "stimulus": "<p id=\"stim\">7</p>", "internal_node_id": "0.0-35.0-3.0", "time_elapsed": 336696, "key_press": -1, "trial_index": 47}, "uniqueid": "MTK2989:339ANSOTR69H0P9WHHYSLJZA9NSKI5", "dateTime": 1519663705846}, {"current_trial": 48, "trialdata": {"rt": -1, "trial_type": "single-stim", "stimulus": "<p id=\"stim\">6</p>", "internal_node_id": "0.0-35.0-4.0", "time_elapsed": 337696, "key_press": -1, "trial_index": 48}, "uniqueid": "MTK2989:339ANSOTR69H0P9WHHYSLJZA9NSKI5", "dateTime": 1519663706847}, {"current_trial": 49, "trialdata": {"rt": -1, "trial_type": "single-stim", "stimulus": "<p id=\"stim\">5</p>", "internal_node_id": "0.0-35.0-5.0", "time_elapsed": 338696, "key_press": -1, "trial_index": 49}, "uniqueid": "MTK2989:339ANSOTR69H0P9WHHYSLJZA9NSKI5", "dateTime": 1519663707846}, {"current_trial": 50, "trialdata": {"rt": -1, "trial_type": "single-stim", "stimulus": "<p id=\"stim\">4</p>", "internal_node_id": "0.0-35.0-6.0", "time_elapsed": 339697, "key_press": -1, "trial_index": 50}, "uniqueid": "MTK2989:339ANSOTR69H0P9WHHYSLJZA9NSKI5", "dateTime": 1519663708849}, {"current_trial": 51, "trialdata": {"rt": -1, "trial_type": "single-stim", "stimulus": "<p id=\"stim\">3</p>", "internal_node_id": "0.0-35.0-7.0", "time_elapsed": 340700, "key_press": -1, "trial_index": 51}, "uniqueid": "MTK2989:339ANSOTR69H0P9WHHYSLJZA9NSKI5", "dateTime": 1519663709850}, {"current_trial": 52, "trialdata": {"rt": -1, "trial_type": "single-stim", "stimulus": "<p id=\"stim\">2</p>", "internal_node_id": "0.0-35.0-8.0", "time_elapsed": 341700, "key_press": -1, "trial_index": 52}, "uniqueid": "MTK2989:339ANSOTR69H0P9WHHYSLJZA9NSKI5", "dateTime": 1519663710850}, {"current_trial": 53, "trialdata": {"rt": -1, "trial_type": "single-stim", "stimulus": "<p id=\"stim\">1</p>", "internal_node_id": "0.0-35.0-9.0", "time_elapsed": 342701, "key_press": -1, "trial_index": 53}, "uniqueid": "MTK2989:339ANSOTR69H0P9WHHYSLJZA9NSKI5", "dateTime": 1519663711851}, {"current_trial": 54, "trialdata": {"rt": -1, "trial_type": "single-stim", "stimulus": "<p id=\"stim\">+</p>", "internal_node_id": "0.0-36.0-0.0", "time_elapsed": 344200, "key_press": -1, "type": "FIXATION", "trial_index": 54}, "uniqueid": "MTK2989:339ANSOTR69H0P9WHHYSLJZA9NSKI5", "dateTime": 1519663713350}, {"current_trial": 55, "trialdata": {"rt": -1000, "trial_type": "single-audio", "word": "ox", "stimulus": "/static/audio/wordpool/OX.wav", "conditions": [18, 1200, "a", 18000], "internal_node_id": "0.0-37.0", "trial": 1, "time_elapsed": 346672, "serialpos": 0, "key_press": -1, "wordID": 993, "type": "PRES_AUD", "trial_index": 55}, "uniqueid": "MTK2989:339ANSOTR69H0P9WHHYSLJZA9NSKI5", "dateTime": 1519663715822}, {"current_trial": 56, "trialdata": {"rt": -1000, "trial_type": "single-audio", "word": "report", "stimulus": "/static/audio/wordpool/REPORT.wav", "conditions": [18, 1200, "a", 18000], "internal_node_id": "0.0-38.0", "trial": 1, "time_elapsed": 348710, "serialpos": 1, "key_press": -1, "wordID": 1183, "type": "PRES_AUD", "trial_index": 56}, "uniqueid": "MTK2989:339ANSOTR69H0P9WHHYSLJZA9NSKI5", "dateTime": 1519663717860}, {"current_trial": 57, "trialdata": {"rt": -1000, "trial_type": "single-audio", "word": "waiter", "stimulus": "/static/audio/wordpool/WAITER.wav", "conditions": [18, 1200, "a", 18000], "internal_node_id": "0.0-39.0", "trial": 1, "time_elapsed": 350858, "serialpos": 2, "key_press": -1, "wordID": 1579, "type": "PRES_AUD", "trial_index": 57}, "uniqueid": "MTK2989:339ANSOTR69H0P9WHHYSLJZA9NSKI5", "dateTime": 1519663720008}, {"current_trial": 58, "trialdata": {"rt": -1000, "trial_type": "single-audio", "word": "velvet", "stimulus": "/static/audio/wordpool/VELVET.wav", "conditions": [18, 1200, "a", 18000], "internal_node_id": "0.0-40.0", "trial": 1, "time_elapsed": 353161, "serialpos": 3, "key_press": -1, "wordID": 1554, "type": "PRES_AUD", "trial_index": 58}, "uniqueid": "MTK2989:339ANSOTR69H0P9WHHYSLJZA9NSKI5", "dateTime": 1519663722311}, {"current_trial": 59, "trialdata": {"rt": -1000, "trial_type": "single-audio", "word": "ghetto", "stimulus": "/static/audio/wordpool/GHETTO.wav", "conditions": [18, 1200, "a", 18000], "internal_node_id": "0.0-41.0", "trial": 1, "time_elapsed": 355290, "serialpos": 4, "key_press": -1, "wordID": 632, "type": "PRES_AUD", "trial_index": 59}, "uniqueid": "MTK2989:339ANSOTR69H0P9WHHYSLJZA9NSKI5", "dateTime": 1519663724440}, {"current_trial": 60, "trialdata": {"rt": -1000, "trial_type": "single-audio", "word": "fragrance", "stimulus": "/static/audio/wordpool/FRAGRANCE.wav", "conditions": [18, 1200, "a", 18000], "internal_node_id": "0.0-42.0", "trial": 1, "time_elapsed": 357380, "serialpos": 5, "key_press": -1, "wordID": 598, "type": "PRES_AUD", "trial_index": 60}, "uniqueid": "MTK2989:339ANSOTR69H0P9WHHYSLJZA9NSKI5", "dateTime": 1519663726530}, {"current_trial": 61, "trialdata": {"rt": -1000, "trial_type": "single-audio", "word": "umpire", "stimulus": "/static/audio/wordpool/UMPIRE.wav", "conditions": [18, 1200, "a", 18000], "internal_node_id": "0.0-43.0", "trial": 1, "time_elapsed": 359561, "serialpos": 6, "key_press": -1, "wordID": 1534, "type": "PRES_AUD", "trial_index": 61}, "uniqueid": "MTK2989:339ANSOTR69H0P9WHHYSLJZA9NSKI5", "dateTime": 1519663728711}, {"current_trial": 62, "trialdata": {"rt": -1000, "trial_type": "single-audio", "word": "shirt", "stimulus": "/static/audio/wordpool/SHIRT.wav", "conditions": [18, 1200, "a", 18000], "internal_node_id": "0.0-44.0", "trial": 1, "time_elapsed": 361572, "serialpos": 7, "key_press": -1, "wordID": 1286, "type": "PRES_AUD", "trial_index": 62}, "uniqueid": "MTK2989:339ANSOTR69H0P9WHHYSLJZA9NSKI5", "dateTime": 1519663730722}, {"current_trial": 63, "trialdata": {"rt": -1000, "trial_type": "single-audio", "word": "journal", "stimulus": "/static/audio/wordpool/JOURNAL.wav", "conditions": [18, 1200, "a", 18000], "internal_node_id": "0.0-45.0", "trial": 1, "time_elapsed": 363942, "serialpos": 8, "key_press": -1, "wordID": 759, "type": "PRES_AUD", "trial_index": 63}, "uniqueid": "MTK2989:339ANSOTR69H0P9WHHYSLJZA9NSKI5", "dateTime": 1519663733092}, {"current_trial": 64, "trialdata": {"rt": -1000, "trial_type": "single-audio", "word": "muffin", "stimulus": "/static/audio/wordpool/MUFFIN.wav", "conditions": [18, 1200, "a", 18000], "internal_node_id": "0.0-46.0", "trial": 1, "time_elapsed": 366273, "serialpos": 9, "key_press": -1, "wordID": 928, "type": "PRES_AUD", "trial_index": 64}, "uniqueid": "MTK2989:339ANSOTR69H0P9WHHYSLJZA9NSKI5", "dateTime": 1519663735423}, {"current_trial": 65, "trialdata": {"rt": -1000, "trial_type": "single-audio", "word": "possum", "stimulus": "/static/audio/wordpool/POSSUM.wav", "conditions": [18, 1200, "a", 18000], "internal_node_id": "0.0-47.0", "trial": 1, "time_elapsed": 368366, "serialpos": 10, "key_press": -1, "wordID": 1111, "type": "PRES_AUD", "trial_index": 65}, "uniqueid": "MTK2989:339ANSOTR69H0P9WHHYSLJZA9NSKI5", "dateTime": 1519663737516}, {"current_trial": 66, "trialdata": {"rt": -1000, "trial_type": "single-audio", "word": "patient", "stimulus": "/static/audio/wordpool/PATIENT.wav", "conditions": [18, 1200, "a", 18000], "internal_node_id": "0.0-48.0", "trial": 1, "time_elapsed": 370369, "serialpos": 11, "key_press": -1, "wordID": 1023, "type": "PRES_AUD", "trial_index": 66}, "uniqueid": "MTK2989:339ANSOTR69H0P9WHHYSLJZA9NSKI5", "dateTime": 1519663739519}, {"current_trial": 67, "trialdata": {"rt": -1000, "trial_type": "single-audio", "word": "laser", "stimulus": "/static/audio/wordpool/LASER.wav", "conditions": [18, 1200, "a", 18000], "internal_node_id": "0.0-49.0", "trial": 1, "time_elapsed": 372450, "serialpos": 12, "key_press": -1, "wordID": 800, "type": "PRES_AUD", "trial_index": 67}, "uniqueid": "MTK2989:339ANSOTR69H0P9WHHYSLJZA9NSKI5", "dateTime": 1519663741600}, {"current_trial": 68, "trialdata": {"rt": -1000, "trial_type": "single-audio", "word": "plaid", "stimulus": "/static/audio/wordpool/PLAID.wav", "conditions": [18, 1200, "a", 18000], "internal_node_id": "0.0-50.0", "trial": 1, "time_elapsed": 374493, "serialpos": 13, "key_press": -1, "wordID": 1079, "type": "PRES_AUD", "trial_index": 68}, "uniqueid": "MTK2989:339ANSOTR69H0P9WHHYSLJZA9NSKI5", "dateTime": 1519663743643}, {"current_trial": 69, "trialdata": {"rt": -1000, "trial_type": "single-audio", "word": "turkey", "stimulus": "/static/audio/wordpool/TURKEY.wav", "conditions": [18, 1200, "a", 18000], "internal_node_id": "0.0-51.0", "trial": 1, "time_elapsed": 376822, "serialpos": 14, "key_press": -1, "wordID": 1519, "type": "PRES_AUD", "trial_index": 69}, "uniqueid": "MTK2989:339ANSOTR69H0P9WHHYSLJZA9NSKI5", "dateTime": 1519663745972}, {"current_trial": 70, "trialdata": {"rt": -1000, "trial_type": "single-audio", "word": "beast", "stimulus": "/static/audio/wordpool/BEAST.wav", "conditions": [18, 1200, "a", 18000], "internal_node_id": "0.0-52.0", "trial": 1, "time_elapsed": 379113, "serialpos": 15, "key_press": -1, "wordID": 107, "type": "PRES_AUD", "trial_index": 70}, "uniqueid": "MTK2989:339ANSOTR69H0P9WHHYSLJZA9NSKI5", "dateTime": 1519663748263}, {"current_trial": 71, "trialdata": {"rt": -1000, "trial_type": "single-audio", "word": "pepper", "stimulus": "/static/audio/wordpool/PEPPER.wav", "conditions": [18, 1200, "a", 18000], "internal_node_id": "0.0-53.0", "trial": 1, "time_elapsed": 381468, "serialpos": 16, "key_press": -1, "wordID": 1046, "type": "PRES_AUD", "trial_index": 71}, "uniqueid": "MTK2989:339ANSOTR69H0P9WHHYSLJZA9NSKI5", "dateTime": 1519663750618}, {"current_trial": 72, "trialdata": {"rt": -1000, "trial_type": "single-audio", "word": "braces", "stimulus": "/static/audio/wordpool/BRACES.wav", "conditions": [18, 1200, "a", 18000], "internal_node_id": "0.0-54.0", "trial": 1, "time_elapsed": 383515, "serialpos": 17, "key_press": -1, "wordID": 163, "type": "PRES_AUD", "trial_index": 72}, "uniqueid": "MTK2989:339ANSOTR69H0P9WHHYSLJZA9NSKI5", "dateTime": 1519663752665}, {"current_trial": 73, "trialdata": {"rt": -1, "trial_type": "single-stim", "stimulus": "", "internal_node_id": "0.0-55.0-0.0", "time_elapsed": 384877, "key_press": -1, "type": "PRE_RECALL_DELAY", "trial_index": 73}, "uniqueid": "MTK2989:339ANSOTR69H0P9WHHYSLJZA9NSKI5", "dateTime": 1519663754027}, {"current_trial": 74, "trialdata": {"rt": -1000, "trial_type": "single-audio", "stimulus": "/static/audio/400Hz.wav", "internal_node_id": "0.0-56.0", "time_elapsed": 385378, "key_press": -1, "type": "PRE_RECALL_ALERT", "trial_index": 74}, "uniqueid": "MTK2989:339ANSOTR69H0P9WHHYSLJZA9NSKI5", "dateTime": 1519663754528}, {"current_trial": 75, "trialdata": {"rt": [2631, 4267, 7457, 17110, 21297, 58130], "recwords": ["braces", "umpire", "muffin", "flag", "shirt", "bag"], "key_times": [1598, 1717, 1925, 2054, 2150, 2296, 2631, 3324, 3430, 3663, 3887, 4010, 4079, 4267, 6157, 6331, 6641, 6801, 6945, 7072, 7457, 16321, 16528, 16684, 16887, 17110, 20374, 20519, 20613, 20824, 21010, 21297, 57302, 57372, 57742, 58130], "trial_type": "free-recall", "conditions": [18, 1200, "a", 18000], "internal_node_id": "0.0-57.0-0.0", "key_presses": [66, 82, 65, 67, 69, 83, 13, 85, 77, 80, 73, 82, 69, 13, 77, 85, 70, 70, 73, 78, 13, 70, 76, 65, 71, 13, 83, 72, 73, 82, 84, 13, 66, 65, 71, 13], "trial": 1, "time_elapsed": 445379, "type": "FREE_RECALL", "trial_index": 75}, "uniqueid": "MTK2989:339ANSOTR69H0P9WHHYSLJZA9NSKI5", "dateTime": 1519663814530}, {"current_trial": 76, "trialdata": {"rt": 2127, "trial_type": "text", "internal_node_id": "0.0-58.0", "time_elapsed": 449507, "key_press": 40, "type": "INSTRUCTIONS", "trial_index": 76}, "uniqueid": "MTK2989:339ANSOTR69H0P9WHHYSLJZA9NSKI5", "dateTime": 1519663818657}, {"current_trial": 77, "trialdata": {"rt": [2242, 6420, 8968, 11767], "trial_type": "math-distractor", "key_times": [2045, 2242, 3601, 3804, 4811, 4968, 5110, 5195, 5387, 6300, 6420, 8538, 8749, 8968, 11506, 11613, 11767], "responses": ["9", "17", "18", "12"], "num2": [2, 6, 7, 3, 1], "num3": [4, 7, 7, 6, 9], "conditions": [12, 800, "a", 12000], "internal_node_id": "0.0-59.0", "key_presses": [105, 13, 98, 104, 8, 8, 97, 103, 107, 8, 13, 97, 104, 13, 97, 98, 13], "trial": 2, "time_elapsed": 462509, "type": "DISTRACTOR", "trial_index": 77, "num1": [3, 4, 4, 3, 9]}, "uniqueid": "MTK2989:339ANSOTR69H0P9WHHYSLJZA9NSKI5", "dateTime": 1519663831659}, {"current_trial": 78, "trialdata": {"rt": -1, "trial_type": "single-stim", "stimulus": "<p id=\"stim\">10</p>", "internal_node_id": "0.0-60.0-0.0", "time_elapsed": 465510, "key_press": -1, "trial_index": 78}, "uniqueid": "MTK2989:339ANSOTR69H0P9WHHYSLJZA9NSKI5", "dateTime": 1519663834660}, {"current_trial": 79, "trialdata": {"rt": -1, "trial_type": "single-stim", "stimulus": "<p id=\"stim\">9</p>", "internal_node_id": "0.0-60.0-1.0", "time_elapsed": 466511, "key_press": -1, "trial_index": 79}, "uniqueid": "MTK2989:339ANSOTR69H0P9WHHYSLJZA9NSKI5", "dateTime": 1519663835661}, {"current_trial": 80, "trialdata": {"rt": -1, "trial_type": "single-stim", "stimulus": "<p id=\"stim\">8</p>", "internal_node_id": "0.0-60.0-2.0", "time_elapsed": 467512, "key_press": -1, "trial_index": 80}, "uniqueid": "MTK2989:339ANSOTR69H0P9WHHYSLJZA9NSKI5", "dateTime": 1519663836662}, {"current_trial": 81, "trialdata": {"rt": -1, "trial_type": "single-stim", "stimulus": "<p id=\"stim\">7</p>", "internal_node_id": "0.0-60.0-3.0", "time_elapsed": 468514, "key_press": -1, "trial_index": 81}, "uniqueid": "MTK2989:339ANSOTR69H0P9WHHYSLJZA9NSKI5", "dateTime": 1519663837664}, {"current_trial": 82, "trialdata": {"rt": -1, "trial_type": "single-stim", "stimulus": "<p id=\"stim\">6</p>", "internal_node_id": "0.0-60.0-4.0", "time_elapsed": 469514, "key_press": -1, "trial_index": 82}, "uniqueid": "MTK2989:339ANSOTR69H0P9WHHYSLJZA9NSKI5", "dateTime": 1519663838664}, {"current_trial": 83, "trialdata": {"rt": -1, "trial_type": "single-stim", "stimulus": "<p id=\"stim\">5</p>", "internal_node_id": "0.0-60.0-5.0", "time_elapsed": 470513, "key_press": -1, "trial_index": 83}, "uniqueid": "MTK2989:339ANSOTR69H0P9WHHYSLJZA9NSKI5", "dateTime": 1519663839663}, {"current_trial": 84, "trialdata": {"rt": -1, "trial_type": "single-stim", "stimulus": "<p id=\"stim\">4</p>", "internal_node_id": "0.0-60.0-6.0", "time_elapsed": 471515, "key_press": -1, "trial_index": 84}, "uniqueid": "MTK2989:339ANSOTR69H0P9WHHYSLJZA9NSKI5", "dateTime": 1519663840665}, {"current_trial": 85, "trialdata": {"rt": -1, "trial_type": "single-stim", "stimulus": "<p id=\"stim\">3</p>", "internal_node_id": "0.0-60.0-7.0", "time_elapsed": 472515, "key_press": -1, "trial_index": 85}, "uniqueid": "MTK2989:339ANSOTR69H0P9WHHYSLJZA9NSKI5", "dateTime": 1519663841665}, {"current_trial": 86, "trialdata": {"rt": -1, "trial_type": "single-stim", "stimulus": "<p id=\"stim\">2</p>", "internal_node_id": "0.0-60.0-8.0", "time_elapsed": 473516, "key_press": -1, "trial_index": 86}, "uniqueid": "MTK2989:339ANSOTR69H0P9WHHYSLJZA9NSKI5", "dateTime": 1519663842666}, {"current_trial": 87, "trialdata": {"rt": -1, "trial_type": "single-stim", "stimulus": "<p id=\"stim\">1</p>", "internal_node_id": "0.0-60.0-9.0", "time_elapsed": 474516, "key_press": -1, "trial_index": 87}, "uniqueid": "MTK2989:339ANSOTR69H0P9WHHYSLJZA9NSKI5", "dateTime": 1519663843666}, {"current_trial": 88, "trialdata": {"rt": -1, "trial_type": "single-stim", "stimulus": "<p id=\"stim\">+</p>", "internal_node_id": "0.0-61.0-0.0", "time_elapsed": 476018, "key_press": -1, "type": "FIXATION", "trial_index": 88}, "uniqueid": "MTK2989:339ANSOTR69H0P9WHHYSLJZA9NSKI5", "dateTime": 1519663845168}, {"current_trial": 89, "trialdata": {"rt": -1000, "trial_type": "single-audio", "word": "zipper", "stimulus": "/static/audio/wordpool/ZIPPER.wav", "conditions": [12, 800, "a", 12000], "internal_node_id": "0.0-62.0", "trial": 2, "time_elapsed": 477925, "serialpos": 0, "key_press": -1, "wordID": 1635, "type": "PRES_AUD", "trial_index": 89}, "uniqueid": "MTK2989:339ANSOTR69H0P9WHHYSLJZA9NSKI5", "dateTime": 1519663847075}, {"current_trial": 90, "trialdata": {"rt": -1000, "trial_type": "single-audio", "word": "drink", "stimulus": "/static/audio/wordpool/DRINK.wav", "conditions": [12, 800, "a", 12000], "internal_node_id": "0.0-63.0", "trial": 2, "time_elapsed": 479846, "serialpos": 1, "key_press": -1, "wordID": 497, "type": "PRES_AUD", "trial_index": 90}, "uniqueid": "MTK2989:339ANSOTR69H0P9WHHYSLJZA9NSKI5", "dateTime": 1519663848996}, {"current_trial": 91, "trialdata": {"rt": -1000, "trial_type": "single-audio", "word": "police", "stimulus": "/static/audio/wordpool/POLICE.wav", "conditions": [12, 800, "a", 12000], "internal_node_id": "0.0-64.0", "trial": 2, "time_elapsed": 481621, "serialpos": 2, "key_press": -1, "wordID": 1097, "type": "PRES_AUD", "trial_index": 91}, "uniqueid": "MTK2989:339ANSOTR69H0P9WHHYSLJZA9NSKI5", "dateTime": 1519663850771}, {"current_trial": 92, "trialdata": {"rt": -1000, "trial_type": "single-audio", "word": "drug", "stimulus": "/static/audio/wordpool/DRUG.wav", "conditions": [12, 800, "a", 12000], "internal_node_id": "0.0-65.0", "trial": 2, "time_elapsed": 483249, "serialpos": 3, "key_press": -1, "wordID": 500, "type": "PRES_AUD", "trial_index": 92}, "uniqueid": "MTK2989:339ANSOTR69H0P9WHHYSLJZA9NSKI5", "dateTime": 1519663852399}, {"current_trial": 93, "trialdata": {"rt": -1000, "trial_type": "single-audio", "word": "brandy", "stimulus": "/static/audio/wordpool/BRANDY.wav", "conditions": [12, 800, "a", 12000], "internal_node_id": "0.0-66.0", "trial": 2, "time_elapsed": 484931, "serialpos": 4, "key_press": -1, "wordID": 168, "type": "PRES_AUD", "trial_index": 93}, "uniqueid": "MTK2989:339ANSOTR69H0P9WHHYSLJZA9NSKI5", "dateTime": 1519663854081}, {"current_trial": 94, "trialdata": {"rt": -1000, "trial_type": "single-audio", "word": "candy", "stimulus": "/static/audio/wordpool/CANDY.wav", "conditions": [12, 800, "a", 12000], "internal_node_id": "0.0-67.0", "trial": 2, "time_elapsed": 486911, "serialpos": 5, "key_press": -1, "wordID": 229, "type": "PRES_AUD", "trial_index": 94}, "uniqueid": "MTK2989:339ANSOTR69H0P9WHHYSLJZA9NSKI5", "dateTime": 1519663856061}, {"current_trial": 95, "trialdata": {"rt": -1000, "trial_type": "single-audio", "word": "pilot", "stimulus": "/static/audio/wordpool/PILOT.wav", "conditions": [12, 800, "a", 12000], "internal_node_id": "0.0-68.0", "trial": 2, "time_elapsed": 488756, "serialpos": 6, "key_press": -1, "wordID": 1069, "type": "PRES_AUD", "trial_index": 95}, "uniqueid": "MTK2989:339ANSOTR69H0P9WHHYSLJZA9NSKI5", "dateTime": 1519663857906}, {"current_trial": 96, "trialdata": {"rt": -1000, "trial_type": "single-audio", "word": "victim", "stimulus": "/static/audio/wordpool/VICTIM.wav", "conditions": [12, 800, "a", 12000], "internal_node_id": "0.0-69.0", "trial": 2, "time_elapsed": 490716, "serialpos": 7, "key_press": -1, "wordID": 1561, "type": "PRES_AUD", "trial_index": 96}, "uniqueid": "MTK2989:339ANSOTR69H0P9WHHYSLJZA9NSKI5", "dateTime": 1519663859866}, {"current_trial": 97, "trialdata": {"rt": -1000, "trial_type": "single-audio", "word": "popcorn", "stimulus": "/static/audio/wordpool/POPCORN.wav", "conditions": [12, 800, "a", 12000], "internal_node_id": "0.0-70.0", "trial": 2, "time_elapsed": 492543, "serialpos": 8, "key_press": -1, "wordID": 1103, "type": "PRES_AUD", "trial_index": 97}, "uniqueid": "MTK2989:339ANSOTR69H0P9WHHYSLJZA9NSKI5", "dateTime": 1519663861693}, {"current_trial": 98, "trialdata": {"rt": -1000, "trial_type": "single-audio", "word": "fungus", "stimulus": "/static/audio/wordpool/FUNGUS.wav", "conditions": [12, 800, "a", 12000], "internal_node_id": "0.0-71.0", "trial": 2, "time_elapsed": 494418, "serialpos": 9, "key_press": -1, "wordID": 613, "type": "PRES_AUD", "trial_index": 98}, "uniqueid": "MTK2989:339ANSOTR69H0P9WHHYSLJZA9NSKI5", "dateTime": 1519663863568}, {"current_trial": 99, "trialdata": {"rt": -1000, "trial_type": "single-audio", "word": "mildew", "stimulus": "/static/audio/wordpool/MILDEW.wav", "conditions": [12, 800, "a", 12000], "internal_node_id": "0.0-72.0", "trial": 2, "time_elapsed": 496308, "serialpos": 10, "key_press": -1, "wordID": 892, "type": "PRES_AUD", "trial_index": 99}, "uniqueid": "MTK2989:339ANSOTR69H0P9WHHYSLJZA9NSKI5", "dateTime": 1519663865458}, {"current_trial": 100, "trialdata": {"rt": -1000, "trial_type": "single-audio", "word": "softball", "stimulus": "/static/audio/wordpool/SOFTBALL.wav", "conditions": [12, 800, "a", 12000], "internal_node_id": "0.0-73.0", "trial": 2, "time_elapsed": 498141, "serialpos": 11, "key_press": -1, "wordID": 1342, "type": "PRES_AUD", "trial_index": 100}, "uniqueid": "MTK2989:339ANSOTR69H0P9WHHYSLJZA9NSKI5", "dateTime": 1519663867291}, {"current_trial": 101, "trialdata": {"rt": -1, "trial_type": "single-stim", "stimulus": "", "internal_node_id": "0.0-74.0-0.0", "time_elapsed": 499375, "key_press": -1, "type": "PRE_RECALL_DELAY", "trial_index": 101}, "uniqueid": "MTK2989:339ANSOTR69H0P9WHHYSLJZA9NSKI5", "dateTime": 1519663868525}, {"current_trial": 102, "trialdata": {"rt": -1000, "trial_type": "single-audio", "stimulus": "/static/audio/400Hz.wav", "internal_node_id": "0.0-75.0", "time_elapsed": 499877, "key_press": -1, "type": "PRE_RECALL_ALERT", "trial_index": 102}, "uniqueid": "MTK2989:339ANSOTR69H0P9WHHYSLJZA9NSKI5", "dateTime": 1519663869027}, {"current_trial": 103, "trialdata": {"rt": [3184, 4594, 6343, 7939, 9572], "recwords": ["softball", "mildew", "fungus", "pilot", "victim"], "key_times": [1313, 1597, 1730, 1930, 2256, 2420, 2593, 2741, 3184, 3492, 3610, 3805, 3909, 4063, 4423, 4594, 5542, 5664, 5763, 5901, 6056, 6171, 6343, 6710, 6936, 7192, 7476, 7552, 7939, 8681, 8853, 8961, 9188, 9322, 9449, 9572], "trial_type": "free-recall", "conditions": [12, 800, "a", 12000], "internal_node_id": "0.0-76.0-0.0", "key_presses": [83, 79, 70, 84, 66, 65, 76, 76, 13, 77, 73, 76, 68, 69, 87, 13, 70, 85, 78, 71, 85, 83, 13, 80, 73, 76, 79, 84, 13, 86, 73, 67, 84, 73, 77, 13], "trial": 2, "time_elapsed": 559878, "type": "FREE_RECALL", "trial_index": 103}, "uniqueid": "MTK2989:339ANSOTR69H0P9WHHYSLJZA9NSKI5", "dateTime": 1519663929031}, {"current_trial": 104, "trialdata": {"rt": 1912, "trial_type": "text", "internal_node_id": "0.0-77.0", "time_elapsed": 563795, "key_press": 100, "type": "INSTRUCTIONS", "trial_index": 104}, "uniqueid": "MTK2989:339ANSOTR69H0P9WHHYSLJZA9NSKI5", "dateTime": 1519663932945}, {"current_trial": 105, "trialdata": {"rt": [2429, 5621, 8573, 11058], "trial_type": "math-distractor", "key_times": [2022, 2250, 2429, 5283, 5420, 5621, 8168, 8329, 8573, 10613, 10827, 11058], "responses": ["10", "14", "18", "17"], "num2": [2, 8, 4, 4, 2], "num3": [3, 2, 5, 5, 7], "conditions": [12, 800, "a", 12000], "internal_node_id": "0.0-78.0", "key_presses": [97, 96, 13, 97, 100, 13, 97, 104, 13, 97, 103, 13], "trial": 3, "time_elapsed": 577795, "type": "DISTRACTOR", "trial_index": 105, "num1": [5, 4, 9, 8, 1]}, "uniqueid": "MTK2989:339ANSOTR69H0P9WHHYSLJZA9NSKI5", "dateTime": 1519663946945}, {"current_trial": 106, "trialdata": {"rt": -1, "trial_type": "single-stim", "stimulus": "<p id=\"stim\">10</p>", "internal_node_id": "0.0-79.0-0.0", "time_elapsed": 580796, "key_press": -1, "trial_index": 106}, "uniqueid": "MTK2989:339ANSOTR69H0P9WHHYSLJZA9NSKI5", "dateTime": 1519663949946}, {"current_trial": 107, "trialdata": {"rt": -1, "trial_type": "single-stim", "stimulus": "<p id=\"stim\">9</p>", "internal_node_id": "0.0-79.0-1.0", "time_elapsed": 581798, "key_press": -1, "trial_index": 107}, "uniqueid": "MTK2989:339ANSOTR69H0P9WHHYSLJZA9NSKI5", "dateTime": 1519663950948}, {"current_trial": 108, "trialdata": {"rt": -1, "trial_type": "single-stim", "stimulus": "<p id=\"stim\">8</p>", "internal_node_id": "0.0-79.0-2.0", "time_elapsed": 582798, "key_press": -1, "trial_index": 108}, "uniqueid": "MTK2989:339ANSOTR69H0P9WHHYSLJZA9NSKI5", "dateTime": 1519663951948}, {"current_trial": 109, "trialdata": {"rt": -1, "trial_type": "single-stim", "stimulus": "<p id=\"stim\">7</p>", "internal_node_id": "0.0-79.0-3.0", "time_elapsed": 583799, "key_press": -1, "trial_index": 109}, "uniqueid": "MTK2989:339ANSOTR69H0P9WHHYSLJZA9NSKI5", "dateTime": 1519663952949}, {"current_trial": 110, "trialdata": {"rt": -1, "trial_type": "single-stim", "stimulus": "<p id=\"stim\">6</p>", "internal_node_id": "0.0-79.0-4.0", "time_elapsed": 584799, "key_press": -1, "trial_index": 110}, "uniqueid": "MTK2989:339ANSOTR69H0P9WHHYSLJZA9NSKI5", "dateTime": 1519663953949}, {"current_trial": 111, "trialdata": {"rt": -1, "trial_type": "single-stim", "stimulus": "<p id=\"stim\">5</p>", "internal_node_id": "0.0-79.0-5.0", "time_elapsed": 585801, "key_press": -1, "trial_index": 111}, "uniqueid": "MTK2989:339ANSOTR69H0P9WHHYSLJZA9NSKI5", "dateTime": 1519663954951}, {"current_trial": 112, "trialdata": {"rt": -1, "trial_type": "single-stim", "stimulus": "<p id=\"stim\">4</p>", "internal_node_id": "0.0-79.0-6.0", "time_elapsed": 586800, "key_press": -1, "trial_index": 112}, "uniqueid": "MTK2989:339ANSOTR69H0P9WHHYSLJZA9NSKI5", "dateTime": 1519663955950}, {"current_trial": 113, "trialdata": {"rt": -1, "trial_type": "single-stim", "stimulus": "<p id=\"stim\">3</p>", "internal_node_id": "0.0-79.0-7.0", "time_elapsed": 587815, "key_press": -1, "trial_index": 113}, "uniqueid": "MTK2989:339ANSOTR69H0P9WHHYSLJZA9NSKI5", "dateTime": 1519663956965}, {"current_trial": 114, "trialdata": {"rt": -1, "trial_type": "single-stim", "stimulus": "<p id=\"stim\">2</p>", "internal_node_id": "0.0-79.0-8.0", "time_elapsed": 588816, "key_press": -1, "trial_index": 114}, "uniqueid": "MTK2989:339ANSOTR69H0P9WHHYSLJZA9NSKI5", "dateTime": 1519663957966}, {"current_trial": 115, "trialdata": {"rt": -1, "trial_type": "single-stim", "stimulus": "<p id=\"stim\">1</p>", "internal_node_id": "0.0-79.0-9.0", "time_elapsed": 589816, "key_press": -1, "trial_index": 115}, "uniqueid": "MTK2989:339ANSOTR69H0P9WHHYSLJZA9NSKI5", "dateTime": 1519663958966}, {"current_trial": 116, "trialdata": {"rt": -1, "trial_type": "single-stim", "stimulus": "<p id=\"stim\">+</p>", "internal_node_id": "0.0-80.0-0.0", "time_elapsed": 591315, "key_press": -1, "type": "FIXATION", "trial_index": 116}, "uniqueid": "MTK2989:339ANSOTR69H0P9WHHYSLJZA9NSKI5", "dateTime": 1519663960465}, {"current_trial": 117, "trialdata": {"rt": -1000, "trial_type": "single-audio", "word": "bunny", "stimulus": "/static/audio/wordpool/BUNNY.wav", "conditions": [12, 800, "a", 12000], "internal_node_id": "0.0-81.0", "trial": 3, "time_elapsed": 593167, "serialpos": 0, "key_press": -1, "wordID": 197, "type": "PRES_AUD", "trial_index": 117}, "uniqueid": "MTK2989:339ANSOTR69H0P9WHHYSLJZA9NSKI5", "dateTime": 1519663962317}, {"current_trial": 118, "trialdata": {"rt": -1000, "trial_type": "single-audio", "word": "france", "stimulus": "/static/audio/wordpool/FRANCE.wav", "conditions": [12, 800, "a", 12000], "internal_node_id": "0.0-82.0", "trial": 3, "time_elapsed": 594863, "serialpos": 1, "key_press": -1, "wordID": 600, "type": "PRES_AUD", "trial_index": 118}, "uniqueid": "MTK2989:339ANSOTR69H0P9WHHYSLJZA9NSKI5", "dateTime": 1519663964013}, {"current_trial": 119, "trialdata": {"rt": -1000, "trial_type": "single-audio", "word": "picnic", "stimulus": "/static/audio/wordpool/PICNIC.wav", "conditions": [12, 800, "a", 12000], "internal_node_id": "0.0-83.0", "trial": 3, "time_elapsed": 596835, "serialpos": 2, "key_press": -1, "wordID": 1059, "type": "PRES_AUD", "trial_index": 119}, "uniqueid": "MTK2989:339ANSOTR69H0P9WHHYSLJZA9NSKI5", "dateTime": 1519663965985}, {"current_trial": 120, "trialdata": {"rt": -1000, "trial_type": "single-audio", "word": "scotch", "stimulus": "/static/audio/wordpool/SCOTCH.wav", "conditions": [12, 800, "a", 12000], "internal_node_id": "0.0-84.0", "trial": 3, "time_elapsed": 598617, "serialpos": 3, "key_press": -1, "wordID": 1250, "type": "PRES_AUD", "trial_index": 120}, "uniqueid": "MTK2989:339ANSOTR69H0P9WHHYSLJZA9NSKI5", "dateTime": 1519663967767}, {"current_trial": 121, "trialdata": {"rt": -1000, "trial_type": "single-audio", "word": "slug", "stimulus": "/static/audio/wordpool/SLUG.wav", "conditions": [12, 800, "a", 12000], "internal_node_id": "0.0-85.0", "trial": 3, "time_elapsed": 600465, "serialpos": 4, "key_press": -1, "wordID": 1328, "type": "PRES_AUD", "trial_index": 121}, "uniqueid": "MTK2989:339ANSOTR69H0P9WHHYSLJZA9NSKI5", "dateTime": 1519663969615}, {"current_trial": 122, "trialdata": {"rt": -1000, "trial_type": "single-audio", "word": "staple", "stimulus": "/static/audio/wordpool/STAPLE.wav", "conditions": [12, 800, "a", 12000], "internal_node_id": "0.0-86.0", "trial": 3, "time_elapsed": 602334, "serialpos": 5, "key_press": -1, "wordID": 1370, "type": "PRES_AUD", "trial_index": 122}, "uniqueid": "MTK2989:339ANSOTR69H0P9WHHYSLJZA9NSKI5", "dateTime": 1519663971484}, {"current_trial": 123, "trialdata": {"rt": -1000, "trial_type": "single-audio", "word": "pimple", "stimulus": "/static/audio/wordpool/PIMPLE.wav", "conditions": [12, 800, "a", 12000], "internal_node_id": "0.0-87.0", "trial": 3, "time_elapsed": 604032, "serialpos": 6, "key_press": -1, "wordID": 1070, "type": "PRES_AUD", "trial_index": 123}, "uniqueid": "MTK2989:339ANSOTR69H0P9WHHYSLJZA9NSKI5", "dateTime": 1519663973182}, {"current_trial": 124, "trialdata": {"rt": -1000, "trial_type": "single-audio", "word": "hawk", "stimulus": "/static/audio/wordpool/HAWK.wav", "conditions": [12, 800, "a", 12000], "internal_node_id": "0.0-88.0", "trial": 3, "time_elapsed": 605725, "serialpos": 7, "key_press": -1, "wordID": 691, "type": "PRES_AUD", "trial_index": 124}, "uniqueid": "MTK2989:339ANSOTR69H0P9WHHYSLJZA9NSKI5", "dateTime": 1519663974875}, {"current_trial": 125, "trialdata": {"rt": -1000, "trial_type": "single-audio", "word": "kidney", "stimulus": "/static/audio/wordpool/KIDNEY.wav", "conditions": [12, 800, "a", 12000], "internal_node_id": "0.0-89.0", "trial": 3, "time_elapsed": 607331, "serialpos": 8, "key_press": -1, "wordID": 775, "type": "PRES_AUD", "trial_index": 125}, "uniqueid": "MTK2989:339ANSOTR69H0P9WHHYSLJZA9NSKI5", "dateTime": 1519663976481}, {"current_trial": 126, "trialdata": {"rt": -1000, "trial_type": "single-audio", "word": "liver", "stimulus": "/static/audio/wordpool/LIVER.wav", "conditions": [12, 800, "a", 12000], "internal_node_id": "0.0-90.0", "trial": 3, "time_elapsed": 609049, "serialpos": 9, "key_press": -1, "wordID": 832, "type": "PRES_AUD", "trial_index": 126}, "uniqueid": "MTK2989:339ANSOTR69H0P9WHHYSLJZA9NSKI5", "dateTime": 1519663978199}, {"current_trial": 127, "trialdata": {"rt": -1000, "trial_type": "single-audio", "word": "london", "stimulus": "/static/audio/wordpool/LONDON.wav", "conditions": [12, 800, "a", 12000], "internal_node_id": "0.0-91.0", "trial": 3, "time_elapsed": 610720, "serialpos": 10, "key_press": -1, "wordID": 842, "type": "PRES_AUD", "trial_index": 127}, "uniqueid": "MTK2989:339ANSOTR69H0P9WHHYSLJZA9NSKI5", "dateTime": 1519663979870}, {"current_trial": 128, "trialdata": {"rt": -1000, "trial_type": "single-audio", "word": "bureau", "stimulus": "/static/audio/wordpool/BUREAU.wav", "conditions": [12, 800, "a", 12000], "internal_node_id": "0.0-92.0", "trial": 3, "time_elapsed": 612352, "serialpos": 11, "key_press": -1, "wordID": 198, "type": "PRES_AUD", "trial_index": 128}, "uniqueid": "MTK2989:339ANSOTR69H0P9WHHYSLJZA9NSKI5", "dateTime": 1519663981502}, {"current_trial": 129, "trialdata": {"rt": -1, "trial_type": "single-stim", "stimulus": "", "internal_node_id": "0.0-93.0-0.0", "time_elapsed": 613641, "key_press": -1, "type": "PRE_RECALL_DELAY", "trial_index": 129}, "uniqueid": "MTK2989:339ANSOTR69H0P9WHHYSLJZA9NSKI5", "dateTime": 1519663982791}, {"current_trial": 130, "trialdata": {"rt": -1000, "trial_type": "single-audio", "stimulus": "/static/audio/400Hz.wav", "internal_node_id": "0.0-94.0", "time_elapsed": 614141, "key_press": -1, "type": "PRE_RECALL_ALERT", "trial_index": 130}, "uniqueid": "MTK2989:339ANSOTR69H0P9WHHYSLJZA9NSKI5", "dateTime": 1519663983292}, {"current_trial": 131, "trialdata": {"rt": [4128, 5395, 7131, 12232, 16104, 17300, 23387, 38248], "recwords": ["london", "kidney", "liver", "bureau", "paris", "picnic", "hawk", "whiskey"], "key_times": [1738, 2993, 3158, 3302, 3652, 3756, 3859, 3948, 4128, 4635, 4766, 4857, 4972, 5099, 5268, 5395, 5684, 5767, 5899, 6784, 6881, 7131, 8295, 8463, 9189, 9620, 10417, 10773, 11158, 11474, 12232, 15503, 15592, 15725, 15864, 15990, 16104, 16498, 16744, 16850, 16976, 17095, 17172, 17300, 22707, 22807, 22994, 23248, 23387, 36476, 36561, 36648, 36847, 36998, 37149, 37445, 38248], "trial_type": "free-recall", "conditions": [12, 800, "a", 12000], "internal_node_id": "0.0-95.0-0.0", "key_presses": [76, 79, 78, 71, 8, 68, 79, 78, 13, 75, 73, 68, 78, 69, 89, 13, 76, 73, 86, 69, 82, 13, 66, 69, 8, 85, 82, 69, 65, 85, 13, 80, 65, 82, 73, 83, 13, 80, 73, 67, 78, 73, 67, 13, 72, 65, 87, 75, 13, 87, 72, 73, 83, 75, 69, 89, 13], "trial": 3, "time_elapsed": 674143, "type": "FREE_RECALL", "trial_index": 131}, "uniqueid": "MTK2989:339ANSOTR69H0P9WHHYSLJZA9NSKI5", "dateTime": 1519664043294}, {"current_trial": 132, "trialdata": {"rt": 2512, "trial_type": "text", "internal_node_id": "0.0-96.0", "time_elapsed": 678657, "key_press": 100, "type": "INSTRUCTIONS", "trial_index": 132}, "uniqueid": "MTK2989:339ANSOTR69H0P9WHHYSLJZA9NSKI5", "dateTime": 1519664047809}, {"current_trial": 133, "trialdata": {"rt": [1715, 4414, 6176, 7783, 10909], "trial_type": "math-distractor", "key_times": [1460, 1571, 1715, 4203, 4414, 5853, 6002, 6176, 7414, 7597, 7783, 10515, 10707, 10909], "responses": ["14", "9", "12", "14", "14"], "num2": [5, 4, 1, 9, 2, 4], "num3": [4, 2, 6, 1, 3, 4], "conditions": [12, 1600, "a", 12000], "internal_node_id": "0.0-97.0", "key_presses": [97, 100, 13, 105, 13, 97, 98, 13, 97, 100, 13, 97, 100, 13], "trial": 4, "time_elapsed": 692661, "type": "DISTRACTOR", "trial_index": 133, "num1": [5, 3, 5, 4, 9, 7]}, "uniqueid": "MTK2989:339ANSOTR69H0P9WHHYSLJZA9NSKI5", "dateTime": 1519664061811}, {"current_trial": 134, "trialdata": {"rt": -1, "trial_type": "single-stim", "stimulus": "<p id=\"stim\">10</p>", "internal_node_id": "0.0-98.0-0.0", "time_elapsed": 695661, "key_press": -1, "trial_index": 134}, "uniqueid": "MTK2989:339ANSOTR69H0P9WHHYSLJZA9NSKI5", "dateTime": 1519664064811}, {"current_trial": 135, "trialdata": {"rt": -1, "trial_type": "single-stim", "stimulus": "<p id=\"stim\">9</p>", "internal_node_id": "0.0-98.0-1.0", "time_elapsed": 696662, "key_press": -1, "trial_index": 135}, "uniqueid": "MTK2989:339ANSOTR69H0P9WHHYSLJZA9NSKI5", "dateTime": 1519664065812}, {"current_trial": 136, "trialdata": {"rt": -1, "trial_type": "single-stim", "stimulus": "<p id=\"stim\">8</p>", "internal_node_id": "0.0-98.0-2.0", "time_elapsed": 697663, "key_press": -1, "trial_index": 136}, "uniqueid": "MTK2989:339ANSOTR69H0P9WHHYSLJZA9NSKI5", "dateTime": 1519664066813}, {"current_trial": 137, "trialdata": {"rt": -1, "trial_type": "single-stim", "stimulus": "<p id=\"stim\">7</p>", "internal_node_id": "0.0-98.0-3.0", "time_elapsed": 698662, "key_press": -1, "trial_index": 137}, "uniqueid": "MTK2989:339ANSOTR69H0P9WHHYSLJZA9NSKI5", "dateTime": 1519664067812}, {"current_trial": 138, "trialdata": {"rt": -1, "trial_type": "single-stim", "stimulus": "<p id=\"stim\">6</p>", "internal_node_id": "0.0-98.0-4.0", "time_elapsed": 699662, "key_press": -1, "trial_index": 138}, "uniqueid": "MTK2989:339ANSOTR69H0P9WHHYSLJZA9NSKI5", "dateTime": 1519664068812}, {"current_trial": 139, "trialdata": {"rt": -1, "trial_type": "single-stim", "stimulus": "<p id=\"stim\">5</p>", "internal_node_id": "0.0-98.0-5.0", "time_elapsed": 700662, "key_press": -1, "trial_index": 139}, "uniqueid": "MTK2989:339ANSOTR69H0P9WHHYSLJZA9NSKI5", "dateTime": 1519664069812}, {"current_trial": 140, "trialdata": {"rt": -1, "trial_type": "single-stim", "stimulus": "<p id=\"stim\">4</p>", "internal_node_id": "0.0-98.0-6.0", "time_elapsed": 701664, "key_press": -1, "trial_index": 140}, "uniqueid": "MTK2989:339ANSOTR69H0P9WHHYSLJZA9NSKI5", "dateTime": 1519664070814}, {"current_trial": 141, "trialdata": {"rt": -1, "trial_type": "single-stim", "stimulus": "<p id=\"stim\">3</p>", "internal_node_id": "0.0-98.0-7.0", "time_elapsed": 702665, "key_press": -1, "trial_index": 141}, "uniqueid": "MTK2989:339ANSOTR69H0P9WHHYSLJZA9NSKI5", "dateTime": 1519664071815}, {"current_trial": 142, "trialdata": {"rt": -1, "trial_type": "single-stim", "stimulus": "<p id=\"stim\">2</p>", "internal_node_id": "0.0-98.0-8.0", "time_elapsed": 703666, "key_press": -1, "trial_index": 142}, "uniqueid": "MTK2989:339ANSOTR69H0P9WHHYSLJZA9NSKI5", "dateTime": 1519664072816}, {"current_trial": 143, "trialdata": {"rt": -1, "trial_type": "single-stim", "stimulus": "<p id=\"stim\">1</p>", "internal_node_id": "0.0-98.0-9.0", "time_elapsed": 704665, "key_press": -1, "trial_index": 143}, "uniqueid": "MTK2989:339ANSOTR69H0P9WHHYSLJZA9NSKI5", "dateTime": 1519664073815}, {"current_trial": 144, "trialdata": {"rt": -1, "trial_type": "single-stim", "stimulus": "<p id=\"stim\">+</p>", "internal_node_id": "0.0-99.0-0.0", "time_elapsed": 706167, "key_press": -1, "type": "FIXATION", "trial_index": 144}, "uniqueid": "MTK2989:339ANSOTR69H0P9WHHYSLJZA9NSKI5", "dateTime": 1519664075317}, {"current_trial": 145, "trialdata": {"rt": -1000, "trial_type": "single-audio", "word": "brook", "stimulus": "/static/audio/wordpool/BROOK.wav", "conditions": [12, 1600, "a", 12000], "internal_node_id": "0.0-100.0", "trial": 4, "time_elapsed": 708617, "serialpos": 0, "key_press": -1, "wordID": 176, "type": "PRES_AUD", "trial_index": 145}, "uniqueid": "MTK2989:339ANSOTR69H0P9WHHYSLJZA9NSKI5", "dateTime": 1519664077767}, {"current_trial": 146, "trialdata": {"rt": -1000, "trial_type": "single-audio", "word": "gazelle", "stimulus": "/static/audio/wordpool/GAZELLE.wav", "conditions": [12, 1600, "a", 12000], "internal_node_id": "0.0-101.0", "trial": 4, "time_elapsed": 711293, "serialpos": 1, "key_press": -1, "wordID": 627, "type": "PRES_AUD", "trial_index": 146}, "uniqueid": "MTK2989:339ANSOTR69H0P9WHHYSLJZA9NSKI5", "dateTime": 1519664080443}, {"current_trial": 147, "trialdata": {"rt": -1000, "trial_type": "single-audio", "word": "hostess", "stimulus": "/static/audio/wordpool/HOSTESS.wav", "conditions": [12, 1600, "a", 12000], "internal_node_id": "0.0-102.0", "trial": 4, "time_elapsed": 714026, "serialpos": 2, "key_press": -1, "wordID": 722, "type": "PRES_AUD", "trial_index": 147}, "uniqueid": "MTK2989:339ANSOTR69H0P9WHHYSLJZA9NSKI5", "dateTime": 1519664083176}, {"current_trial": 148, "trialdata": {"rt": -1000, "trial_type": "single-audio", "word": "frame", "stimulus": "/static/audio/wordpool/FRAME.wav", "conditions": [12, 1600, "a", 12000], "internal_node_id": "0.0-103.0", "trial": 4, "time_elapsed": 716455, "serialpos": 3, "key_press": -1, "wordID": 599, "type": "PRES_AUD", "trial_index": 148}, "uniqueid": "MTK2989:339ANSOTR69H0P9WHHYSLJZA9NSKI5", "dateTime": 1519664085605}, {"current_trial": 149, "trialdata": {"rt": -1000, "trial_type": "single-audio", "word": "fireplace", "stimulus": "/static/audio/wordpool/FIREPLACE.wav", "conditions": [12, 1600, "a", 12000], "internal_node_id": "0.0-104.0", "trial": 4, "time_elapsed": 719146, "serialpos": 4, "key_press": -1, "wordID": 569, "type": "PRES_AUD", "trial_index": 149}, "uniqueid": "MTK2989:339ANSOTR69H0P9WHHYSLJZA9NSKI5", "dateTime": 1519664088296}, {"current_trial": 150, "trialdata": {"rt": -1000, "trial_type": "single-audio", "word": "playground", "stimulus": "/static/audio/wordpool/PLAYGROUND.wav", "conditions": [12, 1600, "a", 12000], "internal_node_id": "0.0-105.0", "trial": 4, "time_elapsed": 721892, "serialpos": 5, "key_press": -1, "wordID": 1086, "type": "PRES_AUD", "trial_index": 150}, "uniqueid": "MTK2989:339ANSOTR69H0P9WHHYSLJZA9NSKI5", "dateTime": 1519664091042}, {"current_trial": 151, "trialdata": {"rt": -1000, "trial_type": "single-audio", "word": "plaza", "stimulus": "/static/audio/wordpool/PLAZA.wav", "conditions": [12, 1600, "a", 12000], "internal_node_id": "0.0-106.0", "trial": 4, "time_elapsed": 724433, "serialpos": 6, "key_press": -1, "wordID": 1087, "type": "PRES_AUD", "trial_index": 151}, "uniqueid": "MTK2989:339ANSOTR69H0P9WHHYSLJZA9NSKI5", "dateTime": 1519664093583}, {"current_trial": 152, "trialdata": {"rt": -1000, "trial_type": "single-audio", "word": "dress", "stimulus": "/static/audio/wordpool/DRESS.wav", "conditions": [12, 1600, "a", 12000], "internal_node_id": "0.0-107.0", "trial": 4, "time_elapsed": 726991, "serialpos": 7, "key_press": -1, "wordID": 494, "type": "PRES_AUD", "trial_index": 152}, "uniqueid": "MTK2989:339ANSOTR69H0P9WHHYSLJZA9NSKI5", "dateTime": 1519664096141}, {"current_trial": 153, "trialdata": {"rt": -1000, "trial_type": "single-audio", "word": "scissors", "stimulus": "/static/audio/wordpool/SCISSORS.wav", "conditions": [12, 1600, "a", 12000], "internal_node_id": "0.0-108.0", "trial": 4, "time_elapsed": 729606, "serialpos": 8, "key_press": -1, "wordID": 1249, "type": "PRES_AUD", "trial_index": 153}, "uniqueid": "MTK2989:339ANSOTR69H0P9WHHYSLJZA9NSKI5", "dateTime": 1519664098756}, {"current_trial": 154, "trialdata": {"rt": -1000, "trial_type": "single-audio", "word": "tweezers", "stimulus": "/static/audio/wordpool/TWEEZERS.wav", "conditions": [12, 1600, "a", 12000], "internal_node_id": "0.0-109.0", "trial": 4, "time_elapsed": 732470, "serialpos": 9, "key_press": -1, "wordID": 1525, "type": "PRES_AUD", "trial_index": 154}, "uniqueid": "MTK2989:339ANSOTR69H0P9WHHYSLJZA9NSKI5", "dateTime": 1519664101620}, {"current_trial": 155, "trialdata": {"rt": -1000, "trial_type": "single-audio", "word": "skirt", "stimulus": "/static/audio/wordpool/SKIRT.wav", "conditions": [12, 1600, "a", 12000], "internal_node_id": "0.0-110.0", "trial": 4, "time_elapsed": 734933, "serialpos": 10, "key_press": -1, "wordID": 1318, "type": "PRES_AUD", "trial_index": 155}, "uniqueid": "MTK2989:339ANSOTR69H0P9WHHYSLJZA9NSKI5", "dateTime": 1519664104083}, {"current_trial": 156, "trialdata": {"rt": -1000, "trial_type": "single-audio", "word": "swamp", "stimulus": "/static/audio/wordpool/SWAMP.wav", "conditions": [12, 1600, "a", 12000], "internal_node_id": "0.0-111.0", "trial": 4, "time_elapsed": 737380, "serialpos": 11, "key_press": -1, "wordID": 1415, "type": "PRES_AUD", "trial_index": 156}, "uniqueid": "MTK2989:339ANSOTR69H0P9WHHYSLJZA9NSKI5", "dateTime": 1519664106530}, {"current_trial": 157, "trialdata": {"rt": -1, "trial_type": "single-stim", "stimulus": "", "internal_node_id": "0.0-112.0-0.0", "time_elapsed": 738602, "key_press": -1, "type": "PRE_RECALL_DELAY", "trial_index": 157}, "uniqueid": "MTK2989:339ANSOTR69H0P9WHHYSLJZA9NSKI5", "dateTime": 1519664107752}, {"current_trial": 158, "trialdata": {"rt": -1000, "trial_type": "single-audio", "stimulus": "/static/audio/400Hz.wav", "internal_node_id": "0.0-113.0", "time_elapsed": 739103, "key_press": -1, "type": "PRE_RECALL_ALERT", "trial_index": 158}, "uniqueid": "MTK2989:339ANSOTR69H0P9WHHYSLJZA9NSKI5", "dateTime": 1519664108254}, {"current_trial": 159, "trialdata": {"rt": [1867, 2920, 4688, 7110, 12682, 13975], "recwords": ["swamp", "skirt", "scissors", "tweezers", "gazelle", "river"], "key_times": [1142, 1379, 1468, 1576, 1720, 1867, 2122, 2269, 2398, 2591, 2798, 2920, 3414, 3569, 3769, 3964, 4116, 4239, 4300, 4438, 4688, 5258, 5376, 5745, 5837, 6082, 6244, 6498, 6691, 6818, 6910, 7110, 11419, 11563, 11736, 11956, 12195, 12351, 12521, 12682, 13457, 13602, 13689, 13781, 13904, 13975], "trial_type": "free-recall", "conditions": [12, 1600, "a", 12000], "internal_node_id": "0.0-114.0-0.0", "key_presses": [83, 87, 65, 77, 80, 13, 83, 75, 73, 82, 84, 13, 83, 67, 73, 83, 83, 79, 82, 83, 13, 84, 82, 8, 87, 69, 69, 90, 69, 82, 83, 13, 71, 65, 90, 69, 76, 76, 69, 13, 82, 73, 86, 69, 82, 13], "trial": 4, "time_elapsed": 799104, "type": "FREE_RECALL", "trial_index": 159}, "uniqueid": "MTK2989:339ANSOTR69H0P9WHHYSLJZA9NSKI5", "dateTime": 1519664168256}, {"current_trial": 160, "trialdata": {"rt": 1597, "trial_type": "text", "internal_node_id": "0.0-115.0", "time_elapsed": 802707, "key_press": 100, "type": "INSTRUCTIONS", "trial_index": 160}, "uniqueid": "MTK2989:339ANSOTR69H0P9WHHYSLJZA9NSKI5", "dateTime": 1519664171857}, {"current_trial": 161, "trialdata": {"rt": [2319, 4409, 5682, 7373, 9623, 11595], "trial_type": "math-distractor", "key_times": [1762, 1898, 2319, 4006, 4210, 4409, 5377, 5534, 5682, 7089, 7252, 7373, 8987, 9435, 9623, 11361, 11595], "responses": ["15", "18", "11", "11", "10", "8"], "num2": [3, 9, 4, 6, 1, 1, 1], "num3": [5, 6, 1, 4, 6, 6, 4], "conditions": [24, 1600, "a", 12000], "internal_node_id": "0.0-116.0", "key_presses": [97, 101, 13, 97, 104, 13, 97, 97, 13, 97, 97, 13, 97, 96, 13, 104, 13], "trial": 5, "time_elapsed": 816709, "type": "DISTRACTOR", "trial_index": 161, "num1": [7, 3, 6, 1, 3, 1, 7]}, "uniqueid": "MTK2989:339ANSOTR69H0P9WHHYSLJZA9NSKI5", "dateTime": 1519664185859}, {"current_trial": 162, "trialdata": {"rt": -1, "trial_type": "single-stim", "stimulus": "<p id=\"stim\">10</p>", "internal_node_id": "0.0-117.0-0.0", "time_elapsed": 819710, "key_press": -1, "trial_index": 162}, "uniqueid": "MTK2989:339ANSOTR69H0P9WHHYSLJZA9NSKI5", "dateTime": 1519664188860}, {"current_trial": 163, "trialdata": {"rt": -1, "trial_type": "single-stim", "stimulus": "<p id=\"stim\">9</p>", "internal_node_id": "0.0-117.0-1.0", "time_elapsed": 820710, "key_press": -1, "trial_index": 163}, "uniqueid": "MTK2989:339ANSOTR69H0P9WHHYSLJZA9NSKI5", "dateTime": 1519664189860}, {"current_trial": 164, "trialdata": {"rt": -1, "trial_type": "single-stim", "stimulus": "<p id=\"stim\">8</p>", "internal_node_id": "0.0-117.0-2.0", "time_elapsed": 821710, "key_press": -1, "trial_index": 164}, "uniqueid": "MTK2989:339ANSOTR69H0P9WHHYSLJZA9NSKI5", "dateTime": 1519664190860}, {"current_trial": 165, "trialdata": {"rt": -1, "trial_type": "single-stim", "stimulus": "<p id=\"stim\">7</p>", "internal_node_id": "0.0-117.0-3.0", "time_elapsed": 822711, "key_press": -1, "trial_index": 165}, "uniqueid": "MTK2989:339ANSOTR69H0P9WHHYSLJZA9NSKI5", "dateTime": 1519664191861}, {"current_trial": 166, "trialdata": {"rt": -1, "trial_type": "single-stim", "stimulus": "<p id=\"stim\">6</p>", "internal_node_id": "0.0-117.0-4.0", "time_elapsed": 823712, "key_press": -1, "trial_index": 166}, "uniqueid": "MTK2989:339ANSOTR69H0P9WHHYSLJZA9NSKI5", "dateTime": 1519664192862}, {"current_trial": 167, "trialdata": {"rt": -1, "trial_type": "single-stim", "stimulus": "<p id=\"stim\">5</p>", "internal_node_id": "0.0-117.0-5.0", "time_elapsed": 824711, "key_press": -1, "trial_index": 167}, "uniqueid": "MTK2989:339ANSOTR69H0P9WHHYSLJZA9NSKI5", "dateTime": 1519664193861}, {"current_trial": 168, "trialdata": {"rt": -1, "trial_type": "single-stim", "stimulus": "<p id=\"stim\">4</p>", "internal_node_id": "0.0-117.0-6.0", "time_elapsed": 825712, "key_press": -1, "trial_index": 168}, "uniqueid": "MTK2989:339ANSOTR69H0P9WHHYSLJZA9NSKI5", "dateTime": 1519664194862}, {"current_trial": 169, "trialdata": {"rt": -1, "trial_type": "single-stim", "stimulus": "<p id=\"stim\">3</p>", "internal_node_id": "0.0-117.0-7.0", "time_elapsed": 826712, "key_press": -1, "trial_index": 169}, "uniqueid": "MTK2989:339ANSOTR69H0P9WHHYSLJZA9NSKI5", "dateTime": 1519664195862}, {"current_trial": 170, "trialdata": {"rt": -1, "trial_type": "single-stim", "stimulus": "<p id=\"stim\">2</p>", "internal_node_id": "0.0-117.0-8.0", "time_elapsed": 827712, "key_press": -1, "trial_index": 170}, "uniqueid": "MTK2989:339ANSOTR69H0P9WHHYSLJZA9NSKI5", "dateTime": 1519664196862}, {"current_trial": 171, "trialdata": {"rt": -1, "trial_type": "single-stim", "stimulus": "<p id=\"stim\">1</p>", "internal_node_id": "0.0-117.0-9.0", "time_elapsed": 828870, "key_press": -1, "trial_index": 171}, "uniqueid": "MTK2989:339ANSOTR69H0P9WHHYSLJZA9NSKI5", "dateTime": 1519664198020}, {"current_trial": 172, "trialdata": {"rt": -1, "trial_type": "single-stim", "stimulus": "<p id=\"stim\">+</p>", "internal_node_id": "0.0-118.0-0.0", "time_elapsed": 830372, "key_press": -1, "type": "FIXATION", "trial_index": 172}, "uniqueid": "MTK2989:339ANSOTR69H0P9WHHYSLJZA9NSKI5", "dateTime": 1519664199522}, {"current_trial": 173, "trialdata": {"rt": -1000, "trial_type": "single-audio", "word": "tuba", "stimulus": "/static/audio/wordpool/TUBA.wav", "conditions": [24, 1600, "a", 12000], "internal_node_id": "0.0-119.0", "trial": 5, "time_elapsed": 833138, "serialpos": 0, "key_press": -1, "wordID": 1514, "type": "PRES_AUD", "trial_index": 173}, "uniqueid": "MTK2989:339ANSOTR69H0P9WHHYSLJZA9NSKI5", "dateTime": 1519664202288}, {"current_trial": 174, "trialdata": {"rt": -1000, "trial_type": "single-audio", "word": "curtain", "stimulus": "/static/audio/wordpool/CURTAIN.wav", "conditions": [24, 1600, "a", 12000], "internal_node_id": "0.0-120.0", "trial": 5, "time_elapsed": 835829, "serialpos": 1, "key_press": -1, "wordID": 426, "type": "PRES_AUD", "trial_index": 174}, "uniqueid": "MTK2989:339ANSOTR69H0P9WHHYSLJZA9NSKI5", "dateTime": 1519664204979}, {"current_trial": 175, "trialdata": {"rt": -1000, "trial_type": "single-audio", "word": "gymnast", "stimulus": "/static/audio/wordpool/GYMNAST.wav", "conditions": [24, 1600, "a", 12000], "internal_node_id": "0.0-121.0", "trial": 5, "time_elapsed": 838238, "serialpos": 2, "key_press": -1, "wordID": 674, "type": "PRES_AUD", "trial_index": 175}, "uniqueid": "MTK2989:339ANSOTR69H0P9WHHYSLJZA9NSKI5", "dateTime": 1519664207389}, {"current_trial": 176, "trialdata": {"rt": -1000, "trial_type": "single-audio", "word": "onion", "stimulus": "/static/audio/wordpool/ONION.wav", "conditions": [24, 1600, "a", 12000], "internal_node_id": "0.0-122.0", "trial": 5, "time_elapsed": 841014, "serialpos": 3, "key_press": -1, "wordID": 976, "type": "PRES_AUD", "trial_index": 176}, "uniqueid": "MTK2989:339ANSOTR69H0P9WHHYSLJZA9NSKI5", "dateTime": 1519664210164}, {"current_trial": 177, "trialdata": {"rt": -1000, "trial_type": "single-audio", "word": "rooster", "stimulus": "/static/audio/wordpool/ROOSTER.wav", "conditions": [24, 1600, "a", 12000], "internal_node_id": "0.0-123.0", "trial": 5, "time_elapsed": 843469, "serialpos": 4, "key_press": -1, "wordID": 1208, "type": "PRES_AUD", "trial_index": 177}, "uniqueid": "MTK2989:339ANSOTR69H0P9WHHYSLJZA9NSKI5", "dateTime": 1519664212619}, {"current_trial": 178, "trialdata": {"rt": -1000, "trial_type": "single-audio", "word": "fireman", "stimulus": "/static/audio/wordpool/FIREMAN.wav", "conditions": [24, 1600, "a", 12000], "internal_node_id": "0.0-124.0", "trial": 5, "time_elapsed": 846148, "serialpos": 5, "key_press": -1, "wordID": 568, "type": "PRES_AUD", "trial_index": 178}, "uniqueid": "MTK2989:339ANSOTR69H0P9WHHYSLJZA9NSKI5", "dateTime": 1519664215298}, {"current_trial": 179, "trialdata": {"rt": -1000, "trial_type": "single-audio", "word": "salmon", "stimulus": "/static/audio/wordpool/SALMON.wav", "conditions": [24, 1600, "a", 12000], "internal_node_id": "0.0-125.0", "trial": 5, "time_elapsed": 848549, "serialpos": 6, "key_press": -1, "wordID": 1226, "type": "PRES_AUD", "trial_index": 179}, "uniqueid": "MTK2989:339ANSOTR69H0P9WHHYSLJZA9NSKI5", "dateTime": 1519664217699}, {"current_trial": 180, "trialdata": {"rt": -1000, "trial_type": "single-audio", "word": "trout", "stimulus": "/static/audio/wordpool/TROUT.wav", "conditions": [24, 1600, "a", 12000], "internal_node_id": "0.0-126.0", "trial": 5, "time_elapsed": 851198, "serialpos": 7, "key_press": -1, "wordID": 1510, "type": "PRES_AUD", "trial_index": 180}, "uniqueid": "MTK2989:339ANSOTR69H0P9WHHYSLJZA9NSKI5", "dateTime": 1519664220348}, {"current_trial": 181, "trialdata": {"rt": -1000, "trial_type": "single-audio", "word": "robber", "stimulus": "/static/audio/wordpool/ROBBER.wav", "conditions": [24, 1600, "a", 12000], "internal_node_id": "0.0-127.0", "trial": 5, "time_elapsed": 853770, "serialpos": 8, "key_press": -1, "wordID": 1196, "type": "PRES_AUD", "trial_index": 181}, "uniqueid": "MTK2989:339ANSOTR69H0P9WHHYSLJZA9NSKI5", "dateTime": 1519664222921}, {"current_trial": 182, "trialdata": {"rt": -1000, "trial_type": "single-audio", "word": "wife", "stimulus": "/static/audio/wordpool/WIFE.wav", "conditions": [24, 1600, "a", 12000], "internal_node_id": "0.0-128.0", "trial": 5, "time_elapsed": 856447, "serialpos": 9, "key_press": -1, "wordID": 1608, "type": "PRES_AUD", "trial_index": 182}, "uniqueid": "MTK2989:339ANSOTR69H0P9WHHYSLJZA9NSKI5", "dateTime": 1519664225597}, {"current_trial": 183, "trialdata": {"rt": -1000, "trial_type": "single-audio", "word": "shoulder", "stimulus": "/static/audio/wordpool/SHOULDER.wav", "conditions": [24, 1600, "a", 12000], "internal_node_id": "0.0-129.0", "trial": 5, "time_elapsed": 858998, "serialpos": 10, "key_press": -1, "wordID": 1293, "type": "PRES_AUD", "trial_index": 183}, "uniqueid": "MTK2989:339ANSOTR69H0P9WHHYSLJZA9NSKI5", "dateTime": 1519664228148}, {"current_trial": 184, "trialdata": {"rt": -1000, "trial_type": "single-audio", "word": "harp", "stimulus": "/static/audio/wordpool/HARP.wav", "conditions": [24, 1600, "a", 12000], "internal_node_id": "0.0-130.0", "trial": 5, "time_elapsed": 861696, "serialpos": 11, "key_press": -1, "wordID": 688, "type": "PRES_AUD", "trial_index": 184}, "uniqueid": "MTK2989:339ANSOTR69H0P9WHHYSLJZA9NSKI5", "dateTime": 1519664230847}, {"current_trial": 185, "trialdata": {"rt": -1000, "trial_type": "single-audio", "word": "arm", "stimulus": "/static/audio/wordpool/ARM.wav", "conditions": [24, 1600, "a", 12000], "internal_node_id": "0.0-131.0", "trial": 5, "time_elapsed": 864475, "serialpos": 12, "key_press": -1, "wordID": 37, "type": "PRES_AUD", "trial_index": 185}, "uniqueid": "MTK2989:339ANSOTR69H0P9WHHYSLJZA9NSKI5", "dateTime": 1519664233625}, {"current_trial": 186, "trialdata": {"rt": -1000, "trial_type": "single-audio", "word": "actor", "stimulus": "/static/audio/wordpool/ACTOR.wav", "conditions": [24, 1600, "a", 12000], "internal_node_id": "0.0-132.0", "trial": 5, "time_elapsed": 867220, "serialpos": 13, "key_press": -1, "wordID": 4, "type": "PRES_AUD", "trial_index": 186}, "uniqueid": "MTK2989:339ANSOTR69H0P9WHHYSLJZA9NSKI5", "dateTime": 1519664236370}, {"current_trial": 187, "trialdata": {"rt": -1000, "trial_type": "single-audio", "word": "film", "stimulus": "/static/audio/wordpool/FILM.wav", "conditions": [24, 1600, "a", 12000], "internal_node_id": "0.0-133.0", "trial": 5, "time_elapsed": 869767, "serialpos": 14, "key_press": -1, "wordID": 564, "type": "PRES_AUD", "trial_index": 187}, "uniqueid": "MTK2989:339ANSOTR69H0P9WHHYSLJZA9NSKI5", "dateTime": 1519664238917}, {"current_trial": 188, "trialdata": {"rt": -1000, "trial_type": "single-audio", "word": "blender", "stimulus": "/static/audio/wordpool/BLENDER.wav", "conditions": [24, 1600, "a", 12000], "internal_node_id": "0.0-134.0", "trial": 5, "time_elapsed": 872300, "serialpos": 15, "key_press": -1, "wordID": 135, "type": "PRES_AUD", "trial_index": 188}, "uniqueid": "MTK2989:339ANSOTR69H0P9WHHYSLJZA9NSKI5", "dateTime": 1519664241450}, {"current_trial": 189, "trialdata": {"rt": -1000, "trial_type": "single-audio", "word": "grave", "stimulus": "/static/audio/wordpool/GRAVE.wav", "conditions": [24, 1600, "a", 12000], "internal_node_id": "0.0-135.0", "trial": 5, "time_elapsed": 874889, "serialpos": 16, "key_press": -1, "wordID": 657, "type": "PRES_AUD", "trial_index": 189}, "uniqueid": "MTK2989:339ANSOTR69H0P9WHHYSLJZA9NSKI5", "dateTime": 1519664244039}, {"current_trial": 190, "trialdata": {"rt": -1000, "trial_type": "single-audio", "word": "antler", "stimulus": "/static/audio/wordpool/ANTLER.wav", "conditions": [24, 1600, "a", 12000], "internal_node_id": "0.0-136.0", "trial": 5, "time_elapsed": 877610, "serialpos": 17, "key_press": -1, "wordID": 28, "type": "PRES_AUD", "trial_index": 190}, "uniqueid": "MTK2989:339ANSOTR69H0P9WHHYSLJZA9NSKI5", "dateTime": 1519664246760}, {"current_trial": 191, "trialdata": {"rt": -1000, "trial_type": "single-audio", "word": "compass", "stimulus": "/static/audio/wordpool/COMPASS.wav", "conditions": [24, 1600, "a", 12000], "internal_node_id": "0.0-137.0", "trial": 5, "time_elapsed": 880128, "serialpos": 18, "key_press": -1, "wordID": 357, "type": "PRES_AUD", "trial_index": 191}, "uniqueid": "MTK2989:339ANSOTR69H0P9WHHYSLJZA9NSKI5", "dateTime": 1519664249278}, {"current_trial": 192, "trialdata": {"rt": -1000, "trial_type": "single-audio", "word": "perfume", "stimulus": "/static/audio/wordpool/PERFUME.wav", "conditions": [24, 1600, "a", 12000], "internal_node_id": "0.0-138.0", "trial": 5, "time_elapsed": 882726, "serialpos": 19, "key_press": -1, "wordID": 1048, "type": "PRES_AUD", "trial_index": 192}, "uniqueid": "MTK2989:339ANSOTR69H0P9WHHYSLJZA9NSKI5", "dateTime": 1519664251876}, {"current_trial": 193, "trialdata": {"rt": -1000, "trial_type": "single-audio", "word": "icing", "stimulus": "/static/audio/wordpool/ICING.wav", "conditions": [24, 1600, "a", 12000], "internal_node_id": "0.0-139.0", "trial": 5, "time_elapsed": 885351, "serialpos": 20, "key_press": -1, "wordID": 731, "type": "PRES_AUD", "trial_index": 193}, "uniqueid": "MTK2989:339ANSOTR69H0P9WHHYSLJZA9NSKI5", "dateTime": 1519664254501}, {"current_trial": 194, "trialdata": {"rt": -1000, "trial_type": "single-audio", "word": "cloud", "stimulus": "/static/audio/wordpool/CLOUD.wav", "conditions": [24, 1600, "a", 12000], "internal_node_id": "0.0-140.0", "trial": 5, "time_elapsed": 887806, "serialpos": 21, "key_press": -1, "wordID": 327, "type": "PRES_AUD", "trial_index": 194}, "uniqueid": "MTK2989:339ANSOTR69H0P9WHHYSLJZA9NSKI5", "dateTime": 1519664256956}, {"current_trial": 195, "trialdata": {"rt": -1000, "trial_type": "single-audio", "word": "clam", "stimulus": "/static/audio/wordpool/CLAM.wav", "conditions": [24, 1600, "a", 12000], "internal_node_id": "0.0-141.0", "trial": 5, "time_elapsed": 890250, "serialpos": 22, "key_press": -1, "wordID": 314, "type": "PRES_AUD", "trial_index": 195}, "uniqueid": "MTK2989:339ANSOTR69H0P9WHHYSLJZA9NSKI5", "dateTime": 1519664259400}, {"current_trial": 196, "trialdata": {"rt": -1000, "trial_type": "single-audio", "word": "leg", "stimulus": "/static/audio/wordpool/LEG.wav", "conditions": [24, 1600, "a", 12000], "internal_node_id": "0.0-142.0", "trial": 5, "time_elapsed": 893109, "serialpos": 23, "key_press": -1, "wordID": 808, "type": "PRES_AUD", "trial_index": 196}, "uniqueid": "MTK2989:339ANSOTR69H0P9WHHYSLJZA9NSKI5", "dateTime": 1519664262259}, {"current_trial": 197, "trialdata": {"rt": -1, "trial_type": "single-stim", "stimulus": "", "internal_node_id": "0.0-143.0-0.0", "time_elapsed": 894348, "key_press": -1, "type": "PRE_RECALL_DELAY", "trial_index": 197}, "uniqueid": "MTK2989:339ANSOTR69H0P9WHHYSLJZA9NSKI5", "dateTime": 1519664263498}, {"current_trial": 198, "trialdata": {"rt": -1000, "trial_type": "single-audio", "stimulus": "/static/audio/400Hz.wav", "internal_node_id": "0.0-144.0", "time_elapsed": 894849, "key_press": -1, "type": "PRE_RECALL_ALERT", "trial_index": 198}, "uniqueid": "MTK2989:339ANSOTR69H0P9WHHYSLJZA9NSKI5", "dateTime": 1519664264000}, {"current_trial": 199, "trialdata": {"rt": [1485, 2378, 3890, 5241, 6545, 8048, 12937, 19701, 25948, 26944, 43459], "recwords": ["leg", "arm", "shoulder", "wife", "actor", "film", "clam", "onion", "fireman", "robber", "gymnist"], "key_times": [1092, 1204, 1354, 1485, 1602, 1730, 1937, 2378, 2696, 3006, 3127, 3219, 3366, 3485, 3666, 3776, 3890, 4183, 4508, 4724, 4841, 5241, 5545, 5856, 6185, 6307, 6415, 6545, 6838, 6999, 7165, 7570, 7781, 7900, 8048, 12083, 12285, 12459, 12792, 12937, 18376, 18511, 18598, 18802, 18803, 19222, 19472, 19701, 25141, 25265, 25361, 25448, 25544, 25685, 25758, 25948, 26182, 26282, 26419, 26593, 26761, 26869, 26944, 41883, 42054, 42277, 42753, 42923, 43098, 43312, 43459], "trial_type": "free-recall", "conditions": [24, 1600, "a", 12000], "internal_node_id": "0.0-145.0-0.0", "key_presses": [76, 69, 71, 13, 65, 82, 77, 13, 83, 72, 79, 85, 76, 68, 69, 82, 13, 87, 73, 70, 69, 13, 65, 67, 84, 79, 82, 13, 70, 73, 82, 8, 76, 77, 13, 67, 76, 65, 77, 13, 79, 78, 73, 79, 80, 8, 78, 13, 70, 73, 82, 69, 77, 65, 78, 13, 82, 79, 66, 66, 69, 82, 13, 71, 89, 77, 78, 73, 83, 84, 13], "trial": 5, "time_elapsed": 954851, "type": "FREE_RECALL", "trial_index": 199}, "uniqueid": "MTK2989:339ANSOTR69H0P9WHHYSLJZA9NSKI5", "dateTime": 1519664324003}, {"current_trial": 200, "trialdata": {"rt": 1180, "trial_type": "text", "internal_node_id": "0.0-146.0", "time_elapsed": 958035, "key_press": 101, "type": "INSTRUCTIONS", "trial_index": 200}, "uniqueid": "MTK2989:339ANSOTR69H0P9WHHYSLJZA9NSKI5", "dateTime": 1519664327185}, {"current_trial": 201, "trialdata": {"rt": [1629, 4747, 6481, 10930, 14647, 17776, 20993], "trial_type": "math-distractor", "key_times": [1442, 1629, 4334, 4545, 4747, 6299, 6481, 10175, 10602, 10930, 14408, 14513, 14647, 17460, 17599, 17776, 20651, 20828, 20993, 22532, 22704, 22899, 23997], "responses": ["5", "17", "8", "23", "20", "18", "24"], "num2": [2, 9, 1, 9, 5, 5, 7, 3], "num3": [1, 2, 3, 6, 6, 5, 9, 5], "conditions": [12, 1600, "a", 24000], "internal_node_id": "0.0-147.0", "key_presses": [101, 13, 97, 103, 13, 104, 13, 98, 99, 13, 98, 96, 13, 97, 104, 13, 98, 100, 13, 97, 99, 99, 8], "trial": 6, "time_elapsed": 984036, "type": "DISTRACTOR", "trial_index": 201, "num1": [2, 6, 4, 8, 9, 8, 8, 5]}, "uniqueid": "MTK2989:339ANSOTR69H0P9WHHYSLJZA9NSKI5", "dateTime": 1519664353186}, {"current_trial": 202, "trialdata": {"rt": -1, "trial_type": "single-stim", "stimulus": "<p id=\"stim\">10</p>", "internal_node_id": "0.0-148.0-0.0", "time_elapsed": 987038, "key_press": -1, "trial_index": 202}, "uniqueid": "MTK2989:339ANSOTR69H0P9WHHYSLJZA9NSKI5", "dateTime": 1519664356188}, {"current_trial": 203, "trialdata": {"rt": -1, "trial_type": "single-stim", "stimulus": "<p id=\"stim\">9</p>", "internal_node_id": "0.0-148.0-1.0", "time_elapsed": 988038, "key_press": -1, "trial_index": 203}, "uniqueid": "MTK2989:339ANSOTR69H0P9WHHYSLJZA9NSKI5", "dateTime": 1519664357188}, {"current_trial": 204, "trialdata": {"rt": -1, "trial_type": "single-stim", "stimulus": "<p id=\"stim\">8</p>", "internal_node_id": "0.0-148.0-2.0", "time_elapsed": 989038, "key_press": -1, "trial_index": 204}, "uniqueid": "MTK2989:339ANSOTR69H0P9WHHYSLJZA9NSKI5", "dateTime": 1519664358188}, {"current_trial": 205, "trialdata": {"rt": -1, "trial_type": "single-stim", "stimulus": "<p id=\"stim\">7</p>", "internal_node_id": "0.0-148.0-3.0", "time_elapsed": 990038, "key_press": -1, "trial_index": 205}, "uniqueid": "MTK2989:339ANSOTR69H0P9WHHYSLJZA9NSKI5", "dateTime": 1519664359188}, {"current_trial": 206, "trialdata": {"rt": -1, "trial_type": "single-stim", "stimulus": "<p id=\"stim\">6</p>", "internal_node_id": "0.0-148.0-4.0", "time_elapsed": 991038, "key_press": -1, "trial_index": 206}, "uniqueid": "MTK2989:339ANSOTR69H0P9WHHYSLJZA9NSKI5", "dateTime": 1519664360188}, {"current_trial": 207, "trialdata": {"rt": -1, "trial_type": "single-stim", "stimulus": "<p id=\"stim\">5</p>", "internal_node_id": "0.0-148.0-5.0", "time_elapsed": 992039, "key_press": -1, "trial_index": 207}, "uniqueid": "MTK2989:339ANSOTR69H0P9WHHYSLJZA9NSKI5", "dateTime": 1519664361189}, {"current_trial": 208, "trialdata": {"rt": -1, "trial_type": "single-stim", "stimulus": "<p id=\"stim\">4</p>", "internal_node_id": "0.0-148.0-6.0", "time_elapsed": 993040, "key_press": -1, "trial_index": 208}, "uniqueid": "MTK2989:339ANSOTR69H0P9WHHYSLJZA9NSKI5", "dateTime": 1519664362190}, {"current_trial": 209, "trialdata": {"rt": -1, "trial_type": "single-stim", "stimulus": "<p id=\"stim\">3</p>", "internal_node_id": "0.0-148.0-7.0", "time_elapsed": 994040, "key_press": -1, "trial_index": 209}, "uniqueid": "MTK2989:339ANSOTR69H0P9WHHYSLJZA9NSKI5", "dateTime": 1519664363190}, {"current_trial": 210, "trialdata": {"rt": -1, "trial_type": "single-stim", "stimulus": "<p id=\"stim\">2</p>", "internal_node_id": "0.0-148.0-8.0", "time_elapsed": 995040, "key_press": -1, "trial_index": 210}, "uniqueid": "MTK2989:339ANSOTR69H0P9WHHYSLJZA9NSKI5", "dateTime": 1519664364190}, {"current_trial": 211, "trialdata": {"rt": -1, "trial_type": "single-stim", "stimulus": "<p id=\"stim\">1</p>", "internal_node_id": "0.0-148.0-9.0", "time_elapsed": 996041, "key_press": -1, "trial_index": 211}, "uniqueid": "MTK2989:339ANSOTR69H0P9WHHYSLJZA9NSKI5", "dateTime": 1519664365191}, {"current_trial": 212, "trialdata": {"rt": -1, "trial_type": "single-stim", "stimulus": "<p id=\"stim\">+</p>", "internal_node_id": "0.0-149.0-0.0", "time_elapsed": 997540, "key_press": -1, "type": "FIXATION", "trial_index": 212}, "uniqueid": "MTK2989:339ANSOTR69H0P9WHHYSLJZA9NSKI5", "dateTime": 1519664366690}, {"current_trial": 213, "trialdata": {"rt": -1000, "trial_type": "single-audio", "word": "mummy", "stimulus": "/static/audio/wordpool/MUMMY.wav", "conditions": [12, 1600, "a", 24000], "internal_node_id": "0.0-150.0", "trial": 6, "time_elapsed": 1000045, "serialpos": 0, "key_press": -1, "wordID": 931, "type": "PRES_AUD", "trial_index": 213}, "uniqueid": "MTK2989:339ANSOTR69H0P9WHHYSLJZA9NSKI5", "dateTime": 1519664369195}, {"current_trial": 214, "trialdata": {"rt": -1000, "trial_type": "single-audio", "word": "silk", "stimulus": "/static/audio/wordpool/SILK.wav", "conditions": [12, 1600, "a", 24000], "internal_node_id": "0.0-151.0", "trial": 6, "time_elapsed": 1002559, "serialpos": 1, "key_press": -1, "wordID": 1306, "type": "PRES_AUD", "trial_index": 214}, "uniqueid": "MTK2989:339ANSOTR69H0P9WHHYSLJZA9NSKI5", "dateTime": 1519664371709}, {"current_trial": 215, "trialdata": {"rt": -1000, "trial_type": "single-audio", "word": "couch", "stimulus": "/static/audio/wordpool/COUCH.wav", "conditions": [12, 1600, "a", 24000], "internal_node_id": "0.0-152.0", "trial": 6, "time_elapsed": 1005100, "serialpos": 2, "key_press": -1, "wordID": 385, "type": "PRES_AUD", "trial_index": 215}, "uniqueid": "MTK2989:339ANSOTR69H0P9WHHYSLJZA9NSKI5", "dateTime": 1519664374251}, {"current_trial": 216, "trialdata": {"rt": -1000, "trial_type": "single-audio", "word": "bug", "stimulus": "/static/audio/wordpool/BUG.wav", "conditions": [12, 1600, "a", 24000], "internal_node_id": "0.0-153.0", "trial": 6, "time_elapsed": 1007683, "serialpos": 3, "key_press": -1, "wordID": 186, "type": "PRES_AUD", "trial_index": 216}, "uniqueid": "MTK2989:339ANSOTR69H0P9WHHYSLJZA9NSKI5", "dateTime": 1519664376834}, {"current_trial": 217, "trialdata": {"rt": -1000, "trial_type": "single-audio", "word": "husband", "stimulus": "/static/audio/wordpool/HUSBAND.wav", "conditions": [12, 1600, "a", 24000], "internal_node_id": "0.0-154.0", "trial": 6, "time_elapsed": 1010262, "serialpos": 4, "key_press": -1, "wordID": 727, "type": "PRES_AUD", "trial_index": 217}, "uniqueid": "MTK2989:339ANSOTR69H0P9WHHYSLJZA9NSKI5", "dateTime": 1519664379412}, {"current_trial": 218, "trialdata": {"rt": -1000, "trial_type": "single-audio", "word": "sister", "stimulus": "/static/audio/wordpool/SISTER.wav", "conditions": [12, 1600, "a", 24000], "internal_node_id": "0.0-155.0", "trial": 6, "time_elapsed": 1013000, "serialpos": 5, "key_press": -1, "wordID": 1311, "type": "PRES_AUD", "trial_index": 218}, "uniqueid": "MTK2989:339ANSOTR69H0P9WHHYSLJZA9NSKI5", "dateTime": 1519664382150}, {"current_trial": 219, "trialdata": {"rt": -1000, "trial_type": "single-audio", "word": "juggler", "stimulus": "/static/audio/wordpool/JUGGLER.wav", "conditions": [12, 1600, "a", 24000], "internal_node_id": "0.0-156.0", "trial": 6, "time_elapsed": 1015548, "serialpos": 6, "key_press": -1, "wordID": 762, "type": "PRES_AUD", "trial_index": 219}, "uniqueid": "MTK2989:339ANSOTR69H0P9WHHYSLJZA9NSKI5", "dateTime": 1519664384699}, {"current_trial": 220, "trialdata": {"rt": -1000, "trial_type": "single-audio", "word": "guitar", "stimulus": "/static/audio/wordpool/GUITAR.wav", "conditions": [12, 1600, "a", 24000], "internal_node_id": "0.0-157.0", "trial": 6, "time_elapsed": 1018079, "serialpos": 7, "key_press": -1, "wordID": 669, "type": "PRES_AUD", "trial_index": 220}, "uniqueid": "MTK2989:339ANSOTR69H0P9WHHYSLJZA9NSKI5", "dateTime": 1519664387229}, {"current_trial": 221, "trialdata": {"rt": -1000, "trial_type": "single-audio", "word": "primate", "stimulus": "/static/audio/wordpool/PRIMATE.wav", "conditions": [12, 1600, "a", 24000], "internal_node_id": "0.0-158.0", "trial": 6, "time_elapsed": 1020646, "serialpos": 8, "key_press": -1, "wordID": 1122, "type": "PRES_AUD", "trial_index": 221}, "uniqueid": "MTK2989:339ANSOTR69H0P9WHHYSLJZA9NSKI5", "dateTime": 1519664389796}, {"current_trial": 222, "trialdata": {"rt": -1000, "trial_type": "single-audio", "word": "toaster", "stimulus": "/static/audio/wordpool/TOASTER.wav", "conditions": [12, 1600, "a", 24000], "internal_node_id": "0.0-159.0", "trial": 6, "time_elapsed": 1023121, "serialpos": 9, "key_press": -1, "wordID": 1471, "type": "PRES_AUD", "trial_index": 222}, "uniqueid": "MTK2989:339ANSOTR69H0P9WHHYSLJZA9NSKI5", "dateTime": 1519664392271}, {"current_trial": 223, "trialdata": {"rt": -1000, "trial_type": "single-audio", "word": "virus", "stimulus": "/static/audio/wordpool/VIRUS.wav", "conditions": [12, 1600, "a", 24000], "internal_node_id": "0.0-160.0", "trial": 6, "time_elapsed": 1025840, "serialpos": 10, "key_press": -1, "wordID": 1571, "type": "PRES_AUD", "trial_index": 223}, "uniqueid": "MTK2989:339ANSOTR69H0P9WHHYSLJZA9NSKI5", "dateTime": 1519664394990}, {"current_trial": 224, "trialdata": {"rt": -1000, "trial_type": "single-audio", "word": "critic", "stimulus": "/static/audio/wordpool/CRITIC.wav", "conditions": [12, 1600, "a", 24000], "internal_node_id": "0.0-161.0", "trial": 6, "time_elapsed": 1028538, "serialpos": 11, "key_press": -1, "wordID": 409, "type": "PRES_AUD", "trial_index": 224}, "uniqueid": "MTK2989:339ANSOTR69H0P9WHHYSLJZA9NSKI5", "dateTime": 1519664397689}, {"current_trial": 225, "trialdata": {"rt": -1, "trial_type": "single-stim", "stimulus": "", "internal_node_id": "0.0-162.0-0.0", "time_elapsed": 1029825, "key_press": -1, "type": "PRE_RECALL_DELAY", "trial_index": 225}, "uniqueid": "MTK2989:339ANSOTR69H0P9WHHYSLJZA9NSKI5", "dateTime": 1519664398975}, {"current_trial": 226, "trialdata": {"rt": -1000, "trial_type": "single-audio", "stimulus": "/static/audio/400Hz.wav", "internal_node_id": "0.0-163.0", "time_elapsed": 1030326, "key_press": -1, "type": "PRE_RECALL_ALERT", "trial_index": 226}, "uniqueid": "MTK2989:339ANSOTR69H0P9WHHYSLJZA9NSKI5", "dateTime": 1519664399476}, {"current_trial": 227, "trialdata": {"rt": [2809, 3939, 10431, 12700, 39015], "recwords": ["virus", "toaster", "kurdick", "husband", "virus"], "key_times": [1808, 2040, 2320, 2504, 2611, 2809, 3083, 3241, 3328, 3413, 3595, 3648, 3770, 3939, 4616, 4830, 4939, 5530, 5641, 5808, 6904, 7290, 7475, 8335, 9269, 9369, 9481, 9610, 10160, 10431, 11648, 11737, 11871, 12171, 12314, 12442, 12567, 12700, 37182, 37375, 37606, 37845, 38049, 39015], "trial_type": "free-recall", "conditions": [12, 1600, "a", 24000], "internal_node_id": "0.0-164.0-0.0", "key_presses": [86, 73, 82, 85, 83, 13, 84, 79, 65, 83, 84, 69, 82, 13, 75, 85, 82, 68, 73, 67, 75, 8, 8, 75, 8, 67, 75, 220, 8, 13, 72, 85, 83, 66, 65, 78, 68, 13, 86, 73, 82, 85, 83, 13], "trial": 6, "time_elapsed": 1090326, "type": "FREE_RECALL", "trial_index": 227}, "uniqueid": "MTK2989:339ANSOTR69H0P9WHHYSLJZA9NSKI5", "dateTime": 1519664459479}, {"current_trial": 228, "trialdata": {"rt": 4421, "trial_type": "text", "internal_node_id": "0.0-165.0", "time_elapsed": 1096749, "key_press": 98, "type": "INSTRUCTIONS", "trial_index": 228}, "uniqueid": "MTK2989:339ANSOTR69H0P9WHHYSLJZA9NSKI5", "dateTime": 1519664465899}, {"current_trial": 229, "trialdata": {"rt": [3340, 7666, 9758, 11521, 13536, 15188, 17788, 20888, 23188], "trial_type": "math-distractor", "key_times": [2626, 3340, 6168, 7004, 7666, 9361, 9573, 9758, 11078, 11305, 11521, 13285, 13536, 14820, 15018, 15188, 17497, 17614, 17788, 20500, 20703, 20888, 22873, 22995, 23188], "responses": ["5", "14", "18", "16", "7", "16", "15", "14", "15"], "num2": [1, 7, 8, 8, 3, 1, 4, 7, 2, 9], "num3": [1, 2, 4, 6, 2, 9, 9, 5, 7, 1], "conditions": [24, 800, "a", 24000], "internal_node_id": "0.0-166.0", "key_presses": [101, 13, 97, 100, 13, 97, 104, 13, 97, 102, 13, 103, 13, 97, 102, 13, 97, 101, 13, 97, 100, 13, 97, 101, 13], "trial": 7, "time_elapsed": 1122749, "type": "DISTRACTOR", "trial_index": 229, "num1": [3, 5, 6, 2, 2, 6, 2, 2, 6, 3]}, "uniqueid": "MTK2989:339ANSOTR69H0P9WHHYSLJZA9NSKI5", "dateTime": 1519664491899}, {"current_trial": 230, "trialdata": {"rt": -1, "trial_type": "single-stim", "stimulus": "<p id=\"stim\">10</p>", "internal_node_id": "0.0-167.0-0.0", "time_elapsed": 1125750, "key_press": -1, "trial_index": 230}, "uniqueid": "MTK2989:339ANSOTR69H0P9WHHYSLJZA9NSKI5", "dateTime": 1519664494900}, {"current_trial": 231, "trialdata": {"rt": -1, "trial_type": "single-stim", "stimulus": "<p id=\"stim\">9</p>", "internal_node_id": "0.0-167.0-1.0", "time_elapsed": 1126751, "key_press": -1, "trial_index": 231}, "uniqueid": "MTK2989:339ANSOTR69H0P9WHHYSLJZA9NSKI5", "dateTime": 1519664495901}, {"current_trial": 232, "trialdata": {"rt": -1, "trial_type": "single-stim", "stimulus": "<p id=\"stim\">8</p>", "internal_node_id": "0.0-167.0-2.0", "time_elapsed": 1127752, "key_press": -1, "trial_index": 232}, "uniqueid": "MTK2989:339ANSOTR69H0P9WHHYSLJZA9NSKI5", "dateTime": 1519664496902}, {"current_trial": 233, "trialdata": {"rt": -1, "trial_type": "single-stim", "stimulus": "<p id=\"stim\">7</p>", "internal_node_id": "0.0-167.0-3.0", "time_elapsed": 1128752, "key_press": -1, "trial_index": 233}, "uniqueid": "MTK2989:339ANSOTR69H0P9WHHYSLJZA9NSKI5", "dateTime": 1519664497902}, {"current_trial": 234, "trialdata": {"rt": -1, "trial_type": "single-stim", "stimulus": "<p id=\"stim\">6</p>", "internal_node_id": "0.0-167.0-4.0", "time_elapsed": 1129752, "key_press": -1, "trial_index": 234}, "uniqueid": "MTK2989:339ANSOTR69H0P9WHHYSLJZA9NSKI5", "dateTime": 1519664498902}, {"current_trial": 235, "trialdata": {"rt": -1, "trial_type": "single-stim", "stimulus": "<p id=\"stim\">5</p>", "internal_node_id": "0.0-167.0-5.0", "time_elapsed": 1130752, "key_press": -1, "trial_index": 235}, "uniqueid": "MTK2989:339ANSOTR69H0P9WHHYSLJZA9NSKI5", "dateTime": 1519664499902}, {"current_trial": 236, "trialdata": {"rt": -1, "trial_type": "single-stim", "stimulus": "<p id=\"stim\">4</p>", "internal_node_id": "0.0-167.0-6.0", "time_elapsed": 1131752, "key_press": -1, "trial_index": 236}, "uniqueid": "MTK2989:339ANSOTR69H0P9WHHYSLJZA9NSKI5", "dateTime": 1519664500902}, {"current_trial": 237, "trialdata": {"rt": -1, "trial_type": "single-stim", "stimulus": "<p id=\"stim\">3</p>", "internal_node_id": "0.0-167.0-7.0", "time_elapsed": 1132752, "key_press": -1, "trial_index": 237}, "uniqueid": "MTK2989:339ANSOTR69H0P9WHHYSLJZA9NSKI5", "dateTime": 1519664501902}, {"current_trial": 238, "trialdata": {"rt": -1, "trial_type": "single-stim", "stimulus": "<p id=\"stim\">2</p>", "internal_node_id": "0.0-167.0-8.0", "time_elapsed": 1133752, "key_press": -1, "trial_index": 238}, "uniqueid": "MTK2989:339ANSOTR69H0P9WHHYSLJZA9NSKI5", "dateTime": 1519664502902}, {"current_trial": 239, "trialdata": {"rt": -1, "trial_type": "single-stim", "stimulus": "<p id=\"stim\">1</p>", "internal_node_id": "0.0-167.0-9.0", "time_elapsed": 1134753, "key_press": -1, "trial_index": 239}, "uniqueid": "MTK2989:339ANSOTR69H0P9WHHYSLJZA9NSKI5", "dateTime": 1519664503903}, {"current_trial": 240, "trialdata": {"rt": -1, "trial_type": "single-stim", "stimulus": "<p id=\"stim\">+</p>", "internal_node_id": "0.0-168.0-0.0", "time_elapsed": 1136253, "key_press": -1, "type": "FIXATION", "trial_index": 240}, "uniqueid": "MTK2989:339ANSOTR69H0P9WHHYSLJZA9NSKI5", "dateTime": 1519664505403}, {"current_trial": 241, "trialdata": {"rt": -1000, "trial_type": "single-audio", "word": "fox", "stimulus": "/static/audio/wordpool/FOX.wav", "conditions": [24, 800, "a", 24000], "internal_node_id": "0.0-169.0", "trial": 7, "time_elapsed": 1138137, "serialpos": 0, "key_press": -1, "wordID": 597, "type": "PRES_AUD", "trial_index": 241}, "uniqueid": "MTK2989:339ANSOTR69H0P9WHHYSLJZA9NSKI5", "dateTime": 1519664507288}, {"current_trial": 242, "trialdata": {"rt": -1000, "trial_type": "single-audio", "word": "fruit", "stimulus": "/static/audio/wordpool/FRUIT.wav", "conditions": [24, 800, "a", 24000], "internal_node_id": "0.0-170.0", "trial": 7, "time_elapsed": 1139978, "serialpos": 1, "key_press": -1, "wordID": 609, "type": "PRES_AUD", "trial_index": 242}, "uniqueid": "MTK2989:339ANSOTR69H0P9WHHYSLJZA9NSKI5", "dateTime": 1519664509128}, {"current_trial": 243, "trialdata": {"rt": -1000, "trial_type": "single-audio", "word": "flask", "stimulus": "/static/audio/wordpool/FLASK.wav", "conditions": [24, 800, "a", 24000], "internal_node_id": "0.0-171.0", "trial": 7, "time_elapsed": 1141617, "serialpos": 2, "key_press": -1, "wordID": 575, "type": "PRES_AUD", "trial_index": 243}, "uniqueid": "MTK2989:339ANSOTR69H0P9WHHYSLJZA9NSKI5", "dateTime": 1519664510767}, {"current_trial": 244, "trialdata": {"rt": -1000, "trial_type": "single-audio", "word": "passage", "stimulus": "/static/audio/wordpool/PASSAGE.wav", "conditions": [24, 800, "a", 24000], "internal_node_id": "0.0-172.0", "trial": 7, "time_elapsed": 1143577, "serialpos": 3, "key_press": -1, "wordID": 1018, "type": "PRES_AUD", "trial_index": 244}, "uniqueid": "MTK2989:339ANSOTR69H0P9WHHYSLJZA9NSKI5", "dateTime": 1519664512728}, {"current_trial": 245, "trialdata": {"rt": -1000, "trial_type": "single-audio", "word": "novel", "stimulus": "/static/audio/wordpool/NOVEL.wav", "conditions": [24, 800, "a", 24000], "internal_node_id": "0.0-173.0", "trial": 7, "time_elapsed": 1145217, "serialpos": 4, "key_press": -1, "wordID": 959, "type": "PRES_AUD", "trial_index": 245}, "uniqueid": "MTK2989:339ANSOTR69H0P9WHHYSLJZA9NSKI5", "dateTime": 1519664514367}, {"current_trial": 246, "trialdata": {"rt": -1000, "trial_type": "single-audio", "word": "chest", "stimulus": "/static/audio/wordpool/CHEST.wav", "conditions": [24, 800, "a", 24000], "internal_node_id": "0.0-174.0", "trial": 7, "time_elapsed": 1147009, "serialpos": 5, "key_press": -1, "wordID": 294, "type": "PRES_AUD", "trial_index": 246}, "uniqueid": "MTK2989:339ANSOTR69H0P9WHHYSLJZA9NSKI5", "dateTime": 1519664516159}, {"current_trial": 247, "trialdata": {"rt": -1000, "trial_type": "single-audio", "word": "star", "stimulus": "/static/audio/wordpool/STAR.wav", "conditions": [24, 800, "a", 24000], "internal_node_id": "0.0-175.0", "trial": 7, "time_elapsed": 1149001, "serialpos": 6, "key_press": -1, "wordID": 1372, "type": "PRES_AUD", "trial_index": 247}, "uniqueid": "MTK2989:339ANSOTR69H0P9WHHYSLJZA9NSKI5", "dateTime": 1519664518151}, {"current_trial": 248, "trialdata": {"rt": -1000, "trial_type": "single-audio", "word": "actress", "stimulus": "/static/audio/wordpool/ACTRESS.wav", "conditions": [24, 800, "a", 24000], "internal_node_id": "0.0-176.0", "trial": 7, "time_elapsed": 1150825, "serialpos": 7, "key_press": -1, "wordID": 5, "type": "PRES_AUD", "trial_index": 248}, "uniqueid": "MTK2989:339ANSOTR69H0P9WHHYSLJZA9NSKI5", 