{"assignmentId": "3MTMREQS4WPTP7KFU7PISW5MJIVWA0", "workerId": "MTK2827", "questiondata": {"origin": "Afghanistan", "strat-rehearsal": "61", "marital": "Married/Domestic Partnership", "education": "High school diploma", "ethnicity": "Not Hispanic", "color_depth": 24, "distracted": "No", "wrote-notes": "No", "strat-other": "N/A", "screen_width": 1920, "avail_screen_width": 1920, "avail_screen_height": 958, "strat-image": "86", "language": "English", "gender": "Female", "age": "32", "gender_other": "", "race": ["White"], "strat-categorize": "55", "pixel_depth": 24, "strat-spatial": "55", "strat-story": "55", "race_other": "", "screen_height": 1080}, "bonus": 0, "hitId": "3087LXLJ6MNTQO28MEDNAIBPUHN0FP", "counterbalance": 1671, "useragent": "Mozilla/5.0 (Macintosh; Intel Mac OS X 10_13_3) AppleWebKit/537.36 (KHTML, like Gecko) Chrome/64.0.3282.167 Safari/537.36", "eventdata": [{"eventtype": "initialized", "interval": 0, "value": null, "timestamp": 1519411445396}, {"eventtype": "window_resize", "interval": 1, "value": [1920, 907], "timestamp": 1519411445397}, {"eventtype": "window_resize", "interval": 45665, "value": [1748, 893], "timestamp": 1519411491062}, {"eventtype": "focus", "interval": 1293, "value": "off", "timestamp": 1519411492355}, {"eventtype": "focus", "interval": 1660, "value": "on", "timestamp": 1519411494015}, {"eventtype": "focus", "interval": 1041474, "value": "off", "timestamp": 1519412535489}, {"eventtype": "focus", "interval": 7943, "value": "on", "timestamp": 1519412543432}, {"eventtype": "focus", "interval": 956, "value": "off", "timestamp": 1519412544388}, {"eventtype": "focus", "interval": 4399, "value": "on", "timestamp": 1519412548787}, {"eventtype": "focus", "interval": 1192, "value": "off", "timestamp": 1519412549979}, {"eventtype": "focus", "interval": 1587, "value": "on", "timestamp": 1519412551566}, {"eventtype": "window_resize", "interval": 624402, "value": [1707, 893], "timestamp": 1519413175968}, {"eventtype": "window_resize", "interval": 772, "value": [1546, 893], "timestamp": 1519413176740}, {"eventtype": "window_resize", "interval": 2042, "value": [1559, 893], "timestamp": 1519413178782}, {"eventtype": "window_resize", "interval": 959, "value": [1711, 893], "timestamp": 1519413179741}, {"eventtype": "focus", "interval": 1887, "value": "off", "timestamp": 1519413181628}, {"eventtype": "focus", "interval": 4005, "value": "on", "timestamp": 1519413185633}, {"eventtype": "focus", "interval": 1193, "value": "off", "timestamp": 1519413186826}, {"eventtype": "focus", "interval": 934, "value": "on", "timestamp": 1519413187760}], "data": [{"current_trial": 0, "trialdata": {"rt": 1462, "trial_type": "text", "internal_node_id": "0.0-0.0", "time_elapsed": 1464, "key_press": 32, "type": "INSTRUCTIONS", "trial_index": 0}, "uniqueid": "MTK2827:3MTMREQS4WPTP7KFU7PISW5MJIVWA0", "dateTime": 1519411447647}, {"current_trial": 1, "trialdata": {"rt": 31960, "trial_type": "text", "internal_node_id": "0.0-1.0", "time_elapsed": 33426, "key_press": 32, "type": "INSTRUCTIONS", "trial_index": 1}, "uniqueid": "MTK2827:3MTMREQS4WPTP7KFU7PISW5MJIVWA0", "dateTime": 1519411479608}, {"current_trial": 2, "trialdata": {"rt": [6078], "trial_type": "audio-test", "responses": ["ocean"], "internal_node_id": "0.0-2.0", "time_elapsed": 39512, "type": "AUDIO_TEST", "trial_index": 2}, "uniqueid": "MTK2827:3MTMREQS4WPTP7KFU7PISW5MJIVWA0", "dateTime": 1519411485694}, {"current_trial": 3, "trialdata": {"rt": [18391], "trial_type": "audio-test", "responses": ["crystal"], "internal_node_id": "0.0-3.0", "time_elapsed": 57906, "type": "AUDIO_TEST", "trial_index": 3}, "uniqueid": "MTK2827:3MTMREQS4WPTP7KFU7PISW5MJIVWA0", "dateTime": 1519411504088}, {"current_trial": 4, "trialdata": {"rt": [6488], "trial_type": "audio-test", "responses": ["spice"], "internal_node_id": "0.0-4.0", "time_elapsed": 64397, "type": "AUDIO_TEST", "trial_index": 4}, "uniqueid": "MTK2827:3MTMREQS4WPTP7KFU7PISW5MJIVWA0", "dateTime": 1519411510579}, {"current_trial": 5, "trialdata": {"rt": 22614, "trial_type": "survey-text", "responses": "{\"Q0\":\"11:00 pm\",\"Q1\":\"7:30 am\",\"Q2\":\"5\"}", "internal_node_id": "0.0-5.0", "time_elapsed": 87764, "type": "SLEEP_SURVEY", "trial_index": 5}, "uniqueid": "MTK2827:3MTMREQS4WPTP7KFU7PISW5MJIVWA0", "dateTime": 1519411533946}, {"current_trial": 6, "trialdata": {"rt": 40127, "trial_type": "text", "internal_node_id": "0.0-6.0", "time_elapsed": 128894, "key_press": 32, "type": "INSTRUCTIONS", "trial_index": 6}, "uniqueid": "MTK2827:3MTMREQS4WPTP7KFU7PISW5MJIVWA0", "dateTime": 1519411575076}, {"current_trial": 7, "trialdata": {"rt": 15762, "trial_type": "text", "internal_node_id": "0.0-7.0", "time_elapsed": 145161, "key_press": 32, "type": "INSTRUCTIONS", "trial_index": 7}, "uniqueid": "MTK2827:3MTMREQS4WPTP7KFU7PISW5MJIVWA0", "dateTime": 1519411591343}, {"current_trial": 8, "trialdata": {"rt": 3308, "trial_type": "text", "internal_node_id": "0.0-8.0", "time_elapsed": 148974, "key_press": 32, "type": "INSTRUCTIONS", "trial_index": 8}, "uniqueid": "MTK2827:3MTMREQS4WPTP7KFU7PISW5MJIVWA0", "dateTime": 1519411595156}, {"current_trial": 9, "trialdata": {"rt": [2933, 4766, 7331, 9109, 11617, 14149, 16691], "trial_type": "math-distractor", "key_times": [2505, 2550, 2933, 4451, 4586, 4766, 6870, 7072, 7331, 8771, 8974, 9109, 11393, 11482, 11617, 13721, 13958, 14149, 16173, 16534, 16691], "responses": ["19", "19", "16", "13", "21", "19", "15"], "num2": [9, 5, 6, 2, 9, 6, 4, 3], "num3": [4, 9, 5, 3, 3, 5, 3, 3], "conditions": [18, 1200, "v", 18000], "internal_node_id": "0.0-9.0", "key_presses": [49, 57, 13, 49, 57, 13, 49, 54, 13, 49, 51, 13, 50, 49, 13, 49, 57, 13, 49, 53, 13], "trial": 0, "time_elapsed": 167982, "type": "DISTRACTOR", "trial_index": 9, "num1": [6, 5, 5, 8, 9, 8, 8, 7]}, "uniqueid": "MTK2827:3MTMREQS4WPTP7KFU7PISW5MJIVWA0", "dateTime": 1519411614164}, {"current_trial": 10, "trialdata": {"rt": -1, "trial_type": "single-stim", "stimulus": "<p id=\"stim\">10</p>", "internal_node_id": "0.0-10.0-0.0", "time_elapsed": 170988, "key_press": -1, "trial_index": 10}, "uniqueid": "MTK2827:3MTMREQS4WPTP7KFU7PISW5MJIVWA0", "dateTime": 1519411617170}, {"current_trial": 11, "trialdata": {"rt": -1, "trial_type": "single-stim", "stimulus": "<p id=\"stim\">9</p>", "internal_node_id": "0.0-10.0-1.0", "time_elapsed": 171992, "key_press": -1, "trial_index": 11}, "uniqueid": "MTK2827:3MTMREQS4WPTP7KFU7PISW5MJIVWA0", "dateTime": 1519411618174}, {"current_trial": 12, "trialdata": {"rt": -1, "trial_type": "single-stim", "stimulus": "<p id=\"stim\">8</p>", "internal_node_id": "0.0-10.0-2.0", "time_elapsed": 172996, "key_press": -1, "trial_index": 12}, "uniqueid": "MTK2827:3MTMREQS4WPTP7KFU7PISW5MJIVWA0", "dateTime": 1519411619178}, {"current_trial": 13, "trialdata": {"rt": -1, "trial_type": "single-stim", "stimulus": "<p id=\"stim\">7</p>", "internal_node_id": "0.0-10.0-3.0", "time_elapsed": 174000, "key_press": -1, "trial_index": 13}, "uniqueid": "MTK2827:3MTMREQS4WPTP7KFU7PISW5MJIVWA0", "dateTime": 1519411620182}, {"current_trial": 14, "trialdata": {"rt": -1, "trial_type": "single-stim", "stimulus": "<p id=\"stim\">6</p>", "internal_node_id": "0.0-10.0-4.0", "time_elapsed": 175004, "key_press": -1, "trial_index": 14}, "uniqueid": "MTK2827:3MTMREQS4WPTP7KFU7PISW5MJIVWA0", "dateTime": 1519411621186}, {"current_trial": 15, "trialdata": {"rt": -1, "trial_type": "single-stim", "stimulus": "<p id=\"stim\">5</p>", "internal_node_id": "0.0-10.0-5.0", "time_elapsed": 176008, "key_press": -1, "trial_index": 15}, "uniqueid": "MTK2827:3MTMREQS4WPTP7KFU7PISW5MJIVWA0", "dateTime": 1519411622190}, {"current_trial": 16, "trialdata": {"rt": -1, "trial_type": "single-stim", "stimulus": "<p id=\"stim\">4</p>", "internal_node_id": "0.0-10.0-6.0", "time_elapsed": 177012, "key_press": -1, "trial_index": 16}, "uniqueid": "MTK2827:3MTMREQS4WPTP7KFU7PISW5MJIVWA0", "dateTime": 1519411623194}, {"current_trial": 17, "trialdata": {"rt": -1, "trial_type": "single-stim", "stimulus": "<p id=\"stim\">3</p>", "internal_node_id": "0.0-10.0-7.0", "time_elapsed": 178017, "key_press": -1, "trial_index": 17}, "uniqueid": "MTK2827:3MTMREQS4WPTP7KFU7PISW5MJIVWA0", "dateTime": 1519411624199}, {"current_trial": 18, "trialdata": {"rt": -1, "trial_type": "single-stim", "stimulus": "<p id=\"stim\">2</p>", "internal_node_id": "0.0-10.0-8.0", "time_elapsed": 179020, "key_press": -1, "trial_index": 18}, "uniqueid": "MTK2827:3MTMREQS4WPTP7KFU7PISW5MJIVWA0", "dateTime": 1519411625202}, {"current_trial": 19, "trialdata": {"rt": -1, "trial_type": "single-stim", "stimulus": "<p id=\"stim\">1</p>", "internal_node_id": "0.0-10.0-9.0", "time_elapsed": 180024, "key_press": -1, "trial_index": 19}, "uniqueid": "MTK2827:3MTMREQS4WPTP7KFU7PISW5MJIVWA0", "dateTime": 1519411626206}, {"current_trial": 20, "trialdata": {"rt": -1, "trial_type": "single-stim", "stimulus": "<p id=\"stim\">+</p>", "internal_node_id": "0.0-11.0-0.0", "time_elapsed": 181528, "key_press": -1, "type": "FIXATION", "trial_index": 20}, "uniqueid": "MTK2827:3MTMREQS4WPTP7KFU7PISW5MJIVWA0", "dateTime": 1519411627710}, {"current_trial": 21, "trialdata": {"rt": -1, "trial_type": "single-stim", "word": "clock", "stimulus": "<p id=\"stim\">CLOCK</p>", "conditions": [18, 1200, "v", 18000], "internal_node_id": "0.0-12.0", "trial": 0, "time_elapsed": 182729, "serialpos": 0, "key_press": -1, "wordID": 324, "type": "PRES_VIS", "trial_index": 21}, "uniqueid": "MTK2827:3MTMREQS4WPTP7KFU7PISW5MJIVWA0", "dateTime": 1519411628911}, {"current_trial": 22, "trialdata": {"rt": -1, "trial_type": "single-stim", "word": "gravel", "stimulus": "<p id=\"stim\">GRAVEL</p>", "conditions": [18, 1200, "v", 18000], "internal_node_id": "0.0-13.0", "trial": 0, "time_elapsed": 185132, "serialpos": 1, "key_press": -1, "wordID": 658, "type": "PRES_VIS", "trial_index": 22}, "uniqueid": "MTK2827:3MTMREQS4WPTP7KFU7PISW5MJIVWA0", "dateTime": 1519411631314}, {"current_trial": 23, "trialdata": {"rt": -1, "trial_type": "single-stim", "word": "spouse", "stimulus": "<p id=\"stim\">SPOUSE</p>", "conditions": [18, 1200, "v", 18000], "internal_node_id": "0.0-14.0", "trial": 0, "time_elapsed": 187345, "serialpos": 2, "key_press": -1, "wordID": 1357, "type": "PRES_VIS", "trial_index": 23}, "uniqueid": "MTK2827:3MTMREQS4WPTP7KFU7PISW5MJIVWA0", "dateTime": 1519411633527}, {"current_trial": 24, "trialdata": {"rt": -1, "trial_type": "single-stim", "word": "wasp", "stimulus": "<p id=\"stim\">WASP</p>", "conditions": [18, 1200, "v", 18000], "internal_node_id": "0.0-15.0", "trial": 0, "time_elapsed": 189467, "serialpos": 3, "key_press": -1, "wordID": 1592, "type": "PRES_VIS", "trial_index": 24}, "uniqueid": "MTK2827:3MTMREQS4WPTP7KFU7PISW5MJIVWA0", "dateTime": 1519411635649}, {"current_trial": 25, "trialdata": {"rt": -1, "trial_type": "single-stim", "word": "waiter", "stimulus": "<p id=\"stim\">WAITER</p>", "conditions": [18, 1200, "v", 18000], "internal_node_id": "0.0-16.0", "trial": 0, "time_elapsed": 191620, "serialpos": 4, "key_press": -1, "wordID": 1579, "type": "PRES_VIS", "trial_index": 25}, "uniqueid": "MTK2827:3MTMREQS4WPTP7KFU7PISW5MJIVWA0", "dateTime": 1519411637802}, {"current_trial": 26, "trialdata": {"rt": -1, "trial_type": "single-stim", "word": "freckle", "stimulus": "<p id=\"stim\">FRECKLE</p>", "conditions": [18, 1200, "v", 18000], "internal_node_id": "0.0-17.0", "trial": 0, "time_elapsed": 193774, "serialpos": 5, "key_press": -1, "wordID": 601, "type": "PRES_VIS", "trial_index": 26}, "uniqueid": "MTK2827:3MTMREQS4WPTP7KFU7PISW5MJIVWA0", "dateTime": 1519411639956}, {"current_trial": 27, "trialdata": {"rt": -1, "trial_type": "single-stim", "word": "sister", "stimulus": "<p id=\"stim\">SISTER</p>", "conditions": [18, 1200, "v", 18000], "internal_node_id": "0.0-18.0", "trial": 0, "time_elapsed": 195933, "serialpos": 6, "key_press": -1, "wordID": 1311, "type": "PRES_VIS", "trial_index": 27}, "uniqueid": "MTK2827:3MTMREQS4WPTP7KFU7PISW5MJIVWA0", "dateTime": 1519411642116}, {"current_trial": 28, "trialdata": {"rt": -1, "trial_type": "single-stim", "word": "viking", "stimulus": "<p id=\"stim\">VIKING</p>", "conditions": [18, 1200, "v", 18000], "internal_node_id": "0.0-19.0", "trial": 0, "time_elapsed": 198103, "serialpos": 7, "key_press": -1, "wordID": 1564, "type": "PRES_VIS", "trial_index": 28}, "uniqueid": "MTK2827:3MTMREQS4WPTP7KFU7PISW5MJIVWA0", "dateTime": 1519411644285}, {"current_trial": 29, "trialdata": {"rt": -1, "trial_type": "single-stim", "word": "heart", "stimulus": "<p id=\"stim\">HEART</p>", "conditions": [18, 1200, "v", 18000], "internal_node_id": "0.0-20.0", "trial": 0, "time_elapsed": 200262, "serialpos": 8, "key_press": -1, "wordID": 696, "type": "PRES_VIS", "trial_index": 29}, "uniqueid": "MTK2827:3MTMREQS4WPTP7KFU7PISW5MJIVWA0", "dateTime": 1519411646444}, {"current_trial": 30, "trialdata": {"rt": -1, "trial_type": "single-stim", "word": "pebble", "stimulus": "<p id=\"stim\">PEBBLE</p>", "conditions": [18, 1200, "v", 18000], "internal_node_id": "0.0-21.0", "trial": 0, "time_elapsed": 202566, "serialpos": 9, "key_press": -1, "wordID": 1034, "type": "PRES_VIS", "trial_index": 30}, "uniqueid": "MTK2827:3MTMREQS4WPTP7KFU7PISW5MJIVWA0", "dateTime": 1519411648748}, {"current_trial": 31, "trialdata": {"rt": -1, "trial_type": "single-stim", "word": "yacht", "stimulus": "<p id=\"stim\">YACHT</p>", "conditions": [18, 1200, "v", 18000], "internal_node_id": "0.0-22.0", "trial": 0, "time_elapsed": 204870, "serialpos": 10, "key_press": -1, "wordID": 1628, "type": "PRES_VIS", "trial_index": 31}, "uniqueid": "MTK2827:3MTMREQS4WPTP7KFU7PISW5MJIVWA0", "dateTime": 1519411651052}, {"current_trial": 32, "trialdata": {"rt": -1, "trial_type": "single-stim", "word": "peanut", "stimulus": "<p id=\"stim\">PEANUT</p>", "conditions": [18, 1200, "v", 18000], "internal_node_id": "0.0-23.0", "trial": 0, "time_elapsed": 207169, "serialpos": 11, "key_press": -1, "wordID": 1031, "type": "PRES_VIS", "trial_index": 32}, "uniqueid": "MTK2827:3MTMREQS4WPTP7KFU7PISW5MJIVWA0", "dateTime": 1519411653351}, {"current_trial": 33, "trialdata": {"rt": -1, "trial_type": "single-stim", "word": "highway", "stimulus": "<p id=\"stim\">HIGHWAY</p>", "conditions": [18, 1200, "v", 18000], "internal_node_id": "0.0-24.0", "trial": 0, "time_elapsed": 209362, "serialpos": 12, "key_press": -1, "wordID": 706, "type": "PRES_VIS", "trial_index": 33}, "uniqueid": "MTK2827:3MTMREQS4WPTP7KFU7PISW5MJIVWA0", "dateTime": 1519411655544}, {"current_trial": 34, "trialdata": {"rt": -1, "trial_type": "single-stim", "word": "yarn", "stimulus": "<p id=\"stim\">YARN</p>", "conditions": [18, 1200, "v", 18000], "internal_node_id": "0.0-25.0", "trial": 0, "time_elapsed": 211666, "serialpos": 13, "key_press": -1, "wordID": 1630, "type": "PRES_VIS", "trial_index": 34}, "uniqueid": "MTK2827:3MTMREQS4WPTP7KFU7PISW5MJIVWA0", "dateTime": 1519411657848}, {"current_trial": 35, "trialdata": {"rt": -1, "trial_type": "single-stim", "word": "mailbox", "stimulus": "<p id=\"stim\">MAILBOX</p>", "conditions": [18, 1200, "v", 18000], "internal_node_id": "0.0-26.0", "trial": 0, "time_elapsed": 214029, "serialpos": 14, "key_press": -1, "wordID": 856, "type": "PRES_VIS", "trial_index": 35}, "uniqueid": "MTK2827:3MTMREQS4WPTP7KFU7PISW5MJIVWA0", "dateTime": 1519411660211}, {"current_trial": 36, "trialdata": {"rt": -1, "trial_type": "single-stim", "word": "canyon", "stimulus": "<p id=\"stim\">CANYON</p>", "conditions": [18, 1200, "v", 18000], "internal_node_id": "0.0-27.0", "trial": 0, "time_elapsed": 216147, "serialpos": 15, "key_press": -1, "wordID": 234, "type": "PRES_VIS", "trial_index": 36}, "uniqueid": "MTK2827:3MTMREQS4WPTP7KFU7PISW5MJIVWA0", "dateTime": 1519411662329}, {"current_trial": 37, "trialdata": {"rt": -1, "trial_type": "single-stim", "word": "shrub", "stimulus": "<p id=\"stim\">SHRUB</p>", "conditions": [18, 1200, "v", 18000], "internal_node_id": "0.0-28.0", "trial": 0, "time_elapsed": 218381, "serialpos": 16, "key_press": -1, "wordID": 1298, "type": "PRES_VIS", "trial_index": 37}, "uniqueid": "MTK2827:3MTMREQS4WPTP7KFU7PISW5MJIVWA0", "dateTime": 1519411664563}, {"current_trial": 38, "trialdata": {"rt": -1, "trial_type": "single-stim", "word": "county", "stimulus": "<p id=\"stim\">COUNTY</p>", "conditions": [18, 1200, "v", 18000], "internal_node_id": "0.0-29.0", "trial": 0, "time_elapsed": 220784, "serialpos": 17, "key_press": -1, "wordID": 388, "type": "PRES_VIS", "trial_index": 38}, "uniqueid": "MTK2827:3MTMREQS4WPTP7KFU7PISW5MJIVWA0", "dateTime": 1519411666967}, {"current_trial": 39, "trialdata": {"rt": -1, "trial_type": "single-stim", "stimulus": "", "internal_node_id": "0.0-30.0-0.0", "time_elapsed": 223088, "key_press": -1, "type": "PRE_RECALL_DELAY", "trial_index": 39}, "uniqueid": "MTK2827:3MTMREQS4WPTP7KFU7PISW5MJIVWA0", "dateTime": 1519411669270}, {"current_trial": 40, "trialdata": {"rt": -1000, "trial_type": "single-audio", "stimulus": "/static/audio/400Hz.wav", "internal_node_id": "0.0-31.0", "time_elapsed": 223590, "key_press": -1, "type": "PRE_RECALL_ALERT", "trial_index": 40}, "uniqueid": "MTK2827:3MTMREQS4WPTP7KFU7PISW5MJIVWA0", "dateTime": 1519411669772}, {"current_trial": 41, "trialdata": {"rt": [2324, 3943, 5754, 8139, 9242, 13270, 15609, 21100, 28828, 31213, 46289, 46750], "recwords": ["county", "shrub", "gravel", "spouse", "waiter", "yard", "", "county", "cannon", "canyon", "", ""], "key_times": [1222, 1423, 1536, 1783, 1873, 2087, 2324, 2874, 3065, 3223, 3527, 3718, 3943, 4809, 4900, 5057, 5248, 5417, 5518, 5754, 5991, 6160, 6374, 6407, 6891, 7049, 7690, 7780, 7892, 7937, 8139, 8353, 8455, 8600, 8736, 8905, 9017, 9242, 12786, 12887, 12943, 13123, 13270, 15609, 18759, 18839, 18928, 19153, 19232, 19389, 19760, 20762, 21100, 27850, 27962, 28142, 28299, 28480, 28558, 28828, 29684, 29819, 30460, 30663, 30830, 31011, 31213, 46289, 46750], "trial_type": "free-recall", "conditions": [18, 1200, "v", 18000], "internal_node_id": "0.0-32.0-0.0", "key_presses": [67, 79, 85, 78, 84, 89, 13, 83, 72, 82, 85, 66, 13, 71, 82, 65, 86, 69, 76, 13, 83, 80, 73, 85, 8, 8, 79, 85, 83, 69, 13, 87, 65, 73, 84, 69, 82, 13, 89, 65, 82, 68, 13, 13, 67, 79, 85, 78, 84, 89, 8, 89, 13, 67, 65, 78, 78, 79, 78, 13, 67, 65, 78, 89, 79, 78, 13, 32, 13], "trial": 0, "time_elapsed": 283590, "type": "FREE_RECALL", "trial_index": 41}, "uniqueid": "MTK2827:3MTMREQS4WPTP7KFU7PISW5MJIVWA0", "dateTime": 1519411729773}, {"current_trial": 42, "trialdata": {"rt": 1815, "trial_type": "text", "internal_node_id": "0.0-33.0", "time_elapsed": 287407, "key_press": 32, "type": "INSTRUCTIONS", "trial_index": 42}, "uniqueid": "MTK2827:3MTMREQS4WPTP7KFU7PISW5MJIVWA0", "dateTime": 1519411733590}, {"current_trial": 43, "trialdata": {"rt": [2317, 4679, 6929, 11373, 16030], "trial_type": "math-distractor", "key_times": [2024, 2182, 2317, 4510, 4566, 4679, 6614, 6727, 6929, 11092, 11170, 11373, 14950, 15873, 16030], "responses": ["15", "14", "18", "12", "18"], "num2": [6, 3, 9, 4, 9, 3], "num3": [1, 7, 3, 3, 1, 4], "conditions": [18, 1200, "v", 18000], "internal_node_id": "0.0-34.0", "key_presses": [49, 53, 13, 49, 52, 13, 49, 56, 13, 49, 50, 13, 49, 56, 13], "trial": 1, "time_elapsed": 307414, "type": "DISTRACTOR", "trial_index": 43, "num1": [8, 4, 6, 5, 8, 5]}, "uniqueid": "MTK2827:3MTMREQS4WPTP7KFU7PISW5MJIVWA0", "dateTime": 1519411753596}, {"current_trial": 44, "trialdata": {"rt": -1, "trial_type": "single-stim", "stimulus": "<p id=\"stim\">10</p>", "internal_node_id": "0.0-35.0-0.0", "time_elapsed": 310421, "key_press": -1, "trial_index": 44}, "uniqueid": "MTK2827:3MTMREQS4WPTP7KFU7PISW5MJIVWA0", "dateTime": 1519411756603}, {"current_trial": 45, "trialdata": {"rt": -1, "trial_type": "single-stim", "stimulus": "<p id=\"stim\">9</p>", "internal_node_id": "0.0-35.0-1.0", "time_elapsed": 311424, "key_press": -1, "trial_index": 45}, "uniqueid": "MTK2827:3MTMREQS4WPTP7KFU7PISW5MJIVWA0", "dateTime": 1519411757607}, {"current_trial": 46, "trialdata": {"rt": -1, "trial_type": "single-stim", "stimulus": "<p id=\"stim\">8</p>", "internal_node_id": "0.0-35.0-2.0", "time_elapsed": 312429, "key_press": -1, "trial_index": 46}, "uniqueid": "MTK2827:3MTMREQS4WPTP7KFU7PISW5MJIVWA0", "dateTime": 1519411758611}, {"current_trial": 47, "trialdata": {"rt": -1, "trial_type": "single-stim", "stimulus": "<p id=\"stim\">7</p>", "internal_node_id": "0.0-35.0-3.0", "time_elapsed": 313432, "key_press": -1, "trial_index": 47}, "uniqueid": "MTK2827:3MTMREQS4WPTP7KFU7PISW5MJIVWA0", "dateTime": 1519411759614}, {"current_trial": 48, "trialdata": {"rt": -1, "trial_type": "single-stim", "stimulus": "<p id=\"stim\">6</p>", "internal_node_id": "0.0-35.0-4.0", "time_elapsed": 314437, "key_press": -1, "trial_index": 48}, "uniqueid": "MTK2827:3MTMREQS4WPTP7KFU7PISW5MJIVWA0", "dateTime": 1519411760619}, {"current_trial": 49, "trialdata": {"rt": -1, "trial_type": "single-stim", "stimulus": "<p id=\"stim\">5</p>", "internal_node_id": "0.0-35.0-5.0", "time_elapsed": 315441, "key_press": -1, "trial_index": 49}, "uniqueid": "MTK2827:3MTMREQS4WPTP7KFU7PISW5MJIVWA0", "dateTime": 1519411761623}, {"current_trial": 50, "trialdata": {"rt": -1, "trial_type": "single-stim", "stimulus": "<p id=\"stim\">4</p>", "internal_node_id": "0.0-35.0-6.0", "time_elapsed": 316444, "key_press": -1, "trial_index": 50}, "uniqueid": "MTK2827:3MTMREQS4WPTP7KFU7PISW5MJIVWA0", "dateTime": 1519411762626}, {"current_trial": 51, "trialdata": {"rt": -1, "trial_type": "single-stim", "stimulus": "<p id=\"stim\">3</p>", "internal_node_id": "0.0-35.0-7.0", "time_elapsed": 317449, "key_press": -1, "trial_index": 51}, "uniqueid": "MTK2827:3MTMREQS4WPTP7KFU7PISW5MJIVWA0", "dateTime": 1519411763631}, {"current_trial": 52, "trialdata": {"rt": -1, "trial_type": "single-stim", "stimulus": "<p id=\"stim\">2</p>", "internal_node_id": "0.0-35.0-8.0", "time_elapsed": 318453, "key_press": -1, "trial_index": 52}, "uniqueid": "MTK2827:3MTMREQS4WPTP7KFU7PISW5MJIVWA0", "dateTime": 1519411764635}, {"current_trial": 53, "trialdata": {"rt": -1, "trial_type": "single-stim", "stimulus": "<p id=\"stim\">1</p>", "internal_node_id": "0.0-35.0-9.0", "time_elapsed": 319457, "key_press": -1, "trial_index": 53}, "uniqueid": "MTK2827:3MTMREQS4WPTP7KFU7PISW5MJIVWA0", "dateTime": 1519411765639}, {"current_trial": 54, "trialdata": {"rt": -1, "trial_type": "single-stim", "stimulus": "<p id=\"stim\">+</p>", "internal_node_id": "0.0-36.0-0.0", "time_elapsed": 320960, "key_press": -1, "type": "FIXATION", "trial_index": 54}, "uniqueid": "MTK2827:3MTMREQS4WPTP7KFU7PISW5MJIVWA0", "dateTime": 1519411767142}, {"current_trial": 55, "trialdata": {"rt": -1, "trial_type": "single-stim", "word": "scissors", "stimulus": "<p id=\"stim\">SCISSORS</p>", "conditions": [18, 1200, "v", 18000], "internal_node_id": "0.0-37.0", "trial": 1, "time_elapsed": 322162, "serialpos": 0, "key_press": -1, "wordID": 1249, "type": "PRES_VIS", "trial_index": 55}, "uniqueid": "MTK2827:3MTMREQS4WPTP7KFU7PISW5MJIVWA0", "dateTime": 1519411768344}, {"current_trial": 56, "trialdata": {"rt": -1, "trial_type": "single-stim", "word": "cattle", "stimulus": "<p id=\"stim\">CATTLE</p>", "conditions": [18, 1200, "v", 18000], "internal_node_id": "0.0-38.0", "trial": 1, "time_elapsed": 324343, "serialpos": 1, "key_press": -1, "wordID": 260, "type": "PRES_VIS", "trial_index": 56}, "uniqueid": "MTK2827:3MTMREQS4WPTP7KFU7PISW5MJIVWA0", "dateTime": 1519411770525}, {"current_trial": 57, "trialdata": {"rt": -1, "trial_type": "single-stim", "word": "tunnel", "stimulus": "<p id=\"stim\">TUNNEL</p>", "conditions": [18, 1200, "v", 18000], "internal_node_id": "0.0-39.0", "trial": 1, "time_elapsed": 326607, "serialpos": 2, "key_press": -1, "wordID": 1518, "type": "PRES_VIS", "trial_index": 57}, "uniqueid": "MTK2827:3MTMREQS4WPTP7KFU7PISW5MJIVWA0", "dateTime": 1519411772789}, {"current_trial": 58, "trialdata": {"rt": -1, "trial_type": "single-stim", "word": "loft", "stimulus": "<p id=\"stim\">LOFT</p>", "conditions": [18, 1200, "v", 18000], "internal_node_id": "0.0-40.0", "trial": 1, "time_elapsed": 328824, "serialpos": 3, "key_press": -1, "wordID": 839, "type": "PRES_VIS", "trial_index": 58}, "uniqueid": "MTK2827:3MTMREQS4WPTP7KFU7PISW5MJIVWA0", "dateTime": 1519411775006}, {"current_trial": 59, "trialdata": {"rt": -1, "trial_type": "single-stim", "word": "handbag", "stimulus": "<p id=\"stim\">HANDBAG</p>", "conditions": [18, 1200, "v", 18000], "internal_node_id": "0.0-41.0", "trial": 1, "time_elapsed": 330983, "serialpos": 4, "key_press": -1, "wordID": 683, "type": "PRES_VIS", "trial_index": 59}, "uniqueid": "MTK2827:3MTMREQS4WPTP7KFU7PISW5MJIVWA0", "dateTime": 1519411777165}, {"current_trial": 60, "trialdata": {"rt": -1, "trial_type": "single-stim", "word": "marine", "stimulus": "<p id=\"stim\">MARINE</p>", "conditions": [18, 1200, "v", 18000], "internal_node_id": "0.0-42.0", "trial": 1, "time_elapsed": 333113, "serialpos": 5, "key_press": -1, "wordID": 868, "type": "PRES_VIS", "trial_index": 60}, "uniqueid": "MTK2827:3MTMREQS4WPTP7KFU7PISW5MJIVWA0", "dateTime": 1519411779296}, {"current_trial": 61, "trialdata": {"rt": -1, "trial_type": "single-stim", "word": "saddle", "stimulus": "<p id=\"stim\">SADDLE</p>", "conditions": [18, 1200, "v", 18000], "internal_node_id": "0.0-43.0", "trial": 1, "time_elapsed": 335139, "serialpos": 6, "key_press": -1, "wordID": 1220, "type": "PRES_VIS", "trial_index": 61}, "uniqueid": "MTK2827:3MTMREQS4WPTP7KFU7PISW5MJIVWA0", "dateTime": 1519411781321}, {"current_trial": 62, "trialdata": {"rt": -1, "trial_type": "single-stim", "word": "plaster", "stimulus": "<p id=\"stim\">PLASTER</p>", "conditions": [18, 1200, "v", 18000], "internal_node_id": "0.0-44.0", "trial": 1, "time_elapsed": 337147, "serialpos": 7, "key_press": -1, "wordID": 1084, "type": "PRES_VIS", "trial_index": 62}, "uniqueid": "MTK2827:3MTMREQS4WPTP7KFU7PISW5MJIVWA0", "dateTime": 1519411783329}, {"current_trial": 63, "trialdata": {"rt": -1, "trial_type": "single-stim", "word": "burglar", "stimulus": "<p id=\"stim\">BURGLAR</p>", "conditions": [18, 1200, "v", 18000], "internal_node_id": "0.0-45.0", "trial": 1, "time_elapsed": 339526, "serialpos": 8, "key_press": -1, "wordID": 199, "type": "PRES_VIS", "trial_index": 63}, "uniqueid": "MTK2827:3MTMREQS4WPTP7KFU7PISW5MJIVWA0", "dateTime": 1519411785708}, {"current_trial": 64, "trialdata": {"rt": -1, "trial_type": "single-stim", "word": "leopard", "stimulus": "<p id=\"stim\">LEOPARD</p>", "conditions": [18, 1200, "v", 18000], "internal_node_id": "0.0-46.0", "trial": 1, "time_elapsed": 341692, "serialpos": 9, "key_press": -1, "wordID": 811, "type": "PRES_VIS", "trial_index": 64}, "uniqueid": "MTK2827:3MTMREQS4WPTP7KFU7PISW5MJIVWA0", "dateTime": 1519411787874}, {"current_trial": 65, "trialdata": {"rt": -1, "trial_type": "single-stim", "word": "swimmer", "stimulus": "<p id=\"stim\">SWIMMER</p>", "conditions": [18, 1200, "v", 18000], "internal_node_id": "0.0-47.0", "trial": 1, "time_elapsed": 343821, "serialpos": 10, "key_press": -1, "wordID": 1419, "type": "PRES_VIS", "trial_index": 65}, "uniqueid": "MTK2827:3MTMREQS4WPTP7KFU7PISW5MJIVWA0", "dateTime": 1519411790003}, {"current_trial": 66, "trialdata": {"rt": -1, "trial_type": "single-stim", "word": "bucket", "stimulus": "<p id=\"stim\">BUCKET</p>", "conditions": [18, 1200, "v", 18000], "internal_node_id": "0.0-48.0", "trial": 1, "time_elapsed": 345852, "serialpos": 11, "key_press": -1, "wordID": 183, "type": "PRES_VIS", "trial_index": 66}, "uniqueid": "MTK2827:3MTMREQS4WPTP7KFU7PISW5MJIVWA0", "dateTime": 1519411792034}, {"current_trial": 67, "trialdata": {"rt": -1, "trial_type": "single-stim", "word": "bunny", "stimulus": "<p id=\"stim\">BUNNY</p>", "conditions": [18, 1200, "v", 18000], "internal_node_id": "0.0-49.0", "trial": 1, "time_elapsed": 347890, "serialpos": 12, "key_press": -1, "wordID": 197, "type": "PRES_VIS", "trial_index": 67}, "uniqueid": "MTK2827:3MTMREQS4WPTP7KFU7PISW5MJIVWA0", "dateTime": 1519411794072}, {"current_trial": 68, "trialdata": {"rt": -1, "trial_type": "single-stim", "word": "mustard", "stimulus": "<p id=\"stim\">MUSTARD</p>", "conditions": [18, 1200, "v", 18000], "internal_node_id": "0.0-50.0", "trial": 1, "time_elapsed": 350014, "serialpos": 13, "key_press": -1, "wordID": 934, "type": "PRES_VIS", "trial_index": 68}, "uniqueid": "MTK2827:3MTMREQS4WPTP7KFU7PISW5MJIVWA0", "dateTime": 1519411796197}, {"current_trial": 69, "trialdata": {"rt": -1, "trial_type": "single-stim", "word": "zipper", "stimulus": "<p id=\"stim\">ZIPPER</p>", "conditions": [18, 1200, "v", 18000], "internal_node_id": "0.0-51.0", "trial": 1, "time_elapsed": 352109, "serialpos": 14, "key_press": -1, "wordID": 1635, "type": "PRES_VIS", "trial_index": 69}, "uniqueid": "MTK2827:3MTMREQS4WPTP7KFU7PISW5MJIVWA0", "dateTime": 1519411798291}, {"current_trial": 70, "trialdata": {"rt": -1, "trial_type": "single-stim", "word": "maple", "stimulus": "<p id=\"stim\">MAPLE</p>", "conditions": [18, 1200, "v", 18000], "internal_node_id": "0.0-52.0", "trial": 1, "time_elapsed": 354390, "serialpos": 15, "key_press": -1, "wordID": 865, "type": "PRES_VIS", "trial_index": 70}, "uniqueid": "MTK2827:3MTMREQS4WPTP7KFU7PISW5MJIVWA0", "dateTime": 1519411800572}, {"current_trial": 71, "trialdata": {"rt": -1, "trial_type": "single-stim", "word": "airport", "stimulus": "<p id=\"stim\">AIRPORT</p>", "conditions": [18, 1200, "v", 18000], "internal_node_id": "0.0-53.0", "trial": 1, "time_elapsed": 356462, "serialpos": 16, "key_press": -1, "wordID": 12, "type": "PRES_VIS", "trial_index": 71}, "uniqueid": "MTK2827:3MTMREQS4WPTP7KFU7PISW5MJIVWA0", "dateTime": 1519411802644}, {"current_trial": 72, "trialdata": {"rt": -1, "trial_type": "single-stim", "word": "sidewalk", "stimulus": "<p id=\"stim\">SIDEWALK</p>", "conditions": [18, 1200, "v", 18000], "internal_node_id": "0.0-54.0", "trial": 1, "time_elapsed": 358557, "serialpos": 17, "key_press": -1, "wordID": 1302, "type": "PRES_VIS", "trial_index": 72}, "uniqueid": "MTK2827:3MTMREQS4WPTP7KFU7PISW5MJIVWA0", "dateTime": 1519411804739}, {"current_trial": 73, "trialdata": {"rt": -1, "trial_type": "single-stim", "stimulus": "", "internal_node_id": "0.0-55.0-0.0", "time_elapsed": 360785, "key_press": -1, "type": "PRE_RECALL_DELAY", "trial_index": 73}, "uniqueid": "MTK2827:3MTMREQS4WPTP7KFU7PISW5MJIVWA0", "dateTime": 1519411806968}, {"current_trial": 74, "trialdata": {"rt": -1000, "trial_type": "single-audio", "stimulus": "/static/audio/400Hz.wav", "internal_node_id": "0.0-56.0", "time_elapsed": 361288, "key_press": -1, "type": "PRE_RECALL_ALERT", "trial_index": 74}, "uniqueid": "MTK2827:3MTMREQS4WPTP7KFU7PISW5MJIVWA0", "dateTime": 1519411807470}, {"current_trial": 75, "trialdata": {"rt": [3464, 5579, 6940, 11463, 14916], "recwords": ["bunny", "scissors", "maple", "sidewalk", "airport"], "key_times": [2700, 2823, 3047, 3205, 3340, 3464, 3700, 3971, 4263, 4454, 4634, 4780, 4927, 5286, 5579, 5905, 6062, 6434, 6659, 6737, 6940, 7615, 7773, 8246, 8538, 8651, 9100, 9314, 9348, 9550, 9662, 9752, 10990, 11463, 12644, 12790, 13465, 13769, 13893, 14027, 14263, 14635, 14804, 14916], "trial_type": "free-recall", "conditions": [18, 1200, "v", 18000], "internal_node_id": "0.0-57.0-0.0", "key_presses": [66, 85, 78, 78, 89, 13, 83, 67, 73, 83, 83, 79, 82, 83, 13, 77, 65, 80, 76, 69, 13, 83, 73, 68, 87, 65, 8, 8, 69, 87, 65, 76, 75, 13, 65, 85, 8, 73, 82, 80, 79, 82, 84, 13], "trial": 1, "time_elapsed": 421287, "type": "FREE_RECALL", "trial_index": 75}, "uniqueid": "MTK2827:3MTMREQS4WPTP7KFU7PISW5MJIVWA0", "dateTime": 1519411867470}, {"current_trial": 76, "trialdata": {"rt": 43850, "trial_type": "text", "internal_node_id": "0.0-58.0", "time_elapsed": 467139, "key_press": 32, "type": "INSTRUCTIONS", "trial_index": 76}, "uniqueid": "MTK2827:3MTMREQS4WPTP7KFU7PISW5MJIVWA0", "dateTime": 1519411913321}, {"current_trial": 77, "trialdata": {"rt": [2744, 6795, 10046, 11857], "trial_type": "math-distractor", "key_times": [2576, 2621, 2744, 6513, 6536, 6795, 9484, 9911, 10046, 11497, 11744, 11857], "responses": ["14", "20", "16", "15"], "num2": [4, 9, 7, 2, 6], "num3": [8, 3, 5, 8, 3], "conditions": [12, 1600, "v", 12000], "internal_node_id": "0.0-59.0", "key_presses": [49, 52, 13, 50, 48, 13, 49, 54, 13, 49, 53, 13], "trial": 2, "time_elapsed": 480143, "type": "DISTRACTOR", "trial_index": 77, "num1": [2, 8, 4, 5, 3]}, "uniqueid": "MTK2827:3MTMREQS4WPTP7KFU7PISW5MJIVWA0", "dateTime": 1519411926325}, {"current_trial": 78, "trialdata": {"rt": -1, "trial_type": "single-stim", "stimulus": "<p id=\"stim\">10</p>", "internal_node_id": "0.0-60.0-0.0", "time_elapsed": 483149, "key_press": -1, "trial_index": 78}, "uniqueid": "MTK2827:3MTMREQS4WPTP7KFU7PISW5MJIVWA0", "dateTime": 1519411929332}, {"current_trial": 79, "trialdata": {"rt": -1, "trial_type": "single-stim", "stimulus": "<p id=\"stim\">9</p>", "internal_node_id": "0.0-60.0-1.0", "time_elapsed": 484154, "key_press": -1, "trial_index": 79}, "uniqueid": "MTK2827:3MTMREQS4WPTP7KFU7PISW5MJIVWA0", "dateTime": 1519411930336}, {"current_trial": 80, "trialdata": {"rt": -1, "trial_type": "single-stim", "stimulus": "<p id=\"stim\">8</p>", "internal_node_id": "0.0-60.0-2.0", "time_elapsed": 485158, "key_press": -1, "trial_index": 80}, "uniqueid": "MTK2827:3MTMREQS4WPTP7KFU7PISW5MJIVWA0", "dateTime": 1519411931340}, {"current_trial": 81, "trialdata": {"rt": -1, "trial_type": "single-stim", "stimulus": "<p id=\"stim\">7</p>", "internal_node_id": "0.0-60.0-3.0", "time_elapsed": 486161, "key_press": -1, "trial_index": 81}, "uniqueid": "MTK2827:3MTMREQS4WPTP7KFU7PISW5MJIVWA0", "dateTime": 1519411932343}, {"current_trial": 82, "trialdata": {"rt": -1, "trial_type": "single-stim", "stimulus": "<p id=\"stim\">6</p>", "internal_node_id": "0.0-60.0-4.0", "time_elapsed": 487165, "key_press": -1, "trial_index": 82}, "uniqueid": "MTK2827:3MTMREQS4WPTP7KFU7PISW5MJIVWA0", "dateTime": 1519411933347}, {"current_trial": 83, "trialdata": {"rt": -1, "trial_type": "single-stim", "stimulus": "<p id=\"stim\">5</p>", "internal_node_id": "0.0-60.0-5.0", "time_elapsed": 488170, "key_press": -1, "trial_index": 83}, "uniqueid": "MTK2827:3MTMREQS4WPTP7KFU7PISW5MJIVWA0", "dateTime": 1519411934352}, {"current_trial": 84, "trialdata": {"rt": -1, "trial_type": "single-stim", "stimulus": "<p id=\"stim\">4</p>", "internal_node_id": "0.0-60.0-6.0", "time_elapsed": 489173, "key_press": -1, "trial_index": 84}, "uniqueid": "MTK2827:3MTMREQS4WPTP7KFU7PISW5MJIVWA0", "dateTime": 1519411935355}, {"current_trial": 85, "trialdata": {"rt": -1, "trial_type": "single-stim", "stimulus": "<p id=\"stim\">3</p>", "internal_node_id": "0.0-60.0-7.0", "time_elapsed": 490177, "key_press": -1, "trial_index": 85}, "uniqueid": "MTK2827:3MTMREQS4WPTP7KFU7PISW5MJIVWA0", "dateTime": 1519411936359}, {"current_trial": 86, "trialdata": {"rt": -1, "trial_type": "single-stim", "stimulus": "<p id=\"stim\">2</p>", "internal_node_id": "0.0-60.0-8.0", "time_elapsed": 491182, "key_press": -1, "trial_index": 86}, "uniqueid": "MTK2827:3MTMREQS4WPTP7KFU7PISW5MJIVWA0", "dateTime": 1519411937364}, {"current_trial": 87, "trialdata": {"rt": -1, "trial_type": "single-stim", "stimulus": "<p id=\"stim\">1</p>", "internal_node_id": "0.0-60.0-9.0", "time_elapsed": 492186, "key_press": -1, "trial_index": 87}, "uniqueid": "MTK2827:3MTMREQS4WPTP7KFU7PISW5MJIVWA0", "dateTime": 1519411938368}, {"current_trial": 88, "trialdata": {"rt": -1, "trial_type": "single-stim", "stimulus": "<p id=\"stim\">+</p>", "internal_node_id": "0.0-61.0-0.0", "time_elapsed": 493688, "key_press": -1, "type": "FIXATION", "trial_index": 88}, "uniqueid": "MTK2827:3MTMREQS4WPTP7KFU7PISW5MJIVWA0", "dateTime": 1519411939870}, {"current_trial": 89, "trialdata": {"rt": -1, "trial_type": "single-stim", "word": "stone", "stimulus": "<p id=\"stim\">STONE</p>", "conditions": [12, 1600, "v", 12000], "internal_node_id": "0.0-62.0", "trial": 2, "time_elapsed": 495291, "serialpos": 0, "key_press": -1, "wordID": 1384, "type": "PRES_VIS", "trial_index": 89}, "uniqueid": "MTK2827:3MTMREQS4WPTP7KFU7PISW5MJIVWA0", "dateTime": 1519411941473}, {"current_trial": 90, "trialdata": {"rt": -1, "trial_type": "single-stim", "word": "harp", "stimulus": "<p id=\"stim\">HARP</p>", "conditions": [12, 1600, "v", 12000], "internal_node_id": "0.0-63.0", "trial": 2, "time_elapsed": 498030, "serialpos": 1, "key_press": -1, "wordID": 688, "type": "PRES_VIS", "trial_index": 90}, "uniqueid": "MTK2827:3MTMREQS4WPTP7KFU7PISW5MJIVWA0", "dateTime": 1519411944212}, {"current_trial": 91, "trialdata": {"rt": -1, "trial_type": "single-stim", "word": "sunset", "stimulus": "<p id=\"stim\">SUNSET</p>", "conditions": [12, 1600, "v", 12000], "internal_node_id": "0.0-64.0", "trial": 2, "time_elapsed": 500491, "serialpos": 2, "key_press": -1, "wordID": 1407, "type": "PRES_VIS", "trial_index": 91}, "uniqueid": "MTK2827:3MTMREQS4WPTP7KFU7PISW5MJIVWA0", "dateTime": 1519411946673}, {"current_trial": 92, "trialdata": {"rt": -1, "trial_type": "single-stim", "word": "hiker", "stimulus": "<p id=\"stim\">HIKER</p>", "conditions": [12, 1600, "v", 12000], "internal_node_id": "0.0-65.0", "trial": 2, "time_elapsed": 503265, "serialpos": 3, "key_press": -1, "wordID": 707, "type": "PRES_VIS", "trial_index": 92}, "uniqueid": "MTK2827:3MTMREQS4WPTP7KFU7PISW5MJIVWA0", "dateTime": 1519411949447}, {"current_trial": 93, "trialdata": {"rt": -1, "trial_type": "single-stim", "word": "turkey", "stimulus": "<p id=\"stim\">TURKEY</p>", "conditions": [12, 1600, "v", 12000], "internal_node_id": "0.0-66.0", "trial": 2, "time_elapsed": 505894, "serialpos": 4, "key_press": -1, "wordID": 1519, "type": "PRES_VIS", "trial_index": 93}, "uniqueid": "MTK2827:3MTMREQS4WPTP7KFU7PISW5MJIVWA0", "dateTime": 1519411952076}, {"current_trial": 94, "trialdata": {"rt": -1, "trial_type": "single-stim", "word": "pork", "stimulus": "<p id=\"stim\">PORK</p>", "conditions": [12, 1600, "v", 12000], "internal_node_id": "0.0-67.0", "trial": 2, "time_elapsed": 508512, "serialpos": 5, "key_press": -1, "wordID": 1107, "type": "PRES_VIS", "trial_index": 94}, "uniqueid": "MTK2827:3MTMREQS4WPTP7KFU7PISW5MJIVWA0", "dateTime": 1519411954694}, {"current_trial": 95, "trialdata": {"rt": -1, "trial_type": "single-stim", "word": "trench", "stimulus": "<p id=\"stim\">TRENCH</p>", "conditions": [12, 1600, "v", 12000], "internal_node_id": "0.0-68.0", "trial": 2, "time_elapsed": 511123, "serialpos": 6, "key_press": -1, "wordID": 1502, "type": "PRES_VIS", "trial_index": 95}, "uniqueid": "MTK2827:3MTMREQS4WPTP7KFU7PISW5MJIVWA0", "dateTime": 1519411957306}, {"current_trial": 96, "trialdata": {"rt": -1, "trial_type": "single-stim", "word": "grave", "stimulus": "<p id=\"stim\">GRAVE</p>", "conditions": [12, 1600, "v", 12000], "internal_node_id": "0.0-69.0", "trial": 2, "time_elapsed": 513717, "serialpos": 7, "key_press": -1, "wordID": 657, "type": "PRES_VIS", "trial_index": 96}, "uniqueid": "MTK2827:3MTMREQS4WPTP7KFU7PISW5MJIVWA0", "dateTime": 1519411959899}, {"current_trial": 97, "trialdata": {"rt": -1, "trial_type": "single-stim", "word": "guitar", "stimulus": "<p id=\"stim\">GUITAR</p>", "conditions": [12, 1600, "v", 12000], "internal_node_id": "0.0-70.0", "trial": 2, "time_elapsed": 516335, "serialpos": 8, "key_press": -1, "wordID": 669, "type": "PRES_VIS", "trial_index": 97}, "uniqueid": "MTK2827:3MTMREQS4WPTP7KFU7PISW5MJIVWA0", "dateTime": 1519411962517}, {"current_trial": 98, "trialdata": {"rt": -1, "trial_type": "single-stim", "word": "buggy", "stimulus": "<p id=\"stim\">BUGGY</p>", "conditions": [12, 1600, "v", 12000], "internal_node_id": "0.0-71.0", "trial": 2, "time_elapsed": 518964, "serialpos": 9, "key_press": -1, "wordID": 187, "type": "PRES_VIS", "trial_index": 98}, "uniqueid": "MTK2827:3MTMREQS4WPTP7KFU7PISW5MJIVWA0", "dateTime": 1519411965146}, {"current_trial": 99, "trialdata": {"rt": -1, "trial_type": "single-stim", "word": "spoon", "stimulus": "<p id=\"stim\">SPOON</p>", "conditions": [12, 1600, "v", 12000], "internal_node_id": "0.0-72.0", "trial": 2, "time_elapsed": 521640, "serialpos": 10, "key_press": -1, "wordID": 1356, "type": "PRES_VIS", "trial_index": 99}, "uniqueid": "MTK2827:3MTMREQS4WPTP7KFU7PISW5MJIVWA0", "dateTime": 1519411967822}, {"current_trial": 100, "trialdata": {"rt": -1, "trial_type": "single-stim", "word": "gazelle", "stimulus": "<p id=\"stim\">GAZELLE</p>", "conditions": [12, 1600, "v", 12000], "internal_node_id": "0.0-73.0", "trial": 2, "time_elapsed": 524408, "serialpos": 11, "key_press": -1, "wordID": 627, "type": "PRES_VIS", "trial_index": 100}, "uniqueid": "MTK2827:3MTMREQS4WPTP7KFU7PISW5MJIVWA0", "dateTime": 1519411970590}, {"current_trial": 101, "trialdata": {"rt": -1, "trial_type": "single-stim", "stimulus": "", "internal_node_id": "0.0-74.0-0.0", "time_elapsed": 526608, "key_press": -1, "type": "PRE_RECALL_DELAY", "trial_index": 101}, "uniqueid": "MTK2827:3MTMREQS4WPTP7KFU7PISW5MJIVWA0", "dateTime": 1519411972790}, {"current_trial": 102, "trialdata": {"rt": -1000, "trial_type": "single-audio", "stimulus": "/static/audio/400Hz.wav", "internal_node_id": "0.0-75.0", "time_elapsed": 527109, "key_press": -1, "type": "PRE_RECALL_ALERT", "trial_index": 102}, "uniqueid": "MTK2827:3MTMREQS4WPTP7KFU7PISW5MJIVWA0", "dateTime": 1519411973291}, {"current_trial": 103, "trialdata": {"rt": [2176, 3593, 5877, 7249, 8970, 11198, 13560, 45579], "recwords": ["pork", "spoon", "gazelle", "hike", "trench", "stone", "turkey", "harsh"], "key_times": [1276, 1332, 1658, 1782, 2176, 2479, 2727, 3020, 3165, 3380, 3593, 3897, 4055, 4347, 4808, 5235, 5382, 5765, 5877, 6563, 6766, 6990, 7036, 7249, 7846, 7958, 8408, 8554, 8679, 8791, 8970, 10647, 10726, 10872, 10939, 11040, 11198, 12222, 12717, 13009, 13111, 13235, 13392, 13560, 44836, 44937, 45050, 45275, 45388, 45579], "trial_type": "free-recall", "conditions": [12, 1600, "v", 12000], "internal_node_id": "0.0-76.0-0.0", "key_presses": [80, 79, 82, 75, 13, 83, 80, 79, 79, 78, 13, 71, 65, 90, 69, 76, 76, 69, 13, 72, 73, 75, 69, 13, 84, 82, 69, 78, 67, 72, 13, 83, 84, 79, 78, 69, 13, 84, 85, 82, 75, 69, 89, 13, 72, 65, 82, 83, 72, 13], "trial": 2, "time_elapsed": 587110, "type": "FREE_RECALL", "trial_index": 103}, "uniqueid": "MTK2827:3MTMREQS4WPTP7KFU7PISW5MJIVWA0", "dateTime": 1519412033294}, {"current_trial": 104, "trialdata": {"rt": 7591, "trial_type": "text", "internal_node_id": "0.0-77.0", "time_elapsed": 596707, "key_press": 32, "type": "INSTRUCTIONS", "trial_index": 104}, "uniqueid": "MTK2827:3MTMREQS4WPTP7KFU7PISW5MJIVWA0", "dateTime": 1519412042889}, {"current_trial": 105, "trialdata": {"rt": [3453, 5208, 7221, 10090, 12172, 14984, 16840, 20182, 22814], "trial_type": "math-distractor", "key_times": [3183, 3250, 3453, 5051, 5129, 5208, 6974, 7053, 7221, 9900, 10023, 10090, 11733, 12003, 12172, 14625, 14782, 14984, 16413, 16740, 16840, 19777, 20024, 20182, 22499, 22589, 22814], "responses": ["18", "13", "10", "14", "16", "18", "14", "14", "20"], "num2": [7, 5, 2, 6, 6, 8, 7, 4, 8, 1], "num3": [2, 5, 1, 1, 1, 4, 4, 7, 7, 7], "conditions": [24, 1600, "v", 24000], "internal_node_id": "0.0-78.0", "key_presses": [49, 56, 13, 49, 51, 13, 49, 48, 13, 49, 52, 13, 49, 54, 13, 49, 56, 13, 49, 52, 13, 49, 52, 13, 50, 48, 13], "trial": 3, "time_elapsed": 622714, "type": "DISTRACTOR", "trial_index": 105, "num1": [9, 3, 7, 7, 9, 6, 3, 3, 5, 7]}, "uniqueid": "MTK2827:3MTMREQS4WPTP7KFU7PISW5MJIVWA0", "dateTime": 1519412068896}, {"current_trial": 106, "trialdata": {"rt": -1, "trial_type": "single-stim", "stimulus": "<p id=\"stim\">10</p>", "internal_node_id": "0.0-79.0-0.0", "time_elapsed": 625720, "key_press": -1, "trial_index": 106}, "uniqueid": "MTK2827:3MTMREQS4WPTP7KFU7PISW5MJIVWA0", "dateTime": 1519412071902}, {"current_trial": 107, "trialdata": {"rt": -1, "trial_type": "single-stim", "stimulus": "<p id=\"stim\">9</p>", "internal_node_id": "0.0-79.0-1.0", "time_elapsed": 626723, "key_press": -1, "trial_index": 107}, "uniqueid": "MTK2827:3MTMREQS4WPTP7KFU7PISW5MJIVWA0", "dateTime": 1519412072905}, {"current_trial": 108, "trialdata": {"rt": -1, "trial_type": "single-stim", "stimulus": "<p id=\"stim\">8</p>", "internal_node_id": "0.0-79.0-2.0", "time_elapsed": 627728, "key_press": -1, "trial_index": 108}, "uniqueid": "MTK2827:3MTMREQS4WPTP7KFU7PISW5MJIVWA0", "dateTime": 1519412073910}, {"current_trial": 109, "trialdata": {"rt": -1, "trial_type": "single-stim", "stimulus": "<p id=\"stim\">7</p>", "internal_node_id": "0.0-79.0-3.0", "time_elapsed": 628732, "key_press": -1, "trial_index": 109}, "uniqueid": "MTK2827:3MTMREQS4WPTP7KFU7PISW5MJIVWA0", "dateTime": 1519412074914}, {"current_trial": 110, "trialdata": {"rt": -1, "trial_type": "single-stim", "stimulus": "<p id=\"stim\">6</p>", "internal_node_id": "0.0-79.0-4.0", "time_elapsed": 629736, "key_press": -1, "trial_index": 110}, "uniqueid": "MTK2827:3MTMREQS4WPTP7KFU7PISW5MJIVWA0", "dateTime": 1519412075918}, {"current_trial": 111, "trialdata": {"rt": -1, "trial_type": "single-stim", "stimulus": "<p id=\"stim\">5</p>", "internal_node_id": "0.0-79.0-5.0", "time_elapsed": 630740, "key_press": -1, "trial_index": 111}, "uniqueid": "MTK2827:3MTMREQS4WPTP7KFU7PISW5MJIVWA0", "dateTime": 1519412076922}, {"current_trial": 112, "trialdata": {"rt": -1, "trial_type": "single-stim", "stimulus": "<p id=\"stim\">4</p>", "internal_node_id": "0.0-79.0-6.0", "time_elapsed": 631744, "key_press": -1, "trial_index": 112}, "uniqueid": "MTK2827:3MTMREQS4WPTP7KFU7PISW5MJIVWA0", "dateTime": 1519412077926}, {"current_trial": 113, "trialdata": {"rt": -1, "trial_type": "single-stim", "stimulus": "<p id=\"stim\">3</p>", "internal_node_id": "0.0-79.0-7.0", "time_elapsed": 632748, "key_press": -1, "trial_index": 113}, "uniqueid": "MTK2827:3MTMREQS4WPTP7KFU7PISW5MJIVWA0", "dateTime": 1519412078930}, {"current_trial": 114, "trialdata": {"rt": -1, "trial_type": "single-stim", "stimulus": "<p id=\"stim\">2</p>", "internal_node_id": "0.0-79.0-8.0", "time_elapsed": 633752, "key_press": -1, "trial_index": 114}, "uniqueid": "MTK2827:3MTMREQS4WPTP7KFU7PISW5MJIVWA0", "dateTime": 1519412079934}, {"current_trial": 115, "trialdata": {"rt": -1, "trial_type": "single-stim", "stimulus": "<p id=\"stim\">1</p>", "internal_node_id": "0.0-79.0-9.0", "time_elapsed": 634756, "key_press": -1, "trial_index": 115}, "uniqueid": "MTK2827:3MTMREQS4WPTP7KFU7PISW5MJIVWA0", "dateTime": 1519412080938}, {"current_trial": 116, "trialdata": {"rt": -1, "trial_type": "single-stim", "stimulus": "<p id=\"stim\">+</p>", "internal_node_id": "0.0-80.0-0.0", "time_elapsed": 636259, "key_press": -1, "type": "FIXATION", "trial_index": 116}, "uniqueid": "MTK2827:3MTMREQS4WPTP7KFU7PISW5MJIVWA0", "dateTime": 1519412082441}, {"current_trial": 117, "trialdata": {"rt": -1, "trial_type": "single-stim", "word": "trout", "stimulus": "<p id=\"stim\">TROUT</p>", "conditions": [24, 1600, "v", 24000], "internal_node_id": "0.0-81.0", "trial": 3, "time_elapsed": 637861, "serialpos": 0, "key_press": -1, "wordID": 1510, "type": "PRES_VIS", "trial_index": 117}, "uniqueid": "MTK2827:3MTMREQS4WPTP7KFU7PISW5MJIVWA0", "dateTime": 1519412084044}, {"current_trial": 118, "trialdata": {"rt": -1, "trial_type": "single-stim", "word": "pistol", "stimulus": "<p id=\"stim\">PISTOL</p>", "conditions": [24, 1600, "v", 24000], "internal_node_id": "0.0-82.0", "trial": 3, "time_elapsed": 640414, "serialpos": 1, "key_press": -1, "wordID": 1074, "type": "PRES_VIS", "trial_index": 118}, "uniqueid": "MTK2827:3MTMREQS4WPTP7KFU7PISW5MJIVWA0", "dateTime": 1519412086596}, {"current_trial": 119, "trialdata": {"rt": -1, "trial_type": "single-stim", "word": "knapsack", "stimulus": "<p id=\"stim\">KNAPSACK</p>", "conditions": [24, 1600, "v", 24000], "internal_node_id": "0.0-83.0", "trial": 3, "time_elapsed": 643189, "serialpos": 2, "key_press": -1, "wordID": 782, "type": "PRES_VIS", "trial_index": 119}, "uniqueid": "MTK2827:3MTMREQS4WPTP7KFU7PISW5MJIVWA0", "dateTime": 1519412089371}, {"current_trial": 120, "trialdata": {"rt": -1, "trial_type": "single-stim", "word": "dust", "stimulus": "<p id=\"stim\">DUST</p>", "conditions": [24, 1600, "v", 24000], "internal_node_id": "0.0-84.0", "trial": 3, "time_elapsed": 645713, "serialpos": 3, "key_press": -1, "wordID": 507, "type": "PRES_VIS", "trial_index": 120}, "uniqueid": "MTK2827:3MTMREQS4WPTP7KFU7PISW5MJIVWA0", "dateTime": 1519412091895}, {"current_trial": 121, "trialdata": {"rt": -1, "trial_type": "single-stim", "word": "dentist", "stimulus": "<p id=\"stim\">DENTIST</p>", "conditions": [24, 1600, "v", 24000], "internal_node_id": "0.0-85.0", "trial": 3, "time_elapsed": 648175, "serialpos": 4, "key_press": -1, "wordID": 446, "type": "PRES_VIS", "trial_index": 121}, "uniqueid": "MTK2827:3MTMREQS4WPTP7KFU7PISW5MJIVWA0", "dateTime": 1519412094357}, {"current_trial": 122, "trialdata": {"rt": -1, "trial_type": "single-stim", "word": "shark", "stimulus": "<p id=\"stim\">SHARK</p>", "conditions": [24, 1600, "v", 24000], "internal_node_id": "0.0-86.0", "trial": 3, "time_elapsed": 650739, "serialpos": 5, "key_press": -1, "wordID": 1274, "type": "PRES_VIS", "trial_index": 122}, "uniqueid": "MTK2827:3MTMREQS4WPTP7KFU7PISW5MJIVWA0", "dateTime": 1519412096921}, {"current_trial": 123, "trialdata": {"rt": -1, "trial_type": "single-stim", "word": "salmon", "stimulus": "<p id=\"stim\">SALMON</p>", "conditions": [24, 1600, "v", 24000], "internal_node_id": "0.0-87.0", "trial": 3, "time_elapsed": 653538, "serialpos": 6, "key_press": -1, "wordID": 1226, "type": "PRES_VIS", "trial_index": 123}, "uniqueid": "MTK2827:3MTMREQS4WPTP7KFU7PISW5MJIVWA0", "dateTime": 1519412099720}, {"current_trial": 124, "trialdata": {"rt": -1, "trial_type": "single-stim", "word": "clothes", "stimulus": "<p id=\"stim\">CLOTHES</p>", "conditions": [24, 1600, "v", 24000], "internal_node_id": "0.0-88.0", "trial": 3, "time_elapsed": 656009, "serialpos": 7, "key_press": -1, "wordID": 326, "type": "PRES_VIS", "trial_index": 124}, "uniqueid": "MTK2827:3MTMREQS4WPTP7KFU7PISW5MJIVWA0", "dateTime": 1519412102192}, {"current_trial": 125, "trialdata": {"rt": -1, "trial_type": "single-stim", "word": "tractor", "stimulus": "<p id=\"stim\">TRACTOR</p>", "conditions": [24, 1600, "v", 24000], "internal_node_id": "0.0-89.0", "trial": 3, "time_elapsed": 658744, "serialpos": 8, "key_press": -1, "wordID": 1492, "type": "PRES_VIS", "trial_index": 125}, "uniqueid": "MTK2827:3MTMREQS4WPTP7KFU7PISW5MJIVWA0", "dateTime": 1519412104926}, {"current_trial": 126, "trialdata": {"rt": -1, "trial_type": "single-stim", "word": "playground", "stimulus": "<p id=\"stim\">PLAYGROUND</p>", "conditions": [24, 1600, "v", 24000], "internal_node_id": "0.0-90.0", "trial": 3, "time_elapsed": 661529, "serialpos": 9, "key_press": -1, "wordID": 1086, "type": "PRES_VIS", "trial_index": 126}, "uniqueid": "MTK2827:3MTMREQS4WPTP7KFU7PISW5MJIVWA0", "dateTime": 1519412107711}, {"current_trial": 127, "trialdata": {"rt": -1, "trial_type": "single-stim", "word": "tombstone", "stimulus": "<p id=\"stim\">TOMBSTONE</p>", "conditions": [24, 1600, "v", 24000], "internal_node_id": "0.0-91.0", "trial": 3, "time_elapsed": 664100, "serialpos": 10, "key_press": -1, "wordID": 1477, "type": "PRES_VIS", "trial_index": 127}, "uniqueid": "MTK2827:3MTMREQS4WPTP7KFU7PISW5MJIVWA0", "dateTime": 1519412110282}, {"current_trial": 128, "trialdata": {"rt": -1, "trial_type": "single-stim", "word": "casket", "stimulus": "<p id=\"stim\">CASKET</p>", "conditions": [24, 1600, "v", 24000], "internal_node_id": "0.0-92.0", "trial": 3, "time_elapsed": 666683, "serialpos": 11, "key_press": -1, "wordID": 254, "type": "PRES_VIS", "trial_index": 128}, "uniqueid": "MTK2827:3MTMREQS4WPTP7KFU7PISW5MJIVWA0", "dateTime": 1519412112865}, {"current_trial": 129, "trialdata": {"rt": -1, "trial_type": "single-stim", "word": "supper", "stimulus": "<p id=\"stim\">SUPPER</p>", "conditions": [24, 1600, "v", 24000], "internal_node_id": "0.0-93.0", "trial": 3, "time_elapsed": 669138, "serialpos": 12, "key_press": -1, "wordID": 1410, "type": "PRES_VIS", "trial_index": 129}, "uniqueid": "MTK2827:3MTMREQS4WPTP7KFU7PISW5MJIVWA0", "dateTime": 1519412115320}, {"current_trial": 130, "trialdata": {"rt": -1, "trial_type": "single-stim", "word": "robin", "stimulus": "<p id=\"stim\">ROBIN</p>", "conditions": [24, 1600, "v", 24000], "internal_node_id": "0.0-94.0", "trial": 3, "time_elapsed": 671877, "serialpos": 13, "key_press": -1, "wordID": 1198, "type": "PRES_VIS", "trial_index": 130}, "uniqueid": "MTK2827:3MTMREQS4WPTP7KFU7PISW5MJIVWA0", "dateTime": 1519412118059}, {"current_trial": 131, "trialdata": {"rt": -1, "trial_type": "single-stim", "word": "lettuce", "stimulus": "<p id=\"stim\">LETTUCE</p>", "conditions": [24, 1600, "v", 24000], "internal_node_id": "0.0-95.0", "trial": 3, "time_elapsed": 674617, "serialpos": 14, "key_press": -1, "wordID": 813, "type": "PRES_VIS", "trial_index": 131}, "uniqueid": "MTK2827:3MTMREQS4WPTP7KFU7PISW5MJIVWA0", "dateTime": 1519412120799}, {"current_trial": 132, "trialdata": {"rt": -1, "trial_type": "single-stim", "word": "gallon", "stimulus": "<p id=\"stim\">GALLON</p>", "conditions": [24, 1600, "v", 24000], "internal_node_id": "0.0-96.0", "trial": 3, "time_elapsed": 677414, "serialpos": 15, "key_press": -1, "wordID": 617, "type": "PRES_VIS", "trial_index": 132}, "uniqueid": "MTK2827:3MTMREQS4WPTP7KFU7PISW5MJIVWA0", "dateTime": 1519412123596}, {"current_trial": 133, "trialdata": {"rt": -1, "trial_type": "single-stim", "word": "lightning", "stimulus": "<p id=\"stim\">LIGHTNING</p>", "conditions": [24, 1600, "v", 24000], "internal_node_id": "0.0-97.0", "trial": 3, "time_elapsed": 680019, "serialpos": 16, "key_press": -1, "wordID": 819, "type": "PRES_VIS", "trial_index": 133}, "uniqueid": "MTK2827:3MTMREQS4WPTP7KFU7PISW5MJIVWA0", "dateTime": 1519412126202}, {"current_trial": 134, "trialdata": {"rt": -1, "trial_type": "single-stim", "word": "statue", "stimulus": "<p id=\"stim\">STATUE</p>", "conditions": [24, 1600, "v", 24000], "internal_node_id": "0.0-98.0", "trial": 3, "time_elapsed": 682440, "serialpos": 17, "key_press": -1, "wordID": 1373, "type": "PRES_VIS", "trial_index": 134}, "uniqueid": "MTK2827:3MTMREQS4WPTP7KFU7PISW5MJIVWA0", "dateTime": 1519412128622}, {"current_trial": 135, "trialdata": {"rt": -1, "trial_type": "single-stim", "word": "award", "stimulus": "<p id=\"stim\">AWARD</p>", "conditions": [24, 1600, "v", 24000], "internal_node_id": "0.0-99.0", "trial": 3, "time_elapsed": 685034, "serialpos": 18, "key_press": -1, "wordID": 62, "type": "PRES_VIS", "trial_index": 135}, "uniqueid": "MTK2827:3MTMREQS4WPTP7KFU7PISW5MJIVWA0", "dateTime": 1519412131216}, {"current_trial": 136, "trialdata": {"rt": -1, "trial_type": "single-stim", "word": "student", "stimulus": "<p id=\"stim\">STUDENT</p>", "conditions": [24, 1600, "v", 24000], "internal_node_id": "0.0-100.0", "trial": 3, "time_elapsed": 687783, "serialpos": 19, "key_press": -1, "wordID": 1394, "type": "PRES_VIS", "trial_index": 136}, "uniqueid": "MTK2827:3MTMREQS4WPTP7KFU7PISW5MJIVWA0", "dateTime": 1519412133966}, {"current_trial": 137, "trialdata": {"rt": -1, "trial_type": "single-stim", "word": "college", "stimulus": "<p id=\"stim\">COLLEGE</p>", "conditions": [24, 1600, "v", 24000], "internal_node_id": "0.0-101.0", "trial": 3, "time_elapsed": 690333, "serialpos": 20, "key_press": -1, "wordID": 345, "type": "PRES_VIS", "trial_index": 137}, "uniqueid": "MTK2827:3MTMREQS4WPTP7KFU7PISW5MJIVWA0", "dateTime": 1519412136515}, {"current_trial": 138, "trialdata": {"rt": -1, "trial_type": "single-stim", "word": "boyfriend", "stimulus": "<p id=\"stim\">BOYFRIEND</p>", "conditions": [24, 1600, "v", 24000], "internal_node_id": "0.0-102.0", "trial": 3, "time_elapsed": 693101, "serialpos": 21, "key_press": -1, "wordID": 161, "type": "PRES_VIS", "trial_index": 138}, "uniqueid": "MTK2827:3MTMREQS4WPTP7KFU7PISW5MJIVWA0", "dateTime": 1519412139283}, {"current_trial": 139, "trialdata": {"rt": -1, "trial_type": "single-stim", "word": "daisy", "stimulus": "<p id=\"stim\">DAISY</p>", "conditions": [24, 1600, "v", 24000], "internal_node_id": "0.0-103.0", "trial": 3, "time_elapsed": 695644, "serialpos": 22, "key_press": -1, "wordID": 434, "type": "PRES_VIS", "trial_index": 139}, "uniqueid": "MTK2827:3MTMREQS4WPTP7KFU7PISW5MJIVWA0", "dateTime": 1519412141826}, {"current_trial": 140, "trialdata": {"rt": -1, "trial_type": "single-stim", "word": "banquet", "stimulus": "<p id=\"stim\">BANQUET</p>", "conditions": [24, 1600, "v", 24000], "internal_node_id": "0.0-104.0", "trial": 3, "time_elapsed": 698272, "serialpos": 23, "key_press": -1, "wordID": 85, "type": "PRES_VIS", "trial_index": 140}, "uniqueid": "MTK2827:3MTMREQS4WPTP7KFU7PISW5MJIVWA0", "dateTime": 1519412144454}, {"current_trial": 141, "trialdata": {"rt": -1, "trial_type": "single-stim", "stimulus": "", "internal_node_id": "0.0-105.0-0.0", "time_elapsed": 700594, "key_press": -1, "type": "PRE_RECALL_DELAY", "trial_index": 141}, "uniqueid": "MTK2827:3MTMREQS4WPTP7KFU7PISW5MJIVWA0", "dateTime": 1519412146776}, {"current_trial": 142, "trialdata": {"rt": -1000, "trial_type": "single-audio", "stimulus": "/static/audio/400Hz.wav", "internal_node_id": "0.0-106.0", "time_elapsed": 701096, "key_press": -1, "type": "PRE_RECALL_ALERT", "trial_index": 142}, "uniqueid": "MTK2827:3MTMREQS4WPTP7KFU7PISW5MJIVWA0", "dateTime": 1519412147278}, {"current_trial": 143, "trialdata": {"rt": [2791, 4523, 7087, 10148, 12848, 14591, 18383, 20768], "recwords": ["banquet", "tractor", "playground", "casket", "trout", "gun", "knapsack", "dust"], "key_times": [1092, 1205, 1316, 1834, 2149, 2352, 2498, 2791, 3387, 3522, 3679, 3870, 4095, 4264, 4365, 4523, 5130, 5355, 5524, 5760, 6368, 6469, 6548, 6627, 6840, 6964, 7087, 9214, 9360, 9585, 9777, 9889, 10002, 10148, 12150, 12342, 12410, 12522, 12713, 12848, 14119, 14209, 14356, 14591, 16639, 16752, 16909, 17021, 17562, 17753, 17978, 18125, 18383, 20060, 20408, 20576, 20655, 20768], "trial_type": "free-recall", "conditions": [24, 1600, "v", 24000], "internal_node_id": "0.0-107.0-0.0", "key_presses": [66, 65, 78, 81, 85, 69, 84, 13, 84, 82, 65, 67, 84, 79, 82, 13, 80, 76, 65, 89, 71, 82, 79, 85, 78, 68, 13, 67, 65, 83, 75, 69, 84, 13, 84, 82, 79, 85, 84, 13, 71, 85, 78, 13, 75, 78, 65, 80, 83, 65, 67, 75, 13, 68, 85, 83, 84, 13], "trial": 3, "time_elapsed": 761095, "type": "FREE_RECALL", "trial_index": 143}, "uniqueid": "MTK2827:3MTMREQS4WPTP7KFU7PISW5MJIVWA0", "dateTime": 1519412207279}, {"current_trial": 144, "trialdata": {"rt": 1469, "trial_type": "text", "internal_node_id": "0.0-108.0", "time_elapsed": 764570, "key_press": 32, "type": "INSTRUCTIONS", "trial_index": 144}, "uniqueid": "MTK2827:3MTMREQS4WPTP7KFU7PISW5MJIVWA0", "dateTime": 1519412210752}, {"current_trial": 145, "trialdata": {"rt": [5690, 8030, 10810, 13734, 15748, 18527, 18729, 21305, 23578], "trial_type": "math-distractor", "key_times": [5511, 5578, 5690, 7930, 7952, 8030, 10314, 10696, 10810, 13588, 13679, 13734, 15445, 15500, 15748, 18178, 18415, 18527, 18729, 21137, 21238, 21305, 23320, 23488, 23578], "responses": ["14", "13", "15", "24", "21", "12", "", "12", "11"], "num2": [3, 9, 5, 9, 7, 5, 7, 4, 6, 3], "num3": [5, 1, 1, 8, 7, 3, 4, 6, 3, 5], "conditions": [24, 800, "v", 24000], "internal_node_id": "0.0-109.0", "key_presses": [49, 52, 13, 49, 51, 13, 49, 53, 13, 50, 52, 13, 50, 49, 13, 49, 50, 13, 13, 49, 50, 13, 49, 49, 13], "trial": 4, "time_elapsed": 790578, "type": "DISTRACTOR", "trial_index": 145, "num1": [6, 3, 9, 7, 7, 4, 6, 2, 2, 3]}, "uniqueid": "MTK2827:3MTMREQS4WPTP7KFU7PISW5MJIVWA0", "dateTime": 1519412236760}, {"current_trial": 146, "trialdata": {"rt": -1, "trial_type": "single-stim", "stimulus": "<p id=\"stim\">10</p>", "internal_node_id": "0.0-110.0-0.0", "time_elapsed": 793584, "key_press": -1, "trial_index": 146}, "uniqueid": "MTK2827:3MTMREQS4WPTP7KFU7PISW5MJIVWA0", "dateTime": 1519412239767}, {"current_trial": 147, "trialdata": {"rt": -1, "trial_type": "single-stim", "stimulus": "<p id=\"stim\">9</p>", "internal_node_id": "0.0-110.0-1.0", "time_elapsed": 794589, "key_press": -1, "trial_index": 147}, "uniqueid": "MTK2827:3MTMREQS4WPTP7KFU7PISW5MJIVWA0", "dateTime": 1519412240771}, {"current_trial": 148, "trialdata": {"rt": -1, "trial_type": "single-stim", "stimulus": "<p id=\"stim\">8</p>", "internal_node_id": "0.0-110.0-2.0", "time_elapsed": 795592, "key_press": -1, "trial_index": 148}, "uniqueid": "MTK2827:3MTMREQS4WPTP7KFU7PISW5MJIVWA0", "dateTime": 1519412241774}, {"current_trial": 149, "trialdata": {"rt": -1, "trial_type": "single-stim", "stimulus": "<p id=\"stim\">7</p>", "internal_node_id": "0.0-110.0-3.0", "time_elapsed": 796596, "key_press": -1, "trial_index": 149}, "uniqueid": "MTK2827:3MTMREQS4WPTP7KFU7PISW5MJIVWA0", "dateTime": 1519412242778}, {"current_trial": 150, "trialdata": {"rt": -1, "trial_type": "single-stim", "stimulus": "<p id=\"stim\">6</p>", "internal_node_id": "0.0-110.0-4.0", "time_elapsed": 797600, "key_press": -1, "trial_index": 150}, "uniqueid": "MTK2827:3MTMREQS4WPTP7KFU7PISW5MJIVWA0", "dateTime": 1519412243782}, {"current_trial": 151, "trialdata": {"rt": -1, "trial_type": "single-stim", "stimulus": "<p id=\"stim\">5</p>", "internal_node_id": "0.0-110.0-5.0", "time_elapsed": 798604, "key_press": -1, "trial_index": 151}, "uniqueid": "MTK2827:3MTMREQS4WPTP7KFU7PISW5MJIVWA0", "dateTime": 1519412244786}, {"current_trial": 152, "trialdata": {"rt": -1, "trial_type": "single-stim", "stimulus": "<p id=\"stim\">4</p>", "internal_node_id": "0.0-110.0-6.0", "time_elapsed": 799609, "key_press": -1, "trial_index": 152}, "uniqueid": "MTK2827:3MTMREQS4WPTP7KFU7PISW5MJIVWA0", "dateTime": 1519412245791}, {"current_trial": 153, "trialdata": {"rt": -1, "trial_type": "single-stim", "stimulus": "<p id=\"stim\">3</p>", "internal_node_id": "0.0-110.0-7.0", "time_elapsed": 800612, "key_press": -1, "trial_index": 153}, "uniqueid": "MTK2827:3MTMREQS4WPTP7KFU7PISW5MJIVWA0", "dateTime": 1519412246794}, {"current_trial": 154, "trialdata": {"rt": -1, "trial_type": "single-stim", "stimulus": "<p id=\"stim\">2</p>", "internal_node_id": "0.0-110.0-8.0", "time_elapsed": 801617, "key_press": -1, "trial_index": 154}, "uniqueid": "MTK2827:3MTMREQS4WPTP7KFU7PISW5MJIVWA0", "dateTime": 1519412247799}, {"current_trial": 155, "trialdata": {"rt": -1, "trial_type": "single-stim", "stimulus": "<p id=\"stim\">1</p>", "internal_node_id": "0.0-110.0-9.0", "time_elapsed": 802620, "key_press": -1, "trial_index": 155}, "uniqueid": "MTK2827:3MTMREQS4WPTP7KFU7PISW5MJIVWA0", "dateTime": 1519412248802}, {"current_trial": 156, "trialdata": {"rt": -1, "trial_type": "single-stim", "stimulus": "<p id=\"stim\">+</p>", "internal_node_id": "0.0-111.0-0.0", "time_elapsed": 804124, "key_press": -1, "type": "FIXATION", "trial_index": 156}, "uniqueid": "MTK2827:3MTMREQS4WPTP7KFU7PISW5MJIVWA0", "dateTime": 1519412250306}, {"current_trial": 157, "trialdata": {"rt": -1, "trial_type": "single-stim", "word": "uncle", "stimulus": "<p id=\"stim\">UNCLE</p>", "conditions": [24, 800, "v", 24000], "internal_node_id": "0.0-112.0", "trial": 4, "time_elapsed": 804925, "serialpos": 0, "key_press": -1, "wordID": 1535, "type": "PRES_VIS", "trial_index": 157}, "uniqueid": "MTK2827:3MTMREQS4WPTP7KFU7PISW5MJIVWA0", "dateTime": 1519412251107}, {"current_trial": 158, "trialdata": {"rt": -1, "trial_type": "single-stim", "word": "worker", "stimulus": "<p id=\"stim\">WORKER</p>", "conditions": [24, 800, "v", 24000], "internal_node_id": "0.0-113.0", "trial": 4, "time_elapsed": 806683, "serialpos": 1, "key_press": -1, "wordID": 1620, "type": "PRES_VIS", "trial_index": 158}, "uniqueid": "MTK2827:3MTMREQS4WPTP7KFU7PISW5MJIVWA0", "dateTime": 1519412252865}, {"current_trial": 159, "trialdata": {"rt": -1, "trial_type": "single-stim", "word": "slope", "stimulus": "<p id=\"stim\">SLOPE</p>", "conditions": [24, 800, "v", 24000], "internal_node_id": "0.0-114.0", "trial": 4, "time_elapsed": 808349, "serialpos": 2, "key_press": -1, "wordID": 1327, "type": "PRES_VIS", "trial_index": 159}, "uniqueid": "MTK2827:3MTMREQS4WPTP7KFU7PISW5MJIVWA0", "dateTime": 1519412254531}, {"current_trial": 160, "trialdata": {"rt": -1, "trial_type": "single-stim", "word": "swamp", "stimulus": "<p id=\"stim\">SWAMP</p>", "conditions": [24, 800, "v", 24000], "internal_node_id": "0.0-115.0", "trial": 4, "time_elapsed": 810241, "serialpos": 3, "key_press": -1, "wordID": 1415, "type": "PRES_VIS", "trial_index": 160}, "uniqueid": "MTK2827:3MTMREQS4WPTP7KFU7PISW5MJIVWA0", "dateTime": 1519412256423}, {"current_trial": 161, "trialdata": {"rt": -1, "trial_type": "single-stim", "word": "braces", "stimulus": "<p id=\"stim\">BRACES</p>", "conditions": [24, 800, "v", 24000], "internal_node_id": "0.0-116.0", "trial": 4, "time_elapsed": 812214, "serialpos": 4, "key_press": -1, "wordID": 163, "type": "PRES_VIS", "trial_index": 161}, "uniqueid": "MTK2827:3MTMREQS4WPTP7KFU7PISW5MJIVWA0", "dateTime": 1519412258397}, {"current_trial": 162, "trialdata": {"rt": -1, "trial_type": "single-stim", "word": "husband", "stimulus": "<p id=\"stim\">HUSBAND</p>", "conditions": [24, 800, "v", 24000], "internal_node_id": "0.0-117.0", "trial": 4, "time_elapsed": 813985, "serialpos": 5, "key_press": -1, "wordID": 727, "type": "PRES_VIS", "trial_index": 162}, "uniqueid": "MTK2827:3MTMREQS4WPTP7KFU7PISW5MJIVWA0", "dateTime": 1519412260167}, {"current_trial": 163, "trialdata": {"rt": -1, "trial_type": "single-stim", "word": "citrus", "stimulus": "<p id=\"stim\">CITRUS</p>", "conditions": [24, 800, "v", 24000], "internal_node_id": "0.0-118.0", "trial": 4, "time_elapsed": 815969, "serialpos": 6, "key_press": -1, "wordID": 312, "type": "PRES_VIS", "trial_index": 163}, "uniqueid": "MTK2827:3MTMREQS4WPTP7KFU7PISW5MJIVWA0", "dateTime": 1519412262151}, {"current_trial": 164, "trialdata": {"rt": -1, "trial_type": "single-stim", "word": "liver", "stimulus": "<p id=\"stim\">LIVER</p>", "conditions": [24, 800, "v", 24000], "internal_node_id": "0.0-119.0", "trial": 4, "time_elapsed": 817960, "serialpos": 7, "key_press": -1, "wordID": 832, "type": "PRES_VIS", "trial_index": 164}, "uniqueid": "MTK2827:3MTMREQS4WPTP7KFU7PISW5MJIVWA0", "dateTime": 1519412264142}, {"current_trial": 165, "trialdata": {"rt": -1, "trial_type": "single-stim", "word": "valve", "stimulus": "<p id=\"stim\">VALVE</p>", "conditions": [24, 800, "v", 24000], "internal_node_id": "0.0-120.0", "trial": 4, "time_elapsed": 819626, "serialpos": 8, "key_press": -1, "wordID": 1545, "type": "PRES_VIS", "trial_index": 165}, "uniqueid": "MTK2827:3MTMREQS4WPTP7KFU7PISW5MJIVWA0", "dateTime": 1519412265808}, {"current_trial": 166, "trialdata": {"rt": -1, "trial_type": "single-stim", "word": "razor", "stimulus": "<p id=\"stim\">RAZOR</p>", "conditions": [24, 800, "v", 24000], "internal_node_id": "0.0-121.0", "trial": 4, "time_elapsed": 821477, "serialpos": 9, "key_press": -1, "wordID": 1170, "type": "PRES_VIS", "trial_index": 166}, "uniqueid": "MTK2827:3MTMREQS4WPTP7KFU7PISW5MJIVWA0", "dateTime": 1519412267659}, {"current_trial": 167, "trialdata": {"rt": -1, "trial_type": "single-stim", "word": "scalpel", "stimulus": "<p id=\"stim\">SCALPEL</p>", "conditions": [24, 800, "v", 24000], "internal_node_id": "0.0-122.0", "trial": 4, "time_elapsed": 823456, "serialpos": 10, "key_press": -1, "wordID": 1242, "type": "PRES_VIS", "trial_index": 167}, "uniqueid": "MTK2827:3MTMREQS4WPTP7KFU7PISW5MJIVWA0", "dateTime": 1519412269639}, {"current_trial": 168, "trialdata": {"rt": -1, "trial_type": "single-stim", "word": "wrench", "stimulus": "<p id=\"stim\">WRENCH</p>", "conditions": [24, 800, "v", 24000], "internal_node_id": "0.0-123.0", "trial": 4, "time_elapsed": 825250, "serialpos": 11, "key_press": -1, "wordID": 1624, "type": "PRES_VIS", "trial_index": 168}, "uniqueid": "MTK2827:3MTMREQS4WPTP7KFU7PISW5MJIVWA0", "dateTime": 1519412271432}, {"current_trial": 169, "trialdata": {"rt": -1, "trial_type": "single-stim", "word": "coffee", "stimulus": "<p id=\"stim\">COFFEE</p>", "conditions": [24, 800, "v", 24000], "internal_node_id": "0.0-124.0", "trial": 4, "time_elapsed": 826857, "serialpos": 12, "key_press": -1, "wordID": 340, "type": "PRES_VIS", "trial_index": 169}, "uniqueid": "MTK2827:3MTMREQS4WPTP7KFU7PISW5MJIVWA0", "dateTime": 1519412273039}, {"current_trial": 170, "trialdata": {"rt": -1, "trial_type": "single-stim", "word": "orange", "stimulus": "<p id=\"stim\">ORANGE</p>", "conditions": [24, 800, "v", 24000], "internal_node_id": "0.0-125.0", "trial": 4, "time_elapsed": 828662, "serialpos": 13, "key_press": -1, "wordID": 979, "type": "PRES_VIS", "trial_index": 170}, "uniqueid": "MTK2827:3MTMREQS4WPTP7KFU7PISW5MJIVWA0", "dateTime": 1519412274844}, {"current_trial": 171, "trialdata": {"rt": -1, "trial_type": "single-stim", "word": "dime", "stimulus": "<p id=\"stim\">DIME</p>", "conditions": [24, 800, "v", 24000], "internal_node_id": "0.0-126.0", "trial": 4, "time_elapsed": 830385, "serialpos": 14, "key_press": -1, "wordID": 465, "type": "PRES_VIS", "trial_index": 171}, "uniqueid": "MTK2827:3MTMREQS4WPTP7KFU7PISW5MJIVWA0", "dateTime": 1519412276568}, {"current_trial": 172, "trialdata": {"rt": -1, "trial_type": "single-stim", "word": "stove", "stimulus": "<p id=\"stim\">STOVE</p>", "conditions": [24, 800, "v", 24000], "internal_node_id": "0.0-127.0", "trial": 4, "time_elapsed": 832354, "serialpos": 15, "key_press": -1, "wordID": 1387, "type": "PRES_VIS", "trial_index": 172}, "uniqueid": "MTK2827:3MTMREQS4WPTP7KFU7PISW5MJIVWA0", "dateTime": 1519412278536}, {"current_trial": 173, "trialdata": {"rt": -1, "trial_type": "single-stim", "word": "cook", "stimulus": "<p id=\"stim\">COOK</p>", "conditions": [24, 800, "v", 24000], "internal_node_id": "0.0-128.0", "trial": 4, "time_elapsed": 834169, "serialpos": 16, "key_press": -1, "wordID": 371, "type": "PRES_VIS", "trial_index": 173}, "uniqueid": "MTK2827:3MTMREQS4WPTP7KFU7PISW5MJIVWA0", "dateTime": 1519412280352}, {"current_trial": 174, "trialdata": {"rt": -1, "trial_type": "single-stim", "word": "garlic", "stimulus": "<p id=\"stim\">GARLIC</p>", "conditions": [24, 800, "v", 24000], "internal_node_id": "0.0-129.0", "trial": 4, "time_elapsed": 835987, "serialpos": 17, "key_press": -1, "wordID": 623, "type": "PRES_VIS", "trial_index": 174}, "uniqueid": "MTK2827:3MTMREQS4WPTP7KFU7PISW5MJIVWA0", "dateTime": 1519412282169}, {"current_trial": 175, "trialdata": {"rt": -1, "trial_type": "single-stim", "word": "baby", "stimulus": "<p id=\"stim\">BABY</p>", "conditions": [24, 800, "v", 24000], "internal_node_id": "0.0-130.0", "trial": 4, "time_elapsed": 837698, "serialpos": 18, "key_press": -1, "wordID": 63, "type": "PRES_VIS", "trial_index": 175}, "uniqueid": "MTK2827:3MTMREQS4WPTP7KFU7PISW5MJIVWA0", "dateTime": 1519412283881}, {"current_trial": 176, "trialdata": {"rt": -1, "trial_type": "single-stim", "word": "friend", "stimulus": "<p id=\"stim\">FRIEND</p>", "conditions": [24, 800, "v", 24000], "internal_node_id": "0.0-131.0", "trial": 4, "time_elapsed": 839440, "serialpos": 19, "key_press": -1, "wordID": 605, "type": "PRES_VIS", "trial_index": 176}, "uniqueid": "MTK2827:3MTMREQS4WPTP7KFU7PISW5MJIVWA0", "dateTime": 1519412285622}, {"current_trial": 177, "trialdata": {"rt": -1, "trial_type": "single-stim", "word": "onion", "stimulus": "<p id=\"stim\">ONION</p>", "conditions": [24, 800, "v", 24000], "internal_node_id": "0.0-132.0", "trial": 4, "time_elapsed": 841204, "serialpos": 20, "key_press": -1, "wordID": 976, "type": "PRES_VIS", "trial_index": 177}, "uniqueid": "MTK2827:3MTMREQS4WPTP7KFU7PISW5MJIVWA0", "dateTime": 1519412287386}, {"current_trial": 178, "trialdata": {"rt": -1, "trial_type": "single-stim", "word": "body", "stimulus": "<p id=\"stim\">BODY</p>", "conditions": [24, 800, "v", 24000], "internal_node_id": "0.0-133.0", "trial": 4, "time_elapsed": 843206, "serialpos": 21, "key_press": -1, "wordID": 144, "type": "PRES_VIS", "trial_index": 178}, "uniqueid": "MTK2827:3MTMREQS4WPTP7KFU7PISW5MJIVWA0", "dateTime": 1519412289388}, {"current_trial": 179, "trialdata": {"rt": -1, "trial_type": "single-stim", "word": "soda", "stimulus": "<p id=\"stim\">SODA</p>", "conditions": [24, 800, "v", 24000], "internal_node_id": "0.0-134.0", "trial": 4, "time_elapsed": 844837, "serialpos": 22, "key_press": -1, "wordID": 1340, "type": "PRES_VIS", "trial_index": 179}, "uniqueid": "MTK2827:3MTMREQS4WPTP7KFU7PISW5MJIVWA0", "dateTime": 1519412291019}, {"current_trial": 180, "trialdata": {"rt": -1, "trial_type": "single-stim", "word": "pizza", "stimulus": "<p id=\"stim\">PIZZA</p>", "conditions": [24, 800, "v", 24000], "internal_node_id": "0.0-135.0", "trial": 4, "time_elapsed": 846694, "serialpos": 23, "key_press": -1, "wordID": 1078, "type": "PRES_VIS", "trial_index": 180}, "uniqueid": "MTK2827:3MTMREQS4WPTP7KFU7PISW5MJIVWA0", "dateTime": 1519412292876}, {"current_trial": 181, "trialdata": {"rt": -1, "trial_type": "single-stim", "stimulus": "", "internal_node_id": "0.0-136.0-0.0", "time_elapsed": 849167, "key_press": -1, "type": "PRE_RECALL_DELAY", "trial_index": 181}, "uniqueid": "MTK2827:3MTMREQS4WPTP7KFU7PISW5MJIVWA0", "dateTime": 1519412295349}, {"current_trial": 182, "trialdata": {"rt": -1000, "trial_type": "single-audio", "stimulus": "/static/audio/400Hz.wav", "internal_node_id": "0.0-137.0", "time_elapsed": 849668, "key_press": -1, "type": "PRE_RECALL_ALERT", "trial_index": 182}, "uniqueid": "MTK2827:3MTMREQS4WPTP7KFU7PISW5MJIVWA0", "dateTime": 1519412295850}, {"current_trial": 183, "trialdata": {"rt": [2067, 3327, 4678, 6792, 7917, 11934, 14363, 16625, 21609, 24534, 26818, 27144, 28404, 30901, 33005, 38675], "recwords": ["pizza", "stove", "cook", "garlic", "baby", "liver", "wrench", "coffee", "razor", "scalpol", "uncle", "", "worker", "swamp", "brace", "citus"], "key_times": [1258, 1313, 1572, 1775, 2000, 2067, 2551, 2731, 2844, 3091, 3181, 3327, 4003, 4127, 4295, 4486, 4678, 5138, 5555, 5633, 5712, 5869, 6049, 6342, 6522, 6792, 7276, 7400, 7501, 7714, 7917, 10977, 11168, 11383, 11495, 11641, 11934, 12721, 12811, 13273, 13317, 13385, 13610, 13970, 14082, 14363, 14802, 14959, 15106, 15275, 15837, 16264, 16625, 18054, 18189, 18357, 19618, 19775, 19922, 20214, 20315, 21113, 21305, 21473, 21609, 22441, 22599, 22756, 23611, 24005, 24185, 24365, 24534, 26008, 26188, 26402, 26503, 26615, 26818, 27144, 27504, 27605, 27751, 27920, 28078, 28201, 28404, 29754, 29957, 30114, 30429, 30620, 30901, 32398, 32465, 32600, 32814, 32892, 33005, 34389, 34501, 34670, 38304, 38371, 38675], "trial_type": "free-recall", "conditions": [24, 800, "v", 24000], "internal_node_id": "0.0-138.0-0.0", "key_presses": [80, 73, 90, 90, 65, 13, 83, 84, 79, 86, 69, 13, 67, 79, 79, 75, 13, 65, 8, 71, 65, 82, 76, 73, 67, 13, 66, 65, 66, 89, 13, 76, 73, 86, 69, 82, 13, 87, 69, 8, 82, 69, 78, 67, 72, 13, 67, 79, 70, 70, 69, 69, 13, 75, 78, 73, 8, 8, 8, 82, 65, 90, 79, 82, 32, 83, 67, 65, 76, 80, 79, 76, 13, 85, 78, 67, 76, 69, 32, 13, 87, 79, 82, 75, 69, 82, 13, 83, 87, 65, 77, 80, 13, 66, 82, 65, 67, 69, 13, 67, 73, 84, 85, 83, 13], "trial": 4, "time_elapsed": 909671, "type": "FREE_RECALL", "trial_index": 183}, "uniqueid": "MTK2827:3MTMREQS4WPTP7KFU7PISW5MJIVWA0", "dateTime": 1519412355855}, {"current_trial": 184, "trialdata": {"rt": 13750, "trial_type": "text", "internal_node_id": "0.0-139.0", "time_elapsed": 925424, "key_press": 32, "type": "INSTRUCTIONS", "trial_index": 184}, "uniqueid": "MTK2827:3MTMREQS4WPTP7KFU7PISW5MJIVWA0", "dateTime": 1519412371606}, {"current_trial": 185, "trialdata": {"rt": [1924, 4613, 6694, 9832, 11633, 14625, 19057, 21837], "trial_type": "math-distractor", "key_times": [1789, 1845, 1924, 4533, 4613, 6401, 6469, 6694, 9507, 9608, 9832, 11509, 11621, 11633, 14400, 14479, 14625, 17854, 18821, 19057, 21690, 21747, 21837], "responses": ["13", "6", "17", "16", "14", "21", "22", "13"], "num2": [4, 1, 4, 3, 8, 9, 9, 3, 4], "num3": [1, 2, 7, 8, 4, 3, 8, 6, 4], "conditions": [12, 1600, "v", 24000], "internal_node_id": "0.0-140.0", "key_presses": [49, 51, 13, 54, 13, 49, 55, 13, 49, 54, 13, 49, 52, 13, 50, 49, 13, 50, 50, 13, 49, 51, 13], "trial": 5, "time_elapsed": 951430, "type": "DISTRACTOR", "trial_index": 185, "num1": [8, 3, 6, 5, 2, 9, 4, 4, 5]}, "uniqueid": "MTK2827:3MTMREQS4WPTP7KFU7PISW5MJIVWA0", "dateTime": 1519412397612}, {"current_trial": 186, "trialdata": {"rt": -1, "trial_type": "single-stim", "stimulus": "<p id=\"stim\">10</p>", "internal_node_id": "0.0-141.0-0.0", "time_elapsed": 954436, "key_press": -1, "trial_index": 186}, "uniqueid": "MTK2827:3MTMREQS4WPTP7KFU7PISW5MJIVWA0", "dateTime": 1519412400618}, {"current_trial": 187, "trialdata": {"rt": -1, "trial_type": "single-stim", "stimulus": "<p id=\"stim\">9</p>", "internal_node_id": "0.0-141.0-1.0", "time_elapsed": 955440, "key_press": -1, "trial_index": 187}, "uniqueid": "MTK2827:3MTMREQS4WPTP7KFU7PISW5MJIVWA0", "dateTime": 1519412401622}, {"current_trial": 188, "trialdata": {"rt": -1, "trial_type": "single-stim", "stimulus": "<p id=\"stim\">8</p>", "internal_node_id": "0.0-141.0-2.0", "time_elapsed": 956445, "key_press": -1, "trial_index": 188}, "uniqueid": "MTK2827:3MTMREQS4WPTP7KFU7PISW5MJIVWA0", "dateTime": 1519412402627}, {"current_trial": 189, "trialdata": {"rt": -1, "trial_type": "single-stim", "stimulus": "<p id=\"stim\">7</p>", "internal_node_id": "0.0-141.0-3.0", "time_elapsed": 957449, "key_press": -1, "trial_index": 189}, "uniqueid": "MTK2827:3MTMREQS4WPTP7KFU7PISW5MJIVWA0", "dateTime": 1519412403631}, {"current_trial": 190, "trialdata": {"rt": -1, "trial_type": "single-stim", "stimulus": "<p id=\"stim\">6</p>", "internal_node_id": "0.0-141.0-4.0", "time_elapsed": 958452, "key_press": -1, "trial_index": 190}, "uniqueid": "MTK2827:3MTMREQS4WPTP7KFU7PISW5MJIVWA0", "dateTime": 1519412404634}, {"current_trial": 191, "trialdata": {"rt": -1, "trial_type": "single-stim", "stimulus": "<p id=\"stim\">5</p>", "internal_node_id": "0.0-141.0-5.0", "time_elapsed": 959457, "key_press": -1, "trial_index": 191}, "uniqueid": "MTK2827:3MTMREQS4WPTP7KFU7PISW5MJIVWA0", "dateTime": 1519412405639}, {"current_trial": 192, "trialdata": {"rt": -1, "trial_type": "single-stim", "stimulus": "<p id=\"stim\">4</p>", "internal_node_id": "0.0-141.0-6.0", "time_elapsed": 960461, "key_press": -1, "trial_index": 192}, "uniqueid": "MTK2827:3MTMREQS4WPTP7KFU7PISW5MJIVWA0", "dateTime": 1519412406643}, {"current_trial": 193, "trialdata": {"rt": -1, "trial_type": "single-stim", "stimulus": "<p id=\"stim\">3</p>", "internal_node_id": "0.0-141.0-7.0", "time_elapsed": 961465, "key_press": -1, "trial_index": 193}, "uniqueid": "MTK2827:3MTMREQS4WPTP7KFU7PISW5MJIVWA0", "dateTime": 1519412407647}, {"current_trial": 194, "trialdata": {"rt": -1, "trial_type": "single-stim", "stimulus": "<p id=\"stim\">2</p>", "internal_node_id": "0.0-141.0-8.0", "time_elapsed": 962469, "key_press": -1, "trial_index": 194}, "uniqueid": "MTK2827:3MTMREQS4WPTP7KFU7PISW5MJIVWA0", "dateTime": 1519412408651}, {"current_trial": 195, "trialdata": {"rt": -1, "trial_type": "single-stim", "stimulus": "<p id=\"stim\">1</p>", "internal_node_id": "0.0-141.0-9.0", "time_elapsed": 963473, "key_press": -1, "trial_index": 195}, "uniqueid": "MTK2827:3MTMREQS4WPTP7KFU7PISW5MJIVWA0", "dateTime": 1519412409655}, {"current_trial": 196, "trialdata": {"rt": -1, "trial_type": "single-stim", "stimulus": "<p id=\"stim\">+</p>", "internal_node_id": "0.0-142.0-0.0", "time_elapsed": 964976, "key_press": -1, "type": "FIXATION", "trial_index": 196}, "uniqueid": "MTK2827:3MTMREQS4WPTP7KFU7PISW5MJIVWA0", "dateTime": 1519412411158}, {"current_trial": 197, "trialdata": {"rt": -1, "trial_type": "single-stim", "word": "cousin", "stimulus": "<p id=\"stim\">COUSIN</p>", "conditions": [12, 1600, "v", 24000], "internal_node_id": "0.0-143.0", "trial": 5, "time_elapsed": 966577, "serialpos": 0, "key_press": -1, "wordID": 391, "type": "PRES_VIS", "trial_index": 197}, "uniqueid": "MTK2827:3MTMREQS4WPTP7KFU7PISW5MJIVWA0", "dateTime": 1519412412759}, {"current_trial": 198, "trialdata": {"rt": -1, "trial_type": "single-stim", "word": "airplane", "stimulus": "<p id=\"stim\">AIRPLANE</p>", "conditions": [12, 1600, "v", 24000], "internal_node_id": "0.0-144.0", "trial": 5, "time_elapsed": 969369, "serialpos": 1, "key_press": -1, "wordID": 11, "type": "PRES_VIS", "trial_index": 198}, "uniqueid": "MTK2827:3MTMREQS4WPTP7KFU7PISW5MJIVWA0", "dateTime": 1519412415551}, {"current_trial": 199, "trialdata": {"rt": -1, "trial_type": "single-stim", "word": "cellar", "stimulus": "<p id=\"stim\">CELLAR</p>", "conditions": [12, 1600, "v", 24000], "internal_node_id": "0.0-145.0", "trial": 5, "time_elapsed": 971935, "serialpos": 2, "key_press": -1, "wordID": 266, "type": "PRES_VIS", "trial_index": 199}, "uniqueid": "MTK2827:3MTMREQS4WPTP7KFU7PISW5MJIVWA0", "dateTime": 1519412418117}, {"current_trial": 200, "trialdata": {"rt": -1, "trial_type": "single-stim", "word": "survey", "stimulus": "<p id=\"stim\">SURVEY</p>", "conditions": [12, 1600, "v", 24000], "internal_node_id": "0.0-146.0", "trial": 5, "time_elapsed": 974425, "serialpos": 3, "key_press": -1, "wordID": 1413, "type": "PRES_VIS", "trial_index": 200}, "uniqueid": "MTK2827:3MTMREQS4WPTP7KFU7PISW5MJIVWA0", "dateTime": 1519412420607}, {"current_trial": 201, "trialdata": {"rt": -1, "trial_type": "single-stim", "word": "report", "stimulus": "<p id=\"stim\">REPORT</p>", "conditions": [12, 1600, "v", 24000], "internal_node_id": "0.0-147.0", "trial": 5, "time_elapsed": 976885, "serialpos": 4, "key_press": -1, "wordID": 1183, "type": "PRES_VIS", "trial_index": 201}, "uniqueid": "MTK2827:3MTMREQS4WPTP7KFU7PISW5MJIVWA0", "dateTime": 1519412423067}, {"current_trial": 202, "trialdata": {"rt": -1, "trial_type": "single-stim", "word": "snack", "stimulus": "<p id=\"stim\">SNACK</p>", "conditions": [12, 1600, "v", 24000], "internal_node_id": "0.0-148.0", "trial": 5, "time_elapsed": 979584, "serialpos": 5, "key_press": -1, "wordID": 1330, "type": "PRES_VIS", "trial_index": 202}, "uniqueid": "MTK2827:3MTMREQS4WPTP7KFU7PISW5MJIVWA0", "dateTime": 1519412425766}, {"current_trial": 203, "trialdata": {"rt": -1, "trial_type": "single-stim", "word": "pimple", "stimulus": "<p id=\"stim\">PIMPLE</p>", "conditions": [12, 1600, "v", 24000], "internal_node_id": "0.0-149.0", "trial": 5, "time_elapsed": 982144, "serialpos": 6, "key_press": -1, "wordID": 1070, "type": "PRES_VIS", "trial_index": 203}, "uniqueid": "MTK2827:3MTMREQS4WPTP7KFU7PISW5MJIVWA0", "dateTime": 1519412428326}, {"current_trial": 204, "trialdata": {"rt": -1, "trial_type": "single-stim", "word": "child", "stimulus": "<p id=\"stim\">CHILD</p>", "conditions": [12, 1600, "v", 24000], "internal_node_id": "0.0-150.0", "trial": 5, "time_elapsed": 984552, "serialpos": 7, "key_press": -1, "wordID": 298, "type": "PRES_VIS", "trial_index": 204}, "uniqueid": "MTK2827:3MTMREQS4WPTP7KFU7PISW5MJIVWA0", "dateTime": 1519412430734}, {"current_trial": 205, "trialdata": {"rt": -1, "trial_type": "single-stim", "word": "lover", "stimulus": "<p id=\"stim\">LOVER</p>", "conditions": [12, 1600, "v", 24000], "internal_node_id": "0.0-151.0", "trial": 5, "time_elapsed": 987001, "serialpos": 8, "key_press": -1, "wordID": 845, "type": "PRES_VIS", "trial_index": 205}, "uniqueid": "MTK2827:3MTMREQS4WPTP7KFU7PISW5MJIVWA0", "dateTime": 1519412433183}, {"current_trial": 206, "trialdata": {"rt": -1, "trial_type": "single-stim", "word": "garden", "stimulus": "<p id=\"stim\">GARDEN</p>", "conditions": [12, 1600, "v", 24000], "internal_node_id": "0.0-152.0", "trial": 5, "time_elapsed": 989537, "serialpos": 9, "key_press": -1, "wordID": 622, "type": "PRES_VIS", "trial_index": 206}, "uniqueid": "MTK2827:3MTMREQS4WPTP7KFU7PISW5MJIVWA0", "dateTime": 1519412435719}, {"current_trial": 207, "trialdata": {"rt": -1, "trial_type": "single-stim", "word": "record", "stimulus": "<p id=\"stim\">RECORD</p>", "conditions": [12, 1600, "v", 24000], "internal_node_id": "0.0-153.0", "trial": 5, "time_elapsed": 992115, "serialpos": 10, "key_press": -1, "wordID": 1175, "type": "PRES_VIS", "trial_index": 207}, "uniqueid": "MTK2827:3MTMREQS4WPTP7KFU7PISW5MJIVWA0", "dateTime": 1519412438297}, {"current_trial": 208, "trialdata": {"rt": -1, "trial_type": "single-stim", "word": "muffin", "stimulus": "<p id=\"stim\">MUFFIN</p>", "conditions": [12, 1600, "v", 24000], "internal_node_id": "0.0-154.0", "trial": 5, "time_elapsed": 994726, "serialpos": 11, "key_press": -1, "wordID": 928, "type": "PRES_VIS", "trial_index": 208}, "uniqueid": "MTK2827:3MTMREQS4WPTP7KFU7PISW5MJIVWA0", "dateTime": 1519412440909}, {"current_trial": 209, "trialdata": {"rt": -1, "trial_type": "single-stim", "stimulus": "", "internal_node_id": "0.0-155.0-0.0", "time_elapsed": 996833, "key_press": -1, "type": "PRE_RECALL_DELAY", "trial_index": 209}, "uniqueid": "MTK2827:3MTMREQS4WPTP7KFU7PISW5MJIVWA0", "dateTime": 1519412443015}, {"current_trial": 210, "trialdata": {"rt": -1000, "trial_type": "single-audio", "stimulus": "/static/audio/400Hz.wav", "internal_node_id": "0.0-156.0", "time_elapsed": 997334, "key_press": -1, "type": "PRE_RECALL_ALERT", "trial_index": 210}, "uniqueid": "MTK2827:3MTMREQS4WPTP7KFU7PISW5MJIVWA0", "dateTime": 1519412443516}, {"current_trial": 211, "trialdata": {"rt": [2622, 3904, 4983, 6615, 8246, 10711, 14378, 16538, 18225, 21792], "recwords": ["muffin", "child", "lover", "value", "zit", "cousin", "celler", "survey", "report", "snack"], "key_times": [912, 1181, 1418, 1823, 1913, 2070, 2160, 2284, 2622, 3308, 3375, 3465, 3589, 3713, 3904, 4264, 4477, 4579, 4770, 4849, 4983, 6041, 6109, 6154, 6334, 6447, 6615, 7898, 8044, 8145, 8246, 9822, 9945, 10057, 10272, 10384, 10497, 10711, 13286, 13534, 13702, 13872, 14086, 14175, 14378, 15502, 15739, 15829, 16088, 16189, 16335, 16538, 17325, 17427, 17561, 17821, 17888, 18046, 18225, 20959, 21139, 21285, 21544, 21623, 21792], "trial_type": "free-recall", "conditions": [12, 1600, "v", 24000], "internal_node_id": "0.0-157.0-0.0", "key_presses": [77, 85, 68, 8, 70, 70, 73, 78, 13, 67, 72, 73, 76, 68, 13, 76, 79, 86, 69, 82, 13, 86, 65, 76, 85, 69, 13, 90, 73, 84, 13, 67, 79, 85, 83, 73, 78, 13, 67, 69, 76, 76, 69, 82, 13, 83, 85, 82, 86, 69, 89, 13, 82, 69, 80, 79, 82, 84, 13, 83, 78, 65, 67, 75, 13], "trial": 5, "time_elapsed": 1057338, "type": "FREE_RECALL", "trial_index": 211}, "uniqueid": "MTK2827:3MTMREQS4WPTP7KFU7PISW5MJIVWA0", "dateTime": 1519412503522}, {"current_trial": 212, "trialdata": {"rt": 2643, "trial_type": "text", "internal_node_id": "0.0-158.0", "time_elapsed": 1061989, "key_press": 32, "type": "INSTRUCTIONS", "trial_index": 212}, "uniqueid": "MTK2827:3MTMREQS4WPTP7KFU7PISW5MJIVWA0", "dateTime": 1519412508171}, {"current_trial": 213, "trialdata": {"rt": [3742, 5700, 8603, 10774, 13035, 16040, 18357, 20529, 22577], "trial_type": "math-distractor", "key_times": [3484, 3551, 3742, 5306, 5486, 5700, 8254, 8378, 8603, 10572, 10774, 12934, 12968, 13035, 15904, 15961, 16040, 18042, 18245, 18357, 20292, 20337, 20529, 22182, 22385, 22577, 23780, 23937], "responses": ["20", "10", "17", "8", "14", "23", "15", "20", "18"], "num2": [8, 4, 6, 4, 3, 9, 6, 6, 9, 6], "num3": [4, 2, 5, 1, 5, 7, 2, 6, 3, 1], "conditions": [12, 1600, "v", 24000], "internal_node_id": "0.0-159.0", "key_presses": [50, 48, 13, 49, 48, 13, 49, 55, 13, 56, 13, 49, 52, 13, 50, 51, 13, 49, 53, 13, 50, 48, 13, 49, 56, 13, 49, 49], "trial": 6, "time_elapsed": 1088002, "type": "DISTRACTOR", "trial_index": 213, "num1": [8, 4, 6, 3, 6, 7, 7, 8, 6, 4]}, "uniqueid": "MTK2827:3MTMREQS4WPTP7KFU7PISW5MJIVWA0", "dateTime": 1519412534184}, {"current_trial": 214, "trialdata": {"rt": -1, "trial_type": "single-stim", "stimulus": "<p id=\"stim\">10</p>", "internal_node_id": "0.0-160.0-0.0", "time_elapsed": 1091006, "key_press": -1, "trial_index": 214}, "uniqueid": "MTK2827:3MTMREQS4WPTP7KFU7PISW5MJIVWA0", "dateTime": 1519412537188}, {"current_trial": 215, "trialdata": {"rt": -1, "trial_type": "single-stim", "stimulus": "<p id=\"stim\">9</p>", "internal_node_id": "0.0-160.0-1.0", "time_elapsed": 1092007, "key_press": -1, "trial_index": 215}, "uniqueid": "MTK2827:3MTMREQS4WPTP7KFU7PISW5MJIVWA0", "dateTime": 1519412538189}, {"current_trial": 216, "trialdata": {"rt": -1, "trial_type": "single-stim", "stimulus": "<p id=\"stim\">8</p>", "internal_node_id": "0.0-160.0-2.0", "time_elapsed": 1093009, "key_press": -1, "trial_index": 216}, "uniqueid": "MTK2827:3MTMREQS4WPTP7KFU7PISW5MJIVWA0", "dateTime": 1519412539191}, {"current_trial": 217, "trialdata": {"rt": -1, "trial_type": "single-stim", "stimulus": "<p id=\"stim\">7</p>", "internal_node_id": "0.0-160.0-3.0", "time_elapsed": 1094010, "key_press": -1, "trial_index": 217}, "uniqueid": "MTK2827:3MTMREQS4WPTP7KFU7PISW5MJIVWA0", "dateTime": 1519412540192}, {"current_trial": 218, "trialdata": {"rt": -1, "trial_type": "single-stim", "stimulus": "<p id=\"stim\">6</p>", "internal_node_id": "0.0-160.0-4.0", "time_elapsed": 1095012, "key_press": -1, "trial_index": 218}, "uniqueid": "MTK2827:3MTMREQS4WPTP7KFU7PISW5MJIVWA0", "dateTime": 1519412541194}, {"current_trial": 219, "trialdata": {"rt": -1, "trial_type": "single-stim", "stimulus": "<p id=\"stim\">5</p>", "internal_node_id": "0.0-160.0-5.0", "time_elapsed": 1096016, "key_press": -1, "trial_index": 219}, "uniqueid": "MTK2827:3MTMREQS4WPTP7KFU7PISW5MJIVWA0", "dateTime": 1519412542198}, {"current_trial": 220, "trialdata": {"rt": -1, "trial_type": "single-stim", "stimulus": "<p id=\"stim\">4</p>", "internal_node_id": "0.0-160.0-6.0", "time_elapsed": 1097020, "key_press": -1, "trial_index": 220}, "uniqueid": "MTK2827:3MTMREQS4WPTP7KFU7PISW5MJIVWA0", "dateTime": 1519412543202}, {"current_trial": 221, "trialdata": {"rt": -1, "trial_type": "single-stim", "stimulus": "<p id=\"stim\">3</p>", "internal_node_id": "0.0-160.0-7.0", "time_elapsed": 1098025, "key_press": -1, "trial_index": 221}, "uniqueid": "MTK2827:3MTMREQS4WPTP7KFU7PISW5MJIVWA0", "dateTime": 1519412544207}, {"current_trial": 222, "trialdata": {"rt": -1, "trial_type": "single-stim", "stimulus": "<p id=\"stim\">2</p>", "internal_node_id": "0.0-160.0-8.0", "time_elapsed": 1099028, "key_press": -1, "trial_index": 222}, "uniqueid": "MTK2827:3MTMREQS4WPTP7KFU7PISW5MJIVWA0", "dateTime": 1519412545210}, {"current_trial": 223, "trialdata": {"rt": -1, "trial_type": "single-stim", "stimulus": "<p id=\"stim\">1</p>", "internal_node_id": "0.0-160.0-9.0", "time_elapsed": 1100032, "key_press": -1, "trial_index": 223}, "uniqueid": "MTK2827:3MTMREQS4WPTP7KFU7PISW5MJIVWA0", "dateTime": 1519412546214}, {"current_trial": 224, "trialdata": {"rt": -1, "trial_type": "single-stim", "stimulus": "<p id=\"stim\">+</p>", "internal_node_id": "0.0-161.0-0.0", "time_elapsed": 1101535, "key_press": -1, "type": "FIXATION", "trial_index": 224}, "uniqueid": "MTK2827:3MTMREQS4WPTP7KFU7PISW5MJIVWA0", "dateTime": 1519412547717}, {"current_trial": 225, "trialdata": {"rt": -1, "trial_type": "single-stim", "word": "cabbage", "stimulus": "<p id=\"stim\">CABBAGE</p>", "conditions": [12, 1600, "v", 24000], "internal_node_id": "0.0-162.0", "trial": 6, "time_elapsed": 1103138, "serialpos": 0, "key_press": -1, "wordID": 209, "type": "PRES_VIS", "trial_index": 225}, "uniqueid": "MTK2827:3MTMREQS4WPTP7KFU7PISW5MJIVWA0", "dateTime": 1519412549320}, {"current_trial": 226, "trialdata": {"rt": -1, "trial_type": "single-stim", "word": "shoulder", "stimulus": "<p id=\"stim\">SHOULDER</p>", "conditions": [12, 1600, "v", 24000], "internal_node_id": "0.0-163.0", "trial": 6, "time_elapsed": 1105791, "serialpos": 1, "key_press": -1, "wordID": 1293, "type": "PRES_VIS", "trial_index": 226}, "uniqueid": "MTK2827:3MTMREQS4WPTP7KFU7PISW5MJIVWA0", "dateTime": 1519412551973}, {"current_trial": 227, "trialdata": {"rt": -1, "trial_type": "single-stim", "word": "church", "stimulus": "<p id=\"stim\">CHURCH</p>", "conditions": [12, 1600, "v", 24000], "internal_node_id": "0.0-164.0", "trial": 6, "time_elapsed": 1108350, "serialpos": 2, "key_press": -1, "wordID": 306, "type": "PRES_VIS", "trial_index": 227}, "uniqueid": "MTK2827:3MTMREQS4WPTP7KFU7PISW5MJIVWA0", "dateTime": 1519412554532}, {"current_trial": 228, "trialdata": {"rt": -1, "trial_type": "single-stim", "word": "diver", "stimulus": "<p id=\"stim\">DIVER</p>", "conditions": [12, 1600, "v", 24000], "internal_node_id": "0.0-165.0", "trial": 6, "time_elapsed": 1111019, "serialpos": 3, "key_press": -1, "wordID": 475, "type": "PRES_VIS", "trial_index": 228}, "uniqueid": "MTK2827:3MTMREQS4WPTP7KFU7PISW5MJIVWA0", "dateTime": 1519412557201}, {"current_trial": 229, "trialdata": {"rt": -1, "trial_type": "single-stim", "word": "kidney", "stimulus": "<p id=\"stim\">KIDNEY</p>", "conditions": [12, 1600, "v", 24000], "internal_node_id": "0.0-166.0", "trial": 6, "time_elapsed": 1113811, "serialpos": 4, "key_press": -1, "wordID": 775, "type": "PRES_VIS", "trial_index": 229}, "uniqueid": "MTK2827:3MTMREQS4WPTP7KFU7PISW5MJIVWA0", "dateTime": 1519412559993}, {"current_trial": 230, "trialdata": {"rt": -1, "trial_type": "single-stim", "word": "marrow", "stimulus": "<p id=\"stim\">MARROW</p>", "conditions": [12, 1600, "v", 24000], "internal_node_id": "0.0-167.0", "trial": 6, "time_elapsed": 1116597, "serialpos": 5, "key_press": -1, "wordID": 871, "type": "PRES_VIS", "trial_index": 230}, "uniqueid": "MTK2827:3MTMREQS4WPTP7KFU7PISW5MJIVWA0", "dateTime": 1519412562779}, {"current_trial": 231, "trialdata": {"rt": -1, "trial_type": "single-stim", "word": "cigar", "stimulus": "<p id=\"stim\">CIGAR</p>", "conditions": [12, 1600, "v", 24000], "internal_node_id": "0.0-168.0", "trial": 6, "time_elapsed": 1119034, "serialpos": 6, "key_press": -1, "wordID": 307, "type": "PRES_VIS", "trial_index": 231}, "uniqueid": "MTK2827:3MTMREQS4WPTP7KFU7PISW5MJIVWA0", "dateTime": 1519412565216}, {"current_trial": 232, "trialdata": {"rt": -1, "trial_type": "single-stim", "word": "passage", "stimulus": "<p id=\"stim\">PASSAGE</p>", "conditions": [12, 1600, "v", 24000], "internal_node_id": "0.0-169.0", "trial": 6, "time_elapsed": 1121750, "serialpos": 7, "key_press": -1, "wordID": 1018, "type": "PRES_VIS", "trial_index": 232}, "uniqueid": "MTK2827:3MTMREQS4WPTP7KFU7PISW5MJIVWA0", "dateTime": 1519412567932}, {"current_trial": 233, "trialdata": {"rt": -1, "trial_type": "single-stim", "word": "package", "stimulus": "<p id=\"stim\">PACKAGE</p>", "conditions": [12, 1600, "v", 24000], "internal_node_id": "0.0-170.0", "trial": 6, "time_elapsed": 1124363, "serialpos": 8, "key_press": -1, "wordID": 996, "type": "PRES_VIS", "trial_index": 233}, "uniqueid": "MTK2827:3MTMREQS4WPTP7KFU7PISW5MJIVWA0", "dateTime": 1519412570545}, {"current_trial": 234, "trialdata": {"rt": -1, "trial_type": "single-stim", "word": "chapel", "stimulus": "<p id=\"stim\">CHAPEL</p>", "conditions": [12, 1600, "v", 24000], "internal_node_id": "0.0-171.0", "trial": 6, "time_elapsed": 1127125, "serialpos": 9, "key_press": -1, "wordID": 279, "type": "PRES_VIS", "trial_index": 234}, "uniqueid": "MTK2827:3MTMREQS4WPTP7KFU7PISW5MJIVWA0", "dateTime": 1519412573307}, {"current_trial": 235, "trialdata": {"rt": -1, "trial_type": "single-stim", "word": "chemist", "stimulus": "<p id=\"stim\">CHEMIST</p>", "conditions": [12, 1600, "v", 24000], "internal_node_id": "0.0-172.0", "trial": 6, "time_elapsed": 1129556, "serialpos": 10, "key_press": -1, "wordID": 291, "type": "PRES_VIS", "trial_index": 235}, "uniqueid": "MTK2827:3MTMREQS4WPTP7KFU7PISW5MJIVWA0", "dateTime": 1519412575739}, {"current_trial": 236, "trialdata": {"rt": -1, "trial_type": "single-stim", "word": "stamp", "stimulus": "<p id=\"stim\">STAMP</p>", "conditions": [12, 1600, "v", 24000], "internal_node_id": "0.0-173.0", "trial": 6, "time_elapsed": 1132337, "serialpos": 11, "key_press": -1, "wordID": 1369, "type": "PRES_VIS", "trial_index": 236}, "uniqueid": "MTK2827:3MTMREQS4WPTP7KFU7PISW5MJIVWA0", "dateTime": 1519412578519}, {"current_trial": 237, "trialdata": {"rt": -1, "trial_type": "single-stim", "stimulus": "", "internal_node_id": "0.0-174.0-0.0", "time_elapsed": 1134461, "key_press": -1, "type": "PRE_RECALL_DELAY", "trial_index": 237}, "uniqueid": "MTK2827:3MTMREQS4WPTP7KFU7PISW5MJIVWA0", "dateTime": 1519412580643}, {"current_trial": 238, "trialdata": {"rt": -1000, "trial_type": "single-audio", "stimulus": "/static/audio/400Hz.wav", "internal_node_id": "0.0-175.0", "time_elapsed": 1134962, "key_press": -1, "type": "PRE_RECALL_ALERT", "trial_index": 238}, "uniqueid": "MTK2827:3MTMREQS4WPTP7KFU7PISW5MJIVWA0", "dateTime": 1519412581145}, {"current_trial": 239, "trialdata": {"rt": [3315, 5430, 7523, 10042, 12372, 16208, 24297, 25770], "recwords": ["stamp", "diver", "package", "church", "liver", "kidney", "cigar", "marriage"], "key_times": [942, 1155, 1301, 1425, 1841, 1999, 2156, 2325, 2493, 2584, 2696, 2854, 3034, 3315, 4755, 4868, 4991, 5183, 5273, 5430, 6173, 6307, 6476, 6611, 6948, 7117, 7207, 7523, 8828, 8997, 9165, 9289, 9796, 9852, 10042, 10920, 11067, 11269, 11403, 11606, 12372, 15184, 15386, 15543, 15690, 15814, 15972, 16208, 23656, 23745, 23891, 24037, 24173, 24297, 24578, 24690, 24780, 24938, 25039, 25163, 25366, 25489, 25770], "trial_type": "free-recall", "conditions": [12, 1600, "v", 24000], "internal_node_id": "0.0-176.0-0.0", "key_presses": [65, 84, 65, 77, 8, 8, 8, 8, 83, 84, 65, 77, 80, 13, 68, 73, 86, 69, 82, 13, 80, 65, 67, 75, 65, 71, 69, 13, 67, 72, 85, 82, 67, 72, 13, 76, 73, 86, 69, 82, 13, 75, 73, 68, 78, 69, 89, 13, 67, 73, 71, 65, 82, 13, 77, 65, 82, 82, 73, 65, 71, 69, 13], "trial": 6, "time_elapsed": 1194964, "type": "FREE_RECALL", "trial_index": 239}, "uniqueid": "MTK2827:3MTMREQS4WPTP7KFU7PISW5MJIVWA0", "dateTime": 1519412641149}, {"current_trial": 240, "trialdata": {"rt": 19854, "trial_type": "text", "internal_node_id": "0.0-177.0", "time_elapsed": 1216826, "key_press": 32, "type": "INSTRUCTIONS", "trial_index": 240}, "uniqueid": "MTK2827:3MTMREQS4WPTP7KFU7PISW5MJIVWA0", "dateTime": 1519412663008}, {"current_trial": 241, "trialdata": {"rt": [2350, 4342, 6333, 9449, 11688, 14332, 16761, 18697], "trial_type": "math-distractor", "key_times": [2159, 2328, 2350, 4083, 4127, 4342, 6187, 6333, 9314, 9359, 9449, 11215, 11316, 11688, 14253, 14265, 14332, 16683, 16761, 18292, 18359, 18697], "responses": ["22", "17", "8", "23", "19", "12", "4", "18"], "num2": [9, 8, 1, 8, 7, 7, 2, 6, 9], "num3": [5, 7, 5, 8, 4, 1, 1, 7, 8], "conditions": [12, 800, "v", 24000], "internal_node_id": "0.0-178.0", "key_presses": [50, 50, 13, 49, 55, 13, 56, 13, 50, 51, 13, 49, 57, 13, 49, 50, 13, 52, 13, 49, 56, 13], "trial": 7, "time_elapsed": 1242834, "type": "DISTRACTOR", "trial_index": 241, "num1": [8, 2, 2, 7, 8, 4, 1, 5, 7]}, "uniqueid": "MTK2827:3MTMREQS4WPTP7KFU7PISW5MJIVWA0", "dateTime": 1519412689016}, {"current_trial": 242, "trialdata": {"rt": -1, "trial_type": "single-stim", "stimulus": "<p id=\"stim\">10</p>", "internal_node_id": "0.0-179.0-0.0", "time_elapsed": 1245841, "key_press": -1, "trial_index": 242}, "uniqueid": "MTK2827:3MTMREQS4WPTP7KFU7PISW5MJIVWA0", "dateTime": 1519412692023}, {"current_trial": 243, "trialdata": {"rt": -1, "trial_type": "single-stim", "stimulus": "<p id=\"stim\">9</p>", "internal_node_id": "0.0-179.0-1.0", "time_elapsed": 1246844, "key_press": -1, "trial_index": 243}, "uniqueid": "MTK2827:3MTMREQS4WPTP7KFU7PISW5MJIVWA0", "dateTime": 1519412693026}, {"current_trial": 244, "trialdata": {"rt": -1, "trial_type": "single-stim", "stimulus": "<p id=\"stim\">8</p>", "internal_node_id": "0.0-179.0-2.0", "time_elapsed": 1247848, "key_press": -1, "trial_index": 244}, "uniqueid": "MTK2827:3MTMREQS4WPTP7KFU7PISW5MJIVWA0", "dateTime": 1519412694031}, {"current_trial": 245, "trialdata": {"rt": -1, "trial_type": "single-stim", "stimulus": "<p id=\"stim\">7</p>", "internal_node_id": "0.0-179.0-3.0", "time_elapsed": 1248853, "key_press": -1, "trial_index": 245}, "uniqueid": "MTK2827:3MTMREQS4WPTP7KFU7PISW5MJIVWA0", "dateTime": 1519412695035}, {"current_trial": 246, "trialdata": {"rt": -1, "trial_type": "single-stim", "stimulus": "<p id=\"stim\">6</p>", "internal_node_id": "0.0-179.0-4.0", "time_elapsed": 1249856, "key_press": -1, "trial_index": 246}, "uniqueid": "MTK2827:3MTMREQS4WPTP7KFU7PISW5MJIVWA0", "dateTime": 1519412696038}, {"current_trial": 247, "trialdata": {"rt": -1, "trial_type": "single-stim", "stimulus": "<p id=\"stim\">5</p>", "internal_node_id": "0.0-179.0-5.0", "time_elapsed": 1250861, "key_press": -1, "trial_index": 247}, "uniqueid": "MTK2827:3MTMREQS4WPTP7KFU7PISW5MJIVWA0", "dateTime": 1519412697043}, {"current_trial": 248, "trialdata": {"rt": -1, "trial_type": "single-stim", "stimulus": "<p id=\"stim\">4</p>", "internal_node_id": "0.0-179.0-6.0", "time_elapsed": 1251865, "key_press": -1, "trial_index": 248}, "uniqueid": "MTK2827:3M