{"assignmentId": "3LJ7UR74RIKO0OVKT5O4JA6VXOCN4P", "workerId": "MTK2647", "questiondata": {"origin": "United States", "strat-rehearsal": "2", "marital": "Married/Domestic Partnership", "education": "High school diploma", "ethnicity": "Not Hispanic", "color_depth": 24, "distracted": "No", "wrote-notes": "No", "strat-other": "", "screen_width": 1536, "avail_screen_width": 1536, "avail_screen_height": 824, "strat-image": "37", "language": "english", "gender": "Female", "age": "32", "gender_other": "", "race": ["White"], "strat-categorize": "47", "pixel_depth": 24, "strat-spatial": "4", "strat-story": "31", "race_other": "", "screen_height": 864}, "bonus": 0, "hitId": "3IZPORCT1FG14EDDBHK2XZOPJKLRHU", "counterbalance": 2413, "useragent": "Mozilla/5.0 (Windows NT 10.0; Win64; x64) AppleWebKit/537.36 (KHTML, like Gecko) Chrome/63.0.3239.132 Safari/537.36", "eventdata": [{"eventtype": "initialized", "interval": 0, "value": null, "timestamp": 1519172203588}, {"eventtype": "window_resize", "interval": 0, "value": [1540, 816], "timestamp": 1519172203588}, {"eventtype": "focus", "interval": 24757, "value": "off", "timestamp": 1519172228345}, {"eventtype": "focus", "interval": 3, "value": "on", "timestamp": 1519172228348}, {"eventtype": "focus", "interval": 50026, "value": "off", "timestamp": 1519172278374}, {"eventtype": "focus", "interval": 4090, "value": "on", "timestamp": 1519172282464}, {"eventtype": "focus", "interval": 178219, "value": "off", "timestamp": 1519172460683}, {"eventtype": "focus", "interval": 14108, "value": "on", "timestamp": 1519172474791}, {"eventtype": "focus", "interval": 1518597, "value": "off", "timestamp": 1519173993388}, {"eventtype": "focus", "interval": 4216, "value": "on", "timestamp": 1519173997604}, {"eventtype": "window_resize", "interval": 808445, "value": [1536, 774], "timestamp": 1519174806049}, {"eventtype": "window_resize", "interval": 1082, "value": [1540, 816], "timestamp": 1519174807131}, {"eventtype": "focus", "interval": 827, "value": "off", "timestamp": 1519174807958}, {"eventtype": "focus", "interval": 9534, "value": "on", "timestamp": 1519174817492}], "data": [{"current_trial": 0, "trialdata": {"rt": 2729, "trial_type": "text", "internal_node_id": "0.0-0.0", "time_elapsed": 2732, "key_press": 32, "type": "INSTRUCTIONS", "trial_index": 0}, "uniqueid": "MTK2647:3LJ7UR74RIKO0OVKT5O4JA6VXOCN4P", "dateTime": 1519172231246}, {"current_trial": 1, "trialdata": {"rt": 34768, "trial_type": "text", "internal_node_id": "0.0-1.0", "time_elapsed": 37502, "key_press": 13, "type": "INSTRUCTIONS", "trial_index": 1}, "uniqueid": "MTK2647:3LJ7UR74RIKO0OVKT5O4JA6VXOCN4P", "dateTime": 1519172266016}, {"current_trial": 2, "trialdata": {"rt": [20844], "trial_type": "audio-test", "responses": ["ocean"], "internal_node_id": "0.0-2.0", "time_elapsed": 58354, "type": "AUDIO_TEST", "trial_index": 2}, "uniqueid": "MTK2647:3LJ7UR74RIKO0OVKT5O4JA6VXOCN4P", "dateTime": 1519172286868}, {"current_trial": 3, "trialdata": {"rt": [12457], "trial_type": "audio-test", "responses": ["crystal"], "internal_node_id": "0.0-3.0", "time_elapsed": 70817, "type": "AUDIO_TEST", "trial_index": 3}, "uniqueid": "MTK2647:3LJ7UR74RIKO0OVKT5O4JA6VXOCN4P", "dateTime": 1519172299331}, {"current_trial": 4, "trialdata": {"rt": [7024], "trial_type": "audio-test", "responses": ["spice"], "internal_node_id": "0.0-4.0", "time_elapsed": 77844, "type": "AUDIO_TEST", "trial_index": 4}, "uniqueid": "MTK2647:3LJ7UR74RIKO0OVKT5O4JA6VXOCN4P", "dateTime": 1519172306358}, {"current_trial": 5, "trialdata": {"rt": 85856, "trial_type": "survey-text", "responses": "{\"Q0\":\"12:00\",\"Q1\":\"9:00\",\"Q2\":\"4\"}", "internal_node_id": "0.0-5.0", "time_elapsed": 164453, "type": "SLEEP_SURVEY", "trial_index": 5}, "uniqueid": "MTK2647:3LJ7UR74RIKO0OVKT5O4JA6VXOCN4P", "dateTime": 1519172392967}, {"current_trial": 6, "trialdata": {"rt": 93642, "trial_type": "text", "internal_node_id": "0.0-6.0", "time_elapsed": 259096, "key_press": 32, "type": "INSTRUCTIONS", "trial_index": 6}, "uniqueid": "MTK2647:3LJ7UR74RIKO0OVKT5O4JA6VXOCN4P", "dateTime": 1519172487610}, {"current_trial": 7, "trialdata": {"rt": 23580, "trial_type": "text", "internal_node_id": "0.0-7.0", "time_elapsed": 283176, "key_press": 32, "type": "INSTRUCTIONS", "trial_index": 7}, "uniqueid": "MTK2647:3LJ7UR74RIKO0OVKT5O4JA6VXOCN4P", "dateTime": 1519172511690}, {"current_trial": 8, "trialdata": {"rt": 15343, "trial_type": "text", "internal_node_id": "0.0-8.0", "time_elapsed": 299019, "key_press": 32, "type": "INSTRUCTIONS", "trial_index": 8}, "uniqueid": "MTK2647:3LJ7UR74RIKO0OVKT5O4JA6VXOCN4P", "dateTime": 1519172527533}, {"current_trial": 9, "trialdata": {"rt": [6416], "trial_type": "math-distractor", "key_times": [5205, 5496, 6416, 6422, 7841], "responses": ["12"], "num2": [7, 9], "num3": [3, 8], "conditions": [18, 1200, "a", 18000], "internal_node_id": "0.0-9.0", "key_presses": [49, 50, 13, 220, 8], "trial": 0, "time_elapsed": 318024, "type": "DISTRACTOR", "trial_index": 9, "num1": [2, 5]}, "uniqueid": "MTK2647:3LJ7UR74RIKO0OVKT5O4JA6VXOCN4P", "dateTime": 1519172546538}, {"current_trial": 10, "trialdata": {"rt": -1, "trial_type": "single-stim", "stimulus": "<p id=\"stim\">10</p>", "internal_node_id": "0.0-10.0-0.0", "time_elapsed": 321026, "key_press": -1, "trial_index": 10}, "uniqueid": "MTK2647:3LJ7UR74RIKO0OVKT5O4JA6VXOCN4P", "dateTime": 1519172549540}, {"current_trial": 11, "trialdata": {"rt": -1, "trial_type": "single-stim", "stimulus": "<p id=\"stim\">9</p>", "internal_node_id": "0.0-10.0-1.0", "time_elapsed": 322029, "key_press": -1, "trial_index": 11}, "uniqueid": "MTK2647:3LJ7UR74RIKO0OVKT5O4JA6VXOCN4P", "dateTime": 1519172550543}, {"current_trial": 12, "trialdata": {"rt": -1, "trial_type": "single-stim", "stimulus": "<p id=\"stim\">8</p>", "internal_node_id": "0.0-10.0-2.0", "time_elapsed": 323030, "key_press": -1, "trial_index": 12}, "uniqueid": "MTK2647:3LJ7UR74RIKO0OVKT5O4JA6VXOCN4P", "dateTime": 1519172551544}, {"current_trial": 13, "trialdata": {"rt": -1, "trial_type": "single-stim", "stimulus": "<p id=\"stim\">7</p>", "internal_node_id": "0.0-10.0-3.0", "time_elapsed": 324031, "key_press": -1, "trial_index": 13}, "uniqueid": "MTK2647:3LJ7UR74RIKO0OVKT5O4JA6VXOCN4P", "dateTime": 1519172552545}, {"current_trial": 14, "trialdata": {"rt": -1, "trial_type": "single-stim", "stimulus": "<p id=\"stim\">6</p>", "internal_node_id": "0.0-10.0-4.0", "time_elapsed": 325032, "key_press": -1, "trial_index": 14}, "uniqueid": "MTK2647:3LJ7UR74RIKO0OVKT5O4JA6VXOCN4P", "dateTime": 1519172553546}, {"current_trial": 15, "trialdata": {"rt": -1, "trial_type": "single-stim", "stimulus": "<p id=\"stim\">5</p>", "internal_node_id": "0.0-10.0-5.0", "time_elapsed": 326033, "key_press": -1, "trial_index": 15}, "uniqueid": "MTK2647:3LJ7UR74RIKO0OVKT5O4JA6VXOCN4P", "dateTime": 1519172554548}, {"current_trial": 16, "trialdata": {"rt": -1, "trial_type": "single-stim", "stimulus": "<p id=\"stim\">4</p>", "internal_node_id": "0.0-10.0-6.0", "time_elapsed": 327035, "key_press": -1, "trial_index": 16}, "uniqueid": "MTK2647:3LJ7UR74RIKO0OVKT5O4JA6VXOCN4P", "dateTime": 1519172555549}, {"current_trial": 17, "trialdata": {"rt": -1, "trial_type": "single-stim", "stimulus": "<p id=\"stim\">3</p>", "internal_node_id": "0.0-10.0-7.0", "time_elapsed": 328037, "key_press": -1, "trial_index": 17}, "uniqueid": "MTK2647:3LJ7UR74RIKO0OVKT5O4JA6VXOCN4P", "dateTime": 1519172556551}, {"current_trial": 18, "trialdata": {"rt": -1, "trial_type": "single-stim", "stimulus": "<p id=\"stim\">2</p>", "internal_node_id": "0.0-10.0-8.0", "time_elapsed": 329038, "key_press": -1, "trial_index": 18}, "uniqueid": "MTK2647:3LJ7UR74RIKO0OVKT5O4JA6VXOCN4P", "dateTime": 1519172557552}, {"current_trial": 19, "trialdata": {"rt": -1, "trial_type": "single-stim", "stimulus": "<p id=\"stim\">1</p>", "internal_node_id": "0.0-10.0-9.0", "time_elapsed": 330039, "key_press": -1, "trial_index": 19}, "uniqueid": "MTK2647:3LJ7UR74RIKO0OVKT5O4JA6VXOCN4P", "dateTime": 1519172558553}, {"current_trial": 20, "trialdata": {"rt": -1, "trial_type": "single-stim", "stimulus": "<p id=\"stim\">+</p>", "internal_node_id": "0.0-11.0-0.0", "time_elapsed": 331540, "key_press": -1, "type": "FIXATION", "trial_index": 20}, "uniqueid": "MTK2647:3LJ7UR74RIKO0OVKT5O4JA6VXOCN4P", "dateTime": 1519172560054}, {"current_trial": 21, "trialdata": {"rt": -1000, "trial_type": "single-audio", "word": "skillet", "stimulus": "/static/audio/wordpool/SKILLET.wav", "conditions": [18, 1200, "a", 18000], "internal_node_id": "0.0-12.0", "trial": 0, "time_elapsed": 333938, "serialpos": 0, "key_press": -1, "wordID": 1316, "type": "PRES_AUD", "trial_index": 21}, "uniqueid": "MTK2647:3LJ7UR74RIKO0OVKT5O4JA6VXOCN4P", "dateTime": 1519172562453}, {"current_trial": 22, "trialdata": {"rt": -1000, "trial_type": "single-audio", "word": "match", "stimulus": "/static/audio/wordpool/MATCH.wav", "conditions": [18, 1200, "a", 18000], "internal_node_id": "0.0-13.0", "trial": 0, "time_elapsed": 336339, "serialpos": 1, "key_press": -1, "wordID": 877, "type": "PRES_AUD", "trial_index": 22}, "uniqueid": "MTK2647:3LJ7UR74RIKO0OVKT5O4JA6VXOCN4P", "dateTime": 1519172564853}, {"current_trial": 23, "trialdata": {"rt": -1000, "trial_type": "single-audio", "word": "shrub", "stimulus": "/static/audio/wordpool/SHRUB.wav", "conditions": [18, 1200, "a", 18000], "internal_node_id": "0.0-14.0", "trial": 0, "time_elapsed": 338490, "serialpos": 2, "key_press": -1, "wordID": 1298, "type": "PRES_AUD", "trial_index": 23}, "uniqueid": "MTK2647:3LJ7UR74RIKO0OVKT5O4JA6VXOCN4P", "dateTime": 1519172567004}, {"current_trial": 24, "trialdata": {"rt": -1000, "trial_type": "single-audio", "word": "plaid", "stimulus": "/static/audio/wordpool/PLAID.wav", "conditions": [18, 1200, "a", 18000], "internal_node_id": "0.0-15.0", "trial": 0, "time_elapsed": 340698, "serialpos": 3, "key_press": -1, "wordID": 1079, "type": "PRES_AUD", "trial_index": 24}, "uniqueid": "MTK2647:3LJ7UR74RIKO0OVKT5O4JA6VXOCN4P", "dateTime": 1519172569212}, {"current_trial": 25, "trialdata": {"rt": -1000, "trial_type": "single-audio", "word": "japan", "stimulus": "/static/audio/wordpool/JAPAN.wav", "conditions": [18, 1200, "a", 18000], "internal_node_id": "0.0-16.0", "trial": 0, "time_elapsed": 342929, "serialpos": 4, "key_press": -1, "wordID": 748, "type": "PRES_AUD", "trial_index": 25}, "uniqueid": "MTK2647:3LJ7UR74RIKO0OVKT5O4JA6VXOCN4P", "dateTime": 1519172571443}, {"current_trial": 26, "trialdata": {"rt": -1000, "trial_type": "single-audio", "word": "sidewalk", "stimulus": "/static/audio/wordpool/SIDEWALK.wav", "conditions": [18, 1200, "a", 18000], "internal_node_id": "0.0-17.0", "trial": 0, "time_elapsed": 344951, "serialpos": 5, "key_press": -1, "wordID": 1302, "type": "PRES_AUD", "trial_index": 26}, "uniqueid": "MTK2647:3LJ7UR74RIKO0OVKT5O4JA6VXOCN4P", "dateTime": 1519172573465}, {"current_trial": 27, "trialdata": {"rt": -1000, "trial_type": "single-audio", "word": "saddle", "stimulus": "/static/audio/wordpool/SADDLE.wav", "conditions": [18, 1200, "a", 18000], "internal_node_id": "0.0-18.0", "trial": 0, "time_elapsed": 347345, "serialpos": 6, "key_press": -1, "wordID": 1220, "type": "PRES_AUD", "trial_index": 27}, "uniqueid": "MTK2647:3LJ7UR74RIKO0OVKT5O4JA6VXOCN4P", "dateTime": 1519172575859}, {"current_trial": 28, "trialdata": {"rt": -1000, "trial_type": "single-audio", "word": "clamp", "stimulus": "/static/audio/wordpool/CLAMP.wav", "conditions": [18, 1200, "a", 18000], "internal_node_id": "0.0-19.0", "trial": 0, "time_elapsed": 349713, "serialpos": 7, "key_press": -1, "wordID": 315, "type": "PRES_AUD", "trial_index": 28}, "uniqueid": "MTK2647:3LJ7UR74RIKO0OVKT5O4JA6VXOCN4P", "dateTime": 1519172578227}, {"current_trial": 29, "trialdata": {"rt": -1000, "trial_type": "single-audio", "word": "peach", "stimulus": "/static/audio/wordpool/PEACH.wav", "conditions": [18, 1200, "a", 18000], "internal_node_id": "0.0-20.0", "trial": 0, "time_elapsed": 352044, "serialpos": 8, "key_press": -1, "wordID": 1030, "type": "PRES_AUD", "trial_index": 29}, "uniqueid": "MTK2647:3LJ7UR74RIKO0OVKT5O4JA6VXOCN4P", "dateTime": 1519172580558}, {"current_trial": 30, "trialdata": {"rt": -1000, "trial_type": "single-audio", "word": "slug", "stimulus": "/static/audio/wordpool/SLUG.wav", "conditions": [18, 1200, "a", 18000], "internal_node_id": "0.0-21.0", "trial": 0, "time_elapsed": 354167, "serialpos": 9, "key_press": -1, "wordID": 1328, "type": "PRES_AUD", "trial_index": 30}, "uniqueid": "MTK2647:3LJ7UR74RIKO0OVKT5O4JA6VXOCN4P", "dateTime": 1519172582681}, {"current_trial": 31, "trialdata": {"rt": -1000, "trial_type": "single-audio", "word": "juggler", "stimulus": "/static/audio/wordpool/JUGGLER.wav", "conditions": [18, 1200, "a", 18000], "internal_node_id": "0.0-22.0", "trial": 0, "time_elapsed": 356516, "serialpos": 10, "key_press": -1, "wordID": 762, "type": "PRES_AUD", "trial_index": 31}, "uniqueid": "MTK2647:3LJ7UR74RIKO0OVKT5O4JA6VXOCN4P", "dateTime": 1519172585030}, {"current_trial": 32, "trialdata": {"rt": -1000, "trial_type": "single-audio", "word": "iceberg", "stimulus": "/static/audio/wordpool/ICEBERG.wav", "conditions": [18, 1200, "a", 18000], "internal_node_id": "0.0-23.0", "trial": 0, "time_elapsed": 358721, "serialpos": 11, "key_press": -1, "wordID": 730, "type": "PRES_AUD", "trial_index": 32}, "uniqueid": "MTK2647:3LJ7UR74RIKO0OVKT5O4JA6VXOCN4P", "dateTime": 1519172587235}, {"current_trial": 33, "trialdata": {"rt": -1000, "trial_type": "single-audio", "word": "heart", "stimulus": "/static/audio/wordpool/HEART.wav", "conditions": [18, 1200, "a", 18000], "internal_node_id": "0.0-24.0", "trial": 0, "time_elapsed": 360792, "serialpos": 12, "key_press": -1, "wordID": 696, "type": "PRES_AUD", "trial_index": 33}, "uniqueid": "MTK2647:3LJ7UR74RIKO0OVKT5O4JA6VXOCN4P", "dateTime": 1519172589306}, {"current_trial": 34, "trialdata": {"rt": -1000, "trial_type": "single-audio", "word": "trench", "stimulus": "/static/audio/wordpool/TRENCH.wav", "conditions": [18, 1200, "a", 18000], "internal_node_id": "0.0-25.0", "trial": 0, "time_elapsed": 362902, "serialpos": 13, "key_press": -1, "wordID": 1502, "type": "PRES_AUD", "trial_index": 34}, "uniqueid": "MTK2647:3LJ7UR74RIKO0OVKT5O4JA6VXOCN4P", "dateTime": 1519172591416}, {"current_trial": 35, "trialdata": {"rt": -1000, "trial_type": "single-audio", "word": "bouquet", "stimulus": "/static/audio/wordpool/BOUQUET.wav", "conditions": [18, 1200, "a", 18000], "internal_node_id": "0.0-26.0", "trial": 0, "time_elapsed": 364904, "serialpos": 14, "key_press": -1, "wordID": 156, "type": "PRES_AUD", "trial_index": 35}, "uniqueid": "MTK2647:3LJ7UR74RIKO0OVKT5O4JA6VXOCN4P", "dateTime": 1519172593418}, {"current_trial": 36, "trialdata": {"rt": -1000, "trial_type": "single-audio", "word": "cyclone", "stimulus": "/static/audio/wordpool/CYCLONE.wav", "conditions": [18, 1200, "a", 18000], "internal_node_id": "0.0-27.0", "trial": 0, "time_elapsed": 367105, "serialpos": 15, "key_press": -1, "wordID": 430, "type": "PRES_AUD", "trial_index": 36}, "uniqueid": "MTK2647:3LJ7UR74RIKO0OVKT5O4JA6VXOCN4P", "dateTime": 1519172595620}, {"current_trial": 37, "trialdata": {"rt": -1000, "trial_type": "single-audio", "word": "beaver", "stimulus": "/static/audio/wordpool/BEAVER.wav", "conditions": [18, 1200, "a", 18000], "internal_node_id": "0.0-28.0", "trial": 0, "time_elapsed": 369391, "serialpos": 16, "key_press": -1, "wordID": 108, "type": "PRES_AUD", "trial_index": 37}, "uniqueid": "MTK2647:3LJ7UR74RIKO0OVKT5O4JA6VXOCN4P", "dateTime": 1519172597905}, {"current_trial": 38, "trialdata": {"rt": -1000, "trial_type": "single-audio", "word": "cook", "stimulus": "/static/audio/wordpool/COOK.wav", "conditions": [18, 1200, "a", 18000], "internal_node_id": "0.0-29.0", "trial": 0, "time_elapsed": 371740, "serialpos": 17, "key_press": -1, "wordID": 371, "type": "PRES_AUD", "trial_index": 38}, "uniqueid": "MTK2647:3LJ7UR74RIKO0OVKT5O4JA6VXOCN4P", "dateTime": 1519172600254}, {"current_trial": 39, "trialdata": {"rt": -1, "trial_type": "single-stim", "stimulus": "", "internal_node_id": "0.0-30.0-0.0", "time_elapsed": 373054, "key_press": -1, "type": "PRE_RECALL_DELAY", "trial_index": 39}, "uniqueid": "MTK2647:3LJ7UR74RIKO0OVKT5O4JA6VXOCN4P", "dateTime": 1519172601568}, {"current_trial": 40, "trialdata": {"rt": -1000, "trial_type": "single-audio", "stimulus": "/static/audio/400Hz.wav", "internal_node_id": "0.0-31.0", "time_elapsed": 373556, "key_press": -1, "type": "PRE_RECALL_ALERT", "trial_index": 40}, "uniqueid": "MTK2647:3LJ7UR74RIKO0OVKT5O4JA6VXOCN4P", "dateTime": 1519172602070}, {"current_trial": 41, "trialdata": {"rt": [2998, 7668, 10893, 14519, 28954, 36472, 52682], "recwords": ["cook", "cyclone", "beaver", "japan", "crystal", "match", "beaver"], "key_times": [1684, 2025, 2190, 2452, 2998, 4613, 4945, 5327, 5711, 6046, 7132, 7449, 7668, 8602, 8956, 9461, 10026, 10281, 10564, 10893, 12432, 12717, 13474, 13980, 14245, 14519, 25508, 25901, 26564, 26881, 27776, 28189, 28542, 28954, 34248, 34483, 35067, 35869, 36155, 36472, 50474, 50982, 51449, 51839, 52120, 52401, 52682], "trial_type": "free-recall", "conditions": [18, 1200, "a", 18000], "internal_node_id": "0.0-32.0-0.0", "key_presses": [67, 79, 79, 75, 13, 67, 89, 67, 76, 79, 78, 69, 13, 66, 69, 65, 86, 69, 82, 13, 74, 65, 80, 65, 78, 13, 67, 82, 89, 83, 84, 65, 76, 13, 77, 65, 84, 67, 72, 13, 66, 69, 65, 86, 69, 82, 13], "trial": 0, "time_elapsed": 433558, "type": "FREE_RECALL", "trial_index": 41}, "uniqueid": "MTK2647:3LJ7UR74RIKO0OVKT5O4JA6VXOCN4P", "dateTime": 1519172662073}, {"current_trial": 42, "trialdata": {"rt": 1844, "trial_type": "text", "internal_node_id": "0.0-33.0", "time_elapsed": 437403, "key_press": 13, "type": "INSTRUCTIONS", "trial_index": 42}, "uniqueid": "MTK2647:3LJ7UR74RIKO0OVKT5O4JA6VXOCN4P", "dateTime": 1519172665917}, {"current_trial": 43, "trialdata": {"rt": [8311, 15822], "trial_type": "math-distractor", "key_times": [7042, 7378, 8311, 14621, 15048, 15822], "responses": ["19", "18"], "num2": [9, 6, 9], "num3": [6, 4, 9], "conditions": [18, 1200, "a", 18000], "internal_node_id": "0.0-34.0", "key_presses": [49, 57, 13, 49, 56, 13], "trial": 1, "time_elapsed": 457407, "type": "DISTRACTOR", "trial_index": 43, "num1": [4, 8, 3]}, "uniqueid": "MTK2647:3LJ7UR74RIKO0OVKT5O4JA6VXOCN4P", "dateTime": 1519172685921}, {"current_trial": 44, "trialdata": {"rt": -1, "trial_type": "single-stim", "stimulus": "<p id=\"stim\">10</p>", "internal_node_id": "0.0-35.0-0.0", "time_elapsed": 460408, "key_press": -1, "trial_index": 44}, "uniqueid": "MTK2647:3LJ7UR74RIKO0OVKT5O4JA6VXOCN4P", "dateTime": 1519172688922}, {"current_trial": 45, "trialdata": {"rt": -1, "trial_type": "single-stim", "stimulus": "<p id=\"stim\">9</p>", "internal_node_id": "0.0-35.0-1.0", "time_elapsed": 461410, "key_press": -1, "trial_index": 45}, "uniqueid": "MTK2647:3LJ7UR74RIKO0OVKT5O4JA6VXOCN4P", "dateTime": 1519172689924}, {"current_trial": 46, "trialdata": {"rt": -1, "trial_type": "single-stim", "stimulus": "<p id=\"stim\">8</p>", "internal_node_id": "0.0-35.0-2.0", "time_elapsed": 462412, "key_press": -1, "trial_index": 46}, "uniqueid": "MTK2647:3LJ7UR74RIKO0OVKT5O4JA6VXOCN4P", "dateTime": 1519172690926}, {"current_trial": 47, "trialdata": {"rt": -1, "trial_type": "single-stim", "stimulus": "<p id=\"stim\">7</p>", "internal_node_id": "0.0-35.0-3.0", "time_elapsed": 463413, "key_press": -1, "trial_index": 47}, "uniqueid": "MTK2647:3LJ7UR74RIKO0OVKT5O4JA6VXOCN4P", "dateTime": 1519172691927}, {"current_trial": 48, "trialdata": {"rt": -1, "trial_type": "single-stim", "stimulus": "<p id=\"stim\">6</p>", "internal_node_id": "0.0-35.0-4.0", "time_elapsed": 464414, "key_press": -1, "trial_index": 48}, "uniqueid": "MTK2647:3LJ7UR74RIKO0OVKT5O4JA6VXOCN4P", "dateTime": 1519172692928}, {"current_trial": 49, "trialdata": {"rt": -1, "trial_type": "single-stim", "stimulus": "<p id=\"stim\">5</p>", "internal_node_id": "0.0-35.0-5.0", "time_elapsed": 465415, "key_press": -1, "trial_index": 49}, "uniqueid": "MTK2647:3LJ7UR74RIKO0OVKT5O4JA6VXOCN4P", "dateTime": 1519172693929}, {"current_trial": 50, "trialdata": {"rt": -1, "trial_type": "single-stim", "stimulus": "<p id=\"stim\">4</p>", "internal_node_id": "0.0-35.0-6.0", "time_elapsed": 466416, "key_press": -1, "trial_index": 50}, "uniqueid": "MTK2647:3LJ7UR74RIKO0OVKT5O4JA6VXOCN4P", "dateTime": 1519172694930}, {"current_trial": 51, "trialdata": {"rt": -1, "trial_type": "single-stim", "stimulus": "<p id=\"stim\">3</p>", "internal_node_id": "0.0-35.0-7.0", "time_elapsed": 467417, "key_press": -1, "trial_index": 51}, "uniqueid": "MTK2647:3LJ7UR74RIKO0OVKT5O4JA6VXOCN4P", "dateTime": 1519172695931}, {"current_trial": 52, "trialdata": {"rt": -1, "trial_type": "single-stim", "stimulus": "<p id=\"stim\">2</p>", "internal_node_id": "0.0-35.0-8.0", "time_elapsed": 468418, "key_press": -1, "trial_index": 52}, "uniqueid": "MTK2647:3LJ7UR74RIKO0OVKT5O4JA6VXOCN4P", "dateTime": 1519172696932}, {"current_trial": 53, "trialdata": {"rt": -1, "trial_type": "single-stim", "stimulus": "<p id=\"stim\">1</p>", "internal_node_id": "0.0-35.0-9.0", "time_elapsed": 469419, "key_press": -1, "trial_index": 53}, "uniqueid": "MTK2647:3LJ7UR74RIKO0OVKT5O4JA6VXOCN4P", "dateTime": 1519172697933}, {"current_trial": 54, "trialdata": {"rt": -1, "trial_type": "single-stim", "stimulus": "<p id=\"stim\">+</p>", "internal_node_id": "0.0-36.0-0.0", "time_elapsed": 470920, "key_press": -1, "type": "FIXATION", "trial_index": 54}, "uniqueid": "MTK2647:3LJ7UR74RIKO0OVKT5O4JA6VXOCN4P", "dateTime": 1519172699434}, {"current_trial": 55, "trialdata": {"rt": -1000, "trial_type": "single-audio", "word": "tourist", "stimulus": "/static/audio/wordpool/TOURIST.wav", "conditions": [18, 1200, "a", 18000], "internal_node_id": "0.0-37.0", "trial": 1, "time_elapsed": 473125, "serialpos": 0, "key_press": -1, "wordID": 1487, "type": "PRES_AUD", "trial_index": 55}, "uniqueid": "MTK2647:3LJ7UR74RIKO0OVKT5O4JA6VXOCN4P", "dateTime": 1519172701639}, {"current_trial": 56, "trialdata": {"rt": -1000, "trial_type": "single-audio", "word": "cattle", "stimulus": "/static/audio/wordpool/CATTLE.wav", "conditions": [18, 1200, "a", 18000], "internal_node_id": "0.0-38.0", "trial": 1, "time_elapsed": 475405, "serialpos": 1, "key_press": -1, "wordID": 260, "type": "PRES_AUD", "trial_index": 56}, "uniqueid": "MTK2647:3LJ7UR74RIKO0OVKT5O4JA6VXOCN4P", "dateTime": 1519172703919}, {"current_trial": 57, "trialdata": {"rt": -1000, "trial_type": "single-audio", "word": "turtle", "stimulus": "/static/audio/wordpool/TURTLE.wav", "conditions": [18, 1200, "a", 18000], "internal_node_id": "0.0-39.0", "trial": 1, "time_elapsed": 477518, "serialpos": 2, "key_press": -1, "wordID": 1521, "type": "PRES_AUD", "trial_index": 57}, "uniqueid": "MTK2647:3LJ7UR74RIKO0OVKT5O4JA6VXOCN4P", "dateTime": 1519172706032}, {"current_trial": 58, "trialdata": {"rt": -1000, "trial_type": "single-audio", "word": "pebble", "stimulus": "/static/audio/wordpool/PEBBLE.wav", "conditions": [18, 1200, "a", 18000], "internal_node_id": "0.0-40.0", "trial": 1, "time_elapsed": 479534, "serialpos": 3, "key_press": -1, "wordID": 1034, "type": "PRES_AUD", "trial_index": 58}, "uniqueid": "MTK2647:3LJ7UR74RIKO0OVKT5O4JA6VXOCN4P", "dateTime": 1519172708048}, {"current_trial": 59, "trialdata": {"rt": -1000, "trial_type": "single-audio", "word": "jury", "stimulus": "/static/audio/wordpool/JURY.wav", "conditions": [18, 1200, "a", 18000], "internal_node_id": "0.0-41.0", "trial": 1, "time_elapsed": 481676, "serialpos": 4, "key_press": -1, "wordID": 765, "type": "PRES_AUD", "trial_index": 59}, "uniqueid": "MTK2647:3LJ7UR74RIKO0OVKT5O4JA6VXOCN4P", "dateTime": 1519172710190}, {"current_trial": 60, "trialdata": {"rt": -1000, "trial_type": "single-audio", "word": "luggage", "stimulus": "/static/audio/wordpool/LUGGAGE.wav", "conditions": [18, 1200, "a", 18000], "internal_node_id": "0.0-42.0", "trial": 1, "time_elapsed": 483885, "serialpos": 5, "key_press": -1, "wordID": 846, "type": "PRES_AUD", "trial_index": 60}, "uniqueid": "MTK2647:3LJ7UR74RIKO0OVKT5O4JA6VXOCN4P", "dateTime": 1519172712400}, {"current_trial": 61, "trialdata": {"rt": -1000, "trial_type": "single-audio", "word": "body", "stimulus": "/static/audio/wordpool/BODY.wav", "conditions": [18, 1200, "a", 18000], "internal_node_id": "0.0-43.0", "trial": 1, "time_elapsed": 486047, "serialpos": 6, "key_press": -1, "wordID": 144, "type": "PRES_AUD", "trial_index": 61}, "uniqueid": "MTK2647:3LJ7UR74RIKO0OVKT5O4JA6VXOCN4P", "dateTime": 1519172714561}, {"current_trial": 62, "trialdata": {"rt": -1000, "trial_type": "single-audio", "word": "widow", "stimulus": "/static/audio/wordpool/WIDOW.wav", "conditions": [18, 1200, "a", 18000], "internal_node_id": "0.0-44.0", "trial": 1, "time_elapsed": 488130, "serialpos": 7, "key_press": -1, "wordID": 1607, "type": "PRES_AUD", "trial_index": 62}, "uniqueid": "MTK2647:3LJ7UR74RIKO0OVKT5O4JA6VXOCN4P", "dateTime": 1519172716644}, {"current_trial": 63, "trialdata": {"rt": -1000, "trial_type": "single-audio", "word": "poison", "stimulus": "/static/audio/wordpool/POISON.wav", "conditions": [18, 1200, "a", 18000], "internal_node_id": "0.0-45.0", "trial": 1, "time_elapsed": 490148, "serialpos": 8, "key_press": -1, "wordID": 1095, "type": "PRES_AUD", "trial_index": 63}, "uniqueid": "MTK2647:3LJ7UR74RIKO0OVKT5O4JA6VXOCN4P", "dateTime": 1519172718662}, {"current_trial": 64, "trialdata": {"rt": -1000, "trial_type": "single-audio", "word": "umpire", "stimulus": "/static/audio/wordpool/UMPIRE.wav", "conditions": [18, 1200, "a", 18000], "internal_node_id": "0.0-46.0", "trial": 1, "time_elapsed": 492511, "serialpos": 9, "key_press": -1, "wordID": 1534, "type": "PRES_AUD", "trial_index": 64}, "uniqueid": "MTK2647:3LJ7UR74RIKO0OVKT5O4JA6VXOCN4P", "dateTime": 1519172721025}, {"current_trial": 65, "trialdata": {"rt": -1000, "trial_type": "single-audio", "word": "truck", "stimulus": "/static/audio/wordpool/TRUCK.wav", "conditions": [18, 1200, "a", 18000], "internal_node_id": "0.0-47.0", "trial": 1, "time_elapsed": 494739, "serialpos": 10, "key_press": -1, "wordID": 1511, "type": "PRES_AUD", "trial_index": 65}, "uniqueid": "MTK2647:3LJ7UR74RIKO0OVKT5O4JA6VXOCN4P", "dateTime": 1519172723253}, {"current_trial": 66, "trialdata": {"rt": -1000, "trial_type": "single-audio", "word": "icing", "stimulus": "/static/audio/wordpool/ICING.wav", "conditions": [18, 1200, "a", 18000], "internal_node_id": "0.0-48.0", "trial": 1, "time_elapsed": 496777, "serialpos": 11, "key_press": -1, "wordID": 731, "type": "PRES_AUD", "trial_index": 66}, "uniqueid": "MTK2647:3LJ7UR74RIKO0OVKT5O4JA6VXOCN4P", "dateTime": 1519172725291}, {"current_trial": 67, "trialdata": {"rt": -1000, "trial_type": "single-audio", "word": "cross", "stimulus": "/static/audio/wordpool/CROSS.wav", "conditions": [18, 1200, "a", 18000], "internal_node_id": "0.0-49.0", "trial": 1, "time_elapsed": 499023, "serialpos": 12, "key_press": -1, "wordID": 412, "type": "PRES_AUD", "trial_index": 67}, "uniqueid": "MTK2647:3LJ7UR74RIKO0OVKT5O4JA6VXOCN4P", "dateTime": 1519172727537}, {"current_trial": 68, "trialdata": {"rt": -1000, "trial_type": "single-audio", "word": "banjo", "stimulus": "/static/audio/wordpool/BANJO.wav", "conditions": [18, 1200, "a", 18000], "internal_node_id": "0.0-50.0", "trial": 1, "time_elapsed": 501121, "serialpos": 13, "key_press": -1, "wordID": 81, "type": "PRES_AUD", "trial_index": 68}, "uniqueid": "MTK2647:3LJ7UR74RIKO0OVKT5O4JA6VXOCN4P", "dateTime": 1519172729635}, {"current_trial": 69, "trialdata": {"rt": -1000, "trial_type": "single-audio", "word": "sheriff", "stimulus": "/static/audio/wordpool/SHERIFF.wav", "conditions": [18, 1200, "a", 18000], "internal_node_id": "0.0-51.0", "trial": 1, "time_elapsed": 503166, "serialpos": 14, "key_press": -1, "wordID": 1283, "type": "PRES_AUD", "trial_index": 69}, "uniqueid": "MTK2647:3LJ7UR74RIKO0OVKT5O4JA6VXOCN4P", "dateTime": 1519172731680}, {"current_trial": 70, "trialdata": {"rt": -1000, "trial_type": "single-audio", "word": "scribble", "stimulus": "/static/audio/wordpool/SCRIBBLE.wav", "conditions": [18, 1200, "a", 18000], "internal_node_id": "0.0-52.0", "trial": 1, "time_elapsed": 505503, "serialpos": 15, "key_press": -1, "wordID": 1255, "type": "PRES_AUD", "trial_index": 70}, "uniqueid": "MTK2647:3LJ7UR74RIKO0OVKT5O4JA6VXOCN4P", "dateTime": 1519172734017}, {"current_trial": 71, "trialdata": {"rt": -1000, "trial_type": "single-audio", "word": "portrait", "stimulus": "/static/audio/wordpool/PORTRAIT.wav", "conditions": [18, 1200, "a", 18000], "internal_node_id": "0.0-53.0", "trial": 1, "time_elapsed": 507684, "serialpos": 16, "key_press": -1, "wordID": 1110, "type": "PRES_AUD", "trial_index": 71}, "uniqueid": "MTK2647:3LJ7UR74RIKO0OVKT5O4JA6VXOCN4P", "dateTime": 1519172736198}, {"current_trial": 72, "trialdata": {"rt": -1000, "trial_type": "single-audio", "word": "student", "stimulus": "/static/audio/wordpool/STUDENT.wav", "conditions": [18, 1200, "a", 18000], "internal_node_id": "0.0-54.0", "trial": 1, "time_elapsed": 509729, "serialpos": 17, "key_press": -1, "wordID": 1394, "type": "PRES_AUD", "trial_index": 72}, "uniqueid": "MTK2647:3LJ7UR74RIKO0OVKT5O4JA6VXOCN4P", "dateTime": 1519172738243}, {"current_trial": 73, "trialdata": {"rt": -1, "trial_type": "single-stim", "stimulus": "", "internal_node_id": "0.0-55.0-0.0", "time_elapsed": 511044, "key_press": -1, "type": "PRE_RECALL_DELAY", "trial_index": 73}, "uniqueid": "MTK2647:3LJ7UR74RIKO0OVKT5O4JA6VXOCN4P", "dateTime": 1519172739559}, {"current_trial": 74, "trialdata": {"rt": -1000, "trial_type": "single-audio", "stimulus": "/static/audio/400Hz.wav", "internal_node_id": "0.0-56.0", "time_elapsed": 511546, "key_press": -1, "type": "PRE_RECALL_ALERT", "trial_index": 74}, "uniqueid": "MTK2647:3LJ7UR74RIKO0OVKT5O4JA6VXOCN4P", "dateTime": 1519172740060}, {"current_trial": 75, "trialdata": {"rt": [6239, 11462, 15188, 20429, 29241, 35823, 44061], "recwords": ["banjo", "portrat", "iceing", "scribble", "student", "cross", "portrat"], "key_times": [3854, 4472, 4976, 5408, 5824, 6239, 7371, 7653, 8025, 8382, 8910, 9446, 10183, 11462, 12482, 12932, 13318, 13700, 14071, 14454, 15188, 17450, 17869, 18238, 18512, 19125, 19290, 19519, 20003, 20429, 24676, 25161, 25590, 26324, 27336, 27805, 28208, 29241, 33570, 33937, 34337, 34942, 35423, 35823, 39466, 39884, 40294, 40826, 41214, 41866, 43603, 44061], "trial_type": "free-recall", "conditions": [18, 1200, "a", 18000], "internal_node_id": "0.0-57.0-0.0", "key_presses": [66, 65, 78, 74, 79, 13, 80, 79, 82, 84, 82, 65, 84, 13, 73, 67, 69, 73, 78, 71, 13, 83, 67, 82, 73, 66, 66, 76, 69, 13, 83, 84, 85, 68, 69, 78, 84, 13, 67, 82, 79, 83, 83, 13, 80, 79, 82, 84, 82, 65, 84, 13], "trial": 1, "time_elapsed": 571548, "type": "FREE_RECALL", "trial_index": 75}, "uniqueid": "MTK2647:3LJ7UR74RIKO0OVKT5O4JA6VXOCN4P", "dateTime": 1519172800063}, {"current_trial": 76, "trialdata": {"rt": 19165, "trial_type": "text", "internal_node_id": "0.0-58.0", "time_elapsed": 592716, "key_press": 32, "type": "INSTRUCTIONS", "trial_index": 76}, "uniqueid": "MTK2647:3LJ7UR74RIKO0OVKT5O4JA6VXOCN4P", "dateTime": 1519172821230}, {"current_trial": 77, "trialdata": {"rt": [4426, 7328, 11339, 15580, 20891, 23655], "trial_type": "math-distractor", "key_times": [2513, 3368, 4426, 6506, 6712, 7328, 10283, 11075, 11339, 14986, 15291, 15580, 20646, 20891, 23098, 23423, 23655], "responses": ["16", "11", "16", "13", "9", "13"], "num2": [6, 1, 4, 6, 4, 8, 8], "num3": [5, 5, 6, 4, 2, 1, 9], "conditions": [24, 1600, "a", 24000], "internal_node_id": "0.0-59.0", "key_presses": [49, 54, 13, 49, 49, 13, 49, 54, 13, 49, 51, 13, 57, 13, 49, 51, 13], "trial": 2, "time_elapsed": 617722, "type": "DISTRACTOR", "trial_index": 77, "num1": [5, 5, 6, 3, 3, 4, 4]}, "uniqueid": "MTK2647:3LJ7UR74RIKO0OVKT5O4JA6VXOCN4P", "dateTime": 1519172846236}, {"current_trial": 78, "trialdata": {"rt": -1, "trial_type": "single-stim", "stimulus": "<p id=\"stim\">10</p>", "internal_node_id": "0.0-60.0-0.0", "time_elapsed": 620725, "key_press": -1, "trial_index": 78}, "uniqueid": "MTK2647:3LJ7UR74RIKO0OVKT5O4JA6VXOCN4P", "dateTime": 1519172849239}, {"current_trial": 79, "trialdata": {"rt": -1, "trial_type": "single-stim", "stimulus": "<p id=\"stim\">9</p>", "internal_node_id": "0.0-60.0-1.0", "time_elapsed": 621727, "key_press": -1, "trial_index": 79}, "uniqueid": "MTK2647:3LJ7UR74RIKO0OVKT5O4JA6VXOCN4P", "dateTime": 1519172850241}, {"current_trial": 80, "trialdata": {"rt": -1, "trial_type": "single-stim", "stimulus": "<p id=\"stim\">8</p>", "internal_node_id": "0.0-60.0-2.0", "time_elapsed": 622729, "key_press": -1, "trial_index": 80}, "uniqueid": "MTK2647:3LJ7UR74RIKO0OVKT5O4JA6VXOCN4P", "dateTime": 1519172851243}, {"current_trial": 81, "trialdata": {"rt": -1, "trial_type": "single-stim", "stimulus": "<p id=\"stim\">7</p>", "internal_node_id": "0.0-60.0-3.0", "time_elapsed": 623730, "key_press": -1, "trial_index": 81}, "uniqueid": "MTK2647:3LJ7UR74RIKO0OVKT5O4JA6VXOCN4P", "dateTime": 1519172852244}, {"current_trial": 82, "trialdata": {"rt": -1, "trial_type": "single-stim", "stimulus": "<p id=\"stim\">6</p>", "internal_node_id": "0.0-60.0-4.0", "time_elapsed": 624732, "key_press": -1, "trial_index": 82}, "uniqueid": "MTK2647:3LJ7UR74RIKO0OVKT5O4JA6VXOCN4P", "dateTime": 1519172853246}, {"current_trial": 83, "trialdata": {"rt": -1, "trial_type": "single-stim", "stimulus": "<p id=\"stim\">5</p>", "internal_node_id": "0.0-60.0-5.0", "time_elapsed": 625732, "key_press": -1, "trial_index": 83}, "uniqueid": "MTK2647:3LJ7UR74RIKO0OVKT5O4JA6VXOCN4P", "dateTime": 1519172854246}, {"current_trial": 84, "trialdata": {"rt": -1, "trial_type": "single-stim", "stimulus": "<p id=\"stim\">4</p>", "internal_node_id": "0.0-60.0-6.0", "time_elapsed": 626733, "key_press": -1, "trial_index": 84}, "uniqueid": "MTK2647:3LJ7UR74RIKO0OVKT5O4JA6VXOCN4P", "dateTime": 1519172855247}, {"current_trial": 85, "trialdata": {"rt": -1, "trial_type": "single-stim", "stimulus": "<p id=\"stim\">3</p>", "internal_node_id": "0.0-60.0-7.0", "time_elapsed": 627734, "key_press": -1, "trial_index": 85}, "uniqueid": "MTK2647:3LJ7UR74RIKO0OVKT5O4JA6VXOCN4P", "dateTime": 1519172856248}, {"current_trial": 86, "trialdata": {"rt": -1, "trial_type": "single-stim", "stimulus": "<p id=\"stim\">2</p>", "internal_node_id": "0.0-60.0-8.0", "time_elapsed": 628736, "key_press": -1, "trial_index": 86}, "uniqueid": "MTK2647:3LJ7UR74RIKO0OVKT5O4JA6VXOCN4P", "dateTime": 1519172857250}, {"current_trial": 87, "trialdata": {"rt": -1, "trial_type": "single-stim", "stimulus": "<p id=\"stim\">1</p>", "internal_node_id": "0.0-60.0-9.0", "time_elapsed": 629738, "key_press": -1, "trial_index": 87}, "uniqueid": "MTK2647:3LJ7UR74RIKO0OVKT5O4JA6VXOCN4P", "dateTime": 1519172858253}, {"current_trial": 88, "trialdata": {"rt": -1, "trial_type": "single-stim", "stimulus": "<p id=\"stim\">+</p>", "internal_node_id": "0.0-61.0-0.0", "time_elapsed": 631241, "key_press": -1, "type": "FIXATION", "trial_index": 88}, "uniqueid": "MTK2647:3LJ7UR74RIKO0OVKT5O4JA6VXOCN4P", "dateTime": 1519172859755}, {"current_trial": 89, "trialdata": {"rt": -1000, "trial_type": "single-audio", "word": "lunch", "stimulus": "/static/audio/wordpool/LUNCH.wav", "conditions": [24, 1600, "a", 24000], "internal_node_id": "0.0-62.0", "trial": 2, "time_elapsed": 633895, "serialpos": 0, "key_press": -1, "wordID": 848, "type": "PRES_AUD", "trial_index": 89}, "uniqueid": "MTK2647:3LJ7UR74RIKO0OVKT5O4JA6VXOCN4P", "dateTime": 1519172862409}, {"current_trial": 90, "trialdata": {"rt": -1000, "trial_type": "single-audio", "word": "twig", "stimulus": "/static/audio/wordpool/TWIG.wav", "conditions": [24, 1600, "a", 24000], "internal_node_id": "0.0-63.0", "trial": 2, "time_elapsed": 636577, "serialpos": 1, "key_press": -1, "wordID": 1526, "type": "PRES_AUD", "trial_index": 90}, "uniqueid": "MTK2647:3LJ7UR74RIKO0OVKT5O4JA6VXOCN4P", "dateTime": 1519172865091}, {"current_trial": 91, "trialdata": {"rt": -1000, "trial_type": "single-audio", "word": "kidney", "stimulus": "/static/audio/wordpool/KIDNEY.wav", "conditions": [24, 1600, "a", 24000], "internal_node_id": "0.0-64.0", "trial": 2, "time_elapsed": 639269, "serialpos": 2, "key_press": -1, "wordID": 775, "type": "PRES_AUD", "trial_index": 91}, "uniqueid": "MTK2647:3LJ7UR74RIKO0OVKT5O4JA6VXOCN4P", "dateTime": 1519172867783}, {"current_trial": 92, "trialdata": {"rt": -1000, "trial_type": "single-audio", "word": "proton", "stimulus": "/static/audio/wordpool/PROTON.wav", "conditions": [24, 1600, "a", 24000], "internal_node_id": "0.0-65.0", "trial": 2, "time_elapsed": 641687, "serialpos": 3, "key_press": -1, "wordID": 1131, "type": "PRES_AUD", "trial_index": 92}, "uniqueid": "MTK2647:3LJ7UR74RIKO0OVKT5O4JA6VXOCN4P", "dateTime": 1519172870201}, {"current_trial": 93, "trialdata": {"rt": -1000, "trial_type": "single-audio", "word": "marker", "stimulus": "/static/audio/wordpool/MARKER.wav", "conditions": [24, 1600, "a", 24000], "internal_node_id": "0.0-66.0", "trial": 2, "time_elapsed": 644198, "serialpos": 4, "key_press": -1, "wordID": 869, "type": "PRES_AUD", "trial_index": 93}, "uniqueid": "MTK2647:3LJ7UR74RIKO0OVKT5O4JA6VXOCN4P", "dateTime": 1519172872712}, {"current_trial": 94, "trialdata": {"rt": -1000, "trial_type": "single-audio", "word": "sandwich", "stimulus": "/static/audio/wordpool/SANDWICH.wav", "conditions": [24, 1600, "a", 24000], "internal_node_id": "0.0-67.0", "trial": 2, "time_elapsed": 646980, "serialpos": 5, "key_press": -1, "wordID": 1231, "type": "PRES_AUD", "trial_index": 94}, "uniqueid": "MTK2647:3LJ7UR74RIKO0OVKT5O4JA6VXOCN4P", "dateTime": 1519172875494}, {"current_trial": 95, "trialdata": {"rt": -1000, "trial_type": "single-audio", "word": "cricket", "stimulus": "/static/audio/wordpool/CRICKET.wav", "conditions": [24, 1600, "a", 24000], "internal_node_id": "0.0-68.0", "trial": 2, "time_elapsed": 649774, "serialpos": 6, "key_press": -1, "wordID": 407, "type": "PRES_AUD", "trial_index": 95}, "uniqueid": "MTK2647:3LJ7UR74RIKO0OVKT5O4JA6VXOCN4P", "dateTime": 1519172878288}, {"current_trial": 96, "trialdata": {"rt": -1000, "trial_type": "single-audio", "word": "expert", "stimulus": "/static/audio/wordpool/EXPERT.wav", "conditions": [24, 1600, "a", 24000], "internal_node_id": "0.0-69.0", "trial": 2, "time_elapsed": 652380, "serialpos": 7, "key_press": -1, "wordID": 542, "type": "PRES_AUD", "trial_index": 96}, "uniqueid": "MTK2647:3LJ7UR74RIKO0OVKT5O4JA6VXOCN4P", "dateTime": 1519172880895}, {"current_trial": 97, "trialdata": {"rt": -1000, "trial_type": "single-audio", "word": "sculpture", "stimulus": "/static/audio/wordpool/SCULPTURE.wav", "conditions": [24, 1600, "a", 24000], "internal_node_id": "0.0-70.0", "trial": 2, "time_elapsed": 655024, "serialpos": 8, "key_press": -1, "wordID": 1257, "type": "PRES_AUD", "trial_index": 97}, "uniqueid": "MTK2647:3LJ7UR74RIKO0OVKT5O4JA6VXOCN4P", "dateTime": 1519172883538}, {"current_trial": 98, "trialdata": {"rt": -1000, "trial_type": "single-audio", "word": "statue", "stimulus": "/static/audio/wordpool/STATUE.wav", "conditions": [24, 1600, "a", 24000], "internal_node_id": "0.0-71.0", "trial": 2, "time_elapsed": 657577, "serialpos": 9, "key_press": -1, "wordID": 1373, "type": "PRES_AUD", "trial_index": 98}, "uniqueid": "MTK2647:3LJ7UR74RIKO0OVKT5O4JA6VXOCN4P", "dateTime": 1519172886091}, {"current_trial": 99, "trialdata": {"rt": -1000, "trial_type": "single-audio", "word": "supper", "stimulus": "/static/audio/wordpool/SUPPER.wav", "conditions": [24, 1600, "a", 24000], "internal_node_id": "0.0-72.0", "trial": 2, "time_elapsed": 660327, "serialpos": 10, "key_press": -1, "wordID": 1410, "type": "PRES_AUD", "trial_index": 99}, "uniqueid": "MTK2647:3LJ7UR74RIKO0OVKT5O4JA6VXOCN4P", "dateTime": 1519172888841}, {"current_trial": 100, "trialdata": {"rt": -1000, "trial_type": "single-audio", "word": "rust", "stimulus": "/static/audio/wordpool/RUST.wav", "conditions": [24, 1600, "a", 24000], "internal_node_id": "0.0-73.0", "trial": 2, "time_elapsed": 663107, "serialpos": 11, "key_press": -1, "wordID": 1218, "type": "PRES_AUD", "trial_index": 100}, "uniqueid": "MTK2647:3LJ7UR74RIKO0OVKT5O4JA6VXOCN4P", "dateTime": 1519172891622}, {"current_trial": 101, "trialdata": {"rt": -1000, "trial_type": "single-audio", "word": "picnic", "stimulus": "/static/audio/wordpool/PICNIC.wav", "conditions": [24, 1600, "a", 24000], "internal_node_id": "0.0-74.0", "trial": 2, "time_elapsed": 665789, "serialpos": 12, "key_press": -1, "wordID": 1059, "type": "PRES_AUD", "trial_index": 101}, "uniqueid": "MTK2647:3LJ7UR74RIKO0OVKT5O4JA6VXOCN4P", "dateTime": 1519172894303}, {"current_trial": 102, "trialdata": {"rt": -1000, "trial_type": "single-audio", "word": "braces", "stimulus": "/static/audio/wordpool/BRACES.wav", "conditions": [24, 1600, "a", 24000], "internal_node_id": "0.0-75.0", "trial": 2, "time_elapsed": 668451, "serialpos": 13, "key_press": -1, "wordID": 163, "type": "PRES_AUD", "trial_index": 102}, "uniqueid": "MTK2647:3LJ7UR74RIKO0OVKT5O4JA6VXOCN4P", "dateTime": 1519172896965}, {"current_trial": 103, "trialdata": {"rt": -1000, "trial_type": "single-audio", "word": "thief", "stimulus": "/static/audio/wordpool/THIEF.wav", "conditions": [24, 1600, "a", 24000], "internal_node_id": "0.0-76.0", "trial": 2, "time_elapsed": 670988, "serialpos": 14, "key_press": -1, "wordID": 1455, "type": "PRES_AUD", "trial_index": 103}, "uniqueid": "MTK2647:3LJ7UR74RIKO0OVKT5O4JA6VXOCN4P", "dateTime": 1519172899502}, {"current_trial": 104, "trialdata": {"rt": -1000, "trial_type": "single-audio", "word": "burglar", "stimulus": "/static/audio/wordpool/BURGLAR.wav", "conditions": [24, 1600, "a", 24000], "internal_node_id": "0.0-77.0", "trial": 2, "time_elapsed": 673500, "serialpos": 15, "key_press": -1, "wordID": 199, "type": "PRES_AUD", "trial_index": 104}, "uniqueid": "MTK2647:3LJ7UR74RIKO0OVKT5O4JA6VXOCN4P", "dateTime": 1519172902014}, {"current_trial": 105, "trialdata": {"rt": -1000, "trial_type": "single-audio", "word": "pasta", "stimulus": "/static/audio/wordpool/PASTA.wav", "conditions": [24, 1600, "a", 24000], "internal_node_id": "0.0-78.0", "trial": 2, "time_elapsed": 676299, "serialpos": 16, "key_press": -1, "wordID": 1020, "type": "PRES_AUD", "trial_index": 105}, "uniqueid": "MTK2647:3LJ7UR74RIKO0OVKT5O4JA6VXOCN4P", "dateTime": 1519172904813}, {"current_trial": 106, "trialdata": {"rt": -1000, "trial_type": "single-audio", "word": "cookbook", "stimulus": "/static/audio/wordpool/COOKBOOK.wav", "conditions": [24, 1600, "a", 24000], "internal_node_id": "0.0-79.0", "trial": 2, "time_elapsed": 679025, "serialpos": 17, "key_press": -1, "wordID": 372, "type": "PRES_AUD", "trial_index": 106}, "uniqueid": "MTK2647:3LJ7UR74RIKO0OVKT5O4JA6VXOCN4P", "dateTime": 1519172907539}, {"current_trial": 107, "trialdata": {"rt": -1000, "trial_type": "single-audio", "word": "item", "stimulus": "/static/audio/wordpool/ITEM.wav", "conditions": [24, 1600, "a", 24000], "internal_node_id": "0.0-80.0", "trial": 2, "time_elapsed": 681530, "serialpos": 18, "key_press": -1, "wordID": 745, "type": "PRES_AUD", "trial_index": 107}, "uniqueid": "MTK2647:3LJ7UR74RIKO0OVKT5O4JA6VXOCN4P", "dateTime": 1519172910044}, {"current_trial": 108, "trialdata": {"rt": -1000, "trial_type": "single-audio", "word": "camel", "stimulus": "/static/audio/wordpool/CAMEL.wav", "conditions": [24, 1600, "a", 24000], "internal_node_id": "0.0-81.0", "trial": 2, "time_elapsed": 684226, "serialpos": 19, "key_press": -1, "wordID": 222, "type": "PRES_AUD", "trial_index": 108}, "uniqueid": "MTK2647:3LJ7UR74RIKO0OVKT5O4JA6VXOCN4P", "dateTime": 1519172912740}, {"current_trial": 109, "trialdata": {"rt": -1000, "trial_type": "single-audio", "word": "antler", "stimulus": "/static/audio/wordpool/ANTLER.wav", "conditions": [24, 1600, "a", 24000], "internal_node_id": "0.0-82.0", "trial": 2, "time_elapsed": 686876, "serialpos": 20, "key_press": -1, "wordID": 28, "type": "PRES_AUD", "trial_index": 109}, "uniqueid": "MTK2647:3LJ7UR74RIKO0OVKT5O4JA6VXOCN4P", "dateTime": 1519172915390}, {"current_trial": 110, "trialdata": {"rt": -1000, "trial_type": "single-audio", "word": "arm", "stimulus": "/static/audio/wordpool/ARM.wav", "conditions": [24, 1600, "a", 24000], "internal_node_id": "0.0-83.0", "trial": 2, "time_elapsed": 689581, "serialpos": 21, "key_press": -1, "wordID": 37, "type": "PRES_AUD", "trial_index": 110}, "uniqueid": "MTK2647:3LJ7UR74RIKO0OVKT5O4JA6VXOCN4P", "dateTime": 1519172918095}, {"current_trial": 111, "trialdata": {"rt": -1000, "trial_type": "single-audio", "word": "neutron", "stimulus": "/static/audio/wordpool/NEUTRON.wav", "conditions": [24, 1600, "a", 24000], "internal_node_id": "0.0-84.0", "trial": 2, "time_elapsed": 692045, "serialpos": 22, "key_press": -1, "wordID": 946, "type": "PRES_AUD", "trial_index": 111}, "uniqueid": "MTK2647:3LJ7UR74RIKO0OVKT5O4JA6VXOCN4P", "dateTime": 1519172920559}, {"current_trial": 112, "trialdata": {"rt": -1000, "trial_type": "single-audio", "word": "omelet", "stimulus": "/static/audio/wordpool/OMELET.wav", "conditions": [24, 1600, "a", 24000], "internal_node_id": "0.0-85.0", "trial": 2, "time_elapsed": 694845, "serialpos": 23, "key_press": -1, "wordID": 975, "type": "PRES_AUD", "trial_index": 112}, "uniqueid": "MTK2647:3LJ7UR74RIKO0OVKT5O4JA6VXOCN4P", "dateTime": 1519172923359}, {"current_trial": 113, "trialdata": {"rt": -1, "trial_type": "single-stim", "stimulus": "", "internal_node_id": "0.0-86.0-0.0", "time_elapsed": 696233, "key_press": -1, "type": "PRE_RECALL_DELAY", "trial_index": 113}, "uniqueid": "MTK2647:3LJ7UR74RIKO0OVKT5O4JA6VXOCN4P", "dateTime": 1519172924747}, {"current_trial": 114, "trialdata": {"rt": -1000, "trial_type": "single-audio", "stimulus": "/static/audio/400Hz.wav", "internal_node_id": "0.0-87.0", "time_elapsed": 696735, "key_press": -1, "type": "PRE_RECALL_ALERT", "trial_index": 114}, "uniqueid": "MTK2647:3LJ7UR74RIKO0OVKT5O4JA6VXOCN4P", "dateTime": 1519172925249}, {"current_trial": 115, "trialdata": {"rt": [6543, 20086, 38930, 48643, 53731, 56985], "recwords": ["lunch", "sculptor", "statue", "supper", "luch", "kitten"], "key_times": [4447, 4814, 5183, 5690, 6094, 6543, 10370, 10682, 15863, 17289, 17590, 18274, 18486, 19521, 20086, 25028, 26394, 26898, 30623, 31760, 32150, 34993, 35624, 35973, 36523, 38930, 46561, 46894, 47411, 47599, 47950, 48288, 48643, 49953, 50501, 52020, 52882, 53731, 54804, 55108, 55434, 55612, 56023, 56482, 56985], "trial_type": "free-recall", "conditions": [24, 1600, "a", 24000], "internal_node_id": "0.0-88.0-0.0", "key_presses": [76, 85, 78, 67, 72, 13, 83, 67, 85, 76, 80, 84, 79, 82, 13, 83, 84, 65, 72, 8, 8, 65, 84, 85, 69, 13, 83, 85, 80, 80, 69, 82, 13, 76, 85, 67, 72, 13, 75, 73, 84, 84, 69, 78, 13], "trial": 2, "time_elapsed": 756737, "type": "FREE_RECALL", "trial_index": 115}, "uniqueid": "MTK2647:3LJ7UR74RIKO0OVKT5O4JA6VXOCN4P", "dateTime": 1519172985252}, {"current_trial": 116, "trialdata": {"rt": 7435, "trial_type": "text", "internal_node_id": "0.0-89.0", "time_elapsed": 766175, "key_press": 13, "type": "INSTRUCTIONS", "trial_index": 116}, "uniqueid": "MTK2647:3LJ7UR74RIKO0OVKT5O4JA6VXOCN4P", "dateTime": 1519172994689}, {"current_trial": 117, "trialdata": {"rt": [4175, 12443, 18467], "trial_type": "math-distractor", "key_times": [1888, 3404, 4175, 11986, 12443, 17424, 18178, 18467, 23806], "responses": ["16", "9", "17"], "num2": [5, 3, 9, 4], "num3": [6, 1, 4, 6], "conditions": [12, 800, "a", 24000], "internal_node_id": "0.0-90.0", "key_presses": [49, 54, 13, 57, 13, 49, 55, 13, 49], "trial": 3, "time_elapsed": 792182, "type": "DISTRACTOR", "trial_index": 117, "num1": [5, 5, 4, 5]}, "uniqueid": "MTK2647:3LJ7UR74RIKO0OVKT5O4JA6VXOCN4P", "dateTime": 1519173020696}, {"current_trial": 118, "trialdata": {"rt": -1, "trial_type": "single-stim", "stimulus": "<p id=\"stim\">10</p>", "internal_node_id": "0.0-91.0-0.0", "time_elapsed": 795184, "key_press": -1, "trial_index": 118}, "uniqueid": "MTK2647:3LJ7UR74RIKO0OVKT5O4JA6VXOCN4P", "dateTime": 1519173023698}, {"current_trial": 119, "trialdata": {"rt": -1, "trial_type": "single-stim", "stimulus": "<p id=\"stim\">9</p>", "internal_node_id": "0.0-91.0-1.0", "time_elapsed": 796185, "key_press": -1, "trial_index": 119}, "uniqueid": "MTK2647:3LJ7UR74RIKO0OVKT5O4JA6VXOCN4P", "dateTime": 1519173024699}, {"current_trial": 120, "trialdata": {"rt": -1, "trial_type": "single-stim", "stimulus": "<p id=\"stim\">8</p>", "internal_node_id": "0.0-91.0-2.0", "time_elapsed": 797186, "key_press": -1, "trial_index": 120}, "uniqueid": "MTK2647:3LJ7UR74RIKO0OVKT5O4JA6VXOCN4P", "dateTime": 1519173025700}, {"current_trial": 121, "trialdata": {"rt": -1, "trial_type": "single-stim", "stimulus": "<p id=\"stim\">7</p>", "internal_node_id": "0.0-91.0-3.0", "time_elapsed": 798187, "key_press": -1, "trial_index": 121}, "uniqueid": "MTK2647:3LJ7UR74RIKO0OVKT5O4JA6VXOCN4P", "dateTime": 1519173026701}, {"current_trial": 122, "trialdata": {"rt": -1, "trial_type": "single-stim", "stimulus": "<p id=\"stim\">6</p>", "internal_node_id": "0.0-91.0-4.0", "time_elapsed": 799188, "key_press": -1, "trial_index": 122}, "uniqueid": "MTK2647:3LJ7UR74RIKO0OVKT5O4JA6VXOCN4P", "dateTime": 1519173027702}, {"current_trial": 123, "trialdata": {"rt": -1, "trial_type": "single-stim", "stimulus": "<p id=\"stim\">5</p>", "internal_node_id": "0.0-91.0-5.0", "time_elapsed": 800190, "key_press": -1, "trial_index": 123}, "uniqueid": "MTK2647:3LJ7UR74RIKO0OVKT5O4JA6VXOCN4P", "dateTime": 1519173028704}, {"current_trial": 124, "trialdata": {"rt": -1, "trial_type": "single-stim", "stimulus": "<p id=\"stim\">4</p>", "internal_node_id": "0.0-91.0-6.0", "time_elapsed": 801191, "key_press": -1, "trial_index": 124}, "uniqueid": "MTK2647:3LJ7UR74RIKO0OVKT5O4JA6VXOCN4P", "dateTime": 1519173029705}, {"current_trial": 125, "trialdata": {"rt": -1, "trial_type": "single-stim", "stimulus": "<p id=\"stim\">3</p>", "internal_node_id": "0.0-91.0-7.0", "time_elapsed": 802192, "key_press": -1, "trial_index": 125}, "uniqueid": "MTK2647:3LJ7UR74RIKO0OVKT5O4JA6VXOCN4P", "dateTime": 1519173030706}, {"current_trial": 126, "trialdata": {"rt": -1, "trial_type": "single-stim", "stimulus": "<p id=\"stim\">2</p>", "internal_node_id": "0.0-91.0-8.0", "time_elapsed": 803193, "key_press": -1, "trial_index": 126}, "uniqueid": "MTK2647:3LJ7UR74RIKO0OVKT5O4JA6VXOCN4P", "dateTime": 1519173031707}, {"current_trial": 127, "trialdata": {"rt": -1, "trial_type": "single-stim", "stimulus": "<p id=\"stim\">1</p>", "internal_node_id": "0.0-91.0-9.0", "time_elapsed": 804195, "key_press": -1, "trial_index": 127}, "uniqueid": "MTK2647:3LJ7UR74RIKO0OVKT5O4JA6VXOCN4P", "dateTime": 1519173032709}, {"current_trial": 128, "trialdata": {"rt": -1, "trial_type": "single-stim", "stimulus": "<p id=\"stim\">+</p>", "internal_node_id": "0.0-92.0-0.0", "time_elapsed": 805696, "key_press": -1, "type": "FIXATION", "trial_index": 128}, "uniqueid": "MTK2647:3LJ7UR74RIKO0OVKT5O4JA6VXOCN4P", "dateTime": 1519173034210}, {"current_trial": 129, "trialdata": {"rt": -1000, "trial_type": "single-audio", "word": "liver", "stimulus": "/static/audio/wordpool/LIVER.wav", "conditions": [12, 800, "a", 24000], "internal_node_id": "0.0-93.0", "trial": 3, "time_elapsed": 807494, "serialpos": 0, "key_press": -1, "wordID": 832, "type": "PRES_AUD", "trial_index": 129}, "uniqueid": "MTK2647:3LJ7UR74RIKO0OVKT5O4JA6VXOCN4P", "dateTime": 1519173036008}, {"current_trial": 130, "trialdata": {"rt": -1000, "trial_type": "single-audio", "word": "garbage", "stimulus": "/static/audio/wordpool/GARBAGE.wav", "conditions": [12, 800, "a", 24000], "internal_node_id": "0.0-94.0", "trial": 3, "time_elapsed": 809269, "serialpos": 1, "key_press": -1, "wordID": 621, "type": "PRES_AUD", "trial_index": 130}, "uniqueid": "MTK2647:3LJ7UR74RIKO0OVKT5O4JA6VXOCN4P", "dateTime": 1519173037783}, {"current_trial": 131, "trialdata": {"rt": -1000, "trial_type": "single-audio", "word": "mailman", "stimulus": "/static/audio/wordpool/MAILMAN.wav", "conditions": [12, 800, "a", 24000], "internal_node_id": "0.0-95.0", "trial": 3, "time_elapsed": 811232, "serialpos": 2, "key_press": -1, "wordID": 857, "type": "PRES_AUD", "trial_index": 131}, "uniqueid": "MTK2647:3LJ7UR74RIKO0OVKT5O4JA6VXOCN4P", "dateTime": 1519173039746}, {"current_trial": 132, "trialdata": {"rt": -1000, "trial_type": "single-audio", "word": "shortcake", "stimulus": "/static/audio/wordpool/SHORTCAKE.wav", "conditions": [12, 800, "a", 24000], "internal_node_id": "0.0-96.0", "trial": 3, "time_elapsed": 813021, "serialpos": 3, "key_press": -1, "wordID": 1291, "type": "PRES_AUD", "trial_index": 132}, "uniqueid": "MTK2647:3LJ7UR74RIKO0OVKT5O4JA6VXOCN4P", "dateTime": 1519173041535}, {"current_trial": 133, "trialdata": {"rt": -1000, "trial_type": "single-audio", "word": "tractor", "stimulus": "/static/audio/wordpool/TRACTOR.wav", "conditions": [12, 800, "a", 24000], "internal_node_id": "0.0-97.0", "trial": 3, "time_elapsed": 814664, "serialpos": 4, "key_press": -1, "wordID": 1492, "type": "PRES_AUD", "trial_index": 133}, "uniqueid": "MTK2647:3LJ7UR74RIKO0OVKT5O4JA6VXOCN4P", "dateTime": 1519173043178}, {"current_trial": 134, "trialdata": {"rt": -1000, "trial_type": "single-audio", "word": "mammal", "stimulus": "/static/audio/wordpool/MAMMAL.wav", "conditions": [12, 800, "a", 24000], "internal_node_id": "0.0-98.0", "trial": 3, "time_elapsed": 816441, "serialpos": 5, "key_press": -1, "wordID": 860, "type": "PRES_AUD", "trial_index": 134}, "uniqueid": "MTK2647:3LJ7UR74RIKO0OVKT5O4JA6VXOCN4P", "dateTime": 1519173044955}, {"current_trial": 135, "trialdata": {"rt": -1000, "trial_type": "single-audio", "word": "whistle", "stimulus": "/static/audio/wordpool/WHISTLE.wav", "conditions": [12, 800, "a", 24000], "internal_node_id": "0.0-99.0", "trial": 3, "time_elapsed": 818195, "serialpos": 6, "key_press": -1, "wordID": 1605, "type": "PRES_AUD", "trial_index": 135}, "uniqueid": "MTK2647:3LJ7UR74RIKO0OVKT5O4JA6VXOCN4P", "dateTime": 1519173046709}, {"current_trial": 136, "trialdata": {"rt": -1000, "trial_type": "single-audio", "word": "keeper", "stimulus": "/static/audio/wordpool/KEEPER.wav", "conditions": [12, 800, "a", 24000], "internal_node_id": "0.0-100.0", "trial": 3, "time_elapsed": 819932, "serialpos": 7, "key_press": -1, "wordID": 768, "type": "PRES_AUD", "trial_index": 136}, "uniqueid": "MTK2647:3LJ7UR74RIKO0OVKT5O4JA6VXOCN4P", "dateTime": 1519173048446}, {"current_trial": 137, "trialdata": {"rt": -1000, "trial_type": "single-audio", "word": "wagon", "stimulus": "/static/audio/wordpool/WAGON.wav", "conditions": [12, 800, "a", 24000], "internal_node_id": "0.0-101.0", "trial": 3, "time_elapsed": 821691, "serialpos": 8, "key_press": -1, "wordID": 1577, "type": "PRES_AUD", "trial_index": 137}, "uniqueid": "MTK2647:3LJ7UR74RIKO0OVKT5O4JA6VXOCN4P", "dateTime": 1519173050205}, {"current_trial": 138, "trialdata": {"rt": -1000, "trial_type": "single-audio", "word": "chest", "stimulus": "/static/audio/wordpool/CHEST.wav", "conditions": [12, 800, "a", 24000], "internal_node_id": "0.0-102.0", "trial": 3, "time_elapsed": 823317, "serialpos": 9, "key_press": -1, "wordID": 294, "type": "PRES_AUD", "trial_index": 138}, "uniqueid": "MTK2647:3LJ7UR74RIKO0OVKT5O4JA6VXOCN4P", "dateTime": 1519173051831}, {"current_trial": 139, "trialdata": {"rt": -1000, "trial_type": "single-audio", "word": "forehead", "stimulus": "/static/audio/wordpool/FOREHEAD.wav", "conditions": [12, 800, "a", 24000], "internal_node_id": "0.0-103.0", "trial": 3, "time_elapsed": 825103, "serialpos": 10, "key_press": -1, "wordID": 591, "type": "PRES_AUD", "trial_index": 139}, "uniqueid": "MTK2647:3LJ7UR74RIKO0OVKT5O4JA6VXOCN4P", "dateTime": 1519173053617}, {"current_trial": 140, "trialdata": {"rt": -1000, "trial_type": "single-audio", "word": "hawk", "stimulus": "/static/audio/wordpool/HAWK.wav", "conditions": [12, 800, "a", 24000], "internal_node_id": "0.0-104.0", "trial": 3, "time_elapsed": 826726, "serialpos": 11, "key_press": -1, "wordID": 691, "type": "PRES_AUD", "trial_index": 140}, "uniqueid": "MTK2647:3LJ7UR74RIKO0OVKT5O4JA6VXOCN4P", "dateTime": 1519173055240}, {"current_trial": 141, "trialdata": {"rt": -1, "trial_type": "single-stim", "stimulus": "", "internal_node_id": "0.0-105.0-0.0", "time_elapsed": 828031, "key_press": -1, "type": "PRE_RECALL_DELAY", "trial_index": 141}, "uniqueid": "MTK2647:3LJ7UR74RIKO0OVKT5O4JA6VXOCN4P", "dateTime": 1519173056545}, {"current_trial": 142, "trialdata": {"rt": -1000, "trial_type": "single-audio", "stimulus": "/static/audio/400Hz.wav", "internal_node_id": "0.0-106.0", "time_elapsed": 828532, "key_press": -1, "type": "PRE_RECALL_ALERT", "trial_index": 142}, "uniqueid": "MTK2647:3LJ7UR74RIKO0OVKT5O4JA6VXOCN4P", "dateTime": 1519173057046}, {"current_trial": 143, "trialdata": {"rt": [8191, 11147, 17457, 23298, 29916, 45618], "recwords": ["whistle", "liver", "wagon", "mailman", "garbage", "garden"], "key_times": [5319, 5690, 5962, 6670, 7123, 7442, 7807, 8191, 9397, 9733, 10155, 10459, 10805, 11147, 13226, 13809, 14569, 14902, 15523, 16589, 16966, 17457, 19510, 19738, 20309, 20857, 21363, 21695, 22318, 23298, 26345, 26807, 27357, 27831, 28387, 29038, 29455, 29916, 42684, 43108, 43687, 44213, 44585, 45271, 45618], "trial_type": "free-recall", "conditions": [12, 800, "a", 24000], "internal_node_id": "0.0-107.0-0.0", "key_presses": [87, 72, 73, 83, 84, 76, 69, 13, 76, 73, 86, 69, 82, 13, 87, 65, 71, 79, 77, 8, 78, 13, 77, 65, 73, 76, 77, 65, 78, 13, 71, 65, 82, 66, 65, 71, 69, 13, 71, 65, 82, 68, 69, 78, 13], "trial": 3, "time_elapsed": 888535, "type": "FREE_RECALL", "trial_index": 143}, "uniqueid": "MTK2647:3LJ7UR74RIKO0OVKT5O4JA6VXOCN4P", "dateTime": 1519173117051}, {"current_trial": 144, "trialdata": {"rt": 2357, "trial_type": "text", "internal_node_id": "0.0-108.0", "time_elapsed": 892895, "key_press": 32, "type": "INSTRUCTIONS", "trial_index": 144}, "uniqueid": "MTK2647:3LJ7UR74RIKO0OVKT5O4JA6VXOCN4P", "dateTime": 1519173121409}, {"current_trial": 145, "trialdata": {"rt": [8025], "trial_type": "math-distractor", "key_times": [5561, 6182, 6509, 7513, 8025], "responses": ["15"], "num2": [5, 2], "num3": [4, 3], "conditions": [24, 800, "a", 12000], "internal_node_id": "0.0-109.0", "key_presses": [49, 53, 220, 8, 13], "trial": 4, "time_elapsed": 906898, "type": "DISTRACTOR", "trial_index": 145, "num1": [6, 4]}, "uniqueid": "MTK2647:3LJ7UR74RIKO0OVKT5O4JA6VXOCN4P", "dateTime": 1519173135412}, {"current_trial": 146, "trialdata": {"rt": -1, "trial_type": "single-stim", "stimulus": "<p id=\"stim\">10</p>", "internal_node_id": "0.0-110.0-0.0", "time_elapsed": 909900, "key_press": -1, "trial_index": 146}, "uniqueid": "MTK2647:3LJ7UR74RIKO0OVKT5O4JA6VXOCN4P", "dateTime": 1519173138414}, {"current_trial": 147, "trialdata": {"rt": -1, "trial_type": "single-stim", "stimulus": "<p id=\"stim\">9</p>", "internal_node_id": "0.0-110.0-1.0", "time_elapsed": 910901, "key_press": -1, "trial_index": 147}, "uniqueid": "MTK2647:3LJ7UR74RIKO0OVKT5O4JA6VXOCN4P", "dateTime": 1519173139415}, {"current_trial": 148, "trialdata": {"rt": -1, "trial_type": "single-stim", "stimulus": "<p id=\"stim\">8</p>", "internal_node_id": "0.0-110.0-2.0", "time_elapsed": 911903, "key_press": -1, "trial_index": 148}, "uniqueid": "MTK2647:3LJ7UR74RIKO0OVKT5O4JA6VXOCN4P", "dateTime": 1519173140417}, {"current_trial": 149, "trialdata": {"rt": -1, "trial_type": "single-stim", "stimulus": "<p id=\"stim\">7</p>", "internal_node_id": "0.0-110.0-3.0", "time_elapsed": 912904, "key_press": -1, "trial_index": 149}, "uniqueid": "MTK2647:3LJ7UR74RIKO0OVKT5O4JA6VXOCN4P", "dateTime": 1519173141418}, {"current_trial": 150, "trialdata": {"rt": -1, "trial_type": "single-stim", "stimulus": "<p id=\"stim\">6</p>", "internal_node_id": "0.0-110.0-4.0", "time_elapsed": 913906, "key_press": -1, "trial_index": 150}, "uniqueid": "MTK2647:3LJ7UR74RIKO0OVKT5O4JA6VXOCN4P", "dateTime": 1519173142420}, {"current_trial": 151, "trialdata": {"rt": -1, "trial_type": "single-stim", "stimulus": "<p id=\"stim\">5</p>", "internal_node_id": "0.0-110.0-5.0", "time_elapsed": 914907, "key_press": -1, "trial_index": 151}, "uniqueid": "MTK2647:3LJ7UR74RIKO0OVKT5O4JA6VXOCN4P", "dateTime": 1519173143421}, {"current_trial": 152, "trialdata": {"rt": -1, "trial_type": "single-stim", "stimulus": "<p id=\"stim\">4</p>", "internal_node_id": "0.0-110.0-6.0", "time_elapsed": 915908, "key_press": -1, "trial_index": 152}, "uniqueid": "MTK2647:3LJ7UR74RIKO0OVKT5O4JA6VXOCN4P", "dateTime": 1519173144422}, {"current_trial": 153, "trialdata": {"rt": -1, "trial_type": "single-stim", "stimulus": "<p id=\"stim\">3</p>", "internal_node_id": "0.0-110.0-7.0", "time_elapsed": 916910, "key_press": -1, "trial_index": 153}, "uniqueid": "MTK2647:3LJ7UR74RIKO0OVKT5O4JA6VXOCN4P", "dateTime": 1519173145424}, {"current_trial": 154, "trialdata": {"rt": -1, "trial_type": "single-stim", "stimulus": "<p id=\"stim\">2</p>", "internal_node_id": "0.0-110.0-8.0", "time_elapsed": 917912, "key_press": -1, "trial_index": 154}, "uniqueid": "MTK2647:3LJ7UR74RIKO0OVKT5O4JA6VXOCN4P", "dateTime": 1519173146426}, {"current_trial": 155, "trialdata": {"rt": -1, "trial_type": "single-stim", "stimulus": "<p id=\"stim\">1</p>", "internal_node_id": "0.0-110.0-9.0", "time_elapsed": 918913, "key_press": -1, "trial_index": 155}, "uniqueid": "MTK2647:3LJ7UR74RIKO0OVKT5O4JA6VXOCN4P", "dateTime": 1519173147427}, {"current_trial": 156, "trialdata": {"rt": -1, "trial_type": "single-stim", "stimulus": "<p id=\"stim\">+</p>", "internal_node_id": "0.0-111.0-0.0", "time_elapsed": 920414, "key_press": -1, "type": "FIXATION", "trial_index": 156}, "uniqueid": "MTK2647:3LJ7UR74RIKO0OVKT5O4JA6VXOCN4P", "dateTime": 1519173148928}, {"current_trial": 157, "trialdata": {"rt": -1000, "trial_type": "single-audio", "word": "costume", "stimulus": "/static/audio/wordpool/COSTUME.wav", "conditions": [24, 800, "a", 12000], "internal_node_id": "0.0-112.0", "trial": 4, "time_elapsed": 922219, "serialpos": 0, "key_press": -1, "wordID": 382, "type": "PRES_AUD", "trial_index": 157}, "uniqueid": "MTK2647:3LJ7UR74RIKO0OVKT5O4JA6VXOCN4P", "dateTime": 1519173150733}, {"current_trial": 158, "trialdata": {"rt": -1000, "trial_type": "single-audio", "word": "razor", "stimulus": "/static/audio/wordpool/RAZOR.wav", "conditions": [24, 800, "a", 12000], "internal_node_id": "0.0-113.0", "trial": 4, "time_elapsed": 923840, "serialpos": 1, "key_press": -1, "wordID": 1170, "type": "PRES_AUD", "trial_index": 158}, "uniqueid": "MTK2647:3LJ7UR74RIKO0OVKT5O4JA6VXOCN4P", "dateTime": 1519173152354}, {"current_trial": 159, "trialdata": {"rt": -1000, "trial_type": "single-audio", "word": "blade", "stimulus": "/static/audio/wordpool/BLADE.wav", "conditions": [24, 800, "a", 12000], "internal_node_id": "0.0-114.0", "trial": 4, "time_elapsed": 925473, "serialpos": 2, "key_press": -1, "wordID": 133, "type": "PRES_AUD", "trial_index": 159}, "uniqueid": "MTK2647:3LJ7UR74RIKO0OVKT5O4JA6VXOCN4P", "dateTime": 1519173153987}, {"current_trial": 160, "trialdata": {"rt": -1000, "trial_type": "single-audio", "word": "waiter", "stimulus": "/static/audio/wordpool/WAITER.wav", "conditions": [24, 800, "a", 12000], "internal_node_id": "0.0-115.0", "trial": 4, "time_elapsed": 927291, "serialpos": 3, "key_press": -1, "wordID": 1579, "type": "PRES_AUD", "trial_index": 160}, "uniqueid": "MTK2647:3LJ7UR74RIKO0OVKT5O4JA6VXOCN4P", "dateTime": 1519173155805}, {"current_trial": 161, "trialdata": {"rt": -1000, "trial_type": "single-audio", "word": "washer", "stimulus": "/static/audio/wordpool/WASHER.wav", "conditions": [24, 800, "a", 12000], "internal_node_id": "0.0-116.0", "trial": 4, "time_elapsed": 929054, "serialpos": 4, "key_press": -1, "wordID": 1591, "type": "PRES_AUD", "trial_index": 161}, "uniqueid": "MTK2647:3LJ7UR74RIKO0OVKT5O4JA6VXOCN4P", "dateTime": 1519173157568}, {"current_trial": 162, "trialdata": {"rt": -1000, "trial_type": "single-audio", "word": "glove", "stimulus": "/static/audio/wordpool/GLOVE.wav", "conditions": [24, 800, "a", 12000], "internal_node_id": "0.0-117.0", "trial": 4, "time_elapsed": 930936, "serialpos": 5, "key_press": -1, "wordID": 641, "type": "PRES_AUD", "trial_index": 162}, "uniqueid": "MTK2647:3LJ7UR74RIKO0OVKT5O4JA6VXOCN4P", "dateTime": 1519173159450}, {"current_trial": 163, "trialdata": {"rt": -1000, "trial_type": "single-audio", "word": "spoon", "stimulus": "/static/audio/wordpool/SPOON.wav", "conditions": [24, 800, "a", 12000], "internal_node_id": "0.0-118.0", "trial": 4, "time_elapsed": 932683, "serialpos": 6, "key_press": -1, "wordID": 1356, "type": "PRES_AUD", "trial_index": 163}, "uniqueid": "MTK2647:3LJ7UR74RIKO0OVKT5O4JA6VXOCN4P", "dateTime": 1519173161197}, {"current_trial": 164, "trialdata": {"rt": -1000, "trial_type": "single-audio", "word": "spider", "stimulus": "/static/audio/wordpool/SPIDER.wav", "conditions": [24, 800, "a", 12000], "internal_node_id": "0.0-119.0", "trial": 4, "time_elapsed": 934678, "serialpos": 7, "key_press": -1, "wordID": 1350, "type": "PRES_AUD", "trial_index": 164}, "uniqueid": "MTK2647:3LJ7UR74RIKO0OVKT5O4JA6VXOCN4P", "dateTime": 1519173163192}, {"current_trial": 165, "trialdata": {"rt": -1000, "trial_type": "single-audio", "word": "skirt", "stimulus": "/static/audio/wordpool/SKIRT.wav", "conditions": [24, 800, "a", 12000], "internal_node_id": "0.0-120.0", "trial": 4, "time_elapsed": 936330, "serialpos": 8, "key_press": -1, "wordID": 1318, "type": "PRES_AUD", "trial_index": 165}, "uniqueid": "MTK2647:3LJ7UR74RIKO0OVKT5O4JA6VXOCN4P", "dateTime": 1519173164844}, {"current_trial": 166, "trialdata": {"rt": -1000, "trial_type": "single-audio", "word": "parsley", "stimulus": "/static/audio/wordpool/PARSLEY.wav", "conditions": [24, 800, "a", 12000], "internal_node_id": "0.0-121.0", "trial": 4, "time_elapsed": 938080, "serialpos": 9, "key_press": -1, "wordID": 1015, "type": "PRES_AUD", "trial_index": 166}, "uniqueid": "MTK2647:3LJ7UR74RIKO0OVKT5O4JA6VXOCN4P", "dateTime": 1519173166594}, {"current_trial": 167, "trialdata": {"rt": -1000, "trial_type": "single-audio", "word": "wardrobe", "stimulus": "/static/audio/wordpool/WARDROBE.wav", "conditions": [24, 800, "a", 12000], "internal_node_id": "0.0-122.0", "trial": 4, "time_elapsed": 939929, "serialpos": 10, "key_press": -1, "wordID": 1586, "type": "PRES_AUD", "trial_index": 167}, "uniqueid": "MTK2647:3LJ7UR74RIKO0OVKT5O4JA6VXOCN4P", "dateTime": 1519173168443}, {"current_trial": 168, "trialdata": {"rt": -1000, "trial_type": "single-audio", "word": "marrow", "stimulus": "/static/audio/wordpool/MARROW.wav", "conditions": [24, 800, "a", 12000], "internal_node_id": "0.0-123.0", "trial": 4, "time_elapsed": 941686, "serialpos": 11, "key_press": -1, "wordID": 871, "type": "PRES_AUD", "trial_index": 168}, "uniqueid": "MTK2647:3LJ7UR74RIKO0OVKT5O4JA6VXOCN4P", "dateTime": 1519173170200}, {"current_trial": 169, "trialdata": {"rt": -1000, "trial_type": "single-audio", "word": "cocktail", "stimulus": "/static/audio/wordpool/COCKTAIL.wav", "conditions": [24, 800, "a", 12000], "internal_node_id": "0.0-124.0", "trial": 4, "time_elapsed": 943600, "serialpos": 12, "key_press": -1, "wordID": 337, "type": "PRES_AUD", "trial_index": 169}, "uniqueid": "MTK2647:3LJ7UR74RIKO0OVKT5O4JA6VXOCN4P", "dateTime": 1519173172114}, {"current_trial": 170, "trialdata": {"rt": -1000, "trial_type": "single-audio", "word": "knife", "stimulus": "/static/audio/wordpool/KNIFE.wav", "conditions": [24, 800, "a", 12000], "internal_node_id": "0.0-125.0", "trial": 4, "time_elapsed": 945305, "serialpos": 13, "key_press": -1, "wordID": 784, "type": "PRES_AUD", "trial_index": 170}, "uniqueid": "MTK2647:3LJ7UR74RIKO0OVKT5O4JA6VXOCN4P", "dateTime": 1519173173819}, {"current_trial": 171, "trialdata": {"rt": -1000, "trial_type": "single-audio", "word": "carriage", "stimulus": "/static/audio/wordpool/CARRIAGE.wav", "conditions": [24, 800, "a", 12000], "internal_node_id": "0.0-126.0", "trial": 4, "time_elapsed": 947292, "serialpos": 14, "key_press": -1, "wordID": 247, "type": "PRES_AUD", "trial_index": 171}, "uniqueid": "MTK2647:3LJ7UR74RIKO0OVKT5O4JA6VXOCN4P", "dateTime": 1519173175806}, {"current_trial": 172, "trialdata": {"rt": -1000, "trial_type": "single-audio", "word": "garlic", "stimulus": "/static/audio/wordpool/GARLIC.wav", "conditions": [24, 800, "a", 12000], "internal_node_id": "0.0-127.0", "trial": 4, "time_elapsed": 949116, "serialpos": 15, "key_press": -1, "wordID": 623, "type": "PRES_AUD", "trial_index": 172}, "uniqueid": "MTK2647:3LJ7UR74RIKO0OVKT5O4JA6VXOCN4P", "dateTime": 1519173177630}, {"current_trial": 173, "trialdata": {"rt": -1000, "trial_type": "single-audio", "word": "radish", "stimulus": "/static/audio/wordpool/RADISH.wav", "conditions": [24, 800, "a", 12000], "internal_node_id": "0.0-128.0", "trial": 4, "time_elapsed": 950905, "serialpos": 16, "key_press": -1, "wordID": 1157, "type": "PRES_AUD", "trial_index": 173}, "uniqueid": "MTK2647:3LJ7UR74RIKO0OVKT5O4JA6VXOCN4P", "dateTime": 1519173179419}, {"current_trial": 174, "trialdata": {"rt": -1000, "trial_type": "single-audio", "word": "taxi", "stimulus": "/static/audio/wordpool/TAXI.wav", "conditions": [24, 800, "a", 12000], "internal_node_id": "0.0-129.0", "trial": 4, "time_elapsed": 952603, "serialpos": 17, "key_press": -1, "wordID": 1437, "type": "PRES_AUD", "trial_index": 174}, "uniqueid": "MTK2647:3LJ7UR74RIKO0OVKT5O4JA6VXOCN4P", "dateTime": 1519173181117}, {"current_trial": 175, "trialdata": {"rt": -1000, "trial_type": "single-audio", "word": "playground", "stimulus": "/static/audio/wordpool/PLAYGROUND.wav", "conditions": [24, 800, "a", 12000], "internal_node_id": "0.0-130.0", "trial": 4, "time_elapsed": 954523, "serialpos": 18, "key_press": -1, "wordID": 1086, "type": "PRES_AUD", "trial_index": 175}, "uniqueid": "MTK2647:3LJ7UR74RIKO0OVKT5O4JA6VXOCN4P", "dateTime": 1519173183037}, {"current_trial": 176, "trialdata": {"rt": -1000, "trial_type": "single-audio", "word": "servant", "stimulus": "/static/audio/wordpool/SERVANT.wav", "conditions": [24, 800, "a", 12000], "internal_node_id": "0.0-131.0", "trial": 4, "time_elapsed": 956244, "serialpos": 19, "key_press": -1, "wordID": 1270, "type": "PRES_AUD", "trial_index": 176}, "uniqueid": "MTK2647:3LJ7UR74RIKO0OVKT5O4JA6VXOCN4P", "dateTime": 1519173184759}, {"current_trial": 177, "trialdata": {"rt": -1000, "trial_type": "single-audio", "word": "temple", "stimulus": "/static/audio/wordpool/TEMPLE.wav", "conditions": [24, 800, "a", 12000], "internal_node_id": "0.0-132.0", "trial": 4, "time_elapsed": 958004, "serialpos": 20, "key_press": -1, "wordID": 1447, "type": "PRES_AUD", "trial_index": 177}, "uniqueid": "MTK2647:3LJ7UR74RIKO0OVKT5O4JA6VXOCN4P", "dateTime": 1519173186518}, {"current_trial": 178, "trialdata": {"rt": -1000, "trial_type": "single-audio", "word": "scissors", "stimulus": "/static/audio/wordpool/SCISSORS.wav", "conditions": [24, 800, "a", 12000], "internal_node_id": "0.0-133.0", "trial": 4, "time_elapsed": 959919, "serialpos": 21, "key_press": -1, "wordID": 1249, "type": "PRES_AUD", "trial_index": 178}, "uniqueid": "MTK2647:3LJ7UR74RIKO0OVKT5O4JA6VXOCN4P", "dateTime": 1519173188433}, {"current_trial": 179, "trialdata": {"rt": -1000, "trial_type": "single-audio", "word": "snack", "stimulus": "/static/audio/wordpool/SNACK.wav", "conditions": [24, 800, "a", 12000], "internal_node_id": "0.0-134.0", "trial": 4, "time_elapsed": 961592, "serialpos": 22, "key_press": -1, "wordID": 1330, "type": "PRES_AUD", "trial_index": 179}, "uniqueid": "MTK2647:3LJ7UR74RIKO0OVKT5O4JA6VXOCN4P", "dateTime": 1519173190106}, {"current_trial": 180, "trialdata": {"rt": -1000, "trial_type": "single-audio", "word": "pliers", "stimulus": "/static/audio/wordpool/PLIERS.wav", "conditions": [24, 800, "a", 12000], "internal_node_id": "0.0-135.0", "trial": 4, "time_elapsed": 963478, "serialpos": 23, "key_press": -1, "wordID": 1088, "type": "PRES_AUD", "trial_index": 180}, "uniqueid": "MTK2647:3LJ7UR74RIKO0OVKT5O4JA6VXOCN4P", "dateTime": 1519173191992}, {"current_trial": 181, "trialdata": {"rt": -1, "trial_type": "single-stim", "stimulus": "", "internal_node_id": "0.0-136.0-0.0", "time_elapsed": 964773, "key_press": -1, "type": "PRE_RECALL_DELAY", "trial_index": 181}, "uniqueid": "MTK2647:3LJ7UR74RIKO0OVKT5O4JA6VXOCN4P", "dateTime": 1519173193287}, {"current_trial": 182, "trialdata": {"rt": -1000, "trial_type": "single-audio", "stimulus": "/static/audio/400Hz.wav", "internal_node_id": "0.0-137.0", "time_elapsed": 965275, "key_press": -1, "type": "PRE_RECALL_ALERT", "trial_index": 182}, "uniqueid": "MTK2647:3LJ7UR74RIKO0OVKT5O4JA6VXOCN4P", "dateTime": 1519173193789}, {"current_trial": 183, "trialdata": {"rt": [10109, 15467, 21660, 28428, 31376, 42173, 45111, 51326, 55460], "recwords": ["skirt", "wardrobe", "costume", "water", "washer", "razor", "blade", "garlic", "radish"], "key_times": [7906, 8529, 8817, 9295, 9699, 10109, 10973, 11413, 11894, 12793, 13366, 13646, 14397, 14999, 15467, 18654, 18966, 19592, 19985, 20415, 20952, 21350, 21660, 26697, 26990, 27439, 27785, 28100, 28428, 28888, 29164, 29574, 30078, 30469, 30921, 31376, 38877, 39317, 40564, 40961, 41649, 42173, 42871, 43173, 43561, 43912, 44344, 45111, 48174, 48796, 49181, 49711, 50203, 50746, 51326, 52083, 52610, 52985, 53296, 54104, 54849, 55460, 58373, 58751, 59216, 59477], "trial_type": "free-recall", "conditions": [24, 800, "a", 12000], "internal_node_id": "0.0-138.0-0.0", "key_presses": [83, 75, 73, 82, 84, 13, 87, 65, 82, 68, 82, 79, 66, 69, 13, 67, 79, 83, 84, 85, 77, 69, 13, 87, 65, 84, 69, 82, 13, 87, 65, 83, 72, 69, 82, 13, 82, 65, 90, 79, 82, 13, 66, 76, 65, 68, 69, 13, 71, 65, 82, 76, 73, 67, 13, 82, 65, 68, 73, 83, 72, 13, 83, 80, 79, 79], "trial": 4, "time_elapsed": 1025277, "type": "FREE_RECALL", "trial_index": 183}, "uniqueid": "MTK2647:3LJ7UR74RIKO0OVKT5O4JA6VXOCN4P", "dateTime": 1519173253793}, {"current_trial": 184, "trialdata": {"rt": 19902, "trial_type": "text", "internal_node_id": "0.0-139.0", "time_elapsed": 1047183, "key_press": 40, "type": "INSTRUCTIONS", "trial_index": 184}, "uniqueid": "MTK2647:3LJ7UR74RIKO0OVKT5O4JA6VXOCN4P", "dateTime": 1519173275697}, {"current_trial": 185, "trialdata": {"rt": [8716, 14634, 19672, 23964], "trial_type": "math-distractor", "key_times": [3732, 8492, 8716, 14146, 14366, 14634, 18162, 18959, 19672, 23708, 23964], "responses": ["16", "23", "10", "9"], "num2": [7, 8, 3, 1, 7], "num3": [1, 8, 1, 6, 6], "conditions": [12, 800, "a", 24000], "internal_node_id": "0.0-140.0", "key_presses": [49, 54, 13, 50, 51, 13, 49, 48, 13, 57, 13], "trial": 5, "time_elapsed": 1073186, "type": "DISTRACTOR", "trial_index": 185, "num1": [8, 7, 6, 2, 8]}, "uniqueid": "MTK2647:3LJ7UR74RIKO0OVKT5O4JA6VXOCN4P", "dateTime": 1519173301700}, {"current_trial": 186, "trialdata": {"rt": -1, "trial_type": "single-stim", "stimulus": "<p id=\"stim\">10</p>", "internal_node_id": "0.0-141.0-0.0", "time_elapsed": 1076189, "key_press": -1, "trial_index": 186}, "uniqueid": "MTK2647:3LJ7UR74RIKO0OVKT5O4JA6VXOCN4P", "dateTime": 1519173304703}, {"current_trial": 187, "trialdata": {"rt": -1, "trial_type": "single-stim", "stimulus": "<p id=\"stim\">9</p>", "internal_node_id": "0.0-141.0-1.0", "time_elapsed": 1077190, "key_press": -1, "trial_index": 187}, "uniqueid": "MTK2647:3LJ7UR74RIKO0OVKT5O4JA6VXOCN4P", "dateTime": 1519173305704}, {"current_trial": 188, "trialdata": {"rt": -1, "trial_type": "single-stim", "stimulus": "<p id=\"stim\">8</p>", "internal_node_id": "0.0-141.0-2.0", "time_elapsed": 1078192, "key_press": -1, "trial_index": 188}, "uniqueid": "MTK2647:3LJ7UR74RIKO0OVKT5O4JA6VXOCN4P", "dateTime": 1519173306706}, {"current_trial": 189, "trialdata": {"rt": -1, "trial_type": "single-stim", "stimulus": "<p id=\"stim\">7</p>", "internal_node_id": "0.0-141.0-3.0", "time_elapsed": 1079193, "key_press": -1, "trial_index": 189}, "uniqueid": "MTK2647:3LJ7UR74RIKO0OVKT5O4JA6VXOCN4P", "dateTime": 1519173307707}, {"current_trial": 190, "trialdata": {"rt": -1, "trial_type": "single-stim", "stimulus": "<p id=\"stim\">6</p>", "internal_node_id": "0.0-141.0-4.0", "time_elapsed": 1080194, "key_press": -1, "trial_index": 190}, "uniqueid": "MTK2647:3LJ7UR74RIKO0OVKT5O4JA6VXOCN4P", "dateTime": 1519173308708}, {"current_trial": 191, "trialdata": {"rt": -1, "trial_type": "single-stim", "stimulus": "<p id=\"stim\">5</p>", "internal_node_id": "0.0-141.0-5.0", "time_elapsed": 1081195, "key_press": -1, "trial_index": 191}, "uniqueid": "MTK2647:3LJ7UR74RIKO0OVKT5O4JA6VXOCN4P", "dateTime": 1519173309709}, {"current_trial": 192, "trialdata": {"rt": -1, "trial_type": "single-stim", "stimulus": "<p id=\"stim\">4</p>", "internal_node_id": "0.0-141.0-6.0", "time_elapsed": 1082196, "key_press": -1, "trial_index": 192}, "uniqueid": "MTK2647:3LJ7UR74RIKO0OVKT5O4JA6VXOCN4P", "dateTime": 1519173310710}, {"current_trial": 193, "trialdata": {"rt": -1, "trial_type": "single-stim", "stimulus": "<p id=\"stim\">3</p>", "internal_node_id": "0.0-141.0-7.0", "time_elapsed": 1083197, "key_press": -1, "trial_index": 193}, "uniqueid": "MTK2647:3LJ7UR74RIKO0OVKT5O4JA6VXOCN4P", "dateTime": 1519173311711}, {"current_trial": 194, "trialdata": {"rt": -1, "trial_type": "single-stim", "stimulus": "<p id=\"stim\">2</p>", "internal_node_id": "0.0-141.0-8.0", "time_elapsed": 1084198, "key_press": -1, "trial_index": 194}, "uniqueid": "MTK2647:3LJ7UR74RIKO0OVKT5O4JA6VXOCN4P", "dateTime": 1519173312713}, {"current_trial": 195, "trialdata": {"rt": -1, "trial_type": "single-stim", "stimulus": "<p id=\"stim\">1</p>", "internal_node_id": "0.0-141.0-9.0", "time_elapsed": 1085199, "key_press": -1, "trial_index": 195}, "uniqueid": "MTK2647:3LJ7UR74RIKO0OVKT5O4JA6VXOCN4P", "dateTime": 1519173313714}, {"current_trial": 196, "trialdata": {"rt": -1, "trial_type": "single-stim", "stimulus": "<p id=\"stim\">+</p>", "internal_node_id": "0.0-142.0-0.0", "time_elapsed": 1086702, "key_press": -1, "type": "FIXATION", "trial_index": 196}, "uniqueid": "MTK2647:3LJ7UR74RIKO0OVKT5O4JA6VXOCN4P", "dateTime": 1519173315216}, {"current_trial": 197, "trialdata": {"rt": -1000, "trial_type": "single-audio", "word": "stallion", "stimulus": "/static/audio/wordpool/STALLION.wav", "conditions": [12, 800, "a", 24000], "internal_node_id": "0.0-143.0", "trial": 5, "time_elapsed": 1088463, "serialpos": 0, "key_press": -1, "wordID": 1368, "type": "PRES_AUD", "trial_index": 197}, "uniqueid": "MTK2647:3LJ7UR74RIKO0OVKT5O4JA6VXOCN4P", "dateTime": 1519173316977}, {"current_trial": 198, "trialdata": {"rt": -1000, "trial_type": "single-audio", "word": "harp", "stimulus": "/static/audio/wordpool/HARP.wav", "conditions": [12, 800, "a", 24000], "internal_node_id": "0.0-144.0", "trial": 5, "time_elapsed": 1090295, "serialpos": 1, "key_press": -1, "wordID": 688, "type": "PRES_AUD", "trial_index": 198}, "uniqueid": "MTK2647:3LJ7UR74RIKO0OVKT5O4JA6VXOCN4P", "dateTime": 1519173318809}, {"current_trial": 199, "trialdata": {"rt": -1000, "trial_type": "single-audio", "word": "drink", "stimulus": "/static/audio/wordpool/DRINK.wav", "conditions": [12, 800, "a", 24000], "internal_node_id": "0.0-145.0", "trial": 5, "time_elapsed": 1091998, "serialpos": 2, "key_press": -1, "wordID": 497, "type": "PRES_AUD", "trial_index": 199}, "uniqueid": "MTK2647:3LJ7UR74RIKO0OVKT5O4JA6VXOCN4P", "dateTime": 1519173320513}, {"current_trial": 200, "trialdata": {"rt": -1000, "trial_type": "single-audio", "word": "sausage", "stimulus": "/static/audio/wordpool/SAUSAGE.wav", "conditions": [12, 800, "a", 24000], "internal_node_id": "0.0-146.0", "trial": 5, "time_elapsed": 1093793, "serialpos": 3, "key_press": -1, "wordID": 1237, "type": "PRES_AUD", "trial_index": 200}, "uniqueid": "MTK2647:3LJ7UR74RIKO0OVKT5O4JA6VXOCN4P", "dateTime": 1519173322307}, {"current_trial": 201, "trialdata": {"rt": -1000, "trial_type": "single-audio", "word": "preacher", "stimulus": "/static/audio/wordpool/PREACHER.wav", "conditions": [12, 800, "a", 24000], "internal_node_id": "0.0-147.0", "trial": 5, "time_elapsed": 1095611, "serialpos": 4, "key_press": -1, "wordID": 1118, "type": "PRES_AUD", "trial_index": 201}, "uniqueid": "MTK2647:3LJ7UR74RIKO0OVKT5O4JA6VXOCN4P", "dateTime": 1519173324125}, {"current_trial": 202, "trialdata": {"rt": -1000, "trial_type": "single-audio", "word": "guitar", "stimulus": "/static/audio/wordpool/GUITAR.wav", "conditions": [12, 800, "a", 24000], "internal_node_id": "0.0-148.0", "trial": 5, "time_elapsed": 1097341, "serialpos": 5, "key_press": -1, "wordID": 669, "type": "PRES_AUD", "trial_index": 202}, "uniqueid": "MTK2647:3LJ7UR74RIKO0OVKT5O4JA6VXOCN4P", "dateTime": 1519173325855}, {"current_trial": 203, "trialdata": {"rt": -1000, "trial_type": "single-audio", "word": "fruit", "stimulus": "/static/audio/wordpool/FRUIT.wav", "conditions": [12, 800, "a", 24000], "internal_node_id": "0.0-149.0", "trial": 5, "time_elapsed": 1099145, "serialpos": 6, "key_press": -1, "wordID": 609, "type": "PRES_AUD", "trial_index": 203}, "uniqueid": "MTK2647:3LJ7UR74RIKO0OVKT5O4JA6VXOCN4P", "dateTime": 1519173327659}, {"current_trial": 204, "trialdata": {"rt": -1000, "trial_type": "single-audio", "word": "crutch", "stimulus": "/static/audio/wordpool/CRUTCH.wav", "conditions": [12, 800, "a", 24000], "internal_node_id": "0.0-150.0", "trial": 5, "time_elapsed": 1100797, "serialpos": 7, "key_press": -1, "wordID": 416, "type": "PRES_AUD", "trial_index": 204}, "uniqueid": "MTK2647:3LJ7UR74RIKO0OVKT5O4JA6VXOCN4P", "dateTime": 1519173329311}, {"current_trial": 205, "trialdata": {"rt": -1000, "trial_type": "single-audio", "word": "flower", "stimulus": "/static/audio/wordpool/FLOWER.wav", "conditions": [12, 800, "a", 24000], "internal_node_id": "0.0-151.0", "trial": 5, "time_elapsed": 1102695, "serialpos": 8, "key_press": -1, "wordID": 583, "type": "PRES_AUD", "trial_index": 205}, "uniqueid": "MTK2647:3LJ7UR74RIKO0OVKT5O4JA6VXOCN4P", "dateTime": 1519173331209}, {"current_trial": 206, "trialdata": {"rt": -1000, "trial_type": "single-audio", "word": "citrus", "stimulus": "/static/audio/wordpool/CITRUS.wav", "conditions": [12, 800, "a", 24000], "internal_node_id": "0.0-152.0", "trial": 5, "time_elapsed": 1104405, "serialpos": 9, "key_press": -1, "wordID": 312, "type": "PRES_AUD", "trial_index": 206}, "uniqueid": "MTK2647:3LJ7UR74RIKO0OVKT5O4JA6VXOCN4P", "dateTime": 1519173332919}, {"current_trial": 207, "trialdata": {"rt": -1000, "trial_type": "single-audio", "word": "pecan", "stimulus": "/static/audio/wordpool/PECAN.wav", "conditions": [12, 800, "a", 24000], "internal_node_id": "0.0-153.0", "trial": 5, "time_elapsed": 1106179, "serialpos": 10, "key_press": -1, "wordID": 1035, "type": "PRES_AUD", "trial_index": 207}, "uniqueid": "MTK2647:3LJ7UR74RIKO0OVKT5O4JA6VXOCN4P", "dateTime": 1519173334693}, {"current_trial": 208, "trialdata": {"rt": -1000, "trial_type": "single-audio", "word": "cashier", "stimulus": "/static/audio/wordpool/CASHIER.wav", "conditions": [12, 800, "a", 24000], "internal_node_id": "0.0-154.0", "trial": 5, "time_elapsed": 1108051, "serialpos": 11, "key_press": -1, "wordID": 253, "type": "PRES_AUD", "trial_index": 208}, "uniqueid": "MTK2647:3LJ7UR74RIKO0OVKT5O4JA6VXOCN4P", "dateTime": 1519173336565}, {"current_trial": 209, "trialdata": {"rt": -1, "trial_type": "single-stim", "stimulus": "", "internal_node_id": "0.0-155.0-0.0", "time_elapsed": 1109285, "key_press": -1, "type": "PRE_RECALL_DELAY", "trial_index": 209}, "uniqueid": "MTK2647:3LJ7UR74RIKO0OVKT5O4JA6VXOCN4P", "dateTime": 1519173337799}, {"current_trial": 210, "trialdata": {"rt": -1000, "trial_type": "single-audio", "stimulus": "/static/audio/400Hz.wav", "internal_node_id": "0.0-156.0", "time_elapsed": 1109786, "key_press": -1, "type": "PRE_RECALL_ALERT", "trial_index": 210}, "uniqueid": "MTK2647:3LJ7UR74RIKO0OVKT5O4JA6VXOCN4P", "dateTime": 1519173338300}, {"current_trial": 211, "trialdata": {"rt": [7390, 11889, 17638, 24349, 33580, 38627, 45933, 53329], "recwords": ["fruit", "pecan", "harp", "gutar", "casheer", "drink", "cashue", "staloin"], "key_times": [4779, 5131, 5593, 5879, 6513, 7390, 9646, 9948, 10362, 10748, 11499, 11889, 15262, 15950, 16396, 17206, 17638, 18911, 19320, 22978, 23617, 23978, 24349, 29232, 30173, 31465, 32017, 32740, 32917, 33266, 33580, 36505, 36822, 37290, 37942, 38225, 38627, 42889, 43233, 43636, 44032, 44761, 45097, 45933, 50181, 50863, 51349, 51863, 52357, 52729, 53038, 53329, 56155, 56472, 56758, 57143, 57607, 59791], "trial_type": "free-recall", "conditions": [12, 800, "a", 24000], "internal_node_id": "0.0-157.0-0.0", "key_presses": [70, 82, 85, 73, 84, 13, 80, 69, 67, 65, 78, 13, 72, 65, 82, 80, 13, 71, 85, 84, 65, 82, 13, 67, 65, 83, 72, 69, 69, 82, 13, 68, 82, 73, 78, 75, 13, 67, 65, 83, 72, 85, 69, 13, 83, 84, 65, 76, 79, 73, 78, 13, 67, 82, 69, 65, 84, 85], "trial": 5, "time_elapsed": 1169793, "type": "FREE_RECALL", "trial_index": 211}, "uniqueid": "MTK2647:3LJ7UR74RIKO0OVKT5O4JA6VXOCN4P", "dateTime": 1519173398309}, {"current_trial": 212, "trialdata": {"rt": 20586, "trial_type": "text", "internal_node_id": "0.0-158.0", "time_elapsed": 1192383, "key_press": 13, "type": "INSTRUCTIONS", "trial_index": 212}, "uniqueid": "MTK2647:3LJ7UR74RIKO0OVKT5O4JA6VXOCN4P", "dateTime": 1519173420897}, {"current_trial": 213, "trialdata": {"rt": [3917, 8452], "trial_type": "math-distractor", "key_times": [3580, 3917, 7691, 8139, 8452], "responses": ["8", "15"], "num2": [1, 4, 6], "num3": [4, 6, 8], "conditions": [12, 800, "a", 12000], "internal_node_id": "0.0-159.0", "key_presses": [56, 13, 49, 53, 13], "trial": 6, "time_elapsed": 1206387, "type": "DISTRACTOR", "trial_index": 213, "num1": [3, 5, 6]}, "uniqueid": "MTK2647:3LJ7UR74RIKO0OVKT5O4JA6VXOCN4P", "dateTime": 1519173434901}, {"current_trial": 214, "trialdata": {"rt": -1, "trial_type": "single-stim", "stimulus": "<p id=\"stim\">10</p>", "internal_node_id": "0.0-160.0-0.0", "time_elapsed": 1209389, "key_press": -1, "trial_index": 214}, "uniqueid": "MTK2647:3LJ7UR74RIKO0OVKT5O4JA6VXOCN4P", "dateTime": 1519173437903}, {"current_trial": 215, "trialdata": {"rt": -1, "trial_type": "single-stim", "stimulus": "<p id=\"stim\">9</p>", "internal_node_id": "0.0-160.0-1.0", "time_elapsed": 1210390, "key_press": -1, "trial_index": 215}, "uniqueid": "MTK2647:3LJ7UR74RIKO0OVKT5O4JA6VXOCN4P", "dateTime": 1519173438904}, {"current_trial": 216, "trialdata": {"rt": -1, "trial_type": "single-stim", "stimulus": "<p id=\"stim\">8</p>", "internal_node_id": "0.0-160.0-2.0", "time_elapsed": 1211391, "key_press": -1, "trial_index": 216}, "uniqueid": "MTK2647:3LJ7UR74RIKO0OVKT5O4JA6VXOCN4P", "dateTime": 1519173439905}, {"current_trial": 217, "trialdata": {"rt": -1, "trial_type": "single-stim", "stimulus": "<p id=\"stim\">7</p>", "internal_node_id": "0.0-160.0-3.0", "time_elapsed": 1212393, "key_press": -1, "trial_index": 217}, "uniqueid": "MTK2647:3LJ7UR74RIKO0OVKT5O4JA6VXOCN4P", "dateTime": 1519173440907}, {"current_trial": 218, "trialdata": {"rt": -1, "trial_type": "single-stim", "stimulus": "<p id=\"stim\">6</p>", "internal_node_id": "0.0-160.0-4.0", "time_elapsed": 1213394, "key_press": -1, "trial_index": 218}, "uniqueid": "MTK2647:3LJ7UR74RIKO0OVKT5O4JA6VXOCN4P", "dateTime": 1519173441908}, {"current_trial": 219, "trialdata": {"rt": -1, "trial_type": "single-stim", "stimulus": "<p id=\"stim\">5</p>", "internal_node_id": "0.0-160.0-5.0", "time_elapsed": 1214395, "key_press": -1, "trial_index": 219}, "uniqueid": "MTK2647:3LJ7UR74RIKO0OVKT5O4JA6VXOCN4P", "dateTime": 1519173442909}, {"current_trial": 220, "trialdata": {"rt": -1, "trial_type": "single-stim", "stimulus": "<p id=\"stim\">4</p>", "internal_node_id": "0.0-160.0-6.0", "time_elapsed": 1215397, "key_press": -1, "trial_index": 220}, "uniqueid": "MTK2647:3LJ7UR74RIKO0OVKT5O4JA6VXOCN4P", "dateTime": 1519173443911}, {"current_trial": 221, "trialdata": {"rt": -1, "trial_type": "single-stim", "stimulus": "<p id=\"stim\">3</p>", "internal_node_id": "0.0-160.0-7.0", "time_elapsed": 1216397, "key_press": -1, "trial_index": 221}, "uniqueid": "MTK2647:3LJ7UR74RIKO0OVKT5O4JA6VXOCN4P", "dateTime": 1519173444912}, {"current_trial": 222, "trialdata": {"rt": -1, "trial_type": "single-stim", "stimulus": "<p id=\"stim\">2</p>", "internal_node_id": "0.0-160.0-8.0", "time_elapsed": 1217399, "key_press": -1, "trial_index": 222}, "uniqueid": "MTK2647:3LJ7UR74RIKO0OVKT5O4JA6VXOCN4P", "dateTime": 1519173445913}, {"current_trial": 223, "trialdata": {"rt": -1, "trial_type": "single-stim", "stimulus": "<p id=\"stim\">1</p>", "internal_node_id": "0.0-160.0-9.0", "time_elapsed": 1218401, "key_press": -1, "trial_index": 223}, "uniqueid": "MTK2647:3LJ7UR74RIKO0OVKT5O4JA6VXOCN4P", "dateTime": 1519173446915}, {"current_trial": 224, "trialdata": {"rt": -1, "trial_type": "single-stim", "stimulus": "<p id=\"stim\">+</p>", "internal_node_id": "0.0-161.0-0.0", "time_elapsed": 1219903, "key_press": -1, "type": "FIXATION", "trial_index": 224}, "uniqueid": "MTK2647:3LJ7UR74RIKO0OVKT5O4JA6VXOCN4P", "dateTime": 1519173448417}, {"current_trial": 225, "trialdata": {"rt": -1000, "trial_type": "single-audio", "word": "slope", "stimulus": "/static/audio/wordpool/SLOPE.wav", "conditions": [12, 800, "a", 12000], "internal_node_id": "0.0-162.0", "trial": 6, "time_elapsed": 1221844, "serialpos": 0, "key_press": -1, "wordID": 1327, "type": "PRES_AUD", "trial_index": 225}, "uniqueid": "MTK2647:3LJ7UR74RIKO0OVKT5O4JA6VXOCN4P", "dateTime": 1519173450358}, {"current_trial": 226, "trialdata": {"rt": -1000, "trial_type": "single-audio", "word": "mildew", "stimulus": "/static/audio/wordpool/MILDEW.wav", "conditions": [12, 800, "a", 12000], "internal_node_id": "0.0-163.0", "trial": 6, "time_elapsed": 1223467, "serialpos": 1, "key_press": -1, "wordID": 892, "type": "PRES_AUD", "trial_index": 226}, "uniqueid": "MTK2647:3LJ7UR74RIKO0OVKT5O4JA6VXOCN4P", "dateTime": 1519173451981}, {"current_trial": 227, "trialdata": {"rt": -1000, "trial_type": "single-audio", "word": "actress", "stimulus": "/static/audio/wordpool/ACTRESS.wav", "conditions": [12, 800, "a", 12000], "internal_node_id": "0.0-164.0", "trial": 6, "time_elapsed": 1225425, "serialpos": 2, "key_press": -1, "wordID": 5, "type": "PRES_AUD", "trial_index": 227}, "uniqueid": "MTK2647:3LJ7UR74RIKO0OVKT5O4JA6VXOCN4P", "dateTime": 1519173453939}, {"current_trial": 228, "trialdata": {"rt": -1000, "trial_type": "single-audio", "word": "money", "stimulus": "/static/audio/wordpool/MONEY.wav", "conditions": [12, 800, "a", 12000], "internal_node_id": "0.0-165.0", "trial": 6, "time_elapsed": 1227155, "serialpos": 3, "key_press": -1, "wordID": 907, "type": "PRES_AUD", "trial_index": 228}, "uniqueid": "MTK2647:3LJ7UR74RIKO0OVKT5O4JA6VXOCN4P", "dateTime": 1519173455669}, {"current_trial": 229, "trialdata": {"rt": -1000, "trial_type": "single-audio", "word": "compass", "stimulus": "/static/audio/wordpool/COMPASS.wav", "conditions": [12, 800, "a", 12000], "internal_node_id": "0.0-166.0", "trial": 6, "time_elapsed": 1229046, "serialpos": 4, "key_press": -1, "wordID": 357, "type": "PRES_AUD", "trial_index": 229}, "uniqueid": "MTK2647:3LJ7UR74RIKO0OVKT5O4JA6VXOCN4P", "dateTime": 1519173457561}, {"current_trial": 230, "trialdata": {"rt": -1000, "trial_type": "single-audio", "word": "crown", "stimulus": "/static/audio/wordpool/CROWN.wav", "conditions": [12, 800, "a", 12000], "internal_node_id": "0.0-167.0", "trial": 6, "time_elapsed": 1230967, "serialpos": 5, "key_press": -1, "wordID": 414, "type": "PRES_AUD", "trial_index": 230}, "uniqueid": "MTK2647:3LJ7UR74RIKO0OVKT5O4JA6VXOCN4P", "dateTime": 1519173459481}, {"current_trial": 231, "trialdata": {"rt": -1000, "trial_type": "single-audio", "word": "milk", "stimulus": "/static/audio/wordpool/MILK.wav", "conditions": [12, 800, "a", 12000], "internal_node_id": "0.0-168.0", "trial": 6, "time_elapsed": 1232959, "serialpos": 6, "key_press": -1, "wordID": 894, "type": "PRES_AUD", "trial_index": 231}, "uniqueid": "MTK2647:3LJ7UR74RIKO0OVKT5O4JA6VXOCN4P", "dateTime": 1519173461473}, {"current_trial": 232, "trialdata": {"rt": -1000, "trial_type": "single-audio", "word": "seafood", "stimulus": "/static/audio/wordpool/SEAFOOD.wav", "conditions": [12, 800, "a", 12000], "internal_node_id": "0.0-169.0", "trial": 6, "time_elapsed": 1234744, "serialpos": 7, "key_press": -1, "wordID": 1259, "type": "PRES_AUD", "trial_index": 232}, "uniqueid": "MTK2647:3LJ7UR74RIKO0OVKT5O4JA6VXOCN4P", "dateTime": 1519173463258}, {"current_trial": 233, "trialdata": {"rt": -1000, "trial_type": "single-audio", "word": "fungus", "stimulus": "/static/audio/wordpool/FUNGUS.wav", "conditions": [12, 800, "a", 12000], "internal_node_id": "0.0-170.0", "trial": 6, "time_elapsed": 1236663, "serialpos": 8, "key_press": -1, "wordID": 613, "type": "PRES_AUD", "trial_index": 233}, "uniqueid": "MTK2647:3LJ7UR74RIKO0OVKT5O4JA6VXOCN4P", "dateTime": 1519173465177}, {"current_trial": 234, "trialdata": {"rt": -1000, "trial_type": "single-audio", "word": "author", "stimulus": "/static/audio/wordpool/AUTHOR.wav", "conditions": [12, 800, "a", 12000], "internal_node_id": "0.0-171.0", "trial": 6, "time_elapsed": 1238477, "serialpos": 9, "key_press": -1, "wordID": 60, "type": "PRES_AUD", "trial_index": 234}, "uniqueid": "MTK2647:3LJ7UR74RIKO0OVKT5O4JA6VXOCN4P", "dateTime": 1519173466991}, {"current_trial": 235, "trialdata": {"rt": -1000, "trial_type": "single-audio", "word": "freckle", "stimulus": "/static/audio/wordpool/FRECKLE.wav", "conditions": [12, 800, "a", 12000], "internal_node_id": "0.0-172.0", "trial": 6, "time_elapsed": 1240407, "serialpos": 10, "key_press": -1, "wordID": 601, "type": "PRES_AUD", "trial_index": 235}, "uniqueid": "MTK2647:3LJ7UR74RIKO0OVKT5O4JA6VXOCN4P", "dateTime": 1519173468922}, {"current_trial": 236, "trialdata": {"rt": -1000, "trial_type": "single-audio", "word": "pimple", "stimulus": "/static/audio/wordpool/PIMPLE.wav", "conditions": [12, 800, "a", 12000], "internal_node_id": "0.0-173.0", "trial": 6, "time_elapsed": 1242025, "serialpos": 11, "key_press": -1, "wordID": 1070, "type": "PRES_AUD", "trial_index": 236}, "uniqueid": "MTK2647:3LJ7UR74RIKO0OVKT5O4JA6VXOCN4P", "dateTime": 1519173470539}, {"current_trial": 237, "trialdata": {"rt": -1, "trial_type": "single-stim", "stimulus": "", "internal_node_id": "0.0-174.0-0.0", "time_elapsed": 1243347, "key_press": -1, "type": "PRE_RECALL_DELAY", "trial_index": 237}, "uniqueid": "MTK2647:3LJ7UR74RIKO0OVKT5O4JA6VXOCN4P", "dateTime": 1519173471862}, {"current_trial": 238, "trialdata": {"rt": -1000, "trial_type": "single-audio", "stimulus": "/static/audio/400Hz.wav", "internal_node_id": "0.0-175.0", "time_elapsed": 1243848, "key_press": -1, "type": "PRE_RECALL_ALERT", "trial_index": 238}, "uniqueid": "MTK2647:3LJ7UR74RIKO0OVKT5O4JA6VXOCN4P", "dateTime": 1519173472362}, {"current_trial": 239, "trialdata": {"rt": [12802, 15446, 19280, 23300, 29336, 32388, 36665, 56414], "recwords": ["crown", "milk", "money", "compass", "author", "slope", "mildue", "milk"], "key_times": [10633, 11078, 11450, 11811, 12163, 12802, 13869, 14156, 14531, 14914, 15446, 17259, 17550, 17960, 18329, 18893, 19280, 20915, 21332, 21753, 22064, 22412, 22872, 23057, 23300, 26368, 27055, 27490, 28309, 28553, 28984, 29336, 30615, 30995, 31274, 31661, 32055, 32388, 33834, 34255, 34665, 35153, 35956, 36306, 36665, 54945, 55341, 55825, 56133, 56414], "trial_type": "free-recall", "conditions": [12, 800, "a", 12000], "internal_node_id": "0.0-176.0-0.0", "key_presses": [67, 82, 79, 87, 78, 13, 77, 73, 76, 75, 13, 77, 79, 78, 69, 89, 13, 67, 79, 77, 80, 65, 83, 83, 13, 65, 85, 84, 72, 79, 82, 13, 83, 76, 79, 80, 69, 13, 77, 73, 76, 68, 85, 69, 13, 77, 73, 76, 75, 13], "trial": 6, "time_elapsed": 1303850, "type": "FREE_RECALL", "trial_index": 239}, "uniqueid": "MTK2647:3LJ7UR74RIKO0OVKT5O4JA6VXOCN4P", "dateTime": 1519173532369}, {"current_trial": 240, "trialdata": {"rt": 16772, "trial_type": "text", "internal_node_id": "0.0-177.0", "time_elapsed": 1322627, "key_press": 16, "type": "INSTRUCTIONS", "trial_index": 240}, "uniqueid": "MTK2647:3LJ7UR74RIKO0OVKT5O4JA6VXOCN4P", "dateTime": 1519173551141}, {"current_trial": 241, "trialdata": {"rt": [5587, 9176], "trial_type": "math-distractor", "key_times": [4903, 5259, 5587, 8173, 8953, 9176, 11949], "responses": ["21", "10"], "num2": [5, 2, 1], "num3": [7, 1, 3], "conditions": [12, 800, "a", 12000], "internal_node_id": "0.0-178.0", "key_presses": [50, 49, 13, 49, 48, 13, 49], "trial": 7, "time_elapsed": 1336631, "type": "DISTRACTOR", "trial_index": 241, "num1": [9, 7, 9]}, "uniqueid": "MTK2647:3LJ7UR74RIKO0OVKT5O4JA6VXOCN4P", "dateTime": 1519173565145}, {"current_trial": 242, "trialdata": {"rt": -1, "trial_type": "single-stim", "stimulus": "<p id=\"stim\">10</p>", "internal_node_id": "0.0-179.0-0.0", "time_elapsed": 1339632, "key_press": -1, "trial_index": 242}, "uniqueid": "MTK2647:3LJ7UR74RIKO0OVKT5O4JA6VXOCN4P", "dateTime": 1519173568146}, {"current_trial": 243, "trialdata": {"rt": -1, "trial_type": "single-stim", "stimulus": "<p id=\"stim\">9</p>", "internal_node_id": "0.0-179.0-1.0", "time_elapsed": 1340633, "key_press": -1, "trial_index": 243}, "uniqueid": "MTK2647:3LJ7UR74RIKO0OVKT5O4JA6VXOCN4P", "dateTime": 1519173569148}, {"current_trial": 244, "trialdata": {"rt": -1, "trial_type": "single-stim", "stimulus": "<p id=\"stim\">8</p>", "internal_node_id": "0.0-179.0-2.0", "time_elapsed": 1341635, "key_press": -1, "trial_index": 244}, "uniqueid": "MTK2647:3LJ7UR74RIKO0OVKT5O4JA6VXOCN4P", "dateTime": 1519173570149}, {"current_trial": 245, "trialdata": {"rt": -1, "trial_type": "single-stim", "stimulus": "<p id=\"stim\">7</p>", "internal_node_id": "0.0-179.0-3.0", "time_elapsed": 1342636, "key_press": -1, "trial_index": 245}, "uniqueid": "MTK2647:3LJ7UR74RIKO0OVKT5O4JA6VXOCN4P", "dateTime": 1519173571150}, {"current_trial": 246, "trialdata": {"rt": -1, "trial_type": "single-stim", "stimulus": "<p id=\"stim\">6</p>", "internal_node_id": "0.0-179.0-4.0", "time_elapsed": 1343637, "key_press": -1, "trial_index": 246}, "uniqueid": "MTK2647:3LJ7UR74RIKO0OVKT5O4JA6VXOCN4P", "dateTime": 1519173572151}, {"current_trial": 247, "trialdata": {"rt": -1, "trial_type": "single-stim", "stimulus": "<p id=\"stim\">5</p>", "internal_node_id": "0.0-179.0-5.0", "time_elapsed": 1344639, "key_press": -1, "trial_index": 247}, "uniqueid": "MTK2647:3LJ7UR74RIKO0OVKT5O4JA6VXOCN4P", "dateTime": 1519173573153}, {"current_trial": 248, "trialdata": {"rt": -1, "trial_type": "single-stim", "stimulus": "<p id=\"stim\">4</p>", "internal_node_id": "0.0-179.0-6.0", "time_elapsed": 1345641, "key_press": -1, "trial_index": 248}, "uniqueid": "MTK2647:3LJ7UR74RIKO0OVKT5O4JA6VXOCN4P", "dateTime": 1519173574155}, {"current_trial": 249, "trialdata": {"rt": -1, "trial_type": "single-stim", "stimulus": "<p id=\"stim\">3</p>", "internal_node_id": "0.0-179.0-7.0", "time_elapsed": 1346650, "key_press": -1, "trial_index": 249}, "uniqueid": "MTK2647:3LJ7UR74RIKO0OVKT5O4JA6VXOCN4P", "dateTime": 1519173575164}, {"current_trial": 250, "trialdata": {"rt": -1, "trial_type": "single-stim", "stimulus": "<p id=\"stim\">2</p>", "internal_node_id": "0.0-179.0-8.0", "time_elapsed": 1347651, "key_press": -1, "trial_index": 250}, "uniqueid": "MTK2647:3LJ7UR74RIKO0OVKT5O4JA6VXOCN4P", "dateTime": 1519173576165}, {"current_trial": 251, "trialdata": {"rt": -1, "trial_type": "single-stim", "stimulus": "<p id=\"stim\">1</p>", "internal_node_id": "0.0-179.0-9.0", "time_elapsed": 1348652, "key_press": -1, "trial_index": 251}, "uniqueid": "MTK2647:3LJ7UR74RIKO0OVKT5O4JA6VXOCN4P", "dateTime": 1519173577166}, {"current_trial": 252, "trialdata": {"rt": -1, "trial_type": "single-stim", "stimulus": "<p id=\"stim\">+</p>", "internal_node_id": "0.0-180.0-0.0", "time_elapsed": 1350154, "key_press": -1, "type": "FIXATION", "trial_index": 252}, "uniqueid": "MTK2647:3LJ7UR74RIKO0OVKT5O4JA6VXOCN4P", "dateTime": 1519173578668}, {"current_trial": 253, "trialdata": {"rt": -1000, "trial_type": "single-audio", "word": "champagne", "stimulus": "/static/audio/wordpool/CHAMPAGNE.wav", "conditions": [12, 800, "a", 12000], "internal_node_id": "0.0-181.0", "trial": 7, "time_elapsed": 1351966, "serialpos": 0, "key_press": -1, "wordID": 277, "type": "PRES_AUD", "trial_index": 253}, "uniqueid": "MTK2647:3LJ7UR74RIKO0OVKT5O4JA6VXOCN4P", "dateTime": 1519173580480}, {"current_trial": 254, "trialdata": {"rt": -1000, "trial_type": "single-audio", "word": "pigeon", "stimulus": "/static/audio/wordpool/PIGEON.wav", "conditions": [12, 800, "a", 12000], "internal_node_id": "0.0-182.0", "trial": 7, "time_elapsed": 1353866, "serialpos": 1, "key_press": -1, "wordID": 1064, "type": "PRES_AUD", "trial_index": 254