{"assignmentId": "3DH6GAKTYZWYFKNNL0N5UMHB3E2ZY9", "workerId": "MTK2939", "questiondata": {"origin": "United States", "strat-rehearsal": "83", "marital": "Married/Domestic Partnership", "education": "Master's degree", "ethnicity": "Not Hispanic", "color_depth": 24, "distracted": "No", "wrote-notes": "Yes", "strat-other": "", "screen_width": 1280, "avail_screen_width": 1280, "avail_screen_height": 773, "strat-image": "80", "language": "english", "gender": "Male", "age": "36", "gender_other": "", "race": ["White"], "strat-categorize": "81", "pixel_depth": 24, "strat-spatial": "82", "strat-story": "81", "race_other": "", "screen_height": 800}, "bonus": 0, "hitId": "37SDSEDIN99KIYD3AJBHEVDDC8918B", "counterbalance": 391, "useragent": "Mozilla/5.0 (X11; Linux x86_64) AppleWebKit/537.36 (KHTML, like Gecko) Ubuntu Chromium/64.0.3282.167 Chrome/64.0.3282.167 Safari/537.36", "eventdata": [{"eventtype": "initialized", "interval": 0, "value": null, "timestamp": 1519594544701}, {"eventtype": "window_resize", "interval": 0, "value": [1278, 716], "timestamp": 1519594544701}, {"eventtype": "focus", "interval": 350000, "value": "off", "timestamp": 1519594894701}, {"eventtype": "focus", "interval": 7101, "value": "on", "timestamp": 1519594901802}, {"eventtype": "focus", "interval": 573884, "value": "off", "timestamp": 1519595475686}, {"eventtype": "focus", "interval": 3550, "value": "on", "timestamp": 1519595479236}, {"eventtype": "focus", "interval": 622978, "value": "off", "timestamp": 1519596102214}, {"eventtype": "focus", "interval": 16747, "value": "on", "timestamp": 1519596118961}, {"eventtype": "focus", "interval": 94230, "value": "off", "timestamp": 1519596213191}, {"eventtype": "focus", "interval": 29010, "value": "on", "timestamp": 1519596242201}, {"eventtype": "focus", "interval": 2803, "value": "off", "timestamp": 1519596245004}, {"eventtype": "focus", "interval": 11573, "value": "on", "timestamp": 1519596256577}, {"eventtype": "focus", "interval": 86175, "value": "off", "timestamp": 1519596342752}, {"eventtype": "focus", "interval": 51080, "value": "on", "timestamp": 1519596393832}, {"eventtype": "focus", "interval": 70599, "value": "off", "timestamp": 1519596464431}, {"eventtype": "focus", "interval": 4480, "value": "on", "timestamp": 1519596468911}, {"eventtype": "focus", "interval": 14706, "value": "off", "timestamp": 1519596483617}, {"eventtype": "focus", "interval": 32031, "value": "on", "timestamp": 1519596515648}, {"eventtype": "focus", "interval": 2596, "value": "off", "timestamp": 1519596518244}, {"eventtype": "focus", "interval": 21617, "value": "on", "timestamp": 1519596539861}, {"eventtype": "focus", "interval": 101919, "value": "off", "timestamp": 1519596641780}, {"eventtype": "focus", "interval": 66891, "value": "on", "timestamp": 1519596708671}, {"eventtype": "focus", "interval": 135578, "value": "off", "timestamp": 1519596844249}, {"eventtype": "focus", "interval": 62672, "value": "on", "timestamp": 1519596906921}, {"eventtype": "focus", "interval": 77708, "value": "off", "timestamp": 1519596984629}, {"eventtype": "focus", "interval": 8552, "value": "on", "timestamp": 1519596993181}, {"eventtype": "focus", "interval": 20905, "value": "off", "timestamp": 1519597014086}, {"eventtype": "focus", "interval": 46799, "value": "on", "timestamp": 1519597060885}, {"eventtype": "focus", "interval": 56348, "value": "off", "timestamp": 1519597117233}, {"eventtype": "focus", "interval": 39959, "value": "on", "timestamp": 1519597157192}, {"eventtype": "focus", "interval": 22781, "value": "off", "timestamp": 1519597179973}, {"eventtype": "focus", "interval": 23614, "value": "on", "timestamp": 1519597203587}, {"eventtype": "focus", "interval": 172086, "value": "off", "timestamp": 1519597375673}, {"eventtype": "focus", "interval": 12690, "value": "on", "timestamp": 1519597388363}], "data": [{"current_trial": 0, "trialdata": {"rt": 1961, "trial_type": "text", "internal_node_id": "0.0-0.0", "time_elapsed": 1967, "key_press": 32, "type": "INSTRUCTIONS", "trial_index": 0}, "uniqueid": "MTK2939:3DH6GAKTYZWYFKNNL0N5UMHB3E2ZY9", "dateTime": 1519594548112}, {"current_trial": 1, "trialdata": {"rt": 12030, "trial_type": "text", "internal_node_id": "0.0-1.0", "time_elapsed": 14000, "key_press": 40, "type": "INSTRUCTIONS", "trial_index": 1}, "uniqueid": "MTK2939:3DH6GAKTYZWYFKNNL0N5UMHB3E2ZY9", "dateTime": 1519594560145}, {"current_trial": 2, "trialdata": {"rt": [10911], "trial_type": "audio-test", "responses": ["ocean"], "internal_node_id": "0.0-2.0", "time_elapsed": 24966, "type": "AUDIO_TEST", "trial_index": 2}, "uniqueid": "MTK2939:3DH6GAKTYZWYFKNNL0N5UMHB3E2ZY9", "dateTime": 1519594571111}, {"current_trial": 3, "trialdata": {"rt": [8465], "trial_type": "audio-test", "responses": ["crystal"], "internal_node_id": "0.0-3.0", "time_elapsed": 33442, "type": "AUDIO_TEST", "trial_index": 3}, "uniqueid": "MTK2939:3DH6GAKTYZWYFKNNL0N5UMHB3E2ZY9", "dateTime": 1519594579587}, {"current_trial": 4, "trialdata": {"rt": [5799], "trial_type": "audio-test", "responses": ["spice"], "internal_node_id": "0.0-4.0", "time_elapsed": 39251, "type": "AUDIO_TEST", "trial_index": 4}, "uniqueid": "MTK2939:3DH6GAKTYZWYFKNNL0N5UMHB3E2ZY9", "dateTime": 1519594585396}, {"current_trial": 5, "trialdata": {"rt": 18644, "trial_type": "survey-text", "responses": "{\"Q0\":\"12:00\",\"Q1\":\"7:30\",\"Q2\":\"4\"}", "internal_node_id": "0.0-5.0", "time_elapsed": 58652, "type": "SLEEP_SURVEY", "trial_index": 5}, "uniqueid": "MTK2939:3DH6GAKTYZWYFKNNL0N5UMHB3E2ZY9", "dateTime": 1519594604797}, {"current_trial": 6, "trialdata": {"rt": 21662, "trial_type": "text", "internal_node_id": "0.0-6.0", "time_elapsed": 81316, "key_press": 32, "type": "INSTRUCTIONS", "trial_index": 6}, "uniqueid": "MTK2939:3DH6GAKTYZWYFKNNL0N5UMHB3E2ZY9", "dateTime": 1519594627461}, {"current_trial": 7, "trialdata": {"rt": 7575, "trial_type": "text", "internal_node_id": "0.0-7.0", "time_elapsed": 89394, "key_press": 32, "type": "INSTRUCTIONS", "trial_index": 7}, "uniqueid": "MTK2939:3DH6GAKTYZWYFKNNL0N5UMHB3E2ZY9", "dateTime": 1519594635539}, {"current_trial": 8, "trialdata": {"rt": 4749, "trial_type": "text", "internal_node_id": "0.0-8.0", "time_elapsed": 94645, "key_press": 32, "type": "INSTRUCTIONS", "trial_index": 8}, "uniqueid": "MTK2939:3DH6GAKTYZWYFKNNL0N5UMHB3E2ZY9", "dateTime": 1519594640790}, {"current_trial": 9, "trialdata": {"rt": [4808, 9010, 15926], "trial_type": "math-distractor", "key_times": [3841, 4128, 4808, 7738, 7992, 9010, 14978, 15359, 15926, 17880], "responses": ["19", "23", "17"], "num2": [8, 9, 5, 1], "num3": [6, 7, 9, 3], "conditions": [18, 1200, "v", 18000], "internal_node_id": "0.0-9.0", "key_presses": [49, 57, 13, 50, 51, 13, 49, 55, 13, 49], "trial": 0, "time_elapsed": 113662, "type": "DISTRACTOR", "trial_index": 9, "num1": [5, 7, 3, 8]}, "uniqueid": "MTK2939:3DH6GAKTYZWYFKNNL0N5UMHB3E2ZY9", "dateTime": 1519594659808}, {"current_trial": 10, "trialdata": {"rt": -1, "trial_type": "single-stim", "stimulus": "<p id=\"stim\">10</p>", "internal_node_id": "0.0-10.0-0.0", "time_elapsed": 116668, "key_press": -1, "trial_index": 10}, "uniqueid": "MTK2939:3DH6GAKTYZWYFKNNL0N5UMHB3E2ZY9", "dateTime": 1519594662813}, {"current_trial": 11, "trialdata": {"rt": -1, "trial_type": "single-stim", "stimulus": "<p id=\"stim\">9</p>", "internal_node_id": "0.0-10.0-1.0", "time_elapsed": 117671, "key_press": -1, "trial_index": 11}, "uniqueid": "MTK2939:3DH6GAKTYZWYFKNNL0N5UMHB3E2ZY9", "dateTime": 1519594663816}, {"current_trial": 12, "trialdata": {"rt": -1, "trial_type": "single-stim", "stimulus": "<p id=\"stim\">8</p>", "internal_node_id": "0.0-10.0-2.0", "time_elapsed": 118674, "key_press": -1, "trial_index": 12}, "uniqueid": "MTK2939:3DH6GAKTYZWYFKNNL0N5UMHB3E2ZY9", "dateTime": 1519594664820}, {"current_trial": 13, "trialdata": {"rt": -1, "trial_type": "single-stim", "stimulus": "<p id=\"stim\">7</p>", "internal_node_id": "0.0-10.0-3.0", "time_elapsed": 119678, "key_press": -1, "trial_index": 13}, "uniqueid": "MTK2939:3DH6GAKTYZWYFKNNL0N5UMHB3E2ZY9", "dateTime": 1519594665823}, {"current_trial": 14, "trialdata": {"rt": -1, "trial_type": "single-stim", "stimulus": "<p id=\"stim\">6</p>", "internal_node_id": "0.0-10.0-4.0", "time_elapsed": 120681, "key_press": -1, "trial_index": 14}, "uniqueid": "MTK2939:3DH6GAKTYZWYFKNNL0N5UMHB3E2ZY9", "dateTime": 1519594666826}, {"current_trial": 15, "trialdata": {"rt": -1, "trial_type": "single-stim", "stimulus": "<p id=\"stim\">5</p>", "internal_node_id": "0.0-10.0-5.0", "time_elapsed": 121683, "key_press": -1, "trial_index": 15}, "uniqueid": "MTK2939:3DH6GAKTYZWYFKNNL0N5UMHB3E2ZY9", "dateTime": 1519594667828}, {"current_trial": 16, "trialdata": {"rt": -1, "trial_type": "single-stim", "stimulus": "<p id=\"stim\">4</p>", "internal_node_id": "0.0-10.0-6.0", "time_elapsed": 122684, "key_press": -1, "trial_index": 16}, "uniqueid": "MTK2939:3DH6GAKTYZWYFKNNL0N5UMHB3E2ZY9", "dateTime": 1519594668830}, {"current_trial": 17, "trialdata": {"rt": -1, "trial_type": "single-stim", "stimulus": "<p id=\"stim\">3</p>", "internal_node_id": "0.0-10.0-7.0", "time_elapsed": 123692, "key_press": -1, "trial_index": 17}, "uniqueid": "MTK2939:3DH6GAKTYZWYFKNNL0N5UMHB3E2ZY9", "dateTime": 1519594669837}, {"current_trial": 18, "trialdata": {"rt": -1, "trial_type": "single-stim", "stimulus": "<p id=\"stim\">2</p>", "internal_node_id": "0.0-10.0-8.0", "time_elapsed": 124694, "key_press": -1, "trial_index": 18}, "uniqueid": "MTK2939:3DH6GAKTYZWYFKNNL0N5UMHB3E2ZY9", "dateTime": 1519594670840}, {"current_trial": 19, "trialdata": {"rt": -1, "trial_type": "single-stim", "stimulus": "<p id=\"stim\">1</p>", "internal_node_id": "0.0-10.0-9.0", "time_elapsed": 125696, "key_press": -1, "trial_index": 19}, "uniqueid": "MTK2939:3DH6GAKTYZWYFKNNL0N5UMHB3E2ZY9", "dateTime": 1519594671841}, {"current_trial": 20, "trialdata": {"rt": -1, "trial_type": "single-stim", "stimulus": "<p id=\"stim\">+</p>", "internal_node_id": "0.0-11.0-0.0", "time_elapsed": 127198, "key_press": -1, "type": "FIXATION", "trial_index": 20}, "uniqueid": "MTK2939:3DH6GAKTYZWYFKNNL0N5UMHB3E2ZY9", "dateTime": 1519594673343}, {"current_trial": 21, "trialdata": {"rt": -1, "trial_type": "single-stim", "word": "glove", "stimulus": "<p id=\"stim\">GLOVE</p>", "conditions": [18, 1200, "v", 18000], "internal_node_id": "0.0-12.0", "trial": 0, "time_elapsed": 128399, "serialpos": 0, "key_press": -1, "wordID": 641, "type": "PRES_VIS", "trial_index": 21}, "uniqueid": "MTK2939:3DH6GAKTYZWYFKNNL0N5UMHB3E2ZY9", "dateTime": 1519594674544}, {"current_trial": 22, "trialdata": {"rt": -1, "trial_type": "single-stim", "word": "candy", "stimulus": "<p id=\"stim\">CANDY</p>", "conditions": [18, 1200, "v", 18000], "internal_node_id": "0.0-13.0", "trial": 0, "time_elapsed": 130742, "serialpos": 1, "key_press": -1, "wordID": 229, "type": "PRES_VIS", "trial_index": 22}, "uniqueid": "MTK2939:3DH6GAKTYZWYFKNNL0N5UMHB3E2ZY9", "dateTime": 1519594676888}, {"current_trial": 23, "trialdata": {"rt": -1, "trial_type": "single-stim", "word": "velvet", "stimulus": "<p id=\"stim\">VELVET</p>", "conditions": [18, 1200, "v", 18000], "internal_node_id": "0.0-14.0", "trial": 0, "time_elapsed": 132960, "serialpos": 2, "key_press": -1, "wordID": 1554, "type": "PRES_VIS", "trial_index": 23}, "uniqueid": "MTK2939:3DH6GAKTYZWYFKNNL0N5UMHB3E2ZY9", "dateTime": 1519594679105}, {"current_trial": 24, "trialdata": {"rt": -1, "trial_type": "single-stim", "word": "ox", "stimulus": "<p id=\"stim\">OX</p>", "conditions": [18, 1200, "v", 18000], "internal_node_id": "0.0-15.0", "trial": 0, "time_elapsed": 135036, "serialpos": 3, "key_press": -1, "wordID": 993, "type": "PRES_VIS", "trial_index": 24}, "uniqueid": "MTK2939:3DH6GAKTYZWYFKNNL0N5UMHB3E2ZY9", "dateTime": 1519594681181}, {"current_trial": 25, "trialdata": {"rt": -1, "trial_type": "single-stim", "word": "denim", "stimulus": "<p id=\"stim\">DENIM</p>", "conditions": [18, 1200, "v", 18000], "internal_node_id": "0.0-16.0", "trial": 0, "time_elapsed": 137313, "serialpos": 4, "key_press": -1, "wordID": 445, "type": "PRES_VIS", "trial_index": 25}, "uniqueid": "MTK2939:3DH6GAKTYZWYFKNNL0N5UMHB3E2ZY9", "dateTime": 1519594683459}, {"current_trial": 26, "trialdata": {"rt": -1, "trial_type": "single-stim", "word": "smog", "stimulus": "<p id=\"stim\">SMOG</p>", "conditions": [18, 1200, "v", 18000], "internal_node_id": "0.0-17.0", "trial": 0, "time_elapsed": 139402, "serialpos": 5, "key_press": -1, "wordID": 1329, "type": "PRES_VIS", "trial_index": 26}, "uniqueid": "MTK2939:3DH6GAKTYZWYFKNNL0N5UMHB3E2ZY9", "dateTime": 1519594685547}, {"current_trial": 27, "trialdata": {"rt": -1, "trial_type": "single-stim", "word": "france", "stimulus": "<p id=\"stim\">FRANCE</p>", "conditions": [18, 1200, "v", 18000], "internal_node_id": "0.0-18.0", "trial": 0, "time_elapsed": 141703, "serialpos": 6, "key_press": -1, "wordID": 600, "type": "PRES_VIS", "trial_index": 27}, "uniqueid": "MTK2939:3DH6GAKTYZWYFKNNL0N5UMHB3E2ZY9", "dateTime": 1519594687849}, {"current_trial": 28, "trialdata": {"rt": -1, "trial_type": "single-stim", "word": "rattle", "stimulus": "<p id=\"stim\">RATTLE</p>", "conditions": [18, 1200, "v", 18000], "internal_node_id": "0.0-19.0", "trial": 0, "time_elapsed": 144033, "serialpos": 7, "key_press": -1, "wordID": 1169, "type": "PRES_VIS", "trial_index": 28}, "uniqueid": "MTK2939:3DH6GAKTYZWYFKNNL0N5UMHB3E2ZY9", "dateTime": 1519594690178}, {"current_trial": 29, "trialdata": {"rt": -1, "trial_type": "single-stim", "word": "gift", "stimulus": "<p id=\"stim\">GIFT</p>", "conditions": [18, 1200, "v", 18000], "internal_node_id": "0.0-20.0", "trial": 0, "time_elapsed": 146266, "serialpos": 8, "key_press": -1, "wordID": 634, "type": "PRES_VIS", "trial_index": 29}, "uniqueid": "MTK2939:3DH6GAKTYZWYFKNNL0N5UMHB3E2ZY9", "dateTime": 1519594692411}, {"current_trial": 30, "trialdata": {"rt": -1, "trial_type": "single-stim", "word": "scalpel", "stimulus": "<p id=\"stim\">SCALPEL</p>", "conditions": [18, 1200, "v", 18000], "internal_node_id": "0.0-21.0", "trial": 0, "time_elapsed": 148442, "serialpos": 9, "key_press": -1, "wordID": 1242, "type": "PRES_VIS", "trial_index": 30}, "uniqueid": "MTK2939:3DH6GAKTYZWYFKNNL0N5UMHB3E2ZY9", "dateTime": 1519594694587}, {"current_trial": 31, "trialdata": {"rt": -1, "trial_type": "single-stim", "word": "snail", "stimulus": "<p id=\"stim\">SNAIL</p>", "conditions": [18, 1200, "v", 18000], "internal_node_id": "0.0-22.0", "trial": 0, "time_elapsed": 150525, "serialpos": 10, "key_press": -1, "wordID": 1331, "type": "PRES_VIS", "trial_index": 31}, "uniqueid": "MTK2939:3DH6GAKTYZWYFKNNL0N5UMHB3E2ZY9", "dateTime": 1519594696670}, {"current_trial": 32, "trialdata": {"rt": -1, "trial_type": "single-stim", "word": "swamp", "stimulus": "<p id=\"stim\">SWAMP</p>", "conditions": [18, 1200, "v", 18000], "internal_node_id": "0.0-23.0", "trial": 0, "time_elapsed": 152844, "serialpos": 11, "key_press": -1, "wordID": 1415, "type": "PRES_VIS", "trial_index": 32}, "uniqueid": "MTK2939:3DH6GAKTYZWYFKNNL0N5UMHB3E2ZY9", "dateTime": 1519594698989}, {"current_trial": 33, "trialdata": {"rt": -1, "trial_type": "single-stim", "word": "tunnel", "stimulus": "<p id=\"stim\">TUNNEL</p>", "conditions": [18, 1200, "v", 18000], "internal_node_id": "0.0-24.0", "trial": 0, "time_elapsed": 155235, "serialpos": 12, "key_press": -1, "wordID": 1518, "type": "PRES_VIS", "trial_index": 33}, "uniqueid": "MTK2939:3DH6GAKTYZWYFKNNL0N5UMHB3E2ZY9", "dateTime": 1519594701381}, {"current_trial": 34, "trialdata": {"rt": -1, "trial_type": "single-stim", "word": "glass", "stimulus": "<p id=\"stim\">GLASS</p>", "conditions": [18, 1200, "v", 18000], "internal_node_id": "0.0-25.0", "trial": 0, "time_elapsed": 157544, "serialpos": 13, "key_press": -1, "wordID": 638, "type": "PRES_VIS", "trial_index": 34}, "uniqueid": "MTK2939:3DH6GAKTYZWYFKNNL0N5UMHB3E2ZY9", "dateTime": 1519594703689}, {"current_trial": 35, "trialdata": {"rt": -1, "trial_type": "single-stim", "word": "report", "stimulus": "<p id=\"stim\">REPORT</p>", "conditions": [18, 1200, "v", 18000], "internal_node_id": "0.0-26.0", "trial": 0, "time_elapsed": 159651, "serialpos": 14, "key_press": -1, "wordID": 1183, "type": "PRES_VIS", "trial_index": 35}, "uniqueid": "MTK2939:3DH6GAKTYZWYFKNNL0N5UMHB3E2ZY9", "dateTime": 1519594705797}, {"current_trial": 36, "trialdata": {"rt": -1, "trial_type": "single-stim", "word": "peanut", "stimulus": "<p id=\"stim\">PEANUT</p>", "conditions": [18, 1200, "v", 18000], "internal_node_id": "0.0-27.0", "trial": 0, "time_elapsed": 162056, "serialpos": 15, "key_press": -1, "wordID": 1031, "type": "PRES_VIS", "trial_index": 36}, "uniqueid": "MTK2939:3DH6GAKTYZWYFKNNL0N5UMHB3E2ZY9", "dateTime": 1519594708201}, {"current_trial": 37, "trialdata": {"rt": -1, "trial_type": "single-stim", "word": "donor", "stimulus": "<p id=\"stim\">DONOR</p>", "conditions": [18, 1200, "v", 18000], "internal_node_id": "0.0-28.0", "trial": 0, "time_elapsed": 164363, "serialpos": 16, "key_press": -1, "wordID": 484, "type": "PRES_VIS", "trial_index": 37}, "uniqueid": "MTK2939:3DH6GAKTYZWYFKNNL0N5UMHB3E2ZY9", "dateTime": 1519594710508}, {"current_trial": 38, "trialdata": {"rt": -1, "trial_type": "single-stim", "word": "stove", "stimulus": "<p id=\"stim\">STOVE</p>", "conditions": [18, 1200, "v", 18000], "internal_node_id": "0.0-29.0", "trial": 0, "time_elapsed": 166650, "serialpos": 17, "key_press": -1, "wordID": 1387, "type": "PRES_VIS", "trial_index": 38}, "uniqueid": "MTK2939:3DH6GAKTYZWYFKNNL0N5UMHB3E2ZY9", "dateTime": 1519594712795}, {"current_trial": 39, "trialdata": {"rt": -1, "trial_type": "single-stim", "stimulus": "", "internal_node_id": "0.0-30.0-0.0", "time_elapsed": 169046, "key_press": -1, "type": "PRE_RECALL_DELAY", "trial_index": 39}, "uniqueid": "MTK2939:3DH6GAKTYZWYFKNNL0N5UMHB3E2ZY9", "dateTime": 1519594715191}, {"current_trial": 40, "trialdata": {"rt": -1000, "trial_type": "single-audio", "stimulus": "/static/audio/400Hz.wav", "internal_node_id": "0.0-31.0", "time_elapsed": 169550, "key_press": -1, "type": "PRE_RECALL_ALERT", "trial_index": 40}, "uniqueid": "MTK2939:3DH6GAKTYZWYFKNNL0N5UMHB3E2ZY9", "dateTime": 1519594715695}, {"current_trial": 41, "trialdata": {"rt": [2182, 4157, 6630, 7748, 11610, 13993, 16714, 31518, 35345], "recwords": ["glove", "candy", "velvet", "ox", "scalpel", "gift", "hand", "ox", "denim"], "key_times": [1166, 1379, 1569, 1705, 1904, 2182, 2937, 3129, 3292, 3423, 3836, 4157, 4774, 4989, 5477, 6054, 6254, 6435, 6630, 7186, 7541, 7748, 9449, 9633, 9836, 9843, 9992, 10264, 10875, 11434, 11610, 13307, 13480, 13629, 13855, 13993, 14718, 15262, 15865, 16019, 16170, 16359, 16714, 31056, 31349, 31518, 33966, 34157, 34534, 34968, 35135, 35345], "trial_type": "free-recall", "conditions": [18, 1200, "v", 18000], "internal_node_id": "0.0-32.0-0.0", "key_presses": [71, 76, 79, 86, 69, 13, 67, 65, 78, 68, 89, 13, 86, 69, 76, 86, 69, 84, 13, 79, 88, 13, 83, 67, 16, 65, 76, 80, 69, 76, 13, 71, 73, 70, 84, 13, 65, 8, 72, 65, 78, 68, 13, 79, 88, 13, 68, 69, 78, 73, 77, 13], "trial": 0, "time_elapsed": 229556, "type": "FREE_RECALL", "trial_index": 41}, "uniqueid": "MTK2939:3DH6GAKTYZWYFKNNL0N5UMHB3E2ZY9", "dateTime": 1519594775704}, {"current_trial": 42, "trialdata": {"rt": 2405, "trial_type": "text", "internal_node_id": "0.0-33.0", "time_elapsed": 233966, "key_press": 13, "type": "INSTRUCTIONS", "trial_index": 42}, "uniqueid": "MTK2939:3DH6GAKTYZWYFKNNL0N5UMHB3E2ZY9", "dateTime": 1519594780111}, {"current_trial": 43, "trialdata": {"rt": [4094, 6596, 9633, 11877, 13892, 17143], "trial_type": "math-distractor", "key_times": [3659, 3865, 4094, 5903, 6288, 6596, 8991, 9303, 9633, 11256, 11709, 11877, 13627, 13892, 16607, 16863, 17143], "responses": ["23", "18", "17", "16", "9", "20"], "num2": [8, 6, 4, 5, 1, 4, 4], "num3": [7, 4, 6, 4, 1, 9, 6], "conditions": [18, 1200, "v", 18000], "internal_node_id": "0.0-34.0", "key_presses": [50, 51, 13, 49, 56, 13, 49, 55, 13, 49, 54, 13, 57, 13, 50, 48, 13], "trial": 1, "time_elapsed": 253969, "type": "DISTRACTOR", "trial_index": 43, "num1": [8, 8, 7, 7, 7, 7, 9]}, "uniqueid": "MTK2939:3DH6GAKTYZWYFKNNL0N5UMHB3E2ZY9", "dateTime": 1519594800115}, {"current_trial": 44, "trialdata": {"rt": -1, "trial_type": "single-stim", "stimulus": "<p id=\"stim\">10</p>", "internal_node_id": "0.0-35.0-0.0", "time_elapsed": 256971, "key_press": -1, "trial_index": 44}, "uniqueid": "MTK2939:3DH6GAKTYZWYFKNNL0N5UMHB3E2ZY9", "dateTime": 1519594803117}, {"current_trial": 45, "trialdata": {"rt": -1, "trial_type": "single-stim", "stimulus": "<p id=\"stim\">9</p>", "internal_node_id": "0.0-35.0-1.0", "time_elapsed": 257974, "key_press": -1, "trial_index": 45}, "uniqueid": "MTK2939:3DH6GAKTYZWYFKNNL0N5UMHB3E2ZY9", "dateTime": 1519594804119}, {"current_trial": 46, "trialdata": {"rt": -1, "trial_type": "single-stim", "stimulus": "<p id=\"stim\">8</p>", "internal_node_id": "0.0-35.0-2.0", "time_elapsed": 258976, "key_press": -1, "trial_index": 46}, "uniqueid": "MTK2939:3DH6GAKTYZWYFKNNL0N5UMHB3E2ZY9", "dateTime": 1519594805121}, {"current_trial": 47, "trialdata": {"rt": -1, "trial_type": "single-stim", "stimulus": "<p id=\"stim\">7</p>", "internal_node_id": "0.0-35.0-3.0", "time_elapsed": 259979, "key_press": -1, "trial_index": 47}, "uniqueid": "MTK2939:3DH6GAKTYZWYFKNNL0N5UMHB3E2ZY9", "dateTime": 1519594806124}, {"current_trial": 48, "trialdata": {"rt": -1, "trial_type": "single-stim", "stimulus": "<p id=\"stim\">6</p>", "internal_node_id": "0.0-35.0-4.0", "time_elapsed": 260980, "key_press": -1, "trial_index": 48}, "uniqueid": "MTK2939:3DH6GAKTYZWYFKNNL0N5UMHB3E2ZY9", "dateTime": 1519594807125}, {"current_trial": 49, "trialdata": {"rt": -1, "trial_type": "single-stim", "stimulus": "<p id=\"stim\">5</p>", "internal_node_id": "0.0-35.0-5.0", "time_elapsed": 261982, "key_press": -1, "trial_index": 49}, "uniqueid": "MTK2939:3DH6GAKTYZWYFKNNL0N5UMHB3E2ZY9", "dateTime": 1519594808128}, {"current_trial": 50, "trialdata": {"rt": -1, "trial_type": "single-stim", "stimulus": "<p id=\"stim\">4</p>", "internal_node_id": "0.0-35.0-6.0", "time_elapsed": 262984, "key_press": -1, "trial_index": 50}, "uniqueid": "MTK2939:3DH6GAKTYZWYFKNNL0N5UMHB3E2ZY9", "dateTime": 1519594809130}, {"current_trial": 51, "trialdata": {"rt": -1, "trial_type": "single-stim", "stimulus": "<p id=\"stim\">3</p>", "internal_node_id": "0.0-35.0-7.0", "time_elapsed": 263986, "key_press": -1, "trial_index": 51}, "uniqueid": "MTK2939:3DH6GAKTYZWYFKNNL0N5UMHB3E2ZY9", "dateTime": 1519594810132}, {"current_trial": 52, "trialdata": {"rt": -1, "trial_type": "single-stim", "stimulus": "<p id=\"stim\">2</p>", "internal_node_id": "0.0-35.0-8.0", "time_elapsed": 264989, "key_press": -1, "trial_index": 52}, "uniqueid": "MTK2939:3DH6GAKTYZWYFKNNL0N5UMHB3E2ZY9", "dateTime": 1519594811134}, {"current_trial": 53, "trialdata": {"rt": -1, "trial_type": "single-stim", "stimulus": "<p id=\"stim\">1</p>", "internal_node_id": "0.0-35.0-9.0", "time_elapsed": 265991, "key_press": -1, "trial_index": 53}, "uniqueid": "MTK2939:3DH6GAKTYZWYFKNNL0N5UMHB3E2ZY9", "dateTime": 1519594812136}, {"current_trial": 54, "trialdata": {"rt": -1, "trial_type": "single-stim", "stimulus": "<p id=\"stim\">+</p>", "internal_node_id": "0.0-36.0-0.0", "time_elapsed": 267492, "key_press": -1, "type": "FIXATION", "trial_index": 54}, "uniqueid": "MTK2939:3DH6GAKTYZWYFKNNL0N5UMHB3E2ZY9", "dateTime": 1519594813638}, {"current_trial": 55, "trialdata": {"rt": -1, "trial_type": "single-stim", "word": "county", "stimulus": "<p id=\"stim\">COUNTY</p>", "conditions": [18, 1200, "v", 18000], "internal_node_id": "0.0-37.0", "trial": 1, "time_elapsed": 268695, "serialpos": 0, "key_press": -1, "wordID": 388, "type": "PRES_VIS", "trial_index": 55}, "uniqueid": "MTK2939:3DH6GAKTYZWYFKNNL0N5UMHB3E2ZY9", "dateTime": 1519594814840}, {"current_trial": 56, "trialdata": {"rt": -1, "trial_type": "single-stim", "word": "apple", "stimulus": "<p id=\"stim\">APPLE</p>", "conditions": [18, 1200, "v", 18000], "internal_node_id": "0.0-38.0", "trial": 1, "time_elapsed": 271006, "serialpos": 1, "key_press": -1, "wordID": 32, "type": "PRES_VIS", "trial_index": 56}, "uniqueid": "MTK2939:3DH6GAKTYZWYFKNNL0N5UMHB3E2ZY9", "dateTime": 1519594817151}, {"current_trial": 57, "trialdata": {"rt": -1, "trial_type": "single-stim", "word": "dime", "stimulus": "<p id=\"stim\">DIME</p>", "conditions": [18, 1200, "v", 18000], "internal_node_id": "0.0-39.0", "trial": 1, "time_elapsed": 273110, "serialpos": 2, "key_press": -1, "wordID": 465, "type": "PRES_VIS", "trial_index": 57}, "uniqueid": "MTK2939:3DH6GAKTYZWYFKNNL0N5UMHB3E2ZY9", "dateTime": 1519594819256}, {"current_trial": 58, "trialdata": {"rt": -1, "trial_type": "single-stim", "word": "sausage", "stimulus": "<p id=\"stim\">SAUSAGE</p>", "conditions": [18, 1200, "v", 18000], "internal_node_id": "0.0-40.0", "trial": 1, "time_elapsed": 275159, "serialpos": 3, "key_press": -1, "wordID": 1237, "type": "PRES_VIS", "trial_index": 58}, "uniqueid": "MTK2939:3DH6GAKTYZWYFKNNL0N5UMHB3E2ZY9", "dateTime": 1519594821305}, {"current_trial": 59, "trialdata": {"rt": -1, "trial_type": "single-stim", "word": "blender", "stimulus": "<p id=\"stim\">BLENDER</p>", "conditions": [18, 1200, "v", 18000], "internal_node_id": "0.0-41.0", "trial": 1, "time_elapsed": 277478, "serialpos": 4, "key_press": -1, "wordID": 135, "type": "PRES_VIS", "trial_index": 59}, "uniqueid": "MTK2939:3DH6GAKTYZWYFKNNL0N5UMHB3E2ZY9", "dateTime": 1519594823623}, {"current_trial": 60, "trialdata": {"rt": -1, "trial_type": "single-stim", "word": "spoon", "stimulus": "<p id=\"stim\">SPOON</p>", "conditions": [18, 1200, "v", 18000], "internal_node_id": "0.0-42.0", "trial": 1, "time_elapsed": 279816, "serialpos": 5, "key_press": -1, "wordID": 1356, "type": "PRES_VIS", "trial_index": 60}, "uniqueid": "MTK2939:3DH6GAKTYZWYFKNNL0N5UMHB3E2ZY9", "dateTime": 1519594825961}, {"current_trial": 61, "trialdata": {"rt": -1, "trial_type": "single-stim", "word": "headband", "stimulus": "<p id=\"stim\">HEADBAND</p>", "conditions": [18, 1200, "v", 18000], "internal_node_id": "0.0-43.0", "trial": 1, "time_elapsed": 282137, "serialpos": 6, "key_press": -1, "wordID": 695, "type": "PRES_VIS", "trial_index": 61}, "uniqueid": "MTK2939:3DH6GAKTYZWYFKNNL0N5UMHB3E2ZY9", "dateTime": 1519594828282}, {"current_trial": 62, "trialdata": {"rt": -1, "trial_type": "single-stim", "word": "bunny", "stimulus": "<p id=\"stim\">BUNNY</p>", "conditions": [18, 1200, "v", 18000], "internal_node_id": "0.0-44.0", "trial": 1, "time_elapsed": 284400, "serialpos": 7, "key_press": -1, "wordID": 197, "type": "PRES_VIS", "trial_index": 62}, "uniqueid": "MTK2939:3DH6GAKTYZWYFKNNL0N5UMHB3E2ZY9", "dateTime": 1519594830546}, {"current_trial": 63, "trialdata": {"rt": -1, "trial_type": "single-stim", "word": "perfume", "stimulus": "<p id=\"stim\">PERFUME</p>", "conditions": [18, 1200, "v", 18000], "internal_node_id": "0.0-45.0", "trial": 1, "time_elapsed": 286543, "serialpos": 8, "key_press": -1, "wordID": 1048, "type": "PRES_VIS", "trial_index": 63}, "uniqueid": "MTK2939:3DH6GAKTYZWYFKNNL0N5UMHB3E2ZY9", "dateTime": 1519594832689}, {"current_trial": 64, "trialdata": {"rt": -1, "trial_type": "single-stim", "word": "lava", "stimulus": "<p id=\"stim\">LAVA</p>", "conditions": [18, 1200, "v", 18000], "internal_node_id": "0.0-46.0", "trial": 1, "time_elapsed": 288755, "serialpos": 9, "key_press": -1, "wordID": 803, "type": "PRES_VIS", "trial_index": 64}, "uniqueid": "MTK2939:3DH6GAKTYZWYFKNNL0N5UMHB3E2ZY9", "dateTime": 1519594834900}, {"current_trial": 65, "trialdata": {"rt": -1, "trial_type": "single-stim", "word": "critic", "stimulus": "<p id=\"stim\">CRITIC</p>", "conditions": [18, 1200, "v", 18000], "internal_node_id": "0.0-47.0", "trial": 1, "time_elapsed": 290978, "serialpos": 10, "key_press": -1, "wordID": 409, "type": "PRES_VIS", "trial_index": 65}, "uniqueid": "MTK2939:3DH6GAKTYZWYFKNNL0N5UMHB3E2ZY9", "dateTime": 1519594837124}, {"current_trial": 66, "trialdata": {"rt": -1, "trial_type": "single-stim", "word": "fireman", "stimulus": "<p id=\"stim\">FIREMAN</p>", "conditions": [18, 1200, "v", 18000], "internal_node_id": "0.0-48.0", "trial": 1, "time_elapsed": 293186, "serialpos": 11, "key_press": -1, "wordID": 568, "type": "PRES_VIS", "trial_index": 66}, "uniqueid": "MTK2939:3DH6GAKTYZWYFKNNL0N5UMHB3E2ZY9", "dateTime": 1519594839331}, {"current_trial": 67, "trialdata": {"rt": -1, "trial_type": "single-stim", "word": "record", "stimulus": "<p id=\"stim\">RECORD</p>", "conditions": [18, 1200, "v", 18000], "internal_node_id": "0.0-49.0", "trial": 1, "time_elapsed": 295398, "serialpos": 12, "key_press": -1, "wordID": 1175, "type": "PRES_VIS", "trial_index": 67}, "uniqueid": "MTK2939:3DH6GAKTYZWYFKNNL0N5UMHB3E2ZY9", "dateTime": 1519594841543}, {"current_trial": 68, "trialdata": {"rt": -1, "trial_type": "single-stim", "word": "forest", "stimulus": "<p id=\"stim\">FOREST</p>", "conditions": [18, 1200, "v", 18000], "internal_node_id": "0.0-50.0", "trial": 1, "time_elapsed": 297527, "serialpos": 13, "key_press": -1, "wordID": 592, "type": "PRES_VIS", "trial_index": 68}, "uniqueid": "MTK2939:3DH6GAKTYZWYFKNNL0N5UMHB3E2ZY9", "dateTime": 1519594843677}, {"current_trial": 69, "trialdata": {"rt": -1, "trial_type": "single-stim", "word": "rifle", "stimulus": "<p id=\"stim\">RIFLE</p>", "conditions": [18, 1200, "v", 18000], "internal_node_id": "0.0-51.0", "trial": 1, "time_elapsed": 299599, "serialpos": 14, "key_press": -1, "wordID": 1191, "type": "PRES_VIS", "trial_index": 69}, "uniqueid": "MTK2939:3DH6GAKTYZWYFKNNL0N5UMHB3E2ZY9", "dateTime": 1519594845744}, {"current_trial": 70, "trialdata": {"rt": -1, "trial_type": "single-stim", "word": "oyster", "stimulus": "<p id=\"stim\">OYSTER</p>", "conditions": [18, 1200, "v", 18000], "internal_node_id": "0.0-52.0", "trial": 1, "time_elapsed": 301677, "serialpos": 15, "key_press": -1, "wordID": 994, "type": "PRES_VIS", "trial_index": 70}, "uniqueid": "MTK2939:3DH6GAKTYZWYFKNNL0N5UMHB3E2ZY9", "dateTime": 1519594847822}, {"current_trial": 71, "trialdata": {"rt": -1, "trial_type": "single-stim", "word": "marker", "stimulus": "<p id=\"stim\">MARKER</p>", "conditions": [18, 1200, "v", 18000], "internal_node_id": "0.0-53.0", "trial": 1, "time_elapsed": 303988, "serialpos": 16, "key_press": -1, "wordID": 869, "type": "PRES_VIS", "trial_index": 71}, "uniqueid": "MTK2939:3DH6GAKTYZWYFKNNL0N5UMHB3E2ZY9", "dateTime": 1519594850133}, {"current_trial": 72, "trialdata": {"rt": -1, "trial_type": "single-stim", "word": "blockade", "stimulus": "<p id=\"stim\">BLOCKADE</p>", "conditions": [18, 1200, "v", 18000], "internal_node_id": "0.0-54.0", "trial": 1, "time_elapsed": 306014, "serialpos": 17, "key_press": -1, "wordID": 136, "type": "PRES_VIS", "trial_index": 72}, "uniqueid": "MTK2939:3DH6GAKTYZWYFKNNL0N5UMHB3E2ZY9", "dateTime": 1519594852160}, {"current_trial": 73, "trialdata": {"rt": -1, "trial_type": "single-stim", "stimulus": "", "internal_node_id": "0.0-55.0-0.0", "time_elapsed": 308431, "key_press": -1, "type": "PRE_RECALL_DELAY", "trial_index": 73}, "uniqueid": "MTK2939:3DH6GAKTYZWYFKNNL0N5UMHB3E2ZY9", "dateTime": 1519594854576}, {"current_trial": 74, "trialdata": {"rt": -1000, "trial_type": "single-audio", "stimulus": "/static/audio/400Hz.wav", "internal_node_id": "0.0-56.0", "time_elapsed": 308934, "key_press": -1, "type": "PRE_RECALL_ALERT", "trial_index": 74}, "uniqueid": "MTK2939:3DH6GAKTYZWYFKNNL0N5UMHB3E2ZY9", "dateTime": 1519594855080}, {"current_trial": 75, "trialdata": {"rt": [2236, 4146, 5924, 8020, 9629, 11711, 18815], "recwords": ["county", "apple", "dime", "sausage", "rifle", "oyster", "sausage"], "key_times": [1122, 1310, 1469, 1715, 1856, 2062, 2236, 3023, 3260, 3445, 3638, 3867, 4146, 5308, 5443, 5599, 5754, 5924, 6395, 6587, 6866, 7218, 7427, 7668, 7843, 8020, 8569, 8779, 8986, 9266, 9406, 9629, 10285, 10564, 10997, 11245, 11410, 11524, 11711, 17215, 17412, 17706, 17991, 18222, 18511, 18712, 18815], "trial_type": "free-recall", "conditions": [18, 1200, "v", 18000], "internal_node_id": "0.0-57.0-0.0", "key_presses": [67, 79, 85, 78, 84, 89, 13, 65, 80, 80, 76, 69, 13, 68, 73, 77, 69, 13, 83, 65, 85, 83, 65, 71, 69, 13, 82, 73, 70, 76, 69, 13, 79, 89, 83, 84, 69, 82, 13, 83, 65, 85, 83, 65, 71, 69, 13], "trial": 1, "time_elapsed": 368939, "type": "FREE_RECALL", "trial_index": 75}, "uniqueid": "MTK2939:3DH6GAKTYZWYFKNNL0N5UMHB3E2ZY9", "dateTime": 1519594915087}, {"current_trial": 76, "trialdata": {"rt": 1784, "trial_type": "text", "internal_node_id": "0.0-58.0", "time_elapsed": 372729, "key_press": 32, "type": "INSTRUCTIONS", "trial_index": 76}, "uniqueid": "MTK2939:3DH6GAKTYZWYFKNNL0N5UMHB3E2ZY9", "dateTime": 1519594918875}, {"current_trial": 77, "trialdata": {"rt": [2621, 5469, 7208, 9299, 11783], "trial_type": "math-distractor", "key_times": [2039, 2461, 2621, 5353, 5469, 6749, 7063, 7208, 8858, 9177, 9299, 11650, 11783], "responses": ["16", "9", "14", "14", "7"], "num2": [6, 3, 7, 1, 4, 5], "num3": [1, 5, 1, 8, 1, 4], "conditions": [24, 800, "v", 12000], "internal_node_id": "0.0-59.0", "key_presses": [49, 54, 13, 57, 13, 49, 52, 13, 49, 52, 13, 55, 13], "trial": 2, "time_elapsed": 385735, "type": "DISTRACTOR", "trial_index": 77, "num1": [9, 1, 6, 5, 2, 2]}, "uniqueid": "MTK2939:3DH6GAKTYZWYFKNNL0N5UMHB3E2ZY9", "dateTime": 1519594931880}, {"current_trial": 78, "trialdata": {"rt": -1, "trial_type": "single-stim", "stimulus": "<p id=\"stim\">10</p>", "internal_node_id": "0.0-60.0-0.0", "time_elapsed": 388738, "key_press": -1, "trial_index": 78}, "uniqueid": "MTK2939:3DH6GAKTYZWYFKNNL0N5UMHB3E2ZY9", "dateTime": 1519594934883}, {"current_trial": 79, "trialdata": {"rt": -1, "trial_type": "single-stim", "stimulus": "<p id=\"stim\">9</p>", "internal_node_id": "0.0-60.0-1.0", "time_elapsed": 389741, "key_press": -1, "trial_index": 79}, "uniqueid": "MTK2939:3DH6GAKTYZWYFKNNL0N5UMHB3E2ZY9", "dateTime": 1519594935887}, {"current_trial": 80, "trialdata": {"rt": -1, "trial_type": "single-stim", "stimulus": "<p id=\"stim\">8</p>", "internal_node_id": "0.0-60.0-2.0", "time_elapsed": 390743, "key_press": -1, "trial_index": 80}, "uniqueid": "MTK2939:3DH6GAKTYZWYFKNNL0N5UMHB3E2ZY9", "dateTime": 1519594936888}, {"current_trial": 81, "trialdata": {"rt": -1, "trial_type": "single-stim", "stimulus": "<p id=\"stim\">7</p>", "internal_node_id": "0.0-60.0-3.0", "time_elapsed": 391746, "key_press": -1, "trial_index": 81}, "uniqueid": "MTK2939:3DH6GAKTYZWYFKNNL0N5UMHB3E2ZY9", "dateTime": 1519594937891}, {"current_trial": 82, "trialdata": {"rt": -1, "trial_type": "single-stim", "stimulus": "<p id=\"stim\">6</p>", "internal_node_id": "0.0-60.0-4.0", "time_elapsed": 392748, "key_press": -1, "trial_index": 82}, "uniqueid": "MTK2939:3DH6GAKTYZWYFKNNL0N5UMHB3E2ZY9", "dateTime": 1519594938893}, {"current_trial": 83, "trialdata": {"rt": -1, "trial_type": "single-stim", "stimulus": "<p id=\"stim\">5</p>", "internal_node_id": "0.0-60.0-5.0", "time_elapsed": 393751, "key_press": -1, "trial_index": 83}, "uniqueid": "MTK2939:3DH6GAKTYZWYFKNNL0N5UMHB3E2ZY9", "dateTime": 1519594939896}, {"current_trial": 84, "trialdata": {"rt": -1, "trial_type": "single-stim", "stimulus": "<p id=\"stim\">4</p>", "internal_node_id": "0.0-60.0-6.0", "time_elapsed": 394753, "key_press": -1, "trial_index": 84}, "uniqueid": "MTK2939:3DH6GAKTYZWYFKNNL0N5UMHB3E2ZY9", "dateTime": 1519594940899}, {"current_trial": 85, "trialdata": {"rt": -1, "trial_type": "single-stim", "stimulus": "<p id=\"stim\">3</p>", "internal_node_id": "0.0-60.0-7.0", "time_elapsed": 395756, "key_press": -1, "trial_index": 85}, "uniqueid": "MTK2939:3DH6GAKTYZWYFKNNL0N5UMHB3E2ZY9", "dateTime": 1519594941901}, {"current_trial": 86, "trialdata": {"rt": -1, "trial_type": "single-stim", "stimulus": "<p id=\"stim\">2</p>", "internal_node_id": "0.0-60.0-8.0", "time_elapsed": 396758, "key_press": -1, "trial_index": 86}, "uniqueid": "MTK2939:3DH6GAKTYZWYFKNNL0N5UMHB3E2ZY9", "dateTime": 1519594942903}, {"current_trial": 87, "trialdata": {"rt": -1, "trial_type": "single-stim", "stimulus": "<p id=\"stim\">1</p>", "internal_node_id": "0.0-60.0-9.0", "time_elapsed": 397762, "key_press": -1, "trial_index": 87}, "uniqueid": "MTK2939:3DH6GAKTYZWYFKNNL0N5UMHB3E2ZY9", "dateTime": 1519594943907}, {"current_trial": 88, "trialdata": {"rt": -1, "trial_type": "single-stim", "stimulus": "<p id=\"stim\">+</p>", "internal_node_id": "0.0-61.0-0.0", "time_elapsed": 399264, "key_press": -1, "type": "FIXATION", "trial_index": 88}, "uniqueid": "MTK2939:3DH6GAKTYZWYFKNNL0N5UMHB3E2ZY9", "dateTime": 1519594945409}, {"current_trial": 89, "trialdata": {"rt": -1, "trial_type": "single-stim", "word": "chest", "stimulus": "<p id=\"stim\">CHEST</p>", "conditions": [24, 800, "v", 12000], "internal_node_id": "0.0-62.0", "trial": 2, "time_elapsed": 400068, "serialpos": 0, "key_press": -1, "wordID": 294, "type": "PRES_VIS", "trial_index": 89}, "uniqueid": "MTK2939:3DH6GAKTYZWYFKNNL0N5UMHB3E2ZY9", "dateTime": 1519594946213}, {"current_trial": 90, "trialdata": {"rt": -1, "trial_type": "single-stim", "word": "marrow", "stimulus": "<p id=\"stim\">MARROW</p>", "conditions": [24, 800, "v", 12000], "internal_node_id": "0.0-63.0", "trial": 2, "time_elapsed": 402043, "serialpos": 1, "key_press": -1, "wordID": 871, "type": "PRES_VIS", "trial_index": 90}, "uniqueid": "MTK2939:3DH6GAKTYZWYFKNNL0N5UMHB3E2ZY9", "dateTime": 1519594948188}, {"current_trial": 91, "trialdata": {"rt": -1, "trial_type": "single-stim", "word": "female", "stimulus": "<p id=\"stim\">FEMALE</p>", "conditions": [24, 800, "v", 12000], "internal_node_id": "0.0-64.0", "trial": 2, "time_elapsed": 403648, "serialpos": 2, "key_press": -1, "wordID": 558, "type": "PRES_VIS", "trial_index": 91}, "uniqueid": "MTK2939:3DH6GAKTYZWYFKNNL0N5UMHB3E2ZY9", "dateTime": 1519594949794}, {"current_trial": 92, "trialdata": {"rt": -1, "trial_type": "single-stim", "word": "omelet", "stimulus": "<p id=\"stim\">OMELET</p>", "conditions": [24, 800, "v", 12000], "internal_node_id": "0.0-65.0", "trial": 2, "time_elapsed": 405602, "serialpos": 3, "key_press": -1, "wordID": 975, "type": "PRES_VIS", "trial_index": 92}, "uniqueid": "MTK2939:3DH6GAKTYZWYFKNNL0N5UMHB3E2ZY9", "dateTime": 1519594951747}, {"current_trial": 93, "trialdata": {"rt": -1, "trial_type": "single-stim", "word": "lumber", "stimulus": "<p id=\"stim\">LUMBER</p>", "conditions": [24, 800, "v", 12000], "internal_node_id": "0.0-66.0", "trial": 2, "time_elapsed": 407352, "serialpos": 4, "key_press": -1, "wordID": 847, "type": "PRES_VIS", "trial_index": 93}, "uniqueid": "MTK2939:3DH6GAKTYZWYFKNNL0N5UMHB3E2ZY9", "dateTime": 1519594953497}, {"current_trial": 94, "trialdata": {"rt": -1, "trial_type": "single-stim", "word": "uncle", "stimulus": "<p id=\"stim\">UNCLE</p>", "conditions": [24, 800, "v", 12000], "internal_node_id": "0.0-67.0", "trial": 2, "time_elapsed": 408962, "serialpos": 5, "key_press": -1, "wordID": 1535, "type": "PRES_VIS", "trial_index": 94}, "uniqueid": "MTK2939:3DH6GAKTYZWYFKNNL0N5UMHB3E2ZY9", "dateTime": 1519594955108}, {"current_trial": 95, "trialdata": {"rt": -1, "trial_type": "single-stim", "word": "shrub", "stimulus": "<p id=\"stim\">SHRUB</p>", "conditions": [24, 800, "v", 12000], "internal_node_id": "0.0-68.0", "trial": 2, "time_elapsed": 410736, "serialpos": 6, "key_press": -1, "wordID": 1298, "type": "PRES_VIS", "trial_index": 95}, "uniqueid": "MTK2939:3DH6GAKTYZWYFKNNL0N5UMHB3E2ZY9", "dateTime": 1519594956881}, {"current_trial": 96, "trialdata": {"rt": -1, "trial_type": "single-stim", "word": "woman", "stimulus": "<p id=\"stim\">WOMAN</p>", "conditions": [24, 800, "v", 12000], "internal_node_id": "0.0-69.0", "trial": 2, "time_elapsed": 412709, "serialpos": 7, "key_press": -1, "wordID": 1619, "type": "PRES_VIS", "trial_index": 96}, "uniqueid": "MTK2939:3DH6GAKTYZWYFKNNL0N5UMHB3E2ZY9", "dateTime": 1519594958854}, {"current_trial": 97, "trialdata": {"rt": -1, "trial_type": "single-stim", "word": "shortcake", "stimulus": "<p id=\"stim\">SHORTCAKE</p>", "conditions": [24, 800, "v", 12000], "internal_node_id": "0.0-70.0", "trial": 2, "time_elapsed": 414701, "serialpos": 8, "key_press": -1, "wordID": 1291, "type": "PRES_VIS", "trial_index": 97}, "uniqueid": "MTK2939:3DH6GAKTYZWYFKNNL0N5UMHB3E2ZY9", "dateTime": 1519594960846}, {"current_trial": 98, "trialdata": {"rt": -1, "trial_type": "single-stim", "word": "cookbook", "stimulus": "<p id=\"stim\">COOKBOOK</p>", "conditions": [24, 800, "v", 12000], "internal_node_id": "0.0-71.0", "trial": 2, "time_elapsed": 416524, "serialpos": 9, "key_press": -1, "wordID": 372, "type": "PRES_VIS", "trial_index": 98}, "uniqueid": "MTK2939:3DH6GAKTYZWYFKNNL0N5UMHB3E2ZY9", "dateTime": 1519594962669}, {"current_trial": 99, "trialdata": {"rt": -1, "trial_type": "single-stim", "word": "brick", "stimulus": "<p id=\"stim\">BRICK</p>", "conditions": [24, 800, "v", 12000], "internal_node_id": "0.0-72.0", "trial": 2, "time_elapsed": 418271, "serialpos": 10, "key_press": -1, "wordID": 171, "type": "PRES_VIS", "trial_index": 99}, "uniqueid": "MTK2939:3DH6GAKTYZWYFKNNL0N5UMHB3E2ZY9", "dateTime": 1519594964416}, {"current_trial": 100, "trialdata": {"rt": -1, "trial_type": "single-stim", "word": "stone", "stimulus": "<p id=\"stim\">STONE</p>", "conditions": [24, 800, "v", 12000], "internal_node_id": "0.0-73.0", "trial": 2, "time_elapsed": 420070, "serialpos": 11, "key_press": -1, "wordID": 1384, "type": "PRES_VIS", "trial_index": 100}, "uniqueid": "MTK2939:3DH6GAKTYZWYFKNNL0N5UMHB3E2ZY9", "dateTime": 1519594966216}, {"current_trial": 101, "trialdata": {"rt": -1, "trial_type": "single-stim", "word": "queen", "stimulus": "<p id=\"stim\">QUEEN</p>", "conditions": [24, 800, "v", 12000], "internal_node_id": "0.0-74.0", "trial": 2, "time_elapsed": 422019, "serialpos": 12, "key_press": -1, "wordID": 1148, "type": "PRES_VIS", "trial_index": 101}, "uniqueid": "MTK2939:3DH6GAKTYZWYFKNNL0N5UMHB3E2ZY9", "dateTime": 1519594968164}, {"current_trial": 102, "trialdata": {"rt": -1, "trial_type": "single-stim", "word": "butcher", "stimulus": "<p id=\"stim\">BUTCHER</p>", "conditions": [24, 800, "v", 12000], "internal_node_id": "0.0-75.0", "trial": 2, "time_elapsed": 423922, "serialpos": 13, "key_press": -1, "wordID": 202, "type": "PRES_VIS", "trial_index": 102}, "uniqueid": "MTK2939:3DH6GAKTYZWYFKNNL0N5UMHB3E2ZY9", "dateTime": 1519594970067}, {"current_trial": 103, "trialdata": {"rt": -1, "trial_type": "single-stim", "word": "whiskers", "stimulus": "<p id=\"stim\">WHISKERS</p>", "conditions": [24, 800, "v", 12000], "internal_node_id": "0.0-76.0", "trial": 2, "time_elapsed": 425739, "serialpos": 14, "key_press": -1, "wordID": 1604, "type": "PRES_VIS", "trial_index": 103}, "uniqueid": "MTK2939:3DH6GAKTYZWYFKNNL0N5UMHB3E2ZY9", "dateTime": 1519594971884}, {"current_trial": 104, "trialdata": {"rt": -1, "trial_type": "single-stim", "word": "summit", "stimulus": "<p id=\"stim\">SUMMIT</p>", "conditions": [24, 800, "v", 12000], "internal_node_id": "0.0-77.0", "trial": 2, "time_elapsed": 427437, "serialpos": 15, "key_press": -1, "wordID": 1404, "type": "PRES_VIS", "trial_index": 104}, "uniqueid": "MTK2939:3DH6GAKTYZWYFKNNL0N5UMHB3E2ZY9", "dateTime": 1519594973582}, {"current_trial": 105, "trialdata": {"rt": -1, "trial_type": "single-stim", "word": "rust", "stimulus": "<p id=\"stim\">RUST</p>", "conditions": [24, 800, "v", 12000], "internal_node_id": "0.0-78.0", "trial": 2, "time_elapsed": 429159, "serialpos": 16, "key_press": -1, "wordID": 1218, "type": "PRES_VIS", "trial_index": 105}, "uniqueid": "MTK2939:3DH6GAKTYZWYFKNNL0N5UMHB3E2ZY9", "dateTime": 1519594975304}, {"current_trial": 106, "trialdata": {"rt": -1, "trial_type": "single-stim", "word": "scarf", "stimulus": "<p id=\"stim\">SCARF</p>", "conditions": [24, 800, "v", 12000], "internal_node_id": "0.0-79.0", "trial": 2, "time_elapsed": 431050, "serialpos": 17, "key_press": -1, "wordID": 1245, "type": "PRES_VIS", "trial_index": 106}, "uniqueid": "MTK2939:3DH6GAKTYZWYFKNNL0N5UMHB3E2ZY9", "dateTime": 1519594977195}, {"current_trial": 107, "trialdata": {"rt": -1, "trial_type": "single-stim", "word": "jelly", "stimulus": "<p id=\"stim\">JELLY</p>", "conditions": [24, 800, "v", 12000], "internal_node_id": "0.0-80.0", "trial": 2, "time_elapsed": 432786, "serialpos": 18, "key_press": -1, "wordID": 754, "type": "PRES_VIS", "trial_index": 107}, "uniqueid": "MTK2939:3DH6GAKTYZWYFKNNL0N5UMHB3E2ZY9", "dateTime": 1519594978931}, {"current_trial": 108, "trialdata": {"rt": -1, "trial_type": "single-stim", "word": "trout", "stimulus": "<p id=\"stim\">TROUT</p>", "conditions": [24, 800, "v", 12000], "internal_node_id": "0.0-81.0", "trial": 2, "time_elapsed": 434568, "serialpos": 19, "key_press": -1, "wordID": 1510, "type": "PRES_VIS", "trial_index": 108}, "uniqueid": "MTK2939:3DH6GAKTYZWYFKNNL0N5UMHB3E2ZY9", "dateTime": 1519594980713}, {"current_trial": 109, "trialdata": {"rt": -1, "trial_type": "single-stim", "word": "pork", "stimulus": "<p id=\"stim\">PORK</p>", "conditions": [24, 800, "v", 12000], "internal_node_id": "0.0-82.0", "trial": 2, "time_elapsed": 436354, "serialpos": 20, "key_press": -1, "wordID": 1107, "type": "PRES_VIS", "trial_index": 109}, "uniqueid": "MTK2939:3DH6GAKTYZWYFKNNL0N5UMHB3E2ZY9", "dateTime": 1519594982499}, {"current_trial": 110, "trialdata": {"rt": -1, "trial_type": "single-stim", "word": "beef", "stimulus": "<p id=\"stim\">BEEF</p>", "conditions": [24, 800, "v", 12000], "internal_node_id": "0.0-83.0", "trial": 2, "time_elapsed": 438335, "serialpos": 21, "key_press": -1, "wordID": 112, "type": "PRES_VIS", "trial_index": 110}, "uniqueid": "MTK2939:3DH6GAKTYZWYFKNNL0N5UMHB3E2ZY9", "dateTime": 1519594984480}, {"current_trial": 111, "trialdata": {"rt": -1, "trial_type": "single-stim", "word": "princess", "stimulus": "<p id=\"stim\">PRINCESS</p>", "conditions": [24, 800, "v", 12000], "internal_node_id": "0.0-84.0", "trial": 2, "time_elapsed": 440257, "serialpos": 22, "key_press": -1, "wordID": 1124, "type": "PRES_VIS", "trial_index": 111}, "uniqueid": "MTK2939:3DH6GAKTYZWYFKNNL0N5UMHB3E2ZY9", "dateTime": 1519594986403}, {"current_trial": 112, "trialdata": {"rt": -1, "trial_type": "single-stim", "word": "loft", "stimulus": "<p id=\"stim\">LOFT</p>", "conditions": [24, 800, "v", 12000], "internal_node_id": "0.0-85.0", "trial": 2, "time_elapsed": 442050, "serialpos": 23, "key_press": -1, "wordID": 839, "type": "PRES_VIS", "trial_index": 112}, "uniqueid": "MTK2939:3DH6GAKTYZWYFKNNL0N5UMHB3E2ZY9", "dateTime": 1519594988195}, {"current_trial": 113, "trialdata": {"rt": -1, "trial_type": "single-stim", "stimulus": "", "internal_node_id": "0.0-86.0-0.0", "time_elapsed": 444343, "key_press": -1, "type": "PRE_RECALL_DELAY", "trial_index": 113}, "uniqueid": "MTK2939:3DH6GAKTYZWYFKNNL0N5UMHB3E2ZY9", "dateTime": 1519594990488}, {"current_trial": 114, "trialdata": {"rt": -1000, "trial_type": "single-audio", "stimulus": "/static/audio/400Hz.wav", "internal_node_id": "0.0-87.0", "time_elapsed": 444847, "key_press": -1, "type": "PRE_RECALL_ALERT", "trial_index": 114}, "uniqueid": "MTK2939:3DH6GAKTYZWYFKNNL0N5UMHB3E2ZY9", "dateTime": 1519594990992}, {"current_trial": 115, "trialdata": {"rt": [1543, 3593, 5609, 8237, 11095, 13471, 19466, 29139, 38281], "recwords": ["summit", "scarf", "jelly", "omelet", "female", "whiskers", "rust", "shrub", "cookbook"], "key_times": [520, 692, 919, 1081, 1268, 1406, 1543, 2449, 2641, 2822, 2970, 3440, 3593, 4616, 4762, 4948, 5120, 5468, 5609, 6558, 6696, 6851, 7068, 7776, 8091, 8237, 8598, 8788, 8994, 9156, 9329, 9701, 9942, 10101, 10617, 10912, 11095, 11340, 11498, 11647, 11991, 12157, 12329, 12547, 13292, 13471, 18892, 19019, 19139, 19341, 19466, 27805, 28059, 28313, 28595, 28971, 29139, 36648, 36858, 37021, 37188, 37545, 37684, 37867, 38066, 38281], "trial_type": "free-recall", "conditions": [24, 800, "v", 12000], "internal_node_id": "0.0-88.0-0.0", "key_presses": [83, 85, 77, 77, 73, 84, 13, 83, 67, 65, 82, 70, 13, 74, 69, 76, 76, 89, 13, 79, 77, 69, 76, 69, 84, 13, 70, 69, 77, 65, 73, 76, 8, 8, 76, 69, 13, 87, 72, 73, 83, 75, 69, 82, 83, 13, 82, 85, 83, 84, 13, 83, 72, 82, 85, 66, 13, 67, 79, 79, 75, 66, 79, 79, 75, 13], "trial": 2, "time_elapsed": 504854, "type": "FREE_RECALL", "trial_index": 115}, "uniqueid": "MTK2939:3DH6GAKTYZWYFKNNL0N5UMHB3E2ZY9", "dateTime": 1519595051002}, {"current_trial": 116, "trialdata": {"rt": 1393, "trial_type": "text", "internal_node_id": "0.0-89.0", "time_elapsed": 508252, "key_press": 32, "type": "INSTRUCTIONS", "trial_index": 116}, "uniqueid": "MTK2939:3DH6GAKTYZWYFKNNL0N5UMHB3E2ZY9", "dateTime": 1519595054397}, {"current_trial": 117, "trialdata": {"rt": [3658, 6089, 8874, 10441], "trial_type": "math-distractor", "key_times": [2587, 3197, 3658, 5517, 5820, 6089, 8357, 8733, 8874, 10131, 10327, 10441], "responses": ["19", "13", "14", "12"], "num2": [9, 5, 1, 5, 4], "num3": [8, 6, 9, 6, 7], "conditions": [24, 1600, "v", 12000], "internal_node_id": "0.0-90.0", "key_presses": [49, 57, 13, 49, 51, 13, 49, 52, 13, 49, 50, 13], "trial": 3, "time_elapsed": 522257, "type": "DISTRACTOR", "trial_index": 117, "num1": [2, 2, 4, 1, 2]}, "uniqueid": "MTK2939:3DH6GAKTYZWYFKNNL0N5UMHB3E2ZY9", "dateTime": 1519595068402}, {"current_trial": 118, "trialdata": {"rt": -1, "trial_type": "single-stim", "stimulus": "<p id=\"stim\">10</p>", "internal_node_id": "0.0-91.0-0.0", "time_elapsed": 525260, "key_press": -1, "trial_index": 118}, "uniqueid": "MTK2939:3DH6GAKTYZWYFKNNL0N5UMHB3E2ZY9", "dateTime": 1519595071405}, {"current_trial": 119, "trialdata": {"rt": -1, "trial_type": "single-stim", "stimulus": "<p id=\"stim\">9</p>", "internal_node_id": "0.0-91.0-1.0", "time_elapsed": 526263, "key_press": -1, "trial_index": 119}, "uniqueid": "MTK2939:3DH6GAKTYZWYFKNNL0N5UMHB3E2ZY9", "dateTime": 1519595072408}, {"current_trial": 120, "trialdata": {"rt": -1, "trial_type": "single-stim", "stimulus": "<p id=\"stim\">8</p>", "internal_node_id": "0.0-91.0-2.0", "time_elapsed": 527265, "key_press": -1, "trial_index": 120}, "uniqueid": "MTK2939:3DH6GAKTYZWYFKNNL0N5UMHB3E2ZY9", "dateTime": 1519595073410}, {"current_trial": 121, "trialdata": {"rt": -1, "trial_type": "single-stim", "stimulus": "<p id=\"stim\">7</p>", "internal_node_id": "0.0-91.0-3.0", "time_elapsed": 528267, "key_press": -1, "trial_index": 121}, "uniqueid": "MTK2939:3DH6GAKTYZWYFKNNL0N5UMHB3E2ZY9", "dateTime": 1519595074413}, {"current_trial": 122, "trialdata": {"rt": -1, "trial_type": "single-stim", "stimulus": "<p id=\"stim\">6</p>", "internal_node_id": "0.0-91.0-4.0", "time_elapsed": 529270, "key_press": -1, "trial_index": 122}, "uniqueid": "MTK2939:3DH6GAKTYZWYFKNNL0N5UMHB3E2ZY9", "dateTime": 1519595075415}, {"current_trial": 123, "trialdata": {"rt": -1, "trial_type": "single-stim", "stimulus": "<p id=\"stim\">5</p>", "internal_node_id": "0.0-91.0-5.0", "time_elapsed": 530273, "key_press": -1, "trial_index": 123}, "uniqueid": "MTK2939:3DH6GAKTYZWYFKNNL0N5UMHB3E2ZY9", "dateTime": 1519595076418}, {"current_trial": 124, "trialdata": {"rt": -1, "trial_type": "single-stim", "stimulus": "<p id=\"stim\">4</p>", "internal_node_id": "0.0-91.0-6.0", "time_elapsed": 531275, "key_press": -1, "trial_index": 124}, "uniqueid": "MTK2939:3DH6GAKTYZWYFKNNL0N5UMHB3E2ZY9", "dateTime": 1519595077420}, {"current_trial": 125, "trialdata": {"rt": -1, "trial_type": "single-stim", "stimulus": "<p id=\"stim\">3</p>", "internal_node_id": "0.0-91.0-7.0", "time_elapsed": 532278, "key_press": -1, "trial_index": 125}, "uniqueid": "MTK2939:3DH6GAKTYZWYFKNNL0N5UMHB3E2ZY9", "dateTime": 1519595078423}, {"current_trial": 126, "trialdata": {"rt": -1, "trial_type": "single-stim", "stimulus": "<p id=\"stim\">2</p>", "internal_node_id": "0.0-91.0-8.0", "time_elapsed": 533280, "key_press": -1, "trial_index": 126}, "uniqueid": "MTK2939:3DH6GAKTYZWYFKNNL0N5UMHB3E2ZY9", "dateTime": 1519595079425}, {"current_trial": 127, "trialdata": {"rt": -1, "trial_type": "single-stim", "stimulus": "<p id=\"stim\">1</p>", "internal_node_id": "0.0-91.0-9.0", "time_elapsed": 534281, "key_press": -1, "trial_index": 127}, "uniqueid": "MTK2939:3DH6GAKTYZWYFKNNL0N5UMHB3E2ZY9", "dateTime": 1519595080427}, {"current_trial": 128, "trialdata": {"rt": -1, "trial_type": "single-stim", "stimulus": "<p id=\"stim\">+</p>", "internal_node_id": "0.0-92.0-0.0", "time_elapsed": 535784, "key_press": -1, "type": "FIXATION", "trial_index": 128}, "uniqueid": "MTK2939:3DH6GAKTYZWYFKNNL0N5UMHB3E2ZY9", "dateTime": 1519595081929}, {"current_trial": 129, "trialdata": {"rt": -1, "trial_type": "single-stim", "word": "skillet", "stimulus": "<p id=\"stim\">SKILLET</p>", "conditions": [24, 1600, "v", 12000], "internal_node_id": "0.0-93.0", "trial": 3, "time_elapsed": 537386, "serialpos": 0, "key_press": -1, "wordID": 1316, "type": "PRES_VIS", "trial_index": 129}, "uniqueid": "MTK2939:3DH6GAKTYZWYFKNNL0N5UMHB3E2ZY9", "dateTime": 1519595083531}, {"current_trial": 130, "trialdata": {"rt": -1, "trial_type": "single-stim", "word": "lover", "stimulus": "<p id=\"stim\">LOVER</p>", "conditions": [24, 1600, "v", 12000], "internal_node_id": "0.0-94.0", "trial": 3, "time_elapsed": 539827, "serialpos": 1, "key_press": -1, "wordID": 845, "type": "PRES_VIS", "trial_index": 130}, "uniqueid": "MTK2939:3DH6GAKTYZWYFKNNL0N5UMHB3E2ZY9", "dateTime": 1519595085972}, {"current_trial": 131, "trialdata": {"rt": -1, "trial_type": "single-stim", "word": "spider", "stimulus": "<p id=\"stim\">SPIDER</p>", "conditions": [24, 1600, "v", 12000], "internal_node_id": "0.0-95.0", "trial": 3, "time_elapsed": 542623, "serialpos": 2, "key_press": -1, "wordID": 1350, "type": "PRES_VIS", "trial_index": 131}, "uniqueid": "MTK2939:3DH6GAKTYZWYFKNNL0N5UMHB3E2ZY9", "dateTime": 1519595088768}, {"current_trial": 132, "trialdata": {"rt": -1, "trial_type": "single-stim", "word": "comet", "stimulus": "<p id=\"stim\">COMET</p>", "conditions": [24, 1600, "v", 12000], "internal_node_id": "0.0-96.0", "trial": 3, "time_elapsed": 545091, "serialpos": 3, "key_press": -1, "wordID": 352, "type": "PRES_VIS", "trial_index": 132}, "uniqueid": "MTK2939:3DH6GAKTYZWYFKNNL0N5UMHB3E2ZY9", "dateTime": 1519595091236}, {"current_trial": 133, "trialdata": {"rt": -1, "trial_type": "single-stim", "word": "farmer", "stimulus": "<p id=\"stim\">FARMER</p>", "conditions": [24, 1600, "v", 12000], "internal_node_id": "0.0-97.0", "trial": 3, "time_elapsed": 547748, "serialpos": 4, "key_press": -1, "wordID": 552, "type": "PRES_VIS", "trial_index": 133}, "uniqueid": "MTK2939:3DH6GAKTYZWYFKNNL0N5UMHB3E2ZY9", "dateTime": 1519595093893}, {"current_trial": 134, "trialdata": {"rt": -1, "trial_type": "single-stim", "word": "palace", "stimulus": "<p id=\"stim\">PALACE</p>", "conditions": [24, 1600, "v", 12000], "internal_node_id": "0.0-98.0", "trial": 3, "time_elapsed": 550334, "serialpos": 5, "key_press": -1, "wordID": 1005, "type": "PRES_VIS", "trial_index": 134}, "uniqueid": "MTK2939:3DH6GAKTYZWYFKNNL0N5UMHB3E2ZY9", "dateTime": 1519595096479}, {"current_trial": 135, "trialdata": {"rt": -1, "trial_type": "single-stim", "word": "lily", "stimulus": "<p id=\"stim\">LILY</p>", "conditions": [24, 1600, "v", 12000], "internal_node_id": "0.0-99.0", "trial": 3, "time_elapsed": 553015, "serialpos": 6, "key_press": -1, "wordID": 820, "type": "PRES_VIS", "trial_index": 135}, "uniqueid": "MTK2939:3DH6GAKTYZWYFKNNL0N5UMHB3E2ZY9", "dateTime": 1519595099160}, {"current_trial": 136, "trialdata": {"rt": -1, "trial_type": "single-stim", "word": "fungus", "stimulus": "<p id=\"stim\">FUNGUS</p>", "conditions": [24, 1600, "v", 12000], "internal_node_id": "0.0-100.0", "trial": 3, "time_elapsed": 555624, "serialpos": 7, "key_press": -1, "wordID": 613, "type": "PRES_VIS", "trial_index": 136}, "uniqueid": "MTK2939:3DH6GAKTYZWYFKNNL0N5UMHB3E2ZY9", "dateTime": 1519595101770}, {"current_trial": 137, "trialdata": {"rt": -1, "trial_type": "single-stim", "word": "pigeon", "stimulus": "<p id=\"stim\">PIGEON</p>", "conditions": [24, 1600, "v", 12000], "internal_node_id": "0.0-101.0", "trial": 3, "time_elapsed": 558128, "serialpos": 8, "key_press": -1, "wordID": 1064, "type": "PRES_VIS", "trial_index": 137}, "uniqueid": "MTK2939:3DH6GAKTYZWYFKNNL0N5UMHB3E2ZY9", "dateTime": 1519595104273}, {"current_trial": 138, "trialdata": {"rt": -1, "trial_type": "single-stim", "word": "seafood", "stimulus": "<p id=\"stim\">SEAFOOD</p>", "conditions": [24, 1600, "v", 12000], "internal_node_id": "0.0-102.0", "trial": 3, "time_elapsed": 560596, "serialpos": 9, "key_press": -1, "wordID": 1259, "type": "PRES_VIS", "trial_index": 138}, "uniqueid": "MTK2939:3DH6GAKTYZWYFKNNL0N5UMHB3E2ZY9", "dateTime": 1519595106742}, {"current_trial": 139, "trialdata": {"rt": -1, "trial_type": "single-stim", "word": "salmon", "stimulus": "<p id=\"stim\">SALMON</p>", "conditions": [24, 1600, "v", 12000], "internal_node_id": "0.0-103.0", "trial": 3, "time_elapsed": 563330, "serialpos": 10, "key_press": -1, "wordID": 1226, "type": "PRES_VIS", "trial_index": 139}, "uniqueid": "MTK2939:3DH6GAKTYZWYFKNNL0N5UMHB3E2ZY9", "dateTime": 1519595109475}, {"current_trial": 140, "trialdata": {"rt": -1, "trial_type": "single-stim", "word": "grill", "stimulus": "<p id=\"stim\">GRILL</p>", "conditions": [24, 1600, "v", 12000], "internal_node_id": "0.0-104.0", "trial": 3, "time_elapsed": 566065, "serialpos": 11, "key_press": -1, "wordID": 660, "type": "PRES_VIS", "trial_index": 140}, "uniqueid": "MTK2939:3DH6GAKTYZWYFKNNL0N5UMHB3E2ZY9", "dateTime": 1519595112210}, {"current_trial": 141, "trialdata": {"rt": -1, "trial_type": "single-stim", "word": "dress", "stimulus": "<p id=\"stim\">DRESS</p>", "conditions": [24, 1600, "v", 12000], "internal_node_id": "0.0-105.0", "trial": 3, "time_elapsed": 568533, "serialpos": 12, "key_press": -1, "wordID": 494, "type": "PRES_VIS", "trial_index": 141}, "uniqueid": "MTK2939:3DH6GAKTYZWYFKNNL0N5UMHB3E2ZY9", "dateTime": 1519595114680}, {"current_trial": 142, "trialdata": {"rt": -1, "trial_type": "single-stim", "word": "skirt", "stimulus": "<p id=\"stim\">SKIRT</p>", "conditions": [24, 1600, "v", 12000], "internal_node_id": "0.0-106.0", "trial": 3, "time_elapsed": 571167, "serialpos": 13, "key_press": -1, "wordID": 1318, "type": "PRES_VIS", "trial_index": 142}, "uniqueid": "MTK2939:3DH6GAKTYZWYFKNNL0N5UMHB3E2ZY9", "dateTime": 1519595117312}, {"current_trial": 143, "trialdata": {"rt": -1, "trial_type": "single-stim", "word": "star", "stimulus": "<p id=\"stim\">STAR</p>", "conditions": [24, 1600, "v", 12000], "internal_node_id": "0.0-107.0", "trial": 3, "time_elapsed": 573822, "serialpos": 14, "key_press": -1, "wordID": 1372, "type": "PRES_VIS", "trial_index": 143}, "uniqueid": "MTK2939:3DH6GAKTYZWYFKNNL0N5UMHB3E2ZY9", "dateTime": 1519595119967}, {"current_trial": 144, "trialdata": {"rt": -1, "trial_type": "single-stim", "word": "atom", "stimulus": "<p id=\"stim\">ATOM</p>", "conditions": [24, 1600, "v", 12000], "internal_node_id": "0.0-108.0", "trial": 3, "time_elapsed": 576277, "serialpos": 15, "key_press": -1, "wordID": 54, "type": "PRES_VIS", "trial_index": 144}, "uniqueid": "MTK2939:3DH6GAKTYZWYFKNNL0N5UMHB3E2ZY9", "dateTime": 1519595122422}, {"current_trial": 145, "trialdata": {"rt": -1, "trial_type": "single-stim", "word": "shirt", "stimulus": "<p id=\"stim\">SHIRT</p>", "conditions": [24, 1600, "v", 12000], "internal_node_id": "0.0-109.0", "trial": 3, "time_elapsed": 578685, "serialpos": 16, "key_press": -1, "wordID": 1286, "type": "PRES_VIS", "trial_index": 145}, "uniqueid": "MTK2939:3DH6GAKTYZWYFKNNL0N5UMHB3E2ZY9", "dateTime": 1519595124830}, {"current_trial": 146, "trialdata": {"rt": -1, "trial_type": "single-stim", "word": "elbow", "stimulus": "<p id=\"stim\">ELBOW</p>", "conditions": [24, 1600, "v", 12000], "internal_node_id": "0.0-110.0", "trial": 3, "time_elapsed": 581443, "serialpos": 17, "key_press": -1, "wordID": 519, "type": "PRES_VIS", "trial_index": 146}, "uniqueid": "MTK2939:3DH6GAKTYZWYFKNNL0N5UMHB3E2ZY9", "dateTime": 1519595127588}, {"current_trial": 147, "trialdata": {"rt": -1, "trial_type": "single-stim", "word": "knife", "stimulus": "<p id=\"stim\">KNIFE</p>", "conditions": [24, 1600, "v", 12000], "internal_node_id": "0.0-111.0", "trial": 3, "time_elapsed": 583938, "serialpos": 18, "key_press": -1, "wordID": 784, "type": "PRES_VIS", "trial_index": 147}, "uniqueid": "MTK2939:3DH6GAKTYZWYFKNNL0N5UMHB3E2ZY9", "dateTime": 1519595130084}, {"current_trial": 148, "trialdata": {"rt": -1, "trial_type": "single-stim", "word": "softball", "stimulus": "<p id=\"stim\">SOFTBALL</p>", "conditions": [24, 1600, "v", 12000], "internal_node_id": "0.0-112.0", "trial": 3, "time_elapsed": 586429, "serialpos": 19, "key_press": -1, "wordID": 1342, "type": "PRES_VIS", "trial_index": 148}, "uniqueid": "MTK2939:3DH6GAKTYZWYFKNNL0N5UMHB3E2ZY9", "dateTime": 1519595132574}, {"current_trial": 149, "trialdata": {"rt": -1, "trial_type": "single-stim", "word": "marsh", "stimulus": "<p id=\"stim\">MARSH</p>", "conditions": [24, 1600, "v", 12000], "internal_node_id": "0.0-113.0", "trial": 3, "time_elapsed": 589088, "serialpos": 20, "key_press": -1, "wordID": 873, "type": "PRES_VIS", "trial_index": 149}, "uniqueid": "MTK2939:3DH6GAKTYZWYFKNNL0N5UMHB3E2ZY9", "dateTime": 1519595135233}, {"current_trial": 150, "trialdata": {"rt": -1, "trial_type": "single-stim", "word": "waitress", "stimulus": "<p id=\"stim\">WAITRESS</p>", "conditions": [24, 1600, "v", 12000], "internal_node_id": "0.0-114.0", "trial": 3, "time_elapsed": 591841, "serialpos": 21, "key_press": -1, "wordID": 1580, "type": "PRES_VIS", "trial_index": 150}, "uniqueid": "MTK2939:3DH6GAKTYZWYFKNNL0N5UMHB3E2ZY9", "dateTime": 1519595137995}, {"current_trial": 151, "trialdata": {"rt": -1, "trial_type": "single-stim", "word": "garden", "stimulus": "<p id=\"stim\">GARDEN</p>", "conditions": [24, 1600, "v", 12000], "internal_node_id": "0.0-115.0", "trial": 3, "time_elapsed": 594401, "serialpos": 22, "key_press": -1, "wordID": 622, "type": "PRES_VIS", "trial_index": 151}, "uniqueid": "MTK2939:3DH6GAKTYZWYFKNNL0N5UMHB3E2ZY9", "dateTime": 1519595140546}, {"current_trial": 152, "trialdata": {"rt": -1, "trial_type": "single-stim", "word": "blouse", "stimulus": "<p id=\"stim\">BLOUSE</p>", "conditions": [24, 1600, "v", 12000], "internal_node_id": "0.0-116.0", "trial": 3, "time_elapsed": 597190, "serialpos": 23, "key_press": -1, "wordID": 138, "type": "PRES_VIS", "trial_index": 152}, "uniqueid": "MTK2939:3DH6GAKTYZWYFKNNL0N5UMHB3E2ZY9", "dateTime": 1519595143335}, {"current_trial": 153, "trialdata": {"rt": -1, "trial_type": "single-stim", "stimulus": "", "internal_node_id": "0.0-117.0-0.0", "time_elapsed": 599518, "key_press": -1, "type": "PRE_RECALL_DELAY", "trial_index": 153}, "uniqueid": "MTK2939:3DH6GAKTYZWYFKNNL0N5UMHB3E2ZY9", "dateTime": 1519595145663}, {"current_trial": 154, "trialdata": {"rt": -1000, "trial_type": "single-audio", "stimulus": "/static/audio/400Hz.wav", "internal_node_id": "0.0-118.0", "time_elapsed": 600021, "key_press": -1, "type": "PRE_RECALL_ALERT", "trial_index": 154}, "uniqueid": "MTK2939:3DH6GAKTYZWYFKNNL0N5UMHB3E2ZY9", "dateTime": 1519595146166}, {"current_trial": 155, "trialdata": {"rt": [1675, 3998, 5234, 7638, 11256, 15433, 22838, 27401, 35673], "recwords": ["skirt", "blouse", "atom", "farmer", "skillet", "softball", "scarf", "rust", "woman"], "key_times": [868, 1059, 1252, 1360, 1566, 1675, 2171, 2389, 2578, 2720, 2971, 3425, 3580, 3789, 3998, 4367, 4651, 4889, 5046, 5234, 6741, 6930, 7091, 7251, 7372, 7503, 7638, 9487, 9684, 9888, 10135, 10293, 10485, 10985, 11256, 13444, 13571, 13716, 14098, 14748, 14985, 15068, 15233, 15433, 21188, 21430, 21616, 21776, 22646, 22838, 26817, 27027, 27100, 27286, 27401, 34823, 35035, 35176, 35338, 35481, 35673], "trial_type": "free-recall", "conditions": [24, 1600, "v", 12000], "internal_node_id": "0.0-119.0-0.0", "key_presses": [83, 75, 73, 82, 84, 13, 66, 76, 79, 85, 68, 8, 83, 69, 13, 65, 84, 79, 77, 13, 70, 65, 82, 77, 69, 82, 13, 83, 75, 73, 76, 76, 69, 84, 13, 83, 79, 70, 84, 66, 65, 76, 76, 13, 83, 67, 65, 82, 70, 13, 82, 85, 83, 84, 13, 87, 79, 77, 65, 78, 13], "trial": 3, "time_elapsed": 660027, "type": "FREE_RECALL", "trial_index": 155}, "uniqueid": "MTK2939:3DH6GAKTYZWYFKNNL0N5UMHB3E2ZY9", "dateTime": 1519595206180}, {"current_trial": 156, "trialdata": {"rt": 3714, "trial_type": "text", "internal_node_id": "0.0-120.0", "time_elapsed": 665751, "key_press": 32, "type": "INSTRUCTIONS", "trial_index": 156}, "uniqueid": "MTK2939:3DH6GAKTYZWYFKNNL0N5UMHB3E2ZY9", "dateTime": 1519595211896}, {"current_trial": 157, "trialdata": {"rt": [3143, 7836, 10869, 12672, 16790, 19066, 21279, 23557], "trial_type": "math-distractor", "key_times": [2792, 3007, 3143, 7396, 7626, 7836, 10208, 10737, 10869, 12353, 12550, 12672, 16090, 16607, 16790, 18311, 18893, 19066, 20893, 21111, 21279, 22756, 23359, 23557], "responses": ["12", "20", "26", "12", "22", "17", "12", "16"], "num2": [4, 4, 8, 1, 8, 5, 5, 8, 6], "num3": [6, 7, 9, 5, 9, 5, 4, 2, 5], "conditions": [12, 800, "v", 24000], "internal_node_id": "0.0-121.0", "key_presses": [49, 50, 13, 50, 48, 13, 50, 54, 13, 49, 50, 13, 50, 50, 13, 49, 55, 13, 49, 50, 13, 49, 54, 13], "trial": 4, "time_elapsed": 691757, "type": "DISTRACTOR", "trial_index": 157, "num1": [2, 9, 9, 6, 5, 7, 3, 6, 5]}, "uniqueid": "MTK2939:3DH6GAKTYZWYFKNNL0N5UMHB3E2ZY9", "dateTime": 1519595237902}, {"current_trial": 158, "trialdata": {"rt": -1, "trial_type": "single-stim", "stimulus": "<p id=\"stim\">10</p>", "internal_node_id": "0.0-122.0-0.0", "time_elapsed": 694762, "key_press": -1, "trial_index": 158}, "uniqueid": "MTK2939:3DH6GAKTYZWYFKNNL0N5UMHB3E2ZY9", "dateTime": 1519595240908}, {"current_trial": 159, "trialdata": {"rt": -1, "trial_type": "single-stim", "stimulus": "<p id=\"stim\">9</p>", "internal_node_id": "0.0-122.0-1.0", "time_elapsed": 695765, "key_press": -1, "trial_index": 159}, "uniqueid": "MTK2939:3DH6GAKTYZWYFKNNL0N5UMHB3E2ZY9", "dateTime": 1519595241910}, {"current_trial": 160, "trialdata": {"rt": -1, "trial_type": "single-stim", "stimulus": "<p id=\"stim\">8</p>", "internal_node_id": "0.0-122.0-2.0", "time_elapsed": 696768, "key_press": -1, "trial_index": 160}, "uniqueid": "MTK2939:3DH6GAKTYZWYFKNNL0N5UMHB3E2ZY9", "dateTime": 1519595242914}, {"current_trial": 161, "trialdata": {"rt": -1, "trial_type": "single-stim", "stimulus": "<p id=\"stim\">7</p>", "internal_node_id": "0.0-122.0-3.0", "time_elapsed": 697772, "key_press": -1, "trial_index": 161}, "uniqueid": "MTK2939:3DH6GAKTYZWYFKNNL0N5UMHB3E2ZY9", "dateTime": 1519595243917}, {"current_trial": 162, "trialdata": {"rt": -1, "trial_type": "single-stim", "stimulus": "<p id=\"stim\">6</p>", "internal_node_id": "0.0-122.0-4.0", "time_elapsed": 698774, "key_press": -1, "trial_index": 162}, "uniqueid": "MTK2939:3DH6GAKTYZWYFKNNL0N5UMHB3E2ZY9", "dateTime": 1519595244919}, {"current_trial": 163, "trialdata": {"rt": -1, "trial_type": "single-stim", "stimulus": "<p id=\"stim\">5</p>", "internal_node_id": "0.0-122.0-5.0", "time_elapsed": 699776, "key_press": -1, "trial_index": 163}, "uniqueid": "MTK2939:3DH6GAKTYZWYFKNNL0N5UMHB3E2ZY9", "dateTime": 1519595245922}, {"current_trial": 164, "trialdata": {"rt": -1, "trial_type": "single-stim", "stimulus": "<p id=\"stim\">4</p>", "internal_node_id": "0.0-122.0-6.0", "time_elapsed": 700780, "key_press": -1, "trial_index": 164}, "uniqueid": "MTK2939:3DH6GAKTYZWYFKNNL0N5UMHB3E2ZY9", "dateTime": 1519595246925}, {"current_trial": 165, "trialdata": {"rt": -1, "trial_type": "single-stim", "stimulus": "<p id=\"stim\">3</p>", "internal_node_id": "0.0-122.0-7.0", "time_elapsed": 701782, "key_press": -1, "trial_index": 165}, "uniqueid": "MTK2939:3DH6GAKTYZWYFKNNL0N5UMHB3E2ZY9", "dateTime": 1519595247927}, {"current_trial": 166, "trialdata": {"rt": -1, "trial_type": "single-stim", "stimulus": "<p id=\"stim\">2</p>", "internal_node_id": "0.0-122.0-8.0", "time_elapsed": 702787, "key_press": -1, "trial_index": 166}, "uniqueid": "MTK2939:3DH6GAKTYZWYFKNNL0N5UMHB3E2ZY9", "dateTime": 1519595248932}, {"current_trial": 167, "trialdata": {"rt": -1, "trial_type": "single-stim", "stimulus": "<p id=\"stim\">1</p>", "internal_node_id": "0.0-122.0-9.0", "time_elapsed": 703791, "key_press": -1, "trial_index": 167}, "uniqueid": "MTK2939:3DH6GAKTYZWYFKNNL0N5UMHB3E2ZY9", "dateTime": 1519595249937}, {"current_trial": 168, "trialdata": {"rt": -1, "trial_type": "single-stim", "stimulus": "<p id=\"stim\">+</p>", "internal_node_id": "0.0-123.0-0.0", "time_elapsed": 705295, "key_press": -1, "type": "FIXATION", "trial_index": 168}, "uniqueid": "MTK2939:3DH6GAKTYZWYFKNNL0N5UMHB3E2ZY9", "dateTime": 1519595251440}, {"current_trial": 169, "trialdata": {"rt": -1, "trial_type": "single-stim", "word": "office", "stimulus": "<p id=\"stim\">OFFICE</p>", "conditions": [12, 800, "v", 24000], "internal_node_id": "0.0-124.0", "trial": 4, "time_elapsed": 706097, "serialpos": 0, "key_press": -1, "wordID": 971, "type": "PRES_VIS", "trial_index": 169}, "uniqueid": "MTK2939:3DH6GAKTYZWYFKNNL0N5UMHB3E2ZY9", "dateTime": 1519595252243}, {"current_trial": 170, "trialdata": {"rt": -1, "trial_type": "single-stim", "word": "sphinx", "stimulus": "<p id=\"stim\">SPHINX</p>", "conditions": [12, 800, "v", 24000], "internal_node_id": "0.0-125.0", "trial": 4, "time_elapsed": 707903, "serialpos": 1, "key_press": -1, "wordID": 1348, "type": "PRES_VIS", "trial_index": 170}, "uniqueid": "MTK2939:3DH6GAKTYZWYFKNNL0N5UMHB3E2ZY9", "dateTime": 1519595254048}, {"current_trial": 171, "trialdata": {"rt": -1, "trial_type": "single-stim", "word": "pliers", "stimulus": "<p id=\"stim\">PLIERS</p>", "conditions": [12, 800, "v", 24000], "internal_node_id": "0.0-126.0", "trial": 4, "time_elapsed": 709783, "serialpos": 2, "key_press": -1, "wordID": 1088, "type": "PRES_VIS", "trial_index": 171}, "uniqueid": "MTK2939:3DH6GAKTYZWYFKNNL0N5UMHB3E2ZY9", "dateTime": 1519595255928}, {"current_trial": 172, "trialdata": {"rt": -1, "trial_type": "single-stim", "word": "actor", "stimulus": "<p id=\"stim\">ACTOR</p>", "conditions": [12, 800, "v", 24000], "internal_node_id": "0.0-127.0", "trial": 4, "time_elapsed": 711432, "serialpos": 3, "key_press": -1, "wordID": 4, "type": "PRES_VIS", "trial_index": 172}, "uniqueid": "MTK2939:3DH6GAKTYZWYFKNNL0N5UMHB3E2ZY9", "dateTime": 1519595257577}, {"current_trial": 173, "trialdata": {"rt": -1, "trial_type": "single-stim", "word": "actress", "stimulus": "<p id=\"stim\">ACTRESS</p>", "conditions": [12, 800, "v", 24000], "internal_node_id": "0.0-128.0", "trial": 4, "time_elapsed": 713273, "serialpos": 4, "key_press": -1, "wordID": 5, "type": "PRES_VIS", "trial_index": 173}, "uniqueid": "MTK2939:3DH6GAKTYZWYFKNNL0N5UMHB3E2ZY9", "dateTime": 1519595259418}, {"current_trial": 174, "trialdata": {"rt": -1, "trial_type": "single-stim", "word": "arm", "stimulus": "<p id=\"stim\">ARM</p>", "conditions": [12, 800, "v", 24000], "internal_node_id": "0.0-129.0", "trial": 4, "time_elapsed": 715154, "serialpos": 5, "key_press": -1, "wordID": 37, "type": "PRES_VIS", "trial_index": 174}, "uniqueid": "MTK2939:3DH6GAKTYZWYFKNNL0N5UMHB3E2ZY9", "dateTime": 1519595261299}, {"current_trial": 175, "trialdata": {"rt": -1, "trial_type": "single-stim", "word": "wife", "stimulus": "<p id=\"stim\">WIFE</p>", "conditions": [12, 800, "v", 24000], "internal_node_id": "0.0-130.0", "trial": 4, "time_elapsed": 716778, "serialpos": 6, "key_press": -1, "wordID": 1608, "type": "PRES_VIS", "trial_index": 175}, "uniqueid": "MTK2939:3DH6GAKTYZWYFKNNL0N5UMHB3E2ZY9", "dateTime": 1519595262925}, {"current_trial": 176, "trialdata": {"rt": -1, "trial_type": "single-stim", "word": "luggage", "stimulus": "<p id=\"stim\">LUGGAGE</p>", "conditions": [12, 800, "v", 24000], "internal_node_id": "0.0-131.0", "trial": 4, "time_elapsed": 718406, "serialpos": 7, "key_press": -1, "wordID": 846, "type": "PRES_VIS", "trial_index": 176}, "uniqueid": "MTK2939:3DH6GAKTYZWYFKNNL0N5UMHB3E2ZY9", "dateTime": 1519595264551}, {"current_trial": 177, "trialdata": {"rt": -1, "trial_type": "single-stim", "word": "scallop", "stimulus": "<p id=\"stim\">SCALLOP</p>", "conditions": [12, 800, "v", 24000], "internal_node_id": "0.0-132.0", "trial": 4, "time_elapsed": 720355, "serialpos": 8, "key_press": -1, "wordID": 1241, "type": "PRES_VIS", "trial_index": 177}, "uniqueid": "MTK2939:3DH6GAKTYZWYFKNNL0N5UMHB3E2ZY9", "dateTime": 1519595266501}, {"current_trial": 178, "trialdata": {"rt": -1, "trial_type": "single-stim", "word": "plaster", "stimulus": "<p id=\"stim\">PLASTER</p>", "conditions": [12, 800, "v", 24000], "internal_node_id": "0.0-133.0", "trial": 4, "time_elapsed": 722063, "serialpos": 9, "key_press": -1, "wordID": 1084, "type": "PRES_VIS", "trial_index": 178}, "uniqueid": "MTK2939:3DH6GAKTYZWYFKNNL0N5UMHB3E2ZY9", "dateTime": 1519595268209}, {"current_trial": 179, "trialdata": {"rt": -1, "trial_type": "single-stim", "word": "tweezers", "stimulus": "<p id=\"stim\">TWEEZERS</p>", "conditions": [12, 800, "v", 24000], "internal_node_id": "0.0-134.0", "trial": 4, "time_elapsed": 723781, "serialpos": 10, "key_press": -1, "wordID": 1525, "type": "PRES_VIS", "trial_index": 179}, "uniqueid": "MTK2939:3DH6GAKTYZWYFKNNL0N5UMHB3E2ZY9", "dateTime": 1519595269926}, {"current_trial": 180, "trialdata": {"rt": -1, "trial_type": "single-stim", "word": "sheriff", "stimulus": "<p id=\"stim\">SHERIFF</p>", "conditions": [12, 800, "v", 24000], "internal_node_id": "0.0-135.0", "trial": 4, "time_elapsed": 725579, "serialpos": 11, "key_press": -1, "wordID": 1283, "type": "PRES_VIS", "trial_index": 180}, "uniqueid": "MTK2939:3DH6GAKTYZWYFKNNL0N5UMHB3E2ZY9", "dateTime": 1519595271724}, {"current_trial": 181, "trialdata": {"rt": -1, "trial_type": "single-stim", "stimulus": "", "internal_node_id": "0.0-136.0-0.0", "time_elapsed": 727693, "key_press": -1, "type": "PRE_RECALL_DELAY", "trial_index": 181}, "uniqueid": "MTK2939:3DH6GAKTYZWYFKNNL0N5UMHB3E2ZY9", "dateTime": 1519595273838}, {"current_trial": 182, "trialdata": {"rt": -1000, "trial_type": "single-audio", "stimulus": "/static/audio/400Hz.wav", "internal_node_id": "0.0-137.0", "time_elapsed": 728196, "key_press": -1, "type": "PRE_RECALL_ALERT", "trial_index": 182}, "uniqueid": "MTK2939:3DH6GAKTYZWYFKNNL0N5UMHB3E2ZY9", "dateTime": 1519595274341}, {"current_trial": 183, "trialdata": {"rt": [9098, 10950, 13599, 18608, 23622], "recwords": ["office", "pliers", "luggage", "sphinx", "armband"], "key_times": [8133, 8366, 8528, 8665, 8783, 8961, 9098, 9952, 10130, 10326, 10475, 10673, 10860, 10950, 11624, 12006, 12198, 12355, 12639, 12874, 13083, 13599, 15954, 16152, 16773, 17700, 17973, 18415, 18608, 22206, 22400, 22643, 22973, 23215, 23338, 23477, 23622, 59882], "trial_type": "free-recall", "conditions": [12, 800, "v", 24000], "internal_node_id": "0.0-138.0-0.0", "key_presses": [79, 70, 70, 73, 67, 69, 13, 80, 76, 73, 69, 82, 83, 13, 76, 85, 71, 71, 65, 71, 69, 13, 83, 80, 72, 73, 78, 88, 13, 65, 82, 77, 66, 65, 78, 68, 13, 76], "trial": 4, "time_elapsed": 788200, "type": "FREE_RECALL", "trial_index": 183}, "uniqueid": "MTK2939:3DH6GAKTYZWYFKNNL0N5UMHB3E2ZY9", "dateTime": 1519595334350}, {"current_trial": 184, "trialdata": {"rt": 942, "trial_type": "text", "internal_node_id": "0.0-139.0", "time_elapsed": 791149, "key_press": 32, "type": "INSTRUCTIONS", "trial_index": 184}, "uniqueid": "MTK2939:3DH6GAKTYZWYFKNNL0N5UMHB3E2ZY9", "dateTime": 1519595337294}, {"current_trial": 185, "trialdata": {"rt": [2116, 4503, 6315, 7811, 12191, 14599, 17123, 20310, 23458], "trial_type": "math-distractor", "key_times": [1652, 1969, 2116, 3701, 4292, 4503, 6181, 6315, 7486, 7669, 7811, 9594, 11532, 12191, 14201, 14441, 14599, 16420, 16998, 17123, 19672, 20130, 20310, 22982, 23322, 23458], "responses": ["14", "10", "7", "12", "17", "13", "17", "16", "14"], "num2": [9, 6, 3, 5, 9, 7, 4, 7, 9, 9], "num3": [1, 2, 3, 1, 4, 5, 8, 5, 1, 9], "conditions": [24, 1600, "v", 24000], "internal_node_id": "0.0-140.0", "key_presses": [49, 52, 13, 49, 48, 13, 55, 13, 49, 50, 13, 49, 55, 13, 49, 51, 13, 49, 55, 13, 49, 54, 13, 49, 52, 13], "trial": 5, "time_elapsed": 817155, "type": "DISTRACTOR", "trial_index": 185, "num1": [4, 2, 1, 6, 4, 1, 5, 4, 4, 5]}, "uniqueid": "MTK2939:3DH6GAKTYZWYFKNNL0N5UMHB3E2ZY9", "dateTime": 1519595363300}, {"current_trial": 186, "trialdata": {"rt": -1, "trial_type": "single-stim", "stimulus": "<p id=\"stim\">10</p>", "internal_node_id": "0.0-141.0-0.0", "time_elapsed": 820159, "key_press": -1, "trial_index": 186}, "uniqueid": "MTK2939:3DH6GAKTYZWYFKNNL0N5UMHB3E2ZY9", "dateTime": 1519595366304}, {"current_trial": 187, "trialdata": {"rt": -1, "trial_type": "single-stim", "stimulus": "<p id=\"stim\">9</p>", "internal_node_id": "0.0-141.0-1.0", "time_elapsed": 821165, "key_press": -1, "trial_index": 187}, "uniqueid": "MTK2939:3DH6GAKTYZWYFKNNL0N5UMHB3E2ZY9", "dateTime": 1519595367310}, {"current_trial": 188, "trialdata": {"rt": -1, "trial_type": "single-stim", "stimulus": "<p id=\"stim\">8</p>", "internal_node_id": "0.0-141.0-2.0", "time_elapsed": 822167, "key_press": -1, "trial_index": 188}, "uniqueid": "MTK2939:3DH6GAKTYZWYFKNNL0N5UMHB3E2ZY9", "dateTime": 1519595368312}, {"current_trial": 189, "trialdata": {"rt": -1, "trial_type": "single-stim", "stimulus": "<p id=\"stim\">7</p>", "internal_node_id": "0.0-141.0-3.0", "time_elapsed": 823169, "key_press": -1, "trial_index": 189}, "uniqueid": "MTK2939:3DH6GAKTYZWYFKNNL0N5UMHB3E2ZY9", "dateTime": 1519595369314}, {"current_trial": 190, "trialdata": {"rt": -1, "trial_type": "single-stim", "stimulus": "<p id=\"stim\">6</p>", "internal_node_id": "0.0-141.0-4.0", "time_elapsed": 824171, "key_press": -1, "trial_index": 190}, "uniqueid": "MTK2939:3DH6GAKTYZWYFKNNL0N5UMHB3E2ZY9", "dateTime": 1519595370317}, {"current_trial": 191, "trialdata": {"rt": -1, "trial_type": "single-stim", "stimulus": "<p id=\"stim\">5</p>", "internal_node_id": "0.0-141.0-5.0", "time_elapsed": 825175, "key_press": -1, "trial_index": 191}, "uniqueid": "MTK2939:3DH6GAKTYZWYFKNNL0N5UMHB3E2ZY9", "dateTime": 1519595371320}, {"current_trial": 192, "trialdata": {"rt": -1, "trial_type": "single-stim", "stimulus": "<p id=\"stim\">4</p>", "internal_node_id": "0.0-141.0-6.0", "time_elapsed": 826177, "key_press": -1, "trial_index": 192}, "uniqueid": "MTK2939:3DH6GAKTYZWYFKNNL0N5UMHB3E2ZY9", "dateTime": 1519595372322}, {"current_trial": 193, "trialdata": {"rt": -1, "trial_type": "single-stim", "stimulus": "<p id=\"stim\">3</p>", "internal_node_id": "0.0-141.0-7.0", "time_elapsed": 827179, "key_press": -1, "trial_index": 193}, "uniqueid": "MTK2939:3DH6GAKTYZWYFKNNL0N5UMHB3E2ZY9", "dateTime": 1519595373324}, {"current_trial": 194, "trialdata": {"rt": -1, "trial_type": "single-stim", "stimulus": "<p id=\"stim\">2</p>", "internal_node_id": "0.0-141.0-8.0", "time_elapsed": 828181, "key_press": -1, "trial_index": 194}, "uniqueid": "MTK2939:3DH6GAKTYZWYFKNNL0N5UMHB3E2ZY9", "dateTime": 1519595374327}, {"current_trial": 195, "trialdata": {"rt": -1, "trial_type": "single-stim", "stimulus": "<p id=\"stim\">1</p>", "internal_node_id": "0.0-141.0-9.0", "time_elapsed": 829184, "key_press": -1, "trial_index": 195}, "uniqueid": "MTK2939:3DH6GAKTYZWYFKNNL0N5UMHB3E2ZY9", "dateTime": 1519595375329}, {"current_trial": 196, "trialdata": {"rt": -1, "trial_type": "single-stim", "stimulus": "<p id=\"stim\">+</p>", "internal_node_id": "0.0-142.0-0.0", "time_elapsed": 830687, "key_press": -1, "type": "FIXATION", "trial_index": 196}, "uniqueid": "MTK2939:3DH6GAKTYZWYFKNNL0N5UMHB3E2ZY9", "dateTime": 1519595376832}, {"current_trial": 197, "trialdata": {"rt": -1, "trial_type": "single-stim", "word": "sponge", "stimulus": "<p id=\"stim\">SPONGE</p>", "conditions": [24, 1600, "v", 24000], "internal_node_id": "0.0-143.0", "trial": 5, "time_elapsed": 832290, "serialpos": 0, "key_press": -1, "wordID": 1354, "type": "PRES_VIS", "trial_index": 197}, "uniqueid": "MTK2939:3DH6GAKTYZWYFKNNL0N5UMHB3E2ZY9", "dateTime": 1519595378435}, {"current_trial": 198, "trialdata": {"rt": -1, "trial_type": "single-stim", "word": "japan", "stimulus": "<p id=\"stim\">JAPAN</p>", "conditions": [24, 1600, "v", 24000], "internal_node_id": "0.0-144.0", "trial": 5, "time_elapsed": 834979, "serialpos": 1, "key_press": -1, "wordID": 748, "type": "PRES_VIS", "trial_index": 198}, "uniqueid": "MTK2939:3DH6GAKTYZWYFKNNL0N5UMHB3E2ZY9", "dateTime": 1519595381125}, {"current_trial": 199, "trialdata": {"rt": -1, "trial_type": "single-stim", "word": "valley", "stimulus": "<p id=\"stim\">VALLEY</p>", "conditions": [24, 1600, "v", 24000], "internal_node_id": "0.0-145.0", "trial": 5, "time_elapsed": 837739, "serialpos": 2, "key_press": -1, "wordID": 1544, "type": "PRES_VIS", "trial_index": 199}, "uniqueid": "MTK2939:3DH6GAKTYZWYFKNNL0N5UMHB3E2ZY9", "dateTime": 1519595383884}, {"current_trial": 200, "trialdata": {"rt": -1, "trial_type": "single-stim", "word": "ghetto", "stimulus": "<p id=\"stim\">GHETTO</p>", "conditions": [24, 1600, "v", 24000], "internal_node_id": "0.0-146.0", "trial": 5, "time_elapsed": 840399, "serialpos": 3, "key_press": -1, "wordID": 632, "type": "PRES_VIS", "trial_index": 200}, "uniqueid": "MTK2939:3DH6GAKTYZWYFKNNL0N5UMHB3E2ZY9", "dateTime": 1519595386544}, {"current_trial": 201, "trialdata": {"rt": -1, "trial_type": "single-stim", "word": "razor", "stimulus": "<p id=\"stim\">RAZOR</p>", "conditions": [24, 1600, "v", 24000], "internal_node_id": "0.0-147.0", "trial": 5, "time_elapsed": 842874, "serialpos": 4, "key_press": -1, "wordID": 1170, "type": "PRES_VIS", "trial_index": 201}, "uniqueid": "MTK2939:3DH6GAKTYZWYFKNNL0N5UMHB3E2ZY9", "dateTime": 1519595389019}, {"current_trial": 202, "trialdata": {"rt": -1, "trial_type": "single-stim", "word": "blade", "stimulus": "<p id=\"stim\">BLADE</p>", "conditions": [24, 1600, "v", 24000], "internal_node_id": "0.0-148.0", "trial": 5, "time_elapsed": 845564, "serialpos": 5, "key_press": -1, "wordID": 133, "type": "PRES_VIS", "trial_index": 202}, "uniqueid": "MTK2939:3DH6GAKTYZWYFKNNL0N5UMHB3E2ZY9", "dateTime": 1519595391713}, {"current_trial": 203, "trialdata": {"rt": -1, "trial_type": "single-stim", "word": "award", "stimulus": "<p id=\"stim\">AWARD</p>", "conditions": [24, 1600, "v", 24000], "internal_node_id": "0.0-149.0", "trial": 5, "time_elapsed": 847981, "serialpos": 6, "key_press": -1, "wordID": 62, "type": "PRES_VIS", "trial_index": 203}, "uniqueid": "MTK2939:3DH6GAKTYZWYFKNNL0N5UMHB3E2ZY9", "dateTime": 1519595394126}, {"current_trial": 204, "trialdata": {"rt": -1, "trial_type": "single-stim", "word": "possum", "stimulus": "<p id=\"stim\">POSSUM</p>", "conditions": [24, 1600, "v", 24000], "internal_node_id": "0.0-150.0", "trial": 5, "time_elapsed": 850657, "serialpos": 7, "key_press": -1, "wordID": 1111, "type": "PRES_VIS", "trial_index": 204}, "uniqueid": "MTK2939:3DH6GAKTYZWYFKNNL0N5UMHB3E2ZY9", "dateTime": 1519595396802}, {"current_trial": 205, "trialdata": {"rt": -1, "trial_type": "single-stim", "word": "bacon", "stimulus": "<p id=\"stim\">BACON</p>", "conditions": [24, 1600, "v", 24000], "internal_node_id": "0.0-151.0", "trial": 5, "time_elapsed": 853268, "serialpos": 8, "key_press": -1, "wordID": 66, "type": "PRES_VIS", "trial_index": 205}, "uniqueid": "MTK2939:3DH6GAKTYZWYFKNNL0N5UMHB3E2ZY9", "dateTime": 1519595399414}, {"current_trial": 206, "trialdata": {"rt": -1, "trial_type": "single-stim", "word": "antler", "stimulus": "<p id=\"stim\">ANTLER</p>", "conditions": [24, 1600, "v", 24000], "internal_node_id": "0.0-152.0", "trial": 5, "time_elapsed": 855700, "serialpos": 9, "key_press": -1, "wordID": 28, "type": "PRES_VIS", "trial_index": 206}, "uniqueid": "MTK2939:3DH6GAKTYZWYFKNNL0N5UMHB3E2ZY9", "dateTime": 1519595401845}, {"current_trial": 207, "trialdata": {"rt": -1, "trial_type": "single-stim", "word": "lizard", "stimulus": "<p id=\"stim\">LIZARD</p>", "conditions": [24, 1600, "v", 24000], "internal_node_id": "0.0-153.0", "trial": 5, "time_elapsed": 858276, "serialpos": 10, "key_press": -1, "wordID": 833, "type": "PRES_VIS", "trial_index": 207}, "uniqueid": "MTK2939:3DH6GAKTYZWYFKNNL0N5UMHB3E2ZY9", "dateTime": 1519595404421}, {"current_trial": 208, "trialdata": {"rt": -1, "trial_type": "single-stim", "word": "powder", "stimulus": "<p id=\"stim\">POWDER</p>", "conditions": [24, 1600, "v", 24000], "internal_node_id": "0.0-154.0", "trial": 5, "time_elapsed": 860798, "serialpos": 11, "key_press": -1, "wordID": 1116, "type": "PRES_VIS", "trial_index": 208}, "uniqueid": "MTK2939:3DH6GAKTYZWYFKNNL0N5UMHB3E2ZY9", "dateTime": 1519595406943}, {"current_trial": 209, "trialdata": {"rt": -1, "trial_type": "single-stim", "word": "leopard", "stimulus": "<p id=\"stim\">LEOPARD</p>", "conditions": [24, 1600, "v", 24000], "internal_node_id": "0.0-155.0", "trial": 5, "time_elapsed": 863267, "serialpos": 12, "key_press": -1, "wordID": 811, "type": "PRES_VIS", "trial_index": 209}, "uniqueid": "MTK2939:3DH6GAKTYZWYFKNNL0N5UMHB3E2ZY9", "dateTime": 1519595409413}, {"current_trial": 210, "trialdata": {"rt": -1, "trial_type": "single-stim", "word": "mars", "stimulus": "<p id=\"stim\">MARS</p>", "conditions": [24, 1600, "v", 24000], "internal_node_id": "0.0-156.0", "trial": 5, "time_elapsed": 866035, "serialpos": 13, "key_press": -1, "wordID": 872, "type": "PRES_VIS", "trial_index": 210}, "uniqueid": "MTK2939:3DH6GAKTYZWYFKNNL0N5UMHB3E2ZY9", "dateTime": 1519595412180}, {"current_trial": 211, "trialdata": {"rt": -1, "trial_type": "single-stim", "word": "shovel", "stimulus": "<p id=\"stim\">SHOVEL</p>", "conditions": [24, 1600, "v", 24000], "internal_node_id": "0.0-157.0", "trial": 5, "time_elapsed": 868683, "serialpos": 14, "key_press": -1, "wordID": 1294, "type": "PRES_VIS", "trial_index": 211}, "uniqueid": "MTK2939:3DH6GAKTYZWYFKNNL0N5UMHB3E2ZY9", "dateTime": 1519595414828}, {"current_trial": 212, "trialdata": {"rt": -1, "trial_type": "single-stim", "word": "radish", "stimulus": "<p id=\"stim\">RADISH</p>", "conditions": [24, 1600, "v", 24000], "internal_node_id": "0.0-158.0", "trial": 5, "time_elapsed": 871308, "serialpos": 15, "key_press": -1, "wordID": 1157, "type": "PRES_VIS", "trial_index": 212}, "uniqueid": "MTK2939:3DH6GAKTYZWYFKNNL0N5UMHB3E2ZY9", "dateTime": 1519595417453}, {"current_trial": 213, "trialdata": {"rt": -1, "trial_type": "single-stim", "word": "fireplace", "stimulus": "<p id=\"stim\">FIREPLACE</p>", "conditions": [24, 1600, "v", 24000], "internal_node_id": "0.0-159.0", "trial": 5, "time_elapsed": 873793, "serialpos": 16, "key_press": -1, "wordID": 569, "type": "PRES_VIS", "trial_index": 213}, "uniqueid": "MTK2939:3DH6GAKTYZWYFKNNL0N5UMHB3E2ZY9", "dateTime": 1519595419938}, {"current_trial": 214, "trialdata": {"rt": -1, "trial_type": "single-stim", "word": "parsley", "stimulus": "<p id=\"stim\">PARSLEY</p>", "conditions": [24, 1600, "v", 24000], "internal_node_id": "0.0-160.0", "trial": 5, "time_elapsed": 876256, "serialpos": 17, "key_press": -1, "wordID": 1015, "type": "PRES_VIS", "trial_index": 214}, "uniqueid": "MTK2939:3DH6GAKTYZWYFKNNL0N5UMHB3E2ZY9", "dateTime": 1519595422401}, {"current_trial": 215, "trialdata": {"rt": -1, "trial_type": "single-stim", "word": "tart", "stimulus": "<p id=\"stim\">TART</p>", "conditions": [24, 1600, "v", 24000], "internal_node_id": "0.0-161.0", "trial": 5, "time_elapsed": 878756, "serialpos": 18, "key_press": -1, "wordID": 1435, "type": "PRES_VIS", "trial_index": 215}, "uniqueid": "MTK2939:3DH6GAKTYZWYFKNNL0N5UMHB3E2ZY9", "dateTime": 1519595424901}, {"current_trial": 216, "trialdata": {"rt": -1, "trial_type": "single-stim", "word": "flower", "stimulus": "<p id=\"stim\">FLOWER</p>", "conditions": [24, 1600, "v", 24000], "internal_node_id": "0.0-162.0", "trial": 5, "time_elapsed": 881450, "serialpos": 19, "key_press": -1, "wordID": 583, "type": "PRES_VIS", "trial_index": 216}, "uniqueid": "MTK2939:3DH6GAKTYZWYFKNNL0N5UMHB3E2ZY9", "dateTime": 1519595427596}, {"current_trial": 217, "trialdata": {"rt": -1, "trial_type": "single-stim", "word": "chapel", "stimulus": "<p id=\"stim\">CHAPEL</p>", "conditions": [24, 1600, "v", 24000], "internal_node_id": "0.0-163.0", "trial": 5, "time_elapsed": 883943, "serialpos": 20, "key_press": -1, "wordID": 279, "type": "PRES_VIS", "trial_index": 217}, "uniqueid": "MTK2939:3DH6GAKTYZWYFKNNL0N5UMHB3E2ZY9", "dateTime": 1519595430088}, {"current_trial": 218, "trialdata": {"rt": -1, "trial_type": "single-stim", "word": "kitchen", "stimulus": "<p id=\"stim\">KITCHEN</p>", "conditions": [24, 1600, "v", 24000], "internal_node_id": "0.0-164.0", "trial": 5, "time_elapsed": 886742, "serialpos": 21, "key_press": -1, "wordID": 777, "type": "PRES_VIS", "trial_index": 218}, "uniqueid": "MTK2939:3DH6GAKTYZWYFKNNL0N5UMHB3E2ZY9", "dateTime": 1519595432888}, {"current_trial": 219, "trialdata": {"rt": -1, "trial_type": "single-stim", "word": "sandwich", "stimulus": "<p id=\"stim\">SANDWICH</p>", "conditions": [24, 1600, "v", 24000], "internal_node_id": "0.0-165.0", "trial": 5, "time_elapsed": 889450, "serialpos": 22, "key_press": -1, "wordID": 1231, "type": "PRES_VIS", "trial_index": 219}, "uniqueid": "MTK2939:3DH6GAKTYZWYFKNNL0N5UMHB3E2ZY9", "dateTime": 1519595435595}, {"current_trial": 220, "trialdata": {"rt": -1, "trial_type": "single-stim", "word": "salad", "stimulus": "<p id=\"stim\">SALAD</p>", "conditions": [24, 1600, "v", 24000], "internal_node_id": "0.0-166.0", "trial": 5, "time_elapsed": 892124, "serialpos": 23, "key_press": -1, "wordID": 1223, "type": "PRES_VIS", "trial_index": 220}, "uniqueid": "MTK2939:3DH6GAKTYZWYFKNNL0N5UMHB3E2ZY9", "dateTime": 1519595438269}, {"current_trial": 221, "trialdata": {"rt": -1, "trial_type": "single-stim", "stimulus": "", "internal_node_id": "0.0-167.0-0.0", "time_elapsed": 894696, "key_press": -1, "type": "PRE_RECALL_DELAY", "trial_index": 221}, "uniqueid": "MTK2939:3DH6GAKTYZWYFKNNL0N5UMHB3E2ZY9", "dateTime": 1519595440841}, {"current_trial": 222, "trialdata": {"rt": -1000, "trial_type": "single-audio", "stimulus": "/static/audio/400Hz.wav", "internal_node_id": "0.0-168.0", "time_elapsed": 895197, "key_press": -1, "type": "PRE_RECALL_ALERT", "trial_index": 222}, "uniqueid": "MTK2939:3DH6GAKTYZWYFKNNL0N5UMHB3E2ZY9", "dateTime": 1519595441343}, {"current_trial": 223, "trialdata": {"rt": [1703, 3948, 5952, 9881, 11919, 13609, 15735, 21042, 22871, 25589], "recwords": ["kitchen", "sandwich", "salad", "possum", "japan", "valley", "ghetto", "razor", "blade", "sponge"], "key_times": [475, 736, 887, 1114, 1234, 1349, 1477, 1703, 2272, 2482, 2670, 2825, 3040, 3288, 3553, 3732, 3948, 4470, 4689, 5014, 5232, 5548, 5952, 8529, 8760, 8954, 9134, 9366, 9648, 9881, 10602, 10904, 11146, 11293, 11653, 11919, 12601, 12809, 12969, 13117, 13216, 13424, 13609, 14120, 14289, 14437, 15192, 15372, 15522, 15735, 18375, 18587, 18959, 19839, 20006, 21042, 21871, 22120, 22250, 22458, 22695, 22871, 24247, 24423, 24887, 25102, 25324, 25496, 25589], "trial_type": "free-recall", "conditions": [24, 1600, "v", 24000], "internal_node_id": "0.0-169.0-0.0", "key_presses": [75, 73, 84, 67, 72, 69, 78, 13, 83, 65, 78, 68, 87, 73, 67, 72, 13, 83, 65, 76, 65, 68, 13, 80, 79, 83, 83, 85, 77, 13, 74, 65, 80, 65, 78, 13, 86, 65, 76, 76, 69, 89, 13, 71, 72, 69, 84, 84, 79, 13, 82, 65, 90, 79, 82, 13, 66, 76, 65, 68, 69, 13, 83, 80, 79, 78, 71, 69, 13], "trial": 5, "time_elapsed": 955205, "type": "FREE_RECALL", "trial_index": 223}, "uniqueid": "MTK2939:3DH6GAKTYZWYFKNNL0N5UMHB3E2ZY9", "dateTime": 1519595501359}, {"current_trial": 224, "trialdata": {"rt": 1440, "trial_type": "text", "internal_node_id": "0.0-170.0", "time_elapsed": 958657, "key_press": 32, "type": "INSTRUCTIONS", "trial_index": 224}, "uniqueid": "MTK2939:3DH6GAKTYZWYFKNNL0N5UMHB3E2ZY9", "dateTime": 1519595504802}, {"current_trial": 225, "trialdata": {"rt": [2984, 4995, 7163, 10361], "trial_type": "math-distractor", "key_times": [2428, 2842, 2984, 4135, 4902, 4995, 6600, 7030, 7163, 9897, 10159, 10361, 11786, 11971], "responses": ["14", "18", "18", "20"], "num2": [9, 6, 6, 9, 5], "num3": [3, 6, 5, 4, 1], "conditions": [12, 1600, "v", 12000], "internal_node_id": "0.0-171.0", "key_presses": [49, 52, 13, 49, 56, 13, 49, 56, 13, 50, 48, 13, 49, 48], "trial": 6, "time_elapsed": 972663, "type": "DISTRACTOR", "trial_index": 225, "num1": [2, 6, 7, 7, 4]}, "uniqueid": "MTK2939:3DH6GAKTYZWYFKNNL0N5UMHB3E2ZY9", "dateTime": 1519595518808}, {"current_trial": 226, "trialdata": {"rt": -1, "trial_type": "single-stim", "stimulus": "<p id=\"stim\">10</p>", "internal_node_id": "0.0-172.0-0.0", "time_elapsed": 975666, "key_press": -1, "trial_index": 226}, "uniqueid": "MTK2939:3DH6GAKTYZWYFKNNL0N5UMHB3E2ZY9", "dateTime": 1519595521812}, {"current_trial": 227, "trialdata": {"rt": -1, "trial_type": "single-stim", "stimulus": "<p id=\"stim\">9</p>", "internal_node_id": "0.0-172.0-1.0", "time_elapsed": 976669, "key_press": -1, "trial_index": 227}, "uniqueid": "MTK2939:3DH6GAKTYZWYFKNNL0N5UMHB3E2ZY9", "dateTime": 1519595522814}, {"current_trial": 228, "trialdata": {"rt": -1, "trial_type": "single-stim", "stimulus": "<p id=\"stim\">8</p>", "internal_node_id": "0.0-172.0-2.0", "time_elapsed": 977672, "key_press": -1, "trial_index": 228}, "uniqueid": "MTK2939:3DH6GAKTYZWYFKNNL0N5UMHB3E2ZY9", "dateTime": 1519595523817}, {"current_trial": 229, "trialdata": {"rt": -1, "trial_type": "single-stim", "stimulus": "<p id=\"stim\">7</p>", "internal_node_id": "0.0-172.0-3.0", "time_elapsed": 978675, "key_press": -1, "trial_index": 229}, "uniqueid": "MTK2939:3DH6GAKTYZWYFKNNL0N5UMHB3E2ZY9", "dateTime": 1519595524820}, {"current_trial": 230, "trialdata": {"rt": -1, "trial_type": "single-stim", "stimulus": "<p id=\"stim\">6</p>", "internal_node_id": "0.0-172.0-4.0", "time_elapsed": 979678, "key_press": -1, "trial_index": 230}, "uniqueid": "MTK2939:3DH6GAKTYZWYFKNNL0N5UMHB3E2ZY9", "dateTime": 1519595525823}, {"current_trial": 231, "trialdata": {"rt": -1, "trial_type": "single-stim", "stimulus": "<p id=\"stim\">5</p>", "internal_node_id": "0.0-172.0-5.0", "time_elapsed": 980680, "key_press": -1, "trial_index": 231}, "uniqueid": "MTK2939:3DH6GAKTYZWYFKNNL0N5UMHB3E2ZY9", "dateTime": 1519595526826}, {"current_trial": 232, "trialdata": {"rt": -1, "trial_type": "single-stim", "stimulus": "<p id=\"stim\">4</p>", "internal_node_id": "0.0-172.0-6.0", "time_elapsed": 981683, "key_press": -1, "trial_index": 232}, "uniqueid": "MTK2939:3DH6GAKTYZWYFKNNL0N5UMHB3E2ZY9", "dateTime": 1519595527829}, {"current_trial": 233, "trialdata": {"rt": -1, "trial_type": "single-stim", "stimulus": "<p id=\"stim\">3</p>", "internal_node_id": "0.0-172.0-7.0", "time_elapsed": 982685, "key_press": -1, "trial_index": 233}, "uniqueid": "MTK2939:3DH6GAKTYZWYFKNNL0N5UMHB3E2ZY9", "dateTime": 1519595528830}, {"current_trial": 234, "trialdata": {"rt": -1, "trial_type": "single-stim", "stimulus": "<p id=\"stim\">2</p>", "internal_node_id": "0.0-172.0-8.0", "time_elapsed": 983688, "key_press": -1, "trial_index": 234}, "uniqueid": "MTK2939:3DH6GAKTYZWYFKNNL0N5UMHB3E2ZY9", "dateTime": 1519595529833}, {"current_trial": 235, "trialdata": {"rt": -1, "trial_type": "single-stim", "stimulus": "<p id=\"stim\">1</p>", "internal_node_id": "0.0-172.0-9.0", "time_elapsed": 984690, "key_press": -1, "trial_index": 235}, "uniqueid": "MTK2939:3DH6GAKTYZWYFKNNL0N5UMHB3E2ZY9", "dateTime": 1519595530836}, {"current_trial": 236, "trialdata": {"rt": -1, "trial_type": "single-stim", "stimulus": "<p id=\"stim\">+</p>", "internal_node_id": "0.0-173.0-0.0", "time_elapsed": 986192, "key_press": -1, "type": "FIXATION", "trial_index": 236}, "uniqueid": "MTK2939:3DH6GAKTYZWYFKNNL0N5UMHB3E2ZY9", "dateTime": 1519595532338}, {"current_trial": 237, "trialdata": {"rt": -1, "trial_type": "single-stim", "word": "pasta", "stimulus": "<p id=\"stim\">PASTA</p>", "conditions": [12, 1600, "v", 12000], "internal_node_id": "0.0-174.0", "trial": 6, "time_elapsed": 987796, "serialpos": 0, "key_press": -1, "wordID": 1020, "type": "PRES_VIS", "trial_index": 237}, "uniqueid": "MTK2939:3DH6GAKTYZWYFKNNL0N5UMHB3E2ZY9", "dateTime": 1519595533941}, {"current_trial": 238, "trialdata": {"rt": -1, "trial_type": "single-stim", "word": "penguin", "stimulus": "<p id=\"stim\">PENGUIN</p>", "conditions": [12, 1600, "v", 12000], "internal_node_id": "0.0-175.0", "trial": 6, "time_elapsed": 990351, "serialpos": 1, "key_press": -1, "wordID": 1043, "type": "PRES_VIS", "trial_index": 238}, "uniqueid": "MTK2939:3DH6GAKTYZWYFKNNL0N5UMHB3E2ZY9", "dateTime": 1519595536496}, {"current_trial": 239, "trialdata": {"rt": -1, "trial_type": "single-stim", "word": "lunch", "stimulus": "<p id=\"stim\">LUNCH</p>", "conditions": [12, 1600, "v", 12000], "internal_node_id": "0.0-176.0", "trial": 6, "time_elapsed": 992999, "serialpos": 2, "key_press": -1, "wordID": 848, "type": "PRES_VIS", "trial_index": 239}, "uniqueid": "MTK2939:3DH6GAKTYZWYFKNNL0N5UMHB3E2ZY9", "dateTime": 1519595539144}, {"current_trial": 240, "trialdata": {"rt": -1, "trial_type": "single-stim", "word": "wrench", "stimulus": "<p id=\"stim\">WRENCH</p>", "conditions": [12, 1600, "v", 12000], "internal_node_id": "0.0-177.0", "trial": 6, "time_elapsed": 995413, "serialpos": 3, "key_press": -1, "wordID": 1624, "type": "PRES_VIS", "trial_index": 240}, "uniqueid": "MTK2939:3DH6GAKTYZWYFKNNL0N5UMHB3E2ZY9", "dateTime": 1519595541558}, {"current_trial": 241, "trialdata": {"rt": -1, "trial_type": "single-stim", "word": "temple", "stimulus": "<p id=\"stim\">TEMPLE</p>", "conditions": [12, 1600, "v", 12000], "internal_node_id": "0.0-178.0", "trial": 6, "time_elapsed": 997818, "serialpos": 4, "key_press": -1, "wordID": 1447, "type": "PRES_VIS", "trial_index": 241}, "uniqueid": "MTK2939:3DH6GAKTYZWYFKNNL0N5UMHB3E2ZY9", "dateTime": 1519595543963}, {"current_trial": 242, "trialdata": {"rt": -1, "trial_type": "single-stim", "word": "river", "stimulus": "<p id=\"stim\">RIVER</p>", "conditions": [12, 1600, "v", 12000], "internal_node_id": "0.0-179.0", "trial": 6, "time_elapsed": 1000613, "serialpos": 5, "key_press": -1, "wordID": 1193, "type": "PRES_VIS", "trial_index": 242}, "uniqueid": "MTK2939:3DH6GAKTYZWYFKNNL0N5UMHB3E2ZY9", "dateTime": 1519595546759}, {"current_trial": 243, "trialdata": {"rt": -1, "trial_type": "single-stim", "word": "police", "stimulus": "<p id=\"stim\">POLICE</p>", "conditions": [12, 1600, "v", 12000], "internal_node_id": "0.0-180.0", "trial": 6, "time_elapsed": 1003088, "serialpos": 6, "key_press": -1, "wordID": 1097, "type": "PRES_VIS", "trial_index": 243}, "uniqueid": "MTK2939:3DH6GAKTYZWYFKNNL0N5UMHB3E2ZY9", "dateTime": 1519595549233}, {"current_trial": 244, "trialdata": {"rt": -1, "trial_type": "single-stim", "word": "baby", "stimulus": "<p id=\"stim\">BABY</p>", "conditions": [12, 1600, "v", 12000], "internal_node_id": "0.0-181.0", "trial": 6, "time_elapsed": 1005800, "serialpos": 7, "key_press": -1, "wordID": 63, "type": "PRES_VIS", "trial_index": 244}, "uniqueid": "MTK2939:3DH6GAKTYZWYFKNNL0N5UMHB3E2ZY9", "dateTime": 1519595551945}, {"current_trial": 245, "trialdata": {"rt": -1, "trial_type": "single-stim", "word": "girl", "stimulus": "<p id=\"stim\">GIRL</p>", "conditions": [12, 1600, "v", 12000], "internal_node_id": "0.0-182.0", "trial": 6, "time_elapsed": 1008514, "serialpos": 8, "key_press": -1, "wordID": 636, "type": "PRES_VIS", "trial_index": 245}, "uniqueid": "MTK2939:3DH6GAKTYZWYFKNNL0N5UMHB3E2ZY9", "dateTime": 1519595554659}, {"current_trial": 246, "trialdata": {"rt": -1, "trial_type": "single-stim", "word": "fox", "stimulus": "<p id=\"stim\">FOX</p>", "conditions": [12, 1600, "v", 12000], "internal_node_id": "0.0-183.0", "trial": 6, "time_elapsed": 1010981, "serialpos": 9, "key_press": -1, "wordID": 597, "type": "PRES_VIS", "trial_index": 246}, "uniqueid": "MTK2939:3DH6GAKTYZWYFKNNL0N5UMHB3E2ZY9", "dateTime": 1519595557127}, {"current_trial": 247, "trialdata": {"rt": -1, "trial_type": "single-stim", "word": "handbag", "stimulus": "<p id=\"stim\">HANDBAG</p>", "conditions": [12, 1600, "v", 12000], "internal_node_id": "0.0-184.0", "trial": 6, "time_elapsed": 1013476, "serialpos": 10, "key_press": -1, "wordID": 683, "type": "PRES_VIS", "trial_index": 247}, "uniqueid": "MTK2939:3DH6GAKTYZWYFKNNL0N5UMHB3E2ZY9", "dateTime": 1519595559621}, {"current_trial": 248, "trialdata": {"rt": -1, "trial_type": "single-stim", "word": "patrol", "stimulus": "<p id=\"stim\">PATROL</p>", "conditions": [12, 1600, "v", 12000], "internal_node_id": "0.0-185.0", "trial": 6, "time_elapsed": 1016187, "serialpos": 11, "key_press": -1, "wordID": 1026, "type": "PRES_VIS", "trial_index": 248}, "uniqueid": "MTK2939:3DH6GAKTYZWYFKNNL0N5UMHB3E2ZY9", "dateTime": 1519595562333}, {"current_trial": 249, "trialdata": {"rt": -1, "trial_type": "single-stim", "stimulus": "", "internal_node_id": "0.0-186.0-0.