{"assignmentId": "3YZ8UPK3VUT4QIS8JL68G3ADY67UC5", "workerId": "MTK2838", "questiondata": {"origin": "United States", "strat-rehearsal": "23", "marital": "Married/Domestic Partnership", "education": "Master's degree", "ethnicity": "Not Hispanic", "color_depth": 24, "distracted": "No", "wrote-notes": "Yes", "strat-other": "", "screen_width": 1440, "avail_screen_width": 1440, "avail_screen_height": 860, "strat-image": "90", "language": "English", "gender": "Female", "age": "32", "gender_other": "", "race": ["White"], "strat-categorize": "72", "pixel_depth": 24, "strat-spatial": "6", "strat-story": "15", "race_other": "", "screen_height": 900}, "bonus": 0, "hitId": "3BCRDCM0OD1ZKLG1PEK1ZWDLFGQ6KY", "counterbalance": 1006, "useragent": "Mozilla/5.0 (Windows NT 10.0; Win64; x64) AppleWebKit/537.36 (KHTML, like Gecko) Chrome/64.0.3282.167 Safari/537.36", "eventdata": [{"eventtype": "initialized", "interval": 0, "value": null, "timestamp": 1519414525161}, {"eventtype": "window_resize", "interval": 0, "value": [1436, 845], "timestamp": 1519414525161}, {"eventtype": "focus", "interval": 2892838, "value": "off", "timestamp": 1519417417999}, {"eventtype": "focus", "interval": 10334, "value": "on", "timestamp": 1519417428333}], "data": [{"current_trial": 0, "trialdata": {"rt": 2823, "trial_type": "text", "internal_node_id": "0.0-0.0", "time_elapsed": 2825, "key_press": 32, "type": "INSTRUCTIONS", "trial_index": 0}, "uniqueid": "MTK2838:3YZ8UPK3VUT4QIS8JL68G3ADY67UC5", "dateTime": 1519414528243}, {"current_trial": 1, "trialdata": {"rt": 9421, "trial_type": "text", "internal_node_id": "0.0-1.0", "time_elapsed": 12248, "key_press": 32, "type": "INSTRUCTIONS", "trial_index": 1}, "uniqueid": "MTK2838:3YZ8UPK3VUT4QIS8JL68G3ADY67UC5", "dateTime": 1519414537665}, {"current_trial": 2, "trialdata": {"rt": [16127], "trial_type": "audio-test", "responses": ["ocean"], "internal_node_id": "0.0-2.0", "time_elapsed": 28383, "type": "AUDIO_TEST", "trial_index": 2}, "uniqueid": "MTK2838:3YZ8UPK3VUT4QIS8JL68G3ADY67UC5", "dateTime": 1519414553799}, {"current_trial": 3, "trialdata": {"rt": [10374], "trial_type": "audio-test", "responses": ["crystal"], "internal_node_id": "0.0-3.0", "time_elapsed": 38761, "type": "AUDIO_TEST", "trial_index": 3}, "uniqueid": "MTK2838:3YZ8UPK3VUT4QIS8JL68G3ADY67UC5", "dateTime": 1519414564177}, {"current_trial": 4, "trialdata": {"rt": [7693], "trial_type": "audio-test", "responses": ["spice"], "internal_node_id": "0.0-4.0", "time_elapsed": 46456, "type": "AUDIO_TEST", "trial_index": 4}, "uniqueid": "MTK2838:3YZ8UPK3VUT4QIS8JL68G3ADY67UC5", "dateTime": 1519414571872}, {"current_trial": 5, "trialdata": {"rt": 17332, "trial_type": "survey-text", "responses": "{\"Q0\":\"9:30\",\"Q1\":\"5:15\",\"Q2\":\"5\"}", "internal_node_id": "0.0-5.0", "time_elapsed": 64540, "type": "SLEEP_SURVEY", "trial_index": 5}, "uniqueid": "MTK2838:3YZ8UPK3VUT4QIS8JL68G3ADY67UC5", "dateTime": 1519414589956}, {"current_trial": 6, "trialdata": {"rt": 28779, "trial_type": "text", "internal_node_id": "0.0-6.0", "time_elapsed": 94321, "key_press": 32, "type": "INSTRUCTIONS", "trial_index": 6}, "uniqueid": "MTK2838:3YZ8UPK3VUT4QIS8JL68G3ADY67UC5", "dateTime": 1519414619737}, {"current_trial": 7, "trialdata": {"rt": 13049, "trial_type": "text", "internal_node_id": "0.0-7.0", "time_elapsed": 107873, "key_press": 32, "type": "INSTRUCTIONS", "trial_index": 7}, "uniqueid": "MTK2838:3YZ8UPK3VUT4QIS8JL68G3ADY67UC5", "dateTime": 1519414633289}, {"current_trial": 8, "trialdata": {"rt": 6409, "trial_type": "text", "internal_node_id": "0.0-8.0", "time_elapsed": 114784, "key_press": 32, "type": "INSTRUCTIONS", "trial_index": 8}, "uniqueid": "MTK2838:3YZ8UPK3VUT4QIS8JL68G3ADY67UC5", "dateTime": 1519414640200}, {"current_trial": 9, "trialdata": {"rt": [9499, 17155], "trial_type": "math-distractor", "key_times": [3291, 3826, 7770, 9499, 16315, 16475, 17155], "responses": ["13 ", "23"], "num2": [2, 9, 8], "num3": [3, 8, 2], "conditions": [18, 1200, "v", 18000], "internal_node_id": "0.0-9.0", "key_presses": [49, 51, 32, 13, 50, 51, 13], "trial": 0, "time_elapsed": 133792, "type": "DISTRACTOR", "trial_index": 9, "num1": [8, 7, 7]}, "uniqueid": "MTK2838:3YZ8UPK3VUT4QIS8JL68G3ADY67UC5", "dateTime": 1519414659208}, {"current_trial": 10, "trialdata": {"rt": -1, "trial_type": "single-stim", "stimulus": "<p id=\"stim\">10</p>", "internal_node_id": "0.0-10.0-0.0", "time_elapsed": 136795, "key_press": -1, "trial_index": 10}, "uniqueid": "MTK2838:3YZ8UPK3VUT4QIS8JL68G3ADY67UC5", "dateTime": 1519414662211}, {"current_trial": 11, "trialdata": {"rt": -1, "trial_type": "single-stim", "stimulus": "<p id=\"stim\">9</p>", "internal_node_id": "0.0-10.0-1.0", "time_elapsed": 137796, "key_press": -1, "trial_index": 11}, "uniqueid": "MTK2838:3YZ8UPK3VUT4QIS8JL68G3ADY67UC5", "dateTime": 1519414663212}, {"current_trial": 12, "trialdata": {"rt": -1, "trial_type": "single-stim", "stimulus": "<p id=\"stim\">8</p>", "internal_node_id": "0.0-10.0-2.0", "time_elapsed": 138798, "key_press": -1, "trial_index": 12}, "uniqueid": "MTK2838:3YZ8UPK3VUT4QIS8JL68G3ADY67UC5", "dateTime": 1519414664214}, {"current_trial": 13, "trialdata": {"rt": -1, "trial_type": "single-stim", "stimulus": "<p id=\"stim\">7</p>", "internal_node_id": "0.0-10.0-3.0", "time_elapsed": 139799, "key_press": -1, "trial_index": 13}, "uniqueid": "MTK2838:3YZ8UPK3VUT4QIS8JL68G3ADY67UC5", "dateTime": 1519414665216}, {"current_trial": 14, "trialdata": {"rt": -1, "trial_type": "single-stim", "stimulus": "<p id=\"stim\">6</p>", "internal_node_id": "0.0-10.0-4.0", "time_elapsed": 140802, "key_press": -1, "trial_index": 14}, "uniqueid": "MTK2838:3YZ8UPK3VUT4QIS8JL68G3ADY67UC5", "dateTime": 1519414666218}, {"current_trial": 15, "trialdata": {"rt": -1, "trial_type": "single-stim", "stimulus": "<p id=\"stim\">5</p>", "internal_node_id": "0.0-10.0-5.0", "time_elapsed": 141804, "key_press": -1, "trial_index": 15}, "uniqueid": "MTK2838:3YZ8UPK3VUT4QIS8JL68G3ADY67UC5", "dateTime": 1519414667220}, {"current_trial": 16, "trialdata": {"rt": -1, "trial_type": "single-stim", "stimulus": "<p id=\"stim\">4</p>", "internal_node_id": "0.0-10.0-6.0", "time_elapsed": 142805, "key_press": -1, "trial_index": 16}, "uniqueid": "MTK2838:3YZ8UPK3VUT4QIS8JL68G3ADY67UC5", "dateTime": 1519414668221}, {"current_trial": 17, "trialdata": {"rt": -1, "trial_type": "single-stim", "stimulus": "<p id=\"stim\">3</p>", "internal_node_id": "0.0-10.0-7.0", "time_elapsed": 143808, "key_press": -1, "trial_index": 17}, "uniqueid": "MTK2838:3YZ8UPK3VUT4QIS8JL68G3ADY67UC5", "dateTime": 1519414669224}, {"current_trial": 18, "trialdata": {"rt": -1, "trial_type": "single-stim", "stimulus": "<p id=\"stim\">2</p>", "internal_node_id": "0.0-10.0-8.0", "time_elapsed": 144809, "key_press": -1, "trial_index": 18}, "uniqueid": "MTK2838:3YZ8UPK3VUT4QIS8JL68G3ADY67UC5", "dateTime": 1519414670225}, {"current_trial": 19, "trialdata": {"rt": -1, "trial_type": "single-stim", "stimulus": "<p id=\"stim\">1</p>", "internal_node_id": "0.0-10.0-9.0", "time_elapsed": 145810, "key_press": -1, "trial_index": 19}, "uniqueid": "MTK2838:3YZ8UPK3VUT4QIS8JL68G3ADY67UC5", "dateTime": 1519414671226}, {"current_trial": 20, "trialdata": {"rt": -1, "trial_type": "single-stim", "stimulus": "<p id=\"stim\">+</p>", "internal_node_id": "0.0-11.0-0.0", "time_elapsed": 147312, "key_press": -1, "type": "FIXATION", "trial_index": 20}, "uniqueid": "MTK2838:3YZ8UPK3VUT4QIS8JL68G3ADY67UC5", "dateTime": 1519414672728}, {"current_trial": 21, "trialdata": {"rt": -1, "trial_type": "single-stim", "word": "dragon", "stimulus": "<p id=\"stim\">DRAGON</p>", "conditions": [18, 1200, "v", 18000], "internal_node_id": "0.0-12.0", "trial": 0, "time_elapsed": 148513, "serialpos": 0, "key_press": -1, "wordID": 491, "type": "PRES_VIS", "trial_index": 21}, "uniqueid": "MTK2838:3YZ8UPK3VUT4QIS8JL68G3ADY67UC5", "dateTime": 1519414673929}, {"current_trial": 22, "trialdata": {"rt": -1, "trial_type": "single-stim", "word": "cattle", "stimulus": "<p id=\"stim\">CATTLE</p>", "conditions": [18, 1200, "v", 18000], "internal_node_id": "0.0-13.0", "trial": 0, "time_elapsed": 150669, "serialpos": 1, "key_press": -1, "wordID": 260, "type": "PRES_VIS", "trial_index": 22}, "uniqueid": "MTK2838:3YZ8UPK3VUT4QIS8JL68G3ADY67UC5", "dateTime": 1519414676085}, {"current_trial": 23, "trialdata": {"rt": -1, "trial_type": "single-stim", "word": "summit", "stimulus": "<p id=\"stim\">SUMMIT</p>", "conditions": [18, 1200, "v", 18000], "internal_node_id": "0.0-14.0", "trial": 0, "time_elapsed": 152674, "serialpos": 2, "key_press": -1, "wordID": 1404, "type": "PRES_VIS", "trial_index": 23}, "uniqueid": "MTK2838:3YZ8UPK3VUT4QIS8JL68G3ADY67UC5", "dateTime": 1519414678090}, {"current_trial": 24, "trialdata": {"rt": -1, "trial_type": "single-stim", "word": "husband", "stimulus": "<p id=\"stim\">HUSBAND</p>", "conditions": [18, 1200, "v", 18000], "internal_node_id": "0.0-15.0", "trial": 0, "time_elapsed": 154677, "serialpos": 3, "key_press": -1, "wordID": 727, "type": "PRES_VIS", "trial_index": 24}, "uniqueid": "MTK2838:3YZ8UPK3VUT4QIS8JL68G3ADY67UC5", "dateTime": 1519414680093}, {"current_trial": 25, "trialdata": {"rt": -1, "trial_type": "single-stim", "word": "rifle", "stimulus": "<p id=\"stim\">RIFLE</p>", "conditions": [18, 1200, "v", 18000], "internal_node_id": "0.0-16.0", "trial": 0, "time_elapsed": 157031, "serialpos": 4, "key_press": -1, "wordID": 1191, "type": "PRES_VIS", "trial_index": 25}, "uniqueid": "MTK2838:3YZ8UPK3VUT4QIS8JL68G3ADY67UC5", "dateTime": 1519414682447}, {"current_trial": 26, "trialdata": {"rt": -1, "trial_type": "single-stim", "word": "laser", "stimulus": "<p id=\"stim\">LASER</p>", "conditions": [18, 1200, "v", 18000], "internal_node_id": "0.0-17.0", "trial": 0, "time_elapsed": 159239, "serialpos": 5, "key_press": -1, "wordID": 800, "type": "PRES_VIS", "trial_index": 26}, "uniqueid": "MTK2838:3YZ8UPK3VUT4QIS8JL68G3ADY67UC5", "dateTime": 1519414684655}, {"current_trial": 27, "trialdata": {"rt": -1, "trial_type": "single-stim", "word": "crater", "stimulus": "<p id=\"stim\">CRATER</p>", "conditions": [18, 1200, "v", 18000], "internal_node_id": "0.0-18.0", "trial": 0, "time_elapsed": 161614, "serialpos": 6, "key_press": -1, "wordID": 399, "type": "PRES_VIS", "trial_index": 27}, "uniqueid": "MTK2838:3YZ8UPK3VUT4QIS8JL68G3ADY67UC5", "dateTime": 1519414687030}, {"current_trial": 28, "trialdata": {"rt": -1, "trial_type": "single-stim", "word": "cross", "stimulus": "<p id=\"stim\">CROSS</p>", "conditions": [18, 1200, "v", 18000], "internal_node_id": "0.0-19.0", "trial": 0, "time_elapsed": 163959, "serialpos": 7, "key_press": -1, "wordID": 412, "type": "PRES_VIS", "trial_index": 28}, "uniqueid": "MTK2838:3YZ8UPK3VUT4QIS8JL68G3ADY67UC5", "dateTime": 1519414689375}, {"current_trial": 29, "trialdata": {"rt": -1, "trial_type": "single-stim", "word": "notebook", "stimulus": "<p id=\"stim\">NOTEBOOK</p>", "conditions": [18, 1200, "v", 18000], "internal_node_id": "0.0-20.0", "trial": 0, "time_elapsed": 165988, "serialpos": 8, "key_press": -1, "wordID": 958, "type": "PRES_VIS", "trial_index": 29}, "uniqueid": "MTK2838:3YZ8UPK3VUT4QIS8JL68G3ADY67UC5", "dateTime": 1519414691404}, {"current_trial": 30, "trialdata": {"rt": -1, "trial_type": "single-stim", "word": "kitchen", "stimulus": "<p id=\"stim\">KITCHEN</p>", "conditions": [18, 1200, "v", 18000], "internal_node_id": "0.0-21.0", "trial": 0, "time_elapsed": 168268, "serialpos": 9, "key_press": -1, "wordID": 777, "type": "PRES_VIS", "trial_index": 30}, "uniqueid": "MTK2838:3YZ8UPK3VUT4QIS8JL68G3ADY67UC5", "dateTime": 1519414693684}, {"current_trial": 31, "trialdata": {"rt": -1, "trial_type": "single-stim", "word": "infant", "stimulus": "<p id=\"stim\">INFANT</p>", "conditions": [18, 1200, "v", 18000], "internal_node_id": "0.0-22.0", "trial": 0, "time_elapsed": 170647, "serialpos": 10, "key_press": -1, "wordID": 736, "type": "PRES_VIS", "trial_index": 31}, "uniqueid": "MTK2838:3YZ8UPK3VUT4QIS8JL68G3ADY67UC5", "dateTime": 1519414696063}, {"current_trial": 32, "trialdata": {"rt": -1, "trial_type": "single-stim", "word": "tombstone", "stimulus": "<p id=\"stim\">TOMBSTONE</p>", "conditions": [18, 1200, "v", 18000], "internal_node_id": "0.0-23.0", "trial": 0, "time_elapsed": 172829, "serialpos": 11, "key_press": -1, "wordID": 1477, "type": "PRES_VIS", "trial_index": 32}, "uniqueid": "MTK2838:3YZ8UPK3VUT4QIS8JL68G3ADY67UC5", "dateTime": 1519414698245}, {"current_trial": 33, "trialdata": {"rt": -1, "trial_type": "single-stim", "word": "yarn", "stimulus": "<p id=\"stim\">YARN</p>", "conditions": [18, 1200, "v", 18000], "internal_node_id": "0.0-24.0", "trial": 0, "time_elapsed": 174959, "serialpos": 12, "key_press": -1, "wordID": 1630, "type": "PRES_VIS", "trial_index": 33}, "uniqueid": "MTK2838:3YZ8UPK3VUT4QIS8JL68G3ADY67UC5", "dateTime": 1519414700375}, {"current_trial": 34, "trialdata": {"rt": -1, "trial_type": "single-stim", "word": "trombone", "stimulus": "<p id=\"stim\">TROMBONE</p>", "conditions": [18, 1200, "v", 18000], "internal_node_id": "0.0-25.0", "trial": 0, "time_elapsed": 177154, "serialpos": 13, "key_press": -1, "wordID": 1507, "type": "PRES_VIS", "trial_index": 34}, "uniqueid": "MTK2838:3YZ8UPK3VUT4QIS8JL68G3ADY67UC5", "dateTime": 1519414702570}, {"current_trial": 35, "trialdata": {"rt": -1, "trial_type": "single-stim", "word": "citrus", "stimulus": "<p id=\"stim\">CITRUS</p>", "conditions": [18, 1200, "v", 18000], "internal_node_id": "0.0-26.0", "trial": 0, "time_elapsed": 179447, "serialpos": 14, "key_press": -1, "wordID": 312, "type": "PRES_VIS", "trial_index": 35}, "uniqueid": "MTK2838:3YZ8UPK3VUT4QIS8JL68G3ADY67UC5", "dateTime": 1519414704863}, {"current_trial": 36, "trialdata": {"rt": -1, "trial_type": "single-stim", "word": "guard", "stimulus": "<p id=\"stim\">GUARD</p>", "conditions": [18, 1200, "v", 18000], "internal_node_id": "0.0-27.0", "trial": 0, "time_elapsed": 181479, "serialpos": 15, "key_press": -1, "wordID": 666, "type": "PRES_VIS", "trial_index": 36}, "uniqueid": "MTK2838:3YZ8UPK3VUT4QIS8JL68G3ADY67UC5", "dateTime": 1519414706896}, {"current_trial": 37, "trialdata": {"rt": -1, "trial_type": "single-stim", "word": "spoon", "stimulus": "<p id=\"stim\">SPOON</p>", "conditions": [18, 1200, "v", 18000], "internal_node_id": "0.0-28.0", "trial": 0, "time_elapsed": 183619, "serialpos": 16, "key_press": -1, "wordID": 1356, "type": "PRES_VIS", "trial_index": 37}, "uniqueid": "MTK2838:3YZ8UPK3VUT4QIS8JL68G3ADY67UC5", "dateTime": 1519414709035}, {"current_trial": 38, "trialdata": {"rt": -1, "trial_type": "single-stim", "word": "lettuce", "stimulus": "<p id=\"stim\">LETTUCE</p>", "conditions": [18, 1200, "v", 18000], "internal_node_id": "0.0-29.0", "trial": 0, "time_elapsed": 185913, "serialpos": 17, "key_press": -1, "wordID": 813, "type": "PRES_VIS", "trial_index": 38}, "uniqueid": "MTK2838:3YZ8UPK3VUT4QIS8JL68G3ADY67UC5", "dateTime": 1519414711329}, {"current_trial": 39, "trialdata": {"rt": -1, "trial_type": "single-stim", "stimulus": "", "internal_node_id": "0.0-30.0-0.0", "time_elapsed": 188096, "key_press": -1, "type": "PRE_RECALL_DELAY", "trial_index": 39}, "uniqueid": "MTK2838:3YZ8UPK3VUT4QIS8JL68G3ADY67UC5", "dateTime": 1519414713512}, {"current_trial": 40, "trialdata": {"rt": -1000, "trial_type": "single-audio", "stimulus": "/static/audio/400Hz.wav", "internal_node_id": "0.0-31.0", "time_elapsed": 188600, "key_press": -1, "type": "PRE_RECALL_ALERT", "trial_index": 40}, "uniqueid": "MTK2838:3YZ8UPK3VUT4QIS8JL68G3ADY67UC5", "dateTime": 1519414714016}, {"current_trial": 41, "trialdata": {"rt": [3479, 5358, 7014, 8414, 11750, 13734, 17942, 38751, 44832], "recwords": ["kitchen", "spoon", "lettuce", "summit", "cattle", "dragon", "trombone", "orange", "boulder"], "key_times": [1167, 1414, 1902, 2062, 2206, 2438, 2557, 2653, 2790, 3479, 4054, 4150, 4478, 4630, 4869, 5358, 5758, 5878, 6062, 6198, 6341, 6470, 6654, 7014, 7310, 7398, 7590, 7742, 7822, 7958, 8414, 10174, 10358, 10422, 10590, 10741, 10846, 11750, 12207, 12470, 12582, 12735, 12877, 12965, 13734, 16389, 16598, 16750, 16846, 17221, 17341, 17470, 17590, 17942, 36935, 37246, 37318, 37902, 38030, 38127, 38751, 43655, 43758, 43830, 43958, 44055, 44246, 44334, 44832], "trial_type": "free-recall", "conditions": [18, 1200, "v", 18000], "internal_node_id": "0.0-32.0-0.0", "key_presses": [75, 84, 8, 73, 84, 67, 72, 69, 78, 32, 83, 80, 79, 79, 78, 32, 76, 69, 84, 84, 85, 67, 69, 13, 83, 85, 77, 77, 73, 84, 13, 67, 65, 84, 84, 76, 69, 32, 68, 82, 65, 71, 79, 78, 32, 84, 82, 79, 77, 66, 79, 78, 69, 32, 79, 82, 65, 78, 71, 69, 32, 66, 79, 85, 76, 68, 69, 82, 32], "trial": 0, "time_elapsed": 248604, "type": "FREE_RECALL", "trial_index": 41}, "uniqueid": "MTK2838:3YZ8UPK3VUT4QIS8JL68G3ADY67UC5", "dateTime": 1519414774021}, {"current_trial": 42, "trialdata": {"rt": 1532, "trial_type": "text", "internal_node_id": "0.0-33.0", "time_elapsed": 252137, "key_press": 32, "type": "INSTRUCTIONS", "trial_index": 42}, "uniqueid": "MTK2838:3YZ8UPK3VUT4QIS8JL68G3ADY67UC5", "dateTime": 1519414777553}, {"current_trial": 43, "trialdata": {"rt": [9981, 15365], "trial_type": "math-distractor", "key_times": [5702, 5918, 6909, 9981, 14174, 14645, 15365], "responses": ["18 ", "14"], "num2": [8, 3, 3], "num3": [7, 8, 3], "conditions": [18, 1200, "v", 18000], "internal_node_id": "0.0-34.0", "key_presses": [49, 56, 32, 13, 49, 52, 13], "trial": 1, "time_elapsed": 272140, "type": "DISTRACTOR", "trial_index": 43, "num1": [3, 3, 8]}, "uniqueid": "MTK2838:3YZ8UPK3VUT4QIS8JL68G3ADY67UC5", "dateTime": 1519414797556}, {"current_trial": 44, "trialdata": {"rt": -1, "trial_type": "single-stim", "stimulus": "<p id=\"stim\">10</p>", "internal_node_id": "0.0-35.0-0.0", "time_elapsed": 275143, "key_press": -1, "trial_index": 44}, "uniqueid": "MTK2838:3YZ8UPK3VUT4QIS8JL68G3ADY67UC5", "dateTime": 1519414800559}, {"current_trial": 45, "trialdata": {"rt": -1, "trial_type": "single-stim", "stimulus": "<p id=\"stim\">9</p>", "internal_node_id": "0.0-35.0-1.0", "time_elapsed": 276143, "key_press": -1, "trial_index": 45}, "uniqueid": "MTK2838:3YZ8UPK3VUT4QIS8JL68G3ADY67UC5", "dateTime": 1519414801560}, {"current_trial": 46, "trialdata": {"rt": -1, "trial_type": "single-stim", "stimulus": "<p id=\"stim\">8</p>", "internal_node_id": "0.0-35.0-2.0", "time_elapsed": 277146, "key_press": -1, "trial_index": 46}, "uniqueid": "MTK2838:3YZ8UPK3VUT4QIS8JL68G3ADY67UC5", "dateTime": 1519414802562}, {"current_trial": 47, "trialdata": {"rt": -1, "trial_type": "single-stim", "stimulus": "<p id=\"stim\">7</p>", "internal_node_id": "0.0-35.0-3.0", "time_elapsed": 278147, "key_press": -1, "trial_index": 47}, "uniqueid": "MTK2838:3YZ8UPK3VUT4QIS8JL68G3ADY67UC5", "dateTime": 1519414803563}, {"current_trial": 48, "trialdata": {"rt": -1, "trial_type": "single-stim", "stimulus": "<p id=\"stim\">6</p>", "internal_node_id": "0.0-35.0-4.0", "time_elapsed": 279149, "key_press": -1, "trial_index": 48}, "uniqueid": "MTK2838:3YZ8UPK3VUT4QIS8JL68G3ADY67UC5", "dateTime": 1519414804565}, {"current_trial": 49, "trialdata": {"rt": -1, "trial_type": "single-stim", "stimulus": "<p id=\"stim\">5</p>", "internal_node_id": "0.0-35.0-5.0", "time_elapsed": 280151, "key_press": -1, "trial_index": 49}, "uniqueid": "MTK2838:3YZ8UPK3VUT4QIS8JL68G3ADY67UC5", "dateTime": 1519414805567}, {"current_trial": 50, "trialdata": {"rt": -1, "trial_type": "single-stim", "stimulus": "<p id=\"stim\">4</p>", "internal_node_id": "0.0-35.0-6.0", "time_elapsed": 281152, "key_press": -1, "trial_index": 50}, "uniqueid": "MTK2838:3YZ8UPK3VUT4QIS8JL68G3ADY67UC5", "dateTime": 1519414806568}, {"current_trial": 51, "trialdata": {"rt": -1, "trial_type": "single-stim", "stimulus": "<p id=\"stim\">3</p>", "internal_node_id": "0.0-35.0-7.0", "time_elapsed": 282154, "key_press": -1, "trial_index": 51}, "uniqueid": "MTK2838:3YZ8UPK3VUT4QIS8JL68G3ADY67UC5", "dateTime": 1519414807570}, {"current_trial": 52, "trialdata": {"rt": -1, "trial_type": "single-stim", "stimulus": "<p id=\"stim\">2</p>", "internal_node_id": "0.0-35.0-8.0", "time_elapsed": 283156, "key_press": -1, "trial_index": 52}, "uniqueid": "MTK2838:3YZ8UPK3VUT4QIS8JL68G3ADY67UC5", "dateTime": 1519414808572}, {"current_trial": 53, "trialdata": {"rt": -1, "trial_type": "single-stim", "stimulus": "<p id=\"stim\">1</p>", "internal_node_id": "0.0-35.0-9.0", "time_elapsed": 284157, "key_press": -1, "trial_index": 53}, "uniqueid": "MTK2838:3YZ8UPK3VUT4QIS8JL68G3ADY67UC5", "dateTime": 1519414809573}, {"current_trial": 54, "trialdata": {"rt": -1, "trial_type": "single-stim", "stimulus": "<p id=\"stim\">+</p>", "internal_node_id": "0.0-36.0-0.0", "time_elapsed": 285659, "key_press": -1, "type": "FIXATION", "trial_index": 54}, "uniqueid": "MTK2838:3YZ8UPK3VUT4QIS8JL68G3ADY67UC5", "dateTime": 1519414811075}, {"current_trial": 55, "trialdata": {"rt": -1, "trial_type": "single-stim", "word": "country", "stimulus": "<p id=\"stim\">COUNTRY</p>", "conditions": [18, 1200, "v", 18000], "internal_node_id": "0.0-37.0", "trial": 1, "time_elapsed": 286860, "serialpos": 0, "key_press": -1, "wordID": 387, "type": "PRES_VIS", "trial_index": 55}, "uniqueid": "MTK2838:3YZ8UPK3VUT4QIS8JL68G3ADY67UC5", "dateTime": 1519414812276}, {"current_trial": 56, "trialdata": {"rt": -1, "trial_type": "single-stim", "word": "transplant", "stimulus": "<p id=\"stim\">TRANSPLANT</p>", "conditions": [18, 1200, "v", 18000], "internal_node_id": "0.0-38.0", "trial": 1, "time_elapsed": 289120, "serialpos": 1, "key_press": -1, "wordID": 1495, "type": "PRES_VIS", "trial_index": 56}, "uniqueid": "MTK2838:3YZ8UPK3VUT4QIS8JL68G3ADY67UC5", "dateTime": 1519414814536}, {"current_trial": 57, "trialdata": {"rt": -1, "trial_type": "single-stim", "word": "comet", "stimulus": "<p id=\"stim\">COMET</p>", "conditions": [18, 1200, "v", 18000], "internal_node_id": "0.0-39.0", "trial": 1, "time_elapsed": 291326, "serialpos": 2, "key_press": -1, "wordID": 352, "type": "PRES_VIS", "trial_index": 57}, "uniqueid": "MTK2838:3YZ8UPK3VUT4QIS8JL68G3ADY67UC5", "dateTime": 1519414816742}, {"current_trial": 58, "trialdata": {"rt": -1, "trial_type": "single-stim", "word": "chipmunk", "stimulus": "<p id=\"stim\">CHIPMUNK</p>", "conditions": [18, 1200, "v", 18000], "internal_node_id": "0.0-40.0", "trial": 1, "time_elapsed": 293683, "serialpos": 3, "key_press": -1, "wordID": 303, "type": "PRES_VIS", "trial_index": 58}, "uniqueid": "MTK2838:3YZ8UPK3VUT4QIS8JL68G3ADY67UC5", "dateTime": 1519414819099}, {"current_trial": 59, "trialdata": {"rt": -1, "trial_type": "single-stim", "word": "pliers", "stimulus": "<p id=\"stim\">PLIERS</p>", "conditions": [18, 1200, "v", 18000], "internal_node_id": "0.0-41.0", "trial": 1, "time_elapsed": 295916, "serialpos": 4, "key_press": -1, "wordID": 1088, "type": "PRES_VIS", "trial_index": 59}, "uniqueid": "MTK2838:3YZ8UPK3VUT4QIS8JL68G3ADY67UC5", "dateTime": 1519414821332}, {"current_trial": 60, "trialdata": {"rt": -1, "trial_type": "single-stim", "word": "chest", "stimulus": "<p id=\"stim\">CHEST</p>", "conditions": [18, 1200, "v", 18000], "internal_node_id": "0.0-42.0", "trial": 1, "time_elapsed": 298251, "serialpos": 5, "key_press": -1, "wordID": 294, "type": "PRES_VIS", "trial_index": 60}, "uniqueid": "MTK2838:3YZ8UPK3VUT4QIS8JL68G3ADY67UC5", "dateTime": 1519414823668}, {"current_trial": 61, "trialdata": {"rt": -1, "trial_type": "single-stim", "word": "mammal", "stimulus": "<p id=\"stim\">MAMMAL</p>", "conditions": [18, 1200, "v", 18000], "internal_node_id": "0.0-43.0", "trial": 1, "time_elapsed": 300371, "serialpos": 6, "key_press": -1, "wordID": 860, "type": "PRES_VIS", "trial_index": 61}, "uniqueid": "MTK2838:3YZ8UPK3VUT4QIS8JL68G3ADY67UC5", "dateTime": 1519414825787}, {"current_trial": 62, "trialdata": {"rt": -1, "trial_type": "single-stim", "word": "napkin", "stimulus": "<p id=\"stim\">NAPKIN</p>", "conditions": [18, 1200, "v", 18000], "internal_node_id": "0.0-44.0", "trial": 1, "time_elapsed": 302758, "serialpos": 7, "key_press": -1, "wordID": 936, "type": "PRES_VIS", "trial_index": 62}, "uniqueid": "MTK2838:3YZ8UPK3VUT4QIS8JL68G3ADY67UC5", "dateTime": 1519414828174}, {"current_trial": 63, "trialdata": {"rt": -1, "trial_type": "single-stim", "word": "shoulder", "stimulus": "<p id=\"stim\">SHOULDER</p>", "conditions": [18, 1200, "v", 18000], "internal_node_id": "0.0-45.0", "trial": 1, "time_elapsed": 305134, "serialpos": 8, "key_press": -1, "wordID": 1293, "type": "PRES_VIS", "trial_index": 63}, "uniqueid": "MTK2838:3YZ8UPK3VUT4QIS8JL68G3ADY67UC5", "dateTime": 1519414830550}, {"current_trial": 64, "trialdata": {"rt": -1, "trial_type": "single-stim", "word": "agent", "stimulus": "<p id=\"stim\">AGENT</p>", "conditions": [18, 1200, "v", 18000], "internal_node_id": "0.0-46.0", "trial": 1, "time_elapsed": 307158, "serialpos": 9, "key_press": -1, "wordID": 9, "type": "PRES_VIS", "trial_index": 64}, "uniqueid": "MTK2838:3YZ8UPK3VUT4QIS8JL68G3ADY67UC5", "dateTime": 1519414832574}, {"current_trial": 65, "trialdata": {"rt": -1, "trial_type": "single-stim", "word": "quarter", "stimulus": "<p id=\"stim\">QUARTER</p>", "conditions": [18, 1200, "v", 18000], "internal_node_id": "0.0-47.0", "trial": 1, "time_elapsed": 309376, "serialpos": 10, "key_press": -1, "wordID": 1147, "type": "PRES_VIS", "trial_index": 65}, "uniqueid": "MTK2838:3YZ8UPK3VUT4QIS8JL68G3ADY67UC5", "dateTime": 1519414834792}, {"current_trial": 66, "trialdata": {"rt": -1, "trial_type": "single-stim", "word": "washer", "stimulus": "<p id=\"stim\">WASHER</p>", "conditions": [18, 1200, "v", 18000], "internal_node_id": "0.0-48.0", "trial": 1, "time_elapsed": 311655, "serialpos": 11, "key_press": -1, "wordID": 1591, "type": "PRES_VIS", "trial_index": 66}, "uniqueid": "MTK2838:3YZ8UPK3VUT4QIS8JL68G3ADY67UC5", "dateTime": 1519414837071}, {"current_trial": 67, "trialdata": {"rt": -1, "trial_type": "single-stim", "word": "bank", "stimulus": "<p id=\"stim\">BANK</p>", "conditions": [18, 1200, "v", 18000], "internal_node_id": "0.0-49.0", "trial": 1, "time_elapsed": 314005, "serialpos": 12, "key_press": -1, "wordID": 82, "type": "PRES_VIS", "trial_index": 67}, "uniqueid": "MTK2838:3YZ8UPK3VUT4QIS8JL68G3ADY67UC5", "dateTime": 1519414839421}, {"current_trial": 68, "trialdata": {"rt": -1, "trial_type": "single-stim", "word": "tuba", "stimulus": "<p id=\"stim\">TUBA</p>", "conditions": [18, 1200, "v", 18000], "internal_node_id": "0.0-50.0", "trial": 1, "time_elapsed": 316141, "serialpos": 13, "key_press": -1, "wordID": 1514, "type": "PRES_VIS", "trial_index": 68}, "uniqueid": "MTK2838:3YZ8UPK3VUT4QIS8JL68G3ADY67UC5", "dateTime": 1519414841560}, {"current_trial": 69, "trialdata": {"rt": -1, "trial_type": "single-stim", "word": "pocket", "stimulus": "<p id=\"stim\">POCKET</p>", "conditions": [18, 1200, "v", 18000], "internal_node_id": "0.0-51.0", "trial": 1, "time_elapsed": 318337, "serialpos": 14, "key_press": -1, "wordID": 1092, "type": "PRES_VIS", "trial_index": 69}, "uniqueid": "MTK2838:3YZ8UPK3VUT4QIS8JL68G3ADY67UC5", "dateTime": 1519414843754}, {"current_trial": 70, "trialdata": {"rt": -1, "trial_type": "single-stim", "word": "blackboard", "stimulus": "<p id=\"stim\">BLACKBOARD</p>", "conditions": [18, 1200, "v", 18000], "internal_node_id": "0.0-52.0", "trial": 1, "time_elapsed": 320555, "serialpos": 15, "key_press": -1, "wordID": 132, "type": "PRES_VIS", "trial_index": 70}, "uniqueid": "MTK2838:3YZ8UPK3VUT4QIS8JL68G3ADY67UC5", "dateTime": 1519414845972}, {"current_trial": 71, "trialdata": {"rt": -1, "trial_type": "single-stim", "word": "cousin", "stimulus": "<p id=\"stim\">COUSIN</p>", "conditions": [18, 1200, "v", 18000], "internal_node_id": "0.0-53.0", "trial": 1, "time_elapsed": 322581, "serialpos": 16, "key_press": -1, "wordID": 391, "type": "PRES_VIS", "trial_index": 71}, "uniqueid": "MTK2838:3YZ8UPK3VUT4QIS8JL68G3ADY67UC5", "dateTime": 1519414847997}, {"current_trial": 72, "trialdata": {"rt": -1, "trial_type": "single-stim", "word": "slope", "stimulus": "<p id=\"stim\">SLOPE</p>", "conditions": [18, 1200, "v", 18000], "internal_node_id": "0.0-54.0", "trial": 1, "time_elapsed": 324769, "serialpos": 17, "key_press": -1, "wordID": 1327, "type": "PRES_VIS", "trial_index": 72}, "uniqueid": "MTK2838:3YZ8UPK3VUT4QIS8JL68G3ADY67UC5", "dateTime": 1519414850185}, {"current_trial": 73, "trialdata": {"rt": -1, "trial_type": "single-stim", "stimulus": "", "internal_node_id": "0.0-55.0-0.0", "time_elapsed": 327224, "key_press": -1, "type": "PRE_RECALL_DELAY", "trial_index": 73}, "uniqueid": "MTK2838:3YZ8UPK3VUT4QIS8JL68G3ADY67UC5", "dateTime": 1519414852640}, {"current_trial": 74, "trialdata": {"rt": -1000, "trial_type": "single-audio", "stimulus": "/static/audio/400Hz.wav", "internal_node_id": "0.0-56.0", "time_elapsed": 327725, "key_press": -1, "type": "PRE_RECALL_ALERT", "trial_index": 74}, "uniqueid": "MTK2838:3YZ8UPK3VUT4QIS8JL68G3ADY67UC5", "dateTime": 1519414853141}, {"current_trial": 75, "trialdata": {"rt": [2818, 4833, 6626, 10739, 45116, 48450, 50555], "recwords": ["country", "tuba", "washer", "chipmunk", "space", "shoulder", "chest"], "key_times": [1571, 1650, 1746, 1947, 2042, 2234, 2322, 2818, 3730, 3875, 3979, 4467, 4833, 5875, 6003, 6099, 6210, 6322, 6418, 6626, 8842, 8931, 9338, 9442, 9930, 10146, 10370, 10458, 10739, 44156, 44283, 44443, 44563, 44787, 45116, 47539, 47618, 47723, 47835, 47914, 48027, 48202, 48282, 48450, 49884, 49994, 50099, 50234, 50355, 50555], "trial_type": "free-recall", "conditions": [18, 1200, "v", 18000], "internal_node_id": "0.0-57.0-0.0", "key_presses": [67, 79, 85, 78, 84, 82, 89, 13, 84, 85, 66, 65, 13, 87, 65, 83, 72, 69, 82, 13, 67, 72, 73, 80, 77, 85, 78, 75, 13, 83, 80, 65, 67, 69, 32, 83, 72, 79, 85, 76, 68, 69, 82, 13, 67, 72, 69, 83, 84, 13], "trial": 1, "time_elapsed": 387729, "type": "FREE_RECALL", "trial_index": 75}, "uniqueid": "MTK2838:3YZ8UPK3VUT4QIS8JL68G3ADY67UC5", "dateTime": 1519414913149}, {"current_trial": 76, "trialdata": {"rt": 2107, "trial_type": "text", "internal_node_id": "0.0-58.0", "time_elapsed": 391841, "key_press": 32, "type": "INSTRUCTIONS", "trial_index": 76}, "uniqueid": "MTK2838:3YZ8UPK3VUT4QIS8JL68G3ADY67UC5", "dateTime": 1519414917257}, {"current_trial": 77, "trialdata": {"rt": [3444, 8229, 12781, 18772, 21493], "trial_type": "math-distractor", "key_times": [2741, 2892, 3444, 7245, 7581, 8229, 11542, 11941, 12781, 16606, 18181, 18772, 20781, 20926, 21493], "responses": ["11", "15", "16", "16", "11"], "num2": [3, 8, 9, 8, 2, 5], "num3": [6, 4, 4, 7, 2, 3], "conditions": [24, 800, "v", 24000], "internal_node_id": "0.0-59.0", "key_presses": [49, 49, 13, 49, 53, 13, 49, 54, 13, 49, 54, 13, 49, 49, 13], "trial": 2, "time_elapsed": 416845, "type": "DISTRACTOR", "trial_index": 77, "num1": [2, 3, 3, 1, 7, 7]}, "uniqueid": "MTK2838:3YZ8UPK3VUT4QIS8JL68G3ADY67UC5", "dateTime": 1519414942262}, {"current_trial": 78, "trialdata": {"rt": -1, "trial_type": "single-stim", "stimulus": "<p id=\"stim\">10</p>", "internal_node_id": "0.0-60.0-0.0", "time_elapsed": 419848, "key_press": -1, "trial_index": 78}, "uniqueid": "MTK2838:3YZ8UPK3VUT4QIS8JL68G3ADY67UC5", "dateTime": 1519414945264}, {"current_trial": 79, "trialdata": {"rt": -1, "trial_type": "single-stim", "stimulus": "<p id=\"stim\">9</p>", "internal_node_id": "0.0-60.0-1.0", "time_elapsed": 420850, "key_press": -1, "trial_index": 79}, "uniqueid": "MTK2838:3YZ8UPK3VUT4QIS8JL68G3ADY67UC5", "dateTime": 1519414946266}, {"current_trial": 80, "trialdata": {"rt": -1, "trial_type": "single-stim", "stimulus": "<p id=\"stim\">8</p>", "internal_node_id": "0.0-60.0-2.0", "time_elapsed": 421851, "key_press": -1, "trial_index": 80}, "uniqueid": "MTK2838:3YZ8UPK3VUT4QIS8JL68G3ADY67UC5", "dateTime": 1519414947267}, {"current_trial": 81, "trialdata": {"rt": -1, "trial_type": "single-stim", "stimulus": "<p id=\"stim\">7</p>", "internal_node_id": "0.0-60.0-3.0", "time_elapsed": 422852, "key_press": -1, "trial_index": 81}, "uniqueid": "MTK2838:3YZ8UPK3VUT4QIS8JL68G3ADY67UC5", "dateTime": 1519414948268}, {"current_trial": 82, "trialdata": {"rt": -1, "trial_type": "single-stim", "stimulus": "<p id=\"stim\">6</p>", "internal_node_id": "0.0-60.0-4.0", "time_elapsed": 423853, "key_press": -1, "trial_index": 82}, "uniqueid": "MTK2838:3YZ8UPK3VUT4QIS8JL68G3ADY67UC5", "dateTime": 1519414949270}, {"current_trial": 83, "trialdata": {"rt": -1, "trial_type": "single-stim", "stimulus": "<p id=\"stim\">5</p>", "internal_node_id": "0.0-60.0-5.0", "time_elapsed": 424855, "key_press": -1, "trial_index": 83}, "uniqueid": "MTK2838:3YZ8UPK3VUT4QIS8JL68G3ADY67UC5", "dateTime": 1519414950271}, {"current_trial": 84, "trialdata": {"rt": -1, "trial_type": "single-stim", "stimulus": "<p id=\"stim\">4</p>", "internal_node_id": "0.0-60.0-6.0", "time_elapsed": 425856, "key_press": -1, "trial_index": 84}, "uniqueid": "MTK2838:3YZ8UPK3VUT4QIS8JL68G3ADY67UC5", "dateTime": 1519414951272}, {"current_trial": 85, "trialdata": {"rt": -1, "trial_type": "single-stim", "stimulus": "<p id=\"stim\">3</p>", "internal_node_id": "0.0-60.0-7.0", "time_elapsed": 426858, "key_press": -1, "trial_index": 85}, "uniqueid": "MTK2838:3YZ8UPK3VUT4QIS8JL68G3ADY67UC5", "dateTime": 1519414952274}, {"current_trial": 86, "trialdata": {"rt": -1, "trial_type": "single-stim", "stimulus": "<p id=\"stim\">2</p>", "internal_node_id": "0.0-60.0-8.0", "time_elapsed": 427860, "key_press": -1, "trial_index": 86}, "uniqueid": "MTK2838:3YZ8UPK3VUT4QIS8JL68G3ADY67UC5", "dateTime": 1519414953276}, {"current_trial": 87, "trialdata": {"rt": -1, "trial_type": "single-stim", "stimulus": "<p id=\"stim\">1</p>", "internal_node_id": "0.0-60.0-9.0", "time_elapsed": 428861, "key_press": -1, "trial_index": 87}, "uniqueid": "MTK2838:3YZ8UPK3VUT4QIS8JL68G3ADY67UC5", "dateTime": 1519414954278}, {"current_trial": 88, "trialdata": {"rt": -1, "trial_type": "single-stim", "stimulus": "<p id=\"stim\">+</p>", "internal_node_id": "0.0-61.0-0.0", "time_elapsed": 430363, "key_press": -1, "type": "FIXATION", "trial_index": 88}, "uniqueid": "MTK2838:3YZ8UPK3VUT4QIS8JL68G3ADY67UC5", "dateTime": 1519414955779}, {"current_trial": 89, "trialdata": {"rt": -1, "trial_type": "single-stim", "word": "relish", "stimulus": "<p id=\"stim\">RELISH</p>", "conditions": [24, 800, "v", 24000], "internal_node_id": "0.0-62.0", "trial": 2, "time_elapsed": 431165, "serialpos": 0, "key_press": -1, "wordID": 1182, "type": "PRES_VIS", "trial_index": 89}, "uniqueid": "MTK2838:3YZ8UPK3VUT4QIS8JL68G3ADY67UC5", "dateTime": 1519414956581}, {"current_trial": 90, "trialdata": {"rt": -1, "trial_type": "single-stim", "word": "bug", "stimulus": "<p id=\"stim\">BUG</p>", "conditions": [24, 800, "v", 24000], "internal_node_id": "0.0-63.0", "trial": 2, "time_elapsed": 433150, "serialpos": 1, "key_press": -1, "wordID": 186, "type": "PRES_VIS", "trial_index": 90}, "uniqueid": "MTK2838:3YZ8UPK3VUT4QIS8JL68G3ADY67UC5", "dateTime": 1519414958567}, {"current_trial": 91, "trialdata": {"rt": -1, "trial_type": "single-stim", "word": "fungus", "stimulus": "<p id=\"stim\">FUNGUS</p>", "conditions": [24, 800, "v", 24000], "internal_node_id": "0.0-64.0", "trial": 2, "time_elapsed": 435095, "serialpos": 2, "key_press": -1, "wordID": 613, "type": "PRES_VIS", "trial_index": 91}, "uniqueid": "MTK2838:3YZ8UPK3VUT4QIS8JL68G3ADY67UC5", "dateTime": 1519414960511}, {"current_trial": 92, "trialdata": {"rt": -1, "trial_type": "single-stim", "word": "ankle", "stimulus": "<p id=\"stim\">ANKLE</p>", "conditions": [24, 800, "v", 24000], "internal_node_id": "0.0-65.0", "trial": 2, "time_elapsed": 437089, "serialpos": 3, "key_press": -1, "wordID": 23, "type": "PRES_VIS", "trial_index": 92}, "uniqueid": "MTK2838:3YZ8UPK3VUT4QIS8JL68G3ADY67UC5", "dateTime": 1519414962505}, {"current_trial": 93, "trialdata": {"rt": -1, "trial_type": "single-stim", "word": "typist", "stimulus": "<p id=\"stim\">TYPIST</p>", "conditions": [24, 800, "v", 24000], "internal_node_id": "0.0-66.0", "trial": 2, "time_elapsed": 438935, "serialpos": 4, "key_press": -1, "wordID": 1531, "type": "PRES_VIS", "trial_index": 93}, "uniqueid": "MTK2838:3YZ8UPK3VUT4QIS8JL68G3ADY67UC5", "dateTime": 1519414964351}, {"current_trial": 94, "trialdata": {"rt": -1, "trial_type": "single-stim", "word": "female", "stimulus": "<p id=\"stim\">FEMALE</p>", "conditions": [24, 800, "v", 24000], "internal_node_id": "0.0-67.0", "trial": 2, "time_elapsed": 440742, "serialpos": 5, "key_press": -1, "wordID": 558, "type": "PRES_VIS", "trial_index": 94}, "uniqueid": "MTK2838:3YZ8UPK3VUT4QIS8JL68G3ADY67UC5", "dateTime": 1519414966159}, {"current_trial": 95, "trialdata": {"rt": -1, "trial_type": "single-stim", "word": "ground", "stimulus": "<p id=\"stim\">GROUND</p>", "conditions": [24, 800, "v", 24000], "internal_node_id": "0.0-68.0", "trial": 2, "time_elapsed": 442650, "serialpos": 6, "key_press": -1, "wordID": 665, "type": "PRES_VIS", "trial_index": 95}, "uniqueid": "MTK2838:3YZ8UPK3VUT4QIS8JL68G3ADY67UC5", "dateTime": 1519414968066}, {"current_trial": 96, "trialdata": {"rt": -1, "trial_type": "single-stim", "word": "suitcase", "stimulus": "<p id=\"stim\">SUITCASE</p>", "conditions": [24, 800, "v", 24000], "internal_node_id": "0.0-69.0", "trial": 2, "time_elapsed": 444411, "serialpos": 7, "key_press": -1, "wordID": 1402, "type": "PRES_VIS", "trial_index": 96}, "uniqueid": "MTK2838:3YZ8UPK3VUT4QIS8JL68G3ADY67UC5", "dateTime": 1519414969827}, {"current_trial": 97, "trialdata": {"rt": -1, "trial_type": "single-stim", "word": "sidewalk", "stimulus": "<p id=\"stim\">SIDEWALK</p>", "conditions": [24, 800, "v", 24000], "internal_node_id": "0.0-70.0", "trial": 2, "time_elapsed": 446086, "serialpos": 8, "key_press": -1, "wordID": 1302, "type": "PRES_VIS", "trial_index": 97}, "uniqueid": "MTK2838:3YZ8UPK3VUT4QIS8JL68G3ADY67UC5", "dateTime": 1519414971502}, {"current_trial": 98, "trialdata": {"rt": -1, "trial_type": "single-stim", "word": "plaza", "stimulus": "<p id=\"stim\">PLAZA</p>", "conditions": [24, 800, "v", 24000], "internal_node_id": "0.0-71.0", "trial": 2, "time_elapsed": 448062, "serialpos": 9, "key_press": -1, "wordID": 1087, "type": "PRES_VIS", "trial_index": 98}, "uniqueid": "MTK2838:3YZ8UPK3VUT4QIS8JL68G3ADY67UC5", "dateTime": 1519414973478}, {"current_trial": 99, "trialdata": {"rt": -1, "trial_type": "single-stim", "word": "breast", "stimulus": "<p id=\"stim\">BREAST</p>", "conditions": [24, 800, "v", 24000], "internal_node_id": "0.0-72.0", "trial": 2, "time_elapsed": 449838, "serialpos": 10, "key_press": -1, "wordID": 170, "type": "PRES_VIS", "trial_index": 99}, "uniqueid": "MTK2838:3YZ8UPK3VUT4QIS8JL68G3ADY67UC5", "dateTime": 1519414975254}, {"current_trial": 100, "trialdata": {"rt": -1, "trial_type": "single-stim", "word": "briefcase", "stimulus": "<p id=\"stim\">BRIEFCASE</p>", "conditions": [24, 800, "v", 24000], "internal_node_id": "0.0-73.0", "trial": 2, "time_elapsed": 451516, "serialpos": 11, "key_press": -1, "wordID": 174, "type": "PRES_VIS", "trial_index": 100}, "uniqueid": "MTK2838:3YZ8UPK3VUT4QIS8JL68G3ADY67UC5", "dateTime": 1519414976932}, {"current_trial": 101, "trialdata": {"rt": -1, "trial_type": "single-stim", "word": "shirt", "stimulus": "<p id=\"stim\">SHIRT</p>", "conditions": [24, 800, "v", 24000], "internal_node_id": "0.0-74.0", "trial": 2, "time_elapsed": 453325, "serialpos": 12, "key_press": -1, "wordID": 1286, "type": "PRES_VIS", "trial_index": 101}, "uniqueid": "MTK2838:3YZ8UPK3VUT4QIS8JL68G3ADY67UC5", "dateTime": 1519414978741}, {"current_trial": 102, "trialdata": {"rt": -1, "trial_type": "single-stim", "word": "server", "stimulus": "<p id=\"stim\">SERVER</p>", "conditions": [24, 800, "v", 24000], "internal_node_id": "0.0-75.0", "trial": 2, "time_elapsed": 455268, "serialpos": 13, "key_press": -1, "wordID": 1271, "type": "PRES_VIS", "trial_index": 102}, "uniqueid": "MTK2838:3YZ8UPK3VUT4QIS8JL68G3ADY67UC5", "dateTime": 1519414980684}, {"current_trial": 103, "trialdata": {"rt": -1, "trial_type": "single-stim", "word": "sunrise", "stimulus": "<p id=\"stim\">SUNRISE</p>", "conditions": [24, 800, "v", 24000], "internal_node_id": "0.0-76.0", "trial": 2, "time_elapsed": 457119, "serialpos": 14, "key_press": -1, "wordID": 1406, "type": "PRES_VIS", "trial_index": 103}, "uniqueid": "MTK2838:3YZ8UPK3VUT4QIS8JL68G3ADY67UC5", "dateTime": 1519414982535}, {"current_trial": 104, "trialdata": {"rt": -1, "trial_type": "single-stim", "word": "sunset", "stimulus": "<p id=\"stim\">SUNSET</p>", "conditions": [24, 800, "v", 24000], "internal_node_id": "0.0-77.0", "trial": 2, "time_elapsed": 459018, "serialpos": 15, "key_press": -1, "wordID": 1407, "type": "PRES_VIS", "trial_index": 104}, "uniqueid": "MTK2838:3YZ8UPK3VUT4QIS8JL68G3ADY67UC5", "dateTime": 1519414984434}, {"current_trial": 105, "trialdata": {"rt": -1, "trial_type": "single-stim", "word": "permit", "stimulus": "<p id=\"stim\">PERMIT</p>", "conditions": [24, 800, "v", 24000], "internal_node_id": "0.0-78.0", "trial": 2, "time_elapsed": 460916, "serialpos": 16, "key_press": -1, "wordID": 1050, "type": "PRES_VIS", "trial_index": 105}, "uniqueid": "MTK2838:3YZ8UPK3VUT4QIS8JL68G3ADY67UC5", "dateTime": 1519414986332}, {"current_trial": 106, "trialdata": {"rt": -1, "trial_type": "single-stim", "word": "match", "stimulus": "<p id=\"stim\">MATCH</p>", "conditions": [24, 800, "v", 24000], "internal_node_id": "0.0-79.0", "trial": 2, "time_elapsed": 462671, "serialpos": 17, "key_press": -1, "wordID": 877, "type": "PRES_VIS", "trial_index": 106}, "uniqueid": "MTK2838:3YZ8UPK3VUT4QIS8JL68G3ADY67UC5", "dateTime": 1519414988088}, {"current_trial": 107, "trialdata": {"rt": -1, "trial_type": "single-stim", "word": "money", "stimulus": "<p id=\"stim\">MONEY</p>", "conditions": [24, 800, "v", 24000], "internal_node_id": "0.0-80.0", "trial": 2, "time_elapsed": 464644, "serialpos": 18, "key_press": -1, "wordID": 907, "type": "PRES_VIS", "trial_index": 107}, "uniqueid": "MTK2838:3YZ8UPK3VUT4QIS8JL68G3ADY67UC5", "dateTime": 1519414990060}, {"current_trial": 108, "trialdata": {"rt": -1, "trial_type": "single-stim", "word": "gift", "stimulus": "<p id=\"stim\">GIFT</p>", "conditions": [24, 800, "v", 24000], "internal_node_id": "0.0-81.0", "trial": 2, "time_elapsed": 466391, "serialpos": 19, "key_press": -1, "wordID": 634, "type": "PRES_VIS", "trial_index": 108}, "uniqueid": "MTK2838:3YZ8UPK3VUT4QIS8JL68G3ADY67UC5", "dateTime": 1519414991807}, {"current_trial": 109, "trialdata": {"rt": -1, "trial_type": "single-stim", "word": "racket", "stimulus": "<p id=\"stim\">RACKET</p>", "conditions": [24, 800, "v", 24000], "internal_node_id": "0.0-82.0", "trial": 2, "time_elapsed": 468101, "serialpos": 20, "key_press": -1, "wordID": 1154, "type": "PRES_VIS", "trial_index": 109}, "uniqueid": "MTK2838:3YZ8UPK3VUT4QIS8JL68G3ADY67UC5", "dateTime": 1519414993518}, {"current_trial": 110, "trialdata": {"rt": -1, "trial_type": "single-stim", "word": "scarf", "stimulus": "<p id=\"stim\">SCARF</p>", "conditions": [24, 800, "v", 24000], "internal_node_id": "0.0-83.0", "trial": 2, "time_elapsed": 470079, "serialpos": 21, "key_press": -1, "wordID": 1245, "type": "PRES_VIS", "trial_index": 110}, "uniqueid": "MTK2838:3YZ8UPK3VUT4QIS8JL68G3ADY67UC5", "dateTime": 1519414995495}, {"current_trial": 111, "trialdata": {"rt": -1, "trial_type": "single-stim", "word": "donor", "stimulus": "<p id=\"stim\">DONOR</p>", "conditions": [24, 800, "v", 24000], "internal_node_id": "0.0-84.0", "trial": 2, "time_elapsed": 471944, "serialpos": 22, "key_press": -1, "wordID": 484, "type": "PRES_VIS", "trial_index": 111}, "uniqueid": "MTK2838:3YZ8UPK3VUT4QIS8JL68G3ADY67UC5", "dateTime": 1519414997360}, {"current_trial": 112, "trialdata": {"rt": -1, "trial_type": "single-stim", "word": "fragrance", "stimulus": "<p id=\"stim\">FRAGRANCE</p>", "conditions": [24, 800, "v", 24000], "internal_node_id": "0.0-85.0", "trial": 2, "time_elapsed": 473763, "serialpos": 23, "key_press": -1, "wordID": 598, "type": "PRES_VIS", "trial_index": 112}, "uniqueid": "MTK2838:3YZ8UPK3VUT4QIS8JL68G3ADY67UC5", "dateTime": 1519414999179}, {"current_trial": 113, "trialdata": {"rt": -1, "trial_type": "single-stim", "stimulus": "", "internal_node_id": "0.0-86.0-0.0", "time_elapsed": 476216, "key_press": -1, "type": "PRE_RECALL_DELAY", "trial_index": 113}, "uniqueid": "MTK2838:3YZ8UPK3VUT4QIS8JL68G3ADY67UC5", "dateTime": 1519415001632}, {"current_trial": 114, "trialdata": {"rt": -1000, "trial_type": "single-audio", "stimulus": "/static/audio/400Hz.wav", "internal_node_id": "0.0-87.0", "time_elapsed": 476717, "key_press": -1, "type": "PRE_RECALL_ALERT", "trial_index": 114}, "uniqueid": "MTK2838:3YZ8UPK3VUT4QIS8JL68G3ADY67UC5", "dateTime": 1519415002133}, {"current_trial": 115, "trialdata": {"rt": [3075, 5835, 7602, 11051, 12291, 15154, 17242, 19058, 20626, 22154, 26626, 29954], "recwords": ["gift", "sunset", "money", "sunrise", "shirt", "female", "typist", "fungus", "bug", "relish", "suitcase", "money"], "key_times": [1979, 2466, 2571, 2754, 3075, 3971, 4082, 4250, 4347, 4466, 4650, 5835, 6387, 6507, 6587, 6706, 6834, 7602, 9282, 9387, 9563, 9763, 9851, 9963, 10034, 11051, 11394, 11506, 11626, 11754, 11915, 12291, 13859, 14074, 14195, 14450, 14570, 14690, 15154, 15626, 15723, 15802, 16010, 16090, 16227, 17242, 18035, 18122, 18290, 18401, 18490, 18618, 19058, 20058, 20163, 20290, 20626, 21106, 21210, 21394, 21514, 21666, 21755, 22154, 24955, 25082, 25186, 25322, 25651, 25731, 25883, 26010, 26626, 28923, 29050, 29154, 29250, 29362, 29954], "trial_type": "free-recall", "conditions": [24, 800, "v", 24000], "internal_node_id": "0.0-88.0-0.0", "key_presses": [71, 73, 70, 84, 32, 83, 85, 78, 83, 69, 84, 32, 77, 79, 78, 69, 89, 32, 83, 85, 78, 82, 73, 83, 69, 32, 83, 72, 73, 82, 84, 32, 70, 69, 77, 65, 76, 69, 32, 84, 89, 80, 73, 83, 84, 32, 70, 85, 78, 71, 85, 83, 32, 66, 85, 71, 32, 82, 69, 76, 73, 83, 72, 32, 83, 85, 73, 84, 67, 65, 83, 69, 32, 77, 79, 78, 69, 89, 32], "trial": 2, "time_elapsed": 536721, "type": "FREE_RECALL", "trial_index": 115}, "uniqueid": "MTK2838:3YZ8UPK3VUT4QIS8JL68G3ADY67UC5", "dateTime": 1519415062140}, {"current_trial": 116, "trialdata": {"rt": 1997, "trial_type": "text", "internal_node_id": "0.0-89.0", "time_elapsed": 540723, "key_press": 32, "type": "INSTRUCTIONS", "trial_index": 116}, "uniqueid": "MTK2838:3YZ8UPK3VUT4QIS8JL68G3ADY67UC5", "dateTime": 1519415066139}, {"current_trial": 117, "trialdata": {"rt": [4717, 8389, 11525, 14109, 16845, 19870], "trial_type": "math-distractor", "key_times": [3118, 3566, 3990, 4717, 7454, 7774, 8389, 10661, 10814, 11525, 13110, 13726, 14109, 16310, 16606, 16845, 19118, 19229, 19870, 23654], "responses": ["10 ", "13", "10", "15", "13", "10"], "num2": [3, 6, 4, 1, 4, 1, 9], "num3": [3, 5, 5, 5, 8, 5, 4], "conditions": [12, 1600, "v", 24000], "internal_node_id": "0.0-90.0", "key_presses": [49, 48, 32, 13, 49, 51, 13, 49, 48, 13, 49, 53, 13, 49, 51, 13, 49, 48, 13, 49], "trial": 3, "time_elapsed": 566726, "type": "DISTRACTOR", "trial_index": 117, "num1": [4, 2, 1, 9, 1, 4, 2]}, "uniqueid": "MTK2838:3YZ8UPK3VUT4QIS8JL68G3ADY67UC5", "dateTime": 1519415092142}, {"current_trial": 118, "trialdata": {"rt": -1, "trial_type": "single-stim", "stimulus": "<p id=\"stim\">10</p>", "internal_node_id": "0.0-91.0-0.0", "time_elapsed": 569729, "key_press": -1, "trial_index": 118}, "uniqueid": "MTK2838:3YZ8UPK3VUT4QIS8JL68G3ADY67UC5", "dateTime": 1519415095145}, {"current_trial": 119, "trialdata": {"rt": -1, "trial_type": "single-stim", "stimulus": "<p id=\"stim\">9</p>", "internal_node_id": "0.0-91.0-1.0", "time_elapsed": 570730, "key_press": -1, "trial_index": 119}, "uniqueid": "MTK2838:3YZ8UPK3VUT4QIS8JL68G3ADY67UC5", "dateTime": 1519415096146}, {"current_trial": 120, "trialdata": {"rt": -1, "trial_type": "single-stim", "stimulus": "<p id=\"stim\">8</p>", "internal_node_id": "0.0-91.0-2.0", "time_elapsed": 571731, "key_press": -1, "trial_index": 120}, "uniqueid": "MTK2838:3YZ8UPK3VUT4QIS8JL68G3ADY67UC5", "dateTime": 1519415097148}, {"current_trial": 121, "trialdata": {"rt": -1, "trial_type": "single-stim", "stimulus": "<p id=\"stim\">7</p>", "internal_node_id": "0.0-91.0-3.0", "time_elapsed": 572733, "key_press": -1, "trial_index": 121}, "uniqueid": "MTK2838:3YZ8UPK3VUT4QIS8JL68G3ADY67UC5", "dateTime": 1519415098149}, {"current_trial": 122, "trialdata": {"rt": -1, "trial_type": "single-stim", "stimulus": "<p id=\"stim\">6</p>", "internal_node_id": "0.0-91.0-4.0", "time_elapsed": 573734, "key_press": -1, "trial_index": 122}, "uniqueid": "MTK2838:3YZ8UPK3VUT4QIS8JL68G3ADY67UC5", "dateTime": 1519415099150}, {"current_trial": 123, "trialdata": {"rt": -1, "trial_type": "single-stim", "stimulus": "<p id=\"stim\">5</p>", "internal_node_id": "0.0-91.0-5.0", "time_elapsed": 574736, "key_press": -1, "trial_index": 123}, "uniqueid": "MTK2838:3YZ8UPK3VUT4QIS8JL68G3ADY67UC5", "dateTime": 1519415100152}, {"current_trial": 124, "trialdata": {"rt": -1, "trial_type": "single-stim", "stimulus": "<p id=\"stim\">4</p>", "internal_node_id": "0.0-91.0-6.0", "time_elapsed": 575736, "key_press": -1, "trial_index": 124}, "uniqueid": "MTK2838:3YZ8UPK3VUT4QIS8JL68G3ADY67UC5", "dateTime": 1519415101153}, {"current_trial": 125, "trialdata": {"rt": -1, "trial_type": "single-stim", "stimulus": "<p id=\"stim\">3</p>", "internal_node_id": "0.0-91.0-7.0", "time_elapsed": 576738, "key_press": -1, "trial_index": 125}, "uniqueid": "MTK2838:3YZ8UPK3VUT4QIS8JL68G3ADY67UC5", "dateTime": 1519415102154}, {"current_trial": 126, "trialdata": {"rt": -1, "trial_type": "single-stim", "stimulus": "<p id=\"stim\">2</p>", "internal_node_id": "0.0-91.0-8.0", "time_elapsed": 577740, "key_press": -1, "trial_index": 126}, "uniqueid": "MTK2838:3YZ8UPK3VUT4QIS8JL68G3ADY67UC5", "dateTime": 1519415103156}, {"current_trial": 127, "trialdata": {"rt": -1, "trial_type": "single-stim", "stimulus": "<p id=\"stim\">1</p>", "internal_node_id": "0.0-91.0-9.0", "time_elapsed": 578742, "key_press": -1, "trial_index": 127}, "uniqueid": "MTK2838:3YZ8UPK3VUT4QIS8JL68G3ADY67UC5", "dateTime": 1519415104158}, {"current_trial": 128, "trialdata": {"rt": -1, "trial_type": "single-stim", "stimulus": "<p id=\"stim\">+</p>", "internal_node_id": "0.0-92.0-0.0", "time_elapsed": 580244, "key_press": -1, "type": "FIXATION", "trial_index": 128}, "uniqueid": "MTK2838:3YZ8UPK3VUT4QIS8JL68G3ADY67UC5", "dateTime": 1519415105660}, {"current_trial": 129, "trialdata": {"rt": -1, "trial_type": "single-stim", "word": "actress", "stimulus": "<p id=\"stim\">ACTRESS</p>", "conditions": [12, 1600, "v", 24000], "internal_node_id": "0.0-93.0", "trial": 3, "time_elapsed": 581845, "serialpos": 0, "key_press": -1, "wordID": 5, "type": "PRES_VIS", "trial_index": 129}, "uniqueid": "MTK2838:3YZ8UPK3VUT4QIS8JL68G3ADY67UC5", "dateTime": 1519415107261}, {"current_trial": 130, "trialdata": {"rt": -1, "trial_type": "single-stim", "word": "beast", "stimulus": "<p id=\"stim\">BEAST</p>", "conditions": [12, 1600, "v", 24000], "internal_node_id": "0.0-94.0", "trial": 3, "time_elapsed": 584601, "serialpos": 1, "key_press": -1, "wordID": 107, "type": "PRES_VIS", "trial_index": 130}, "uniqueid": "MTK2838:3YZ8UPK3VUT4QIS8JL68G3ADY67UC5", "dateTime": 1519415110017}, {"current_trial": 131, "trialdata": {"rt": -1, "trial_type": "single-stim", "word": "carrot", "stimulus": "<p id=\"stim\">CARROT</p>", "conditions": [12, 1600, "v", 24000], "internal_node_id": "0.0-95.0", "trial": 3, "time_elapsed": 587281, "serialpos": 2, "key_press": -1, "wordID": 248, "type": "PRES_VIS", "trial_index": 131}, "uniqueid": "MTK2838:3YZ8UPK3VUT4QIS8JL68G3ADY67UC5", "dateTime": 1519415112697}, {"current_trial": 132, "trialdata": {"rt": -1, "trial_type": "single-stim", "word": "ulcer", "stimulus": "<p id=\"stim\">ULCER</p>", "conditions": [12, 1600, "v", 24000], "internal_node_id": "0.0-96.0", "trial": 3, "time_elapsed": 589713, "serialpos": 3, "key_press": -1, "wordID": 1532, "type": "PRES_VIS", "trial_index": 132}, "uniqueid": "MTK2838:3YZ8UPK3VUT4QIS8JL68G3ADY67UC5", "dateTime": 1519415115129}, {"current_trial": 133, "trialdata": {"rt": -1, "trial_type": "single-stim", "word": "hostess", "stimulus": "<p id=\"stim\">HOSTESS</p>", "conditions": [12, 1600, "v", 24000], "internal_node_id": "0.0-97.0", "trial": 3, "time_elapsed": 592427, "serialpos": 4, "key_press": -1, "wordID": 722, "type": "PRES_VIS", "trial_index": 133}, "uniqueid": "MTK2838:3YZ8UPK3VUT4QIS8JL68G3ADY67UC5", "dateTime": 1519415117844}, {"current_trial": 134, "trialdata": {"rt": -1, "trial_type": "single-stim", "word": "robot", "stimulus": "<p id=\"stim\">ROBOT</p>", "conditions": [12, 1600, "v", 24000], "internal_node_id": "0.0-98.0", "trial": 3, "time_elapsed": 595112, "serialpos": 5, "key_press": -1, "wordID": 1199, "type": "PRES_VIS", "trial_index": 134}, "uniqueid": "MTK2838:3YZ8UPK3VUT4QIS8JL68G3ADY67UC5", "dateTime": 1519415120528}, {"current_trial": 135, "trialdata": {"rt": -1, "trial_type": "single-stim", "word": "hand", "stimulus": "<p id=\"stim\">HAND</p>", "conditions": [12, 1600, "v", 24000], "internal_node_id": "0.0-99.0", "trial": 3, "time_elapsed": 597615, "serialpos": 6, "key_press": -1, "wordID": 682, "type": "PRES_VIS", "trial_index": 135}, "uniqueid": "MTK2838:3YZ8UPK3VUT4QIS8JL68G3ADY67UC5", "dateTime": 1519415123031}, {"current_trial": 136, "trialdata": {"rt": -1, "trial_type": "single-stim", "word": "waitress", "stimulus": "<p id=\"stim\">WAITRESS</p>", "conditions": [12, 1600, "v", 24000], "internal_node_id": "0.0-100.0", "trial": 3, "time_elapsed": 600091, "serialpos": 7, "key_press": -1, "wordID": 1580, "type": "PRES_VIS", "trial_index": 136}, "uniqueid": "MTK2838:3YZ8UPK3VUT4QIS8JL68G3ADY67UC5", "dateTime": 1519415125507}, {"current_trial": 137, "trialdata": {"rt": -1, "trial_type": "single-stim", "word": "blender", "stimulus": "<p id=\"stim\">BLENDER</p>", "conditions": [12, 1600, "v", 24000], "internal_node_id": "0.0-101.0", "trial": 3, "time_elapsed": 602726, "serialpos": 8, "key_press": -1, "wordID": 135, "type": "PRES_VIS", "trial_index": 137}, "uniqueid": "MTK2838:3YZ8UPK3VUT4QIS8JL68G3ADY67UC5", "dateTime": 1519415128142}, {"current_trial": 138, "trialdata": {"rt": -1, "trial_type": "single-stim", "word": "plate", "stimulus": "<p id=\"stim\">PLATE</p>", "conditions": [12, 1600, "v", 24000], "internal_node_id": "0.0-102.0", "trial": 3, "time_elapsed": 605371, "serialpos": 9, "key_press": -1, "wordID": 1085, "type": "PRES_VIS", "trial_index": 138}, "uniqueid": "MTK2838:3YZ8UPK3VUT4QIS8JL68G3ADY67UC5", "dateTime": 1519415130787}, {"current_trial": 139, "trialdata": {"rt": -1, "trial_type": "single-stim", "word": "crib", "stimulus": "<p id=\"stim\">CRIB</p>", "conditions": [12, 1600, "v", 24000], "internal_node_id": "0.0-103.0", "trial": 3, "time_elapsed": 608082, "serialpos": 10, "key_press": -1, "wordID": 406, "type": "PRES_VIS", "trial_index": 139}, "uniqueid": "MTK2838:3YZ8UPK3VUT4QIS8JL68G3ADY67UC5", "dateTime": 1519415133499}, {"current_trial": 140, "trialdata": {"rt": -1, "trial_type": "single-stim", "word": "mattress", "stimulus": "<p id=\"stim\">MATTRESS</p>", "conditions": [12, 1600, "v", 24000], "internal_node_id": "0.0-104.0", "trial": 3, "time_elapsed": 610864, "serialpos": 11, "key_press": -1, "wordID": 878, "type": "PRES_VIS", "trial_index": 140}, "uniqueid": "MTK2838:3YZ8UPK3VUT4QIS8JL68G3ADY67UC5", "dateTime": 1519415136280}, {"current_trial": 141, "trialdata": {"rt": -1, "trial_type": "single-stim", "stimulus": "", "internal_node_id": "0.0-105.0-0.0", "time_elapsed": 613029, "key_press": -1, "type": "PRE_RECALL_DELAY", "trial_index": 141}, "uniqueid": "MTK2838:3YZ8UPK3VUT4QIS8JL68G3ADY67UC5", "dateTime": 1519415138445}, {"current_trial": 142, "trialdata": {"rt": -1000, "trial_type": "single-audio", "stimulus": "/static/audio/400Hz.wav", "internal_node_id": "0.0-106.0", "time_elapsed": 613530, "key_press": -1, "type": "PRE_RECALL_ALERT", "trial_index": 142}, "uniqueid": "MTK2838:3YZ8UPK3VUT4QIS8JL68G3ADY67UC5", "dateTime": 1519415138946}, {"current_trial": 143, "trialdata": {"rt": [8437, 9613, 11414, 14853, 17094, 19133], "recwords": ["mattress", "crib", "plate", "robot", "carrot", "beast"], "key_times": [5070, 5189, 5286, 5502, 5503, 6045, 6294, 6542, 6966, 7102, 7189, 7350, 8437, 8877, 9061, 9181, 9294, 9613, 10341, 10477, 10590, 10662, 10781, 11414, 13365, 13606, 13782, 14166, 14318, 14853, 16006, 16173, 16286, 16462, 16614, 16733, 17094, 17838, 18053, 18206, 18342, 18485, 19133], "trial_type": "free-recall", "conditions": [12, 1600, "v", 24000], "internal_node_id": "0.0-107.0-0.0", "key_presses": [77, 65, 84, 82, 84, 8, 8, 84, 82, 69, 83, 83, 32, 67, 82, 73, 66, 32, 80, 76, 65, 84, 69, 32, 82, 79, 66, 79, 84, 32, 67, 65, 82, 82, 79, 84, 32, 66, 69, 65, 83, 84, 32], "trial": 3, "time_elapsed": 673534, "type": "FREE_RECALL", "trial_index": 143}, "uniqueid": "MTK2838:3YZ8UPK3VUT4QIS8JL68G3ADY67UC5", "dateTime": 1519415198953}, {"current_trial": 144, "trialdata": {"rt": 1793, "trial_type": "text", "internal_node_id": "0.0-108.0", "time_elapsed": 677330, "key_press": 32, "type": "INSTRUCTIONS", "trial_index": 144}, "uniqueid": "MTK2838:3YZ8UPK3VUT4QIS8JL68G3ADY67UC5", "dateTime": 1519415202747}, {"current_trial": 145, "trialdata": {"rt": [4437, 8836, 12933, 17924, 23198], "trial_type": "math-distractor", "key_times": [3837, 4044, 4437, 7909, 8077, 8836, 11637, 12269, 12933, 16861, 17485, 17924, 22389, 22542, 23198], "responses": ["23", "12", "15", "16", "11"], "num2": [9, 1, 8, 9, 5, 8], "num3": [9, 4, 4, 4, 2, 4], "conditions": [12, 1600, "v", 24000], "internal_node_id": "0.0-109.0", "key_presses": [50, 51, 13, 49, 50, 13, 49, 53, 13, 49, 54, 13, 49, 49, 13], "trial": 4, "time_elapsed": 703336, "type": "DISTRACTOR", "trial_index": 145, "num1": [5, 7, 3, 3, 4, 9]}, "uniqueid": "MTK2838:3YZ8UPK3VUT4QIS8JL68G3ADY67UC5", "dateTime": 1519415228752}, {"current_trial": 146, "trialdata": {"rt": -1, "trial_type": "single-stim", "stimulus": "<p id=\"stim\">10</p>", "internal_node_id": "0.0-110.0-0.0", "time_elapsed": 706338, "key_press": -1, "trial_index": 146}, "uniqueid": "MTK2838:3YZ8UPK3VUT4QIS8JL68G3ADY67UC5", "dateTime": 1519415231754}, {"current_trial": 147, "trialdata": {"rt": -1, "trial_type": "single-stim", "stimulus": "<p id=\"stim\">9</p>", "internal_node_id": "0.0-110.0-1.0", "time_elapsed": 707339, "key_press": -1, "trial_index": 147}, "uniqueid": "MTK2838:3YZ8UPK3VUT4QIS8JL68G3ADY67UC5", "dateTime": 1519415232755}, {"current_trial": 148, "trialdata": {"rt": -1, "trial_type": "single-stim", "stimulus": "<p id=\"stim\">8</p>", "internal_node_id": "0.0-110.0-2.0", "time_elapsed": 708341, "key_press": -1, "trial_index": 148}, "uniqueid": "MTK2838:3YZ8UPK3VUT4QIS8JL68G3ADY67UC5", "dateTime": 1519415233757}, {"current_trial": 149, "trialdata": {"rt": -1, "trial_type": "single-stim", "stimulus": "<p id=\"stim\">7</p>", "internal_node_id": "0.0-110.0-3.0", "time_elapsed": 709341, "key_press": -1, "trial_index": 149}, "uniqueid": "MTK2838:3YZ8UPK3VUT4QIS8JL68G3ADY67UC5", "dateTime": 1519415234758}, {"current_trial": 150, "trialdata": {"rt": -1, "trial_type": "single-stim", "stimulus": "<p id=\"stim\">6</p>", "internal_node_id": "0.0-110.0-4.0", "time_elapsed": 710343, "key_press": -1, "trial_index": 150}, "uniqueid": "MTK2838:3YZ8UPK3VUT4QIS8JL68G3ADY67UC5", "dateTime": 1519415235759}, {"current_trial": 151, "trialdata": {"rt": -1, "trial_type": "single-stim", "stimulus": "<p id=\"stim\">5</p>", "internal_node_id": "0.0-110.0-5.0", "time_elapsed": 711344, "key_press": -1, "trial_index": 151}, "uniqueid": "MTK2838:3YZ8UPK3VUT4QIS8JL68G3ADY67UC5", "dateTime": 1519415236760}, {"current_trial": 152, "trialdata": {"rt": -1, "trial_type": "single-stim", "stimulus": "<p id=\"stim\">4</p>", "internal_node_id": "0.0-110.0-6.0", "time_elapsed": 712345, "key_press": -1, "trial_index": 152}, "uniqueid": "MTK2838:3YZ8UPK3VUT4QIS8JL68G3ADY67UC5", "dateTime": 1519415237762}, {"current_trial": 153, "trialdata": {"rt": -1, "trial_type": "single-stim", "stimulus": "<p id=\"stim\">3</p>", "internal_node_id": "0.0-110.0-7.0", "time_elapsed": 713346, "key_press": -1, "trial_index": 153}, "uniqueid": "MTK2838:3YZ8UPK3VUT4QIS8JL68G3ADY67UC5", "dateTime": 1519415238762}, {"current_trial": 154, "trialdata": {"rt": -1, "trial_type": "single-stim", "stimulus": "<p id=\"stim\">2</p>", "internal_node_id": "0.0-110.0-8.0", "time_elapsed": 714347, "key_press": -1, "trial_index": 154}, "uniqueid": "MTK2838:3YZ8UPK3VUT4QIS8JL68G3ADY67UC5", "dateTime": 1519415239763}, {"current_trial": 155, "trialdata": {"rt": -1, "trial_type": "single-stim", "stimulus": "<p id=\"stim\">1</p>", "internal_node_id": "0.0-110.0-9.0", "time_elapsed": 715349, "key_press": -1, "trial_index": 155}, "uniqueid": "MTK2838:3YZ8UPK3VUT4QIS8JL68G3ADY67UC5", "dateTime": 1519415240765}, {"current_trial": 156, "trialdata": {"rt": -1, "trial_type": "single-stim", "stimulus": "<p id=\"stim\">+</p>", "internal_node_id": "0.0-111.0-0.0", "time_elapsed": 716850, "key_press": -1, "type": "FIXATION", "trial_index": 156}, "uniqueid": "MTK2838:3YZ8UPK3VUT4QIS8JL68G3ADY67UC5", "dateTime": 1519415242266}, {"current_trial": 157, "trialdata": {"rt": -1, "trial_type": "single-stim", "word": "turtle", "stimulus": "<p id=\"stim\">TURTLE</p>", "conditions": [12, 1600, "v", 24000], "internal_node_id": "0.0-112.0", "trial": 4, "time_elapsed": 718451, "serialpos": 0, "key_press": -1, "wordID": 1521, "type": "PRES_VIS", "trial_index": 157}, "uniqueid": "MTK2838:3YZ8UPK3VUT4QIS8JL68G3ADY67UC5", "dateTime": 1519415243867}, {"current_trial": 158, "trialdata": {"rt": -1, "trial_type": "single-stim", "word": "truck", "stimulus": "<p id=\"stim\">TRUCK</p>", "conditions": [12, 1600, "v", 24000], "internal_node_id": "0.0-113.0", "trial": 4, "time_elapsed": 721207, "serialpos": 1, "key_press": -1, "wordID": 1511, "type": "PRES_VIS", "trial_index": 158}, "uniqueid": "MTK2838:3YZ8UPK3VUT4QIS8JL68G3ADY67UC5", "dateTime": 1519415246623}, {"current_trial": 159, "trialdata": {"rt": -1, "trial_type": "single-stim", "word": "tractor", "stimulus": "<p id=\"stim\">TRACTOR</p>", "conditions": [12, 1600, "v", 24000], "internal_node_id": "0.0-114.0", "trial": 4, "time_elapsed": 723754, "serialpos": 2, "key_press": -1, "wordID": 1492, "type": "PRES_VIS", "trial_index": 159}, "uniqueid": "MTK2838:3YZ8UPK3VUT4QIS8JL68G3ADY67UC5", "dateTime": 1519415249170}, {"current_trial": 160, "trialdata": {"rt": -1, "trial_type": "single-stim", "word": "honey", "stimulus": "<p id=\"stim\">HONEY</p>", "conditions": [12, 1600, "v", 24000], "internal_node_id": "0.0-115.0", "trial": 4, "time_elapsed": 726333, "serialpos": 3, "key_press": -1, "wordID": 712, "type": "PRES_VIS", "trial_index": 160}, "uniqueid": "MTK2838:3YZ8UPK3VUT4QIS8JL68G3ADY67UC5", "dateTime": 1519415251749}, {"current_trial": 161, "trialdata": {"rt": -1, "trial_type": "single-stim", "word": "braces", "stimulus": "<p id=\"stim\">BRACES</p>", "conditions": [12, 1600, "v", 24000], "internal_node_id": "0.0-116.0", "trial": 4, "time_elapsed": 728924, "serialpos": 4, "key_press": -1, "wordID": 163, "type": "PRES_VIS", "trial_index": 161}, "uniqueid": "MTK2838:3YZ8UPK3VUT4QIS8JL68G3ADY67UC5", "dateTime": 1519415254340}, {"current_trial": 162, "trialdata": {"rt": -1, "trial_type": "single-stim", "word": "missile", "stimulus": "<p id=\"stim\">MISSILE</p>", "conditions": [12, 1600, "v", 24000], "internal_node_id": "0.0-117.0", "trial": 4, "time_elapsed": 731346, "serialpos": 5, "key_press": -1, "wordID": 899, "type": "PRES_VIS", "trial_index": 162}, "uniqueid": "MTK2838:3YZ8UPK3VUT4QIS8JL68G3ADY67UC5", "dateTime": 1519415256762}, {"current_trial": 163, "trialdata": {"rt": -1, "trial_type": "single-stim", "word": "patrol", "stimulus": "<p id=\"stim\">PATROL</p>", "conditions": [12, 1600, "v", 24000], "internal_node_id": "0.0-118.0", "trial": 4, "time_elapsed": 734104, "serialpos": 6, "key_press": -1, "wordID": 1026, "type": "PRES_VIS", "trial_index": 163}, "uniqueid": "MTK2838:3YZ8UPK3VUT4QIS8JL68G3ADY67UC5", "dateTime": 1519415259520}, {"current_trial": 164, "trialdata": {"rt": -1, "trial_type": "single-stim", "word": "milk", "stimulus": "<p id=\"stim\">MILK</p>", "conditions": [12, 1600, "v", 24000], "internal_node_id": "0.0-119.0", "trial": 4, "time_elapsed": 736619, "serialpos": 7, "key_press": -1, "wordID": 894, "type": "PRES_VIS", "trial_index": 164}, "uniqueid": "MTK2838:3YZ8UPK3VUT4QIS8JL68G3ADY67UC5", "dateTime": 1519415262035}, {"current_trial": 165, "trialdata": {"rt": -1, "trial_type": "single-stim", "word": "contract", "stimulus": "<p id=\"stim\">CONTRACT</p>", "conditions": [12, 1600, "v", 24000], "internal_node_id": "0.0-120.0", "trial": 4, "time_elapsed": 739324, "serialpos": 8, "key_press": -1, "wordID": 367, "type": "PRES_VIS", "trial_index": 165}, "uniqueid": "MTK2838:3YZ8UPK3VUT4QIS8JL68G3ADY67UC5", "dateTime": 1519415264740}, {"current_trial": 166, "trialdata": {"rt": -1, "trial_type": "single-stim", "word": "raft", "stimulus": "<p id=\"stim\">RAFT</p>", "conditions": [12, 1600, "v", 24000], "internal_node_id": "0.0-121.0", "trial": 4, "time_elapsed": 741797, "serialpos": 9, "key_press": -1, "wordID": 1158, "type": "PRES_VIS", "trial_index": 166}, "uniqueid": "MTK2838:3YZ8UPK3VUT4QIS8JL68G3ADY67UC5", "dateTime": 1519415267213}, {"current_trial": 167, "trialdata": {"rt": -1, "trial_type": "single-stim", "word": "cashew", "stimulus": "<p id=\"stim\">CASHEW</p>", "conditions": [12, 1600, "v", 24000], "internal_node_id": "0.0-122.0", "trial": 4, "time_elapsed": 744590, "serialpos": 10, "key_press": -1, "wordID": 252, "type": "PRES_VIS", "trial_index": 167}, "uniqueid": "MTK2838:3YZ8UPK3VUT4QIS8JL68G3ADY67UC5", "dateTime": 1519415270006}, {"current_trial": 168, "trialdata": {"rt": -1, "trial_type": "single-stim", "word": "candy", "stimulus": "<p id=\"stim\">CANDY</p>", "conditions": [12, 1600, "v", 24000], "internal_node_id": "0.0-123.0", "trial": 4, "time_elapsed": 747186, "serialpos": 11, "key_press": -1, "wordID": 229, "type": "PRES_VIS", "trial_index": 168}, "uniqueid": "MTK2838:3YZ8UPK3VUT4QIS8JL68G3ADY67UC5", "dateTime": 1519415272602}, {"current_trial": 169, "trialdata": {"rt": -1, "trial_type": "single-stim", "stimulus": "", "internal_node_id": "0.0-124.0-0.0", "time_elapsed": 749498, "key_press": -1, "type": "PRE_RECALL_DELAY", "trial_index": 169}, "uniqueid": "MTK2838:3YZ8UPK3VUT4QIS8JL68G3ADY67UC5", "dateTime": 1519415274914}, {"current_trial": 170, "trialdata": {"rt": -1000, "trial_type": "single-audio", "stimulus": "/static/audio/400Hz.wav", "internal_node_id": "0.0-125.0", "time_elapsed": 749999, "key_press": -1, "type": "PRE_RECALL_ALERT", "trial_index": 170}, "uniqueid": "MTK2838:3YZ8UPK3VUT4QIS8JL68G3ADY67UC5", "dateTime": 1519415275415}, {"current_trial": 171, "trialdata": {"rt": [3897, 6881, 9752, 12763, 15090, 17386], "recwords": ["candy", "raft", "patrol", "tractor", "truck", "raft"], "key_times": [2465, 2569, 2713, 2825, 2985, 3897, 5009, 5737, 5849, 5992, 6145, 6385, 6881, 8673, 8800, 8920, 9113, 9217, 9433, 9752, 10410, 10626, 10698, 10906, 11186, 11226, 12138, 12763, 13258, 13618, 14209, 14346, 14466, 15090, 16026, 16169, 16282, 16498, 17386], "trial_type": "free-recall", "conditions": [12, 1600, "v", 24000], "internal_node_id": "0.0-126.0-0.0", "key_presses": [67, 65, 78, 68, 89, 32, 67, 8, 82, 65, 70, 84, 32, 80, 65, 84, 82, 79, 76, 32, 84, 82, 65, 67, 84, 79, 82, 32, 84, 82, 85, 67, 75, 32, 82, 65, 70, 84, 32], "trial": 4, "time_elapsed": 810003, "type": "FREE_RECALL", "trial_index": 171}, "uniqueid": "MTK2838:3YZ8UPK3VUT4QIS8JL68G3ADY67UC5", "dateTime": 1519415335422}, {"current_trial": 172, "trialdata": {"rt": 2140, "trial_type": "text", "internal_node_id": "0.0-127.0", "time_elapsed": 814147, "key_press": 32, "type": "INSTRUCTIONS", "trial_index": 172}, "uniqueid": "MTK2838:3YZ8UPK3VUT4QIS8JL68G3ADY67UC5", "dateTime": 1519415339563}, {"current_trial": 173, "trialdata": {"rt": [4735, 9054], "trial_type": "math-distractor", "key_times": [3590, 4215, 4735, 8151, 8519, 9054, 11999], "responses": ["20", "13"], "num2": [8, 6, 4], "num3": [4, 3, 3], "conditions": [12, 1600, "v", 12000], "internal_node_id": "0.0-128.0", "key_presses": [50, 48, 13, 49, 51, 13, 54], "trial": 5, "time_elapsed": 828151, "type": "DISTRACTOR", "trial_index": 173, "num1": [8, 4, 1]}, "uniqueid": "MTK2838:3YZ8UPK3VUT4QIS8JL68G3ADY67UC5", "dateTime": 1519415353567}, {"current_trial": 174, "trialdata": {"rt": -1, "trial_type": "single-stim", "stimulus": "<p id=\"stim\">10</p>", "internal_node_id": "0.0-129.0-0.0", "time_elapsed": 831152, "key_press": -1, "trial_index": 174}, "uniqueid": "MTK2838:3YZ8UPK3VUT4QIS8JL68G3ADY67UC5", "dateTime": 1519415356568}, {"current_trial": 175, "trialdata": {"rt": -1, "trial_type": "single-stim", "stimulus": "<p id=\"stim\">9</p>", "internal_node_id": "0.0-129.0-1.0", "time_elapsed": 832154, "key_press": -1, "trial_index": 175}, "uniqueid": "MTK2838:3YZ8UPK3VUT4QIS8JL68G3ADY67UC5", "dateTime": 1519415357570}, {"current_trial": 176, "trialdata": {"rt": -1, "trial_type": "single-stim", "stimulus": "<p id=\"stim\">8</p>", "internal_node_id": "0.0-129.0-2.0", "time_elapsed": 833156, "key_press": -1, "trial_index": 176}, "uniqueid": "MTK2838:3YZ8UPK3VUT4QIS8JL68G3ADY67UC5", "dateTime": 1519415358572}, {"current_trial": 177, "trialdata": {"rt": -1, "trial_type": "single-stim", "stimulus": "<p id=\"stim\">7</p>", "internal_node_id": "0.0-129.0-3.0", "time_elapsed": 834158, "key_press": -1, "trial_index": 177}, "uniqueid": "MTK2838:3YZ8UPK3VUT4QIS8JL68G3ADY67UC5", "dateTime": 1519415359574}, {"current_trial": 178, "trialdata": {"rt": -1, "trial_type": "single-stim", "stimulus": "<p id=\"stim\">6</p>", "internal_node_id": "0.0-129.0-4.0", "time_elapsed": 835159, "key_press": -1, "trial_index": 178}, "uniqueid": "MTK2838:3YZ8UPK3VUT4QIS8JL68G3ADY67UC5", "dateTime": 1519415360575}, {"current_trial": 179, "trialdata": {"rt": -1, "trial_type": "single-stim", "stimulus": "<p id=\"stim\">5</p>", "internal_node_id": "0.0-129.0-5.0", "time_elapsed": 836161, "key_press": -1, "trial_index": 179}, "uniqueid": "MTK2838:3YZ8UPK3VUT4QIS8JL68G3ADY67UC5", "dateTime": 1519415361577}, {"current_trial": 180, "trialdata": {"rt": -1, "trial_type": "single-stim", "stimulus": "<p id=\"stim\">4</p>", "internal_node_id": "0.0-129.0-6.0", "time_elapsed": 837163, "key_press": -1, "trial_index": 180}, "uniqueid": "MTK2838:3YZ8UPK3VUT4QIS8JL68G3ADY67UC5", "dateTime": 1519415362579}, {"current_trial": 181, "trialdata": {"rt": -1, "trial_type": "single-stim", "stimulus": "<p id=\"stim\">3</p>", "internal_node_id": "0.0-129.0-7.0", "time_elapsed": 838164, "key_press": -1, "trial_index": 181}, "uniqueid": "MTK2838:3YZ8UPK3VUT4QIS8JL68G3ADY67UC5", "dateTime": 1519415363580}, {"current_trial": 182, "trialdata": {"rt": -1, "trial_type": "single-stim", "stimulus": "<p id=\"stim\">2</p>", "internal_node_id": "0.0-129.0-8.0", "time_elapsed": 839165, "key_press": -1, "trial_index": 182}, "uniqueid": "MTK2838:3YZ8UPK3VUT4QIS8JL68G3ADY67UC5", "dateTime": 1519415364581}, {"current_trial": 183, "trialdata": {"rt": -1, "trial_type": "single-stim", "stimulus": "<p id=\"stim\">1</p>", "internal_node_id": "0.0-129.0-9.0", "time_elapsed": 840167, "key_press": -1, "trial_index": 183}, "uniqueid": "MTK2838:3YZ8UPK3VUT4QIS8JL68G3ADY67UC5", "dateTime": 1519415365583}, {"current_trial": 184, "trialdata": {"rt": -1, "trial_type": "single-stim", "stimulus": "<p id=\"stim\">+</p>", "internal_node_id": "0.0-130.0-0.0", "time_elapsed": 841668, "key_press": -1, "type": "FIXATION", "trial_index": 184}, "uniqueid": "MTK2838:3YZ8UPK3VUT4QIS8JL68G3ADY67UC5", "dateTime": 1519415367085}, {"current_trial": 185, "trialdata": {"rt": -1, "trial_type": "single-stim", "word": "flask", "stimulus": "<p id=\"stim\">FLASK</p>", "conditions": [12, 1600, "v", 12000], "internal_node_id": "0.0-131.0", "trial": 5, "time_elapsed": 843270, "serialpos": 0, "key_press": -1, "wordID": 575, "type": "PRES_VIS", "trial_index": 185}, "uniqueid": "MTK2838:3YZ8UPK3VUT4QIS8JL68G3ADY67UC5", "dateTime": 1519415368686}, {"current_trial": 186, "trialdata": {"rt": -1, "trial_type": "single-stim", "word": "girl", "stimulus": "<p id=\"stim\">GIRL</p>", "conditions": [12, 1600, "v", 12000], "internal_node_id": "0.0-132.0", "trial": 5, "time_elapsed": 845808, "serialpos": 1, "key_press": -1, "wordID": 636, "type": "PRES_VIS", "trial_index": 186}, "uniqueid": "MTK2838:3YZ8UPK3VUT4QIS8JL68G3ADY67UC5", "dateTime": 1519415371224}, {"current_trial": 187, "trialdata": {"rt": -1, "trial_type": "single-stim", "word": "mummy", "stimulus": "<p id=\"stim\">MUMMY</p>", "conditions": [12, 1600, "v", 12000], "internal_node_id": "0.0-133.0", "trial": 5, "time_elapsed": 848475, "serialpos": 2, "key_press": -1, "wordID": 931, "type": "PRES_VIS", "trial_index": 187}, "uniqueid": "MTK2838:3YZ8UPK3VUT4QIS8JL68G3ADY67UC5", "dateTime": 1519415373892}, {"current_trial": 188, "trialdata": {"rt": -1, "trial_type": "single-stim", "word": "sword", "stimulus": "<p id=\"stim\">SWORD</p>", "conditions": [12, 1600, "v", 12000], "internal_node_id": "0.0-134.0", "trial": 5, "time_elapsed": 851185, "serialpos": 3, "key_press": -1, "wordID": 1422, "type": "PRES_VIS", "trial_index": 188}, "uniqueid": "MTK2838:3YZ8UPK3VUT4QIS8JL68G3ADY67UC5", "dateTime": 1519415376601}, {"current_trial": 189, "trialdata": {"rt": -1, "trial_type": "single-stim", "word": "beaker", "stimulus": "<p id=\"stim\">BEAKER</p>", "conditions": [12, 1600, "v", 12000], "internal_node_id": "0.0-135.0", "trial": 5, "time_elapsed": 853907, "serialpos": 4, "key_press": -1, "wordID": 103, "type": "PRES_VIS", "trial_index": 189}, "uniqueid": "MTK2838:3YZ8UPK3VUT4QIS8JL68G3ADY67UC5", "dateTime": 1519415379323}, {"current_trial": 190, "trialdata": {"rt": -1, "trial_type": "single-stim", "word": "flesh", "stimulus": "<p id=\"stim\">FLESH</p>", "conditions": [12, 1600, "v", 12000], "internal_node_id": "0.0-136.0", "trial": 5, "time_elapsed": 856401, "serialpos": 5, "key_press": -1, "wordID": 578, "type": "PRES_VIS", "trial_index": 190}, "uniqueid": "MTK2838:3YZ8UPK3VUT4QIS8JL68G3ADY67UC5", "dateTime": 1519415381817}, {"current_trial": 191, "trialdata": {"rt": -1, "trial_type": "single-stim", "word": "princess", "stimulus": "<p id=\"stim\">PRINCESS</p>", "conditions": [12, 1600, "v", 12000], "internal_node_id": "0.0-137.0", "trial": 5, "time_elapsed": 858892, "serialpos": 6, "key_press": -1, "wordID": 1124, "type": "PRES_VIS", "trial_index": 191}, "uniqueid": "MTK2838:3YZ8UPK3VUT4QIS8JL68G3ADY67UC5", "dateTime": 1519415384308}, {"current_trial": 192, "trialdata": {"rt": -1, "trial_type": "single-stim", "word": "hook", "stimulus": "<p id=\"stim\">HOOK</p>", "conditions": [12, 1600, "v", 12000], "internal_node_id": "0.0-138.0", "trial": 5, "time_elapsed": 861372, "serialpos": 7, "key_press": -1, "wordID": 714, "type": "PRES_VIS", "trial_index": 192}, "uniqueid": "MTK2838:3YZ8UPK3VUT4QIS8JL68G3ADY67UC5", "dateTime": 1519415386788}, {"current_trial": 193, "trialdata": {"rt": -1, "trial_type": "single-stim", "word": "wardrobe", "stimulus": "<p id=\"stim\">WARDROBE</p>", "conditions": [12, 1600, "v", 12000], "internal_node_id": "0.0-139.0", "trial": 5, "time_elapsed": 863947, "serialpos": 8, "key_press": -1, "wordID": 1586, "type": "PRES_VIS", "trial_index": 193}, "uniqueid": "MTK2838:3YZ8UPK3VUT4QIS8JL68G3ADY67UC5", "dateTime": 1519415389363}, {"current_trial": 194, "trialdata": {"rt": -1, "trial_type": "single-stim", "word": "costume", "stimulus": "<p id=\"stim\">COSTUME</p>", "conditions": [12, 1600, "v", 12000], "internal_node_id": "0.0-140.0", "trial": 5, "time_elapsed": 866726, "serialpos": 9, "key_press": -1, "wordID": 382, "type": "PRES_VIS", "trial_index": 194}, "uniqueid": "MTK2838:3YZ8UPK3VUT4QIS8JL68G3ADY67UC5", "dateTime": 1519415392142}, {"current_trial": 195, "trialdata": {"rt": -1, "trial_type": "single-stim", "word": "couch", "stimulus": "<p id=\"stim\">COUCH</p>", "conditions": [12, 1600, "v", 12000], "internal_node_id": "0.0-141.0", "trial": 5, "time_elapsed": 869444, "serialpos": 10, "key_press": -1, "wordID": 385, "type": "PRES_VIS", "trial_index": 195}, "uniqueid": "MTK2838:3YZ8UPK3VUT4QIS8JL68G3ADY67UC5", "dateTime": 1519415394860}, {"current_trial": 196, "trialdata": {"rt": -1, "trial_type": "single-stim", "word": "lily", "stimulus": "<p id=\"stim\">LILY</p>", "conditions": [12, 1600, "v", 12000], "internal_node_id": "0.0-142.0", "trial": 5, "time_elapsed": 871931, "serialpos": 11, "key_press": -1, "wordID": 820, "type": "PRES_VIS", "trial_index": 196}, "uniqueid": "MTK2838:3YZ8UPK3VUT4QIS8JL68G3ADY67UC5", "dateTime": 1519415397347}, {"current_trial": 197, "trialdata": {"rt": -1, "trial_type": "single-stim", "stimulus": "", "internal_node_id": "0.0-143.0-0.0", "time_elapsed": 874222, "key_press": -1, "type": "PRE_RECALL_DELAY", "trial_index": 197}, "uniqueid": "MTK2838:3YZ8UPK3VUT4QIS8JL68G3ADY67UC5", "dateTime": 1519415399638}, {"current_trial": 198, "trialdata": {"rt": -1000, "trial_type": "single-audio", "stimulus": "/static/audio/400Hz.wav", "internal_node_id": "0.0-144.0", "time_elapsed": 874723, "key_press": -1, "type": "PRE_RECALL_ALERT", "trial_index": 198}, "uniqueid": "MTK2838:3YZ8UPK3VUT4QIS8JL68G3ADY67UC5", "dateTime": 1519415400139}, {"current_trial": 199, "trialdata": {"rt": [2958, 4054, 6102, 9294, 11798], "recwords": ["couch", "flesh", "princess", "sword", "girl"], "key_times": [1710, 1798, 1894, 2029, 2094, 2958, 3349, 3469, 3557, 3637, 3773, 4054, 4430, 4526, 4686, 4805, 5326, 5501, 5629, 5830, 6102, 8231, 8502, 8726, 8854, 9038, 9294, 9638, 10206, 10678, 11006, 11246, 11334, 11446, 11550, 11798], "trial_type": "free-recall", "conditions": [12, 1600, "v", 12000], "internal_node_id": "0.0-145.0-0.0", "key_presses": [67, 79, 85, 67, 72, 32, 70, 76, 69, 83, 72, 32, 80, 82, 73, 78, 67, 69, 83, 83, 32, 83, 87, 79, 82, 68, 32, 80, 71, 8, 8, 71, 73, 82, 76, 32], "trial": 5, "time_elapsed": 934727, "type": "FREE_RECALL", "trial_index": 199}, "uniqueid": "MTK2838:3YZ8UPK3VUT4QIS8JL68G3ADY67UC5", "dateTime": 1519415460146}, {"current_trial": 200, "trialdata": {"rt": 1560, "trial_type": "text", "internal_node_id": "0.0-146.0", "time_elapsed": 938291, "key_press": 32, "type": "INSTRUCTIONS", "trial_index": 200}, "uniqueid": "MTK2838:3YZ8UPK3VUT4QIS8JL68G3ADY67UC5", "dateTime": 1519415463707}, {"current_trial": 201, "trialdata": {"rt": [7158, 10014], "trial_type": "math-distractor", "key_times": [6302, 6511, 7158, 9687, 9846, 10014], "responses": ["24", "11"], "num2": [9, 3, 8], "num3": [8, 2, 5], "conditions": [24, 1600, "v", 12000], "internal_node_id": "0.0-147.0", "key_presses": [50, 52, 13, 49, 49, 13], "trial": 6, "time_elapsed": 952295, "type": "DISTRACTOR", "trial_index": 201, "num1": [7, 6, 4]}, "uniqueid": "MTK2838:3YZ8UPK3VUT4QIS8JL68G3ADY67UC5", "dateTime": 1519415477711}, {"current_trial": 202, "trialdata": {"rt": -1, "trial_type": "single-stim", "stimulus": "<p id=\"stim\">10</p>", "internal_node_id": "0.0-148.0-0.0", "time_elapsed": 955297, "key_press": -1, "trial_index": 202}, "uniqueid": "MTK2838:3YZ8UPK3VUT4QIS8JL68G3ADY67UC5", "dateTime": 1519415480713}, {"current_trial": 203, "trialdata": {"rt": -1, "trial_type": "single-stim", "stimulus": "<p id=\"stim\">9</p>", "internal_node_id": "0.0-148.0-1.0", "time_elapsed": 956299, "key_press": -1, "trial_index": 203}, "uniqueid": "MTK2838:3YZ8UPK3VUT4QIS8JL68G3ADY67UC5", "dateTime": 1519415481715}, {"current_trial": 204, "trialdata": {"rt": -1, "trial_type": "single-stim", "stimulus": "<p id=\"stim\">8</p>", "internal_node_id": "0.0-148.0-2.0", "time_elapsed": 957300, "key_press": -1, "trial_index": 204}, "uniqueid": "MTK2838:3YZ8UPK3VUT4QIS8JL68G3ADY67UC5", "dateTime": 1519415482716}, {"current_trial": 205, "trialdata": {"rt": -1, "trial_type": "single-stim", "stimulus": "<p id=\"stim\">7</p>", "internal_node_id": "0.0-148.0-3.0", "time_elapsed": 958302, "key_press": -1, "trial_index": 205}, "uniqueid": "MTK2838:3YZ8UPK3VUT4QIS8JL68G3ADY67UC5", "dateTime": 1519415483718}, {"current_trial": 206, "trialdata": {"rt": -1, "trial_type": "single-stim", "stimulus": "<p id=\"stim\">6</p>", "internal_node_id": "0.0-148.0-4.0", "time_elapsed": 959303, "key_press": -1, "trial_index": 206}, "uniqueid": "MTK2838:3YZ8UPK3VUT4QIS8JL68G3ADY67UC5", "dateTime": 1519415484719}, {"current_trial": 207, "trialdata": {"rt": -1, "trial_type": "single-stim", "stimulus": "<p id=\"stim\">5</p>", "internal_node_id": "0.0-148.0-5.0", "time_elapsed": 960304, "key_press": -1, "trial_index": 207}, "uniqueid": "MTK2838:3YZ8UPK3VUT4QIS8JL68G3ADY67UC5", "dateTime": 1519415485720}, {"current_trial": 208, "trialdata": {"rt": -1, "trial_type": "single-stim", "stimulus": "<p id=\"stim\">4</p>", "internal_node_id": "0.0-148.0-6.0", "time_elapsed": 961305, "key_press": -1, "trial_index": 208}, "uniqueid": "MTK2838:3YZ8UPK3VUT4QIS8JL68G3ADY67UC5", "dateTime": 1519415486722}, {"current_trial": 209, "trialdata": {"rt": -1, "trial_type": "single-stim", "stimulus": "<p id=\"stim\">3</p>", "internal_node_id": "0.0-148.0-7.0", "time_elapsed": 962306, "key_press": -1, "trial_index": 209}, "uniqueid": "MTK2838:3YZ8UPK3VUT4QIS8JL68G3ADY67UC5", "dateTime": 1519415487722}, {"current_trial": 210, "trialdata": {"rt": -1, "trial_type": "single-stim", "stimulus": "<p id=\"stim\">2</p>", "internal_node_id": "0.0-148.0-8.0", "time_elapsed": 963307, "key_press": -1, "trial_index": 210}, "uniqueid": "MTK2838:3YZ8UPK3VUT4QIS8JL68G3ADY67UC5", "dateTime": 1519415488724}, {"current_trial": 211, "trialdata": {"rt": -1, "trial_type": "single-stim", "stimulus": "<p id=\"stim\">1</p>", "internal_node_id": "0.0-148.0-9.0", "time_elapsed": 964308, "key_press": -1, "trial_index": 211}, "uniqueid": "MTK2838:3YZ8UPK3VUT4QIS8JL68G3ADY67UC5", "dateTime": 1519415489724}, {"current_trial": 212, "trialdata": {"rt": -1, "trial_type": "single-stim", "stimulus": "<p id=\"stim\">+</p>", "internal_node_id": "0.0-149.0-0.0", "time_elapsed": 965809, "key_press": -1, "type": "FIXATION", "trial_index": 212}, "uniqueid": "MTK2838:3YZ8UPK3VUT4QIS8JL68G3ADY67UC5", "dateTime": 1519415491226}, {"current_trial": 213, "trialdata": {"rt": -1, "trial_type": "single-stim", "word": "lace", "stimulus": "<p id=\"stim\">LACE</p>", "conditions": [24, 1600, "v", 12000], "internal_node_id": "0.0-150.0", "trial": 6, "time_elapsed": 967412, "serialpos": 0, "key_press": -1, "wordID": 791, "type": "PRES_VIS", "trial_index": 213}, "uniqueid": "MTK2838:3YZ8UPK3VUT4QIS8JL68G3ADY67UC5", "dateTime": 1519415492828}, {"current_trial": 214, "trialdata": {"rt": -1, "trial_type": "single-stim", "word": "witness", "stimulus": "<p id=\"stim\">WITNESS</p>", "conditions": [24, 1600, "v", 12000], "internal_node_id": "0.0-151.0", "trial": 6, "time_elapsed": 969879, "serialpos": 1, "key_press": -1, "wordID": 1617, "type": "PRES_VIS", "trial_index": 214}, "uniqueid": "MTK2838:3YZ8UPK3VUT4QIS8JL68G3ADY67UC5", "dateTime": 1519415495295}, {"current_trial": 215, "trialdata": {"rt": -1, "trial_type": "single-stim", "word": "student", "stimulus": "<p id=\"stim\">STUDENT</p>", "conditions": [24, 1600, "v", 12000], "internal_node_id": "0.0-152.0", "trial": 6, "time_elapsed": 972473, "serialpos": 2, "key_press": -1, "wordID": 1394, "type": "PRES_VIS", "trial_index": 215}, "uniqueid": "MTK2838:3YZ8UPK3VUT4QIS8JL68G3ADY67UC5", "dateTime": 1519415497889}, {"current_trial": 216, "trialdata": {"rt": -1, "trial_type": "single-stim", "word": "finger", "stimulus": "<p id=\"stim\">FINGER</p>", "conditions": [24, 1600, "v", 12000], "internal_node_id": "0.0-153.0", "trial": 6, "time_elapsed": 974951, "serialpos": 3, "key_press": -1, "wordID": 566, "type": "PRES_VIS", "trial_index": 216}, "uniqueid": "MTK2838:3YZ8UPK3VUT4QIS8JL68G3ADY67UC5", "dateTime": 1519415500367}, {"current_trial": 217, "trialdata": {"rt": -1, "trial_type": "single-stim", "word": "guitar", "stimulus": "<p id=\"stim\">GUITAR</p>", "conditions": [24, 1600, "v", 12000], "internal_node_id": "0.0-154.0", "trial": 6, "time_elapsed": 977719, "serialpos": 4, "key_press": -1, "wordID": 669, "type": "PRES_VIS", "trial_index": 217}, "uniqueid": "MTK2838:3YZ8UPK3VUT4QIS8JL68G3ADY67UC5", "dateTime": 1519415503135}, {"current_trial": 218, "trialdata": {"rt": -1, "trial_type": "single-stim", "word": "piano", "stimulus": "<p id=\"stim\">PIANO</p>", "conditions": [24, 1600, "v", 12000], "internal_node_id": "0.0-155.0", "trial": 6, "time_elapsed": 980380, "serialpos": 5, "key_press": -1, "wordID": 1056, "type": "PRES_VIS", "trial_index": 218}, "uniqueid": "MTK2838:3YZ8UPK3VUT4QIS8JL68G3ADY67UC5", "dateTime": 1519415505796}, {"current_trial": 219, "trialdata": {"rt": -1, "trial_type": "single-stim", "word": "flower", "stimulus": "<p id=\"stim\">FLOWER</p>", "conditions": [24, 1600, "v", 12000], "internal_node_id": "0.0-156.0", "trial": 6, "time_elapsed": 982933, "serialpos": 6, "key_press": -1, "wordID": 583, "type": "PRES_VIS", "trial_index": 219}, "uniqueid": "MTK2838:3YZ8UPK3VUT4QIS8JL68G3ADY67UC5", "dateTime": 1519415508349}, {"current_trial": 220, "trialdata": {"rt": -1, "trial_type": "single-stim", "word": "suspect", "stimulus": "<p id=\"stim\">SUSPECT</p>", "conditions": [24, 1600, "v", 12000], "internal_node_id": "0.0-157.0", "trial": 6, "time_elapsed": 985714, "serialpos": 7, "key_press": -1, "wordID": 1414, "type": "PRES_VIS", "trial_index": 220}, "uniqueid": "MTK2838:3YZ8UPK3VUT4QIS8JL68G3ADY67UC5", "dateTime": 1519415511130}, {"current_trial": 221, "trialdata": {"rt": -1, "trial_type": "single-stim", "word": "office", "stimulus": "<p id=\"stim\">OFFICE</p>", "conditions": [24, 1600, "v", 12000], "internal_node_id": "0.0-158.0", "trial": 6, "time_elapsed": 988144, "serialpos": 8, "key_press": -1, "wordID": 971, "type": "PRES_VIS", "trial_index": 221}, "uniqueid": "MTK2838:3YZ8UPK3VUT4QIS8JL68G3ADY67UC5", "dateTime": 1519415513561}, {"current_trial": 222, "trialdata": {"rt": -1, "trial_type": "single-stim", "word": "basement", "stimulus": "<p id=\"stim\">BASEMENT</p>", "conditions": [24, 1600, "v", 12000], "internal_node_id": "0.0-159.0", "trial": 6, "time_elapsed": 990598, "serialpos": 9, "key_press": -1, "wordID": 93, "type": "PRES_VIS", "trial_index": 222}, "uniqueid": "MTK2838:3YZ8UPK3VUT4QIS8JL68G3ADY67UC5", "dateTime": 1519415516014}, {"current_trial": 223, "trialdata": {"rt": -1, "trial_type": "single-stim", "word": "wasp", "stimulus": "<p id=\"stim\">WASP</p>", "conditions": [24, 1600, "v", 12000], "internal_node_id": "0.0-160.0", "trial": 6, "time_elapsed": 993392, "serialpos": 10, "key_press": -1, "wordID": 1592, "type": "PRES_VIS", "trial_index": 223}, "uniqueid": "MTK2838:3YZ8UPK3VUT4QIS8JL68G3ADY67UC5", "dateTime": 1519415518808}, {"current_trial": 224, "trialdata": {"rt": -1, "trial_type": "single-stim", "word": "orchid", "stimulus": "<p id=\"stim\">ORCHID</p>", "conditions": [24, 1600, "v", 12000], "internal_node_id": "0.0-161.0", "trial": 6, "time_elapsed": 996109, "serialpos": 11, "key_press": -1, "wordID": 981, "type": "PRES_VIS", "trial_index": 224}, "uniqueid": "MTK2838:3YZ8UPK3VUT4QIS8JL68G3ADY67UC5", "dateTime": 1519415521525}, {"current_trial": 225, "trialdata": {"rt": -1, "trial_type": "single-stim", "word": "playground", "stimulus": "<p id=\"stim\">PLAYGROUND</p>", "conditions": [24, 1600, "v", 12000], "internal_node_id": "0.0-162.0", "trial": 6, "time_elapsed": 998734, "serialpos": 12, "key_press": -1, "wordID": 1086, "type": "PRES_VIS", "trial_index": 225}, "uniqueid": "MTK2838:3YZ8UPK3VUT4QIS8JL68G3ADY67UC5", "dateTime": 1519415524150}, {"current_trial": 226, "trialdata": {"rt": -1, "trial_type": "single-stim", "word": "snail", "stimulus": "<p id=\"stim\">SNAIL</p>", "conditions": [24, 1600, "v", 12000], "internal_node_id": "0.0-163.0", "trial": 6, "time_elapsed": 1001520, "serialpos": 13, "key_press": -1, "wordID": 1331, "type": "PRES_VIS", "trial_index": 226}, "uniqueid": "MTK2838:3YZ8UPK3VUT4QIS8JL68G3ADY67UC5", "dateTime": 1519415526936}, {"current_trial": 227, "trialdata": {"rt": -1, "trial_type": "single-stim", "word": "stove", "stimulus": "<p id=\"stim\">STOVE</p>", "conditions": [24, 1600, "v", 12000], "internal_node_id": "0.0-164.0", "trial": 6, "time_elapsed": 1004000, "serialpos": 14, "key_press": -1, "wordID": 1387, "type": "PRES_VIS", "trial_index": 227}, "uniqueid": "MTK2838:3YZ8UPK3VUT4QIS8JL68G3ADY67UC5", "dateTime": 1519415529416}, {"current_trial": 228, "trialdata": {"rt": -1, "trial_type": "single-stim", "word": "cupboard", "stimulus": "<p id=\"stim\">CUPBOARD</p>", "conditions": [24, 1600, "v", 12000], "internal_node_id": "0.0-165.0", "trial": 6, "time_elapsed": 1006526, "serialpos": 15, "key_press": -1, "wordID": 424, "type": "PRES_VIS", "trial_index": 228}, "uniqueid": "MTK2838:3YZ8UPK3VUT4QIS8JL68G3ADY67UC5", "dateTime": 1519415531942}, {"current_trial": 229, "trialdata": {"rt": -1, "trial_type": "single-stim", "word": "eyelash", "stimulus": "<p id=\"stim\">EYELASH</p>", "conditions": [24, 1600, "v", 12000], "internal_node_id": "0.0-166.0", "trial": 6, "time_elapsed": 1009255, "serialpos": 16, "key_press": -1, "wordID": 545, "type": "PRES_VIS", "trial_index": 229}, "uniqueid": "MTK2838:3YZ8UPK3VUT4QIS8JL68G3ADY67UC5", "dateTime": 1519415534671}, {"current_trial": 230, "trialdata": {"rt": -1, "trial_type": "single-stim", "word": "bacon", "stimulus": "<p id=\"stim\">BACON</p>", "conditions": [24, 1600, "v", 12000], "internal_node_id": "0.0-167.0", "trial": 6, "time_elapsed": 1011986, "serialpos": 17, "key_press": -1, "wordID": 66, "type": "PRES_VIS", "trial_index": 230}, "uniqueid": "MTK2838:3YZ8UPK3VUT4QIS8JL68G3ADY67UC5", "dateTime": 1519415537403}, {"current_trial": 231, "trialdata": {"rt": -1, "trial_type": "single-stim", "word": "antler", "stimulus": "<p id=\"stim\">ANTLER</p>", "conditions": [24, 1600, "v", 12000], "internal_node_id": "0.0-168.0", "trial": 6, "time_elapsed": 1014605, "serialpos": 18, "key_press": -1, "wordID": 28, "type": "PRES_VIS", "trial_index": 231}, "uniqueid": "MTK2838:3YZ8UPK3VUT4QIS8JL68G3ADY67UC5", "dateTime": 1519415540021}, {"current_trial": 232, "trialdata": {"rt": -1, "trial_type": "single-stim", "word": "tortoise", "stimulus": "<p id=\"stim\">TORTOISE</p>", "conditions": [24, 1600, "v", 12000], "internal_node_id": "0.0-169.0", "trial": 6, "time_elapsed": 1017095, "serialpos": 19, "key_press": -1, "wordID": 1485, "type": "PRES_VIS", "trial_index": 232}, "uniqueid": "MTK2838:3YZ8UPK3VUT4QIS8JL68G3ADY67UC5", "dateTime": 1519415542511}, {"current_trial": 233, "trialdata": {"rt": -1, "trial_type": "single-stim", "word": "mailbox", "stimulus": "<p id=\"stim\">MAILBOX</p>", "conditions": [24, 1600, "v", 12000], "internal_node_id": "0.0-170.0", "trial": 6, "time_elapsed": 1019705, "serialpos": 20, "key_press": -1, "wordID": 856, "type": "PRES_VIS", "trial_index": 233}, "uniqueid": "MTK2838:3YZ8UPK3VUT4QIS8JL68G3ADY67UC5", "dateTime": 1519415545121}, {"current_trial": 234, "trialdata": {"rt": -1, "trial_type": "single-stim", "word": "thief", "stimulus": "<p id=\"stim\">THIEF</p>", "conditions": [24, 1600, "v", 12000], "internal_node_id": "0.0-171.0", "trial": 6, "time_elapsed": 1022372, "serialpos": 21, "key_press": -1, "wordID": 1455, "type": "PRES_VIS", "trial_index": 234}, "uniqueid": "MTK2838:3YZ8UPK3VUT4QIS8JL68G3ADY67UC5", "dateTime": 1519415547788}, {"current_trial": 235, "trialdata": {"rt": -1, "trial_type": "single-stim", "word": "robber", "stimulus": "<p id=\"stim\">ROBBER</p>", "conditions": [24, 1600, "v", 12000], "internal_node_id": "0.0-172.0", "trial": 6, "time_elapsed": 1025119, "serialpos": 22, "key_press": -1, "wordID": 1196, "type": "PRES_VIS", "trial_index": 235}, "uniqueid": "MTK2838:3YZ8UPK3VUT4QIS8JL68G3ADY67UC5", "dateTime": 1519415550536}, {"current_trial": 236, "trialdata": {"rt": -1, "trial_type": "single-stim", "word": "picnic", "stimulus": "<p id=\"stim\">PICNIC</p>", "conditions": [24, 1600, "v", 12000], "internal_node_id": "0.0-173.0", "trial": 6, "time_elapsed": 1027681, "serialpos": 23, "key_press": -1, "wordID": 1059, "type": "PRES_VIS", "trial_index": 236}, "uniqueid": "MTK2838:3YZ8UPK3VUT4QIS8JL68G3ADY67UC5", "dateTime": 1519415553097}, {"current_trial": 237, "trialdata": {"rt": -1, "trial_type": "single-stim", "stimulus": "", "internal_node_id": "0.0-174.0-0.0", "time_elapsed": 1029727, "key_press": -1, "type": "PRE_RECALL_DELAY", "trial_index": 237}, "uniqueid": "MTK2838:3YZ8UPK3VUT4QIS8JL68G3ADY67UC5", "dateTime": 1519415555143}, {"current_trial": 238, "trialdata": {"rt": -1000, "trial_type": "single-audio", "stimulus": "/static/audio/400Hz.wav", "internal_node_id": "0.0-175.0", "time_elapsed": 1030227, "key_press": -1, "type": "PRE_RECALL_ALERT", "trial_index": 238}, "uniqueid": "MTK2838:3YZ8UPK3VUT4QIS8JL68G3ADY67UC5", "dateTime": 1519415555643}, {"current_trial": 239, "trialdata": {"rt": [3126, 4743, 7894, 9174, 13094, 15190, 18255, 20118], "recwords": ["thief", "robber", "basement", "office", "piano", "guitar", "student", "witness"], "key_times": [1447, 1519, 1638, 2118, 2487, 3126, 3598, 3687, 3838, 3983, 4223, 4326, 4743, 6559, 6687, 6839, 6959, 7206, 7359, 7463, 7582, 7894, 8359, 8470, 8607, 8742, 8846, 9039, 9174, 12231, 12382, 12511, 12582, 12702, 13094, 14158, 14271, 14374, 14607, 14831, 14982, 15190, 16295, 16510, 16630, 16758, 17511, 17647, 17758, 18255, 18894, 18967, 19110, 19246, 19414, 19575, 19758, 20118], "trial_type": "free-recall", "conditions": [24, 1600, "v", 12000], "internal_node_id": "0.0-176.0-0.0", "key_presses": [84, 72, 73, 69, 70, 32, 82, 79, 66, 66, 69, 82, 32, 66, 65, 83, 69, 77, 69, 78, 84, 32, 79, 70, 70, 73, 67, 69, 32, 80, 73, 65, 78, 79, 32, 71, 85, 73, 84, 65, 82, 32, 83, 84, 85, 68, 69, 78, 84, 32, 87, 73, 84, 78, 69, 83, 83, 32], "trial": 6, "time_elapsed": 1090232, "type": "FREE_RECALL", "trial_index": 239}, "uniqueid": "MTK2838:3YZ8UPK3VUT4QIS8JL68G3ADY67UC5", "dateTime": 1519415615652}, {"current_trial": 240, "trialdata": {"rt": 1391, "trial_type": "text", "internal_node_id": "0.0-177.0", "time_elapsed": 1093628, "key_press": 32, "type": "INSTRUCTIONS", "trial_index": 240}, "uniqueid": "MTK2838:3YZ8UPK3VUT4QIS8JL68G3ADY67UC5", "dateTime": 1519415619044}, {"current_trial": 241, "trialdata": {"rt": [3246, 7317, 10101], "trial_type": "math-distractor", "key_times": [3110, 3246, 6638, 7190, 7317, 9510, 9974, 10101], "responses": ["8", "17", "16"], "num2": [1, 7, 6, 3], "num3": [2, 5, 4, 6], "conditions": [24, 1600, "v", 12000], "internal_node_id": "0.0-178.0", "key_presses": [56, 13, 49, 55, 13, 49, 54, 13], "trial": 7, "time_elapsed": 1107631, "type": "DISTRACTOR", "trial_index": 241, "num1": [5, 5, 6, 2]}, "uniqueid": "MTK2838:3YZ8UPK3VUT4QIS8JL68G3ADY67UC5", "dateTime": 1519415633047}, {"current_trial": 242, "trialdata": {"rt": -1, "trial_type": "single-stim", "stimulus": "<p id=\"stim\">10</p>", "internal_node_id": "0.0-179.0-0.0", "time_elapsed": 1110634, "key_press": -1, "trial_index": 242}, "uniqueid": "MTK2838:3YZ8UPK3VUT4QIS8JL68G3ADY67UC5", "dateTime": 1519415636050}, {"current_trial": 243, "trialdata": {"rt": -1, "trial_type": "single-stim", "stimulus": "<p id=\"stim\">9</p>", "internal_node_id": "0.0-179.0-1.0", "time_elapsed": 1111635, "key_press": -1, "trial_index": 243}, "uniqueid": "MTK2838:3YZ8UPK3VUT4QIS8JL68G3ADY67UC5", "dateTime": 1519415637052}, {"current_trial": 244, "trialdata": {"rt": -1, "trial_type": "single-stim", "stimulus": "<p id=\"stim\">8</p>", "internal_node_id": "0.0-179.0-2.0", "time_elapsed": 1112637, "key_press": -1, "trial_index": 244}, "uniqueid": "MTK2838:3YZ8UPK3VUT4QIS8JL68G3ADY67UC5", "dateTime": 1519415638053}, {"current_trial": 245, "trialdata": {"rt": -1, "trial_type": "single-stim", "stimulus": "<p id=\"stim\">7</p>", "internal_node_id": "0.0-179.0-3.0", "time_elapsed": 1113639, "key_press": -1, "trial_index": 245}, "uniqueid": "MTK2838:3YZ8UPK3VUT4QIS8JL68G3ADY67UC5", "dateTime": 1519415639055}, {"current_trial": 246, "trialdata": {"rt": -1, "trial_type": "single-stim", "stimulus": "<p id=\"stim\">6</p>", "internal_node_id": "0.0-179.0-4.0", "time_elapsed": 1114639, "key_press": -1, "trial_index": 246}, "uniqueid": "MTK2838:3YZ8UPK3VUT4QIS8JL68G3ADY67UC5", "dateTime": 1519415640056}, {"current_trial": 247, "trialdata": {"rt": -1, "trial_type": "single-stim", "stimulus": "<p id=\"stim\">5</p>", "internal_node_id": "0.0-179.0-5.0", "time_elapsed": 1115642, "key_press": -1, "trial_index": 247}, "uniqueid": "MTK2838:3YZ8UPK3VUT4QIS8JL68G3ADY67UC5", "dateTime": 1519415641058}, {"current_trial": 248, "trialdata": {"rt": -1, "trial_type": "single-stim", "stimulus": "<p id=\"stim\">4</p>", "internal_node_id": "0.0-179.0-6.0", "time_elapsed": 1116643, "key_press": -1, "trial_index": 248}, "uniqueid": "MTK2838:3YZ8UPK3VUT4QIS8JL68G3ADY67UC5", "dateTime": 1519415642059}, {"current_trial": 249, "trialdata": {"rt": -1, "trial_type": "single-stim", "stimulus": "<p id=\"stim\">3</p>", "internal_node_id": "0.0-179.0-7.0", "time_elapsed": 1117645, "key_press": -1, "trial_index": 249}, "uniqueid": "MTK2838:3YZ8UPK3VUT4QIS8JL68G3ADY67UC5", "dateTime": 1519415643061}, {"current_trial": 250, "trialdata": {"rt": -1, "trial_type": "single-stim", "stimulus": "<p id=\"stim\">2</p>", "internal_node_id": "0.0-179.0-8.0", "time_elapsed": 1118647, "key_press": -1, "trial_index": 250}, "uniqueid": "MTK2838:3YZ8UPK3VUT4QIS8JL68G3ADY67UC5", "dateTime": 1519415644063}, {"current_trial": 251, "trialdata": {"rt": -1, "trial_type": "single-stim", "stimulus": "<p id=\"stim\">1</p>", "internal_node_id": "0.0-179.0-9.0", "time_elapsed": 1119648, "key_press": -1, "trial_index": 251}, "uniqueid": "MTK2838:3YZ8UPK3VUT4QIS8JL68G3ADY67UC5", "dateTime": 1519415645064}, {"current_trial": 252, "trialdata": {"rt": -1, "trial_type": "single-stim", "stimulus": "<p id=\"stim\">+</p>", "internal_node_id": "0.0-180.0-0.0", "time_elapsed": 1121149, "key_press": -1, "type": "FIXATION", "trial_index": 252}, "uniqueid": "MTK2838:3YZ8UPK3VUT4QIS8JL68G3ADY67UC5", "dateTime": 1519415646565}, {"current_trial": 253, "trialdata": {"rt": -1, "trial_type": "single-stim", "word": "tutu", "stimulus": "<p id=\"stim\">TUTU</p>", "conditions": [24, 1600, "v", 12000], "internal_node_id": "0.0-181.0", "trial": 7, "time_elapsed": 1122752, "serialpos": 0, "key_press": -1, "wordID": 1523, "type": "PRES_VIS", "trial_index": 253}, "uniqueid": "MTK2838:3YZ8UPK3VUT4QIS8JL68G3ADY67UC5", "dateTime": 1519415648168}, {"current_trial": 254, "trialdata": {"rt": -1, "trial_type": "single-stim", "word": "temple", "stimulus": "<p id=\"stim\">TEMPLE</p>", "conditions": [24, 1600, "v", 12000], "internal_node_id": "0.0-182.0", "trial": 7, "time_elapsed": 1125484, "serialpos": 1, "key_press": -1, "wordID": 1447, "type": "PRES_VIS", "trial_index": 254}, "uniqueid": "MTK2838:3YZ8UPK3VUT4QIS8JL68G3ADY67UC5", "dateTime": 1519415650900}, {"current_trial": 255, "trialdata": {"rt": -1, "trial_type": "single-stim", "word": "cocoon", "stimulus": "<p id=\"stim\">COCOON</p>", "conditions": [24, 1600, "v", 12000], "internal_node_id": "0.0-183.0", "trial": 7, "time_elapsed": 1128110, "serialpos": 2, "key_press": -1, "wordID": 338, "type": "PRES_VIS", "trial_index": 255}, "uniqueid": "MTK2838:3YZ8UPK3VUT4QIS8JL68G3ADY67UC5", "dateTime": 1519415653526}, {"current_trial": 256, "trialdata": {"rt": -1, "trial_type": "single-stim", "word": "victim", "stimulus": "<p id=\"stim\">VICTIM</p>", "conditions": [24, 1600, "v", 12000], "internal_node_id": "0.0-184.0", "trial": 7, "time_elapsed": 1130843, "serialpos": 3, "key_press": -1, "wordID": 1561, "type": "PRES_VIS", "trial_index": 256}, "uniqueid": "MTK2838:3YZ8UPK3VUT4QIS8JL68G3ADY67UC5", "dateTime": 1519415656259}, {"current_trial": 257, "trialdata": {"rt": -1, "trial_type": "single-stim", "word": "woman", "stimulus": "<p id=\"stim\">WOMAN</p>", "conditions": [24, 1600, "v", 12000], "internal_node_id": "0.0-185.0", "trial": 7, "time_elapsed": 1133472, "serialpos": 4, "key_press": -1, "wordID": 1619, "type": "PRES_VIS", "trial_index": 257}, "uniqueid": "MTK2838:3YZ8UPK3VUT4QIS8JL68G3ADY67UC5", "dateTime": 1519415658888}, {"current_trial": 258, "trialdata": {"rt": -1, "trial_type": "single-stim", "word": "fireplace", "stimulus": "<p id=\"stim\">FIREPLACE</p>", "conditions": [24, 1600, "v", 12000], "internal_node_id": "0.0-186.0", "trial": 7, "time_elapsed": 1136052, "serialpos": 5, "key_press": -1, "wordID": 569, "type": "PRES_VIS", "trial_index": 258}, "uniqueid": "MTK2838:3YZ8UPK3VUT4QIS8JL68G3ADY67UC5", "dateTime": 1519415661468}, {"current_trial": 259, "trialdata": {"rt": -1, "trial_type": "single-stim", "word": "pudding", "stimulus": "<p id=\"stim\">PUDDING</p>", "conditions": [24, 1600, "v", 12000], "internal_node_id": "0.0-187.0", "trial": 7, "time_elapsed": 1138620, "serialpos": 6, 