{"assignmentId": "3ZSY5X72NYIDJFXU5WKU6SHAFAOROA", "workerId": "MTK2575", "questiondata": {"avail_screen_height": 2400, "color_depth": 24, "screen_width": 3840, "pixel_depth": 24, "avail_screen_width": 3840, "screen_height": 2400}, "bonus": 0, "hitId": "3CESM1J3EIAQFLAIES34N77G2KU6WJ", "counterbalance": 1951, "useragent": "Mozilla/5.0 (Windows NT 10.0; Win64; x64; rv:58.0) Gecko/20100101 Firefox/58.0", "eventdata": [{"eventtype": "initialized", "interval": 0, "value": null, "timestamp": 1519074694557}, {"eventtype": "window_resize", "interval": 0, "value": [3792, 2152], "timestamp": 1519074694557}, {"eventtype": "window_resize", "interval": 23370, "value": [2275, 1291], "timestamp": 1519074717927}, {"eventtype": "window_resize", "interval": 292, "value": [1706, 968], "timestamp": 1519074718219}], "data": [{"current_trial": 0, "trialdata": {"rt": 2394, "trial_type": "text", "internal_node_id": "0.0-0.0", "time_elapsed": 2397, "key_press": 100, "type": "INSTRUCTIONS", "trial_index": 0}, "uniqueid": "MTK2575:3ZSY5X72NYIDJFXU5WKU6SHAFAOROA", "dateTime": 1519074698066}, {"current_trial": 1, "trialdata": {"rt": 11779, "trial_type": "text", "internal_node_id": "0.0-1.0", "time_elapsed": 14178, "key_press": 100, "type": "INSTRUCTIONS", "trial_index": 1}, "uniqueid": "MTK2575:3ZSY5X72NYIDJFXU5WKU6SHAFAOROA", "dateTime": 1519074709847}, {"current_trial": 2, "trialdata": {"rt": [18793], "trial_type": "audio-test", "responses": ["ocean"], "internal_node_id": "0.0-2.0", "time_elapsed": 33035, "type": "AUDIO_TEST", "trial_index": 2}, "uniqueid": "MTK2575:3ZSY5X72NYIDJFXU5WKU6SHAFAOROA", "dateTime": 1519074728704}, {"current_trial": 3, "trialdata": {"rt": [9388], "trial_type": "audio-test", "responses": ["crystal"], "internal_node_id": "0.0-3.0", "time_elapsed": 42438, "type": "AUDIO_TEST", "trial_index": 3}, "uniqueid": "MTK2575:3ZSY5X72NYIDJFXU5WKU6SHAFAOROA", "dateTime": 1519074738106}, {"current_trial": 4, "trialdata": {"rt": [7355], "trial_type": "audio-test", "responses": ["spice"], "internal_node_id": "0.0-4.0", "time_elapsed": 49811, "type": "AUDIO_TEST", "trial_index": 4}, "uniqueid": "MTK2575:3ZSY5X72NYIDJFXU5WKU6SHAFAOROA", "dateTime": 1519074745480}, {"current_trial": 5, "trialdata": {"rt": 37135, "trial_type": "survey-text", "responses": "{\"Q0\":\"12\",\"Q1\":\"6\",\"Q2\":\"5\"}", "internal_node_id": "0.0-5.0", "time_elapsed": 87703, "type": "SLEEP_SURVEY", "trial_index": 5}, "uniqueid": "MTK2575:3ZSY5X72NYIDJFXU5WKU6SHAFAOROA", "dateTime": 1519074783371}, {"current_trial": 6, "trialdata": {"rt": 27460, "trial_type": "text", "internal_node_id": "0.0-6.0", "time_elapsed": 116169, "key_press": 13, "type": "INSTRUCTIONS", "trial_index": 6}, "uniqueid": "MTK2575:3ZSY5X72NYIDJFXU5WKU6SHAFAOROA", "dateTime": 1519074811838}, {"current_trial": 7, "trialdata": {"rt": 6673, "trial_type": "text", "internal_node_id": "0.0-7.0", "time_elapsed": 123344, "key_press": 13, "type": "INSTRUCTIONS", "trial_index": 7}, "uniqueid": "MTK2575:3ZSY5X72NYIDJFXU5WKU6SHAFAOROA", "dateTime": 1519074819013}, {"current_trial": 8, "trialdata": {"rt": 3665, "trial_type": "text", "internal_node_id": "0.0-8.0", "time_elapsed": 127520, "key_press": 13, "type": "INSTRUCTIONS", "trial_index": 8}, "uniqueid": "MTK2575:3ZSY5X72NYIDJFXU5WKU6SHAFAOROA", "dateTime": 1519074823188}, {"current_trial": 9, "trialdata": {"rt": [6388, 10843], "trial_type": "math-distractor", "key_times": [4877, 5525, 6388, 9124, 9654, 10843], "responses": ["13", "16"], "num2": [2, 6, 7], "num3": [8, 6, 5], "conditions": [18, 1200, "v", 18000], "internal_node_id": "0.0-9.0", "key_presses": [97, 99, 13, 97, 102, 13], "trial": 0, "time_elapsed": 146533, "type": "DISTRACTOR", "trial_index": 9, "num1": [3, 4, 4]}, "uniqueid": "MTK2575:3ZSY5X72NYIDJFXU5WKU6SHAFAOROA", "dateTime": 1519074842201}, {"current_trial": 10, "trialdata": {"rt": -1, "trial_type": "single-stim", "stimulus": "<p id=\"stim\">10</p>", "internal_node_id": "0.0-10.0-0.0", "time_elapsed": 149552, "key_press": -1, "trial_index": 10}, "uniqueid": "MTK2575:3ZSY5X72NYIDJFXU5WKU6SHAFAOROA", "dateTime": 1519074845221}, {"current_trial": 11, "trialdata": {"rt": -1, "trial_type": "single-stim", "stimulus": "<p id=\"stim\">9</p>", "internal_node_id": "0.0-10.0-1.0", "time_elapsed": 150564, "key_press": -1, "trial_index": 11}, "uniqueid": "MTK2575:3ZSY5X72NYIDJFXU5WKU6SHAFAOROA", "dateTime": 1519074846232}, {"current_trial": 12, "trialdata": {"rt": -1, "trial_type": "single-stim", "stimulus": "<p id=\"stim\">8</p>", "internal_node_id": "0.0-10.0-2.0", "time_elapsed": 151569, "key_press": -1, "trial_index": 12}, "uniqueid": "MTK2575:3ZSY5X72NYIDJFXU5WKU6SHAFAOROA", "dateTime": 1519074847238}, {"current_trial": 13, "trialdata": {"rt": -1, "trial_type": "single-stim", "stimulus": "<p id=\"stim\">7</p>", "internal_node_id": "0.0-10.0-3.0", "time_elapsed": 152576, "key_press": -1, "trial_index": 13}, "uniqueid": "MTK2575:3ZSY5X72NYIDJFXU5WKU6SHAFAOROA", "dateTime": 1519074848244}, {"current_trial": 14, "trialdata": {"rt": -1, "trial_type": "single-stim", "stimulus": "<p id=\"stim\">6</p>", "internal_node_id": "0.0-10.0-4.0", "time_elapsed": 153583, "key_press": -1, "trial_index": 14}, "uniqueid": "MTK2575:3ZSY5X72NYIDJFXU5WKU6SHAFAOROA", "dateTime": 1519074849252}, {"current_trial": 15, "trialdata": {"rt": -1, "trial_type": "single-stim", "stimulus": "<p id=\"stim\">5</p>", "internal_node_id": "0.0-10.0-5.0", "time_elapsed": 154589, "key_press": -1, "trial_index": 15}, "uniqueid": "MTK2575:3ZSY5X72NYIDJFXU5WKU6SHAFAOROA", "dateTime": 1519074850257}, {"current_trial": 16, "trialdata": {"rt": -1, "trial_type": "single-stim", "stimulus": "<p id=\"stim\">4</p>", "internal_node_id": "0.0-10.0-6.0", "time_elapsed": 155592, "key_press": -1, "trial_index": 16}, "uniqueid": "MTK2575:3ZSY5X72NYIDJFXU5WKU6SHAFAOROA", "dateTime": 1519074851260}, {"current_trial": 17, "trialdata": {"rt": -1, "trial_type": "single-stim", "stimulus": "<p id=\"stim\">3</p>", "internal_node_id": "0.0-10.0-7.0", "time_elapsed": 156598, "key_press": -1, "trial_index": 17}, "uniqueid": "MTK2575:3ZSY5X72NYIDJFXU5WKU6SHAFAOROA", "dateTime": 1519074852266}, {"current_trial": 18, "trialdata": {"rt": -1, "trial_type": "single-stim", "stimulus": "<p id=\"stim\">2</p>", "internal_node_id": "0.0-10.0-8.0", "time_elapsed": 157603, "key_press": -1, "trial_index": 18}, "uniqueid": "MTK2575:3ZSY5X72NYIDJFXU5WKU6SHAFAOROA", "dateTime": 1519074853272}, {"current_trial": 19, "trialdata": {"rt": -1, "trial_type": "single-stim", "stimulus": "<p id=\"stim\">1</p>", "internal_node_id": "0.0-10.0-9.0", "time_elapsed": 158607, "key_press": -1, "trial_index": 19}, "uniqueid": "MTK2575:3ZSY5X72NYIDJFXU5WKU6SHAFAOROA", "dateTime": 1519074854275}, {"current_trial": 20, "trialdata": {"rt": -1, "trial_type": "single-stim", "stimulus": "<p id=\"stim\">+</p>", "internal_node_id": "0.0-11.0-0.0", "time_elapsed": 160109, "key_press": -1, "type": "FIXATION", "trial_index": 20}, "uniqueid": "MTK2575:3ZSY5X72NYIDJFXU5WKU6SHAFAOROA", "dateTime": 1519074855777}, {"current_trial": 21, "trialdata": {"rt": -1, "trial_type": "single-stim", "word": "headband", "stimulus": "<p id=\"stim\">HEADBAND</p>", "conditions": [18, 1200, "v", 18000], "internal_node_id": "0.0-12.0", "trial": 0, "time_elapsed": 161312, "serialpos": 0, "key_press": -1, "wordID": 695, "type": "PRES_VIS", "trial_index": 21}, "uniqueid": "MTK2575:3ZSY5X72NYIDJFXU5WKU6SHAFAOROA", "dateTime": 1519074856980}, {"current_trial": 22, "trialdata": {"rt": -1, "trial_type": "single-stim", "word": "farmer", "stimulus": "<p id=\"stim\">FARMER</p>", "conditions": [18, 1200, "v", 18000], "internal_node_id": "0.0-13.0", "trial": 0, "time_elapsed": 163507, "serialpos": 1, "key_press": -1, "wordID": 552, "type": "PRES_VIS", "trial_index": 22}, "uniqueid": "MTK2575:3ZSY5X72NYIDJFXU5WKU6SHAFAOROA", "dateTime": 1519074859175}, {"current_trial": 23, "trialdata": {"rt": -1, "trial_type": "single-stim", "word": "hiker", "stimulus": "<p id=\"stim\">HIKER</p>", "conditions": [18, 1200, "v", 18000], "internal_node_id": "0.0-14.0", "trial": 0, "time_elapsed": 165609, "serialpos": 2, "key_press": -1, "wordID": 707, "type": "PRES_VIS", "trial_index": 23}, "uniqueid": "MTK2575:3ZSY5X72NYIDJFXU5WKU6SHAFAOROA", "dateTime": 1519074861277}, {"current_trial": 24, "trialdata": {"rt": -1, "trial_type": "single-stim", "word": "zipper", "stimulus": "<p id=\"stim\">ZIPPER</p>", "conditions": [18, 1200, "v", 18000], "internal_node_id": "0.0-15.0", "trial": 0, "time_elapsed": 167668, "serialpos": 3, "key_press": -1, "wordID": 1635, "type": "PRES_VIS", "trial_index": 24}, "uniqueid": "MTK2575:3ZSY5X72NYIDJFXU5WKU6SHAFAOROA", "dateTime": 1519074863336}, {"current_trial": 25, "trialdata": {"rt": -1, "trial_type": "single-stim", "word": "briefcase", "stimulus": "<p id=\"stim\">BRIEFCASE</p>", "conditions": [18, 1200, "v", 18000], "internal_node_id": "0.0-16.0", "trial": 0, "time_elapsed": 169719, "serialpos": 4, "key_press": -1, "wordID": 174, "type": "PRES_VIS", "trial_index": 25}, "uniqueid": "MTK2575:3ZSY5X72NYIDJFXU5WKU6SHAFAOROA", "dateTime": 1519074865387}, {"current_trial": 26, "trialdata": {"rt": -1, "trial_type": "single-stim", "word": "actress", "stimulus": "<p id=\"stim\">ACTRESS</p>", "conditions": [18, 1200, "v", 18000], "internal_node_id": "0.0-17.0", "trial": 0, "time_elapsed": 172116, "serialpos": 5, "key_press": -1, "wordID": 5, "type": "PRES_VIS", "trial_index": 26}, "uniqueid": "MTK2575:3ZSY5X72NYIDJFXU5WKU6SHAFAOROA", "dateTime": 1519074867784}, {"current_trial": 27, "trialdata": {"rt": -1, "trial_type": "single-stim", "word": "bank", "stimulus": "<p id=\"stim\">BANK</p>", "conditions": [18, 1200, "v", 18000], "internal_node_id": "0.0-18.0", "trial": 0, "time_elapsed": 174168, "serialpos": 6, "key_press": -1, "wordID": 82, "type": "PRES_VIS", "trial_index": 27}, "uniqueid": "MTK2575:3ZSY5X72NYIDJFXU5WKU6SHAFAOROA", "dateTime": 1519074869836}, {"current_trial": 28, "trialdata": {"rt": -1, "trial_type": "single-stim", "word": "princess", "stimulus": "<p id=\"stim\">PRINCESS</p>", "conditions": [18, 1200, "v", 18000], "internal_node_id": "0.0-19.0", "trial": 0, "time_elapsed": 176486, "serialpos": 7, "key_press": -1, "wordID": 1124, "type": "PRES_VIS", "trial_index": 28}, "uniqueid": "MTK2575:3ZSY5X72NYIDJFXU5WKU6SHAFAOROA", "dateTime": 1519074872154}, {"current_trial": 29, "trialdata": {"rt": -1, "trial_type": "single-stim", "word": "lettuce", "stimulus": "<p id=\"stim\">LETTUCE</p>", "conditions": [18, 1200, "v", 18000], "internal_node_id": "0.0-20.0", "trial": 0, "time_elapsed": 178634, "serialpos": 8, "key_press": -1, "wordID": 813, "type": "PRES_VIS", "trial_index": 29}, "uniqueid": "MTK2575:3ZSY5X72NYIDJFXU5WKU6SHAFAOROA", "dateTime": 1519074874302}, {"current_trial": 30, "trialdata": {"rt": -1, "trial_type": "single-stim", "word": "cyclone", "stimulus": "<p id=\"stim\">CYCLONE</p>", "conditions": [18, 1200, "v", 18000], "internal_node_id": "0.0-21.0", "trial": 0, "time_elapsed": 180843, "serialpos": 9, "key_press": -1, "wordID": 430, "type": "PRES_VIS", "trial_index": 30}, "uniqueid": "MTK2575:3ZSY5X72NYIDJFXU5WKU6SHAFAOROA", "dateTime": 1519074876512}, {"current_trial": 31, "trialdata": {"rt": -1, "trial_type": "single-stim", "word": "taxi", "stimulus": "<p id=\"stim\">TAXI</p>", "conditions": [18, 1200, "v", 18000], "internal_node_id": "0.0-22.0", "trial": 0, "time_elapsed": 183072, "serialpos": 10, "key_press": -1, "wordID": 1437, "type": "PRES_VIS", "trial_index": 31}, "uniqueid": "MTK2575:3ZSY5X72NYIDJFXU5WKU6SHAFAOROA", "dateTime": 1519074878741}, {"current_trial": 32, "trialdata": {"rt": -1, "trial_type": "single-stim", "word": "oyster", "stimulus": "<p id=\"stim\">OYSTER</p>", "conditions": [18, 1200, "v", 18000], "internal_node_id": "0.0-23.0", "trial": 0, "time_elapsed": 185275, "serialpos": 11, "key_press": -1, "wordID": 994, "type": "PRES_VIS", "trial_index": 32}, "uniqueid": "MTK2575:3ZSY5X72NYIDJFXU5WKU6SHAFAOROA", "dateTime": 1519074880943}, {"current_trial": 33, "trialdata": {"rt": -1, "trial_type": "single-stim", "word": "daughter", "stimulus": "<p id=\"stim\">DAUGHTER</p>", "conditions": [18, 1200, "v", 18000], "internal_node_id": "0.0-24.0", "trial": 0, "time_elapsed": 187571, "serialpos": 12, "key_press": -1, "wordID": 441, "type": "PRES_VIS", "trial_index": 33}, "uniqueid": "MTK2575:3ZSY5X72NYIDJFXU5WKU6SHAFAOROA", "dateTime": 1519074883239}, {"current_trial": 34, "trialdata": {"rt": -1, "trial_type": "single-stim", "word": "atom", "stimulus": "<p id=\"stim\">ATOM</p>", "conditions": [18, 1200, "v", 18000], "internal_node_id": "0.0-25.0", "trial": 0, "time_elapsed": 189765, "serialpos": 13, "key_press": -1, "wordID": 54, "type": "PRES_VIS", "trial_index": 34}, "uniqueid": "MTK2575:3ZSY5X72NYIDJFXU5WKU6SHAFAOROA", "dateTime": 1519074885434}, {"current_trial": 35, "trialdata": {"rt": -1, "trial_type": "single-stim", "word": "cashew", "stimulus": "<p id=\"stim\">CASHEW</p>", "conditions": [18, 1200, "v", 18000], "internal_node_id": "0.0-26.0", "trial": 0, "time_elapsed": 191806, "serialpos": 14, "key_press": -1, "wordID": 252, "type": "PRES_VIS", "trial_index": 35}, "uniqueid": "MTK2575:3ZSY5X72NYIDJFXU5WKU6SHAFAOROA", "dateTime": 1519074887474}, {"current_trial": 36, "trialdata": {"rt": -1, "trial_type": "single-stim", "word": "peach", "stimulus": "<p id=\"stim\">PEACH</p>", "conditions": [18, 1200, "v", 18000], "internal_node_id": "0.0-27.0", "trial": 0, "time_elapsed": 193829, "serialpos": 15, "key_press": -1, "wordID": 1030, "type": "PRES_VIS", "trial_index": 36}, "uniqueid": "MTK2575:3ZSY5X72NYIDJFXU5WKU6SHAFAOROA", "dateTime": 1519074889498}, {"current_trial": 37, "trialdata": {"rt": -1, "trial_type": "single-stim", "word": "tractor", "stimulus": "<p id=\"stim\">TRACTOR</p>", "conditions": [18, 1200, "v", 18000], "internal_node_id": "0.0-28.0", "trial": 0, "time_elapsed": 195940, "serialpos": 16, "key_press": -1, "wordID": 1492, "type": "PRES_VIS", "trial_index": 37}, "uniqueid": "MTK2575:3ZSY5X72NYIDJFXU5WKU6SHAFAOROA", "dateTime": 1519074891608}, {"current_trial": 38, "trialdata": {"rt": -1, "trial_type": "single-stim", "word": "plate", "stimulus": "<p id=\"stim\">PLATE</p>", "conditions": [18, 1200, "v", 18000], "internal_node_id": "0.0-29.0", "trial": 0, "time_elapsed": 198164, "serialpos": 17, "key_press": -1, "wordID": 1085, "type": "PRES_VIS", "trial_index": 38}, "uniqueid": "MTK2575:3ZSY5X72NYIDJFXU5WKU6SHAFAOROA", "dateTime": 1519074893832}, {"current_trial": 39, "trialdata": {"rt": -1, "trial_type": "single-stim", "stimulus": "", "internal_node_id": "0.0-30.0-0.0", "time_elapsed": 200607, "key_press": -1, "type": "PRE_RECALL_DELAY", "trial_index": 39}, "uniqueid": "MTK2575:3ZSY5X72NYIDJFXU5WKU6SHAFAOROA", "dateTime": 1519074896276}, {"current_trial": 40, "trialdata": {"rt": -1000, "trial_type": "single-audio", "stimulus": "/static/audio/400Hz.wav", "internal_node_id": "0.0-31.0", "time_elapsed": 201118, "key_press": -1, "type": "PRE_RECALL_ALERT", "trial_index": 40}, "uniqueid": "MTK2575:3ZSY5X72NYIDJFXU5WKU6SHAFAOROA", "dateTime": 1519074896787}, {"current_trial": 41, "trialdata": {"rt": [4948, 6508, 7908, 9508, 20287, 54051, 54988], "recwords": ["headband", "bank", "atom", "hiker", "oyster", "cyclone", ""], "key_times": [2533, 2820, 3076, 3268, 3500, 3685, 4038, 4261, 4948, 5677, 5854, 5980, 6140, 6508, 7221, 7348, 7484, 7686, 7908, 8284, 8479, 8700, 8796, 9300, 9508, 18876, 19172, 19461, 19669, 19811, 19956, 20287, 51357, 51917, 52158, 52460, 52943, 53316, 53531, 53683, 53859, 54051, 54988], "trial_type": "free-recall", "conditions": [18, 1200, "v", 18000], "internal_node_id": "0.0-32.0-0.0", "key_presses": [72, 69, 65, 68, 66, 65, 78, 68, 13, 66, 65, 78, 75, 13, 65, 84, 79, 77, 13, 72, 73, 75, 69, 82, 13, 79, 89, 83, 84, 69, 82, 13, 67, 89, 67, 79, 8, 76, 79, 78, 69, 13, 13], "trial": 0, "time_elapsed": 261132, "type": "FREE_RECALL", "trial_index": 41}, "uniqueid": "MTK2575:3ZSY5X72NYIDJFXU5WKU6SHAFAOROA", "dateTime": 1519074956808}, {"current_trial": 42, "trialdata": {"rt": 1602, "trial_type": "text", "internal_node_id": "0.0-33.0", "time_elapsed": 264744, "key_press": 75, "type": "INSTRUCTIONS", "trial_index": 42}, "uniqueid": "MTK2575:3ZSY5X72NYIDJFXU5WKU6SHAFAOROA", "dateTime": 1519074960412}, {"current_trial": 43, "trialdata": {"rt": [7823, 12319, 16583], "trial_type": "math-distractor", "key_times": [6800, 7305, 7823, 11600, 11984, 12319, 15991, 16303, 16583], "responses": ["16", "17", "17"], "num2": [5, 5, 8, 1], "num3": [4, 3, 6, 1], "conditions": [18, 1200, "v", 18000], "internal_node_id": "0.0-34.0", "key_presses": [97, 102, 13, 97, 103, 13, 97, 103, 13], "trial": 1, "time_elapsed": 284770, "type": "DISTRACTOR", "trial_index": 43, "num1": [7, 9, 5, 2]}, "uniqueid": "MTK2575:3ZSY5X72NYIDJFXU5WKU6SHAFAOROA", "dateTime": 1519074980438}, {"current_trial": 44, "trialdata": {"rt": -1, "trial_type": "single-stim", "stimulus": "<p id=\"stim\">10</p>", "internal_node_id": "0.0-35.0-0.0", "time_elapsed": 287785, "key_press": -1, "trial_index": 44}, "uniqueid": "MTK2575:3ZSY5X72NYIDJFXU5WKU6SHAFAOROA", "dateTime": 1519074983453}, {"current_trial": 45, "trialdata": {"rt": -1, "trial_type": "single-stim", "stimulus": "<p id=\"stim\">9</p>", "internal_node_id": "0.0-35.0-1.0", "time_elapsed": 288803, "key_press": -1, "trial_index": 45}, "uniqueid": "MTK2575:3ZSY5X72NYIDJFXU5WKU6SHAFAOROA", "dateTime": 1519074984472}, {"current_trial": 46, "trialdata": {"rt": -1, "trial_type": "single-stim", "stimulus": "<p id=\"stim\">8</p>", "internal_node_id": "0.0-35.0-2.0", "time_elapsed": 289826, "key_press": -1, "trial_index": 46}, "uniqueid": "MTK2575:3ZSY5X72NYIDJFXU5WKU6SHAFAOROA", "dateTime": 1519074985494}, {"current_trial": 47, "trialdata": {"rt": -1, "trial_type": "single-stim", "stimulus": "<p id=\"stim\">7</p>", "internal_node_id": "0.0-35.0-3.0", "time_elapsed": 290845, "key_press": -1, "trial_index": 47}, "uniqueid": "MTK2575:3ZSY5X72NYIDJFXU5WKU6SHAFAOROA", "dateTime": 1519074986513}, {"current_trial": 48, "trialdata": {"rt": -1, "trial_type": "single-stim", "stimulus": "<p id=\"stim\">6</p>", "internal_node_id": "0.0-35.0-4.0", "time_elapsed": 291853, "key_press": -1, "trial_index": 48}, "uniqueid": "MTK2575:3ZSY5X72NYIDJFXU5WKU6SHAFAOROA", "dateTime": 1519074987522}, {"current_trial": 49, "trialdata": {"rt": -1, "trial_type": "single-stim", "stimulus": "<p id=\"stim\">5</p>", "internal_node_id": "0.0-35.0-5.0", "time_elapsed": 292873, "key_press": -1, "trial_index": 49}, "uniqueid": "MTK2575:3ZSY5X72NYIDJFXU5WKU6SHAFAOROA", "dateTime": 1519074988541}, {"current_trial": 50, "trialdata": {"rt": -1, "trial_type": "single-stim", "stimulus": "<p id=\"stim\">4</p>", "internal_node_id": "0.0-35.0-6.0", "time_elapsed": 293884, "key_press": -1, "trial_index": 50}, "uniqueid": "MTK2575:3ZSY5X72NYIDJFXU5WKU6SHAFAOROA", "dateTime": 1519074989552}, {"current_trial": 51, "trialdata": {"rt": -1, "trial_type": "single-stim", "stimulus": "<p id=\"stim\">3</p>", "internal_node_id": "0.0-35.0-7.0", "time_elapsed": 294898, "key_press": -1, "trial_index": 51}, "uniqueid": "MTK2575:3ZSY5X72NYIDJFXU5WKU6SHAFAOROA", "dateTime": 1519074990567}, {"current_trial": 52, "trialdata": {"rt": -1, "trial_type": "single-stim", "stimulus": "<p id=\"stim\">2</p>", "internal_node_id": "0.0-35.0-8.0", "time_elapsed": 295902, "key_press": -1, "trial_index": 52}, "uniqueid": "MTK2575:3ZSY5X72NYIDJFXU5WKU6SHAFAOROA", "dateTime": 1519074991570}, {"current_trial": 53, "trialdata": {"rt": -1, "trial_type": "single-stim", "stimulus": "<p id=\"stim\">1</p>", "internal_node_id": "0.0-35.0-9.0", "time_elapsed": 296905, "key_press": -1, "trial_index": 53}, "uniqueid": "MTK2575:3ZSY5X72NYIDJFXU5WKU6SHAFAOROA", "dateTime": 1519074992573}, {"current_trial": 54, "trialdata": {"rt": -1, "trial_type": "single-stim", "stimulus": "<p id=\"stim\">+</p>", "internal_node_id": "0.0-36.0-0.0", "time_elapsed": 298417, "key_press": -1, "type": "FIXATION", "trial_index": 54}, "uniqueid": "MTK2575:3ZSY5X72NYIDJFXU5WKU6SHAFAOROA", "dateTime": 1519074994085}, {"current_trial": 55, "trialdata": {"rt": -1, "trial_type": "single-stim", "word": "penguin", "stimulus": "<p id=\"stim\">PENGUIN</p>", "conditions": [18, 1200, "v", 18000], "internal_node_id": "0.0-37.0", "trial": 1, "time_elapsed": 299633, "serialpos": 0, "key_press": -1, "wordID": 1043, "type": "PRES_VIS", "trial_index": 55}, "uniqueid": "MTK2575:3ZSY5X72NYIDJFXU5WKU6SHAFAOROA", "dateTime": 1519074995301}, {"current_trial": 56, "trialdata": {"rt": -1, "trial_type": "single-stim", "word": "beef", "stimulus": "<p id=\"stim\">BEEF</p>", "conditions": [18, 1200, "v", 18000], "internal_node_id": "0.0-38.0", "trial": 1, "time_elapsed": 301757, "serialpos": 1, "key_press": -1, "wordID": 112, "type": "PRES_VIS", "trial_index": 56}, "uniqueid": "MTK2575:3ZSY5X72NYIDJFXU5WKU6SHAFAOROA", "dateTime": 1519074997425}, {"current_trial": 57, "trialdata": {"rt": -1, "trial_type": "single-stim", "word": "chest", "stimulus": "<p id=\"stim\">CHEST</p>", "conditions": [18, 1200, "v", 18000], "internal_node_id": "0.0-39.0", "trial": 1, "time_elapsed": 303814, "serialpos": 2, "key_press": -1, "wordID": 294, "type": "PRES_VIS", "trial_index": 57}, "uniqueid": "MTK2575:3ZSY5X72NYIDJFXU5WKU6SHAFAOROA", "dateTime": 1519074999483}, {"current_trial": 58, "trialdata": {"rt": -1, "trial_type": "single-stim", "word": "jello", "stimulus": "<p id=\"stim\">JELLO</p>", "conditions": [18, 1200, "v", 18000], "internal_node_id": "0.0-40.0", "trial": 1, "time_elapsed": 305888, "serialpos": 3, "key_press": -1, "wordID": 753, "type": "PRES_VIS", "trial_index": 58}, "uniqueid": "MTK2575:3ZSY5X72NYIDJFXU5WKU6SHAFAOROA", "dateTime": 1519075001556}, {"current_trial": 59, "trialdata": {"rt": -1, "trial_type": "single-stim", "word": "freezer", "stimulus": "<p id=\"stim\">FREEZER</p>", "conditions": [18, 1200, "v", 18000], "internal_node_id": "0.0-41.0", "trial": 1, "time_elapsed": 307990, "serialpos": 4, "key_press": -1, "wordID": 603, "type": "PRES_VIS", "trial_index": 59}, "uniqueid": "MTK2575:3ZSY5X72NYIDJFXU5WKU6SHAFAOROA", "dateTime": 1519075003658}, {"current_trial": 60, "trialdata": {"rt": -1, "trial_type": "single-stim", "word": "uncle", "stimulus": "<p id=\"stim\">UNCLE</p>", "conditions": [18, 1200, "v", 18000], "internal_node_id": "0.0-42.0", "trial": 1, "time_elapsed": 310107, "serialpos": 5, "key_press": -1, "wordID": 1535, "type": "PRES_VIS", "trial_index": 60}, "uniqueid": "MTK2575:3ZSY5X72NYIDJFXU5WKU6SHAFAOROA", "dateTime": 1519075005775}, {"current_trial": 61, "trialdata": {"rt": -1, "trial_type": "single-stim", "word": "outfit", "stimulus": "<p id=\"stim\">OUTFIT</p>", "conditions": [18, 1200, "v", 18000], "internal_node_id": "0.0-43.0", "trial": 1, "time_elapsed": 312346, "serialpos": 6, "key_press": -1, "wordID": 987, "type": "PRES_VIS", "trial_index": 61}, "uniqueid": "MTK2575:3ZSY5X72NYIDJFXU5WKU6SHAFAOROA", "dateTime": 1519075008014}, {"current_trial": 62, "trialdata": {"rt": -1, "trial_type": "single-stim", "word": "arm", "stimulus": "<p id=\"stim\">ARM</p>", "conditions": [18, 1200, "v", 18000], "internal_node_id": "0.0-44.0", "trial": 1, "time_elapsed": 314384, "serialpos": 7, "key_press": -1, "wordID": 37, "type": "PRES_VIS", "trial_index": 62}, "uniqueid": "MTK2575:3ZSY5X72NYIDJFXU5WKU6SHAFAOROA", "dateTime": 1519075010052}, {"current_trial": 63, "trialdata": {"rt": -1, "trial_type": "single-stim", "word": "rocket", "stimulus": "<p id=\"stim\">ROCKET</p>", "conditions": [18, 1200, "v", 18000], "internal_node_id": "0.0-45.0", "trial": 1, "time_elapsed": 316640, "serialpos": 8, "key_press": -1, "wordID": 1201, "type": "PRES_VIS", "trial_index": 63}, "uniqueid": "MTK2575:3ZSY5X72NYIDJFXU5WKU6SHAFAOROA", "dateTime": 1519075012308}, {"current_trial": 64, "trialdata": {"rt": -1, "trial_type": "single-stim", "word": "viking", "stimulus": "<p id=\"stim\">VIKING</p>", "conditions": [18, 1200, "v", 18000], "internal_node_id": "0.0-46.0", "trial": 1, "time_elapsed": 318834, "serialpos": 9, "key_press": -1, "wordID": 1564, "type": "PRES_VIS", "trial_index": 64}, "uniqueid": "MTK2575:3ZSY5X72NYIDJFXU5WKU6SHAFAOROA", "dateTime": 1519075014502}, {"current_trial": 65, "trialdata": {"rt": -1, "trial_type": "single-stim", "word": "bubble", "stimulus": "<p id=\"stim\">BUBBLE</p>", "conditions": [18, 1200, "v", 18000], "internal_node_id": "0.0-47.0", "trial": 1, "time_elapsed": 321164, "serialpos": 10, "key_press": -1, "wordID": 182, "type": "PRES_VIS", "trial_index": 65}, "uniqueid": "MTK2575:3ZSY5X72NYIDJFXU5WKU6SHAFAOROA", "dateTime": 1519075016832}, {"current_trial": 66, "trialdata": {"rt": -1, "trial_type": "single-stim", "word": "europe", "stimulus": "<p id=\"stim\">EUROPE</p>", "conditions": [18, 1200, "v", 18000], "internal_node_id": "0.0-48.0", "trial": 1, "time_elapsed": 323356, "serialpos": 11, "key_press": -1, "wordID": 540, "type": "PRES_VIS", "trial_index": 66}, "uniqueid": "MTK2575:3ZSY5X72NYIDJFXU5WKU6SHAFAOROA", "dateTime": 1519075019024}, {"current_trial": 67, "trialdata": {"rt": -1, "trial_type": "single-stim", "word": "soda", "stimulus": "<p id=\"stim\">SODA</p>", "conditions": [18, 1200, "v", 18000], "internal_node_id": "0.0-49.0", "trial": 1, "time_elapsed": 325590, "serialpos": 12, "key_press": -1, "wordID": 1340, "type": "PRES_VIS", "trial_index": 67}, "uniqueid": "MTK2575:3ZSY5X72NYIDJFXU5WKU6SHAFAOROA", "dateTime": 1519075021258}, {"current_trial": 68, "trialdata": {"rt": -1, "trial_type": "single-stim", "word": "keeper", "stimulus": "<p id=\"stim\">KEEPER</p>", "conditions": [18, 1200, "v", 18000], "internal_node_id": "0.0-50.0", "trial": 1, "time_elapsed": 327931, "serialpos": 13, "key_press": -1, "wordID": 768, "type": "PRES_VIS", "trial_index": 68}, "uniqueid": "MTK2575:3ZSY5X72NYIDJFXU5WKU6SHAFAOROA", "dateTime": 1519075023599}, {"current_trial": 69, "trialdata": {"rt": -1, "trial_type": "single-stim", "word": "window", "stimulus": "<p id=\"stim\">WINDOW</p>", "conditions": [18, 1200, "v", 18000], "internal_node_id": "0.0-51.0", "trial": 1, "time_elapsed": 329973, "serialpos": 14, "key_press": -1, "wordID": 1610, "type": "PRES_VIS", "trial_index": 69}, "uniqueid": "MTK2575:3ZSY5X72NYIDJFXU5WKU6SHAFAOROA", "dateTime": 1519075025641}, {"current_trial": 70, "trialdata": {"rt": -1, "trial_type": "single-stim", "word": "wrench", "stimulus": "<p id=\"stim\">WRENCH</p>", "conditions": [18, 1200, "v", 18000], "internal_node_id": "0.0-52.0", "trial": 1, "time_elapsed": 332027, "serialpos": 15, "key_press": -1, "wordID": 1624, "type": "PRES_VIS", "trial_index": 70}, "uniqueid": "MTK2575:3ZSY5X72NYIDJFXU5WKU6SHAFAOROA", "dateTime": 1519075027695}, {"current_trial": 71, "trialdata": {"rt": -1, "trial_type": "single-stim", "word": "swimmer", "stimulus": "<p id=\"stim\">SWIMMER</p>", "conditions": [18, 1200, "v", 18000], "internal_node_id": "0.0-53.0", "trial": 1, "time_elapsed": 334129, "serialpos": 16, "key_press": -1, "wordID": 1419, "type": "PRES_VIS", "trial_index": 71}, "uniqueid": "MTK2575:3ZSY5X72NYIDJFXU5WKU6SHAFAOROA", "dateTime": 1519075029797}, {"current_trial": 72, "trialdata": {"rt": -1, "trial_type": "single-stim", "word": "country", "stimulus": "<p id=\"stim\">COUNTRY</p>", "conditions": [18, 1200, "v", 18000], "internal_node_id": "0.0-54.0", "trial": 1, "time_elapsed": 336216, "serialpos": 17, "key_press": -1, "wordID": 387, "type": "PRES_VIS", "trial_index": 72}, "uniqueid": "MTK2575:3ZSY5X72NYIDJFXU5WKU6SHAFAOROA", "dateTime": 1519075031885}, {"current_trial": 73, "trialdata": {"rt": -1, "trial_type": "single-stim", "stimulus": "", "internal_node_id": "0.0-55.0-0.0", "time_elapsed": 338401, "key_press": -1, "type": "PRE_RECALL_DELAY", "trial_index": 73}, "uniqueid": "MTK2575:3ZSY5X72NYIDJFXU5WKU6SHAFAOROA", "dateTime": 1519075034069}, {"current_trial": 74, "trialdata": {"rt": -1000, "trial_type": "single-audio", "stimulus": "/static/audio/400Hz.wav", "internal_node_id": "0.0-56.0", "time_elapsed": 338904, "key_press": -1, "type": "PRE_RECALL_ALERT", "trial_index": 74}, "uniqueid": "MTK2575:3ZSY5X72NYIDJFXU5WKU6SHAFAOROA", "dateTime": 1519075034573}, {"current_trial": 75, "trialdata": {"rt": [8546, 17146, 24738, 29610, 51778], "recwords": ["wrench", "swmmer", "penguin", "rocket", "country"], "key_times": [1899, 2448, 2811, 3002, 4634, 5290, 5458, 5622, 5778, 6731, 6859, 7033, 7642, 7954, 8226, 8546, 14106, 14314, 15683, 15743, 16242, 16338, 17146, 18450, 18691, 19890, 23003, 23490, 23778, 24018, 24162, 24418, 24738, 25899, 26139, 26466, 26922, 27258, 27402, 29610, 35922, 35962, 36306, 36498, 36706, 36713, 37298, 38738, 38850, 39026, 39203, 39379, 39532, 44522, 44538, 44554, 46090, 48337, 49594, 49786, 50074, 50388, 50610, 50818, 51778], "trial_type": "free-recall", "conditions": [18, 1200, "v", 18000], "internal_node_id": "0.0-57.0-0.0", "key_presses": [69, 78, 67, 72, 8, 8, 8, 8, 8, 87, 82, 69, 78, 67, 72, 13, 83, 87, 77, 77, 69, 82, 13, 80, 69, 81, 8, 78, 71, 85, 73, 78, 13, 82, 79, 67, 75, 69, 84, 13, 85, 78, 84, 82, 89, 84, 8, 8, 8, 8, 8, 8, 8, 67, 67, 67, 8, 8, 79, 85, 78, 84, 82, 89, 13], "trial": 1, "time_elapsed": 398919, "type": "FREE_RECALL", "trial_index": 75}, "uniqueid": "MTK2575:3ZSY5X72NYIDJFXU5WKU6SHAFAOROA", "dateTime": 1519075094591}, {"current_trial": 76, "trialdata": {"rt": 19542, "trial_type": "text", "internal_node_id": "0.0-58.0", "time_elapsed": 420471, "key_press": 101, "type": "INSTRUCTIONS", "trial_index": 76}, "uniqueid": "MTK2575:3ZSY5X72NYIDJFXU5WKU6SHAFAOROA", "dateTime": 1519075116139}, {"current_trial": 77, "trialdata": {"rt": [8136, 11709], "trial_type": "math-distractor", "key_times": [4094, 4303, 4478, 7798, 8136, 11175, 11454, 11709], "responses": ["16", "17"], "num2": [3, 5, 3], "num3": [8, 5, 2], "conditions": [12, 1600, "v", 12000], "internal_node_id": "0.0-59.0", "key_presses": [97, 102, 107, 8, 13, 97, 103, 13], "trial": 2, "time_elapsed": 433502, "type": "DISTRACTOR", "trial_index": 77, "num1": [5, 6, 3]}, "uniqueid": "MTK2575:3ZSY5X72NYIDJFXU5WKU6SHAFAOROA", "dateTime": 1519075129171}, {"current_trial": 78, "trialdata": {"rt": -1, "trial_type": "single-stim", "stimulus": "<p id=\"stim\">10</p>", "internal_node_id": "0.0-60.0-0.0", "time_elapsed": 436516, "key_press": -1, "trial_index": 78}, "uniqueid": "MTK2575:3ZSY5X72NYIDJFXU5WKU6SHAFAOROA", "dateTime": 1519075132184}, {"current_trial": 79, "trialdata": {"rt": -1, "trial_type": "single-stim", "stimulus": "<p id=\"stim\">9</p>", "internal_node_id": "0.0-60.0-1.0", "time_elapsed": 437521, "key_press": -1, "trial_index": 79}, "uniqueid": "MTK2575:3ZSY5X72NYIDJFXU5WKU6SHAFAOROA", "dateTime": 1519075133190}, {"current_trial": 80, "trialdata": {"rt": -1, "trial_type": "single-stim", "stimulus": "<p id=\"stim\">8</p>", "internal_node_id": "0.0-60.0-2.0", "time_elapsed": 438524, "key_press": -1, "trial_index": 80}, "uniqueid": "MTK2575:3ZSY5X72NYIDJFXU5WKU6SHAFAOROA", "dateTime": 1519075134193}, {"current_trial": 81, "trialdata": {"rt": -1, "trial_type": "single-stim", "stimulus": "<p id=\"stim\">7</p>", "internal_node_id": "0.0-60.0-3.0", "time_elapsed": 439528, "key_press": -1, "trial_index": 81}, "uniqueid": "MTK2575:3ZSY5X72NYIDJFXU5WKU6SHAFAOROA", "dateTime": 1519075135196}, {"current_trial": 82, "trialdata": {"rt": -1, "trial_type": "single-stim", "stimulus": "<p id=\"stim\">6</p>", "internal_node_id": "0.0-60.0-4.0", "time_elapsed": 440533, "key_press": -1, "trial_index": 82}, "uniqueid": "MTK2575:3ZSY5X72NYIDJFXU5WKU6SHAFAOROA", "dateTime": 1519075136201}, {"current_trial": 83, "trialdata": {"rt": -1, "trial_type": "single-stim", "stimulus": "<p id=\"stim\">5</p>", "internal_node_id": "0.0-60.0-5.0", "time_elapsed": 441539, "key_press": -1, "trial_index": 83}, "uniqueid": "MTK2575:3ZSY5X72NYIDJFXU5WKU6SHAFAOROA", "dateTime": 1519075137207}, {"current_trial": 84, "trialdata": {"rt": -1, "trial_type": "single-stim", "stimulus": "<p id=\"stim\">4</p>", "internal_node_id": "0.0-60.0-6.0", "time_elapsed": 442546, "key_press": -1, "trial_index": 84}, "uniqueid": "MTK2575:3ZSY5X72NYIDJFXU5WKU6SHAFAOROA", "dateTime": 1519075138214}, {"current_trial": 85, "trialdata": {"rt": -1, "trial_type": "single-stim", "stimulus": "<p id=\"stim\">3</p>", "internal_node_id": "0.0-60.0-7.0", "time_elapsed": 443550, "key_press": -1, "trial_index": 85}, "uniqueid": "MTK2575:3ZSY5X72NYIDJFXU5WKU6SHAFAOROA", "dateTime": 1519075139218}, {"current_trial": 86, "trialdata": {"rt": -1, "trial_type": "single-stim", "stimulus": "<p id=\"stim\">2</p>", "internal_node_id": "0.0-60.0-8.0", "time_elapsed": 444554, "key_press": -1, "trial_index": 86}, "uniqueid": "MTK2575:3ZSY5X72NYIDJFXU5WKU6SHAFAOROA", "dateTime": 1519075140222}, {"current_trial": 87, "trialdata": {"rt": -1, "trial_type": "single-stim", "stimulus": "<p id=\"stim\">1</p>", "internal_node_id": "0.0-60.0-9.0", "time_elapsed": 445560, "key_press": -1, "trial_index": 87}, "uniqueid": "MTK2575:3ZSY5X72NYIDJFXU5WKU6SHAFAOROA", "dateTime": 1519075141229}, {"current_trial": 88, "trialdata": {"rt": -1, "trial_type": "single-stim", "stimulus": "<p id=\"stim\">+</p>", "internal_node_id": "0.0-61.0-0.0", "time_elapsed": 447075, "key_press": -1, "type": "FIXATION", "trial_index": 88}, "uniqueid": "MTK2575:3ZSY5X72NYIDJFXU5WKU6SHAFAOROA", "dateTime": 1519075142743}, {"current_trial": 89, "trialdata": {"rt": -1, "trial_type": "single-stim", "word": "cookbook", "stimulus": "<p id=\"stim\">COOKBOOK</p>", "conditions": [12, 1600, "v", 12000], "internal_node_id": "0.0-62.0", "trial": 2, "time_elapsed": 448685, "serialpos": 0, "key_press": -1, "wordID": 372, "type": "PRES_VIS", "trial_index": 89}, "uniqueid": "MTK2575:3ZSY5X72NYIDJFXU5WKU6SHAFAOROA", "dateTime": 1519075144353}, {"current_trial": 90, "trialdata": {"rt": -1, "trial_type": "single-stim", "word": "denim", "stimulus": "<p id=\"stim\">DENIM</p>", "conditions": [12, 1600, "v", 12000], "internal_node_id": "0.0-63.0", "trial": 2, "time_elapsed": 451251, "serialpos": 1, "key_press": -1, "wordID": 445, "type": "PRES_VIS", "trial_index": 90}, "uniqueid": "MTK2575:3ZSY5X72NYIDJFXU5WKU6SHAFAOROA", "dateTime": 1519075146919}, {"current_trial": 91, "trialdata": {"rt": -1, "trial_type": "single-stim", "word": "cottage", "stimulus": "<p id=\"stim\">COTTAGE</p>", "conditions": [12, 1600, "v", 12000], "internal_node_id": "0.0-64.0", "trial": 2, "time_elapsed": 454003, "serialpos": 2, "key_press": -1, "wordID": 383, "type": "PRES_VIS", "trial_index": 91}, "uniqueid": "MTK2575:3ZSY5X72NYIDJFXU5WKU6SHAFAOROA", "dateTime": 1519075149671}, {"current_trial": 92, "trialdata": {"rt": -1, "trial_type": "single-stim", "word": "skillet", "stimulus": "<p id=\"stim\">SKILLET</p>", "conditions": [12, 1600, "v", 12000], "internal_node_id": "0.0-65.0", "trial": 2, "time_elapsed": 456727, "serialpos": 3, "key_press": -1, "wordID": 1316, "type": "PRES_VIS", "trial_index": 92}, "uniqueid": "MTK2575:3ZSY5X72NYIDJFXU5WKU6SHAFAOROA", "dateTime": 1519075152395}, {"current_trial": 93, "trialdata": {"rt": -1, "trial_type": "single-stim", "word": "blender", "stimulus": "<p id=\"stim\">BLENDER</p>", "conditions": [12, 1600, "v", 12000], "internal_node_id": "0.0-66.0", "trial": 2, "time_elapsed": 459211, "serialpos": 4, "key_press": -1, "wordID": 135, "type": "PRES_VIS", "trial_index": 93}, "uniqueid": "MTK2575:3ZSY5X72NYIDJFXU5WKU6SHAFAOROA", "dateTime": 1519075154880}, {"current_trial": 94, "trialdata": {"rt": -1, "trial_type": "single-stim", "word": "tile", "stimulus": "<p id=\"stim\">TILE</p>", "conditions": [12, 1600, "v", 12000], "internal_node_id": "0.0-67.0", "trial": 2, "time_elapsed": 461949, "serialpos": 5, "key_press": -1, "wordID": 1467, "type": "PRES_VIS", "trial_index": 94}, "uniqueid": "MTK2575:3ZSY5X72NYIDJFXU5WKU6SHAFAOROA", "dateTime": 1519075157618}, {"current_trial": 95, "trialdata": {"rt": -1, "trial_type": "single-stim", "word": "cafe", "stimulus": "<p id=\"stim\">CAFE</p>", "conditions": [12, 1600, "v", 12000], "internal_node_id": "0.0-68.0", "trial": 2, "time_elapsed": 464668, "serialpos": 6, "key_press": -1, "wordID": 215, "type": "PRES_VIS", "trial_index": 95}, "uniqueid": "MTK2575:3ZSY5X72NYIDJFXU5WKU6SHAFAOROA", "dateTime": 1519075160336}, {"current_trial": 96, "trialdata": {"rt": -1, "trial_type": "single-stim", "word": "glass", "stimulus": "<p id=\"stim\">GLASS</p>", "conditions": [12, 1600, "v", 12000], "internal_node_id": "0.0-69.0", "trial": 2, "time_elapsed": 467138, "serialpos": 7, "key_press": -1, "wordID": 638, "type": "PRES_VIS", "trial_index": 96}, "uniqueid": "MTK2575:3ZSY5X72NYIDJFXU5WKU6SHAFAOROA", "dateTime": 1519075162806}, {"current_trial": 97, "trialdata": {"rt": -1, "trial_type": "single-stim", "word": "dress", "stimulus": "<p id=\"stim\">DRESS</p>", "conditions": [12, 1600, "v", 12000], "internal_node_id": "0.0-70.0", "trial": 2, "time_elapsed": 469872, "serialpos": 8, "key_press": -1, "wordID": 494, "type": "PRES_VIS", "trial_index": 97}, "uniqueid": "MTK2575:3ZSY5X72NYIDJFXU5WKU6SHAFAOROA", "dateTime": 1519075165540}, {"current_trial": 98, "trialdata": {"rt": -1, "trial_type": "single-stim", "word": "crib", "stimulus": "<p id=\"stim\">CRIB</p>", "conditions": [12, 1600, "v", 12000], "internal_node_id": "0.0-71.0", "trial": 2, "time_elapsed": 472410, "serialpos": 9, "key_press": -1, "wordID": 406, "type": "PRES_VIS", "trial_index": 98}, "uniqueid": "MTK2575:3ZSY5X72NYIDJFXU5WKU6SHAFAOROA", "dateTime": 1519075168078}, {"current_trial": 99, "trialdata": {"rt": -1, "trial_type": "single-stim", "word": "jungle", "stimulus": "<p id=\"stim\">JUNGLE</p>", "conditions": [12, 1600, "v", 12000], "internal_node_id": "0.0-72.0", "trial": 2, "time_elapsed": 475075, "serialpos": 10, "key_press": -1, "wordID": 763, "type": "PRES_VIS", "trial_index": 99}, "uniqueid": "MTK2575:3ZSY5X72NYIDJFXU5WKU6SHAFAOROA", "dateTime": 1519075170744}, {"current_trial": 100, "trialdata": {"rt": -1, "trial_type": "single-stim", "word": "gallon", "stimulus": "<p id=\"stim\">GALLON</p>", "conditions": [12, 1600, "v", 12000], "internal_node_id": "0.0-73.0", "trial": 2, "time_elapsed": 477575, "serialpos": 11, "key_press": -1, "wordID": 617, "type": "PRES_VIS", "trial_index": 100}, "uniqueid": "MTK2575:3ZSY5X72NYIDJFXU5WKU6SHAFAOROA", "dateTime": 1519075173243}, {"current_trial": 101, "trialdata": {"rt": -1, "trial_type": "single-stim", "stimulus": "", "internal_node_id": "0.0-74.0-0.0", "time_elapsed": 479892, "key_press": -1, "type": "PRE_RECALL_DELAY", "trial_index": 101}, "uniqueid": "MTK2575:3ZSY5X72NYIDJFXU5WKU6SHAFAOROA", "dateTime": 1519075175561}, {"current_trial": 102, "trialdata": {"rt": -1000, "trial_type": "single-audio", "stimulus": "/static/audio/400Hz.wav", "internal_node_id": "0.0-75.0", "time_elapsed": 480404, "key_press": -1, "type": "PRE_RECALL_ALERT", "trial_index": 102}, "uniqueid": "MTK2575:3ZSY5X72NYIDJFXU5WKU6SHAFAOROA", "dateTime": 1519075176072}, {"current_trial": 103, "trialdata": {"rt": [5421, 8262, 11597, 19509], "recwords": ["cookbook", "allon", "glass", "skillet"], "key_times": [1909, 2742, 2888, 3037, 4630, 4758, 4887, 5062, 5421, 6814, 7327, 7481, 7629, 8003, 8262, 9453, 9693, 10501, 10710, 10869, 11597, 17357, 17845, 18005, 18181, 18341, 18677, 18838, 19509], "trial_type": "free-recall", "conditions": [12, 1600, "v", 12000], "internal_node_id": "0.0-76.0-0.0", "key_presses": [67, 79, 79, 75, 66, 79, 79, 75, 13, 65, 76, 76, 79, 78, 13, 71, 76, 65, 83, 83, 13, 83, 75, 73, 76, 76, 69, 84, 13], "trial": 2, "time_elapsed": 540419, "type": "FREE_RECALL", "trial_index": 103}, "uniqueid": "MTK2575:3ZSY5X72NYIDJFXU5WKU6SHAFAOROA", "dateTime": 1519075236090}, {"current_trial": 104, "trialdata": {"rt": 26408, "trial_type": "text", "internal_node_id": "0.0-77.0", "time_elapsed": 568846, "key_press": 89, "type": "INSTRUCTIONS", "trial_index": 104}, "uniqueid": "MTK2575:3ZSY5X72NYIDJFXU5WKU6SHAFAOROA", "dateTime": 1519075264514}, {"current_trial": 105, "trialdata": {"rt": [3202, 5681, 9320, 12449, 17072, 21433, 22977], "trial_type": "math-distractor", "key_times": [2826, 2994, 3202, 5473, 5681, 8944, 9065, 9320, 12073, 12209, 12449, 16659, 16792, 17072, 21176, 21232, 21433, 22753, 22977], "responses": ["10", "7", "15", "16", "16", "21", "5"], "num2": [1, 1, 6, 6, 4, 6, 2, 8], "num3": [3, 4, 7, 7, 9, 7, 2, 5], "conditions": [24, 800, "v", 24000], "internal_node_id": "0.0-78.0", "key_presses": [97, 96, 13, 103, 13, 97, 101, 13, 97, 102, 13, 97, 102, 13, 98, 97, 13, 101, 13], "trial": 3, "time_elapsed": 594870, "type": "DISTRACTOR", "trial_index": 105, "num1": [6, 2, 2, 3, 3, 8, 1, 6]}, "uniqueid": "MTK2575:3ZSY5X72NYIDJFXU5WKU6SHAFAOROA", "dateTime": 1519075290539}, {"current_trial": 106, "trialdata": {"rt": -1, "trial_type": "single-stim", "stimulus": "<p id=\"stim\">10</p>", "internal_node_id": "0.0-79.0-0.0", "time_elapsed": 597884, "key_press": -1, "trial_index": 106}, "uniqueid": "MTK2575:3ZSY5X72NYIDJFXU5WKU6SHAFAOROA", "dateTime": 1519075293553}, {"current_trial": 107, "trialdata": {"rt": -1, "trial_type": "single-stim", "stimulus": "<p id=\"stim\">9</p>", "internal_node_id": "0.0-79.0-1.0", "time_elapsed": 598892, "key_press": -1, "trial_index": 107}, "uniqueid": "MTK2575:3ZSY5X72NYIDJFXU5WKU6SHAFAOROA", "dateTime": 1519075294560}, {"current_trial": 108, "trialdata": {"rt": -1, "trial_type": "single-stim", "stimulus": "<p id=\"stim\">8</p>", "internal_node_id": "0.0-79.0-2.0", "time_elapsed": 599898, "key_press": -1, "trial_index": 108}, "uniqueid": "MTK2575:3ZSY5X72NYIDJFXU5WKU6SHAFAOROA", "dateTime": 1519075295566}, {"current_trial": 109, "trialdata": {"rt": -1, "trial_type": "single-stim", "stimulus": "<p id=\"stim\">7</p>", "internal_node_id": "0.0-79.0-3.0", "time_elapsed": 600904, "key_press": -1, "trial_index": 109}, "uniqueid": "MTK2575:3ZSY5X72NYIDJFXU5WKU6SHAFAOROA", "dateTime": 1519075296572}, {"current_trial": 110, "trialdata": {"rt": -1, "trial_type": "single-stim", "stimulus": "<p id=\"stim\">6</p>", "internal_node_id": "0.0-79.0-4.0", "time_elapsed": 601911, "key_press": -1, "trial_index": 110}, "uniqueid": "MTK2575:3ZSY5X72NYIDJFXU5WKU6SHAFAOROA", "dateTime": 1519075297580}, {"current_trial": 111, "trialdata": {"rt": -1, "trial_type": "single-stim", "stimulus": "<p id=\"stim\">5</p>", "internal_node_id": "0.0-79.0-5.0", "time_elapsed": 602917, "key_press": -1, "trial_index": 111}, "uniqueid": "MTK2575:3ZSY5X72NYIDJFXU5WKU6SHAFAOROA", "dateTime": 1519075298587}, {"current_trial": 112, "trialdata": {"rt": -1, "trial_type": "single-stim", "stimulus": "<p id=\"stim\">4</p>", "internal_node_id": "0.0-79.0-6.0", "time_elapsed": 603921, "key_press": -1, "trial_index": 112}, "uniqueid": "MTK2575:3ZSY5X72NYIDJFXU5WKU6SHAFAOROA", "dateTime": 1519075299590}, {"current_trial": 113, "trialdata": {"rt": -1, "trial_type": "single-stim", "stimulus": "<p id=\"stim\">3</p>", "internal_node_id": "0.0-79.0-7.0", "time_elapsed": 604925, "key_press": -1, "trial_index": 113}, "uniqueid": "MTK2575:3ZSY5X72NYIDJFXU5WKU6SHAFAOROA", "dateTime": 1519075300593}, {"current_trial": 114, "trialdata": {"rt": -1, "trial_type": "single-stim", "stimulus": "<p id=\"stim\">2</p>", "internal_node_id": "0.0-79.0-8.0", "time_elapsed": 605933, "key_press": -1, "trial_index": 114}, "uniqueid": "MTK2575:3ZSY5X72NYIDJFXU5WKU6SHAFAOROA", "dateTime": 1519075301601}, {"current_trial": 115, "trialdata": {"rt": -1, "trial_type": "single-stim", "stimulus": "<p id=\"stim\">1</p>", "internal_node_id": "0.0-79.0-9.0", "time_elapsed": 606936, "key_press": -1, "trial_index": 115}, "uniqueid": "MTK2575:3ZSY5X72NYIDJFXU5WKU6SHAFAOROA", "dateTime": 1519075302604}, {"current_trial": 116, "trialdata": {"rt": -1, "trial_type": "single-stim", "stimulus": "<p id=\"stim\">+</p>", "internal_node_id": "0.0-80.0-0.0", "time_elapsed": 608449, "key_press": -1, "type": "FIXATION", "trial_index": 116}, "uniqueid": "MTK2575:3ZSY5X72NYIDJFXU5WKU6SHAFAOROA", "dateTime": 1519075304117}, {"current_trial": 117, "trialdata": {"rt": -1, "trial_type": "single-stim", "word": "crutch", "stimulus": "<p id=\"stim\">CRUTCH</p>", "conditions": [24, 800, "v", 24000], "internal_node_id": "0.0-81.0", "trial": 3, "time_elapsed": 609252, "serialpos": 0, "key_press": -1, "wordID": 416, "type": "PRES_VIS", "trial_index": 117}, "uniqueid": "MTK2575:3ZSY5X72NYIDJFXU5WKU6SHAFAOROA", "dateTime": 1519075304920}, {"current_trial": 118, "trialdata": {"rt": -1, "trial_type": "single-stim", "word": "lapel", "stimulus": "<p id=\"stim\">LAPEL</p>", "conditions": [24, 800, "v", 24000], "internal_node_id": "0.0-82.0", "trial": 3, "time_elapsed": 611249, "serialpos": 1, "key_press": -1, "wordID": 799, "type": "PRES_VIS", "trial_index": 118}, "uniqueid": "MTK2575:3ZSY5X72NYIDJFXU5WKU6SHAFAOROA", "dateTime": 1519075306917}, {"current_trial": 119, "trialdata": {"rt": -1, "trial_type": "single-stim", "word": "rattle", "stimulus": "<p id=\"stim\">RATTLE</p>", "conditions": [24, 800, "v", 24000], "internal_node_id": "0.0-83.0", "trial": 3, "time_elapsed": 612903, "serialpos": 2, "key_press": -1, "wordID": 1169, "type": "PRES_VIS", "trial_index": 119}, "uniqueid": "MTK2575:3ZSY5X72NYIDJFXU5WKU6SHAFAOROA", "dateTime": 1519075308572}, {"current_trial": 120, "trialdata": {"rt": -1, "trial_type": "single-stim", "word": "donkey", "stimulus": "<p id=\"stim\">DONKEY</p>", "conditions": [24, 800, "v", 24000], "internal_node_id": "0.0-84.0", "trial": 3, "time_elapsed": 614540, "serialpos": 3, "key_press": -1, "wordID": 483, "type": "PRES_VIS", "trial_index": 120}, "uniqueid": "MTK2575:3ZSY5X72NYIDJFXU5WKU6SHAFAOROA", "dateTime": 1519075310209}, {"current_trial": 121, "trialdata": {"rt": -1, "trial_type": "single-stim", "word": "camel", "stimulus": "<p id=\"stim\">CAMEL</p>", "conditions": [24, 800, "v", 24000], "internal_node_id": "0.0-85.0", "trial": 3, "time_elapsed": 616518, "serialpos": 4, "key_press": -1, "wordID": 222, "type": "PRES_VIS", "trial_index": 121}, "uniqueid": "MTK2575:3ZSY5X72NYIDJFXU5WKU6SHAFAOROA", "dateTime": 1519075312186}, {"current_trial": 122, "trialdata": {"rt": -1, "trial_type": "single-stim", "word": "waiter", "stimulus": "<p id=\"stim\">WAITER</p>", "conditions": [24, 800, "v", 24000], "internal_node_id": "0.0-86.0", "trial": 3, "time_elapsed": 618169, "serialpos": 5, "key_press": -1, "wordID": 1579, "type": "PRES_VIS", "trial_index": 122}, "uniqueid": "MTK2575:3ZSY5X72NYIDJFXU5WKU6SHAFAOROA", "dateTime": 1519075313838}, {"current_trial": 123, "trialdata": {"rt": -1, "trial_type": "single-stim", "word": "hero", "stimulus": "<p id=\"stim\">HERO</p>", "conditions": [24, 800, "v", 24000], "internal_node_id": "0.0-87.0", "trial": 3, "time_elapsed": 619823, "serialpos": 6, "key_press": -1, "wordID": 705, "type": "PRES_VIS", "trial_index": 123}, "uniqueid": "MTK2575:3ZSY5X72NYIDJFXU5WKU6SHAFAOROA", "dateTime": 1519075315492}, {"current_trial": 124, "trialdata": {"rt": -1, "trial_type": "single-stim", "word": "hostess", "stimulus": "<p id=\"stim\">HOSTESS</p>", "conditions": [24, 800, "v", 24000], "internal_node_id": "0.0-88.0", "trial": 3, "time_elapsed": 621567, "serialpos": 7, "key_press": -1, "wordID": 722, "type": "PRES_VIS", "trial_index": 124}, "uniqueid": "MTK2575:3ZSY5X72NYIDJFXU5WKU6SHAFAOROA", "dateTime": 1519075317235}, {"current_trial": 125, "trialdata": {"rt": -1, "trial_type": "single-stim", "word": "sister", "stimulus": "<p id=\"stim\">SISTER</p>", "conditions": [24, 800, "v", 24000], "internal_node_id": "0.0-89.0", "trial": 3, "time_elapsed": 623482, "serialpos": 8, "key_press": -1, "wordID": 1311, "type": "PRES_VIS", "trial_index": 125}, "uniqueid": "MTK2575:3ZSY5X72NYIDJFXU5WKU6SHAFAOROA", "dateTime": 1519075319150}, {"current_trial": 126, "trialdata": {"rt": -1, "trial_type": "single-stim", "word": "lady", "stimulus": "<p id=\"stim\">LADY</p>", "conditions": [24, 800, "v", 24000], "internal_node_id": "0.0-90.0", "trial": 3, "time_elapsed": 625264, "serialpos": 9, "key_press": -1, "wordID": 793, "type": "PRES_VIS", "trial_index": 126}, "uniqueid": "MTK2575:3ZSY5X72NYIDJFXU5WKU6SHAFAOROA", "dateTime": 1519075320932}, {"current_trial": 127, "trialdata": {"rt": -1, "trial_type": "single-stim", "word": "scotch", "stimulus": "<p id=\"stim\">SCOTCH</p>", "conditions": [24, 800, "v", 24000], "internal_node_id": "0.0-91.0", "trial": 3, "time_elapsed": 627157, "serialpos": 10, "key_press": -1, "wordID": 1250, "type": "PRES_VIS", "trial_index": 127}, "uniqueid": "MTK2575:3ZSY5X72NYIDJFXU5WKU6SHAFAOROA", "dateTime": 1519075322825}, {"current_trial": 128, "trialdata": {"rt": -1, "trial_type": "single-stim", "word": "waitress", "stimulus": "<p id=\"stim\">WAITRESS</p>", "conditions": [24, 800, "v", 24000], "internal_node_id": "0.0-92.0", "trial": 3, "time_elapsed": 628850, "serialpos": 11, "key_press": -1, "wordID": 1580, "type": "PRES_VIS", "trial_index": 128}, "uniqueid": "MTK2575:3ZSY5X72NYIDJFXU5WKU6SHAFAOROA", "dateTime": 1519075324518}, {"current_trial": 129, "trialdata": {"rt": -1, "trial_type": "single-stim", "word": "climber", "stimulus": "<p id=\"stim\">CLIMBER</p>", "conditions": [24, 800, "v", 24000], "internal_node_id": "0.0-93.0", "trial": 3, "time_elapsed": 630489, "serialpos": 12, "key_press": -1, "wordID": 322, "type": "PRES_VIS", "trial_index": 129}, "uniqueid": "MTK2575:3ZSY5X72NYIDJFXU5WKU6SHAFAOROA", "dateTime": 1519075326157}, {"current_trial": 130, "trialdata": {"rt": -1, "trial_type": "single-stim", "word": "honey", "stimulus": "<p id=\"stim\">HONEY</p>", "conditions": [24, 800, "v", 24000], "internal_node_id": "0.0-94.0", "trial": 3, "time_elapsed": 632187, "serialpos": 13, "key_press": -1, "wordID": 712, "type": "PRES_VIS", "trial_index": 130}, "uniqueid": "MTK2575:3ZSY5X72NYIDJFXU5WKU6SHAFAOROA", "dateTime": 1519075327855}, {"current_trial": 131, "trialdata": {"rt": -1, "trial_type": "single-stim", "word": "milk", "stimulus": "<p id=\"stim\">MILK</p>", "conditions": [24, 800, "v", 24000], "internal_node_id": "0.0-95.0", "trial": 3, "time_elapsed": 633843, "serialpos": 14, "key_press": -1, "wordID": 894, "type": "PRES_VIS", "trial_index": 131}, "uniqueid": "MTK2575:3ZSY5X72NYIDJFXU5WKU6SHAFAOROA", "dateTime": 1519075329511}, {"current_trial": 132, "trialdata": {"rt": -1, "trial_type": "single-stim", "word": "beast", "stimulus": "<p id=\"stim\">BEAST</p>", "conditions": [24, 800, "v", 24000], "internal_node_id": "0.0-96.0", "trial": 3, "time_elapsed": 635528, "serialpos": 15, "key_press": -1, "wordID": 107, "type": "PRES_VIS", "trial_index": 132}, "uniqueid": "MTK2575:3ZSY5X72NYIDJFXU5WKU6SHAFAOROA", "dateTime": 1519075331196}, {"current_trial": 133, "trialdata": {"rt": -1, "trial_type": "single-stim", "word": "puppy", "stimulus": "<p id=\"stim\">PUPPY</p>", "conditions": [24, 800, "v", 24000], "internal_node_id": "0.0-97.0", "trial": 3, "time_elapsed": 637197, "serialpos": 16, "key_press": -1, "wordID": 1143, "type": "PRES_VIS", "trial_index": 133}, "uniqueid": "MTK2575:3ZSY5X72NYIDJFXU5WKU6SHAFAOROA", "dateTime": 1519075332865}, {"current_trial": 134, "trialdata": {"rt": -1, "trial_type": "single-stim", "word": "valley", "stimulus": "<p id=\"stim\">VALLEY</p>", "conditions": [24, 800, "v", 24000], "internal_node_id": "0.0-98.0", "trial": 3, "time_elapsed": 639131, "serialpos": 17, "key_press": -1, "wordID": 1544, "type": "PRES_VIS", "trial_index": 134}, "uniqueid": "MTK2575:3ZSY5X72NYIDJFXU5WKU6SHAFAOROA", "dateTime": 1519075334799}, {"current_trial": 135, "trialdata": {"rt": -1, "trial_type": "single-stim", "word": "handbag", "stimulus": "<p id=\"stim\">HANDBAG</p>", "conditions": [24, 800, "v", 24000], "internal_node_id": "0.0-99.0", "trial": 3, "time_elapsed": 641018, "serialpos": 18, "key_press": -1, "wordID": 683, "type": "PRES_VIS", "trial_index": 135}, "uniqueid": "MTK2575:3ZSY5X72NYIDJFXU5WKU6SHAFAOROA", "dateTime": 1519075336686}, {"current_trial": 136, "trialdata": {"rt": -1, "trial_type": "single-stim", "word": "leopard", "stimulus": "<p id=\"stim\">LEOPARD</p>", "conditions": [24, 800, "v", 24000], "internal_node_id": "0.0-100.0", "trial": 3, "time_elapsed": 642734, "serialpos": 19, "key_press": -1, "wordID": 811, "type": "PRES_VIS", "trial_index": 136}, "uniqueid": "MTK2575:3ZSY5X72NYIDJFXU5WKU6SHAFAOROA", "dateTime": 1519075338402}, {"current_trial": 137, "trialdata": {"rt": -1, "trial_type": "single-stim", "word": "creature", "stimulus": "<p id=\"stim\">CREATURE</p>", "conditions": [24, 800, "v", 24000], "internal_node_id": "0.0-101.0", "trial": 3, "time_elapsed": 644712, "serialpos": 20, "key_press": -1, "wordID": 402, "type": "PRES_VIS", "trial_index": 137}, "uniqueid": "MTK2575:3ZSY5X72NYIDJFXU5WKU6SHAFAOROA", "dateTime": 1519075340380}, {"current_trial": 138, "trialdata": {"rt": -1, "trial_type": "single-stim", "word": "stomach", "stimulus": "<p id=\"stim\">STOMACH</p>", "conditions": [24, 800, "v", 24000], "internal_node_id": "0.0-102.0", "trial": 3, "time_elapsed": 646645, "serialpos": 21, "key_press": -1, "wordID": 1383, "type": "PRES_VIS", "trial_index": 138}, "uniqueid": "MTK2575:3ZSY5X72NYIDJFXU5WKU6SHAFAOROA", "dateTime": 1519075342313}, {"current_trial": 139, "trialdata": {"rt": -1, "trial_type": "single-stim", "word": "egypt", "stimulus": "<p id=\"stim\">EGYPT</p>", "conditions": [24, 800, "v", 24000], "internal_node_id": "0.0-103.0", "trial": 3, "time_elapsed": 648638, "serialpos": 22, "key_press": -1, "wordID": 518, "type": "PRES_VIS", "trial_index": 139}, "uniqueid": "MTK2575:3ZSY5X72NYIDJFXU5WKU6SHAFAOROA", "dateTime": 1519075344306}, {"current_trial": 140, "trialdata": {"rt": -1, "trial_type": "single-stim", "word": "blockade", "stimulus": "<p id=\"stim\">BLOCKADE</p>", "conditions": [24, 800, "v", 24000], "internal_node_id": "0.0-104.0", "trial": 3, "time_elapsed": 650650, "serialpos": 23, "key_press": -1, "wordID": 136, "type": "PRES_VIS", "trial_index": 140}, "uniqueid": "MTK2575:3ZSY5X72NYIDJFXU5WKU6SHAFAOROA", "dateTime": 1519075346318}, {"current_trial": 141, "trialdata": {"rt": -1, "trial_type": "single-stim", "stimulus": "", "internal_node_id": "0.0-105.0-0.0", "time_elapsed": 652967, "key_press": -1, "type": "PRE_RECALL_DELAY", "trial_index": 141}, "uniqueid": "MTK2575:3ZSY5X72NYIDJFXU5WKU6SHAFAOROA", "dateTime": 1519075348635}, {"current_trial": 142, "trialdata": {"rt": -1000, "trial_type": "single-audio", "stimulus": "/static/audio/400Hz.wav", "internal_node_id": "0.0-106.0", "time_elapsed": 653475, "key_press": -1, "type": "PRE_RECALL_ALERT", "trial_index": 142}, "uniqueid": "MTK2575:3ZSY5X72NYIDJFXU5WKU6SHAFAOROA", "dateTime": 1519075349143}, {"current_trial": 143, "trialdata": {"rt": [5469, 11421, 15069, 26333], "recwords": ["egypt", "kade", "caml", "donkey"], "key_times": [1439, 2912, 3069, 3613, 4176, 5469, 9158, 9618, 10555, 10669, 11421, 11941, 12297, 12709, 14790, 15069, 15573, 16109, 16450, 16682, 17381, 17575, 26333], "trial_type": "free-recall", "conditions": [24, 800, "v", 24000], "internal_node_id": "0.0-107.0-0.0", "key_presses": [69, 71, 89, 80, 84, 13, 75, 65, 68, 69, 13, 67, 65, 77, 76, 13, 68, 79, 78, 75, 69, 89, 13], "trial": 3, "time_elapsed": 713481, "type": "FREE_RECALL", "trial_index": 143}, "uniqueid": "MTK2575:3ZSY5X72NYIDJFXU5WKU6SHAFAOROA", "dateTime": 1519075409156}, {"current_trial": 144, "trialdata": {"rt": 1211230, "trial_type": "text", "internal_node_id": "0.0-108.0", "time_elapsed": 1926732, "key_press": 13, "type": "INSTRUCTIONS", "trial_index": 144}, "uniqueid": "MTK2575:3ZSY5X72NYIDJFXU5WKU6SHAFAOROA", "dateTime": 1519076622400}, {"current_trial": 145, "trialdata": {"rt": [5361, 9536, 11585], "trial_type": "math-distractor", "key_times": [4962, 5073, 5361, 9153, 9313, 9536, 11148, 11362, 11369, 11585], "responses": ["20", "22", "147"], "num2": [9, 9, 9, 5], "num3": [4, 4, 1, 1], "conditions": [12, 800, "v", 12000], "internal_node_id": "0.0-109.0", "key_presses": [98, 96, 13, 98, 98, 13, 97, 100, 103, 13], "trial": 4, "time_elapsed": 1940756, "type": "DISTRACTOR", "trial_index": 145, "num1": [7, 9, 7, 6]}, "uniqueid": "MTK2575:3ZSY5X72NYIDJFXU5WKU6SHAFAOROA", "dateTime": 1519076636424}, {"current_trial": 146, "trialdata": {"rt": -1, "trial_type": "single-stim", "stimulus": "<p id=\"stim\">10</p>", "internal_node_id": "0.0-110.0-0.0", "time_elapsed": 1943771, "key_press": -1, "trial_index": 146}, "uniqueid": "MTK2575:3ZSY5X72NYIDJFXU5WKU6SHAFAOROA", "dateTime": 1519076639440}, {"current_trial": 147, "trialdata": {"rt": -1, "trial_type": "single-stim", "stimulus": "<p id=\"stim\">9</p>", "internal_node_id": "0.0-110.0-1.0", "time_elapsed": 1944777, "key_press": -1, "trial_index": 147}, "uniqueid": "MTK2575:3ZSY5X72NYIDJFXU5WKU6SHAFAOROA", "dateTime": 1519076640446}, {"current_trial": 148, "trialdata": {"rt": -1, "trial_type": "single-stim", "stimulus": "<p id=\"stim\">8</p>", "internal_node_id": "0.0-110.0-2.0", "time_elapsed": 1945781, "key_press": -1, "trial_index": 148}, "uniqueid": "MTK2575:3ZSY5X72NYIDJFXU5WKU6SHAFAOROA", "dateTime": 1519076641449}, {"current_trial": 149, "trialdata": {"rt": -1, "trial_type": "single-stim", "stimulus": "<p id=\"stim\">7</p>", "internal_node_id": "0.0-110.0-3.0", "time_elapsed": 1946787, "key_press": -1, "trial_index": 149}, "uniqueid": "MTK2575:3ZSY5X72NYIDJFXU5WKU6SHAFAOROA", "dateTime": 1519076642455}, {"current_trial": 150, "trialdata": {"rt": -1, "trial_type": "single-stim", "stimulus": "<p id=\"stim\">6</p>", "internal_node_id": "0.0-110.0-4.0", "time_elapsed": 1947794, "key_press": -1, "trial_index": 150}, "uniqueid": "MTK2575:3ZSY5X72NYIDJFXU5WKU6SHAFAOROA", "dateTime": 1519076643463}, {"current_trial": 151, "trialdata": {"rt": -1, "trial_type": "single-stim", "stimulus": "<p id=\"stim\">5</p>", "internal_node_id": "0.0-110.0-5.0", "time_elapsed": 1948801, "key_press": -1, "trial_index": 151}, "uniqueid": "MTK2575:3ZSY5X72NYIDJFXU5WKU6SHAFAOROA", "dateTime": 1519076644469}, {"current_trial": 152, "trialdata": {"rt": -1, "trial_type": "single-stim", "stimulus": "<p id=\"stim\">4</p>", "internal_node_id": "0.0-110.0-6.0", "time_elapsed": 1949807, "key_press": -1, "trial_index": 152}, "uniqueid": "MTK2575:3ZSY5X72NYIDJFXU5WKU6SHAFAOROA", "dateTime": 1519076645475}, {"current_trial": 153, "trialdata": {"rt": -1, "trial_type": "single-stim", "stimulus": "<p id=\"stim\">3</p>", "internal_node_id": "0.0-110.0-7.0", "time_elapsed": 1950810, "key_press": -1, "trial_index": 153}, "uniqueid": "MTK2575:3ZSY5X72NYIDJFXU5WKU6SHAFAOROA", "dateTime": 1519076646479}, {"current_trial": 154, "trialdata": {"rt": -1, "trial_type": "single-stim", "stimulus": "<p id=\"stim\">2</p>", "internal_node_id": "0.0-110.0-8.0", "time_elapsed": 1951812, "key_press": -1, "trial_index": 154}, "uniqueid": "MTK2575:3ZSY5X72NYIDJFXU5WKU6SHAFAOROA", "dateTime": 1519076647481}, {"current_trial": 155, "trialdata": {"rt": -1, "trial_type": "single-stim", "stimulus": "<p id=\"stim\">1</p>", "internal_node_id": "0.0-110.0-9.0", "time_elapsed": 1952848, "key_press": -1, "trial_index": 155}, "uniqueid": "MTK2575:3ZSY5X72NYIDJFXU5WKU6SHAFAOROA", "dateTime": 1519076648517}, {"current_trial": 156, "trialdata": {"rt": -1, "trial_type": "single-stim", "stimulus": "<p id=\"stim\">+</p>", "internal_node_id": "0.0-111.0-0.0", "time_elapsed": 1954363, "key_press": -1, "type": "FIXATION", "trial_index": 156}, "uniqueid": "MTK2575:3ZSY5X72NYIDJFXU5WKU6SHAFAOROA", "dateTime": 1519076650031}, {"current_trial": 157, "trialdata": {"rt": -1, "trial_type": "single-stim", "word": "daisy", "stimulus": "<p id=\"stim\">DAISY</p>", "conditions": [12, 800, "v", 12000], "internal_node_id": "0.0-112.0", "trial": 4, "time_elapsed": 1955200, "serialpos": 0, "key_press": -1, "wordID": 434, "type": "PRES_VIS", "trial_index": 157}, "uniqueid": "MTK2575:3ZSY5X72NYIDJFXU5WKU6SHAFAOROA", "dateTime": 1519076650869}, {"current_trial": 158, "trialdata": {"rt": -1, "trial_type": "single-stim", "word": "shovel", "stimulus": "<p id=\"stim\">SHOVEL</p>", "conditions": [12, 800, "v", 12000], "internal_node_id": "0.0-113.0", "trial": 4, "time_elapsed": 1957211, "serialpos": 1, "key_press": -1, "wordID": 1294, "type": "PRES_VIS", "trial_index": 158}, "uniqueid": "MTK2575:3ZSY5X72NYIDJFXU5WKU6SHAFAOROA", "dateTime": 1519076652880}, {"current_trial": 159, "trialdata": {"rt": -1, "trial_type": "single-stim", "word": "slope", "stimulus": "<p id=\"stim\">SLOPE</p>", "conditions": [12, 800, "v", 12000], "internal_node_id": "0.0-114.0", "trial": 4, "time_elapsed": 1959115, "serialpos": 2, "key_press": -1, "wordID": 1327, "type": "PRES_VIS", "trial_index": 159}, "uniqueid": "MTK2575:3ZSY5X72NYIDJFXU5WKU6SHAFAOROA", "dateTime": 1519076654784}, {"current_trial": 160, "trialdata": {"rt": -1, "trial_type": "single-stim", "word": "money", "stimulus": "<p id=\"stim\">MONEY</p>", "conditions": [12, 800, "v", 12000], "internal_node_id": "0.0-115.0", "trial": 4, "time_elapsed": 1960954, "serialpos": 3, "key_press": -1, "wordID": 907, "type": "PRES_VIS", "trial_index": 160}, "uniqueid": "MTK2575:3ZSY5X72NYIDJFXU5WKU6SHAFAOROA", "dateTime": 1519076656623}, {"current_trial": 161, "trialdata": {"rt": -1, "trial_type": "single-stim", "word": "lightning", "stimulus": "<p id=\"stim\">LIGHTNING</p>", "conditions": [12, 800, "v", 12000], "internal_node_id": "0.0-116.0", "trial": 4, "time_elapsed": 1962764, "serialpos": 4, "key_press": -1, "wordID": 819, "type": "PRES_VIS", "trial_index": 161}, "uniqueid": "MTK2575:3ZSY5X72NYIDJFXU5WKU6SHAFAOROA", "dateTime": 1519076658433}, {"current_trial": 162, "trialdata": {"rt": -1, "trial_type": "single-stim", "word": "lily", "stimulus": "<p id=\"stim\">LILY</p>", "conditions": [12, 800, "v", 12000], "internal_node_id": "0.0-117.0", "trial": 4, "time_elapsed": 1964634, "serialpos": 5, "key_press": -1, "wordID": 820, "type": "PRES_VIS", "trial_index": 162}, "uniqueid": "MTK2575:3ZSY5X72NYIDJFXU5WKU6SHAFAOROA", "dateTime": 1519076660303}, {"current_trial": 163, "trialdata": {"rt": -1, "trial_type": "single-stim", "word": "kidney", "stimulus": "<p id=\"stim\">KIDNEY</p>", "conditions": [12, 800, "v", 12000], "internal_node_id": "0.0-118.0", "trial": 4, "time_elapsed": 1966379, "serialpos": 6, "key_press": -1, "wordID": 775, "type": "PRES_VIS", "trial_index": 163}, "uniqueid": "MTK2575:3ZSY5X72NYIDJFXU5WKU6SHAFAOROA", "dateTime": 1519076662047}, {"current_trial": 164, "trialdata": {"rt": -1, "trial_type": "single-stim", "word": "liver", "stimulus": "<p id=\"stim\">LIVER</p>", "conditions": [12, 800, "v", 12000], "internal_node_id": "0.0-119.0", "trial": 4, "time_elapsed": 1968343, "serialpos": 7, "key_press": -1, "wordID": 832, "type": "PRES_VIS", "trial_index": 164}, "uniqueid": "MTK2575:3ZSY5X72NYIDJFXU5WKU6SHAFAOROA", "dateTime": 1519076664012}, {"current_trial": 165, "trialdata": {"rt": -1, "trial_type": "single-stim", "word": "spider", "stimulus": "<p id=\"stim\">SPIDER</p>", "conditions": [12, 800, "v", 12000], "internal_node_id": "0.0-120.0", "trial": 4, "time_elapsed": 1970171, "serialpos": 8, "key_press": -1, "wordID": 1350, "type": "PRES_VIS", "trial_index": 165}, "uniqueid": "MTK2575:3ZSY5X72NYIDJFXU5WKU6SHAFAOROA", "dateTime": 1519076665840}, {"current_trial": 166, "trialdata": {"rt": -1, "trial_type": "single-stim", "word": "pluto", "stimulus": "<p id=\"stim\">PLUTO</p>", "conditions": [12, 800, "v", 12000], "internal_node_id": "0.0-121.0", "trial": 4, "time_elapsed": 1971790, "serialpos": 9, "key_press": -1, "wordID": 1091, "type": "PRES_VIS", "trial_index": 166}, "uniqueid": "MTK2575:3ZSY5X72NYIDJFXU5WKU6SHAFAOROA", "dateTime": 1519076667458}, {"current_trial": 167, "trialdata": {"rt": -1, "trial_type": "single-stim", "word": "juggler", "stimulus": "<p id=\"stim\">JUGGLER</p>", "conditions": [12, 800, "v", 12000], "internal_node_id": "0.0-122.0", "trial": 4, "time_elapsed": 1973475, "serialpos": 10, "key_press": -1, "wordID": 762, "type": "PRES_VIS", "trial_index": 167}, "uniqueid": "MTK2575:3ZSY5X72NYIDJFXU5WKU6SHAFAOROA", "dateTime": 1519076669143}, {"current_trial": 168, "trialdata": {"rt": -1, "trial_type": "single-stim", "word": "brandy", "stimulus": "<p id=\"stim\">BRANDY</p>", "conditions": [12, 800, "v", 12000], "internal_node_id": "0.0-123.0", "trial": 4, "time_elapsed": 1975437, "serialpos": 11, "key_press": -1, "wordID": 168, "type": "PRES_VIS", "trial_index": 168}, "uniqueid": "MTK2575:3ZSY5X72NYIDJFXU5WKU6SHAFAOROA", "dateTime": 1519076671105}, {"current_trial": 169, "trialdata": {"rt": -1, "trial_type": "single-stim", "stimulus": "", "internal_node_id": "0.0-124.0-0.0", "time_elapsed": 1977802, "key_press": -1, "type": "PRE_RECALL_DELAY", "trial_index": 169}, "uniqueid": "MTK2575:3ZSY5X72NYIDJFXU5WKU6SHAFAOROA", "dateTime": 1519076673471}, {"current_trial": 170, "trialdata": {"rt": -1000, "trial_type": "single-audio", "stimulus": "/static/audio/400Hz.wav", "internal_node_id": "0.0-125.0", "time_elapsed": 1978311, "key_press": -1, "type": "PRE_RECALL_ALERT", "trial_index": 170}, "uniqueid": "MTK2575:3ZSY5X72NYIDJFXU5WKU6SHAFAOROA", "dateTime": 1519076673980}, {"current_trial": 171, "trialdata": {"rt": [2672, 4344, 6055, 7735, 14351, 34231], "recwords": ["brandy", "juggler", "pluto", "brandy", "daisy", ""], "key_times": [1224, 1469, 1671, 1847, 1973, 2184, 2672, 3304, 3416, 3545, 3704, 3832, 4075, 4167, 4344, 4664, 4920, 5111, 5240, 5800, 6055, 6650, 6872, 7008, 7151, 7351, 7543, 7735, 13496, 13651, 13743, 13935, 14145, 14351, 34231], "trial_type": "free-recall", "conditions": [12, 800, "v", 12000], "internal_node_id": "0.0-126.0-0.0", "key_presses": [66, 82, 65, 78, 68, 89, 13, 74, 85, 71, 71, 76, 69, 82, 13, 80, 76, 85, 84, 79, 13, 66, 82, 65, 78, 68, 89, 13, 68, 65, 73, 83, 89, 13, 13], "trial": 4, "time_elapsed": 2038318, "type": "FREE_RECALL", "trial_index": 171}, "uniqueid": "MTK2575:3ZSY5X72NYIDJFXU5WKU6SHAFAOROA", "dateTime": 1519076733993}, {"current_trial": 172, "trialdata": {"rt": 2476, "trial_type": "text", "internal_node_id": "0.0-127.0", "time_elapsed": 2042803, "key_press": 75, "type": "INSTRUCTIONS", "trial_index": 172}, "uniqueid": "MTK2575:3ZSY5X72NYIDJFXU5WKU6SHAFAOROA", "dateTime": 1519076738471}, {"current_trial": 173, "trialdata": {"rt": [3483, 11291, 14494, 16843, 18795, 23723], "trial_type": "math-distractor", "key_times": [3091, 3226, 3483, 9605, 11278, 11291, 14100, 14139, 14494, 16549, 16635, 16843, 18413, 18524, 18795, 23339, 23491, 23723], "responses": ["15", "16", "18", "12", "15", "13"], "num2": [4, 8, 9, 5, 8, 1, 2], "num3": [6, 2, 7, 1, 2, 8, 3], "conditions": [12, 1600, "v", 24000], "internal_node_id": "0.0-128.0", "key_presses": [97, 101, 13, 97, 102, 13, 97, 104, 13, 97, 98, 13, 97, 101, 13, 97, 99, 13], "trial": 5, "time_elapsed": 2068810, "type": "DISTRACTOR", "trial_index": 173, "num1": [5, 6, 2, 6, 5, 4, 4]}, "uniqueid": "MTK2575:3ZSY5X72NYIDJFXU5WKU6SHAFAOROA", "dateTime": 1519076764478}, {"current_trial": 174, "trialdata": {"rt": -1, "trial_type": "single-stim", "stimulus": "<p id=\"stim\">10</p>", "internal_node_id": "0.0-129.0-0.0", "time_elapsed": 2071822, "key_press": -1, "trial_index": 174}, "uniqueid": "MTK2575:3ZSY5X72NYIDJFXU5WKU6SHAFAOROA", "dateTime": 1519076767491}, {"current_trial": 175, "trialdata": {"rt": -1, "trial_type": "single-stim", "stimulus": "<p id=\"stim\">9</p>", "internal_node_id": "0.0-129.0-1.0", "time_elapsed": 2072827, "key_press": -1, "trial_index": 175}, "uniqueid": "MTK2575:3ZSY5X72NYIDJFXU5WKU6SHAFAOROA", "dateTime": 1519076768496}, {"current_trial": 176, "trialdata": {"rt": -1, "trial_type": "single-stim", "stimulus": "<p id=\"stim\">8</p>", "internal_node_id": "0.0-129.0-2.0", "time_elapsed": 2073846, "key_press": -1, "trial_index": 176}, "uniqueid": "MTK2575:3ZSY5X72NYIDJFXU5WKU6SHAFAOROA", "dateTime": 1519076769515}, {"current_trial": 177, "trialdata": {"rt": -1, "trial_type": "single-stim", "stimulus": "<p id=\"stim\">7</p>", "internal_node_id": "0.0-129.0-3.0", "time_elapsed": 2074850, "key_press": -1, "trial_index": 177}, "uniqueid": "MTK2575:3ZSY5X72NYIDJFXU5WKU6SHAFAOROA", "dateTime": 1519076770518}, {"current_trial": 178, "trialdata": {"rt": -1, "trial_type": "single-stim", "stimulus": "<p id=\"stim\">6</p>", "internal_node_id": "0.0-129.0-4.0", "time_elapsed": 2075854, "key_press": -1, "trial_index": 178}, "uniqueid": "MTK2575:3ZSY5X72NYIDJFXU5WKU6SHAFAOROA", "dateTime": 1519076771522}, {"current_trial": 179, "trialdata": {"rt": -1, "trial_type": "single-stim", "stimulus": "<p id=\"stim\">5</p>", "internal_node_id": "0.0-129.0-5.0", "time_elapsed": 2076859, "key_press": -1, "trial_index": 179}, "uniqueid": "MTK2575:3ZSY5X72NYIDJFXU5WKU6SHAFAOROA", "dateTime": 1519076772527}, {"current_trial": 180, "trialdata": {"rt": -1, "trial_type": "single-stim", "stimulus": "<p id=\"stim\">4</p>", "internal_node_id": "0.0-129.0-6.0", "time_elapsed": 2077865, "key_press": -1, "trial_index": 180}, "uniqueid": "MTK2575:3ZSY5X72NYIDJFXU5WKU6SHAFAOROA", "dateTime": 1519076773533}, {"current_trial": 181, "trialdata": {"rt": -1, "trial_type": "single-stim", "stimulus": "<p id=\"stim\">3</p>", "internal_node_id": "0.0-129.0-7.0", "time_elapsed": 2078869, "key_press": -1, "trial_index": 181}, "uniqueid": "MTK2575:3ZSY5X72NYIDJFXU5WKU6SHAFAOROA", "dateTime": 1519076774537}, {"current_trial": 182, "trialdata": {"rt": -1, "trial_type": "single-stim", "stimulus": "<p id=\"stim\">2</p>", "internal_node_id": "0.0-129.0-8.0", "time_elapsed": 2079881, "key_press": -1, "trial_index": 182}, "uniqueid": "MTK2575:3ZSY5X72NYIDJFXU5WKU6SHAFAOROA", "dateTime": 1519076775549}, {"current_trial": 183, "trialdata": {"rt": -1, "trial_type": "single-stim", "stimulus": "<p id=\"stim\">1</p>", "internal_node_id": "0.0-129.0-9.0", "time_elapsed": 2080897, "key_press": -1, "trial_index": 183}, "uniqueid": "MTK2575:3ZSY5X72NYIDJFXU5WKU6SHAFAOROA", "dateTime": 1519076776566}, {"current_trial": 184, "trialdata": {"rt": -1, "trial_type": "single-stim", "stimulus": "<p id=\"stim\">+</p>", "internal_node_id": "0.0-130.0-0.0", "time_elapsed": 2082413, "key_press": -1, "type": "FIXATION", "trial_index": 184}, "uniqueid": "MTK2575:3ZSY5X72NYIDJFXU5WKU6SHAFAOROA", "dateTime": 1519076778081}, {"current_trial": 185, "trialdata": {"rt": -1, "trial_type": "single-stim", "word": "puddle", "stimulus": "<p id=\"stim\">PUDDLE</p>", "conditions": [12, 1600, "v", 24000], "internal_node_id": "0.0-131.0", "trial": 5, "time_elapsed": 2084023, "serialpos": 0, "key_press": -1, "wordID": 1139, "type": "PRES_VIS", "trial_index": 185}, "uniqueid": "MTK2575:3ZSY5X72NYIDJFXU5WKU6SHAFAOROA", "dateTime": 1519076779691}, {"current_trial": 186, "trialdata": {"rt": -1, "trial_type": "single-stim", "word": "nomad", "stimulus": "<p id=\"stim\">NOMAD</p>", "conditions": [12, 1600, "v", 24000], "internal_node_id": "0.0-132.0", "trial": 5, "time_elapsed": 2086700, "serialpos": 1, "key_press": -1, "wordID": 954, "type": "PRES_VIS", "trial_index": 186}, "uniqueid": "MTK2575:3ZSY5X72NYIDJFXU5WKU6SHAFAOROA", "dateTime": 1519076782368}, {"current_trial": 187, "trialdata": {"rt": -1, "trial_type": "single-stim", "word": "award", "stimulus": "<p id=\"stim\">AWARD</p>", "conditions": [12, 1600, "v", 24000], "internal_node_id": "0.0-133.0", "trial": 5, "time_elapsed": 2089408, "serialpos": 2, "key_press": -1, "wordID": 62, "type": "PRES_VIS", "trial_index": 187}, "uniqueid": "MTK2575:3ZSY5X72NYIDJFXU5WKU6SHAFAOROA", "dateTime": 1519076785077}, {"current_trial": 188, "trialdata": {"rt": -1, "trial_type": "single-stim", "word": "jelly", "stimulus": "<p id=\"stim\">JELLY</p>", "conditions": [12, 1600, "v", 24000], "internal_node_id": "0.0-134.0", "trial": 5, "time_elapsed": 2091943, "serialpos": 3, "key_press": -1, "wordID": 754, "type": "PRES_VIS", "trial_index": 188}, "uniqueid": "MTK2575:3ZSY5X72NYIDJFXU5WKU6SHAFAOROA", "dateTime": 1519076787612}, {"current_trial": 189, "trialdata": {"rt": -1, "trial_type": "single-stim", "word": "costume", "stimulus": "<p id=\"stim\">COSTUME</p>", "conditions": [12, 1600, "v", 24000], "internal_node_id": "0.0-135.0", "trial": 5, "time_elapsed": 2094653, "serialpos": 4, "key_press": -1, "wordID": 382, "type": "PRES_VIS", "trial_index": 189}, "uniqueid": "MTK2575:3ZSY5X72NYIDJFXU5WKU6SHAFAOROA", "dateTime": 1519076790321}, {"current_trial": 190, "trialdata": {"rt": -1, "trial_type": "single-stim", "word": "airplane", "stimulus": "<p id=\"stim\">AIRPLANE</p>", "conditions": [12, 1600, "v", 24000], "internal_node_id": "0.0-136.0", "trial": 5, "time_elapsed": 2097372, "serialpos": 5, "key_press": -1, "wordID": 11, "type": "PRES_VIS", "trial_index": 190}, "uniqueid": "MTK2575:3ZSY5X72NYIDJFXU5WKU6SHAFAOROA", "dateTime": 1519076793040}, {"current_trial": 191, "trialdata": {"rt": -1, "trial_type": "single-stim", "word": "teacher", "stimulus": "<p id=\"stim\">TEACHER</p>", "conditions": [12, 1600, "v", 24000], "internal_node_id": "0.0-137.0", "trial": 5, "time_elapsed": 2099830, "serialpos": 6, "key_press": -1, "wordID": 1439, "type": "PRES_VIS", "trial_index": 191}, "uniqueid": "MTK2575:3ZSY5X72NYIDJFXU5WKU6SHAFAOROA", "dateTime": 1519076795498}, {"current_trial": 192, "trialdata": {"rt": -1, "trial_type": "single-stim", "word": "banker", "stimulus": "<p id=\"stim\">BANKER</p>", "conditions": [12, 1600, "v", 24000], "internal_node_id": "0.0-138.0", "trial": 5, "time_elapsed": 2102614, "serialpos": 7, "key_press": -1, "wordID": 83, "type": "PRES_VIS", "trial_index": 192}, "uniqueid": "MTK2575:3ZSY5X72NYIDJFXU5WKU6SHAFAOROA", "dateTime": 1519076798283}, {"current_trial": 193, "trialdata": {"rt": -1, "trial_type": "single-stim", "word": "grape", "stimulus": "<p id=\"stim\">GRAPE</p>", "conditions": [12, 1600, "v", 24000], "internal_node_id": "0.0-139.0", "trial": 5, "time_elapsed": 2105196, "serialpos": 8, "key_press": -1, "wordID": 653, "type": "PRES_VIS", "trial_index": 193}, "uniqueid": "MTK2575:3ZSY5X72NYIDJFXU5WKU6SHAFAOROA", "dateTime": 1519076800865}, {"current_trial": 194, "trialdata": {"rt": -1, "trial_type": "single-stim", "word": "sausage", "stimulus": "<p id=\"stim\">SAUSAGE</p>", "conditions": [12, 1600, "v", 24000], "internal_node_id": "0.0-140.0", "trial": 5, "time_elapsed": 2107885, "serialpos": 9, "key_press": -1, "wordID": 1237, "type": "PRES_VIS", "trial_index": 194}, "uniqueid": "MTK2575:3ZSY5X72NYIDJFXU5WKU6SHAFAOROA", "dateTime": 1519076803554}, {"current_trial": 195, "trialdata": {"rt": -1, "trial_type": "single-stim", "word": "sandwich", "stimulus": "<p id=\"stim\">SANDWICH</p>", "conditions": [12, 1600, "v", 24000], "internal_node_id": "0.0-141.0", "trial": 5, "time_elapsed": 2110390, "serialpos": 10, "key_press": -1, "wordID": 1231, "type": "PRES_VIS", "trial_index": 195}, "uniqueid": "MTK2575:3ZSY5X72NYIDJFXU5WKU6SHAFAOROA", "dateTime": 1519076806058}, {"current_trial": 196, "trialdata": {"rt": -1, "trial_type": "single-stim", "word": "tutu", "stimulus": "<p id=\"stim\">TUTU</p>", "conditions": [12, 1600, "v", 24000], "internal_node_id": "0.0-142.0", "trial": 5, "time_elapsed": 2113188, "serialpos": 11, "key_press": -1, "wordID": 1523, "type": "PRES_VIS", "trial_index": 196}, "uniqueid": "MTK2575:3ZSY5X72NYIDJFXU5WKU6SHAFAOROA", "dateTime": 1519076808857}, {"current_trial": 197, "trialdata": {"rt": -1, "trial_type": "single-stim", "stimulus": "", "internal_node_id": "0.0-143.0-0.0", "time_elapsed": 2115536, "key_press": -1, "type": "PRE_RECALL_DELAY", "trial_index": 197}, "uniqueid": "MTK2575:3ZSY5X72NYIDJFXU5WKU6SHAFAOROA", "dateTime": 1519076811204}, {"current_trial": 198, "trialdata": {"rt": -1000, "trial_type": "single-audio", "stimulus": "/static/audio/400Hz.wav", "internal_node_id": "0.0-144.0", "time_elapsed": 2116046, "key_press": -1, "type": "PRE_RECALL_ALERT", "trial_index": 198}, "uniqueid": "MTK2575:3ZSY5X72NYIDJFXU5WKU6SHAFAOROA", "dateTime": 1519076811714}, {"current_trial": 199, "trialdata": {"rt": [6074, 9521, 10977, 13697, 15809, 21057, 31753, 37585, 38929], "recwords": ["teacher", "airplane", "grape", "puddle", "award", "grape", "tutu", "nomad", ""], "key_times": [966, 1345, 1527, 1762, 2001, 4500, 5338, 5361, 5433, 6074, 6467, 6577, 6723, 7170, 7426, 8117, 8787, 8898, 9033, 9205, 9521, 9778, 10002, 10111, 10256, 10474, 10977, 12833, 12978, 13170, 13319, 13434, 13553, 13697, 14993, 15186, 15351, 15490, 15665, 15809, 18922, 19698, 20586, 20761, 20909, 21057, 30770, 30970, 31122, 31418, 31753, 36594, 36726, 36930, 37251, 37473, 37585, 38929], "trial_type": "free-recall", "conditions": [12, 1600, "v", 24000], "internal_node_id": "0.0-145.0-0.0", "key_presses": [84, 69, 65, 67, 69, 8, 72, 69, 82, 13, 65, 73, 82, 80, 190, 8, 76, 65, 78, 69, 13, 71, 82, 65, 80, 69, 13, 80, 85, 68, 68, 76, 69, 13, 65, 87, 65, 82, 68, 13, 71, 82, 65, 80, 69, 13, 84, 85, 84, 85, 13, 78, 79, 77, 65, 68, 13, 13], "trial": 5, "time_elapsed": 2176050, "type": "FREE_RECALL", "trial_index": 199}, "uniqueid": "MTK2575:3ZSY5X72NYIDJFXU5WKU6SHAFAOROA", "dateTime": 1519076871725}, {"current_trial": 200, "trialdata": {"rt": 6454, "trial_type": "text", "internal_node_id": "0.0-146.0", "time_elapsed": 2184513, "key_press": 75, "type": "INSTRUCTIONS", "trial_index": 200}, "uniqueid": "MTK2575:3ZSY5X72NYIDJFXU5WKU6SHAFAOROA", "dateTime": 1519076880181}, {"current_trial": 201, "trialdata": {"rt": [2511, 4895, 7686, 9863, 12334, 14319, 16639, 19414], "trial_type": "math-distractor", "key_times": [2239, 2511, 4567, 4655, 4895, 7399, 7558, 7686, 9463, 9649, 9863, 12015, 12047, 12334, 14023, 14095, 14319, 16271, 16431, 16639, 19175, 19414, 23870, 23975], "responses": ["9", "12", "11", "14", "16", "15", "24", "9"], "num2": [3, 7, 7, 2, 9, 1, 8, 2, 4], "num3": [2, 3, 2, 7, 3, 5, 8, 4, 7], "conditions": [24, 1600, "v", 24000], "internal_node_id": "0.0-147.0", "key_presses": [105, 13, 97, 98, 13, 97, 97, 13, 97, 100, 13, 97, 102, 13, 97, 101, 13, 98, 100, 13, 105, 13, 97, 98], "trial": 6, "time_elapsed": 2210532, "type": "DISTRACTOR", "trial_index": 201, "num1": [4, 2, 2, 5, 4, 9, 8, 3, 1]}, "uniqueid": "MTK2575:3ZSY5X72NYIDJFXU5WKU6SHAFAOROA", "dateTime": 1519076906201}, {"current_trial": 202, "trialdata": {"rt": -1, "trial_type": "single-stim", "stimulus": "<p id=\"stim\">10</p>", "internal_node_id": "0.0-148.0-0.0", "time_elapsed": 2213551, "key_press": -1, "trial_index": 202}, "uniqueid": "MTK2575:3ZSY5X72NYIDJFXU5WKU6SHAFAOROA", "dateTime": 1519076909220}, {"current_trial": 203, "trialdata": {"rt": -1, "trial_type": "single-stim", "stimulus": "<p id=\"stim\">9</p>", "internal_node_id": "0.0-148.0-1.0", "time_elapsed": 2214554, "key_press": -1, "trial_index": 203}, "uniqueid": "MTK2575:3ZSY5X72NYIDJFXU5WKU6SHAFAOROA", "dateTime": 1519076910222}, {"current_trial": 204, "trialdata": {"rt": -1, "trial_type": "single-stim", "stimulus": "<p id=\"stim\">8</p>", "internal_node_id": "0.0-148.0-2.0", "time_elapsed": 2215565, "key_press": -1, "trial_index": 204}, "uniqueid": "MTK2575:3ZSY5X72NYIDJFXU5WKU6SHAFAOROA", "dateTime": 1519076911234}, {"current_trial": 205, "trialdata": {"rt": -1, "trial_type": "single-stim", "stimulus": "<p id=\"stim\">7</p>", "internal_node_id": "0.0-148.0-3.0", "time_elapsed": 2216567, "key_press": -1, "trial_index": 205}, "uniqueid": "MTK2575:3ZSY5X72NYIDJFXU5WKU6SHAFAOROA", "dateTime": 1519076912235}, {"current_trial": 206, "trialdata": {"rt": -1, "trial_type": "single-stim", "stimulus": "<p id=\"stim\">6</p>", "internal_node_id": "0.0-148.0-4.0", "time_elapsed": 2217572, "key_press": -1, "trial_index": 206}, "uniqueid": "MTK2575:3ZSY5X72NYIDJFXU5WKU6SHAFAOROA", "dateTime": 1519076913240}, {"current_trial": 207, "trialdata": {"rt": -1, "trial_type": "single-stim", "stimulus": "<p id=\"stim\">5</p>", "internal_node_id": "0.0-148.0-5.0", "time_elapsed": 2218577, "key_press": -1, "trial_index": 207}, "uniqueid": "MTK2575:3ZSY5X72NYIDJFXU5WKU6SHAFAOROA", "dateTime": 1519076914245}, {"current_trial": 208, "trialdata": {"rt": -1, "trial_type": "single-stim", "stimulus": "<p id=\"stim\">4</p>", "internal_node_id": "0.0-148.0-6.0", "time_elapsed": 2219585, "key_press": -1, "trial_index": 208}, "uniqueid": "MTK2575:3ZSY5X72NYIDJFXU5WKU6SHAFAOROA", "dateTime": 1519076915253}, {"current_trial": 209, "trialdata": {"rt": -1, "trial_type": "single-stim", "stimulus": "<p id=\"stim\">3</p>", "internal_node_id": "0.0-148.0-7.0", "time_elapsed": 2220586, "key_press": -1, "trial_index": 209}, "uniqueid": "MTK2575:3ZSY5X72NYIDJFXU5WKU6SHAFAOROA", "dateTime": 1519076916254}, {"current_trial": 210, "trialdata": {"rt": -1, "trial_type": "single-stim", "stimulus": "<p id=\"stim\">2</p>", "internal_node_id": "0.0-148.0-8.0", "time_elapsed": 2221608, "key_press": -1, "trial_index": 210}, "uniqueid": "MTK2575:3ZSY5X72NYIDJFXU5WKU6SHAFAOROA", "dateTime": 1519076917276}, {"current_trial": 211, "trialdata": {"rt": -1, "trial_type": "single-stim", "stimulus": "<p id=\"stim\">1</p>", "internal_node_id": "0.0-148.0-9.0", "time_elapsed": 2222631, "key_press": -1, "trial_index": 211}, "uniqueid": "MTK2575:3ZSY5X72NYIDJFXU5WKU6SHAFAOROA", "dateTime": 1519076918299}, {"current_trial": 212, "trialdata": {"rt": -1, "trial_type": "single-stim", "stimulus": "<p id=\"stim\">+</p>", "internal_node_id": "0.0-149.0-0.0", "time_elapsed": 2224145, "key_press": -1, "type": "FIXATION", "trial_index": 212}, "uniqueid": "MTK2575:3ZSY5X72NYIDJFXU5WKU6SHAFAOROA", "dateTime": 1519076919814}, {"current_trial": 213, "trialdata": {"rt": -1, "trial_type": "single-stim", "word": "wardrobe", "stimulus": "<p id=\"stim\">WARDROBE</p>", "conditions": [24, 1600, "v", 24000], "internal_node_id": "0.0-150.0", "trial": 6, "time_elapsed": 2225756, "serialpos": 0, "key_press": -1, "wordID": 1586, "type": "PRES_VIS", "trial_index": 213}, "uniqueid": "MTK2575:3ZSY5X72NYIDJFXU5WKU6SHAFAOROA", "dateTime": 1519076921424}, {"current_trial": 214, "trialdata": {"rt": -1, "trial_type": "single-stim", "word": "report", "stimulus": "<p id=\"stim\">REPORT</p>", "conditions": [24, 1600, "v", 24000], "internal_node_id": "0.0-151.0", "trial": 6, "time_elapsed": 2228213, "serialpos": 1, "key_press": -1, "wordID": 1183, "type": "PRES_VIS", "trial_index": 214}, "uniqueid": "MTK2575:3ZSY5X72NYIDJFXU5WKU6SHAFAOROA", "dateTime": 1519076923882}, {"current_trial": 215, "trialdata": {"rt": -1, "trial_type": "single-stim", "word": "ankle", "stimulus": "<p id=\"stim\">ANKLE</p>", "conditions": [24, 1600, "v", 24000], "internal_node_id": "0.0-152.0", "trial": 6, "time_elapsed": 2230817, "serialpos": 2, "key_press": -1, "wordID": 23, "type": "PRES_VIS", "trial_index": 215}, "uniqueid": "MTK2575:3ZSY5X72NYIDJFXU5WKU6SHAFAOROA", "dateTime": 1519076926486}, {"current_trial": 216, "trialdata": {"rt": -1, "trial_type": "single-stim", "word": "blouse", "stimulus": "<p id=\"stim\">BLOUSE</p>", "conditions": [24, 1600, "v", 24000], "internal_node_id": "0.0-153.0", "trial": 6, "time_elapsed": 2233506, "serialpos": 3, "key_press": -1, "wordID": 138, "type": "PRES_VIS", "trial_index": 216}, "uniqueid": "MTK2575:3ZSY5X72NYIDJFXU5WKU6SHAFAOROA", "dateTime": 1519076929174}, {"current_trial": 217, "trialdata": {"rt": -1, "trial_type": "single-stim", "word": "plaza", "stimulus": "<p id=\"stim\">PLAZA</p>", "conditions": [24, 1600, "v", 24000], "internal_node_id": "0.0-154.0", "trial": 6, "time_elapsed": 2236038, "serialpos": 4, "key_press": -1, "wordID": 1087, "type": "PRES_VIS", "trial_index": 217}, "uniqueid": "MTK2575:3ZSY5X72NYIDJFXU5WKU6SHAFAOROA", "dateTime": 1519076931706}, {"current_trial": 218, "trialdata": {"rt": -1, "trial_type": "single-stim", "word": "mildew", "stimulus": "<p id=\"stim\">MILDEW</p>", "conditions": [24, 1600, "v", 24000], "internal_node_id": "0.0-155.0", "trial": 6, "time_elapsed": 2238567, "serialpos": 5, "key_press": -1, "wordID": 892, "type": "PRES_VIS", "trial_index": 218}, "uniqueid": "MTK2575:3ZSY5X72NYIDJFXU5WKU6SHAFAOROA", "dateTime": 1519076934236}, {"current_trial": 219, "trialdata": {"rt": -1, "trial_type": "single-stim", "word": "tombstone", "stimulus": "<p id=\"stim\">TOMBSTONE</p>", "conditions": [24, 1600, "v", 24000], "internal_node_id": "0.0-156.0", "trial": 6, "time_elapsed": 2241238, "serialpos": 6, "key_press": -1, "wordID": 1477, "type": "PRES_VIS", "trial_index": 219}, "uniqueid": "MTK2575:3ZSY5X72NYIDJFXU5WKU6SHAFAOROA", "dateTime": 1519076936907}, {"current_trial": 220, "trialdata": {"rt": -1, "trial_type": "single-stim", "word": "statue", "stimulus": "<p id=\"stim\">STATUE</p>", "conditions": [24, 1600, "v", 24000], "internal_node_id": "0.0-157.0", "trial": 6, "time_elapsed": 2243939, "serialpos": 7, "key_press": -1, "wordID": 1373, "type": "PRES_VIS", "trial_index": 220}, "uniqueid": "MTK2575:3ZSY5X72NYIDJFXU5WKU6SHAFAOROA", "dateTime": 1519076939607}, {"current_trial": 221, "trialdata": {"rt": -1, "trial_type": "single-stim", "word": "champagne", "stimulus": "<p id=\"stim\">CHAMPAGNE</p>", "conditions": [24, 1600, "v", 24000], "internal_node_id": "0.0-158.0", "trial": 6, "time_elapsed": 2246502, "serialpos": 8, "key_press": -1, "wordID": 277, "type": "PRES_VIS", "trial_index": 221}, "uniqueid": "MTK2575:3ZSY5X72NYIDJFXU5WKU6SHAFAOROA", "dateTime": 1519076942170}, {"current_trial": 222, "trialdata": {"rt": -1, "trial_type": "single-stim", "word": "supper", "stimulus": "<p id=\"stim\">SUPPER</p>", "conditions": [24, 1600, "v", 24000], "internal_node_id": "0.0-159.0", "trial": 6, "time_elapsed": 2248959, "serialpos": 9, "key_press": -1, "wordID": 1410, "type": "PRES_VIS", "trial_index": 222}, "uniqueid": "MTK2575:3ZSY5X72NYIDJFXU5WKU6SHAFAOROA", "dateTime": 1519076944627}, {"current_trial": 223, "trialdata": {"rt": -1, "trial_type": "single-stim", "word": "guard", "stimulus": "<p id=\"stim\">GUARD</p>", "conditions": [24, 1600, "v", 24000], "internal_node_id": "0.0-160.0", "trial": 6, "time_elapsed": 2251523, "serialpos": 10, "key_press": -1, "wordID": 666, "type": "PRES_VIS", "trial_index": 223}, "uniqueid": "MTK2575:3ZSY5X72NYIDJFXU5WKU6SHAFAOROA", "dateTime": 1519076947192}, {"current_trial": 224, "trialdata": {"rt": -1, "trial_type": "single-stim", "word": "human", "stimulus": "<p id=\"stim\">HUMAN</p>", "conditions": [24, 1600, "v", 24000], "internal_node_id": "0.0-161.0", "trial": 6, "time_elapsed": 2254184, "serialpos": 11, "key_press": -1, "wordID": 725, "type": "PRES_VIS", "trial_index": 224}, "uniqueid": "MTK2575:3ZSY5X72NYIDJFXU5WKU6SHAFAOROA", "dateTime": 1519076949852}, {"current_trial": 225, "trialdata": {"rt": -1, "trial_type": "single-stim", "word": "fox", "stimulus": "<p id=\"stim\">FOX</p>", "conditions": [24, 1600, "v", 24000], "internal_node_id": "0.0-162.0", "trial": 6, "time_elapsed": 2256629, "serialpos": 12, "key_press": -1, "wordID": 597, "type": "PRES_VIS", "trial_index": 225}, "uniqueid": "MTK2575:3ZSY5X72NYIDJFXU5WKU6SHAFAOROA", "dateTime": 1519076952297}, {"current_trial": 226, "trialdata": {"rt": -1, "trial_type": "single-stim", "word": "salad", "stimulus": "<p id=\"stim\">SALAD</p>", "conditions": [24, 1600, "v", 24000], "internal_node_id": "0.0-163.0", "trial": 6, "time_elapsed": 2259132, "serialpos": 13, "key_press": -1, "wordID": 1223, "type": "PRES_VIS", "trial_index": 226}, "uniqueid": "MTK2575:3ZSY5X72NYIDJFXU5WKU6SHAFAOROA", "dateTime": 1519076954801}, {"current_trial": 227, "trialdata": {"rt": -1, "trial_type": "single-stim", "word": "mister", "stimulus": "<p id=\"stim\">MISTER</p>", "conditions": [24, 1600, "v", 24000], "internal_node_id": "0.0-164.0", "trial": 6, "time_elapsed": 2261739, "serialpos": 14, "key_press": -1, "wordID": 900, "type": "PRES_VIS", "trial_index": 227}, "uniqueid": "MTK2575:3ZSY5X72NYIDJFXU5WKU6SHAFAOROA", "dateTime": 1519076957408}, {"current_trial": 228, "trialdata": {"rt": -1, "trial_type": "single-stim", "word": "shoulder", "stimulus": "<p id=\"stim\">SHOULDER</p>", "conditions": [24, 1600, "v", 24000], "internal_node_id": "0.0-165.0", "trial": 6, "time_elapsed": 2264184, "serialpos": 15, "key_press": -1, "wordID": 1293, "type": "PRES_VIS", "trial_index": 228}, "uniqueid": "MTK2575:3ZSY5X72NYIDJFXU5WKU6SHAFAOROA", "dateTime": 1519076959852}, {"current_trial": 229, "trialdata": {"rt": -1, "trial_type": "single-stim", "word": "gift", "stimulus": "<p id=\"stim\">GIFT</p>", "conditions": [24, 1600, "v", 24000], "internal_node_id": "0.0-166.0", "trial": 6, "time_elapsed": 2266986, "serialpos": 16, "key_press": -1, "wordID": 634, "type": "PRES_VIS", "trial_index": 229}, "uniqueid": "MTK2575:3ZSY5X72NYIDJFXU5WKU6SHAFAOROA", "dateTime": 1519076962655}, {"current_trial": 230, "trialdata": {"rt": -1, "trial_type": "single-stim", "word": "dragon", "stimulus": "<p id=\"stim\">DRAGON</p>", "conditions": [24, 1600, "v", 24000], "internal_node_id": "0.0-167.0", "trial": 6, "time_elapsed": 2269599, "serialpos": 17, "key_press": -1, "wordID": 491, "type": "PRES_VIS", "trial_index": 230}, "uniqueid": "MTK2575:3ZSY5X72NYIDJFXU5WKU6SHAFAOROA", "dateTime": 1519076965267}, {"current_trial": 231, "trialdata": {"rt": -1, "trial_type": "single-stim", "word": "parrot", "stimulus": "<p id=\"stim\">PARROT</p>", "conditions": [24, 1600, "v", 24000], "internal_node_id": "0.0-168.0", "trial": 6, "time_elapsed": 2272086, "serialpos": 18, "key_press": -1, "wordID": 1014, "type": "PRES_VIS", "trial_index": 231}, "uniqueid": "MTK2575:3ZSY5X72NYIDJFXU5WKU6SHAFAOROA", "dateTime": 1519076967754}, {"current_trial": 232, "trialdata": {"rt": -1, "trial_type": "single-stim", "word": "lake", "stimulus": "<p id=\"stim\">LAKE</p>", "conditions": [24, 1600, "v", 24000], "internal_node_id": "0.0-169.0", "trial": 6, "time_elapsed": 2274669, "serialpos": 19, "key_press": -1, "wordID": 795, "type": "PRES_VIS", "trial_index": 232}, "uniqueid": "MTK2575:3ZSY5X72NYIDJFXU5WKU6SHAFAOROA", "dateTime": 1519076970337}, {"current_trial": 233, "trialdata": {"rt": -1, "trial_type": "single-stim", "word": "lagoon", "stimulus": "<p id=\"stim\">LAGOON</p>", "conditions": [24, 1600, "v", 24000], "internal_node_id": "0.0-170.0", "trial": 6, "time_elapsed": 2277349, "serialpos": 20, "key_press": -1, "wordID": 794, "type": "PRES_VIS", "trial_index": 233}, "uniqueid": "MTK2575:3ZSY5X72NYIDJFXU5WKU6SHAFAOROA", "dateTime": 1519076973017}, {"current_trial": 234, "trialdata": {"rt": -1, "trial_type": "single-stim", "word": "rooster", "stimulus": "<p id=\"stim\">ROOSTER</p>", "conditions": [24, 1600, "v", 24000], "internal_node_id": "0.0-171.0", "trial": 6, "time_elapsed": 2279929, "serialpos": 21, "key_press": -1, "wordID": 1208, "type": "PRES_VIS", "trial_index": 234}, "uniqueid": "MTK2575:3ZSY5X72NYIDJFXU5WKU6SHAFAOROA", "dateTime": 1519076975597}, {"current_trial": 235, "trialdata": {"rt": -1, "trial_type": "single-stim", "word": "bike", "stimulus": "<p id=\"stim\">BIKE</p>", "conditions": [24, 1600, "v", 24000], "internal_node_id": "0.0-172.0", "trial": 6, "time_elapsed": 2282423, "serialpos": 22, "key_press": -1, "wordID": 124, "type": "PRES_VIS", "trial_index": 235}, "uniqueid": "MTK2575:3ZSY5X72NYIDJFXU5WKU6SHAFAOROA", "dateTime": 1519076978091}, {"current_trial": 236, "trialdata": {"rt": -1, "trial_type": "single-stim", "word": "freckle", "stimulus": "<p id=\"stim\">FRECKLE</p>", "conditions": [24, 1600, "v", 24000], "internal_node_id": "0.0-173.0", "trial": 6, "time_elapsed": 2285190, "serialpos": 23, "key_press": -1, "wordID": 601, "type": "PRES_VIS", "trial_index": 236}, "uniqueid": "MTK2575:3ZSY5X72NYIDJFXU5WKU6SHAFAOROA", "dateTime": 1519076980859}, {"current_trial": 237, "trialdata": {"rt": -1, "trial_type": "single-stim", "stimulus": "", "internal_node_id": "0.0-174.0-0.0", "time_elapsed": 2287557, "key_press": -1, "type": "PRE_RECALL_DELAY", "trial_index": 237}, "uniqueid": "MTK2575:3ZSY5X72NYIDJFXU5WKU6SHAFAOROA", "dateTime": 1519076983225}, {"current_trial": 238, "trialdata": {"rt": -1000, "trial_type": "single-audio", "stimulus": "/static/audio/400Hz.wav", "internal_node_id": "0.0-175.0", "time_elapsed": 2288067, "key_press": -1, "type": "PRE_RECALL_ALERT", "trial_index": 238}, "uniqueid": "MTK2575:3ZSY5X72NYIDJFXU5WKU6SHAFAOROA", "dateTime": 1519076983735}, {"current_trial": 239, "trialdata": {"rt": [2138, 3730, 4714, 6533, 10234, 13202, 15018, 18243, 23322, 32562, 45145, 59442], "recwords": ["dragon", "parrot", "lake", "lagoon", "champagne", "fox", "gift", "wardrobe", "report", "bike", "tombstone", "blouse"], "key_times": [450, 739, 924, 1424, 1626, 1819, 2138, 2650, 2900, 2970, 3178, 3308, 3458, 3730, 4011, 4154, 4275, 4379, 4714, 5138, 5339, 5610, 5825, 5962, 6162, 6533, 6538, 6915, 7147, 7152, 7635, 8066, 8260, 8746, 8858, 9002, 9290, 9762, 10234, 12738, 12818, 13026, 13202, 14378, 14498, 14618, 14802, 15018, 16530, 16724, 16834, 17058, 17571, 17674, 17883, 18115, 18243, 22275, 22362, 22650, 22810, 22937, 23130, 23322, 31330, 31834, 32026, 32250, 32562, 43282, 43449, 43674, 43866, 44394, 44562, 44699, 44843, 44969, 45145, 58322, 58514, 58705, 58866, 58978, 59122, 59442], "trial_type": "free-recall", "conditions": [24, 1600, "v", 24000], "internal_node_id": "0.0-176.0-0.0", "key_presses": [68, 82, 65, 71, 79, 78, 13, 80, 65, 82, 82, 79, 84, 13, 76, 65, 75, 69, 13, 76, 65, 71, 79, 79, 78, 13, 16, 67, 72, 74, 8, 65, 77, 80, 65, 71, 78, 69, 13, 70, 79, 88, 13, 71, 73, 70, 84, 13, 87, 65, 82, 68, 82, 79, 66, 69, 13, 82, 69, 80, 79, 82, 84, 13, 66, 73, 75, 69, 13, 84, 79, 77, 66, 83, 84, 79, 78, 69, 13, 66, 76, 79, 85, 83, 69, 13], "trial": 6, "time_elapsed": 2348073, "type": "FREE_RECALL", "trial_index": 239}, "uniqueid": "MTK2575:3ZSY5X72NYIDJFXU5WKU6SHAFAOROA", "dateTime": 1519077043745}, {"current_trial": 240, "trialdata": {"rt": 15318, "trial_type": "text", "internal_node_id": "0.0-177.0", "time_elapsed": 2365400, "key_press": 68, "type": "INSTRUCTIONS", "trial_index": 240}, "uniqueid": "MTK2575:3ZSY5X72NYIDJFXU5WKU6SHAFAOROA", "dateTime": 1519077061069}, {"current_trial": 241, "trialdata": {"rt": [4891, 7434], "trial_type": "math-distractor", "key_times": [4372, 4587, 4891, 6846, 7027, 7434], "responses": ["17", "16"], "num2": [8, 5, 8], "num3": [3, 3, 6], "conditions": [24, 800, "v", 12000], "internal_node_id": "0.0-178.0", "key_presses": [97, 103, 13, 97, 102, 13], "trial": 7, "time_elapsed": 2379411, "type": "DISTRACTOR", "trial_index": 241, "num1": [3, 8, 9]}, "uniqueid": "MTK2575:3ZSY5X72NYIDJFXU5WKU6SHAFAOROA", "dateTime": 1519077075079}, {"current_trial": 242, "trialdata": {"rt": -1, "trial_type": "single-stim", "stimulus": "<p id=\"stim\">10</p>", "internal_node_id": "0.0-179.0-0.0", "time_elapsed": 2382425, "key_press": -1, "trial_index": 242}, "uniqueid": "MTK2575:3ZSY5X72NYIDJFXU5WKU6SHAFAOROA", "dateTime": 1519077078094}, {"current_trial": 243, "trialdata": {"rt": -1, "trial_type": "single-stim", "stimulus": "<p id=\"stim\">9</p>", "internal_node_id": "0.0-179.0-1.0", "time_elapsed": 2383437, "key_press": -1, "trial_index": 243}, "uniqueid": "MTK2575:3ZSY5X72NYIDJFXU5WKU6SHAFAOROA", "dateTime": 1519077079105}, {"current_trial": 244, "trialdata": {"rt": -1, "trial_type": "single-stim", "stimulus": "<p id=\"stim\">8</p>", "internal_node_id": "0.0-179.0-2.0", "time_elapsed": 2384447, "key_press": -1, "trial_index": 244}, "uniqueid": "MTK2575:3ZSY5X72NYIDJFXU5WKU6SHAFAOROA", "dateTime": 1519077080116}, {"current_trial": 245, "trialdata": {"rt": -1, "trial_type": "single-stim", "stimulus": "<p id=\"stim\">7</p>", "internal_node_id": "0.0-179.0-3.0", "time_elapsed": 2385452, "key_press": -1, "trial_index": 245}, "uniqueid": "MTK2575:3ZSY5X72NYIDJFXU5WKU6SHAFAOROA", "dateTime": 1519077081120}, {"current_trial": 246, "trialdata": {"rt": -1, "trial_type": "single-stim", "stimulus": "<p id=\"stim\">6</p>", "internal_node_id": "0.0-179.0-4.0", "time_elapsed": 2386464, "key_press": -1, "trial_index": 246}, "uniqueid": "MTK2575:3ZSY5X72NYIDJFXU5WKU6SHAFAOROA", "dateTime": 1519077082132}, {"current_trial": 247, "trialdata": {"rt": -1, "trial_type": "single-stim", "stimulus": "<p id=\"stim\">5</p>", "internal_node_id": "0.0-179.0-5.0", "time_elapsed": 2387482, "key_press": -1, "trial_index": 247}, "uniqueid": "MTK2575:3ZSY5X72NYIDJFXU5WKU6SHAFAOROA", "dateTime": 1519077083151}, {"current_trial": 248, "trialdata": {"rt": -1, "trial_type": "single-stim", "stimulus": "<p id=\"stim\">4</p>", "internal_node_id": "0.0-179.0-6.0", "time_elapsed": 2388489, "key_press": -1, "trial_index": 248}, "uniqueid": "MTK2575:3ZSY5X72NYIDJFXU5WKU6SHAFAOROA", "dateTime": 1519077084158}, {"current_trial": 249, "trialdata": {"rt": -1, "trial_type": "single-stim", "stimulus": "<p id=\"stim\">3</p>", "internal_node_id": "0.0-179.0-7.0", "time_elapsed": 2389492, "key_press": -1, "trial_index": 249}, "uniqueid": "MTK2575:3ZSY5X72NYIDJFXU5WKU6SHAFAOROA", "dateTime": 1519077085160}, {"current_trial": 250, "trialdata": {"rt": -1, "trial_type": "single-stim", "stimulus": "<p id=\"stim\">2</p>", "internal_node_id": "0.0-179.0-8.0", "time_elapsed": 2390526, "key_press": -1, "trial_index": 250}, "uniqueid": "MTK2575:3ZSY5X72NYIDJFXU5WKU6SHAFAOROA", "dateTime": 1519077086194}, {"current_trial": 251, "trialdata": {"rt": -1, "trial_type": "single-stim", "stimulus": "<p id=\"stim\">1</p>", "internal_node_id": "0.0-179.0-9.0", "time_elapsed": 2391541, "key_press": -1, "trial_index": 251}, "uniqueid": "MTK2575:3ZSY5X72NYIDJFXU5WKU6SHAFAOROA", "dateTime": 1519077087210}, {"current_trial": 252, "trialdata": {"rt": -1, "trial_type": "single-stim", "stimulus": "<p id=\"stim\">+</p>", "internal_node_id": "0.0-180.0-0.0", "time_elapsed": 2393048, "key_press": -1, "type": "FIXATION", "trial_index": 252}, "uniqueid": "MTK2575:3ZSY5X72NYIDJFXU5WKU6SHAFAOROA", "dateTime": 1519077088716}, {"current_trial": 253, "trialdata": {"rt": -1, "trial_type": "single-stim", "word": "ulcer", "stimulus": "<p id=\"stim\">ULCER</p>", "conditions": [24, 800, "v", 12000], "internal_node_id": "0.0-181.0", "trial": 7, "time_elapsed": 2393853, "serialpos": 0, "key_press": -1, "wordID": 1532, "type": "PRES_VIS", "trial_index": 253}, "uniqueid": "MTK2575:3ZSY5X72NYIDJFXU5WKU6SHAFAOROA", "dateTime": 1519077089521}, {"current_trial": 254, "trialdata": {"rt": -1, "trial_type": "single-stim", "word": "razor", "stimulus": "<p id=\"stim\">RAZOR</p>", "conditions": [24, 800, "v", 12000], "internal_node_id": "0.0-182.0", "trial": 7, "time_elapsed": 2395554, "serialpos": 1, "key_press": -1, "wordID": 1170, "type": "PRES_VIS", "trial_index": 254}, "uniqueid": "MTK2575:3ZSY5X72NYIDJFXU5WKU6SHAFAOROA", "dateTime": 1519077091223}, {"current_trial": 255, "trialdata": {"rt": -1, "trial_type": "single-stim", "word": "forest", "stimulus": "<p id=\"stim\">FOREST</p>", "conditions": [24, 800, "v", 12000], "internal_node_id": "0.0-183.0", "trial": 7, "time_elapsed": 2397411, "serialpos": 2, "key_press": -1, "wordID": 592, "type": "PRES_VIS", "trial_index": 255}, "uniqueid": "MTK2575:3ZSY5X72NYIDJFXU5WKU6SHAFAOROA", "dateTime": 1519077093080}, {"current_trial": 256, "trialdata": {"rt": -1, "trial_type": "single-stim", "word": "grill", "stimulus": "<p id=\"stim\">GRILL</p>", "conditions": [24, 800, "v", 12000], "internal_node_id": "0.0-184.0", "trial": 7, "time_elapsed": 2399093, "serialpos": 3, "key_press": -1, "wordID": 660, "type": "PRES_VIS", "trial_index": 256}, "uniqueid": "MTK2575:3ZSY5X72NYIDJFXU5WKU6SHAFAOROA", "dateTime": 1519077094763}, {"current_trial": 257, "trialdata": {"rt": -1, "trial_type": "single-stim", "word": "stove", "stimulus": "<p id=\"stim\">STOVE</p>", "conditions": [24, 800, "v", 12000], "internal_node_id": "0.0-185.0", "trial": 7, "time_elapsed": 2400860, "serialpos": 4, "key_press": -1, "wordID": 1387, "type": "PRES_VIS", "trial_index": 257}, "uniqueid": "MTK2575:3ZSY5X72NYIDJFXU5WKU6SHAFAOROA", "dateTime": 1519077096528}, {"current_trial": 258, "trialdata": {"rt": -1, "trial_type": "single-stim", "word": "leg", "stimulus": "<p id=\"stim\">LEG</p>", "conditions": [24, 800, "v", 12000], "internal_node_id": "0.0-186.0", "trial": 7, "time_elapsed": 2402557, "serialpos": 5, "key_press": -1, "wordID": 808, "type": "PRES_VIS", "trial_index": 258}, "uniqueid": "MTK2575:3ZSY5X72NYIDJFXU5WKU6SHAFAOROA", "dateTime": 1519077098225}, {"current_trial": 259, "trialdata": {"rt": -1, "trial_type": "single-stim", "word": "scissors", "stimulus": "<p id=\"stim\">SCISSORS</p>", "conditions": [24, 800, "v", 12000], "internal_node_id": "0.0-187.0", "trial": 7, "time_elapsed": 2404534, "serialpos": 6, "key_press": -1, "wordID": 1249, "type": "PRES_VIS", "trial_index": 259}, "uniqueid": "MTK2575:3ZSY5X72NYIDJFXU5WKU6SHAFAOROA", "dateTime": 1519077100202}, {"current_trial": 260, "trialdata": {"rt": -1, "trial_type": "single-stim", "word": "motel", "stimulus": "<p id=\"stim\">MOTEL</p>", "conditions": [24, 800, "v", 12000], "internal_node_id": "0.0-188.0", "trial": 7, "time_elapsed": 2406394, "serialpos": 7, "key_press": -1, "wordID": 918, "type": "PRES_VIS", "trial_index": 260}, "uniqueid": "MTK2575:3ZSY5X72NYIDJFXU5WKU6SHAFAOROA", "dateTime": 1519077102063}, {"current_trial": 261, "triald