{"assignmentId": "3CFJTT4SXUXT5A2CYN9JHEUO0P47I3", "workerId": "MTK2191", "questiondata": {"origin": "United States", "strat-rehearsal": "31", "marital": "Married/Domestic Partnership", "education": "Some college", "ethnicity": "Not Hispanic", "color_depth": 24, "distracted": "No", "wrote-notes": "Yes", "strat-other": "", "screen_width": 1536, "avail_screen_width": 1536, "avail_screen_height": 824, "strat-image": "37", "language": "English", "gender": "Female", "age": "30", "gender_other": "", "race": ["White"], "strat-categorize": "26", "pixel_depth": 24, "strat-spatial": "20", "strat-story": "17", "race_other": "", "screen_height": 864}, "bonus": 0, "hitId": "375VMB7D4JQ7ZZ5SZY73SM804CCID7", "counterbalance": 2792, "useragent": "Mozilla/5.0 (Windows NT 10.0; Win64; x64) AppleWebKit/537.36 (KHTML, like Gecko) Chrome/63.0.3239.132 Safari/537.36", "eventdata": [{"eventtype": "initialized", "interval": 0, "value": null, "timestamp": 1516823714934}, {"eventtype": "window_resize", "interval": 0, "value": [1540, 816], "timestamp": 1516823714934}, {"eventtype": "focus", "interval": 3502, "value": "off", "timestamp": 1516823718436}, {"eventtype": "focus", "interval": 4916, "value": "on", "timestamp": 1516823723352}, {"eventtype": "focus", "interval": 713369, "value": "off", "timestamp": 1516824436721}, {"eventtype": "focus", "interval": 23119, "value": "on", "timestamp": 1516824459840}, {"eventtype": "focus", "interval": 0, "value": "on", "timestamp": 1516824459840}, {"eventtype": "window_resize", "interval": 76172, "value": [1400, 742], "timestamp": 1516824536012}, {"eventtype": "focus", "interval": 9318, "value": "off", "timestamp": 1516824545330}, {"eventtype": "focus", "interval": 2406, "value": "on", "timestamp": 1516824547736}, {"eventtype": "focus", "interval": 981452, "value": "off", "timestamp": 1516825529188}, {"eventtype": "focus", "interval": 18662, "value": "on", "timestamp": 1516825547850}], "data": [{"current_trial": 0, "trialdata": {"rt": 2841, "trial_type": "text", "internal_node_id": "0.0-0.0", "time_elapsed": 2843, "key_press": 18, "type": "INSTRUCTIONS", "trial_index": 0}, "uniqueid": "MTK2191:3CFJTT4SXUXT5A2CYN9JHEUO0P47I3", "dateTime": 1516823718350}, {"current_trial": 1, "trialdata": {"rt": 7444, "trial_type": "text", "internal_node_id": "0.0-1.0", "time_elapsed": 10289, "key_press": 78, "type": "INSTRUCTIONS", "trial_index": 1}, "uniqueid": "MTK2191:3CFJTT4SXUXT5A2CYN9JHEUO0P47I3", "dateTime": 1516823725795}, {"current_trial": 2, "trialdata": {"rt": [11608], "trial_type": "audio-test", "responses": ["ocean"], "internal_node_id": "0.0-2.0", "time_elapsed": 21907, "type": "AUDIO_TEST", "trial_index": 2}, "uniqueid": "MTK2191:3CFJTT4SXUXT5A2CYN9JHEUO0P47I3", "dateTime": 1516823737413}, {"current_trial": 3, "trialdata": {"rt": [7782], "trial_type": "audio-test", "responses": ["crystal"], "internal_node_id": "0.0-3.0", "time_elapsed": 29694, "type": "AUDIO_TEST", "trial_index": 3}, "uniqueid": "MTK2191:3CFJTT4SXUXT5A2CYN9JHEUO0P47I3", "dateTime": 1516823745200}, {"current_trial": 4, "trialdata": {"rt": [3854], "trial_type": "audio-test", "responses": ["spice"], "internal_node_id": "0.0-4.0", "time_elapsed": 33551, "type": "AUDIO_TEST", "trial_index": 4}, "uniqueid": "MTK2191:3CFJTT4SXUXT5A2CYN9JHEUO0P47I3", "dateTime": 1516823749057}, {"current_trial": 5, "trialdata": {"rt": 38174, "trial_type": "survey-text", "responses": "{\"Q0\":\"9:00pm\",\"Q1\":\"6:15am\",\"Q2\":\"5\\n5\"}", "internal_node_id": "0.0-5.0", "time_elapsed": 72481, "type": "SLEEP_SURVEY", "trial_index": 5}, "uniqueid": "MTK2191:3CFJTT4SXUXT5A2CYN9JHEUO0P47I3", "dateTime": 1516823787987}, {"current_trial": 6, "trialdata": {"rt": 1062, "trial_type": "text", "internal_node_id": "0.0-6.0", "time_elapsed": 74544, "key_press": 74, "type": "INSTRUCTIONS", "trial_index": 6}, "uniqueid": "MTK2191:3CFJTT4SXUXT5A2CYN9JHEUO0P47I3", "dateTime": 1516823790050}, {"current_trial": 7, "trialdata": {"rt": 2294, "trial_type": "text", "internal_node_id": "0.0-7.0", "time_elapsed": 77341, "key_press": 74, "type": "INSTRUCTIONS", "trial_index": 7}, "uniqueid": "MTK2191:3CFJTT4SXUXT5A2CYN9JHEUO0P47I3", "dateTime": 1516823792848}, {"current_trial": 8, "trialdata": {"rt": 848, "trial_type": "text", "internal_node_id": "0.0-8.0", "time_elapsed": 78693, "key_press": 74, "type": "INSTRUCTIONS", "trial_index": 8}, "uniqueid": "MTK2191:3CFJTT4SXUXT5A2CYN9JHEUO0P47I3", "dateTime": 1516823794199}, {"current_trial": 9, "trialdata": {"rt": [3617, 5519, 7447, 13018], "trial_type": "math-distractor", "key_times": [3198, 3289, 3617, 5140, 5240, 5519, 7012, 7200, 7447, 12487, 12741, 13018], "responses": ["21", "15", "11", "16"], "num2": [9, 7, 1, 5, 6], "num3": [9, 7, 9, 7, 7], "conditions": [18, 1200, "v", 18000], "internal_node_id": "0.0-9.0", "key_presses": [98, 97, 13, 97, 101, 13, 97, 97, 13, 97, 102, 13], "trial": 0, "time_elapsed": 97700, "type": "DISTRACTOR", "trial_index": 9, "num1": [3, 1, 1, 4, 9]}, "uniqueid": "MTK2191:3CFJTT4SXUXT5A2CYN9JHEUO0P47I3", "dateTime": 1516823813206}, {"current_trial": 10, "trialdata": {"rt": -1, "trial_type": "single-stim", "stimulus": "<p id=\"stim\">10</p>", "internal_node_id": "0.0-10.0-0.0", "time_elapsed": 100706, "key_press": -1, "trial_index": 10}, "uniqueid": "MTK2191:3CFJTT4SXUXT5A2CYN9JHEUO0P47I3", "dateTime": 1516823816212}, {"current_trial": 11, "trialdata": {"rt": -1, "trial_type": "single-stim", "stimulus": "<p id=\"stim\">9</p>", "internal_node_id": "0.0-10.0-1.0", "time_elapsed": 101709, "key_press": -1, "trial_index": 11}, "uniqueid": "MTK2191:3CFJTT4SXUXT5A2CYN9JHEUO0P47I3", "dateTime": 1516823817215}, {"current_trial": 12, "trialdata": {"rt": -1, "trial_type": "single-stim", "stimulus": "<p id=\"stim\">8</p>", "internal_node_id": "0.0-10.0-2.0", "time_elapsed": 102713, "key_press": -1, "trial_index": 12}, "uniqueid": "MTK2191:3CFJTT4SXUXT5A2CYN9JHEUO0P47I3", "dateTime": 1516823818219}, {"current_trial": 13, "trialdata": {"rt": -1, "trial_type": "single-stim", "stimulus": "<p id=\"stim\">7</p>", "internal_node_id": "0.0-10.0-3.0", "time_elapsed": 103716, "key_press": -1, "trial_index": 13}, "uniqueid": "MTK2191:3CFJTT4SXUXT5A2CYN9JHEUO0P47I3", "dateTime": 1516823819222}, {"current_trial": 14, "trialdata": {"rt": -1, "trial_type": "single-stim", "stimulus": "<p id=\"stim\">6</p>", "internal_node_id": "0.0-10.0-4.0", "time_elapsed": 104717, "key_press": -1, "trial_index": 14}, "uniqueid": "MTK2191:3CFJTT4SXUXT5A2CYN9JHEUO0P47I3", "dateTime": 1516823820223}, {"current_trial": 15, "trialdata": {"rt": -1, "trial_type": "single-stim", "stimulus": "<p id=\"stim\">5</p>", "internal_node_id": "0.0-10.0-5.0", "time_elapsed": 105720, "key_press": -1, "trial_index": 15}, "uniqueid": "MTK2191:3CFJTT4SXUXT5A2CYN9JHEUO0P47I3", "dateTime": 1516823821226}, {"current_trial": 16, "trialdata": {"rt": -1, "trial_type": "single-stim", "stimulus": "<p id=\"stim\">4</p>", "internal_node_id": "0.0-10.0-6.0", "time_elapsed": 106724, "key_press": -1, "trial_index": 16}, "uniqueid": "MTK2191:3CFJTT4SXUXT5A2CYN9JHEUO0P47I3", "dateTime": 1516823822230}, {"current_trial": 17, "trialdata": {"rt": -1, "trial_type": "single-stim", "stimulus": "<p id=\"stim\">3</p>", "internal_node_id": "0.0-10.0-7.0", "time_elapsed": 107726, "key_press": -1, "trial_index": 17}, "uniqueid": "MTK2191:3CFJTT4SXUXT5A2CYN9JHEUO0P47I3", "dateTime": 1516823823232}, {"current_trial": 18, "trialdata": {"rt": -1, "trial_type": "single-stim", "stimulus": "<p id=\"stim\">2</p>", "internal_node_id": "0.0-10.0-8.0", "time_elapsed": 108726, "key_press": -1, "trial_index": 18}, "uniqueid": "MTK2191:3CFJTT4SXUXT5A2CYN9JHEUO0P47I3", "dateTime": 1516823824232}, {"current_trial": 19, "trialdata": {"rt": -1, "trial_type": "single-stim", "stimulus": "<p id=\"stim\">1</p>", "internal_node_id": "0.0-10.0-9.0", "time_elapsed": 109729, "key_press": -1, "trial_index": 19}, "uniqueid": "MTK2191:3CFJTT4SXUXT5A2CYN9JHEUO0P47I3", "dateTime": 1516823825235}, {"current_trial": 20, "trialdata": {"rt": -1, "trial_type": "single-stim", "stimulus": "<p id=\"stim\">+</p>", "internal_node_id": "0.0-11.0-0.0", "time_elapsed": 111231, "key_press": -1, "type": "FIXATION", "trial_index": 20}, "uniqueid": "MTK2191:3CFJTT4SXUXT5A2CYN9JHEUO0P47I3", "dateTime": 1516823826737}, {"current_trial": 21, "trialdata": {"rt": -1, "trial_type": "single-stim", "word": "shoulder", "stimulus": "<p id=\"stim\">SHOULDER</p>", "conditions": [18, 1200, "v", 18000], "internal_node_id": "0.0-12.0", "trial": 0, "time_elapsed": 112432, "serialpos": 0, "key_press": -1, "wordID": 1293, "type": "PRES_VIS", "trial_index": 21}, "uniqueid": "MTK2191:3CFJTT4SXUXT5A2CYN9JHEUO0P47I3", "dateTime": 1516823827939}, {"current_trial": 22, "trialdata": {"rt": -1, "trial_type": "single-stim", "word": "airplane", "stimulus": "<p id=\"stim\">AIRPLANE</p>", "conditions": [18, 1200, "v", 18000], "internal_node_id": "0.0-13.0", "trial": 0, "time_elapsed": 114795, "serialpos": 1, "key_press": -1, "wordID": 11, "type": "PRES_VIS", "trial_index": 22}, "uniqueid": "MTK2191:3CFJTT4SXUXT5A2CYN9JHEUO0P47I3", "dateTime": 1516823830301}, {"current_trial": 23, "trialdata": {"rt": -1, "trial_type": "single-stim", "word": "europe", "stimulus": "<p id=\"stim\">EUROPE</p>", "conditions": [18, 1200, "v", 18000], "internal_node_id": "0.0-14.0", "trial": 0, "time_elapsed": 116971, "serialpos": 2, "key_press": -1, "wordID": 540, "type": "PRES_VIS", "trial_index": 23}, "uniqueid": "MTK2191:3CFJTT4SXUXT5A2CYN9JHEUO0P47I3", "dateTime": 1516823832477}, {"current_trial": 24, "trialdata": {"rt": -1, "trial_type": "single-stim", "word": "headband", "stimulus": "<p id=\"stim\">HEADBAND</p>", "conditions": [18, 1200, "v", 18000], "internal_node_id": "0.0-15.0", "trial": 0, "time_elapsed": 119214, "serialpos": 3, "key_press": -1, "wordID": 695, "type": "PRES_VIS", "trial_index": 24}, "uniqueid": "MTK2191:3CFJTT4SXUXT5A2CYN9JHEUO0P47I3", "dateTime": 1516823834720}, {"current_trial": 25, "trialdata": {"rt": -1, "trial_type": "single-stim", "word": "lily", "stimulus": "<p id=\"stim\">LILY</p>", "conditions": [18, 1200, "v", 18000], "internal_node_id": "0.0-16.0", "trial": 0, "time_elapsed": 121399, "serialpos": 4, "key_press": -1, "wordID": 820, "type": "PRES_VIS", "trial_index": 25}, "uniqueid": "MTK2191:3CFJTT4SXUXT5A2CYN9JHEUO0P47I3", "dateTime": 1516823836905}, {"current_trial": 26, "trialdata": {"rt": -1, "trial_type": "single-stim", "word": "monster", "stimulus": "<p id=\"stim\">MONSTER</p>", "conditions": [18, 1200, "v", 18000], "internal_node_id": "0.0-17.0", "trial": 0, "time_elapsed": 123474, "serialpos": 5, "key_press": -1, "wordID": 911, "type": "PRES_VIS", "trial_index": 26}, "uniqueid": "MTK2191:3CFJTT4SXUXT5A2CYN9JHEUO0P47I3", "dateTime": 1516823838980}, {"current_trial": 27, "trialdata": {"rt": -1, "trial_type": "single-stim", "word": "college", "stimulus": "<p id=\"stim\">COLLEGE</p>", "conditions": [18, 1200, "v", 18000], "internal_node_id": "0.0-18.0", "trial": 0, "time_elapsed": 125770, "serialpos": 6, "key_press": -1, "wordID": 345, "type": "PRES_VIS", "trial_index": 27}, "uniqueid": "MTK2191:3CFJTT4SXUXT5A2CYN9JHEUO0P47I3", "dateTime": 1516823841276}, {"current_trial": 28, "trialdata": {"rt": -1, "trial_type": "single-stim", "word": "brandy", "stimulus": "<p id=\"stim\">BRANDY</p>", "conditions": [18, 1200, "v", 18000], "internal_node_id": "0.0-19.0", "trial": 0, "time_elapsed": 127971, "serialpos": 7, "key_press": -1, "wordID": 168, "type": "PRES_VIS", "trial_index": 28}, "uniqueid": "MTK2191:3CFJTT4SXUXT5A2CYN9JHEUO0P47I3", "dateTime": 1516823843477}, {"current_trial": 29, "trialdata": {"rt": -1, "trial_type": "single-stim", "word": "dresser", "stimulus": "<p id=\"stim\">DRESSER</p>", "conditions": [18, 1200, "v", 18000], "internal_node_id": "0.0-20.0", "trial": 0, "time_elapsed": 130191, "serialpos": 8, "key_press": -1, "wordID": 495, "type": "PRES_VIS", "trial_index": 29}, "uniqueid": "MTK2191:3CFJTT4SXUXT5A2CYN9JHEUO0P47I3", "dateTime": 1516823845697}, {"current_trial": 30, "trialdata": {"rt": -1, "trial_type": "single-stim", "word": "plaid", "stimulus": "<p id=\"stim\">PLAID</p>", "conditions": [18, 1200, "v", 18000], "internal_node_id": "0.0-21.0", "trial": 0, "time_elapsed": 132463, "serialpos": 9, "key_press": -1, "wordID": 1079, "type": "PRES_VIS", "trial_index": 30}, "uniqueid": "MTK2191:3CFJTT4SXUXT5A2CYN9JHEUO0P47I3", "dateTime": 1516823847969}, {"current_trial": 31, "trialdata": {"rt": -1, "trial_type": "single-stim", "word": "worker", "stimulus": "<p id=\"stim\">WORKER</p>", "conditions": [18, 1200, "v", 18000], "internal_node_id": "0.0-22.0", "trial": 0, "time_elapsed": 134648, "serialpos": 10, "key_press": -1, "wordID": 1620, "type": "PRES_VIS", "trial_index": 31}, "uniqueid": "MTK2191:3CFJTT4SXUXT5A2CYN9JHEUO0P47I3", "dateTime": 1516823850154}, {"current_trial": 32, "trialdata": {"rt": -1, "trial_type": "single-stim", "word": "seal", "stimulus": "<p id=\"stim\">SEAL</p>", "conditions": [18, 1200, "v", 18000], "internal_node_id": "0.0-23.0", "trial": 0, "time_elapsed": 136843, "serialpos": 11, "key_press": -1, "wordID": 1261, "type": "PRES_VIS", "trial_index": 32}, "uniqueid": "MTK2191:3CFJTT4SXUXT5A2CYN9JHEUO0P47I3", "dateTime": 1516823852349}, {"current_trial": 33, "trialdata": {"rt": -1, "trial_type": "single-stim", "word": "motor", "stimulus": "<p id=\"stim\">MOTOR</p>", "conditions": [18, 1200, "v", 18000], "internal_node_id": "0.0-24.0", "trial": 0, "time_elapsed": 139183, "serialpos": 12, "key_press": -1, "wordID": 921, "type": "PRES_VIS", "trial_index": 33}, "uniqueid": "MTK2191:3CFJTT4SXUXT5A2CYN9JHEUO0P47I3", "dateTime": 1516823854689}, {"current_trial": 34, "trialdata": {"rt": -1, "trial_type": "single-stim", "word": "diver", "stimulus": "<p id=\"stim\">DIVER</p>", "conditions": [18, 1200, "v", 18000], "internal_node_id": "0.0-25.0", "trial": 0, "time_elapsed": 141402, "serialpos": 13, "key_press": -1, "wordID": 475, "type": "PRES_VIS", "trial_index": 34}, "uniqueid": "MTK2191:3CFJTT4SXUXT5A2CYN9JHEUO0P47I3", "dateTime": 1516823856908}, {"current_trial": 35, "trialdata": {"rt": -1, "trial_type": "single-stim", "word": "cupboard", "stimulus": "<p id=\"stim\">CUPBOARD</p>", "conditions": [18, 1200, "v", 18000], "internal_node_id": "0.0-26.0", "trial": 0, "time_elapsed": 143668, "serialpos": 14, "key_press": -1, "wordID": 424, "type": "PRES_VIS", "trial_index": 35}, "uniqueid": "MTK2191:3CFJTT4SXUXT5A2CYN9JHEUO0P47I3", "dateTime": 1516823859174}, {"current_trial": 36, "trialdata": {"rt": -1, "trial_type": "single-stim", "word": "snack", "stimulus": "<p id=\"stim\">SNACK</p>", "conditions": [18, 1200, "v", 18000], "internal_node_id": "0.0-27.0", "trial": 0, "time_elapsed": 146056, "serialpos": 15, "key_press": -1, "wordID": 1330, "type": "PRES_VIS", "trial_index": 36}, "uniqueid": "MTK2191:3CFJTT4SXUXT5A2CYN9JHEUO0P47I3", "dateTime": 1516823861562}, {"current_trial": 37, "trialdata": {"rt": -1, "trial_type": "single-stim", "word": "receipt", "stimulus": "<p id=\"stim\">RECEIPT</p>", "conditions": [18, 1200, "v", 18000], "internal_node_id": "0.0-28.0", "trial": 0, "time_elapsed": 148140, "serialpos": 16, "key_press": -1, "wordID": 1172, "type": "PRES_VIS", "trial_index": 37}, "uniqueid": "MTK2191:3CFJTT4SXUXT5A2CYN9JHEUO0P47I3", "dateTime": 1516823863647}, {"current_trial": 38, "trialdata": {"rt": -1, "trial_type": "single-stim", "word": "fox", "stimulus": "<p id=\"stim\">FOX</p>", "conditions": [18, 1200, "v", 18000], "internal_node_id": "0.0-29.0", "trial": 0, "time_elapsed": 150407, "serialpos": 17, "key_press": -1, "wordID": 597, "type": "PRES_VIS", "trial_index": 38}, "uniqueid": "MTK2191:3CFJTT4SXUXT5A2CYN9JHEUO0P47I3", "dateTime": 1516823865913}, {"current_trial": 39, "trialdata": {"rt": -1, "trial_type": "single-stim", "stimulus": "", "internal_node_id": "0.0-30.0-0.0", "time_elapsed": 152689, "key_press": -1, "type": "PRE_RECALL_DELAY", "trial_index": 39}, "uniqueid": "MTK2191:3CFJTT4SXUXT5A2CYN9JHEUO0P47I3", "dateTime": 1516823868195}, {"current_trial": 40, "trialdata": {"rt": -1000, "trial_type": "single-audio", "stimulus": "/static/audio/400Hz.wav", "internal_node_id": "0.0-31.0", "time_elapsed": 153193, "key_press": -1, "type": "PRE_RECALL_ALERT", "trial_index": 40}, "uniqueid": "MTK2191:3CFJTT4SXUXT5A2CYN9JHEUO0P47I3", "dateTime": 1516823868699}, {"current_trial": 41, "trialdata": {"rt": [3959, 6064, 7855], "recwords": ["shoulder", "europe", "airplane"], "key_times": [2578, 2756, 2865, 2987, 3137, 3191, 3391, 3506, 3959, 5108, 5308, 5530, 5627, 5819, 5923, 6064, 6475, 6717, 6887, 7020, 7204, 7315, 7539, 7702, 7855], "trial_type": "free-recall", "conditions": [18, 1200, "v", 18000], "internal_node_id": "0.0-32.0-0.0", "key_presses": [83, 72, 79, 85, 76, 68, 69, 82, 13, 69, 85, 82, 79, 80, 69, 13, 65, 73, 82, 80, 76, 65, 78, 69, 13], "trial": 0, "time_elapsed": 213196, "type": "FREE_RECALL", "trial_index": 41}, "uniqueid": "MTK2191:3CFJTT4SXUXT5A2CYN9JHEUO0P47I3", "dateTime": 1516823928704}, {"current_trial": 42, "trialdata": {"rt": 1391, "trial_type": "text", "internal_node_id": "0.0-33.0", "time_elapsed": 216591, "key_press": 66, "type": "INSTRUCTIONS", "trial_index": 42}, "uniqueid": "MTK2191:3CFJTT4SXUXT5A2CYN9JHEUO0P47I3", "dateTime": 1516823932097}, {"current_trial": 43, "trialdata": {"rt": [1893, 5009, 9526, 15908], "trial_type": "math-distractor", "key_times": [1637, 1893, 4631, 4784, 5009, 9123, 9268, 9526, 15416, 15692, 15908], "responses": ["8", "11", "13", "27"], "num2": [1, 1, 7, 9, 1], "num3": [2, 6, 2, 8, 4], "conditions": [18, 1200, "v", 18000], "internal_node_id": "0.0-34.0", "key_presses": [104, 13, 97, 97, 13, 97, 99, 13, 98, 103, 13], "trial": 1, "time_elapsed": 236596, "type": "DISTRACTOR", "trial_index": 43, "num1": [5, 4, 4, 8, 5]}, "uniqueid": "MTK2191:3CFJTT4SXUXT5A2CYN9JHEUO0P47I3", "dateTime": 1516823952102}, {"current_trial": 44, "trialdata": {"rt": -1, "trial_type": "single-stim", "stimulus": "<p id=\"stim\">10</p>", "internal_node_id": "0.0-35.0-0.0", "time_elapsed": 239599, "key_press": -1, "trial_index": 44}, "uniqueid": "MTK2191:3CFJTT4SXUXT5A2CYN9JHEUO0P47I3", "dateTime": 1516823955105}, {"current_trial": 45, "trialdata": {"rt": -1, "trial_type": "single-stim", "stimulus": "<p id=\"stim\">9</p>", "internal_node_id": "0.0-35.0-1.0", "time_elapsed": 240601, "key_press": -1, "trial_index": 45}, "uniqueid": "MTK2191:3CFJTT4SXUXT5A2CYN9JHEUO0P47I3", "dateTime": 1516823956108}, {"current_trial": 46, "trialdata": {"rt": -1, "trial_type": "single-stim", "stimulus": "<p id=\"stim\">8</p>", "internal_node_id": "0.0-35.0-2.0", "time_elapsed": 241604, "key_press": -1, "trial_index": 46}, "uniqueid": "MTK2191:3CFJTT4SXUXT5A2CYN9JHEUO0P47I3", "dateTime": 1516823957110}, {"current_trial": 47, "trialdata": {"rt": -1, "trial_type": "single-stim", "stimulus": "<p id=\"stim\">7</p>", "internal_node_id": "0.0-35.0-3.0", "time_elapsed": 242605, "key_press": -1, "trial_index": 47}, "uniqueid": "MTK2191:3CFJTT4SXUXT5A2CYN9JHEUO0P47I3", "dateTime": 1516823958112}, {"current_trial": 48, "trialdata": {"rt": -1, "trial_type": "single-stim", "stimulus": "<p id=\"stim\">6</p>", "internal_node_id": "0.0-35.0-4.0", "time_elapsed": 243608, "key_press": -1, "trial_index": 48}, "uniqueid": "MTK2191:3CFJTT4SXUXT5A2CYN9JHEUO0P47I3", "dateTime": 1516823959114}, {"current_trial": 49, "trialdata": {"rt": -1, "trial_type": "single-stim", "stimulus": "<p id=\"stim\">5</p>", "internal_node_id": "0.0-35.0-5.0", "time_elapsed": 244609, "key_press": -1, "trial_index": 49}, "uniqueid": "MTK2191:3CFJTT4SXUXT5A2CYN9JHEUO0P47I3", "dateTime": 1516823960116}, {"current_trial": 50, "trialdata": {"rt": -1, "trial_type": "single-stim", "stimulus": "<p id=\"stim\">4</p>", "internal_node_id": "0.0-35.0-6.0", "time_elapsed": 245611, "key_press": -1, "trial_index": 50}, "uniqueid": "MTK2191:3CFJTT4SXUXT5A2CYN9JHEUO0P47I3", "dateTime": 1516823961118}, {"current_trial": 51, "trialdata": {"rt": -1, "trial_type": "single-stim", "stimulus": "<p id=\"stim\">3</p>", "internal_node_id": "0.0-35.0-7.0", "time_elapsed": 246615, "key_press": -1, "trial_index": 51}, "uniqueid": "MTK2191:3CFJTT4SXUXT5A2CYN9JHEUO0P47I3", "dateTime": 1516823962121}, {"current_trial": 52, "trialdata": {"rt": -1, "trial_type": "single-stim", "stimulus": "<p id=\"stim\">2</p>", "internal_node_id": "0.0-35.0-8.0", "time_elapsed": 247616, "key_press": -1, "trial_index": 52}, "uniqueid": "MTK2191:3CFJTT4SXUXT5A2CYN9JHEUO0P47I3", "dateTime": 1516823963122}, {"current_trial": 53, "trialdata": {"rt": -1, "trial_type": "single-stim", "stimulus": "<p id=\"stim\">1</p>", "internal_node_id": "0.0-35.0-9.0", "time_elapsed": 248618, "key_press": -1, "trial_index": 53}, "uniqueid": "MTK2191:3CFJTT4SXUXT5A2CYN9JHEUO0P47I3", "dateTime": 1516823964125}, {"current_trial": 54, "trialdata": {"rt": -1, "trial_type": "single-stim", "stimulus": "<p id=\"stim\">+</p>", "internal_node_id": "0.0-36.0-0.0", "time_elapsed": 250122, "key_press": -1, "type": "FIXATION", "trial_index": 54}, "uniqueid": "MTK2191:3CFJTT4SXUXT5A2CYN9JHEUO0P47I3", "dateTime": 1516823965628}, {"current_trial": 55, "trialdata": {"rt": -1, "trial_type": "single-stim", "word": "leopard", "stimulus": "<p id=\"stim\">LEOPARD</p>", "conditions": [18, 1200, "v", 18000], "internal_node_id": "0.0-37.0", "trial": 1, "time_elapsed": 251324, "serialpos": 0, "key_press": -1, "wordID": 811, "type": "PRES_VIS", "trial_index": 55}, "uniqueid": "MTK2191:3CFJTT4SXUXT5A2CYN9JHEUO0P47I3", "dateTime": 1516823966830}, {"current_trial": 56, "trialdata": {"rt": -1, "trial_type": "single-stim", "word": "clam", "stimulus": "<p id=\"stim\">CLAM</p>", "conditions": [18, 1200, "v", 18000], "internal_node_id": "0.0-38.0", "trial": 1, "time_elapsed": 253651, "serialpos": 1, "key_press": -1, "wordID": 314, "type": "PRES_VIS", "trial_index": 56}, "uniqueid": "MTK2191:3CFJTT4SXUXT5A2CYN9JHEUO0P47I3", "dateTime": 1516823969157}, {"current_trial": 57, "trialdata": {"rt": -1, "trial_type": "single-stim", "word": "virus", "stimulus": "<p id=\"stim\">VIRUS</p>", "conditions": [18, 1200, "v", 18000], "internal_node_id": "0.0-39.0", "trial": 1, "time_elapsed": 255663, "serialpos": 2, "key_press": -1, "wordID": 1571, "type": "PRES_VIS", "trial_index": 57}, "uniqueid": "MTK2191:3CFJTT4SXUXT5A2CYN9JHEUO0P47I3", "dateTime": 1516823971169}, {"current_trial": 58, "trialdata": {"rt": -1, "trial_type": "single-stim", "word": "captive", "stimulus": "<p id=\"stim\">CAPTIVE</p>", "conditions": [18, 1200, "v", 18000], "internal_node_id": "0.0-40.0", "trial": 1, "time_elapsed": 257960, "serialpos": 3, "key_press": -1, "wordID": 239, "type": "PRES_VIS", "trial_index": 58}, "uniqueid": "MTK2191:3CFJTT4SXUXT5A2CYN9JHEUO0P47I3", "dateTime": 1516823973467}, {"current_trial": 59, "trialdata": {"rt": -1, "trial_type": "single-stim", "word": "novel", "stimulus": "<p id=\"stim\">NOVEL</p>", "conditions": [18, 1200, "v", 18000], "internal_node_id": "0.0-41.0", "trial": 1, "time_elapsed": 260147, "serialpos": 4, "key_press": -1, "wordID": 959, "type": "PRES_VIS", "trial_index": 59}, "uniqueid": "MTK2191:3CFJTT4SXUXT5A2CYN9JHEUO0P47I3", "dateTime": 1516823975653}, {"current_trial": 60, "trialdata": {"rt": -1, "trial_type": "single-stim", "word": "dress", "stimulus": "<p id=\"stim\">DRESS</p>", "conditions": [18, 1200, "v", 18000], "internal_node_id": "0.0-42.0", "trial": 1, "time_elapsed": 262486, "serialpos": 5, "key_press": -1, "wordID": 494, "type": "PRES_VIS", "trial_index": 60}, "uniqueid": "MTK2191:3CFJTT4SXUXT5A2CYN9JHEUO0P47I3", "dateTime": 1516823977992}, {"current_trial": 61, "trialdata": {"rt": -1, "trial_type": "single-stim", "word": "wrist", "stimulus": "<p id=\"stim\">WRIST</p>", "conditions": [18, 1200, "v", 18000], "internal_node_id": "0.0-43.0", "trial": 1, "time_elapsed": 264806, "serialpos": 6, "key_press": -1, "wordID": 1625, "type": "PRES_VIS", "trial_index": 61}, "uniqueid": "MTK2191:3CFJTT4SXUXT5A2CYN9JHEUO0P47I3", "dateTime": 1516823980312}, {"current_trial": 62, "trialdata": {"rt": -1, "trial_type": "single-stim", "word": "tractor", "stimulus": "<p id=\"stim\">TRACTOR</p>", "conditions": [18, 1200, "v", 18000], "internal_node_id": "0.0-44.0", "trial": 1, "time_elapsed": 267112, "serialpos": 7, "key_press": -1, "wordID": 1492, "type": "PRES_VIS", "trial_index": 62}, "uniqueid": "MTK2191:3CFJTT4SXUXT5A2CYN9JHEUO0P47I3", "dateTime": 1516823982619}, {"current_trial": 63, "trialdata": {"rt": -1, "trial_type": "single-stim", "word": "harp", "stimulus": "<p id=\"stim\">HARP</p>", "conditions": [18, 1200, "v", 18000], "internal_node_id": "0.0-45.0", "trial": 1, "time_elapsed": 269123, "serialpos": 8, "key_press": -1, "wordID": 688, "type": "PRES_VIS", "trial_index": 63}, "uniqueid": "MTK2191:3CFJTT4SXUXT5A2CYN9JHEUO0P47I3", "dateTime": 1516823984630}, {"current_trial": 64, "trialdata": {"rt": -1, "trial_type": "single-stim", "word": "scissors", "stimulus": "<p id=\"stim\">SCISSORS</p>", "conditions": [18, 1200, "v", 18000], "internal_node_id": "0.0-46.0", "trial": 1, "time_elapsed": 271417, "serialpos": 9, "key_press": -1, "wordID": 1249, "type": "PRES_VIS", "trial_index": 64}, "uniqueid": "MTK2191:3CFJTT4SXUXT5A2CYN9JHEUO0P47I3", "dateTime": 1516823986923}, {"current_trial": 65, "trialdata": {"rt": -1, "trial_type": "single-stim", "word": "twister", "stimulus": "<p id=\"stim\">TWISTER</p>", "conditions": [18, 1200, "v", 18000], "internal_node_id": "0.0-47.0", "trial": 1, "time_elapsed": 273538, "serialpos": 10, "key_press": -1, "wordID": 1529, "type": "PRES_VIS", "trial_index": 65}, "uniqueid": "MTK2191:3CFJTT4SXUXT5A2CYN9JHEUO0P47I3", "dateTime": 1516823989044}, {"current_trial": 66, "trialdata": {"rt": -1, "trial_type": "single-stim", "word": "slide", "stimulus": "<p id=\"stim\">SLIDE</p>", "conditions": [18, 1200, "v", 18000], "internal_node_id": "0.0-48.0", "trial": 1, "time_elapsed": 275792, "serialpos": 11, "key_press": -1, "wordID": 1325, "type": "PRES_VIS", "trial_index": 66}, "uniqueid": "MTK2191:3CFJTT4SXUXT5A2CYN9JHEUO0P47I3", "dateTime": 1516823991299}, {"current_trial": 67, "trialdata": {"rt": -1, "trial_type": "single-stim", "word": "bank", "stimulus": "<p id=\"stim\">BANK</p>", "conditions": [18, 1200, "v", 18000], "internal_node_id": "0.0-49.0", "trial": 1, "time_elapsed": 278146, "serialpos": 12, "key_press": -1, "wordID": 82, "type": "PRES_VIS", "trial_index": 67}, "uniqueid": "MTK2191:3CFJTT4SXUXT5A2CYN9JHEUO0P47I3", "dateTime": 1516823993652}, {"current_trial": 68, "trialdata": {"rt": -1, "trial_type": "single-stim", "word": "sister", "stimulus": "<p id=\"stim\">SISTER</p>", "conditions": [18, 1200, "v", 18000], "internal_node_id": "0.0-50.0", "trial": 1, "time_elapsed": 280527, "serialpos": 13, "key_press": -1, "wordID": 1311, "type": "PRES_VIS", "trial_index": 68}, "uniqueid": "MTK2191:3CFJTT4SXUXT5A2CYN9JHEUO0P47I3", "dateTime": 1516823996038}, {"current_trial": 69, "trialdata": {"rt": -1, "trial_type": "single-stim", "word": "blade", "stimulus": "<p id=\"stim\">BLADE</p>", "conditions": [18, 1200, "v", 18000], "internal_node_id": "0.0-51.0", "trial": 1, "time_elapsed": 282869, "serialpos": 14, "key_press": -1, "wordID": 133, "type": "PRES_VIS", "trial_index": 69}, "uniqueid": "MTK2191:3CFJTT4SXUXT5A2CYN9JHEUO0P47I3", "dateTime": 1516823998375}, {"current_trial": 70, "trialdata": {"rt": -1, "trial_type": "single-stim", "word": "swimmer", "stimulus": "<p id=\"stim\">SWIMMER</p>", "conditions": [18, 1200, "v", 18000], "internal_node_id": "0.0-52.0", "trial": 1, "time_elapsed": 284938, "serialpos": 15, "key_press": -1, "wordID": 1419, "type": "PRES_VIS", "trial_index": 70}, "uniqueid": "MTK2191:3CFJTT4SXUXT5A2CYN9JHEUO0P47I3", "dateTime": 1516824000444}, {"current_trial": 71, "trialdata": {"rt": -1, "trial_type": "single-stim", "word": "soda", "stimulus": "<p id=\"stim\">SODA</p>", "conditions": [18, 1200, "v", 18000], "internal_node_id": "0.0-53.0", "trial": 1, "time_elapsed": 287151, "serialpos": 16, "key_press": -1, "wordID": 1340, "type": "PRES_VIS", "trial_index": 71}, "uniqueid": "MTK2191:3CFJTT4SXUXT5A2CYN9JHEUO0P47I3", "dateTime": 1516824002658}, {"current_trial": 72, "trialdata": {"rt": -1, "trial_type": "single-stim", "word": "husband", "stimulus": "<p id=\"stim\">HUSBAND</p>", "conditions": [18, 1200, "v", 18000], "internal_node_id": "0.0-54.0", "trial": 1, "time_elapsed": 289308, "serialpos": 17, "key_press": -1, "wordID": 727, "type": "PRES_VIS", "trial_index": 72}, "uniqueid": "MTK2191:3CFJTT4SXUXT5A2CYN9JHEUO0P47I3", "dateTime": 1516824004814}, {"current_trial": 73, "trialdata": {"rt": -1, "trial_type": "single-stim", "stimulus": "", "internal_node_id": "0.0-55.0-0.0", "time_elapsed": 291724, "key_press": -1, "type": "PRE_RECALL_DELAY", "trial_index": 73}, "uniqueid": "MTK2191:3CFJTT4SXUXT5A2CYN9JHEUO0P47I3", "dateTime": 1516824007230}, {"current_trial": 74, "trialdata": {"rt": -1000, "trial_type": "single-audio", "stimulus": "/static/audio/400Hz.wav", "internal_node_id": "0.0-56.0", "time_elapsed": 292226, "key_press": -1, "type": "PRE_RECALL_ALERT", "trial_index": 74}, "uniqueid": "MTK2191:3CFJTT4SXUXT5A2CYN9JHEUO0P47I3", "dateTime": 1516824007732}, {"current_trial": 75, "trialdata": {"rt": [4024, 6352, 26657], "recwords": ["clam", "virus", "scrapper"], "key_times": [2484, 2730, 3089, 3655, 4024, 4637, 4921, 5242, 5565, 5883, 6352, 23542, 23803, 24075, 24303, 24683, 24852, 25744, 25882, 26657], "trial_type": "free-recall", "conditions": [18, 1200, "v", 18000], "internal_node_id": "0.0-57.0-0.0", "key_presses": [67, 76, 65, 77, 13, 86, 73, 82, 85, 83, 13, 83, 67, 82, 65, 80, 80, 69, 82, 13], "trial": 1, "time_elapsed": 352230, "type": "FREE_RECALL", "trial_index": 75}, "uniqueid": "MTK2191:3CFJTT4SXUXT5A2CYN9JHEUO0P47I3", "dateTime": 1516824067740}, {"current_trial": 76, "trialdata": {"rt": 3225, "trial_type": "text", "internal_node_id": "0.0-58.0", "time_elapsed": 357460, "key_press": 32, "type": "INSTRUCTIONS", "trial_index": 76}, "uniqueid": "MTK2191:3CFJTT4SXUXT5A2CYN9JHEUO0P47I3", "dateTime": 1516824072967}, {"current_trial": 77, "trialdata": {"rt": [6398, 8150, 10691, 12328, 16503, 18479, 21973], "trial_type": "math-distractor", "key_times": [6033, 6149, 6398, 7944, 8150, 10335, 10505, 10691, 12096, 12328, 16084, 16262, 16503, 17813, 18023, 18479, 21636, 21718, 21973], "responses": ["21", "7", "11", "9", "18", "10", "12"], "num2": [8, 1, 2, 4, 2, 1, 5, 5], "num3": [6, 2, 7, 1, 9, 1, 6, 1], "conditions": [12, 800, "v", 24000], "internal_node_id": "0.0-59.0", "key_presses": [98, 97, 13, 103, 13, 97, 97, 13, 105, 13, 97, 104, 13, 97, 96, 13, 97, 98, 13], "trial": 2, "time_elapsed": 382465, "type": "DISTRACTOR", "trial_index": 77, "num1": [7, 4, 2, 4, 7, 8, 1, 7]}, "uniqueid": "MTK2191:3CFJTT4SXUXT5A2CYN9JHEUO0P47I3", "dateTime": 1516824097971}, {"current_trial": 78, "trialdata": {"rt": -1, "trial_type": "single-stim", "stimulus": "<p id=\"stim\">10</p>", "internal_node_id": "0.0-60.0-0.0", "time_elapsed": 385468, "key_press": -1, "trial_index": 78}, "uniqueid": "MTK2191:3CFJTT4SXUXT5A2CYN9JHEUO0P47I3", "dateTime": 1516824100974}, {"current_trial": 79, "trialdata": {"rt": -1, "trial_type": "single-stim", "stimulus": "<p id=\"stim\">9</p>", "internal_node_id": "0.0-60.0-1.0", "time_elapsed": 386469, "key_press": -1, "trial_index": 79}, "uniqueid": "MTK2191:3CFJTT4SXUXT5A2CYN9JHEUO0P47I3", "dateTime": 1516824101975}, {"current_trial": 80, "trialdata": {"rt": -1, "trial_type": "single-stim", "stimulus": "<p id=\"stim\">8</p>", "internal_node_id": "0.0-60.0-2.0", "time_elapsed": 387471, "key_press": -1, "trial_index": 80}, "uniqueid": "MTK2191:3CFJTT4SXUXT5A2CYN9JHEUO0P47I3", "dateTime": 1516824102977}, {"current_trial": 81, "trialdata": {"rt": -1, "trial_type": "single-stim", "stimulus": "<p id=\"stim\">7</p>", "internal_node_id": "0.0-60.0-3.0", "time_elapsed": 388472, "key_press": -1, "trial_index": 81}, "uniqueid": "MTK2191:3CFJTT4SXUXT5A2CYN9JHEUO0P47I3", "dateTime": 1516824103978}, {"current_trial": 82, "trialdata": {"rt": -1, "trial_type": "single-stim", "stimulus": "<p id=\"stim\">6</p>", "internal_node_id": "0.0-60.0-4.0", "time_elapsed": 389474, "key_press": -1, "trial_index": 82}, "uniqueid": "MTK2191:3CFJTT4SXUXT5A2CYN9JHEUO0P47I3", "dateTime": 1516824104980}, {"current_trial": 83, "trialdata": {"rt": -1, "trial_type": "single-stim", "stimulus": "<p id=\"stim\">5</p>", "internal_node_id": "0.0-60.0-5.0", "time_elapsed": 390475, "key_press": -1, "trial_index": 83}, "uniqueid": "MTK2191:3CFJTT4SXUXT5A2CYN9JHEUO0P47I3", "dateTime": 1516824105982}, {"current_trial": 84, "trialdata": {"rt": -1, "trial_type": "single-stim", "stimulus": "<p id=\"stim\">4</p>", "internal_node_id": "0.0-60.0-6.0", "time_elapsed": 391477, "key_press": -1, "trial_index": 84}, "uniqueid": "MTK2191:3CFJTT4SXUXT5A2CYN9JHEUO0P47I3", "dateTime": 1516824106983}, {"current_trial": 85, "trialdata": {"rt": -1, "trial_type": "single-stim", "stimulus": "<p id=\"stim\">3</p>", "internal_node_id": "0.0-60.0-7.0", "time_elapsed": 392479, "key_press": -1, "trial_index": 85}, "uniqueid": "MTK2191:3CFJTT4SXUXT5A2CYN9JHEUO0P47I3", "dateTime": 1516824107985}, {"current_trial": 86, "trialdata": {"rt": -1, "trial_type": "single-stim", "stimulus": "<p id=\"stim\">2</p>", "internal_node_id": "0.0-60.0-8.0", "time_elapsed": 393481, "key_press": -1, "trial_index": 86}, "uniqueid": "MTK2191:3CFJTT4SXUXT5A2CYN9JHEUO0P47I3", "dateTime": 1516824108988}, {"current_trial": 87, "trialdata": {"rt": -1, "trial_type": "single-stim", "stimulus": "<p id=\"stim\">1</p>", "internal_node_id": "0.0-60.0-9.0", "time_elapsed": 394483, "key_press": -1, "trial_index": 87}, "uniqueid": "MTK2191:3CFJTT4SXUXT5A2CYN9JHEUO0P47I3", "dateTime": 1516824109989}, {"current_trial": 88, "trialdata": {"rt": -1, "trial_type": "single-stim", "stimulus": "<p id=\"stim\">+</p>", "internal_node_id": "0.0-61.0-0.0", "time_elapsed": 395984, "key_press": -1, "type": "FIXATION", "trial_index": 88}, "uniqueid": "MTK2191:3CFJTT4SXUXT5A2CYN9JHEUO0P47I3", "dateTime": 1516824111490}, {"current_trial": 89, "trialdata": {"rt": -1, "trial_type": "single-stim", "word": "student", "stimulus": "<p id=\"stim\">STUDENT</p>", "conditions": [12, 800, "v", 24000], "internal_node_id": "0.0-62.0", "trial": 2, "time_elapsed": 396786, "serialpos": 0, "key_press": -1, "wordID": 1394, "type": "PRES_VIS", "trial_index": 89}, "uniqueid": "MTK2191:3CFJTT4SXUXT5A2CYN9JHEUO0P47I3", "dateTime": 1516824112292}, {"current_trial": 90, "trialdata": {"rt": -1, "trial_type": "single-stim", "word": "world", "stimulus": "<p id=\"stim\">WORLD</p>", "conditions": [12, 800, "v", 24000], "internal_node_id": "0.0-63.0", "trial": 2, "time_elapsed": 398450, "serialpos": 1, "key_press": -1, "wordID": 1621, "type": "PRES_VIS", "trial_index": 90}, "uniqueid": "MTK2191:3CFJTT4SXUXT5A2CYN9JHEUO0P47I3", "dateTime": 1516824113956}, {"current_trial": 91, "trialdata": {"rt": -1, "trial_type": "single-stim", "word": "candy", "stimulus": "<p id=\"stim\">CANDY</p>", "conditions": [12, 800, "v", 24000], "internal_node_id": "0.0-64.0", "trial": 2, "time_elapsed": 400138, "serialpos": 2, "key_press": -1, "wordID": 229, "type": "PRES_VIS", "trial_index": 91}, "uniqueid": "MTK2191:3CFJTT4SXUXT5A2CYN9JHEUO0P47I3", "dateTime": 1516824115644}, {"current_trial": 92, "trialdata": {"rt": -1, "trial_type": "single-stim", "word": "salad", "stimulus": "<p id=\"stim\">SALAD</p>", "conditions": [12, 800, "v", 24000], "internal_node_id": "0.0-65.0", "trial": 2, "time_elapsed": 402029, "serialpos": 3, "key_press": -1, "wordID": 1223, "type": "PRES_VIS", "trial_index": 92}, "uniqueid": "MTK2191:3CFJTT4SXUXT5A2CYN9JHEUO0P47I3", "dateTime": 1516824117536}, {"current_trial": 93, "trialdata": {"rt": -1, "trial_type": "single-stim", "word": "champagne", "stimulus": "<p id=\"stim\">CHAMPAGNE</p>", "conditions": [12, 800, "v", 24000], "internal_node_id": "0.0-66.0", "trial": 2, "time_elapsed": 403746, "serialpos": 4, "key_press": -1, "wordID": 277, "type": "PRES_VIS", "trial_index": 93}, "uniqueid": "MTK2191:3CFJTT4SXUXT5A2CYN9JHEUO0P47I3", "dateTime": 1516824119252}, {"current_trial": 94, "trialdata": {"rt": -1, "trial_type": "single-stim", "word": "survey", "stimulus": "<p id=\"stim\">SURVEY</p>", "conditions": [12, 800, "v", 24000], "internal_node_id": "0.0-67.0", "trial": 2, "time_elapsed": 405643, "serialpos": 5, "key_press": -1, "wordID": 1413, "type": "PRES_VIS", "trial_index": 94}, "uniqueid": "MTK2191:3CFJTT4SXUXT5A2CYN9JHEUO0P47I3", "dateTime": 1516824121149}, {"current_trial": 95, "trialdata": {"rt": -1, "trial_type": "single-stim", "word": "report", "stimulus": "<p id=\"stim\">REPORT</p>", "conditions": [12, 800, "v", 24000], "internal_node_id": "0.0-68.0", "trial": 2, "time_elapsed": 407246, "serialpos": 6, "key_press": -1, "wordID": 1183, "type": "PRES_VIS", "trial_index": 95}, "uniqueid": "MTK2191:3CFJTT4SXUXT5A2CYN9JHEUO0P47I3", "dateTime": 1516824122752}, {"current_trial": 96, "trialdata": {"rt": -1, "trial_type": "single-stim", "word": "omelet", "stimulus": "<p id=\"stim\">OMELET</p>", "conditions": [12, 800, "v", 24000], "internal_node_id": "0.0-69.0", "trial": 2, "time_elapsed": 408957, "serialpos": 7, "key_press": -1, "wordID": 975, "type": "PRES_VIS", "trial_index": 96}, "uniqueid": "MTK2191:3CFJTT4SXUXT5A2CYN9JHEUO0P47I3", "dateTime": 1516824124463}, {"current_trial": 97, "trialdata": {"rt": -1, "trial_type": "single-stim", "word": "coin", "stimulus": "<p id=\"stim\">COIN</p>", "conditions": [12, 800, "v", 24000], "internal_node_id": "0.0-70.0", "trial": 2, "time_elapsed": 410707, "serialpos": 8, "key_press": -1, "wordID": 342, "type": "PRES_VIS", "trial_index": 97}, "uniqueid": "MTK2191:3CFJTT4SXUXT5A2CYN9JHEUO0P47I3", "dateTime": 1516824126213}, {"current_trial": 98, "trialdata": {"rt": -1, "trial_type": "single-stim", "word": "backbone", "stimulus": "<p id=\"stim\">BACKBONE</p>", "conditions": [12, 800, "v", 24000], "internal_node_id": "0.0-71.0", "trial": 2, "time_elapsed": 412435, "serialpos": 9, "key_press": -1, "wordID": 65, "type": "PRES_VIS", "trial_index": 98}, "uniqueid": "MTK2191:3CFJTT4SXUXT5A2CYN9JHEUO0P47I3", "dateTime": 1516824127941}, {"current_trial": 99, "trialdata": {"rt": -1, "trial_type": "single-stim", "word": "crutch", "stimulus": "<p id=\"stim\">CRUTCH</p>", "conditions": [12, 800, "v", 24000], "internal_node_id": "0.0-72.0", "trial": 2, "time_elapsed": 414116, "serialpos": 10, "key_press": -1, "wordID": 416, "type": "PRES_VIS", "trial_index": 99}, "uniqueid": "MTK2191:3CFJTT4SXUXT5A2CYN9JHEUO0P47I3", "dateTime": 1516824129622}, {"current_trial": 100, "trialdata": {"rt": -1, "trial_type": "single-stim", "word": "cousin", "stimulus": "<p id=\"stim\">COUSIN</p>", "conditions": [12, 800, "v", 24000], "internal_node_id": "0.0-73.0", "trial": 2, "time_elapsed": 415808, "serialpos": 11, "key_press": -1, "wordID": 391, "type": "PRES_VIS", "trial_index": 100}, "uniqueid": "MTK2191:3CFJTT4SXUXT5A2CYN9JHEUO0P47I3", "dateTime": 1516824131314}, {"current_trial": 101, "trialdata": {"rt": -1, "trial_type": "single-stim", "stimulus": "", "internal_node_id": "0.0-74.0-0.0", "time_elapsed": 418247, "key_press": -1, "type": "PRE_RECALL_DELAY", "trial_index": 101}, "uniqueid": "MTK2191:3CFJTT4SXUXT5A2CYN9JHEUO0P47I3", "dateTime": 1516824133753}, {"current_trial": 102, "trialdata": {"rt": -1000, "trial_type": "single-audio", "stimulus": "/static/audio/400Hz.wav", "internal_node_id": "0.0-75.0", "time_elapsed": 418749, "key_press": -1, "type": "PRE_RECALL_ALERT", "trial_index": 102}, "uniqueid": "MTK2191:3CFJTT4SXUXT5A2CYN9JHEUO0P47I3", "dateTime": 1516824134256}, {"current_trial": 103, "trialdata": {"rt": [3306, 4815, 6096, 7088, 7897, 11232, 12398], "recwords": ["student", "candy", "champagne", "report", "coin", "backbone", "cousin"], "key_times": [2013, 2284, 2441, 2526, 2710, 2789, 3052, 3306, 4143, 4252, 4370, 4518, 4640, 4815, 4963, 5091, 5186, 5335, 5463, 5575, 5683, 5836, 5962, 6096, 6334, 6435, 6574, 6741, 6827, 6984, 7088, 7315, 7460, 7572, 7693, 7897, 9400, 9463, 9730, 9916, 10274, 10377, 10488, 10620, 11232, 11632, 11837, 11953, 12064, 12141, 12239, 12398], "trial_type": "free-recall", "conditions": [12, 800, "v", 24000], "internal_node_id": "0.0-76.0-0.0", "key_presses": [83, 84, 85, 68, 69, 78, 84, 13, 67, 65, 78, 68, 89, 13, 67, 72, 65, 77, 80, 65, 71, 78, 69, 13, 82, 69, 80, 79, 82, 84, 13, 67, 79, 73, 78, 13, 66, 65, 67, 75, 66, 79, 78, 69, 13, 67, 79, 85, 83, 73, 78, 13], "trial": 2, "time_elapsed": 478753, "type": "FREE_RECALL", "trial_index": 103}, "uniqueid": "MTK2191:3CFJTT4SXUXT5A2CYN9JHEUO0P47I3", "dateTime": 1516824194263}, {"current_trial": 104, "trialdata": {"rt": 697, "trial_type": "text", "internal_node_id": "0.0-77.0", "time_elapsed": 481455, "key_press": 32, "type": "INSTRUCTIONS", "trial_index": 104}, "uniqueid": "MTK2191:3CFJTT4SXUXT5A2CYN9JHEUO0P47I3", "dateTime": 1516824196962}, {"current_trial": 105, "trialdata": {"rt": [4132, 11402, 15862, 19622], "trial_type": "math-distractor", "key_times": [3767, 3864, 4132, 9597, 9734, 10376, 10491, 11065, 11147, 11402, 15427, 15617, 15862, 19158, 19354, 19622], "responses": ["15", "23", "19", "18"], "num2": [1, 7, 4, 6, 9], "num3": [7, 7, 9, 6, 8], "conditions": [12, 1600, "v", 24000], "internal_node_id": "0.0-78.0", "key_presses": [97, 101, 13, 97, 99, 8, 8, 98, 99, 13, 97, 105, 13, 97, 104, 13], "trial": 3, "time_elapsed": 507459, "type": "DISTRACTOR", "trial_index": 105, "num1": [7, 9, 8, 6, 3]}, "uniqueid": "MTK2191:3CFJTT4SXUXT5A2CYN9JHEUO0P47I3", "dateTime": 1516824222966}, {"current_trial": 106, "trialdata": {"rt": -1, "trial_type": "single-stim", "stimulus": "<p id=\"stim\">10</p>", "internal_node_id": "0.0-79.0-0.0", "time_elapsed": 510462, "key_press": -1, "trial_index": 106}, "uniqueid": "MTK2191:3CFJTT4SXUXT5A2CYN9JHEUO0P47I3", "dateTime": 1516824225968}, {"current_trial": 107, "trialdata": {"rt": -1, "trial_type": "single-stim", "stimulus": "<p id=\"stim\">9</p>", "internal_node_id": "0.0-79.0-1.0", "time_elapsed": 511464, "key_press": -1, "trial_index": 107}, "uniqueid": "MTK2191:3CFJTT4SXUXT5A2CYN9JHEUO0P47I3", "dateTime": 1516824226970}, {"current_trial": 108, "trialdata": {"rt": -1, "trial_type": "single-stim", "stimulus": "<p id=\"stim\">8</p>", "internal_node_id": "0.0-79.0-2.0", "time_elapsed": 512466, "key_press": -1, "trial_index": 108}, "uniqueid": "MTK2191:3CFJTT4SXUXT5A2CYN9JHEUO0P47I3", "dateTime": 1516824227972}, {"current_trial": 109, "trialdata": {"rt": -1, "trial_type": "single-stim", "stimulus": "<p id=\"stim\">7</p>", "internal_node_id": "0.0-79.0-3.0", "time_elapsed": 513467, "key_press": -1, "trial_index": 109}, "uniqueid": "MTK2191:3CFJTT4SXUXT5A2CYN9JHEUO0P47I3", "dateTime": 1516824228973}, {"current_trial": 110, "trialdata": {"rt": -1, "trial_type": "single-stim", "stimulus": "<p id=\"stim\">6</p>", "internal_node_id": "0.0-79.0-4.0", "time_elapsed": 514469, "key_press": -1, "trial_index": 110}, "uniqueid": "MTK2191:3CFJTT4SXUXT5A2CYN9JHEUO0P47I3", "dateTime": 1516824229975}, {"current_trial": 111, "trialdata": {"rt": -1, "trial_type": "single-stim", "stimulus": "<p id=\"stim\">5</p>", "internal_node_id": "0.0-79.0-5.0", "time_elapsed": 515470, "key_press": -1, "trial_index": 111}, "uniqueid": "MTK2191:3CFJTT4SXUXT5A2CYN9JHEUO0P47I3", "dateTime": 1516824230977}, {"current_trial": 112, "trialdata": {"rt": -1, "trial_type": "single-stim", "stimulus": "<p id=\"stim\">4</p>", "internal_node_id": "0.0-79.0-6.0", "time_elapsed": 516472, "key_press": -1, "trial_index": 112}, "uniqueid": "MTK2191:3CFJTT4SXUXT5A2CYN9JHEUO0P47I3", "dateTime": 1516824231978}, {"current_trial": 113, "trialdata": {"rt": -1, "trial_type": "single-stim", "stimulus": "<p id=\"stim\">3</p>", "internal_node_id": "0.0-79.0-7.0", "time_elapsed": 517475, "key_press": -1, "trial_index": 113}, "uniqueid": "MTK2191:3CFJTT4SXUXT5A2CYN9JHEUO0P47I3", "dateTime": 1516824232981}, {"current_trial": 114, "trialdata": {"rt": -1, "trial_type": "single-stim", "stimulus": "<p id=\"stim\">2</p>", "internal_node_id": "0.0-79.0-8.0", "time_elapsed": 518477, "key_press": -1, "trial_index": 114}, "uniqueid": "MTK2191:3CFJTT4SXUXT5A2CYN9JHEUO0P47I3", "dateTime": 1516824233984}, {"current_trial": 115, "trialdata": {"rt": -1, "trial_type": "single-stim", "stimulus": "<p id=\"stim\">1</p>", "internal_node_id": "0.0-79.0-9.0", "time_elapsed": 519480, "key_press": -1, "trial_index": 115}, "uniqueid": "MTK2191:3CFJTT4SXUXT5A2CYN9JHEUO0P47I3", "dateTime": 1516824234987}, {"current_trial": 116, "trialdata": {"rt": -1, "trial_type": "single-stim", "stimulus": "<p id=\"stim\">+</p>", "internal_node_id": "0.0-80.0-0.0", "time_elapsed": 520983, "key_press": -1, "type": "FIXATION", "trial_index": 116}, "uniqueid": "MTK2191:3CFJTT4SXUXT5A2CYN9JHEUO0P47I3", "dateTime": 1516824236489}, {"current_trial": 117, "trialdata": {"rt": -1, "trial_type": "single-stim", "word": "orchid", "stimulus": "<p id=\"stim\">ORCHID</p>", "conditions": [12, 1600, "v", 24000], "internal_node_id": "0.0-81.0", "trial": 3, "time_elapsed": 522584, "serialpos": 0, "key_press": -1, "wordID": 981, "type": "PRES_VIS", "trial_index": 117}, "uniqueid": "MTK2191:3CFJTT4SXUXT5A2CYN9JHEUO0P47I3", "dateTime": 1516824238090}, {"current_trial": 118, "trialdata": {"rt": -1, "trial_type": "single-stim", "word": "buggy", "stimulus": "<p id=\"stim\">BUGGY</p>", "conditions": [12, 1600, "v", 24000], "internal_node_id": "0.0-82.0", "trial": 3, "time_elapsed": 525188, "serialpos": 1, "key_press": -1, "wordID": 187, "type": "PRES_VIS", "trial_index": 118}, "uniqueid": "MTK2191:3CFJTT4SXUXT5A2CYN9JHEUO0P47I3", "dateTime": 1516824240695}, {"current_trial": 119, "trialdata": {"rt": -1, "trial_type": "single-stim", "word": "outdoors", "stimulus": "<p id=\"stim\">OUTDOORS</p>", "conditions": [12, 1600, "v", 24000], "internal_node_id": "0.0-83.0", "trial": 3, "time_elapsed": 527819, "serialpos": 2, "key_press": -1, "wordID": 986, "type": "PRES_VIS", "trial_index": 119}, "uniqueid": "MTK2191:3CFJTT4SXUXT5A2CYN9JHEUO0P47I3", "dateTime": 1516824243326}, {"current_trial": 120, "trialdata": {"rt": -1, "trial_type": "single-stim", "word": "sculpture", "stimulus": "<p id=\"stim\">SCULPTURE</p>", "conditions": [12, 1600, "v", 24000], "internal_node_id": "0.0-84.0", "trial": 3, "time_elapsed": 530404, "serialpos": 3, "key_press": -1, "wordID": 1257, "type": "PRES_VIS", "trial_index": 120}, "uniqueid": "MTK2191:3CFJTT4SXUXT5A2CYN9JHEUO0P47I3", "dateTime": 1516824245910}, {"current_trial": 121, "trialdata": {"rt": -1, "trial_type": "single-stim", "word": "lizard", "stimulus": "<p id=\"stim\">LIZARD</p>", "conditions": [12, 1600, "v", 24000], "internal_node_id": "0.0-85.0", "trial": 3, "time_elapsed": 533101, "serialpos": 4, "key_press": -1, "wordID": 833, "type": "PRES_VIS", "trial_index": 121}, "uniqueid": "MTK2191:3CFJTT4SXUXT5A2CYN9JHEUO0P47I3", "dateTime": 1516824248607}, {"current_trial": 122, "trialdata": {"rt": -1, "trial_type": "single-stim", "word": "outlaw", "stimulus": "<p id=\"stim\">OUTLAW</p>", "conditions": [12, 1600, "v", 24000], "internal_node_id": "0.0-86.0", "trial": 3, "time_elapsed": 535720, "serialpos": 5, "key_press": -1, "wordID": 988, "type": "PRES_VIS", "trial_index": 122}, "uniqueid": "MTK2191:3CFJTT4SXUXT5A2CYN9JHEUO0P47I3", "dateTime": 1516824251227}, {"current_trial": 123, "trialdata": {"rt": -1, "trial_type": "single-stim", "word": "piston", "stimulus": "<p id=\"stim\">PISTON</p>", "conditions": [12, 1600, "v", 24000], "internal_node_id": "0.0-87.0", "trial": 3, "time_elapsed": 538317, "serialpos": 6, "key_press": -1, "wordID": 1075, "type": "PRES_VIS", "trial_index": 123}, "uniqueid": "MTK2191:3CFJTT4SXUXT5A2CYN9JHEUO0P47I3", "dateTime": 1516824253823}, {"current_trial": 124, "trialdata": {"rt": -1, "trial_type": "single-stim", "word": "clothes", "stimulus": "<p id=\"stim\">CLOTHES</p>", "conditions": [12, 1600, "v", 24000], "internal_node_id": "0.0-88.0", "trial": 3, "time_elapsed": 540807, "serialpos": 7, "key_press": -1, "wordID": 326, "type": "PRES_VIS", "trial_index": 124}, "uniqueid": "MTK2191:3CFJTT4SXUXT5A2CYN9JHEUO0P47I3", "dateTime": 1516824256313}, {"current_trial": 125, "trialdata": {"rt": -1, "trial_type": "single-stim", "word": "chipmunk", "stimulus": "<p id=\"stim\">CHIPMUNK</p>", "conditions": [12, 1600, "v", 24000], "internal_node_id": "0.0-89.0", "trial": 3, "time_elapsed": 543388, "serialpos": 8, "key_press": -1, "wordID": 303, "type": "PRES_VIS", "trial_index": 125}, "uniqueid": "MTK2191:3CFJTT4SXUXT5A2CYN9JHEUO0P47I3", "dateTime": 1516824258894}, {"current_trial": 126, "trialdata": {"rt": -1, "trial_type": "single-stim", "word": "valve", "stimulus": "<p id=\"stim\">VALVE</p>", "conditions": [12, 1600, "v", 24000], "internal_node_id": "0.0-90.0", "trial": 3, "time_elapsed": 546143, "serialpos": 9, "key_press": -1, "wordID": 1545, "type": "PRES_VIS", "trial_index": 126}, "uniqueid": "MTK2191:3CFJTT4SXUXT5A2CYN9JHEUO0P47I3", "dateTime": 1516824261650}, {"current_trial": 127, "trialdata": {"rt": -1, "trial_type": "single-stim", "word": "seafood", "stimulus": "<p id=\"stim\">SEAFOOD</p>", "conditions": [12, 1600, "v", 24000], "internal_node_id": "0.0-91.0", "trial": 3, "time_elapsed": 548684, "serialpos": 10, "key_press": -1, "wordID": 1259, "type": "PRES_VIS", "trial_index": 127}, "uniqueid": "MTK2191:3CFJTT4SXUXT5A2CYN9JHEUO0P47I3", "dateTime": 1516824264190}, {"current_trial": 128, "trialdata": {"rt": -1, "trial_type": "single-stim", "word": "oyster", "stimulus": "<p id=\"stim\">OYSTER</p>", "conditions": [12, 1600, "v", 24000], "internal_node_id": "0.0-92.0", "trial": 3, "time_elapsed": 551409, "serialpos": 11, "key_press": -1, "wordID": 994, "type": "PRES_VIS", "trial_index": 128}, "uniqueid": "MTK2191:3CFJTT4SXUXT5A2CYN9JHEUO0P47I3", "dateTime": 1516824266915}, {"current_trial": 129, "trialdata": {"rt": -1, "trial_type": "single-stim", "stimulus": "", "internal_node_id": "0.0-93.0-0.0", "time_elapsed": 553660, "key_press": -1, "type": "PRE_RECALL_DELAY", "trial_index": 129}, "uniqueid": "MTK2191:3CFJTT4SXUXT5A2CYN9JHEUO0P47I3", "dateTime": 1516824269167}, {"current_trial": 130, "trialdata": {"rt": -1000, "trial_type": "single-audio", "stimulus": "/static/audio/400Hz.wav", "internal_node_id": "0.0-94.0", "time_elapsed": 554162, "key_press": -1, "type": "PRE_RECALL_ALERT", "trial_index": 130}, "uniqueid": "MTK2191:3CFJTT4SXUXT5A2CYN9JHEUO0P47I3", "dateTime": 1516824269668}, {"current_trial": 131, "trialdata": {"rt": [4621, 6838, 8262, 11257, 13059, 14080, 15401, 18013, 19810, 21453, 23062], "recwords": ["orchid", "buggy", "outdoors", "sculpture", "outlaw", "piston", "clothes", "chipmunk", "valve", "seafood", "oyster"], "key_times": [3785, 3884, 4085, 4224, 4318, 4440, 4621, 4956, 5181, 5784, 5947, 6067, 6838, 7221, 7345, 7426, 7625, 7768, 7920, 8000, 8122, 8262, 8820, 9026, 9165, 9871, 10095, 10366, 10481, 10584, 10672, 11257, 12156, 12260, 12412, 12636, 12772, 12927, 13059, 13317, 13481, 13615, 13747, 13834, 13916, 14080, 14247, 14348, 14505, 14644, 14730, 14847, 14945, 15401, 15879, 15942, 16035, 16157, 16426, 16666, 16876, 17005, 17463, 17711, 18013, 18896, 18995, 19180, 19292, 19493, 19810, 20246, 20399, 20489, 20866, 20959, 21106, 21247, 21453, 22204, 22323, 22496, 22628, 22756, 22857, 23062], "trial_type": "free-recall", "conditions": [12, 1600, "v", 24000], "internal_node_id": "0.0-95.0-0.0", "key_presses": [79, 82, 67, 72, 73, 68, 13, 66, 85, 71, 71, 89, 13, 79, 85, 84, 68, 79, 79, 82, 83, 13, 83, 67, 85, 76, 80, 84, 85, 82, 69, 13, 79, 85, 84, 76, 65, 87, 13, 80, 73, 83, 84, 79, 78, 13, 67, 76, 79, 84, 72, 69, 83, 13, 67, 72, 73, 80, 77, 85, 78, 67, 8, 75, 13, 86, 65, 76, 86, 69, 13, 83, 69, 65, 70, 79, 79, 68, 13, 79, 89, 83, 84, 69, 82, 13], "trial": 3, "time_elapsed": 614167, "type": "FREE_RECALL", "trial_index": 131}, "uniqueid": "MTK2191:3CFJTT4SXUXT5A2CYN9JHEUO0P47I3", "dateTime": 1516824329677}, {"current_trial": 132, "trialdata": {"rt": 3057, "trial_type": "text", "internal_node_id": "0.0-96.0", "time_elapsed": 619230, "key_press": 32, "type": "INSTRUCTIONS", "trial_index": 132}, "uniqueid": "MTK2191:3CFJTT4SXUXT5A2CYN9JHEUO0P47I3", "dateTime": 1516824334736}, {"current_trial": 133, "trialdata": {"rt": [3780, 7148, 9603], "trial_type": "math-distractor", "key_times": [3457, 3545, 3780, 6789, 6892, 7148, 9345, 9603], "responses": ["13", "23", "9"], "num2": [6, 5, 1, 4], "num3": [5, 9, 3, 9], "conditions": [12, 1600, "v", 12000], "internal_node_id": "0.0-97.0", "key_presses": [97, 99, 13, 98, 99, 13, 105, 13], "trial": 4, "time_elapsed": 633235, "type": "DISTRACTOR", "trial_index": 133, "num1": [2, 9, 5, 3]}, "uniqueid": "MTK2191:3CFJTT4SXUXT5A2CYN9JHEUO0P47I3", "dateTime": 1516824348741}, {"current_trial": 134, "trialdata": {"rt": -1, "trial_type": "single-stim", "stimulus": "<p id=\"stim\">10</p>", "internal_node_id": "0.0-98.0-0.0", "time_elapsed": 636238, "key_press": -1, "trial_index": 134}, "uniqueid": "MTK2191:3CFJTT4SXUXT5A2CYN9JHEUO0P47I3", "dateTime": 1516824351744}, {"current_trial": 135, "trialdata": {"rt": -1, "trial_type": "single-stim", "stimulus": "<p id=\"stim\">9</p>", "internal_node_id": "0.0-98.0-1.0", "time_elapsed": 637240, "key_press": -1, "trial_index": 135}, "uniqueid": "MTK2191:3CFJTT4SXUXT5A2CYN9JHEUO0P47I3", "dateTime": 1516824352746}, {"current_trial": 136, "trialdata": {"rt": -1, "trial_type": "single-stim", "stimulus": "<p id=\"stim\">8</p>", "internal_node_id": "0.0-98.0-2.0", "time_elapsed": 638241, "key_press": -1, "trial_index": 136}, "uniqueid": "MTK2191:3CFJTT4SXUXT5A2CYN9JHEUO0P47I3", "dateTime": 1516824353748}, {"current_trial": 137, "trialdata": {"rt": -1, "trial_type": "single-stim", "stimulus": "<p id=\"stim\">7</p>", "internal_node_id": "0.0-98.0-3.0", "time_elapsed": 639243, "key_press": -1, "trial_index": 137}, "uniqueid": "MTK2191:3CFJTT4SXUXT5A2CYN9JHEUO0P47I3", "dateTime": 1516824354750}, {"current_trial": 138, "trialdata": {"rt": -1, "trial_type": "single-stim", "stimulus": "<p id=\"stim\">6</p>", "internal_node_id": "0.0-98.0-4.0", "time_elapsed": 640245, "key_press": -1, "trial_index": 138}, "uniqueid": "MTK2191:3CFJTT4SXUXT5A2CYN9JHEUO0P47I3", "dateTime": 1516824355751}, {"current_trial": 139, "trialdata": {"rt": -1, "trial_type": "single-stim", "stimulus": "<p id=\"stim\">5</p>", "internal_node_id": "0.0-98.0-5.0", "time_elapsed": 641247, "key_press": -1, "trial_index": 139}, "uniqueid": "MTK2191:3CFJTT4SXUXT5A2CYN9JHEUO0P47I3", "dateTime": 1516824356754}, {"current_trial": 140, "trialdata": {"rt": -1, "trial_type": "single-stim", "stimulus": "<p id=\"stim\">4</p>", "internal_node_id": "0.0-98.0-6.0", "time_elapsed": 642249, "key_press": -1, "trial_index": 140}, "uniqueid": "MTK2191:3CFJTT4SXUXT5A2CYN9JHEUO0P47I3", "dateTime": 1516824357756}, {"current_trial": 141, "trialdata": {"rt": -1, "trial_type": "single-stim", "stimulus": "<p id=\"stim\">3</p>", "internal_node_id": "0.0-98.0-7.0", "time_elapsed": 643251, "key_press": -1, "trial_index": 141}, "uniqueid": "MTK2191:3CFJTT4SXUXT5A2CYN9JHEUO0P47I3", "dateTime": 1516824358757}, {"current_trial": 142, "trialdata": {"rt": -1, "trial_type": "single-stim", "stimulus": "<p id=\"stim\">2</p>", "internal_node_id": "0.0-98.0-8.0", "time_elapsed": 644253, "key_press": -1, "trial_index": 142}, "uniqueid": "MTK2191:3CFJTT4SXUXT5A2CYN9JHEUO0P47I3", "dateTime": 1516824359759}, {"current_trial": 143, "trialdata": {"rt": -1, "trial_type": "single-stim", "stimulus": "<p id=\"stim\">1</p>", "internal_node_id": "0.0-98.0-9.0", "time_elapsed": 645255, "key_press": -1, "trial_index": 143}, "uniqueid": "MTK2191:3CFJTT4SXUXT5A2CYN9JHEUO0P47I3", "dateTime": 1516824360761}, {"current_trial": 144, "trialdata": {"rt": -1, "trial_type": "single-stim", "stimulus": "<p id=\"stim\">+</p>", "internal_node_id": "0.0-99.0-0.0", "time_elapsed": 646756, "key_press": -1, "type": "FIXATION", "trial_index": 144}, "uniqueid": "MTK2191:3CFJTT4SXUXT5A2CYN9JHEUO0P47I3", "dateTime": 1516824362262}, {"current_trial": 145, "trialdata": {"rt": -1, "trial_type": "single-stim", "word": "penguin", "stimulus": "<p id=\"stim\">PENGUIN</p>", "conditions": [12, 1600, "v", 12000], "internal_node_id": "0.0-100.0", "trial": 4, "time_elapsed": 648359, "serialpos": 0, "key_press": -1, "wordID": 1043, "type": "PRES_VIS", "trial_index": 145}, "uniqueid": "MTK2191:3CFJTT4SXUXT5A2CYN9JHEUO0P47I3", "dateTime": 1516824363866}, {"current_trial": 146, "trialdata": {"rt": -1, "trial_type": "single-stim", "word": "brook", "stimulus": "<p id=\"stim\">BROOK</p>", "conditions": [12, 1600, "v", 12000], "internal_node_id": "0.0-101.0", "trial": 4, "time_elapsed": 650782, "serialpos": 1, "key_press": -1, "wordID": 176, "type": "PRES_VIS", "trial_index": 146}, "uniqueid": "MTK2191:3CFJTT4SXUXT5A2CYN9JHEUO0P47I3", "dateTime": 1516824366288}, {"current_trial": 147, "trialdata": {"rt": -1, "trial_type": "single-stim", "word": "treat", "stimulus": "<p id=\"stim\">TREAT</p>", "conditions": [12, 1600, "v", 12000], "internal_node_id": "0.0-102.0", "trial": 4, "time_elapsed": 653434, "serialpos": 2, "key_press": -1, "wordID": 1500, "type": "PRES_VIS", "trial_index": 147}, "uniqueid": "MTK2191:3CFJTT4SXUXT5A2CYN9JHEUO0P47I3", "dateTime": 1516824368940}, {"current_trial": 148, "trialdata": {"rt": -1, "trial_type": "single-stim", "word": "mister", "stimulus": "<p id=\"stim\">MISTER</p>", "conditions": [12, 1600, "v", 12000], "internal_node_id": "0.0-103.0", "trial": 4, "time_elapsed": 656162, "serialpos": 3, "key_press": -1, "wordID": 900, "type": "PRES_VIS", "trial_index": 148}, "uniqueid": "MTK2191:3CFJTT4SXUXT5A2CYN9JHEUO0P47I3", "dateTime": 1516824371668}, {"current_trial": 149, "trialdata": {"rt": -1, "trial_type": "single-stim", "word": "missile", "stimulus": "<p id=\"stim\">MISSILE</p>", "conditions": [12, 1600, "v", 12000], "internal_node_id": "0.0-104.0", "trial": 4, "time_elapsed": 658818, "serialpos": 4, "key_press": -1, "wordID": 899, "type": "PRES_VIS", "trial_index": 149}, "uniqueid": "MTK2191:3CFJTT4SXUXT5A2CYN9JHEUO0P47I3", "dateTime": 1516824374324}, {"current_trial": 150, "trialdata": {"rt": -1, "trial_type": "single-stim", "word": "stone", "stimulus": "<p id=\"stim\">STONE</p>", "conditions": [12, 1600, "v", 12000], "internal_node_id": "0.0-105.0", "trial": 4, "time_elapsed": 661510, "serialpos": 5, "key_press": -1, "wordID": 1384, "type": "PRES_VIS", "trial_index": 150}, "uniqueid": "MTK2191:3CFJTT4SXUXT5A2CYN9JHEUO0P47I3", "dateTime": 1516824377016}, {"current_trial": 151, "trialdata": {"rt": -1, "trial_type": "single-stim", "word": "crater", "stimulus": "<p id=\"stim\">CRATER</p>", "conditions": [12, 1600, "v", 12000], "internal_node_id": "0.0-106.0", "trial": 4, "time_elapsed": 664212, "serialpos": 6, "key_press": -1, "wordID": 399, "type": "PRES_VIS", "trial_index": 151}, "uniqueid": "MTK2191:3CFJTT4SXUXT5A2CYN9JHEUO0P47I3", "dateTime": 1516824379719}, {"current_trial": 152, "trialdata": {"rt": -1, "trial_type": "single-stim", "word": "mailman", "stimulus": "<p id=\"stim\">MAILMAN</p>", "conditions": [12, 1600, "v", 12000], "internal_node_id": "0.0-107.0", "trial": 4, "time_elapsed": 666698, "serialpos": 7, "key_press": -1, "wordID": 857, "type": "PRES_VIS", "trial_index": 152}, "uniqueid": "MTK2191:3CFJTT4SXUXT5A2CYN9JHEUO0P47I3", "dateTime": 1516824382205}, {"current_trial": 153, "trialdata": {"rt": -1, "trial_type": "single-stim", "word": "mailbox", "stimulus": "<p id=\"stim\">MAILBOX</p>", "conditions": [12, 1600, "v", 12000], "internal_node_id": "0.0-108.0", "trial": 4, "time_elapsed": 669268, "serialpos": 8, "key_press": -1, "wordID": 856, "type": "PRES_VIS", "trial_index": 153}, "uniqueid": "MTK2191:3CFJTT4SXUXT5A2CYN9JHEUO0P47I3", "dateTime": 1516824384775}, {"current_trial": 154, "trialdata": {"rt": -1, "trial_type": "single-stim", "word": "dolphin", "stimulus": "<p id=\"stim\">DOLPHIN</p>", "conditions": [12, 1600, "v", 12000], "internal_node_id": "0.0-109.0", "trial": 4, "time_elapsed": 671964, "serialpos": 9, "key_press": -1, "wordID": 482, "type": "PRES_VIS", "trial_index": 154}, "uniqueid": "MTK2191:3CFJTT4SXUXT5A2CYN9JHEUO0P47I3", "dateTime": 1516824387470}, {"current_trial": 155, "trialdata": {"rt": -1, "trial_type": "single-stim", "word": "drink", "stimulus": "<p id=\"stim\">DRINK</p>", "conditions": [12, 1600, "v", 12000], "internal_node_id": "0.0-110.0", "trial": 4, "time_elapsed": 674542, "serialpos": 10, "key_press": -1, "wordID": 497, "type": "PRES_VIS", "trial_index": 155}, "uniqueid": "MTK2191:3CFJTT4SXUXT5A2CYN9JHEUO0P47I3", "dateTime": 1516824390048}, {"current_trial": 156, "trialdata": {"rt": -1, "trial_type": "single-stim", "word": "cabbage", "stimulus": "<p id=\"stim\">CABBAGE</p>", "conditions": [12, 1600, "v", 12000], "internal_node_id": "0.0-111.0", "trial": 4, "time_elapsed": 677091, "serialpos": 11, "key_press": -1, "wordID": 209, "type": "PRES_VIS", "trial_index": 156}, "uniqueid": "MTK2191:3CFJTT4SXUXT5A2CYN9JHEUO0P47I3", "dateTime": 1516824392597}, {"current_trial": 157, "trialdata": {"rt": -1, "trial_type": "single-stim", "stimulus": "", "internal_node_id": "0.0-112.0-0.0", "time_elapsed": 679334, "key_press": -1, "type": "PRE_RECALL_DELAY", "trial_index": 157}, "uniqueid": "MTK2191:3CFJTT4SXUXT5A2CYN9JHEUO0P47I3", "dateTime": 1516824394840}, {"current_trial": 158, "trialdata": {"rt": -1000, "trial_type": "single-audio", "stimulus": "/static/audio/400Hz.wav", "internal_node_id": "0.0-113.0", "time_elapsed": 679835, "key_press": -1, "type": "PRE_RECALL_ALERT", "trial_index": 158}, "uniqueid": "MTK2191:3CFJTT4SXUXT5A2CYN9JHEUO0P47I3", "dateTime": 1516824395341}, {"current_trial": 159, "trialdata": {"rt": [5571, 6867, 8710, 9455, 10684, 12581, 14530, 16138, 20911], "recwords": ["penguin", "brook", "mister", "stone", "crater", "mailman", "mailbox", "drink", "cabbage"], "key_times": [3295, 3456, 3611, 4152, 4420, 4529, 4744, 5571, 5982, 6217, 6292, 6443, 6539, 6867, 7938, 8080, 8198, 8349, 8511, 8590, 8710, 8868, 8972, 9090, 9194, 9341, 9455, 9588, 9850, 9942, 10088, 10226, 10315, 10684, 11236, 11376, 11497, 11607, 11784, 11874, 12042, 12581, 12838, 12972, 13134, 13253, 13517, 13700, 13839, 14530, 15375, 15584, 15638, 15732, 15854, 16138, 19915, 20014, 20212, 20339, 20475, 20597, 20725, 20911, 41377], "trial_type": "free-recall", "conditions": [12, 1600, "v", 12000], "internal_node_id": "0.0-114.0-0.0", "key_presses": [80, 69, 78, 71, 85, 73, 78, 13, 66, 82, 79, 79, 75, 13, 77, 73, 83, 84, 69, 82, 13, 83, 84, 79, 78, 69, 13, 67, 82, 65, 84, 69, 82, 13, 77, 65, 73, 76, 77, 65, 78, 13, 77, 65, 73, 76, 66, 79, 88, 13, 68, 82, 73, 78, 75, 13, 67, 65, 66, 66, 65, 71, 69, 13, 9], "trial": 4, "time_elapsed": 739840, "type": "FREE_RECALL", "trial_index": 159}, "uniqueid": "MTK2191:3CFJTT4SXUXT5A2CYN9JHEUO0P47I3", "dateTime": 1516824455353}, {"current_trial": 160, "trialdata": {"rt": 3285, "trial_type": "text", "internal_node_id": "0.0-115.0", "time_elapsed": 745133, "key_press": 32, "type": "INSTRUCTIONS", "trial_index": 160}, "uniqueid": "MTK2191:3CFJTT4SXUXT5A2CYN9JHEUO0P47I3", "dateTime": 1516824460639}, {"current_trial": 161, "trialdata": {"rt": [3607, 8931, 11547], "trial_type": "math-distractor", "key_times": [3304, 3377, 3607, 8482, 8725, 8931, 11259, 11350, 11547], "responses": ["13", "19", "13"], "num2": [6, 4, 4, 2], "num3": [3, 6, 8, 9], "conditions": [24, 1600, "v", 12000], "internal_node_id": "0.0-116.0", "key_presses": [97, 99, 13, 97, 105, 13, 97, 99, 13], "trial": 5, "time_elapsed": 759138, "type": "DISTRACTOR", "trial_index": 161, "num1": [4, 9, 1, 8]}, "uniqueid": "MTK2191:3CFJTT4SXUXT5A2CYN9JHEUO0P47I3", "dateTime": 1516824474644}, {"current_trial": 162, "trialdata": {"rt": -1, "trial_type": "single-stim", "stimulus": "<p id=\"stim\">10</p>", "internal_node_id": "0.0-117.0-0.0", "time_elapsed": 762141, "key_press": -1, "trial_index": 162}, "uniqueid": "MTK2191:3CFJTT4SXUXT5A2CYN9JHEUO0P47I3", "dateTime": 1516824477647}, {"current_trial": 163, "trialdata": {"rt": -1, "trial_type": "single-stim", "stimulus": "<p id=\"stim\">9</p>", "internal_node_id": "0.0-117.0-1.0", "time_elapsed": 763143, "key_press": -1, "trial_index": 163}, "uniqueid": "MTK2191:3CFJTT4SXUXT5A2CYN9JHEUO0P47I3", "dateTime": 1516824478649}, {"current_trial": 164, "trialdata": {"rt": -1, "trial_type": "single-stim", "stimulus": "<p id=\"stim\">8</p>", "internal_node_id": "0.0-117.0-2.0", "time_elapsed": 764146, "key_press": -1, "trial_index": 164}, "uniqueid": "MTK2191:3CFJTT4SXUXT5A2CYN9JHEUO0P47I3", "dateTime": 1516824479652}, {"current_trial": 165, "trialdata": {"rt": -1, "trial_type": "single-stim", "stimulus": "<p id=\"stim\">7</p>", "internal_node_id": "0.0-117.0-3.0", "time_elapsed": 765147, "key_press": -1, "trial_index": 165}, "uniqueid": "MTK2191:3CFJTT4SXUXT5A2CYN9JHEUO0P47I3", "dateTime": 1516824480654}, {"current_trial": 166, "trialdata": {"rt": -1, "trial_type": "single-stim", "stimulus": "<p id=\"stim\">6</p>", "internal_node_id": "0.0-117.0-4.0", "time_elapsed": 766149, "key_press": -1, "trial_index": 166}, "uniqueid": "MTK2191:3CFJTT4SXUXT5A2CYN9JHEUO0P47I3", "dateTime": 1516824481655}, {"current_trial": 167, "trialdata": {"rt": -1, "trial_type": "single-stim", "stimulus": "<p id=\"stim\">5</p>", "internal_node_id": "0.0-117.0-5.0", "time_elapsed": 767151, "key_press": -1, "trial_index": 167}, "uniqueid": "MTK2191:3CFJTT4SXUXT5A2CYN9JHEUO0P47I3", "dateTime": 1516824482657}, {"current_trial": 168, "trialdata": {"rt": -1, "trial_type": "single-stim", "stimulus": "<p id=\"stim\">4</p>", "internal_node_id": "0.0-117.0-6.0", "time_elapsed": 768153, "key_press": -1, "trial_index": 168}, "uniqueid": "MTK2191:3CFJTT4SXUXT5A2CYN9JHEUO0P47I3", "dateTime": 1516824483659}, {"current_trial": 169, "trialdata": {"rt": -1, "trial_type": "single-stim", "stimulus": "<p id=\"stim\">3</p>", "internal_node_id": "0.0-117.0-7.0", "time_elapsed": 769154, "key_press": -1, "trial_index": 169}, "uniqueid": "MTK2191:3CFJTT4SXUXT5A2CYN9JHEUO0P47I3", "dateTime": 1516824484660}, {"current_trial": 170, "trialdata": {"rt": -1, "trial_type": "single-stim", "stimulus": "<p id=\"stim\">2</p>", "internal_node_id": "0.0-117.0-8.0", "time_elapsed": 770156, "key_press": -1, "trial_index": 170}, "uniqueid": "MTK2191:3CFJTT4SXUXT5A2CYN9JHEUO0P47I3", "dateTime": 1516824485662}, {"current_trial": 171, "trialdata": {"rt": -1, "trial_type": "single-stim", "stimulus": "<p id=\"stim\">1</p>", "internal_node_id": "0.0-117.0-9.0", "time_elapsed": 771158, "key_press": -1, "trial_index": 171}, "uniqueid": "MTK2191:3CFJTT4SXUXT5A2CYN9JHEUO0P47I3", "dateTime": 1516824486664}, {"current_trial": 172, "trialdata": {"rt": -1, "trial_type": "single-stim", "stimulus": "<p id=\"stim\">+</p>", "internal_node_id": "0.0-118.0-0.0", "time_elapsed": 772660, "key_press": -1, "type": "FIXATION", "trial_index": 172}, "uniqueid": "MTK2191:3CFJTT4SXUXT5A2CYN9JHEUO0P47I3", "dateTime": 1516824488166}, {"current_trial": 173, "trialdata": {"rt": -1, "trial_type": "single-stim", "word": "daughter", "stimulus": "<p id=\"stim\">DAUGHTER</p>", "conditions": [24, 1600, "v", 12000], "internal_node_id": "0.0-119.0", "trial": 5, "time_elapsed": 774261, "serialpos": 0, "key_press": -1, "wordID": 441, "type": "PRES_VIS", "trial_index": 173}, "uniqueid": "MTK2191:3CFJTT4SXUXT5A2CYN9JHEUO0P47I3", "dateTime": 1516824489767}, {"current_trial": 174, "trialdata": {"rt": -1, "trial_type": "single-stim", "word": "uncle", "stimulus": "<p id=\"stim\">UNCLE</p>", "conditions": [24, 1600, "v", 12000], "internal_node_id": "0.0-120.0", "trial": 5, "time_elapsed": 777038, "serialpos": 1, "key_press": -1, "wordID": 1535, "type": "PRES_VIS", "trial_index": 174}, "uniqueid": "MTK2191:3CFJTT4SXUXT5A2CYN9JHEUO0P47I3", "dateTime": 1516824492545}, {"current_trial": 175, "trialdata": {"rt": -1, "trial_type": "single-stim", "word": "island", "stimulus": "<p id=\"stim\">ISLAND</p>", "conditions": [24, 1600, "v", 12000], "internal_node_id": "0.0-121.0", "trial": 5, "time_elapsed": 779634, "serialpos": 2, "key_press": -1, "wordID": 744, "type": "PRES_VIS", "trial_index": 175}, "uniqueid": "MTK2191:3CFJTT4SXUXT5A2CYN9JHEUO0P47I3", "dateTime": 1516824495141}, {"current_trial": 176, "trialdata": {"rt": -1, "trial_type": "single-stim", "word": "juggler", "stimulus": "<p id=\"stim\">JUGGLER</p>", "conditions": [24, 1600, "v", 12000], "internal_node_id": "0.0-122.0", "trial": 5, "time_elapsed": 782292, "serialpos": 3, "key_press": -1, "wordID": 762, "type": "PRES_VIS", "trial_index": 176}, "uniqueid": "MTK2191:3CFJTT4SXUXT5A2CYN9JHEUO0P47I3", "dateTime": 1516824497798}, {"current_trial": 177, "trialdata": {"rt": -1, "trial_type": "single-stim", "word": "boyfriend", "stimulus": "<p id=\"stim\">BOYFRIEND</p>", "conditions": [24, 1600, "v", 12000], "internal_node_id": "0.0-123.0", "trial": 5, "time_elapsed": 784903, "serialpos": 4, "key_press": -1, "wordID": 161, "type": "PRES_VIS", "trial_index": 177}, "uniqueid": "MTK2191:3CFJTT4SXUXT5A2CYN9JHEUO0P47I3", "dateTime": 1516824500409}, {"current_trial": 178, "trialdata": {"rt": -1, "trial_type": "single-stim", "word": "finger", "stimulus": "<p id=\"stim\">FINGER</p>", "conditions": [24, 1600, "v", 12000], "internal_node_id": "0.0-124.0", "trial": 5, "time_elapsed": 787606, "serialpos": 5, "key_press": -1, "wordID": 566, "type": "PRES_VIS", "trial_index": 178}, "uniqueid": "MTK2191:3CFJTT4SXUXT5A2CYN9JHEUO0P47I3", "dateTime": 1516824503112}, {"current_trial": 179, "trialdata": {"rt": -1, "trial_type": "single-stim", "word": "rooster", "stimulus": "<p id=\"stim\">ROOSTER</p>", "conditions": [24, 1600, "v", 12000], "internal_node_id": "0.0-125.0", "trial": 5, "time_elapsed": 790015, "serialpos": 6, "key_press": -1, "wordID": 1208, "type": "PRES_VIS", "trial_index": 179}, "uniqueid": "MTK2191:3CFJTT4SXUXT5A2CYN9JHEUO0P47I3", "dateTime": 1516824505522}, {"current_trial": 180, "trialdata": {"rt": -1, "trial_type": "single-stim", "word": "parrot", "stimulus": "<p id=\"stim\">PARROT</p>", "conditions": [24, 1600, "v", 12000], "internal_node_id": "0.0-126.0", "trial": 5, "time_elapsed": 792460, "serialpos": 7, "key_press": -1, "wordID": 1014, "type": "PRES_VIS", "trial_index": 180}, "uniqueid": "MTK2191:3CFJTT4SXUXT5A2CYN9JHEUO0P47I3", "dateTime": 1516824507966}, {"current_trial": 181, "trialdata": {"rt": -1, "trial_type": "single-stim", "word": "honey", "stimulus": "<p id=\"stim\">HONEY</p>", "conditions": [24, 1600, "v", 12000], "internal_node_id": "0.0-127.0", "trial": 5, "time_elapsed": 795021, "serialpos": 8, "key_press": -1, "wordID": 712, "type": "PRES_VIS", "trial_index": 181}, "uniqueid": "MTK2191:3CFJTT4SXUXT5A2CYN9JHEUO0P47I3", "dateTime": 1516824510527}, {"current_trial": 182, "trialdata": {"rt": -1, "trial_type": "single-stim", "word": "freckle", "stimulus": "<p id=\"stim\">FRECKLE</p>", "conditions": [24, 1600, "v", 12000], "internal_node_id": "0.0-128.0", "trial": 5, "time_elapsed": 797584, "serialpos": 9, "key_press": -1, "wordID": 601, "type": "PRES_VIS", "trial_index": 182}, "uniqueid": "MTK2191:3CFJTT4SXUXT5A2CYN9JHEUO0P47I3", "dateTime": 1516824513090}, {"current_trial": 183, "trialdata": {"rt": -1, "trial_type": "single-stim", "word": "onion", "stimulus": "<p id=\"stim\">ONION</p>", "conditions": [24, 1600, "v", 12000], "internal_node_id": "0.0-129.0", "trial": 5, "time_elapsed": 799994, "serialpos": 10, "key_press": -1, "wordID": 976, "type": "PRES_VIS", "trial_index": 183}, "uniqueid": "MTK2191:3CFJTT4SXUXT5A2CYN9JHEUO0P47I3", "dateTime": 1516824515500}, {"current_trial": 184, "trialdata": {"rt": -1, "trial_type": "single-stim", "word": "forehead", "stimulus": "<p id=\"stim\">FOREHEAD</p>", "conditions": [24, 1600, "v", 12000], "internal_node_id": "0.0-130.0", "trial": 5, "time_elapsed": 802424, "serialpos": 11, "key_press": -1, "wordID": 591, "type": "PRES_VIS", "trial_index": 184}, "uniqueid": "MTK2191:3CFJTT4SXUXT5A2CYN9JHEUO0P47I3", "dateTime": 1516824517930}, {"current_trial": 185, "trialdata": {"rt": -1, "trial_type": "single-stim", "word": "snake", "stimulus": "<p id=\"stim\">SNAKE</p>", "conditions": [24, 1600, "v", 12000], "internal_node_id": "0.0-131.0", "trial": 5, "time_elapsed": 805017, "serialpos": 12, "key_press": -1, "wordID": 1332, "type": "PRES_VIS", "trial_index": 185}, "uniqueid": "MTK2191:3CFJTT4SXUXT5A2CYN9JHEUO0P47I3", "dateTime": 1516824520524}, {"current_trial": 186, "trialdata": {"rt": -1, "trial_type": "single-stim", "word": "transplant", "stimulus": "<p id=\"stim\">TRANSPLANT</p>", "conditions": [24, 1600, "v", 12000], "internal_node_id": "0.0-132.0", "trial": 5, "time_elapsed": 807604, "serialpos": 13, "key_press": -1, "wordID": 1495, "type": "PRES_VIS", "trial_index": 186}, "uniqueid": "MTK2191:3CFJTT4SXUXT5A2CYN9JHEUO0P47I3", "dateTime": 1516824523110}, {"current_trial": 187, "trialdata": {"rt": -1, "trial_type": "single-stim", "word": "pizza", "stimulus": "<p id=\"stim\">PIZZA</p>", "conditions": [24, 1600, "v", 12000], "internal_node_id": "0.0-133.0", "trial": 5, "time_elapsed": 810117, "serialpos": 14, "key_press": -1, "wordID": 1078, "type": "PRES_VIS", "trial_index": 187}, "uniqueid": "MTK2191:3CFJTT4SXUXT5A2CYN9JHEUO0P47I3", "dateTime": 1516824525623}, {"current_trial": 188, "trialdata": {"rt": -1, "trial_type": "single-stim", "word": "market", "stimulus": "<p id=\"stim\">MARKET</p>", "conditions": [24, 1600, "v", 12000], "internal_node_id": "0.0-134.0", "trial": 5, "time_elapsed": 812883, "serialpos": 15, "key_press": -1, "wordID": 870, "type": "PRES_VIS", "trial_index": 188}, "uniqueid": "MTK2191:3CFJTT4SXUXT5A2CYN9JHEUO0P47I3", "dateTime": 1516824528389}, {"current_trial": 189, "trialdata": {"rt": -1, "trial_type": "single-stim", "word": "lagoon", "stimulus": "<p id=\"stim\">LAGOON</p>", "conditions": [24, 1600, "v", 12000], "internal_node_id": "0.0-135.0", "trial": 5, "time_elapsed": 815556, "serialpos": 16, "key_press": -1, "wordID": 794, "type": "PRES_VIS", "trial_index": 189}, "uniqueid": "MTK2191:3CFJTT4SXUXT5A2CYN9JHEUO0P47I3", "dateTime": 1516824531063}, {"current_trial": 190, "trialdata": {"rt": -1, "trial_type": "single-stim", "word": "igloo", "stimulus": "<p id=\"stim\">IGLOO</p>", "conditions": [24, 1600, "v", 12000], "internal_node_id": "0.0-136.0", "trial": 5, "time_elapsed": 817962, "serialpos": 17, "key_press": -1, "wordID": 733, "type": "PRES_VIS", "trial_index": 190}, "uniqueid": "MTK2191:3CFJTT4SXUXT5A2CYN9JHEUO0P47I3", "dateTime": 1516824533469}, {"current_trial": 191, "trialdata": {"rt": 1141, "trial_type": "single-stim", "word": "doughnut", "stimulus": "<p id=\"stim\">DOUGHNUT</p>", "conditions": [24, 1600, "v", 12000], "internal_node_id": "0.0-137.0", "trial": 5, "time_elapsed": 820742, "serialpos": 18, "key_press": 17, "wordID": 489, "type": "PRES_VIS", "trial_index": 191}, "uniqueid": "MTK2191:3CFJTT4SXUXT5A2CYN9JHEUO0P47I3", "dateTime": 1516824536249}, {"current_trial": 192, "trialdata": {"rt": -1, "trial_type": "single-stim", "word": "costume", "stimulus": "<p id=\"stim\">COSTUME</p>", "conditions": [24, 1600, "v", 12000], "internal_node_id": "0.0-138.0", "trial": 5, "time_elapsed": 823175, "serialpos": 19, "key_press": -1, "wordID": 382, "type": "PRES_VIS", "trial_index": 192}, "uniqueid": "MTK2191:3CFJTT4SXUXT5A2CYN9JHEUO0P47I3", "dateTime": 1516824538681}, {"current_trial": 193, "trialdata": {"rt": -1, "trial_type": "single-stim", "word": "popcorn", "stimulus": "<p id=\"stim\">POPCORN</p>", "conditions": [24, 1600, "v", 12000], "internal_node_id": "0.0-139.0", "trial": 5, "time_elapsed": 825664, "serialpos": 20, "key_press": -1, "wordID": 1103, "type": "PRES_VIS", "trial_index": 193}, "uniqueid": "MTK2191:3CFJTT4SXUXT5A2CYN9JHEUO0P47I3", "dateTime": 1516824541171}, {"current_trial": 194, "trialdata": {"rt": -1, "trial_type": "single-stim", "word": "milk", "stimulus": "<p id=\"stim\">MILK</p>", "conditions": [24, 1600, "v", 12000], "internal_node_id": "0.0-140.0", "trial": 5, "time_elapsed": 828340, "serialpos": 21, "key_press": -1, "wordID": 894, "type": "PRES_VIS", "trial_index": 194}, "uniqueid": "MTK2191:3CFJTT4SXUXT5A2CYN9JHEUO0P47I3", "dateTime": 1516824543846}, {"current_trial": 195, "trialdata": {"rt": 536, "trial_type": "single-stim", "word": "flute", "stimulus": "<p id=\"stim\">FLUTE</p>", "conditions": [24, 1600, "v", 12000], "internal_node_id": "0.0-141.0", "trial": 5, "time_elapsed": 830884, "serialpos": 22, "key_press": 91, "wordID": 584, "type": "PRES_VIS", "trial_index": 195}, "uniqueid": "MTK2191:3CFJTT4SXUXT5A2CYN9JHEUO0P47I3", "dateTime": 1516824546390}, {"current_trial": 196, "trialdata": {"rt": -1, "trial_type": "single-stim", "word": "tuba", "stimulus": "<p id=\"stim\">TUBA</p>", "conditions": [24, 1600, "v", 12000], "internal_node_id": "0.0-142.0", "trial": 5, "time_elapsed": 833612, "serialpos": 23, "key_press": -1, "wordID": 1514, "type": "PRES_VIS", "trial_index": 196}, "uniqueid": "MTK2191:3CFJTT4SXUXT5A2CYN9JHEUO0P47I3", "dateTime": 1516824549118}, {"current_trial": 197, "trialdata": {"rt": -1, "trial_type": "single-stim", "stimulus": "", "internal_node_id": "0.0-143.0-0.0", "time_elapsed": 835787, "key_press": -1, "type": "PRE_RECALL_DELAY", "trial_index": 197}, "uniqueid": "MTK2191:3CFJTT4SXUXT5A2CYN9JHEUO0P47I3", "dateTime": 1516824551293}, {"current_trial": 198, "trialdata": {"rt": -1000, "trial_type": "single-audio", "stimulus": "/static/audio/400Hz.wav", "internal_node_id": "0.0-144.0", "time_elapsed": 836289, "key_press": -1, "type": "PRE_RECALL_ALERT", "trial_index": 198}, "uniqueid": "MTK2191:3CFJTT4SXUXT5A2CYN9JHEUO0P47I3", "dateTime": 1516824551796}, {"current_trial": 199, "trialdata": {"rt": [4344, 6062, 8494, 10236, 11093, 12182, 13241, 14564, 15394, 16971, 18629, 21513, 23457, 24883, 28033, 29559, 30784, 31535, 32360], "recwords": ["daughter", "island", "juggler", "boyfriend", "finger", "rooster", "parrot", "honey", "onion", "forehead", "snake", "transplant", "pizza", "market", "igloo", "costume", "popcorn", "milk", "tuba"], "key_times": [3036, 3145, 3321, 3424, 3548, 3633, 3766, 3862, 4344, 4787, 4874, 5029, 5134, 5275, 5379, 6062, 6637, 7135, 7377, 7525, 7995, 8134, 8226, 8494, 8989, 9160, 9260, 9518, 9703, 9798, 9881, 10001, 10101, 10236, 10375, 10491, 10580, 10710, 10871, 10966, 11093, 11233, 11354, 11511, 11613, 11813, 11945, 12032, 12182, 12409, 12544, 12611, 12791, 12937, 13070, 13241, 13905, 13997, 14144, 14252, 14383, 14564, 14764, 14893, 15036, 15128, 15219, 15394, 15700, 15810, 15983, 16084, 16498, 16556, 16632, 16827, 16971, 17309, 17412, 17517, 17933, 18136, 18629, 19239, 19424, 19513, 19628, 19756, 20567, 20765, 20855, 20979, 21098, 21513, 21809, 21965, 22100, 22249, 22591, 22737, 22823, 22994, 23197, 23457, 23911, 23998, 24074, 24201, 24301, 24433, 24883, 25292, 25739, 25973, 26173, 26347, 26800, 27093, 27325, 27480, 28033, 28593, 28729, 28852, 29035, 29123, 29331, 29440, 29559, 29773, 29976, 30169, 30280, 30410, 30556, 30619, 30784, 30989, 31119, 31209, 31362, 31535, 31794, 31945, 32068, 32233, 32360], "trial_type": "free-recall", "conditions": [24, 1600, "v", 12000], "internal_node_id": "0.0-145.0-0.0", "key_presses": [68, 65, 85, 71, 72, 84, 69, 82, 13, 73, 83, 76, 65, 78, 68, 13, 74, 85, 71, 71, 76, 69, 82, 13, 66, 79, 89, 70, 82, 73, 69, 78, 68, 13, 70, 73, 78, 71, 69, 82, 13, 82, 79, 79, 83, 84, 69, 82, 13, 80, 65, 82, 82, 79, 84, 13, 72, 79, 78, 69, 89, 13, 79, 78, 73, 79, 78, 13, 70, 79, 82, 69, 72, 69, 65, 68, 13, 83, 78, 65, 75, 69, 13, 84, 82, 65, 78, 83, 80, 76, 65, 78, 84, 13, 80, 73, 83, 83, 8, 8, 90, 90, 65, 13, 77, 65, 82, 75, 69, 84, 13, 84, 8, 73, 71, 71, 8, 76, 79, 79, 13, 67, 79, 83, 84, 85, 77, 69, 13, 80, 79, 80, 67, 79, 82, 78, 13, 77, 73, 76, 75, 13, 84, 85, 66, 65, 13], "trial": 5, "time_elapsed": 896294, "type": "FREE_RECALL", "trial_index": 199}, "uniqueid": "MTK2191:3CFJTT4SXUXT5A2CYN9JHEUO0P47I3", "dateTime": 1516824611806}, {"current_trial": 200, "trialdata": {"rt": 2674, "trial_type": "text", "internal_node_id": "0.0-146.0", "time_elapsed": 900975, "key_press": 32, "type": "INSTRUCTIONS", "trial_index": 200}, "uniqueid": "MTK2191:3CFJTT4SXUXT5A2CYN9JHEUO0P47I3", "dateTime": 1516824616481}, {"current_trial": 201, "trialdata": {"rt": [3918, 11537], "trial_type": "math-distractor", "key_times": [3499, 3709, 3918, 11090, 11301, 11537], "responses": ["10", "19"], "num2": [2, 3, 2], "num3": [6, 8, 9], "conditions": [12, 800, "v", 12000], "internal_node_id": "0.0-147.0", "key_presses": [97, 96, 13, 97, 105, 13], "trial": 6, "time_elapsed": 914985, "type": "DISTRACTOR", "trial_index": 201, "num1": [2, 8, 8]}, "uniqueid": "MTK2191:3CFJTT4SXUXT5A2CYN9JHEUO0P47I3", "dateTime": 1516824630491}, {"current_trial": 202, "trialdata": {"rt": -1, "trial_type": "single-stim", "stimulus": "<p id=\"stim\">10</p>", "internal_node_id": "0.0-148.0-0.0", "time_elapsed": 917988, "key_press": -1, "trial_index": 202}, "uniqueid": "MTK2191:3CFJTT4SXUXT5A2CYN9JHEUO0P47I3", "dateTime": 1516824633494}, {"current_trial": 203, "trialdata": {"rt": -1, "trial_type": "single-stim", "stimulus": "<p id=\"stim\">9</p>", "internal_node_id": "0.0-148.0-1.0", "time_elapsed": 918990, "key_press": -1, "trial_index": 203}, "uniqueid": "MTK2191:3CFJTT4SXUXT5A2CYN9JHEUO0P47I3", "dateTime": 1516824634496}, {"current_trial": 204, "trialdata": {"rt": -1, "trial_type": "single-stim", "stimulus": "<p id=\"stim\">8</p>", "internal_node_id": "0.0-148.0-2.0", "time_elapsed": 919992, "key_press": -1, "trial_index": 204}, "uniqueid": "MTK2191:3CFJTT4SXUXT5A2CYN9JHEUO0P47I3", "dateTime": 1516824635498}, {"current_trial": 205, "trialdata": {"rt": -1, "trial_type": "single-stim", "stimulus": "<p id=\"stim\">7</p>", "internal_node_id": "0.0-148.0-3.0", "time_elapsed": 920994, "key_press": -1, "trial_index": 205}, "uniqueid": "MTK2191:3CFJTT4SXUXT5A2CYN9JHEUO0P47I3", "dateTime": 1516824636500}, {"current_trial": 206, "trialdata": {"rt": -1, "trial_type": "single-stim", "stimulus": "<p id=\"stim\">6</p>", "internal_node_id": "0.0-148.0-4.0", "time_elapsed": 921996, "key_press": -1, "trial_index": 206}, "uniqueid": "MTK2191:3CFJTT4SXUXT5A2CYN9JHEUO0P47I3", "dateTime": 1516824637502}, {"current_trial": 207, "trialdata": {"rt": -1, "trial_type": "single-stim", "stimulus": "<p id=\"stim\">5</p>", "internal_node_id": "0.0-148.0-5.0", "time_elapsed": 922998, "key_press": -1, "trial_index": 207}, "uniqueid": "MTK2191:3CFJTT4SXUXT5A2CYN9JHEUO0P47I3", "dateTime": 1516824638504}, {"current_trial": 208, "trialdata": {"rt": -1, "trial_type": "single-stim", "stimulus": "<p id=\"stim\">4</p>", "internal_node_id": "0.0-148.0-6.0", "time_elapsed": 924001, "key_press": -1, "trial_index": 208}, "uniqueid": "MTK2191:3CFJTT4SXUXT5A2CYN9JHEUO0P47I3", "dateTime": 1516824639507}, {"current_trial": 209, "trialdata": {"rt": -1, "trial_type": "single-stim", "stimulus": "<p id=\"stim\">3</p>", "internal_node_id": "0.0-148.0-7.0", "time_elapsed": 925003, "key_press": -1, "trial_index": 209}, "uniqueid": "MTK2191:3CFJTT4SXUXT5A2CYN9JHEUO0P47I3", "dateTime": 1516824640511}, {"current_trial": 210, "trialdata": {"rt": -1, "trial_type": "single-stim", "stimulus": "<p id=\"stim\">2</p>", "internal_node_id": "0.0-148.0-8.0", "time_elapsed": 926007, "key_press": -1, "trial_index": 210}, "uniqueid": "MTK2191:3CFJTT4SXUXT5A2CYN9JHEUO0P47I3", "dateTime": 1516824641513}, {"current_trial": 211, "trialdata": {"rt": -1, "trial_type": "single-stim", "stimulus": "<p id=\"stim\">1</p>", "internal_node_id": "0.0-148.0-9.0", "time_elapsed": 927009, "key_press": -1, "trial_index": 211}, "uniqueid": "MTK2191:3CFJTT4SXUXT5A2CYN9JHEUO0P47I3", "dateTime": 1516824642515}, {"current_trial": 212, "trialdata": {"rt": 1175, "trial_type": "single-stim", "stimulus": "<p id=\"stim\">+</p>", "internal_node_id": "0.0-149.0-0.0", "time_elapsed": 928511, "key_press": 17, "type": "FIXATION", "trial_index": 212}, "uniqueid": "MTK2191:3CFJTT4SXUXT5A2CYN9JHEUO0P47I3", "dateTime": 1516824644017}, {"current_trial": 213, "trialdata": {"rt": -1, "trial_type": "single-stim", "word": "gangster", "stimulus": "<p id=\"stim\">GANGSTER</p>", "conditions": [12, 800, "v", 12000], "internal_node_id": "0.0-150.0", "trial": 6, "time_elapsed": 929313, "serialpos": 0, "key_press": -1, "wordID": 619, "type": "PRES_VIS", "trial_index": 213}, "uniqueid": "MTK2191:3CFJTT4SXUXT5A2CYN9JHEUO0P47I3", "dateTime": 1516824644819}, {"current_trial": 214, "trialdata": {"rt": -1, "trial_type": "single-stim", "word": "supper", "stimulus": "<p id=\"stim\">SUPPER</p>", "conditions": [12, 800, "v", 12000], "internal_node_id": "0.0-151.0", "trial": 6, "time_elapsed": 931287, "serialpos": 1, "key_press": -1, "wordID": 1410, "type": "PRES_VIS", "trial_index": 214}, "uniqueid": "MTK2191:3CFJTT4SXUXT5A2CYN9JHEUO0P47I3", "dateTime": 1516824646793}, {"current_trial": 215, "trialdata": {"rt": -1, "trial_type": "single-stim", "word": "cigar", "stimulus": "<p id=\"stim\">CIGAR</p>", "conditions": [12, 800, "v", 12000], "internal_node_id": "0.0-152.0", "trial": 6, "time_elapsed": 933153, "serialpos": 2, "key_press": -1, "wordID": 307, "type": "PRES_VIS", "trial_index": 215}, "uniqueid": "MTK2191:3CFJTT4SXUXT5A2CYN9JHEUO0P47I3", "dateTime": 1516824648659}, {"current_trial": 216, "trialdata": {"rt": -1, "trial_type": "single-stim", "word": "custard", "stimulus": "<p id=\"stim\">CUSTARD</p>", "conditions": [12, 800, "v", 12000], "internal_node_id": "0.0-153.0", "trial": 6, "time_elapsed": 935079, "serialpos": 3, "key_press": -1, "wordID": 428, "type": "PRES_VIS", "trial_index": 216}, "uniqueid": "MTK2191:3CFJTT4SXUXT5A2CYN9JHEUO0P47I3", "dateTime": 1516824650585}, {"current_trial": 217, "trialdata": {"rt": -1, "trial_type": "single-stim", "word": "church", "stimulus": "<p id=\"stim\">CHURCH</p>", "conditions": [12, 800, "v", 12000], "internal_node_id": "0.0-154.0", "trial": 6, "time_elapsed": 936745, "serialpos": 4, "key_press": -1, "wordID": 306, "type": "PRES_VIS", "trial_index": 217}, "uniqueid": "MTK2191:3CFJTT4SXUXT5A2CYN9JHEUO0P47I3", "dateTime": 1516824652251}, {"current_trial": 218, "trialdata": {"rt": -1, "trial_type": "single-stim", "word": "viking", "stimulus": "<p id=\"stim\">VIKING</p>", "conditions": [12, 800, "v", 12000], "internal_node_id": "0.0-155.0", "trial": 6, "time_elapsed": 938520, "serialpos": 5, "key_press": -1, "wordID": 1564, "type": "PRES_VIS", "trial_index": 218}, "uniqueid": "MTK2191:3CFJTT4SXUXT5A2CYN9JHEUO0P47I3", "dateTime": 1516824654026}, {"current_trial": 219, "trialdata": {"rt": -1, "trial_type": "single-stim", "word": "scalpel", "stimulus": "<p id=\"stim\">SCALPEL</p>", "conditions": [12, 800, "v", 12000], "internal_node_id": "0.0-156.0", "trial": 6, "time_elapsed": 940466, "serialpos": 6, "key_press": -1, "wordID": 1242, "type": "PRES_VIS", "trial_index": 219}, "uniqueid": "MTK2191:3CFJTT4SXUXT5A2CYN9JHEUO0P47I3", "dateTime": 1516824655972}, {"current_trial": 220, "trialdata": {"rt": -1, "trial_type": "single-stim", "word": "razor", "stimulus": "<p id=\"stim\">RAZOR</p>", "conditions": [12, 800, "v", 12000], "internal_node_id": "0.0-157.0", "trial": 6, "time_elapsed": 942123, "serialpos": 7, "key_press": -1, "wordID": 1170, "type": "PRES_VIS", "trial_index": 220}, "uniqueid": "MTK2191:3CFJTT4SXUXT5A2CYN9JHEUO0P47I3", "dateTime": 1516824657629}, {"current_trial": 221, "trialdata": {"rt": -1, "trial_type": "single-stim", "word": "machine", "stimulus": "<p id=\"stim\">MACHINE</p>", "conditions": [12, 800, "v", 12000], "internal_node_id": "0.0-158.0", "trial": 6, "time_elapsed": 943769, "serialpos": 8, "key_press": -1, "wordID": 851, "type": "PRES_VIS", "trial_index": 221}, "uniqueid": "MTK2191:3CFJTT4SXUXT5A2CYN9JHEUO0P47I3", "dateTime": 1516824659276}, {"current_trial": 222, "trialdata": {"rt": -1, "trial_type": "single-stim", "word": "chapel", "stimulus": "<p id=\"stim\">CHAPEL</p>", "conditions": [12, 800, "v", 12000], "internal_node_id": "0.0-159.0", "trial": 6, "time_elapsed": 945402, "serialpos": 9, "key_press": -1, "wordID": 279, "type": "PRES_VIS", "trial_index": 222}, "uniqueid": "MTK2191:3CFJTT4SXUXT5A2CYN9JHEUO0P47I3", "dateTime": 1516824660908}, {"current_trial": 223, "trialdata": {"rt": -1, "trial_type": "single-stim", "word": "couch", "stimulus": "<p id=\"stim\">COUCH</p>", "conditions": [12, 800, "v", 12000], "internal_node_id": "0.0-160.0", "trial": 6, "time_elapsed": 947224, "serialpos": 10, "key_press": -1, "wordID": 385, "type": "PRES_VIS", "trial_index": 223}, "uniqueid": "MTK2191:3CFJTT4SXUXT5A2CYN9JHEUO0P47I3", "dateTime": 1516824662730}, {"current_trial": 224, "trialdata": {"rt": -1, "trial_type": "single-stim", "word": "switch", "stimulus": "<p id=\"stim\">SWITCH</p>", "conditions": [12, 800, "v", 12000], "internal_node_id": "0.0-161.0", "trial": 6, "time_elapsed": 948914, "serialpos": 11, "key_press": -1, "wordID": 1421, "type": "PRES_VIS", "trial_index": 224}, "uniqueid": "MTK2191:3CFJTT4SXUXT5A2CYN9JHEUO0P47I3", "dateTime": 1516824664420}, {"current_trial": 225, "trialdata": {"rt": -1, "trial_type": "single-stim", "stimulus": "", "internal_node_id": "0.0-162.0-0.0", "time_elapsed": 951061, "key_press": -1, "type": "PRE_RECALL_DELAY", "trial_index": 225}, "uniqueid": "MTK2191:3CFJTT4SXUXT5A2CYN9JHEUO0P47I3", "dateTime": 1516824666568}, {"current_trial": 226, "trialdata": {"rt": -1000, "trial_type": "single-audio", "stimulus": "/static/audio/400Hz.wav", "internal_node_id": "0.0-163.0", "time_elapsed": 951563, "key_press": -1, "type": "PRE_RECALL_ALERT", "trial_index": 226}, "uniqueid": "MTK2191:3CFJTT4SXUXT5A2CYN9JHEUO0P47I3", "dateTime": 1516824667069}, {"current_trial": 227, "trialdata": {"rt": [5979, 8258, 9996, 11404, 15825, 17155, 18417, 19991], "recwords": ["gangster", "cigar", "custard", "viking", "scalpel", "machine", "couch", "switch"], "key_times": [4171, 4258, 4544, 4691, 4898, 5045, 5162, 5271, 5979, 6354, 6508, 6947, 7087, 7174, 7317, 7455, 7556, 7701, 8258, 8672, 8820, 8918, 9039, 9132, 9373, 9580, 9996, 10476, 10588, 10778, 10976, 11065, 11248, 11404, 11751, 11958, 12058, 12295, 12654, 13144, 13397, 13518, 13928, 14075, 14234, 14583, 14859, 15047, 15171, 15825, 16359, 16465, 16632, 16724, 16785, 16927, 17031, 17155, 17559, 17858, 17966, 18104, 18195, 18417, 19047, 19249, 19348, 19452, 19667, 19787, 19991], "trial_type": "free-recall", "conditions": [12, 800, "v", 12000], "internal_node_id": "0.0-164.0-0.0", "key_presses": [71, 65, 78, 71, 83, 84, 69, 82, 13, 71, 73, 8, 8, 67, 73, 71, 65, 82, 13, 67, 85, 83, 84, 65, 82, 68, 13, 86, 73, 75, 73, 78, 71, 13, 83, 67, 65, 76, 8, 80, 69, 76, 8, 8, 8, 76, 80, 69, 76, 13, 77, 65, 67, 72, 73, 78, 69, 13, 67, 79, 85, 67, 72, 13, 83, 87, 73, 84, 67, 72, 13], "trial": 6, "time_elapsed": 1011568, "type": "FREE_RECALL", "trial_index": 227}, "uniqueid": "MTK2191:3CFJTT4SXUXT5A2CYN9JHEUO0P47I3", "dateTime": 1516824727081}, {"current_trial": 228, "trialdata": {"rt": 1286, "trial_type": "text", "internal_node_id": "0.0-165.0", "time_elapsed": 1014862, "key_press": 32, "type": "INSTRUCTIONS", "trial_index": 228}, "uniqueid": "MTK2191:3CFJTT4SXUXT5A2CYN9JHEUO0P47I3", "dateTime": 1516824730368}, {"current_trial": 229, "trialdata": {"rt": [1928, 3963, 8833, 10858, 13066, 16216, 19517, 22652, 23990], "trial_type": "math-distractor", "key_times": [1607, 1755, 1928, 3720, 3963, 8482, 8615, 8833, 10470, 10681, 10858, 12724, 12843, 13066, 15884, 15985, 16216, 19145, 19262, 19517, 22278, 22366, 22652, 23693, 23847, 23990], "responses": ["11", "6", "16", "10", "16", "15", "15", "13", "11"], "num2": [1, 3, 2, 1, 4, 5, 9, 7, 5, 9], "num3": [9, 1, 6, 7, 8, 8, 5, 2, 5, 3], "conditions": [12, 1600, "v", 24000], "internal_node_id": "0.0-166.0", "key_presses": [97, 97, 13, 102, 13, 97, 102, 13, 97, 96, 13, 97, 102, 13, 97, 101, 13, 97, 101, 13, 97, 99, 13, 97, 97, 13], "trial": 7, "time_elapsed": 1040866, "type": "DISTRACTOR", "trial_index": 229, "num1": [1, 2, 8, 2, 4, 2, 1, 4, 1, 1]}, "uniqueid": "MTK2191:3CFJTT4SXUXT5A2CYN9JHEUO0P47I3", "dateTime": 1516824756372}, {"current_trial": 230, "trialdata": {"rt": -1, "trial_type": "single-stim", "stimulus": "<p id=\"stim\">10</p>", "internal_node_id": "0.0-167.0-0.0", "time_elapsed": 1043869, "key_press": -1, "trial_index": 230}, "uniqueid": "MTK2191:3CFJTT4SXUXT5A2CYN9JHEUO0P47I3", "dateTime": 1516824759376}, {"current_trial": 231, "trialdata": {"rt": -1, "trial_type": "single-stim", "stimulus": "<p id=\"stim\">9</p>", "internal_node_id": "0.0-167.0-1.0", "time_elapsed": 1044871, "key_press": -1, "trial_index": 231}, "uniqueid": "MTK2191:3CFJTT4SXUXT5A2CYN9JHEUO0P47I3", "dateTime": 1516824760378}, {"current_trial": 232, "trialdata": {"rt": -1, "trial_type": "single-stim", "stimulus": "<p id=\"stim\">8</p>", "internal_node_id": "0.0-167.0-2.0", "time_elapsed": 1045873, "key_press": -1, "trial_index": 232}, "uniqueid": "MTK2191:3CFJTT4SXUXT5A2CYN9JHEUO0P47I3", "dateTime": 1516824761379}, {"current_trial": 233, "trialdata": {"rt": -1, "trial_type": "single-stim", "stimulus": "<p id=\"stim\">7</p>", "internal_node_id": "0.0-167.0-3.0", "time_elapsed": 1046875, "key_press": -1, "trial_index": 233}, "uniqueid": "MTK2191:3CFJTT4SXUXT5A2CYN9JHEUO0P47I3", "dateTime": 1516824762381}, {"current_trial": 234, "trialdata": {"rt": -1, "trial_type": "single-stim", "stimulus": "<p id=\"stim\">6</p>", "internal_node_id": "0.0-167.0-4.0", "time_elapsed": 1047877, "key_press": -1, "trial_index": 234}, "uniqueid": "MTK2191:3CFJTT4SXUXT5A2CYN9JHEUO0P47I3", "dateTime": 1516824763384}, {"current_trial": 235, "trialdata": {"rt": -1, "trial_type": "single-stim", "stimulus": "<p id=\"stim\">5</p>", "internal_node_id": "0.0-167.0-5.0", "time_elapsed": 1048880, "key_press": -1, "trial_index": 235}, "uniqueid": "MTK2191:3CFJTT4SXUXT5A2CYN9JHEUO0P47I3", "dateTime": 1516824764386}, {"current_trial": 236, "trialdata": {"rt": -1, "trial_type": "single-stim", "stimulus": "<p id=\"stim\">4</p>", "internal_node_id": "0.0-167.0-6.0", "time_elapsed": 1049881, "key_press": -1, "trial_index": 236}, "uniqueid": "MTK2191:3CFJTT4SXUXT5A2CYN9JHEUO0P47I3", "dateTime": 1516824765387}, {"current_trial": 237, "trialdata": {"rt": -1, "trial_type": "single-stim", "stimulus": "<p id=\"stim\">3</p>", "internal_node_id": "0.0-167.0-7.0", "time_elapsed": 1050883, "key_press": -1, "trial_index": 237}, "uniqueid": "MTK2191:3CFJTT4SXUXT5A2CYN9JHEUO0P47I3", "dateTime": 1516824766390}, {"current_trial": 238, "trialdata": {"rt": -1, "trial_type": "single-stim", "stimulus": "<p id=\"stim\">2</p>", "internal_node_id": "0.0-167.0-8.0", "time_elapsed": 1051886, "key_press": -1, "trial_index": 238}, "uniqueid": "MTK2191:3CFJTT4SXUXT5A2CYN9JHEUO0P47I3", "dateTime": 1516824767392}, {"current_trial": 239, "trialdata": {"rt": -1, "trial_type": "single-stim", "stimulus": "<p id=\"stim\">1</p>", "internal_node_id": "0.0-167.0-9.0", "time_elapsed": 1052888, "key_press": -1, "trial_index": 239}, "uniqueid": "MTK2191:3CFJTT4SXUXT5A2CYN9JHEUO0P47I3", "dateTime": 1516824768394}, {"current_trial": 240, "trialdata": {"rt": -1, "trial_type": "single-stim", "stimulus": "<p id=\"stim\">+</p>", "internal_node_id": "0.0-168.0-0.0", "time_elapsed": 1054389, "key_press": -1, "type": "FIXATION", "trial_index": 240}, "uniqueid": "MTK2191:3CFJTT4SXUXT5A2CYN9JHEUO0P47I3", "dateTime": 1516824769896}, {"current_trial": 241, "trialdata": {"rt": -1, "trial_type": "single-stim", "word": "hound", "stimulus": "<p id=\"stim\">HOUND</p>", "conditions": [12, 1600, "v", 24000], "internal_node_id": "0.0-169.0", "trial": 7, "time_elapsed": 1055991, "serialpos": 0, "key_press": -1, "wordID": 723, "type": "PRES_VIS", "trial_index": 241}, "uniqueid": "MTK2191:3CFJTT4SXUXT5A2CYN9JHEUO0P47I3", "dateTime": 1516824771497}, {"current_trial": 242, "trialdata": {"rt": -1, "trial_type": "single-stim", "word": "apple", "stimulus": "<p id=\"stim\">APPLE</p>", "conditions": [12, 1600, "v", 24000], "internal_node_id": "0.0-170.0", "trial": 7, "time_elapsed": 1058478, "serialpos": 1, "key_press": -1, "wordID": 32, "type": "PRES_VIS", "trial_index": 242}, "uniqueid": "MTK2191:3CFJTT4SXUXT5A2CYN9JHEUO0P47I3", "dateTime": 1516824773985}, {"current_trial": 243, "trialdata": {"rt": -1, "trial_type": "single-stim", "word": "antler", "stimulus": "<p id=\"stim\">ANTLER</p>", "conditions": [12, 1600, "v", 24000], "internal_node_id": "0.0-171.0", "trial": 7, "time_elapsed": 1061184, "serialpos": 2, "key_press": -1, "wordID": 28, "type": "PRES_VIS", "trial_index": 243}, "uniqueid": "MTK2191:3CFJTT4SXUXT5A2CYN9JHEUO0P47I3", "dateTime": 1516824776691}, {"current_trial": 244, "trialdata": {"rt": -1, "trial_type": "single-stim", "word": "suitcase", "stimulus": "<p id=\"stim\">SUITCASE</p>", "conditions": [12, 1600, "v", 24000], "internal_node_id": "0.0-172.0", "trial": 7, "time_elapsed": 1063935, "serialpos": 3, "key_press": -1, "wordID": 1402, "type": "PRES_VIS", "trial_index": 244}, "uniqueid": "MTK2191:3CFJTT4SXUXT5A2CYN9JHEUO0P47I3", "dateTime": 1516824779441}, {"current_trial": 245, "trialdata": {"rt": -1, "trial_type": "single-stim", "word": "canal", "stimulus": "<p id=\"stim\">CANAL</p>", "conditions": [12, 1600, "v", 24000], "internal_node_id": "0.0-173.0", "trial": 7, "time_elapsed": 1066655, "serialpos": 4, "key_press": -1, "wordID": 225, "type": "PRES_VIS", "trial_index": 245}, "uniqueid": "MTK2191:3CFJTT4SXUXT5A2CYN9JHEUO0P47I3", "dateTime": 1516824782162}, {"current_trial": 246, "trialdata": {"rt": -1, "trial_type": "single-stim", "word": "tutu", "stimulus": "<p id=\"stim\">TUTU</p>", "conditions": [12, 1600, "v", 24000], "internal_node_id": "0.0-174.0", "trial": 7, "time_elapsed": 1069452, "serialpos": 5, "key_press": -1, "wordID": 1523, "type": "PRES_VIS", "trial_index": 246}, "uniqueid": "MTK2191:3CFJTT4SXUXT5A2CYN9JHEUO0P47I3", "dateTime": 1516824784958}, {"current_trial": 247, "trialdata": {"rt": -1, "trial_type": "single-stim", "word": "crab", "stimulus": "<p id=\"stim\">CRAB</p>", "conditions": [12, 1600, "v", 24000], "internal_node_id": "0.0-175.0", "trial": 7, "time_elapsed": 1072075, "serialpos": 6, "key_press": -1, "wordID": 396, "type": "PRES_VIS", "trial_index": 247}, "uniqueid": "MTK2191:3CFJTT4SXUXT5A2CYN9JHEUO0P47I3", "dateTime": 1516824787581}, {"current_trial": 248, "trialdata": {"rt": -1, "trial_type": "single-stim", "word": "luggage", "stimulus": "<p id=\"stim\">LUGGAGE</p>", "conditions": [12, 1600, "v", 24000], "internal_node_id": "0.0-176.0", "trial": 7, "time_elapsed": 1074587, "serialpos": 7, "key_press": -1, "wordID": 846, "type": "PRES_VIS", "trial_index": 248}, "uniqueid": "MTK2191:3CFJTT4SXUXT5A2CYN9JHEUO0P47I3", "dateTime": 1516824790093}, {"current_trial": 249, "trialdata": {"rt": -1, "trial_type": "single-stim", "word": "rod", "stimulus": "<p id=\"stim\">ROD</p>", "conditions": [12, 1600, "v", 24000], "internal_node_id": "0.0-177.0", "trial": 7, "time_elapsed": 1077209, "serialpos": 8, "key_press": -1, "wordID": 1202, "type": "PRES_VIS", "trial_index": 249}, "uniqueid": "MTK2191:3CFJTT4SXUXT5A2CYN9JHEUO0P47I3", "dateTime": 1516824792715}, {"current_trial": 250, "trialdata": {"rt": -1, "trial_type": "single-stim", "word": "spool", "stimulus": "<p id=\"stim\">SPOOL</p>", "conditions": [12, 1600, "v", 24000], "internal_node_id": "0.0-178.0", "trial": 7, "time_elapsed": 1079831, "serialpos": 9, "key_press": -1, "wordID": 1355, "type": "PRES_VIS", "trial_index": 250}, "uniqueid": "MTK2191:3CFJTT4SXUXT5A2CYN9JHEUO0P47I3", "dateTime": 1516824795337}, {"current_trial": 251, "trialdata": {"rt": -1, "trial_type": "single-stim", "word": "turtle", "stimulus": "<p id=\"stim\">TURTLE</p>", "conditions": [12, 1600, "v", 24000], "internal_node_id": "0.0-179.0", "trial": 7, "time_elapsed": 1082356, "serialpos": 10, "key_press": -1, "wordID": 1521, "type": "PRES_VIS", "trial_index": 251}, "uniqueid": "MTK2191:3CFJTT4SXUXT5A2CYN9JHEUO0P47I3", "dateTime": 1516824797862}, {"current_trial": 252, "trialdata": {"rt": -1, "trial_type": "single-stim", "word": "police", "stimulus": "<p id=\"stim\">POLICE</p>", "conditions": [12, 1600, "v", 24000], "internal_node_id": "0.0-180.0", "trial": 7, "time_elapsed": 1084995, "serialpos": 11, "key_press": -1, "wordID": 1097, "type": "PRES_VIS", "trial_index": 252}, "uniqueid": "MTK2191:3CFJTT4SXUXT5A2CYN9JHEUO0P47I3", "dateTime": 1516824800502}, {"current_trial": 253, "trialdata": {"rt": -1, "trial_type": "single-stim", "stimulus": "", "internal_node_id": "0.0-181.0-0.0", "time_elapsed": 1087362, "key_press": -1, "type": "PRE_RECALL_DELAY", "trial_index": 253}, "uniqueid": "MTK2191:3CFJTT4SXUXT5A2CYN9JHEUO0P47I3", "dateTime": 1516824802869}, {"current_trial": 254, "trialdata": {"rt": -1000, "trial_type": "single-audio", "stimulus": "/static/audio/400Hz.wav", "internal_node_id": "0.0-182.0", "time_elapsed": 1087864, "key_pre