{"assignmentId": "3U0SRXB7CECV1UXI4HKHR3H5OJLNRU", "workerId": "MTK2429", "questiondata": {"avail_screen_height": 744, "color_depth": 24, "screen_width": 1366, "pixel_depth": 24, "avail_screen_width": 1366, "screen_height": 768}, "bonus": 0, "hitId": "31SIZS5W59MEH7CGU77W6DGQAS4RQJ", "counterbalance": 139, "useragent": "Mozilla/5.0 (X11; Linux x86_64) AppleWebKit/537.36 (KHTML, like Gecko) Chrome/64.0.3282.119 Safari/537.36", "eventdata": [{"eventtype": "initialized", "interval": 0, "value": null, "timestamp": 1517248652894}, {"eventtype": "window_resize", "interval": 0, "value": [1366, 716], "timestamp": 1517248652894}], "data": [{"current_trial": 0, "trialdata": {"rt": 4089, "trial_type": "text", "internal_node_id": "0.0-0.0", "time_elapsed": 4094, "key_press": 13, "type": "INSTRUCTIONS", "trial_index": 0}, "uniqueid": "MTK2429:3U0SRXB7CECV1UXI4HKHR3H5OJLNRU", "dateTime": 1517248674420}, {"current_trial": 1, "trialdata": {"rt": 74513, "trial_type": "text", "internal_node_id": "0.0-1.0", "time_elapsed": 78610, "key_press": 13, "type": "INSTRUCTIONS", "trial_index": 1}, "uniqueid": "MTK2429:3U0SRXB7CECV1UXI4HKHR3H5OJLNRU", "dateTime": 1517248748937}, {"current_trial": 2, "trialdata": {"rt": [10293], "trial_type": "audio-test", "responses": ["ocean"], "internal_node_id": "0.0-2.0", "time_elapsed": 88942, "type": "AUDIO_TEST", "trial_index": 2}, "uniqueid": "MTK2429:3U0SRXB7CECV1UXI4HKHR3H5OJLNRU", "dateTime": 1517248759268}, {"current_trial": 3, "trialdata": {"rt": [7287], "trial_type": "audio-test", "responses": ["crystal"], "internal_node_id": "0.0-3.0", "time_elapsed": 96246, "type": "AUDIO_TEST", "trial_index": 3}, "uniqueid": "MTK2429:3U0SRXB7CECV1UXI4HKHR3H5OJLNRU", "dateTime": 1517248766572}, {"current_trial": 4, "trialdata": {"rt": [6831], "trial_type": "audio-test", "responses": ["spice"], "internal_node_id": "0.0-4.0", "time_elapsed": 103094, "type": "AUDIO_TEST", "trial_index": 4}, "uniqueid": "MTK2429:3U0SRXB7CECV1UXI4HKHR3H5OJLNRU", "dateTime": 1517248773419}, {"current_trial": 5, "trialdata": {"rt": 48831, "trial_type": "survey-text", "responses": "{\"Q0\":\"11:30\",\"Q1\":\"9\",\"Q2\":\"5\"}", "internal_node_id": "0.0-5.0", "time_elapsed": 152683, "type": "SLEEP_SURVEY", "trial_index": 5}, "uniqueid": "MTK2429:3U0SRXB7CECV1UXI4HKHR3H5OJLNRU", "dateTime": 1517248823008}, {"current_trial": 6, "trialdata": {"rt": 178567, "trial_type": "text", "internal_node_id": "0.0-6.0", "time_elapsed": 332252, "key_press": 13, "type": "INSTRUCTIONS", "trial_index": 6}, "uniqueid": "MTK2429:3U0SRXB7CECV1UXI4HKHR3H5OJLNRU", "dateTime": 1517249002577}, {"current_trial": 7, "trialdata": {"rt": 44407, "trial_type": "text", "internal_node_id": "0.0-7.0", "time_elapsed": 377162, "key_press": 13, "type": "INSTRUCTIONS", "trial_index": 7}, "uniqueid": "MTK2429:3U0SRXB7CECV1UXI4HKHR3H5OJLNRU", "dateTime": 1517249047487}, {"current_trial": 8, "trialdata": {"rt": 19114, "trial_type": "text", "internal_node_id": "0.0-8.0", "time_elapsed": 396777, "key_press": 13, "type": "INSTRUCTIONS", "trial_index": 8}, "uniqueid": "MTK2429:3U0SRXB7CECV1UXI4HKHR3H5OJLNRU", "dateTime": 1517249067102}, {"current_trial": 9, "trialdata": {"rt": [5251, 10468, 15471], "trial_type": "math-distractor", "key_times": [4075, 4307, 5251, 8069, 8252, 10468, 14192, 14365, 15471], "responses": ["16", "11", "11"], "num2": [3, 2, 3, 4], "num3": [8, 6, 1, 6], "conditions": [18, 1200, "a", 18000], "internal_node_id": "0.0-9.0", "key_presses": [97, 102, 13, 97, 97, 13, 97, 97, 13], "trial": 0, "time_elapsed": 415801, "type": "DISTRACTOR", "trial_index": 9, "num1": [5, 3, 7, 5]}, "uniqueid": "MTK2429:3U0SRXB7CECV1UXI4HKHR3H5OJLNRU", "dateTime": 1517249086128}, {"current_trial": 10, "trialdata": {"rt": -1, "trial_type": "single-stim", "stimulus": "<p id=\"stim\">10</p>", "internal_node_id": "0.0-10.0-0.0", "time_elapsed": 418807, "key_press": -1, "trial_index": 10}, "uniqueid": "MTK2429:3U0SRXB7CECV1UXI4HKHR3H5OJLNRU", "dateTime": 1517249089132}, {"current_trial": 11, "trialdata": {"rt": -1, "trial_type": "single-stim", "stimulus": "<p id=\"stim\">9</p>", "internal_node_id": "0.0-10.0-1.0", "time_elapsed": 419809, "key_press": -1, "trial_index": 11}, "uniqueid": "MTK2429:3U0SRXB7CECV1UXI4HKHR3H5OJLNRU", "dateTime": 1517249090134}, {"current_trial": 12, "trialdata": {"rt": -1, "trial_type": "single-stim", "stimulus": "<p id=\"stim\">8</p>", "internal_node_id": "0.0-10.0-2.0", "time_elapsed": 420811, "key_press": -1, "trial_index": 12}, "uniqueid": "MTK2429:3U0SRXB7CECV1UXI4HKHR3H5OJLNRU", "dateTime": 1517249091136}, {"current_trial": 13, "trialdata": {"rt": -1, "trial_type": "single-stim", "stimulus": "<p id=\"stim\">7</p>", "internal_node_id": "0.0-10.0-3.0", "time_elapsed": 421812, "key_press": -1, "trial_index": 13}, "uniqueid": "MTK2429:3U0SRXB7CECV1UXI4HKHR3H5OJLNRU", "dateTime": 1517249092137}, {"current_trial": 14, "trialdata": {"rt": -1, "trial_type": "single-stim", "stimulus": "<p id=\"stim\">6</p>", "internal_node_id": "0.0-10.0-4.0", "time_elapsed": 422814, "key_press": -1, "trial_index": 14}, "uniqueid": "MTK2429:3U0SRXB7CECV1UXI4HKHR3H5OJLNRU", "dateTime": 1517249093139}, {"current_trial": 15, "trialdata": {"rt": -1, "trial_type": "single-stim", "stimulus": "<p id=\"stim\">5</p>", "internal_node_id": "0.0-10.0-5.0", "time_elapsed": 423815, "key_press": -1, "trial_index": 15}, "uniqueid": "MTK2429:3U0SRXB7CECV1UXI4HKHR3H5OJLNRU", "dateTime": 1517249094140}, {"current_trial": 16, "trialdata": {"rt": -1, "trial_type": "single-stim", "stimulus": "<p id=\"stim\">4</p>", "internal_node_id": "0.0-10.0-6.0", "time_elapsed": 424817, "key_press": -1, "trial_index": 16}, "uniqueid": "MTK2429:3U0SRXB7CECV1UXI4HKHR3H5OJLNRU", "dateTime": 1517249095142}, {"current_trial": 17, "trialdata": {"rt": -1, "trial_type": "single-stim", "stimulus": "<p id=\"stim\">3</p>", "internal_node_id": "0.0-10.0-7.0", "time_elapsed": 425820, "key_press": -1, "trial_index": 17}, "uniqueid": "MTK2429:3U0SRXB7CECV1UXI4HKHR3H5OJLNRU", "dateTime": 1517249096146}, {"current_trial": 18, "trialdata": {"rt": -1, "trial_type": "single-stim", "stimulus": "<p id=\"stim\">2</p>", "internal_node_id": "0.0-10.0-8.0", "time_elapsed": 426822, "key_press": -1, "trial_index": 18}, "uniqueid": "MTK2429:3U0SRXB7CECV1UXI4HKHR3H5OJLNRU", "dateTime": 1517249097147}, {"current_trial": 19, "trialdata": {"rt": -1, "trial_type": "single-stim", "stimulus": "<p id=\"stim\">1</p>", "internal_node_id": "0.0-10.0-9.0", "time_elapsed": 427824, "key_press": -1, "trial_index": 19}, "uniqueid": "MTK2429:3U0SRXB7CECV1UXI4HKHR3H5OJLNRU", "dateTime": 1517249098149}, {"current_trial": 20, "trialdata": {"rt": -1, "trial_type": "single-stim", "stimulus": "<p id=\"stim\">+</p>", "internal_node_id": "0.0-11.0-0.0", "time_elapsed": 429325, "key_press": -1, "type": "FIXATION", "trial_index": 20}, "uniqueid": "MTK2429:3U0SRXB7CECV1UXI4HKHR3H5OJLNRU", "dateTime": 1517249099651}, {"current_trial": 21, "trialdata": {"rt": -1000, "trial_type": "single-audio", "word": "laser", "stimulus": "/static/audio/wordpool/LASER.wav", "conditions": [18, 1200, "a", 18000], "internal_node_id": "0.0-12.0", "trial": 0, "time_elapsed": 431545, "serialpos": 0, "key_press": -1, "wordID": 800, "type": "PRES_AUD", "trial_index": 21}, "uniqueid": "MTK2429:3U0SRXB7CECV1UXI4HKHR3H5OJLNRU", "dateTime": 1517249101871}, {"current_trial": 22, "trialdata": {"rt": -1000, "trial_type": "single-audio", "word": "dress", "stimulus": "/static/audio/wordpool/DRESS.wav", "conditions": [18, 1200, "a", 18000], "internal_node_id": "0.0-13.0", "trial": 0, "time_elapsed": 433846, "serialpos": 1, "key_press": -1, "wordID": 494, "type": "PRES_AUD", "trial_index": 22}, "uniqueid": "MTK2429:3U0SRXB7CECV1UXI4HKHR3H5OJLNRU", "dateTime": 1517249104171}, {"current_trial": 23, "trialdata": {"rt": -1000, "trial_type": "single-audio", "word": "clam", "stimulus": "/static/audio/wordpool/CLAM.wav", "conditions": [18, 1200, "a", 18000], "internal_node_id": "0.0-14.0", "trial": 0, "time_elapsed": 435952, "serialpos": 2, "key_press": -1, "wordID": 314, "type": "PRES_AUD", "trial_index": 23}, "uniqueid": "MTK2429:3U0SRXB7CECV1UXI4HKHR3H5OJLNRU", "dateTime": 1517249106277}, {"current_trial": 24, "trialdata": {"rt": -1000, "trial_type": "single-audio", "word": "tablet", "stimulus": "/static/audio/wordpool/TABLET.wav", "conditions": [18, 1200, "a", 18000], "internal_node_id": "0.0-15.0", "trial": 0, "time_elapsed": 438329, "serialpos": 3, "key_press": -1, "wordID": 1426, "type": "PRES_AUD", "trial_index": 24}, "uniqueid": "MTK2429:3U0SRXB7CECV1UXI4HKHR3H5OJLNRU", "dateTime": 1517249108654}, {"current_trial": 25, "trialdata": {"rt": -1000, "trial_type": "single-audio", "word": "lion", "stimulus": "/static/audio/wordpool/LION.wav", "conditions": [18, 1200, "a", 18000], "internal_node_id": "0.0-16.0", "trial": 0, "time_elapsed": 440479, "serialpos": 4, "key_press": -1, "wordID": 826, "type": "PRES_AUD", "trial_index": 25}, "uniqueid": "MTK2429:3U0SRXB7CECV1UXI4HKHR3H5OJLNRU", "dateTime": 1517249110804}, {"current_trial": 26, "trialdata": {"rt": -1000, "trial_type": "single-audio", "word": "garden", "stimulus": "/static/audio/wordpool/GARDEN.wav", "conditions": [18, 1200, "a", 18000], "internal_node_id": "0.0-17.0", "trial": 0, "time_elapsed": 442680, "serialpos": 5, "key_press": -1, "wordID": 622, "type": "PRES_AUD", "trial_index": 26}, "uniqueid": "MTK2429:3U0SRXB7CECV1UXI4HKHR3H5OJLNRU", "dateTime": 1517249113006}, {"current_trial": 27, "trialdata": {"rt": -1000, "trial_type": "single-audio", "word": "sphinx", "stimulus": "/static/audio/wordpool/SPHINX.wav", "conditions": [18, 1200, "a", 18000], "internal_node_id": "0.0-18.0", "trial": 0, "time_elapsed": 444926, "serialpos": 6, "key_press": -1, "wordID": 1348, "type": "PRES_AUD", "trial_index": 27}, "uniqueid": "MTK2429:3U0SRXB7CECV1UXI4HKHR3H5OJLNRU", "dateTime": 1517249115251}, {"current_trial": 28, "trialdata": {"rt": -1000, "trial_type": "single-audio", "word": "buggy", "stimulus": "/static/audio/wordpool/BUGGY.wav", "conditions": [18, 1200, "a", 18000], "internal_node_id": "0.0-19.0", "trial": 0, "time_elapsed": 447190, "serialpos": 7, "key_press": -1, "wordID": 187, "type": "PRES_AUD", "trial_index": 28}, "uniqueid": "MTK2429:3U0SRXB7CECV1UXI4HKHR3H5OJLNRU", "dateTime": 1517249117515}, {"current_trial": 29, "trialdata": {"rt": -1000, "trial_type": "single-audio", "word": "poison", "stimulus": "/static/audio/wordpool/POISON.wav", "conditions": [18, 1200, "a", 18000], "internal_node_id": "0.0-20.0", "trial": 0, "time_elapsed": 449296, "serialpos": 8, "key_press": -1, "wordID": 1095, "type": "PRES_AUD", "trial_index": 29}, "uniqueid": "MTK2429:3U0SRXB7CECV1UXI4HKHR3H5OJLNRU", "dateTime": 1517249119621}, {"current_trial": 30, "trialdata": {"rt": -1000, "trial_type": "single-audio", "word": "pigment", "stimulus": "/static/audio/wordpool/PIGMENT.wav", "conditions": [18, 1200, "a", 18000], "internal_node_id": "0.0-21.0", "trial": 0, "time_elapsed": 451367, "serialpos": 9, "key_press": -1, "wordID": 1065, "type": "PRES_AUD", "trial_index": 30}, "uniqueid": "MTK2429:3U0SRXB7CECV1UXI4HKHR3H5OJLNRU", "dateTime": 1517249121692}, {"current_trial": 31, "trialdata": {"rt": -1000, "trial_type": "single-audio", "word": "cabbage", "stimulus": "/static/audio/wordpool/CABBAGE.wav", "conditions": [18, 1200, "a", 18000], "internal_node_id": "0.0-22.0", "trial": 0, "time_elapsed": 453449, "serialpos": 10, "key_press": -1, "wordID": 209, "type": "PRES_AUD", "trial_index": 31}, "uniqueid": "MTK2429:3U0SRXB7CECV1UXI4HKHR3H5OJLNRU", "dateTime": 1517249123774}, {"current_trial": 32, "trialdata": {"rt": -1000, "trial_type": "single-audio", "word": "victim", "stimulus": "/static/audio/wordpool/VICTIM.wav", "conditions": [18, 1200, "a", 18000], "internal_node_id": "0.0-23.0", "trial": 0, "time_elapsed": 455546, "serialpos": 11, "key_press": -1, "wordID": 1561, "type": "PRES_AUD", "trial_index": 32}, "uniqueid": "MTK2429:3U0SRXB7CECV1UXI4HKHR3H5OJLNRU", "dateTime": 1517249125871}, {"current_trial": 33, "trialdata": {"rt": -1000, "trial_type": "single-audio", "word": "pliers", "stimulus": "/static/audio/wordpool/PLIERS.wav", "conditions": [18, 1200, "a", 18000], "internal_node_id": "0.0-24.0", "trial": 0, "time_elapsed": 457707, "serialpos": 12, "key_press": -1, "wordID": 1088, "type": "PRES_AUD", "trial_index": 33}, "uniqueid": "MTK2429:3U0SRXB7CECV1UXI4HKHR3H5OJLNRU", "dateTime": 1517249128032}, {"current_trial": 34, "trialdata": {"rt": -1000, "trial_type": "single-audio", "word": "mattress", "stimulus": "/static/audio/wordpool/MATTRESS.wav", "conditions": [18, 1200, "a", 18000], "internal_node_id": "0.0-25.0", "trial": 0, "time_elapsed": 460030, "serialpos": 13, "key_press": -1, "wordID": 878, "type": "PRES_AUD", "trial_index": 34}, "uniqueid": "MTK2429:3U0SRXB7CECV1UXI4HKHR3H5OJLNRU", "dateTime": 1517249130356}, {"current_trial": 35, "trialdata": {"rt": -1000, "trial_type": "single-audio", "word": "cousin", "stimulus": "/static/audio/wordpool/COUSIN.wav", "conditions": [18, 1200, "a", 18000], "internal_node_id": "0.0-26.0", "trial": 0, "time_elapsed": 462208, "serialpos": 14, "key_press": -1, "wordID": 391, "type": "PRES_AUD", "trial_index": 35}, "uniqueid": "MTK2429:3U0SRXB7CECV1UXI4HKHR3H5OJLNRU", "dateTime": 1517249132533}, {"current_trial": 36, "trialdata": {"rt": -1000, "trial_type": "single-audio", "word": "thread", "stimulus": "/static/audio/wordpool/THREAD.wav", "conditions": [18, 1200, "a", 18000], "internal_node_id": "0.0-27.0", "trial": 0, "time_elapsed": 464346, "serialpos": 15, "key_press": -1, "wordID": 1459, "type": "PRES_AUD", "trial_index": 36}, "uniqueid": "MTK2429:3U0SRXB7CECV1UXI4HKHR3H5OJLNRU", "dateTime": 1517249134671}, {"current_trial": 37, "trialdata": {"rt": -1000, "trial_type": "single-audio", "word": "monster", "stimulus": "/static/audio/wordpool/MONSTER.wav", "conditions": [18, 1200, "a", 18000], "internal_node_id": "0.0-28.0", "trial": 0, "time_elapsed": 466552, "serialpos": 16, "key_press": -1, "wordID": 911, "type": "PRES_AUD", "trial_index": 37}, "uniqueid": "MTK2429:3U0SRXB7CECV1UXI4HKHR3H5OJLNRU", "dateTime": 1517249136877}, {"current_trial": 38, "trialdata": {"rt": -1000, "trial_type": "single-audio", "word": "cyclone", "stimulus": "/static/audio/wordpool/CYCLONE.wav", "conditions": [18, 1200, "a", 18000], "internal_node_id": "0.0-29.0", "trial": 0, "time_elapsed": 468836, "serialpos": 17, "key_press": -1, "wordID": 430, "type": "PRES_AUD", "trial_index": 38}, "uniqueid": "MTK2429:3U0SRXB7CECV1UXI4HKHR3H5OJLNRU", "dateTime": 1517249139161}, {"current_trial": 39, "trialdata": {"rt": -1, "trial_type": "single-stim", "stimulus": "", "internal_node_id": "0.0-30.0-0.0", "time_elapsed": 470089, "key_press": -1, "type": "PRE_RECALL_DELAY", "trial_index": 39}, "uniqueid": "MTK2429:3U0SRXB7CECV1UXI4HKHR3H5OJLNRU", "dateTime": 1517249140414}, {"current_trial": 40, "trialdata": {"rt": -1000, "trial_type": "single-audio", "stimulus": "/static/audio/400Hz.wav", "internal_node_id": "0.0-31.0", "time_elapsed": 470590, "key_press": -1, "type": "PRE_RECALL_ALERT", "trial_index": 40}, "uniqueid": "MTK2429:3U0SRXB7CECV1UXI4HKHR3H5OJLNRU", "dateTime": 1517249140915}, {"current_trial": 41, "trialdata": {"rt": [2343, 4345, 5588, 8160, 12350, 14769, 17112, 19276, 38012, 48210, 59126], "recwords": ["laser", "dress", "clam", "poison", "cousin", "clam", "laser", "dress", "posion", "rake", ""], "key_times": [1074, 1419, 1565, 1922, 2067, 2343, 3101, 3319, 3554, 3845, 4003, 4345, 4717, 4917, 5041, 5211, 5588, 6420, 6607, 6844, 7175, 7325, 7536, 8160, 8547, 8697, 8883, 9755, 9921, 10418, 10852, 11843, 11938, 12027, 12350, 14060, 14214, 14247, 14457, 14769, 16078, 16184, 16340, 16673, 16850, 17112, 18192, 18405, 18615, 18853, 19027, 19276, 36648, 36828, 37114, 37289, 37497, 37663, 38012, 47496, 47682, 47819, 47947, 48210, 59126], "trial_type": "free-recall", "conditions": [18, 1200, "a", 18000], "internal_node_id": "0.0-32.0-0.0", "key_presses": [76, 65, 83, 69, 82, 13, 68, 82, 69, 83, 83, 13, 67, 76, 65, 77, 13, 80, 79, 73, 83, 79, 78, 13, 67, 80, 73, 8, 8, 79, 85, 83, 73, 78, 13, 67, 76, 65, 77, 13, 76, 65, 83, 69, 82, 13, 68, 82, 69, 83, 83, 13, 80, 79, 83, 73, 79, 78, 13, 82, 65, 75, 69, 13, 13], "trial": 0, "time_elapsed": 530598, "type": "FREE_RECALL", "trial_index": 41}, "uniqueid": "MTK2429:3U0SRXB7CECV1UXI4HKHR3H5OJLNRU", "dateTime": 1517249200930}, {"current_trial": 42, "trialdata": {"rt": 2586, "trial_type": "text", "internal_node_id": "0.0-33.0", "time_elapsed": 535192, "key_press": 13, "type": "INSTRUCTIONS", "trial_index": 42}, "uniqueid": "MTK2429:3U0SRXB7CECV1UXI4HKHR3H5OJLNRU", "dateTime": 1517249205518}, {"current_trial": 43, "trialdata": {"rt": [4434, 7745, 10842], "trial_type": "math-distractor", "key_times": [3263, 3423, 4434, 7450, 7745, 10540, 10842], "responses": ["14", "7", "6"], "num2": [2, 2, 2, 7], "num3": [7, 2, 1, 7], "conditions": [18, 1200, "a", 18000], "internal_node_id": "0.0-34.0", "key_presses": [97, 100, 13, 103, 13, 102, 13], "trial": 1, "time_elapsed": 555197, "type": "DISTRACTOR", "trial_index": 43, "num1": [5, 3, 3, 8]}, "uniqueid": "MTK2429:3U0SRXB7CECV1UXI4HKHR3H5OJLNRU", "dateTime": 1517249225522}, {"current_trial": 44, "trialdata": {"rt": -1, "trial_type": "single-stim", "stimulus": "<p id=\"stim\">10</p>", "internal_node_id": "0.0-35.0-0.0", "time_elapsed": 558204, "key_press": -1, "trial_index": 44}, "uniqueid": "MTK2429:3U0SRXB7CECV1UXI4HKHR3H5OJLNRU", "dateTime": 1517249228529}, {"current_trial": 45, "trialdata": {"rt": -1, "trial_type": "single-stim", "stimulus": "<p id=\"stim\">9</p>", "internal_node_id": "0.0-35.0-1.0", "time_elapsed": 559205, "key_press": -1, "trial_index": 45}, "uniqueid": "MTK2429:3U0SRXB7CECV1UXI4HKHR3H5OJLNRU", "dateTime": 1517249229531}, {"current_trial": 46, "trialdata": {"rt": -1, "trial_type": "single-stim", "stimulus": "<p id=\"stim\">8</p>", "internal_node_id": "0.0-35.0-2.0", "time_elapsed": 560207, "key_press": -1, "trial_index": 46}, "uniqueid": "MTK2429:3U0SRXB7CECV1UXI4HKHR3H5OJLNRU", "dateTime": 1517249230532}, {"current_trial": 47, "trialdata": {"rt": -1, "trial_type": "single-stim", "stimulus": "<p id=\"stim\">7</p>", "internal_node_id": "0.0-35.0-3.0", "time_elapsed": 561208, "key_press": -1, "trial_index": 47}, "uniqueid": "MTK2429:3U0SRXB7CECV1UXI4HKHR3H5OJLNRU", "dateTime": 1517249231533}, {"current_trial": 48, "trialdata": {"rt": -1, "trial_type": "single-stim", "stimulus": "<p id=\"stim\">6</p>", "internal_node_id": "0.0-35.0-4.0", "time_elapsed": 562210, "key_press": -1, "trial_index": 48}, "uniqueid": "MTK2429:3U0SRXB7CECV1UXI4HKHR3H5OJLNRU", "dateTime": 1517249232535}, {"current_trial": 49, "trialdata": {"rt": -1, "trial_type": "single-stim", "stimulus": "<p id=\"stim\">5</p>", "internal_node_id": "0.0-35.0-5.0", "time_elapsed": 563212, "key_press": -1, "trial_index": 49}, "uniqueid": "MTK2429:3U0SRXB7CECV1UXI4HKHR3H5OJLNRU", "dateTime": 1517249233537}, {"current_trial": 50, "trialdata": {"rt": -1, "trial_type": "single-stim", "stimulus": "<p id=\"stim\">4</p>", "internal_node_id": "0.0-35.0-6.0", "time_elapsed": 564213, "key_press": -1, "trial_index": 50}, "uniqueid": "MTK2429:3U0SRXB7CECV1UXI4HKHR3H5OJLNRU", "dateTime": 1517249234538}, {"current_trial": 51, "trialdata": {"rt": -1, "trial_type": "single-stim", "stimulus": "<p id=\"stim\">3</p>", "internal_node_id": "0.0-35.0-7.0", "time_elapsed": 565215, "key_press": -1, "trial_index": 51}, "uniqueid": "MTK2429:3U0SRXB7CECV1UXI4HKHR3H5OJLNRU", "dateTime": 1517249235540}, {"current_trial": 52, "trialdata": {"rt": -1, "trial_type": "single-stim", "stimulus": "<p id=\"stim\">2</p>", "internal_node_id": "0.0-35.0-8.0", "time_elapsed": 566216, "key_press": -1, "trial_index": 52}, "uniqueid": "MTK2429:3U0SRXB7CECV1UXI4HKHR3H5OJLNRU", "dateTime": 1517249236542}, {"current_trial": 53, "trialdata": {"rt": -1, "trial_type": "single-stim", "stimulus": "<p id=\"stim\">1</p>", "internal_node_id": "0.0-35.0-9.0", "time_elapsed": 567218, "key_press": -1, "trial_index": 53}, "uniqueid": "MTK2429:3U0SRXB7CECV1UXI4HKHR3H5OJLNRU", "dateTime": 1517249237544}, {"current_trial": 54, "trialdata": {"rt": -1, "trial_type": "single-stim", "stimulus": "<p id=\"stim\">+</p>", "internal_node_id": "0.0-36.0-0.0", "time_elapsed": 568720, "key_press": -1, "type": "FIXATION", "trial_index": 54}, "uniqueid": "MTK2429:3U0SRXB7CECV1UXI4HKHR3H5OJLNRU", "dateTime": 1517249239045}, {"current_trial": 55, "trialdata": {"rt": -1000, "trial_type": "single-audio", "word": "braces", "stimulus": "/static/audio/wordpool/BRACES.wav", "conditions": [18, 1200, "a", 18000], "internal_node_id": "0.0-37.0", "trial": 1, "time_elapsed": 570725, "serialpos": 0, "key_press": -1, "wordID": 163, "type": "PRES_AUD", "trial_index": 55}, "uniqueid": "MTK2429:3U0SRXB7CECV1UXI4HKHR3H5OJLNRU", "dateTime": 1517249241050}, {"current_trial": 56, "trialdata": {"rt": -1000, "trial_type": "single-audio", "word": "mop", "stimulus": "/static/audio/wordpool/MOP.wav", "conditions": [18, 1200, "a", 18000], "internal_node_id": "0.0-38.0", "trial": 1, "time_elapsed": 573001, "serialpos": 1, "key_press": -1, "wordID": 915, "type": "PRES_AUD", "trial_index": 56}, "uniqueid": "MTK2429:3U0SRXB7CECV1UXI4HKHR3H5OJLNRU", "dateTime": 1517249243326}, {"current_trial": 57, "trialdata": {"rt": -1000, "trial_type": "single-audio", "word": "lizard", "stimulus": "/static/audio/wordpool/LIZARD.wav", "conditions": [18, 1200, "a", 18000], "internal_node_id": "0.0-39.0", "trial": 1, "time_elapsed": 575030, "serialpos": 2, "key_press": -1, "wordID": 833, "type": "PRES_AUD", "trial_index": 57}, "uniqueid": "MTK2429:3U0SRXB7CECV1UXI4HKHR3H5OJLNRU", "dateTime": 1517249245356}, {"current_trial": 58, "trialdata": {"rt": -1000, "trial_type": "single-audio", "word": "permit", "stimulus": "/static/audio/wordpool/PERMIT.wav", "conditions": [18, 1200, "a", 18000], "internal_node_id": "0.0-40.0", "trial": 1, "time_elapsed": 577129, "serialpos": 3, "key_press": -1, "wordID": 1050, "type": "PRES_AUD", "trial_index": 58}, "uniqueid": "MTK2429:3U0SRXB7CECV1UXI4HKHR3H5OJLNRU", "dateTime": 1517249247454}, {"current_trial": 59, "trialdata": {"rt": -1000, "trial_type": "single-audio", "word": "venus", "stimulus": "/static/audio/wordpool/VENUS.wav", "conditions": [18, 1200, "a", 18000], "internal_node_id": "0.0-41.0", "trial": 1, "time_elapsed": 579466, "serialpos": 4, "key_press": -1, "wordID": 1556, "type": "PRES_AUD", "trial_index": 59}, "uniqueid": "MTK2429:3U0SRXB7CECV1UXI4HKHR3H5OJLNRU", "dateTime": 1517249249792}, {"current_trial": 60, "trialdata": {"rt": -1000, "trial_type": "single-audio", "word": "chauffeur", "stimulus": "/static/audio/wordpool/CHAUFFEUR.wav", "conditions": [18, 1200, "a", 18000], "internal_node_id": "0.0-42.0", "trial": 1, "time_elapsed": 581745, "serialpos": 5, "key_press": -1, "wordID": 282, "type": "PRES_AUD", "trial_index": 60}, "uniqueid": "MTK2429:3U0SRXB7CECV1UXI4HKHR3H5OJLNRU", "dateTime": 1517249252071}, {"current_trial": 61, "trialdata": {"rt": -1000, "trial_type": "single-audio", "word": "captive", "stimulus": "/static/audio/wordpool/CAPTIVE.wav", "conditions": [18, 1200, "a", 18000], "internal_node_id": "0.0-43.0", "trial": 1, "time_elapsed": 583807, "serialpos": 6, "key_press": -1, "wordID": 239, "type": "PRES_AUD", "trial_index": 61}, "uniqueid": "MTK2429:3U0SRXB7CECV1UXI4HKHR3H5OJLNRU", "dateTime": 1517249254132}, {"current_trial": 62, "trialdata": {"rt": -1000, "trial_type": "single-audio", "word": "spider", "stimulus": "/static/audio/wordpool/SPIDER.wav", "conditions": [18, 1200, "a", 18000], "internal_node_id": "0.0-44.0", "trial": 1, "time_elapsed": 586065, "serialpos": 7, "key_press": -1, "wordID": 1350, "type": "PRES_AUD", "trial_index": 62}, "uniqueid": "MTK2429:3U0SRXB7CECV1UXI4HKHR3H5OJLNRU", "dateTime": 1517249256391}, {"current_trial": 63, "trialdata": {"rt": -1000, "trial_type": "single-audio", "word": "mammal", "stimulus": "/static/audio/wordpool/MAMMAL.wav", "conditions": [18, 1200, "a", 18000], "internal_node_id": "0.0-45.0", "trial": 1, "time_elapsed": 588402, "serialpos": 8, "key_press": -1, "wordID": 860, "type": "PRES_AUD", "trial_index": 63}, "uniqueid": "MTK2429:3U0SRXB7CECV1UXI4HKHR3H5OJLNRU", "dateTime": 1517249258727}, {"current_trial": 64, "trialdata": {"rt": -1000, "trial_type": "single-audio", "word": "parrot", "stimulus": "/static/audio/wordpool/PARROT.wav", "conditions": [18, 1200, "a", 18000], "internal_node_id": "0.0-46.0", "trial": 1, "time_elapsed": 590533, "serialpos": 9, "key_press": -1, "wordID": 1014, "type": "PRES_AUD", "trial_index": 64}, "uniqueid": "MTK2429:3U0SRXB7CECV1UXI4HKHR3H5OJLNRU", "dateTime": 1517249260858}, {"current_trial": 65, "trialdata": {"rt": -1000, "trial_type": "single-audio", "word": "sidewalk", "stimulus": "/static/audio/wordpool/SIDEWALK.wav", "conditions": [18, 1200, "a", 18000], "internal_node_id": "0.0-47.0", "trial": 1, "time_elapsed": 592878, "serialpos": 10, "key_press": -1, "wordID": 1302, "type": "PRES_AUD", "trial_index": 65}, "uniqueid": "MTK2429:3U0SRXB7CECV1UXI4HKHR3H5OJLNRU", "dateTime": 1517249263203}, {"current_trial": 66, "trialdata": {"rt": -1000, "trial_type": "single-audio", "word": "author", "stimulus": "/static/audio/wordpool/AUTHOR.wav", "conditions": [18, 1200, "a", 18000], "internal_node_id": "0.0-48.0", "trial": 1, "time_elapsed": 595125, "serialpos": 11, "key_press": -1, "wordID": 60, "type": "PRES_AUD", "trial_index": 66}, "uniqueid": "MTK2429:3U0SRXB7CECV1UXI4HKHR3H5OJLNRU", "dateTime": 1517249265451}, {"current_trial": 67, "trialdata": {"rt": -1000, "trial_type": "single-audio", "word": "supper", "stimulus": "/static/audio/wordpool/SUPPER.wav", "conditions": [18, 1200, "a", 18000], "internal_node_id": "0.0-49.0", "trial": 1, "time_elapsed": 597263, "serialpos": 12, "key_press": -1, "wordID": 1410, "type": "PRES_AUD", "trial_index": 67}, "uniqueid": "MTK2429:3U0SRXB7CECV1UXI4HKHR3H5OJLNRU", "dateTime": 1517249267588}, {"current_trial": 68, "trialdata": {"rt": -1000, "trial_type": "single-audio", "word": "cloud", "stimulus": "/static/audio/wordpool/CLOUD.wav", "conditions": [18, 1200, "a", 18000], "internal_node_id": "0.0-50.0", "trial": 1, "time_elapsed": 599532, "serialpos": 13, "key_press": -1, "wordID": 327, "type": "PRES_AUD", "trial_index": 68}, "uniqueid": "MTK2429:3U0SRXB7CECV1UXI4HKHR3H5OJLNRU", "dateTime": 1517249269857}, {"current_trial": 69, "trialdata": {"rt": -1000, "trial_type": "single-audio", "word": "razor", "stimulus": "/static/audio/wordpool/RAZOR.wav", "conditions": [18, 1200, "a", 18000], "internal_node_id": "0.0-51.0", "trial": 1, "time_elapsed": 601640, "serialpos": 14, "key_press": -1, "wordID": 1170, "type": "PRES_AUD", "trial_index": 69}, "uniqueid": "MTK2429:3U0SRXB7CECV1UXI4HKHR3H5OJLNRU", "dateTime": 1517249271965}, {"current_trial": 70, "trialdata": {"rt": -1000, "trial_type": "single-audio", "word": "jelly", "stimulus": "/static/audio/wordpool/JELLY.wav", "conditions": [18, 1200, "a", 18000], "internal_node_id": "0.0-52.0", "trial": 1, "time_elapsed": 603781, "serialpos": 15, "key_press": -1, "wordID": 754, "type": "PRES_AUD", "trial_index": 70}, "uniqueid": "MTK2429:3U0SRXB7CECV1UXI4HKHR3H5OJLNRU", "dateTime": 1517249274106}, {"current_trial": 71, "trialdata": {"rt": -1000, "trial_type": "single-audio", "word": "balloon", "stimulus": "/static/audio/wordpool/BALLOON.wav", "conditions": [18, 1200, "a", 18000], "internal_node_id": "0.0-53.0", "trial": 1, "time_elapsed": 606130, "serialpos": 16, "key_press": -1, "wordID": 74, "type": "PRES_AUD", "trial_index": 71}, "uniqueid": "MTK2429:3U0SRXB7CECV1UXI4HKHR3H5OJLNRU", "dateTime": 1517249276455}, {"current_trial": 72, "trialdata": {"rt": -1000, "trial_type": "single-audio", "word": "lodge", "stimulus": "/static/audio/wordpool/LODGE.wav", "conditions": [18, 1200, "a", 18000], "internal_node_id": "0.0-54.0", "trial": 1, "time_elapsed": 608157, "serialpos": 17, "key_press": -1, "wordID": 838, "type": "PRES_AUD", "trial_index": 72}, "uniqueid": "MTK2429:3U0SRXB7CECV1UXI4HKHR3H5OJLNRU", "dateTime": 1517249278482}, {"current_trial": 73, "trialdata": {"rt": -1, "trial_type": "single-stim", "stimulus": "", "internal_node_id": "0.0-55.0-0.0", "time_elapsed": 609441, "key_press": -1, "type": "PRE_RECALL_DELAY", "trial_index": 73}, "uniqueid": "MTK2429:3U0SRXB7CECV1UXI4HKHR3H5OJLNRU", "dateTime": 1517249279766}, {"current_trial": 74, "trialdata": {"rt": -1000, "trial_type": "single-audio", "stimulus": "/static/audio/400Hz.wav", "internal_node_id": "0.0-56.0", "time_elapsed": 609944, "key_press": -1, "type": "PRE_RECALL_ALERT", "trial_index": 74}, "uniqueid": "MTK2429:3U0SRXB7CECV1UXI4HKHR3H5OJLNRU", "dateTime": 1517249280269}, {"current_trial": 75, "trialdata": {"rt": [2578, 4676, 9248, 14085, 18504, 45555, 50914], "recwords": ["lodge", "parrot", "laser", "mop", "cloud", "parate", ""], "key_times": [829, 1000, 1630, 1739, 1884, 2578, 3380, 3500, 3835, 3975, 4156, 4347, 4676, 5691, 5856, 7240, 7549, 7748, 7915, 8747, 9248, 13017, 13222, 13606, 14085, 17061, 17197, 17350, 17961, 18115, 18504, 42752, 42752, 42912, 44821, 45080, 45289, 45555, 50914], "trial_type": "free-recall", "conditions": [18, 1200, "a", 18000], "internal_node_id": "0.0-57.0-0.0", "key_presses": [76, 79, 68, 71, 69, 13, 80, 65, 82, 82, 79, 84, 13, 76, 65, 83, 69, 82, 69, 8, 13, 77, 79, 80, 13, 67, 76, 79, 85, 68, 13, 80, 65, 82, 65, 84, 69, 13, 13], "trial": 1, "time_elapsed": 669951, "type": "FREE_RECALL", "trial_index": 75}, "uniqueid": "MTK2429:3U0SRXB7CECV1UXI4HKHR3H5OJLNRU", "dateTime": 1517249340284}, {"current_trial": 76, "trialdata": {"rt": 2888, "trial_type": "text", "internal_node_id": "0.0-58.0", "time_elapsed": 674849, "key_press": 13, "type": "INSTRUCTIONS", "trial_index": 76}, "uniqueid": "MTK2429:3U0SRXB7CECV1UXI4HKHR3H5OJLNRU", "dateTime": 1517249345174}, {"current_trial": 77, "trialdata": {"rt": [2523, 5140, 8229, 10724, 13274, 15944, 18638, 23994], "trial_type": "math-distractor", "key_times": [2072, 2241, 2523, 4765, 4929, 5140, 7813, 7970, 8229, 10332, 10486, 10724, 12917, 13066, 13274, 15669, 15944, 18207, 18395, 18638, 23528, 23731, 23994], "responses": ["12", "11", "21", "15", "11", "9", "21", "20"], "num2": [6, 6, 5, 1, 2, 6, 9, 9, 3], "num3": [4, 2, 8, 6, 6, 1, 7, 3, 5], "conditions": [24, 1600, "a", 24000], "internal_node_id": "0.0-59.0", "key_presses": [97, 98, 13, 97, 97, 13, 98, 97, 13, 97, 101, 13, 97, 97, 13, 105, 13, 98, 97, 13, 98, 96, 13], "trial": 2, "time_elapsed": 699855, "type": "DISTRACTOR", "trial_index": 77, "num1": [2, 3, 8, 8, 3, 2, 5, 8, 5]}, "uniqueid": "MTK2429:3U0SRXB7CECV1UXI4HKHR3H5OJLNRU", "dateTime": 1517249370180}, {"current_trial": 78, "trialdata": {"rt": -1, "trial_type": "single-stim", "stimulus": "<p id=\"stim\">10</p>", "internal_node_id": "0.0-60.0-0.0", "time_elapsed": 702857, "key_press": -1, "trial_index": 78}, "uniqueid": "MTK2429:3U0SRXB7CECV1UXI4HKHR3H5OJLNRU", "dateTime": 1517249373187}, {"current_trial": 79, "trialdata": {"rt": -1, "trial_type": "single-stim", "stimulus": "<p id=\"stim\">9</p>", "internal_node_id": "0.0-60.0-1.0", "time_elapsed": 703864, "key_press": -1, "trial_index": 79}, "uniqueid": "MTK2429:3U0SRXB7CECV1UXI4HKHR3H5OJLNRU", "dateTime": 1517249374189}, {"current_trial": 80, "trialdata": {"rt": -1, "trial_type": "single-stim", "stimulus": "<p id=\"stim\">8</p>", "internal_node_id": "0.0-60.0-2.0", "time_elapsed": 704865, "key_press": -1, "trial_index": 80}, "uniqueid": "MTK2429:3U0SRXB7CECV1UXI4HKHR3H5OJLNRU", "dateTime": 1517249375190}, {"current_trial": 81, "trialdata": {"rt": -1, "trial_type": "single-stim", "stimulus": "<p id=\"stim\">7</p>", "internal_node_id": "0.0-60.0-3.0", "time_elapsed": 705867, "key_press": -1, "trial_index": 81}, "uniqueid": "MTK2429:3U0SRXB7CECV1UXI4HKHR3H5OJLNRU", "dateTime": 1517249376192}, {"current_trial": 82, "trialdata": {"rt": -1, "trial_type": "single-stim", "stimulus": "<p id=\"stim\">6</p>", "internal_node_id": "0.0-60.0-4.0", "time_elapsed": 706868, "key_press": -1, "trial_index": 82}, "uniqueid": "MTK2429:3U0SRXB7CECV1UXI4HKHR3H5OJLNRU", "dateTime": 1517249377194}, {"current_trial": 83, "trialdata": {"rt": -1, "trial_type": "single-stim", "stimulus": "<p id=\"stim\">5</p>", "internal_node_id": "0.0-60.0-5.0", "time_elapsed": 707870, "key_press": -1, "trial_index": 83}, "uniqueid": "MTK2429:3U0SRXB7CECV1UXI4HKHR3H5OJLNRU", "dateTime": 1517249378195}, {"current_trial": 84, "trialdata": {"rt": -1, "trial_type": "single-stim", "stimulus": "<p id=\"stim\">4</p>", "internal_node_id": "0.0-60.0-6.0", "time_elapsed": 708871, "key_press": -1, "trial_index": 84}, "uniqueid": "MTK2429:3U0SRXB7CECV1UXI4HKHR3H5OJLNRU", "dateTime": 1517249379196}, {"current_trial": 85, "trialdata": {"rt": -1, "trial_type": "single-stim", "stimulus": "<p id=\"stim\">3</p>", "internal_node_id": "0.0-60.0-7.0", "time_elapsed": 709872, "key_press": -1, "trial_index": 85}, "uniqueid": "MTK2429:3U0SRXB7CECV1UXI4HKHR3H5OJLNRU", "dateTime": 1517249380198}, {"current_trial": 86, "trialdata": {"rt": -1, "trial_type": "single-stim", "stimulus": "<p id=\"stim\">2</p>", "internal_node_id": "0.0-60.0-8.0", "time_elapsed": 710875, "key_press": -1, "trial_index": 86}, "uniqueid": "MTK2429:3U0SRXB7CECV1UXI4HKHR3H5OJLNRU", "dateTime": 1517249381200}, {"current_trial": 87, "trialdata": {"rt": -1, "trial_type": "single-stim", "stimulus": "<p id=\"stim\">1</p>", "internal_node_id": "0.0-60.0-9.0", "time_elapsed": 711876, "key_press": -1, "trial_index": 87}, "uniqueid": "MTK2429:3U0SRXB7CECV1UXI4HKHR3H5OJLNRU", "dateTime": 1517249382201}, {"current_trial": 88, "trialdata": {"rt": -1, "trial_type": "single-stim", "stimulus": "<p id=\"stim\">+</p>", "internal_node_id": "0.0-61.0-0.0", "time_elapsed": 713377, "key_press": -1, "type": "FIXATION", "trial_index": 88}, "uniqueid": "MTK2429:3U0SRXB7CECV1UXI4HKHR3H5OJLNRU", "dateTime": 1517249383702}, {"current_trial": 89, "trialdata": {"rt": -1000, "trial_type": "single-audio", "word": "umpire", "stimulus": "/static/audio/wordpool/UMPIRE.wav", "conditions": [24, 1600, "a", 24000], "internal_node_id": "0.0-62.0", "trial": 2, "time_elapsed": 715985, "serialpos": 0, "key_press": -1, "wordID": 1534, "type": "PRES_AUD", "trial_index": 89}, "uniqueid": "MTK2429:3U0SRXB7CECV1UXI4HKHR3H5OJLNRU", "dateTime": 1517249386310}, {"current_trial": 90, "trialdata": {"rt": -1000, "trial_type": "single-audio", "word": "fragrance", "stimulus": "/static/audio/wordpool/FRAGRANCE.wav", "conditions": [24, 1600, "a", 24000], "internal_node_id": "0.0-63.0", "trial": 2, "time_elapsed": 718760, "serialpos": 1, "key_press": -1, "wordID": 598, "type": "PRES_AUD", "trial_index": 90}, "uniqueid": "MTK2429:3U0SRXB7CECV1UXI4HKHR3H5OJLNRU", "dateTime": 1517249389085}, {"current_trial": 91, "trialdata": {"rt": -1000, "trial_type": "single-audio", "word": "citrus", "stimulus": "/static/audio/wordpool/CITRUS.wav", "conditions": [24, 1600, "a", 24000], "internal_node_id": "0.0-64.0", "trial": 2, "time_elapsed": 721333, "serialpos": 2, "key_press": -1, "wordID": 312, "type": "PRES_AUD", "trial_index": 91}, "uniqueid": "MTK2429:3U0SRXB7CECV1UXI4HKHR3H5OJLNRU", "dateTime": 1517249391658}, {"current_trial": 92, "trialdata": {"rt": -1000, "trial_type": "single-audio", "word": "queen", "stimulus": "/static/audio/wordpool/QUEEN.wav", "conditions": [24, 1600, "a", 24000], "internal_node_id": "0.0-65.0", "trial": 2, "time_elapsed": 723772, "serialpos": 3, "key_press": -1, "wordID": 1148, "type": "PRES_AUD", "trial_index": 92}, "uniqueid": "MTK2429:3U0SRXB7CECV1UXI4HKHR3H5OJLNRU", "dateTime": 1517249394097}, {"current_trial": 93, "trialdata": {"rt": -1000, "trial_type": "single-audio", "word": "princess", "stimulus": "/static/audio/wordpool/PRINCESS.wav", "conditions": [24, 1600, "a", 24000], "internal_node_id": "0.0-66.0", "trial": 2, "time_elapsed": 726497, "serialpos": 4, "key_press": -1, "wordID": 1124, "type": "PRES_AUD", "trial_index": 93}, "uniqueid": "MTK2429:3U0SRXB7CECV1UXI4HKHR3H5OJLNRU", "dateTime": 1517249396822}, {"current_trial": 94, "trialdata": {"rt": -1000, "trial_type": "single-audio", "word": "pecan", "stimulus": "/static/audio/wordpool/PECAN.wav", "conditions": [24, 1600, "a", 24000], "internal_node_id": "0.0-67.0", "trial": 2, "time_elapsed": 728928, "serialpos": 5, "key_press": -1, "wordID": 1035, "type": "PRES_AUD", "trial_index": 94}, "uniqueid": "MTK2429:3U0SRXB7CECV1UXI4HKHR3H5OJLNRU", "dateTime": 1517249399254}, {"current_trial": 95, "trialdata": {"rt": -1000, "trial_type": "single-audio", "word": "whistle", "stimulus": "/static/audio/wordpool/WHISTLE.wav", "conditions": [24, 1600, "a", 24000], "internal_node_id": "0.0-68.0", "trial": 2, "time_elapsed": 731641, "serialpos": 6, "key_press": -1, "wordID": 1605, "type": "PRES_AUD", "trial_index": 95}, "uniqueid": "MTK2429:3U0SRXB7CECV1UXI4HKHR3H5OJLNRU", "dateTime": 1517249401966}, {"current_trial": 96, "trialdata": {"rt": -1000, "trial_type": "single-audio", "word": "sunset", "stimulus": "/static/audio/wordpool/SUNSET.wav", "conditions": [24, 1600, "a", 24000], "internal_node_id": "0.0-69.0", "trial": 2, "time_elapsed": 734173, "serialpos": 7, "key_press": -1, "wordID": 1407, "type": "PRES_AUD", "trial_index": 96}, "uniqueid": "MTK2429:3U0SRXB7CECV1UXI4HKHR3H5OJLNRU", "dateTime": 1517249404498}, {"current_trial": 97, "trialdata": {"rt": -1000, "trial_type": "single-audio", "word": "asia", "stimulus": "/static/audio/wordpool/ASIA.wav", "conditions": [24, 1600, "a", 24000], "internal_node_id": "0.0-70.0", "trial": 2, "time_elapsed": 736751, "serialpos": 8, "key_press": -1, "wordID": 45, "type": "PRES_AUD", "trial_index": 97}, "uniqueid": "MTK2429:3U0SRXB7CECV1UXI4HKHR3H5OJLNRU", "dateTime": 1517249407076}, {"current_trial": 98, "trialdata": {"rt": -1000, "trial_type": "single-audio", "word": "coin", "stimulus": "/static/audio/wordpool/COIN.wav", "conditions": [24, 1600, "a", 24000], "internal_node_id": "0.0-71.0", "trial": 2, "time_elapsed": 739444, "serialpos": 9, "key_press": -1, "wordID": 342, "type": "PRES_AUD", "trial_index": 98}, "uniqueid": "MTK2429:3U0SRXB7CECV1UXI4HKHR3H5OJLNRU", "dateTime": 1517249409770}, {"current_trial": 99, "trialdata": {"rt": -1000, "trial_type": "single-audio", "word": "pluto", "stimulus": "/static/audio/wordpool/PLUTO.wav", "conditions": [24, 1600, "a", 24000], "internal_node_id": "0.0-72.0", "trial": 2, "time_elapsed": 741952, "serialpos": 10, "key_press": -1, "wordID": 1091, "type": "PRES_AUD", "trial_index": 99}, "uniqueid": "MTK2429:3U0SRXB7CECV1UXI4HKHR3H5OJLNRU", "dateTime": 1517249412277}, {"current_trial": 100, "trialdata": {"rt": -1000, "trial_type": "single-audio", "word": "casket", "stimulus": "/static/audio/wordpool/CASKET.wav", "conditions": [24, 1600, "a", 24000], "internal_node_id": "0.0-73.0", "trial": 2, "time_elapsed": 744356, "serialpos": 11, "key_press": -1, "wordID": 254, "type": "PRES_AUD", "trial_index": 100}, "uniqueid": "MTK2429:3U0SRXB7CECV1UXI4HKHR3H5OJLNRU", "dateTime": 1517249414681}, {"current_trial": 101, "trialdata": {"rt": -1000, "trial_type": "single-audio", "word": "dancer", "stimulus": "/static/audio/wordpool/DANCER.wav", "conditions": [24, 1600, "a", 24000], "internal_node_id": "0.0-74.0", "trial": 2, "time_elapsed": 746781, "serialpos": 12, "key_press": -1, "wordID": 436, "type": "PRES_AUD", "trial_index": 101}, "uniqueid": "MTK2429:3U0SRXB7CECV1UXI4HKHR3H5OJLNRU", "dateTime": 1517249417106}, {"current_trial": 102, "trialdata": {"rt": -1000, "trial_type": "single-audio", "word": "shrub", "stimulus": "/static/audio/wordpool/SHRUB.wav", "conditions": [24, 1600, "a", 24000], "internal_node_id": "0.0-75.0", "trial": 2, "time_elapsed": 749203, "serialpos": 13, "key_press": -1, "wordID": 1298, "type": "PRES_AUD", "trial_index": 102}, "uniqueid": "MTK2429:3U0SRXB7CECV1UXI4HKHR3H5OJLNRU", "dateTime": 1517249419528}, {"current_trial": 103, "trialdata": {"rt": -1000, "trial_type": "single-audio", "word": "knapsack", "stimulus": "/static/audio/wordpool/KNAPSACK.wav", "conditions": [24, 1600, "a", 24000], "internal_node_id": "0.0-76.0", "trial": 2, "time_elapsed": 751756, "serialpos": 14, "key_press": -1, "wordID": 782, "type": "PRES_AUD", "trial_index": 103}, "uniqueid": "MTK2429:3U0SRXB7CECV1UXI4HKHR3H5OJLNRU", "dateTime": 1517249422081}, {"current_trial": 104, "trialdata": {"rt": -1000, "trial_type": "single-audio", "word": "kidney", "stimulus": "/static/audio/wordpool/KIDNEY.wav", "conditions": [24, 1600, "a", 24000], "internal_node_id": "0.0-77.0", "trial": 2, "time_elapsed": 754451, "serialpos": 15, "key_press": -1, "wordID": 775, "type": "PRES_AUD", "trial_index": 104}, "uniqueid": "MTK2429:3U0SRXB7CECV1UXI4HKHR3H5OJLNRU", "dateTime": 1517249424776}, {"current_trial": 105, "trialdata": {"rt": -1000, "trial_type": "single-audio", "word": "banquet", "stimulus": "/static/audio/wordpool/BANQUET.wav", "conditions": [24, 1600, "a", 24000], "internal_node_id": "0.0-78.0", "trial": 2, "time_elapsed": 756912, "serialpos": 16, "key_press": -1, "wordID": 85, "type": "PRES_AUD", "trial_index": 105}, "uniqueid": "MTK2429:3U0SRXB7CECV1UXI4HKHR3H5OJLNRU", "dateTime": 1517249427237}, {"current_trial": 106, "trialdata": {"rt": -1000, "trial_type": "single-audio", "word": "subway", "stimulus": "/static/audio/wordpool/SUBWAY.wav", "conditions": [24, 1600, "a", 24000], "internal_node_id": "0.0-79.0", "trial": 2, "time_elapsed": 759663, "serialpos": 17, "key_press": -1, "wordID": 1399, "type": "PRES_AUD", "trial_index": 106}, "uniqueid": "MTK2429:3U0SRXB7CECV1UXI4HKHR3H5OJLNRU", "dateTime": 1517249429989}, {"current_trial": 107, "trialdata": {"rt": -1000, "trial_type": "single-audio", "word": "flesh", "stimulus": "/static/audio/wordpool/FLESH.wav", "conditions": [24, 1600, "a", 24000], "internal_node_id": "0.0-80.0", "trial": 2, "time_elapsed": 762288, "serialpos": 18, "key_press": -1, "wordID": 578, "type": "PRES_AUD", "trial_index": 107}, "uniqueid": "MTK2429:3U0SRXB7CECV1UXI4HKHR3H5OJLNRU", "dateTime": 1517249432613}, {"current_trial": 108, "trialdata": {"rt": -1000, "trial_type": "single-audio", "word": "spoon", "stimulus": "/static/audio/wordpool/SPOON.wav", "conditions": [24, 1600, "a", 24000], "internal_node_id": "0.0-81.0", "trial": 2, "time_elapsed": 764998, "serialpos": 19, "key_press": -1, "wordID": 1356, "type": "PRES_AUD", "trial_index": 108}, "uniqueid": "MTK2429:3U0SRXB7CECV1UXI4HKHR3H5OJLNRU", "dateTime": 1517249435323}, {"current_trial": 109, "trialdata": {"rt": -1000, "trial_type": "single-audio", "word": "patient", "stimulus": "/static/audio/wordpool/PATIENT.wav", "conditions": [24, 1600, "a", 24000], "internal_node_id": "0.0-82.0", "trial": 2, "time_elapsed": 767437, "serialpos": 20, "key_press": -1, "wordID": 1023, "type": "PRES_AUD", "trial_index": 109}, "uniqueid": "MTK2429:3U0SRXB7CECV1UXI4HKHR3H5OJLNRU", "dateTime": 1517249437763}, {"current_trial": 110, "trialdata": {"rt": -1000, "trial_type": "single-audio", "word": "headband", "stimulus": "/static/audio/wordpool/HEADBAND.wav", "conditions": [24, 1600, "a", 24000], "internal_node_id": "0.0-83.0", "trial": 2, "time_elapsed": 770036, "serialpos": 21, "key_press": -1, "wordID": 695, "type": "PRES_AUD", "trial_index": 110}, "uniqueid": "MTK2429:3U0SRXB7CECV1UXI4HKHR3H5OJLNRU", "dateTime": 1517249440362}, {"current_trial": 111, "trialdata": {"rt": -1000, "trial_type": "single-audio", "word": "shirt", "stimulus": "/static/audio/wordpool/SHIRT.wav", "conditions": [24, 1600, "a", 24000], "internal_node_id": "0.0-84.0", "trial": 2, "time_elapsed": 772615, "serialpos": 22, "key_press": -1, "wordID": 1286, "type": "PRES_AUD", "trial_index": 111}, "uniqueid": "MTK2429:3U0SRXB7CECV1UXI4HKHR3H5OJLNRU", "dateTime": 1517249442940}, {"current_trial": 112, "trialdata": {"rt": -1000, "trial_type": "single-audio", "word": "gymnast", "stimulus": "/static/audio/wordpool/GYMNAST.wav", "conditions": [24, 1600, "a", 24000], "internal_node_id": "0.0-85.0", "trial": 2, "time_elapsed": 775159, "serialpos": 23, "key_press": -1, "wordID": 674, "type": "PRES_AUD", "trial_index": 112}, "uniqueid": "MTK2429:3U0SRXB7CECV1UXI4HKHR3H5OJLNRU", "dateTime": 1517249445484}, {"current_trial": 113, "trialdata": {"rt": -1, "trial_type": "single-stim", "stimulus": "", "internal_node_id": "0.0-86.0-0.0", "time_elapsed": 776553, "key_press": -1, "type": "PRE_RECALL_DELAY", "trial_index": 113}, "uniqueid": "MTK2429:3U0SRXB7CECV1UXI4HKHR3H5OJLNRU", "dateTime": 1517249446878}, {"current_trial": 114, "trialdata": {"rt": -1000, "trial_type": "single-audio", "stimulus": "/static/audio/400Hz.wav", "internal_node_id": "0.0-87.0", "time_elapsed": 777054, "key_press": -1, "type": "PRE_RECALL_ALERT", "trial_index": 114}, "uniqueid": "MTK2429:3U0SRXB7CECV1UXI4HKHR3H5OJLNRU", "dateTime": 1517249447379}, {"current_trial": 115, "trialdata": {"rt": [3860, 8935, 13633, 21379, 48801], "recwords": ["spoon", "headband", "gymnist", "cirtus", ""], "key_times": [573, 794, 955, 1698, 2096, 2253, 2462, 3860, 4885, 5034, 5181, 5378, 5549, 6305, 6738, 7738, 8150, 8219, 8362, 8650, 8935, 11242, 11394, 11657, 12627, 12860, 12959, 13203, 13633, 19413, 19609, 19765, 20090, 20262, 20706, 21379, 48801], "trial_type": "free-recall", "conditions": [24, 1600, "a", 24000], "internal_node_id": "0.0-88.0-0.0", "key_presses": [83, 80, 80, 8, 79, 79, 78, 13, 72, 69, 65, 78, 68, 8, 8, 68, 66, 65, 78, 68, 13, 71, 89, 77, 78, 73, 83, 84, 13, 67, 73, 82, 84, 85, 83, 13, 13], "trial": 2, "time_elapsed": 837059, "type": "FREE_RECALL", "trial_index": 115}, "uniqueid": "MTK2429:3U0SRXB7CECV1UXI4HKHR3H5OJLNRU", "dateTime": 1517249507392}, {"current_trial": 116, "trialdata": {"rt": 2802, "trial_type": "text", "internal_node_id": "0.0-89.0", "time_elapsed": 841869, "key_press": 13, "type": "INSTRUCTIONS", "trial_index": 116}, "uniqueid": "MTK2429:3U0SRXB7CECV1UXI4HKHR3H5OJLNRU", "dateTime": 1517249512194}, {"current_trial": 117, "trialdata": {"rt": [5718, 8163, 11394], "trial_type": "math-distractor", "key_times": [1753, 1907, 3776, 4671, 5193, 5394, 5718, 7386, 7614, 8163, 10252, 10421, 11394], "responses": ["13", "17", "15"], "num2": [1, 1, 4, 5], "num3": [3, 8, 5, 1], "conditions": [12, 1600, "a", 12000], "internal_node_id": "0.0-90.0", "key_presses": [97, 98, 8, 8, 97, 99, 13, 97, 103, 13, 97, 101, 13], "trial": 3, "time_elapsed": 855875, "type": "DISTRACTOR", "trial_index": 117, "num1": [9, 8, 6, 3]}, "uniqueid": "MTK2429:3U0SRXB7CECV1UXI4HKHR3H5OJLNRU", "dateTime": 1517249526200}, {"current_trial": 118, "trialdata": {"rt": -1, "trial_type": "single-stim", "stimulus": "<p id=\"stim\">10</p>", "internal_node_id": "0.0-91.0-0.0", "time_elapsed": 858877, "key_press": -1, "trial_index": 118}, "uniqueid": "MTK2429:3U0SRXB7CECV1UXI4HKHR3H5OJLNRU", "dateTime": 1517249529202}, {"current_trial": 119, "trialdata": {"rt": -1, "trial_type": "single-stim", "stimulus": "<p id=\"stim\">9</p>", "internal_node_id": "0.0-91.0-1.0", "time_elapsed": 859878, "key_press": -1, "trial_index": 119}, "uniqueid": "MTK2429:3U0SRXB7CECV1UXI4HKHR3H5OJLNRU", "dateTime": 1517249530204}, {"current_trial": 120, "trialdata": {"rt": -1, "trial_type": "single-stim", "stimulus": "<p id=\"stim\">8</p>", "internal_node_id": "0.0-91.0-2.0", "time_elapsed": 860879, "key_press": -1, "trial_index": 120}, "uniqueid": "MTK2429:3U0SRXB7CECV1UXI4HKHR3H5OJLNRU", "dateTime": 1517249531204}, {"current_trial": 121, "trialdata": {"rt": -1, "trial_type": "single-stim", "stimulus": "<p id=\"stim\">7</p>", "internal_node_id": "0.0-91.0-3.0", "time_elapsed": 861881, "key_press": -1, "trial_index": 121}, "uniqueid": "MTK2429:3U0SRXB7CECV1UXI4HKHR3H5OJLNRU", "dateTime": 1517249532206}, {"current_trial": 122, "trialdata": {"rt": -1, "trial_type": "single-stim", "stimulus": "<p id=\"stim\">6</p>", "internal_node_id": "0.0-91.0-4.0", "time_elapsed": 862882, "key_press": -1, "trial_index": 122}, "uniqueid": "MTK2429:3U0SRXB7CECV1UXI4HKHR3H5OJLNRU", "dateTime": 1517249533208}, {"current_trial": 123, "trialdata": {"rt": -1, "trial_type": "single-stim", "stimulus": "<p id=\"stim\">5</p>", "internal_node_id": "0.0-91.0-5.0", "time_elapsed": 863884, "key_press": -1, "trial_index": 123}, "uniqueid": "MTK2429:3U0SRXB7CECV1UXI4HKHR3H5OJLNRU", "dateTime": 1517249534209}, {"current_trial": 124, "trialdata": {"rt": -1, "trial_type": "single-stim", "stimulus": "<p id=\"stim\">4</p>", "internal_node_id": "0.0-91.0-6.0", "time_elapsed": 864886, "key_press": -1, "trial_index": 124}, "uniqueid": "MTK2429:3U0SRXB7CECV1UXI4HKHR3H5OJLNRU", "dateTime": 1517249535211}, {"current_trial": 125, "trialdata": {"rt": -1, "trial_type": "single-stim", "stimulus": "<p id=\"stim\">3</p>", "internal_node_id": "0.0-91.0-7.0", "time_elapsed": 865888, "key_press": -1, "trial_index": 125}, "uniqueid": "MTK2429:3U0SRXB7CECV1UXI4HKHR3H5OJLNRU", "dateTime": 1517249536213}, {"current_trial": 126, "trialdata": {"rt": -1, "trial_type": "single-stim", "stimulus": "<p id=\"stim\">2</p>", "internal_node_id": "0.0-91.0-8.0", "time_elapsed": 866889, "key_press": -1, "trial_index": 126}, "uniqueid": "MTK2429:3U0SRXB7CECV1UXI4HKHR3H5OJLNRU", "dateTime": 1517249537214}, {"current_trial": 127, "trialdata": {"rt": -1, "trial_type": "single-stim", "stimulus": "<p id=\"stim\">1</p>", "internal_node_id": "0.0-91.0-9.0", "time_elapsed": 867891, "key_press": -1, "trial_index": 127}, "uniqueid": "MTK2429:3U0SRXB7CECV1UXI4HKHR3H5OJLNRU", "dateTime": 1517249538216}, {"current_trial": 128, "trialdata": {"rt": -1, "trial_type": "single-stim", "stimulus": "<p id=\"stim\">+</p>", "internal_node_id": "0.0-92.0-0.0", "time_elapsed": 869392, "key_press": -1, "type": "FIXATION", "trial_index": 128}, "uniqueid": "MTK2429:3U0SRXB7CECV1UXI4HKHR3H5OJLNRU", "dateTime": 1517249539717}, {"current_trial": 129, "trialdata": {"rt": -1000, "trial_type": "single-audio", "word": "tuba", "stimulus": "/static/audio/wordpool/TUBA.wav", "conditions": [12, 1600, "a", 12000], "internal_node_id": "0.0-93.0", "trial": 3, "time_elapsed": 871810, "serialpos": 0, "key_press": -1, "wordID": 1514, "type": "PRES_AUD", "trial_index": 129}, "uniqueid": "MTK2429:3U0SRXB7CECV1UXI4HKHR3H5OJLNRU", "dateTime": 1517249542136}, {"current_trial": 130, "trialdata": {"rt": -1000, "trial_type": "single-audio", "word": "crab", "stimulus": "/static/audio/wordpool/CRAB.wav", "conditions": [12, 1600, "a", 12000], "internal_node_id": "0.0-94.0", "trial": 3, "time_elapsed": 874495, "serialpos": 1, "key_press": -1, "wordID": 396, "type": "PRES_AUD", "trial_index": 130}, "uniqueid": "MTK2429:3U0SRXB7CECV1UXI4HKHR3H5OJLNRU", "dateTime": 1517249544821}, {"current_trial": 131, "trialdata": {"rt": -1000, "trial_type": "single-audio", "word": "oyster", "stimulus": "/static/audio/wordpool/OYSTER.wav", "conditions": [12, 1600, "a", 12000], "internal_node_id": "0.0-95.0", "trial": 3, "time_elapsed": 877009, "serialpos": 2, "key_press": -1, "wordID": 994, "type": "PRES_AUD", "trial_index": 131}, "uniqueid": "MTK2429:3U0SRXB7CECV1UXI4HKHR3H5OJLNRU", "dateTime": 1517249547334}, {"current_trial": 132, "trialdata": {"rt": -1000, "trial_type": "single-audio", "word": "garbage", "stimulus": "/static/audio/wordpool/GARBAGE.wav", "conditions": [12, 1600, "a", 12000], "internal_node_id": "0.0-96.0", "trial": 3, "time_elapsed": 879764, "serialpos": 3, "key_press": -1, "wordID": 621, "type": "PRES_AUD", "trial_index": 132}, "uniqueid": "MTK2429:3U0SRXB7CECV1UXI4HKHR3H5OJLNRU", "dateTime": 1517249550090}, {"current_trial": 133, "trialdata": {"rt": -1000, "trial_type": "single-audio", "word": "partner", "stimulus": "/static/audio/wordpool/PARTNER.wav", "conditions": [12, 1600, "a", 12000], "internal_node_id": "0.0-97.0", "trial": 3, "time_elapsed": 882475, "serialpos": 4, "key_press": -1, "wordID": 1016, "type": "PRES_AUD", "trial_index": 133}, "uniqueid": "MTK2429:3U0SRXB7CECV1UXI4HKHR3H5OJLNRU", "dateTime": 1517249552801}, {"current_trial": 134, "trialdata": {"rt": -1000, "trial_type": "single-audio", "word": "rifle", "stimulus": "/static/audio/wordpool/RIFLE.wav", "conditions": [12, 1600, "a", 12000], "internal_node_id": "0.0-98.0", "trial": 3, "time_elapsed": 885196, "serialpos": 5, "key_press": -1, "wordID": 1191, "type": "PRES_AUD", "trial_index": 134}, "uniqueid": "MTK2429:3U0SRXB7CECV1UXI4HKHR3H5OJLNRU", "dateTime": 1517249555521}, {"current_trial": 135, "trialdata": {"rt": -1000, "trial_type": "single-audio", "word": "chipmunk", "stimulus": "/static/audio/wordpool/CHIPMUNK.wav", "conditions": [12, 1600, "a", 12000], "internal_node_id": "0.0-99.0", "trial": 3, "time_elapsed": 887849, "serialpos": 6, "key_press": -1, "wordID": 303, "type": "PRES_AUD", "trial_index": 135}, "uniqueid": "MTK2429:3U0SRXB7CECV1UXI4HKHR3H5OJLNRU", "dateTime": 1517249558174}, {"current_trial": 136, "trialdata": {"rt": -1000, "trial_type": "single-audio", "word": "guitar", "stimulus": "/static/audio/wordpool/GUITAR.wav", "conditions": [12, 1600, "a", 12000], "internal_node_id": "0.0-100.0", "trial": 3, "time_elapsed": 890336, "serialpos": 7, "key_press": -1, "wordID": 669, "type": "PRES_AUD", "trial_index": 136}, "uniqueid": "MTK2429:3U0SRXB7CECV1UXI4HKHR3H5OJLNRU", "dateTime": 1517249560661}, {"current_trial": 137, "trialdata": {"rt": -1000, "trial_type": "single-audio", "word": "wife", "stimulus": "/static/audio/wordpool/WIFE.wav", "conditions": [12, 1600, "a", 12000], "internal_node_id": "0.0-101.0", "trial": 3, "time_elapsed": 892864, "serialpos": 8, "key_press": -1, "wordID": 1608, "type": "PRES_AUD", "trial_index": 137}, "uniqueid": "MTK2429:3U0SRXB7CECV1UXI4HKHR3H5OJLNRU", "dateTime": 1517249563189}, {"current_trial": 138, "trialdata": {"rt": -1000, "trial_type": "single-audio", "word": "snake", "stimulus": "/static/audio/wordpool/SNAKE.wav", "conditions": [12, 1600, "a", 12000], "internal_node_id": "0.0-102.0", "trial": 3, "time_elapsed": 895281, "serialpos": 9, "key_press": -1, "wordID": 1332, "type": "PRES_AUD", "trial_index": 138}, "uniqueid": "MTK2429:3U0SRXB7CECV1UXI4HKHR3H5OJLNRU", "dateTime": 1517249565606}, {"current_trial": 139, "trialdata": {"rt": -1000, "trial_type": "single-audio", "word": "suspect", "stimulus": "/static/audio/wordpool/SUSPECT.wav", "conditions": [12, 1600, "a", 12000], "internal_node_id": "0.0-103.0", "trial": 3, "time_elapsed": 897757, "serialpos": 10, "key_press": -1, "wordID": 1414, "type": "PRES_AUD", "trial_index": 139}, "uniqueid": "MTK2429:3U0SRXB7CECV1UXI4HKHR3H5OJLNRU", "dateTime": 1517249568082}, {"current_trial": 140, "trialdata": {"rt": -1000, "trial_type": "single-audio", "word": "carrot", "stimulus": "/static/audio/wordpool/CARROT.wav", "conditions": [12, 1600, "a", 12000], "internal_node_id": "0.0-104.0", "trial": 3, "time_elapsed": 900442, "serialpos": 11, "key_press": -1, "wordID": 248, "type": "PRES_AUD", "trial_index": 140}, "uniqueid": "MTK2429:3U0SRXB7CECV1UXI4HKHR3H5OJLNRU", "dateTime": 1517249570767}, {"current_trial": 141, "trialdata": {"rt": -1, "trial_type": "single-stim", "stimulus": "", "internal_node_id": "0.0-105.0-0.0", "time_elapsed": 901734, "key_press": -1, "type": "PRE_RECALL_DELAY", "trial_index": 141}, "uniqueid": "MTK2429:3U0SRXB7CECV1UXI4HKHR3H5OJLNRU", "dateTime": 1517249572060}, {"current_trial": 142, "trialdata": {"rt": -1000, "trial_type": "single-audio", "stimulus": "/static/audio/400Hz.wav", "internal_node_id": "0.0-106.0", "time_elapsed": 902236, "key_press": -1, "type": "PRE_RECALL_ALERT", "trial_index": 142}, "uniqueid": "MTK2429:3U0SRXB7CECV1UXI4HKHR3H5OJLNRU", "dateTime": 1517249572561}, {"current_trial": 143, "trialdata": {"rt": [2130, 3617, 5346, 10302, 12847, 20553, 42276], "recwords": ["carrot", "wife", "tuba", "crab", "lobster", "garbage", ""], "key_times": [496, 588, 972, 1179, 1470, 1641, 2130, 2768, 3033, 3276, 3358, 3617, 4391, 4582, 4830, 5052, 5346, 8856, 9192, 9485, 9658, 10302, 10955, 11129, 11672, 11919, 12085, 12236, 12337, 12847, 18719, 18798, 19002, 19374, 19450, 19667, 19742, 20553, 42276], "trial_type": "free-recall", "conditions": [12, 1600, "a", 12000], "internal_node_id": "0.0-107.0-0.0", "key_presses": [67, 65, 82, 82, 79, 84, 13, 87, 73, 70, 69, 13, 84, 85, 66, 65, 13, 67, 82, 65, 66, 13, 76, 79, 66, 83, 84, 69, 82, 13, 71, 65, 82, 66, 65, 71, 69, 13, 13], "trial": 3, "time_elapsed": 962245, "type": "FREE_RECALL", "trial_index": 143}, "uniqueid": "MTK2429:3U0SRXB7CECV1UXI4HKHR3H5OJLNRU", "dateTime": 1517249632578}, {"current_trial": 144, "trialdata": {"rt": 993, "trial_type": "text", "internal_node_id": "0.0-108.0", "time_elapsed": 965256, "key_press": 13, "type": "INSTRUCTIONS", "trial_index": 144}, "uniqueid": "MTK2429:3U0SRXB7CECV1UXI4HKHR3H5OJLNRU", "dateTime": 1517249635582}, {"current_trial": 145, "trialdata": {"rt": [7122, 11936], "trial_type": "math-distractor", "key_times": [6123, 6373, 7122, 9176, 9375, 11936], "responses": ["23", "12"], "num2": [8, 4, 1], "num3": [7, 7, 3], "conditions": [12, 800, "a", 12000], "internal_node_id": "0.0-109.0", "key_presses": [98, 99, 13, 97, 98, 13], "trial": 4, "time_elapsed": 979262, "type": "DISTRACTOR", "trial_index": 145, "num1": [8, 1, 6]}, "uniqueid": "MTK2429:3U0SRXB7CECV1UXI4HKHR3H5OJLNRU", "dateTime": 1517249649587}, {"current_trial": 146, "trialdata": {"rt": -1, "trial_type": "single-stim", "stimulus": "<p id=\"stim\">10</p>", "internal_node_id": "0.0-110.0-0.0", "time_elapsed": 982264, "key_press": -1, "trial_index": 146}, "uniqueid": "MTK2429:3U0SRXB7CECV1UXI4HKHR3H5OJLNRU", "dateTime": 1517249652589}, {"current_trial": 147, "trialdata": {"rt": -1, "trial_type": "single-stim", "stimulus": "<p id=\"stim\">9</p>", "internal_node_id": "0.0-110.0-1.0", "time_elapsed": 983265, "key_press": -1, "trial_index": 147}, "uniqueid": "MTK2429:3U0SRXB7CECV1UXI4HKHR3H5OJLNRU", "dateTime": 1517249653591}, {"current_trial": 148, "trialdata": {"rt": -1, "trial_type": "single-stim", "stimulus": "<p id=\"stim\">8</p>", "internal_node_id": "0.0-110.0-2.0", "time_elapsed": 984267, "key_press": -1, "trial_index": 148}, "uniqueid": "MTK2429:3U0SRXB7CECV1UXI4HKHR3H5OJLNRU", "dateTime": 1517249654592}, {"current_trial": 149, "trialdata": {"rt": -1, "trial_type": "single-stim", "stimulus": "<p id=\"stim\">7</p>", "internal_node_id": "0.0-110.0-3.0", "time_elapsed": 985268, "key_press": -1, "trial_index": 149}, "uniqueid": "MTK2429:3U0SRXB7CECV1UXI4HKHR3H5OJLNRU", "dateTime": 1517249655593}, {"current_trial": 150, "trialdata": {"rt": -1, "trial_type": "single-stim", "stimulus": "<p id=\"stim\">6</p>", "internal_node_id": "0.0-110.0-4.0", "time_elapsed": 986269, "key_press": -1, "trial_index": 150}, "uniqueid": "MTK2429:3U0SRXB7CECV1UXI4HKHR3H5OJLNRU", "dateTime": 1517249656595}, {"current_trial": 151, "trialdata": {"rt": -1, "trial_type": "single-stim", "stimulus": "<p id=\"stim\">5</p>", "internal_node_id": "0.0-110.0-5.0", "time_elapsed": 987271, "key_press": -1, "trial_index": 151}, "uniqueid": "MTK2429:3U0SRXB7CECV1UXI4HKHR3H5OJLNRU", "dateTime": 1517249657597}, {"current_trial": 152, "trialdata": {"rt": -1, "trial_type": "single-stim", "stimulus": "<p id=\"stim\">4</p>", "internal_node_id": "0.0-110.0-6.0", "time_elapsed": 988273, "key_press": -1, "trial_index": 152}, "uniqueid": "MTK2429:3U0SRXB7CECV1UXI4HKHR3H5OJLNRU", "dateTime": 1517249658598}, {"current_trial": 153, "trialdata": {"rt": -1, "trial_type": "single-stim", "stimulus": "<p id=\"stim\">3</p>", "internal_node_id": "0.0-110.0-7.0", "time_elapsed": 989274, "key_press": -1, "trial_index": 153}, "uniqueid": "MTK2429:3U0SRXB7CECV1UXI4HKHR3H5OJLNRU", "dateTime": 1517249659599}, {"current_trial": 154, "trialdata": {"rt": -1, "trial_type": "single-stim", "stimulus": "<p id=\"stim\">2</p>", "internal_node_id": "0.0-110.0-8.0", "time_elapsed": 990276, "key_press": -1, "trial_index": 154}, "uniqueid": "MTK2429:3U0SRXB7CECV1UXI4HKHR3H5OJLNRU", "dateTime": 1517249660601}, {"current_trial": 155, "trialdata": {"rt": -1, "trial_type": "single-stim", "stimulus": "<p id=\"stim\">1</p>", "internal_node_id": "0.0-110.0-9.0", "time_elapsed": 991277, "key_press": -1, "trial_index": 155}, "uniqueid": "MTK2429:3U0SRXB7CECV1UXI4HKHR3H5OJLNRU", "dateTime": 1517249661602}, {"current_trial": 156, "trialdata": {"rt": -1, "trial_type": "single-stim", "stimulus": "<p id=\"stim\">+</p>", "internal_node_id": "0.0-111.0-0.0", "time_elapsed": 992779, "key_press": -1, "type": "FIXATION", "trial_index": 156}, "uniqueid": "MTK2429:3U0SRXB7CECV1UXI4HKHR3H5OJLNRU", "dateTime": 1517249663104}, {"current_trial": 157, "trialdata": {"rt": -1000, "trial_type": "single-audio", "word": "college", "stimulus": "/static/audio/wordpool/COLLEGE.wav", "conditions": [12, 800, "a", 12000], "internal_node_id": "0.0-112.0", "trial": 4, "time_elapsed": 994512, "serialpos": 0, "key_press": -1, "wordID": 345, "type": "PRES_AUD", "trial_index": 157}, "uniqueid": "MTK2429:3U0SRXB7CECV1UXI4HKHR3H5OJLNRU", "dateTime": 1517249664837}, {"current_trial": 158, "trialdata": {"rt": -1000, "trial_type": "single-audio", "word": "survey", "stimulus": "/static/audio/wordpool/SURVEY.wav", "conditions": [12, 800, "a", 12000], "internal_node_id": "0.0-113.0", "trial": 4, "time_elapsed": 996166, "serialpos": 1, "key_press": -1, "wordID": 1413, "type": "PRES_AUD", "trial_index": 158}, "uniqueid": "MTK2429:3U0SRXB7CECV1UXI4HKHR3H5OJLNRU", "dateTime": 1517249666491}, {"current_trial": 159, "trialdata": {"rt": -1000, "trial_type": "single-audio", "word": "report", "stimulus": "/static/audio/wordpool/REPORT.wav", "conditions": [12, 800, "a", 12000], "internal_node_id": "0.0-114.0", "trial": 4, "time_elapsed": 997901, "serialpos": 2, "key_press": -1, "wordID": 1183, "type": "PRES_AUD", "trial_index": 159}, "uniqueid": "MTK2429:3U0SRXB7CECV1UXI4HKHR3H5OJLNRU", "dateTime": 1517249668226}, {"current_trial": 160, "trialdata": {"rt": -1000, "trial_type": "single-audio", "word": "fungus", "stimulus": "/static/audio/wordpool/FUNGUS.wav", "conditions": [12, 800, "a", 12000], "internal_node_id": "0.0-115.0", "trial": 4, "time_elapsed": 999896, "serialpos": 3, "key_press": -1, "wordID": 613, "type": "PRES_AUD", "trial_index": 160}, "uniqueid": "MTK2429:3U0SRXB7CECV1UXI4HKHR3H5OJLNRU", "dateTime": 1517249670221}, {"current_trial": 161, "trialdata": {"rt": -1000, "trial_type": "single-audio", "word": "brick", "stimulus": "/static/audio/wordpool/BRICK.wav", "conditions": [12, 800, "a", 12000], "internal_node_id": "0.0-116.0", "trial": 4, "time_elapsed": 1001511, "serialpos": 4, "key_press": -1, "wordID": 171, "type": "PRES_AUD", "trial_index": 161}, "uniqueid": "MTK2429:3U0SRXB7CECV1UXI4HKHR3H5OJLNRU", "dateTime": 1517249671836}, {"current_trial": 162, "trialdata": {"rt": -1000, "trial_type": "single-audio", "word": "tombstone", "stimulus": "/static/audio/wordpool/TOMBSTONE.wav", "conditions": [12, 800, "a", 12000], "internal_node_id": "0.0-117.0", "trial": 4, "time_elapsed": 1003146, "serialpos": 5, "key_press": -1, "wordID": 1477, "type": "PRES_AUD", "trial_index": 162}, "uniqueid": "MTK2429:3U0SRXB7CECV1UXI4HKHR3H5OJLNRU", "dateTime": 1517249673471}, {"current_trial": 163, "trialdata": {"rt": -1000, "trial_type": "single-audio", "word": "forehead", "stimulus": "/static/audio/wordpool/FOREHEAD.wav", "conditions": [12, 800, "a", 12000], "internal_node_id": "0.0-118.0", "trial": 4, "time_elapsed": 1005042, "serialpos": 6, "key_press": -1, "wordID": 591, "type": "PRES_AUD", "trial_index": 163}, "uniqueid": "MTK2429:3U0SRXB7CECV1UXI4HKHR3H5OJLNRU", "dateTime": 1517249675367}, {"current_trial": 164, "trialdata": {"rt": -1000, "trial_type": "single-audio", "word": "ozone", "stimulus": "/static/audio/wordpool/OZONE.wav", "conditions": [12, 800, "a", 12000], "internal_node_id": "0.0-119.0", "trial": 4, "time_elapsed": 1006853, "serialpos": 7, "key_press": -1, "wordID": 995, "type": "PRES_AUD", "trial_index": 164}, "uniqueid": "MTK2429:3U0SRXB7CECV1UXI4HKHR3H5OJLNRU", "dateTime": 1517249677178}, {"current_trial": 165, "trialdata": {"rt": -1000, "trial_type": "single-audio", "word": "worker", "stimulus": "/static/audio/wordpool/WORKER.wav", "conditions": [12, 800, "a", 12000], "internal_node_id": "0.0-120.0", "trial": 4, "time_elapsed": 1008789, "serialpos": 8, "key_press": -1, "wordID": 1620, "type": "PRES_AUD", "trial_index": 165}, "uniqueid": "MTK2429:3U0SRXB7CECV1UXI4HKHR3H5OJLNRU", "dateTime": 1517249679114}, {"current_trial": 166, "trialdata": {"rt": -1000, "trial_type": "single-audio", "word": "chapel", "stimulus": "/static/audio/wordpool/CHAPEL.wav", "conditions": [12, 800, "a", 12000], "internal_node_id": "0.0-121.0", "trial": 4, "time_elapsed": 1010465, "serialpos": 9, "key_press": -1, "wordID": 279, "type": "PRES_AUD", "trial_index": 166}, "uniqueid": "MTK2429:3U0SRXB7CECV1UXI4HKHR3H5OJLNRU", "dateTime": 1517249680790}, {"current_trial": 167, "trialdata": {"rt": -1000, "trial_type": "single-audio", "word": "bug", "stimulus": "/static/audio/wordpool/BUG.wav", "conditions": [12, 800, "a", 12000], "internal_node_id": "0.0-122.0", "trial": 4, "time_elapsed": 1012205, "serialpos": 10, "key_press": -1, "wordID": 186, "type": "PRES_AUD", "trial_index": 167}, "uniqueid": "MTK2429:3U0SRXB7CECV1UXI4HKHR3H5OJLNRU", "dateTime": 1517249682531}, {"current_trial": 168, "trialdata": {"rt": -1000, "trial_type": "single-audio", "word": "tile", "stimulus": "/static/audio/wordpool/TILE.wav", "conditions": [12, 800, "a", 12000], "internal_node_id": "0.0-123.0", "trial": 4, "time_elapsed": 1013969, "serialpos": 11, "key_press": -1, "wordID": 1467, "type": "PRES_AUD", "trial_index": 168}, "uniqueid": "MTK2429:3U0SRXB7CECV1UXI4HKHR3H5OJLNRU", "dateTime": 1517249684294}, {"current_trial": 169, "trialdata": {"rt": -1, "trial_type": "single-stim", "stimulus": "", "internal_node_id": "0.0-124.0-0.0", "time_elapsed": 1015206, "key_press": -1, "type": "PRE_RECALL_DELAY", "trial_index": 169}, "uniqueid": "MTK2429:3U0SRXB7CECV1UXI4HKHR3H5OJLNRU", "dateTime": 1517249685531}, {"current_trial": 170, "trialdata": {"rt": -1000, "trial_type": "single-audio", "stimulus": "/static/audio/400Hz.wav", "internal_node_id": "0.0-125.0", "time_elapsed": 1015708, "key_press": -1, "type": "PRE_RECALL_ALERT", "trial_index": 170}, "uniqueid": "MTK2429:3U0SRXB7CECV1UXI4HKHR3H5OJLNRU", "dateTime": 1517249686033}, {"current_trial": 171, "trialdata": {"rt": [2283, 3529, 5989, 10359, 18473, 21488, 28217, 35969], "recwords": ["college", "tile", "fungus", "chapel", "servey", "survey", "report", "tile"], "key_times": [372, 511, 762, 909, 1069, 1430, 1632, 2283, 2808, 2953, 3139, 3361, 3529, 4664, 4762, 4958, 5228, 5427, 5724, 5989, 7692, 7855, 7968, 8191, 8568, 8724, 9047, 9048, 10009, 10359, 12924, 13215, 14164, 15101, 16186, 17129, 17230, 17390, 17780, 18473, 19597, 19857, 20028, 20660, 20737, 20890, 21488, 23777, 23994, 24176, 24534, 25243, 25658, 25839, 26008, 26617, 26776, 26797, 27290, 28217, 34940, 35034, 35247, 35341, 35969], "trial_type": "free-recall", "conditions": [12, 800, "a", 12000], "internal_node_id": "0.0-126.0-0.0", "key_presses": [67, 79, 76, 76, 69, 71, 69, 13, 84, 73, 76, 69, 13, 70, 85, 78, 71, 85, 83, 13, 67, 72, 65, 80, 69, 76, 16, 222, 8, 13, 83, 69, 82, 86, 8, 86, 69, 89, 16, 13, 83, 85, 82, 86, 69, 89, 13, 82, 69, 80, 79, 84, 82, 8, 84, 8, 8, 82, 84, 13, 84, 73, 76, 69, 13], "trial": 4, "time_elapsed": 1075713, "type": "FREE_RECALL", "trial_index": 171}, "uniqueid": "MTK2429:3U0SRXB7CECV1UXI4HKHR3H5OJLNRU", "dateTime": 1517249746055}, {"current_trial": 172, "trialdata": {"rt": 1156, "trial_type": "text", "internal_node_id": "0.0-127.0", "time_elapsed": 1078888, "key_press": 13, "type": "INSTRUCTIONS", "trial_index": 172}, "uniqueid": "MTK2429:3U0SRXB7CECV1UXI4HKHR3H5OJLNRU", "dateTime": 1517249749213}, {"current_trial": 173, "trialdata": {"rt": [8900], "trial_type": "math-distractor", "key_times": [2116, 2275, 3344, 3684, 8258, 8403, 8900, 11655, 11820], "responses": ["22"], "num2": [6, 8], "num3": [6, 2], "conditions": [24, 1600, "a", 12000], "internal_node_id": "0.0-128.0", "key_presses": [98, 101, 8, 8, 98, 98, 13, 97, 98], "trial": 5, "time_elapsed": 1092893, "type": "DISTRACTOR", "trial_index": 173, "num1": [9, 2]}, "uniqueid": "MTK2429:3U0SRXB7CECV1UXI4HKHR3H5OJLNRU", "dateTime": 1517249763218}, {"current_trial": 174, "trialdata": {"rt": -1, "trial_type": "single-stim", "stimulus": "<p id=\"stim\">10</p>", "internal_node_id": "0.0-129.0-0.0", "time_elapsed": 1095895, "key_press": -1, "trial_index": 174}, "uniqueid": "MTK2429:3U0SRXB7CECV1UXI4HKHR3H5OJLNRU", "dateTime": 1517249766220}, {"current_trial": 175, "trialdata": {"rt": -1, "trial_type": "single-stim", "stimulus": "<p id=\"stim\">9</p>", "internal_node_id": "0.0-129.0-1.0", "time_elapsed": 1096898, "key_press": -1, "trial_index": 175}, "uniqueid": "MTK2429:3U0SRXB7CECV1UXI4HKHR3H5OJLNRU", "dateTime": 1517249767223}, {"current_trial": 176, "trialdata": {"rt": -1, "trial_type": "single-stim", "stimulus": "<p id=\"stim\">8</p>", "internal_node_id": "0.0-129.0-2.0", "time_elapsed": 1097899, "key_press": -1, "trial_index": 176}, "uniqueid": "MTK2429:3U0SRXB7CECV1UXI4HKHR3H5OJLNRU", "dateTime": 1517249768225}, {"current_trial": 177, "trialdata": {"rt": -1, "trial_type": "single-stim", "stimulus": "<p id=\"stim\">7</p>", "internal_node_id": "0.0-129.0-3.0", "time_elapsed": 1098901, "key_press": -1, "trial_index": 177}, "uniqueid": "MTK2429:3U0SRXB7CECV1UXI4HKHR3H5OJLNRU", "dateTime": 1517249769231}, {"current_trial": 178, "trialdata": {"rt": -1, "trial_type": "single-stim", "stimulus": "<p id=\"stim\">6</p>", "internal_node_id": "0.0-129.0-4.0", "time_elapsed": 1099907, "key_press": -1, "trial_index": 178}, "uniqueid": "MTK2429:3U0SRXB7CECV1UXI4HKHR3H5OJLNRU", "dateTime": 1517249770232}, {"current_trial": 179, "trialdata": {"rt": -1, "trial_type": "single-stim", "stimulus": "<p id=\"stim\">5</p>", "internal_node_id": "0.0-129.0-5.0", "time_elapsed": 1100909, "key_press": -1, "trial_index": 179}, "uniqueid": "MTK2429:3U0SRXB7CECV1UXI4HKHR3H5OJLNRU", "dateTime": 1517249771234}, {"current_trial": 180, "trialdata": {"rt": -1, "trial_type": "single-stim", "stimulus": "<p id=\"stim\">4</p>", "internal_node_id": "0.0-129.0-6.0", "time_elapsed": 1101911, "key_press": -1, "trial_index": 180}, "uniqueid": "MTK2429:3U0SRXB7CECV1UXI4HKHR3H5OJLNRU", "dateTime": 1517249772236}, {"current_trial": 181, "trialdata": {"rt": -1, "trial_type": "single-stim", "stimulus": "<p id=\"stim\">3</p>", "internal_node_id": "0.0-129.0-7.0", "time_elapsed": 1102912, "key_press": -1, "trial_index": 181}, "uniqueid": "MTK2429:3U0SRXB7CECV1UXI4HKHR3H5OJLNRU", "dateTime": 1517249773238}, {"current_trial": 182, "trialdata": {"rt": -1, "trial_type": "single-stim", "stimulus": "<p id=\"stim\">2</p>", "internal_node_id": "0.0-129.0-8.0", "time_elapsed": 1103914, "key_press": -1, "trial_index": 182}, "uniqueid": "MTK2429:3U0SRXB7CECV1UXI4HKHR3H5OJLNRU", "dateTime": 1517249774239}, {"current_trial": 183, "trialdata": {"rt": -1, "trial_type": "single-stim", "stimulus": "<p id=\"stim\">1</p>", "internal_node_id": "0.0-129.0-9.0", "time_elapsed": 1104916, "key_press": -1, "trial_index": 183}, "uniqueid": "MTK2429:3U0SRXB7CECV1UXI4HKHR3H5OJLNRU", "dateTime": 1517249775241}, {"current_trial": 184, "trialdata": {"rt": -1, "trial_type": "single-stim", "stimulus": "<p id=\"stim\">+</p>", "internal_node_id": "0.0-130.0-0.0", "time_elapsed": 1106418, "key_press": -1, "type": "FIXATION", "trial_index": 184}, "uniqueid": "MTK2429:3U0SRXB7CECV1UXI4HKHR3H5OJLNRU", "dateTime": 1517249776743}, {"current_trial": 185, "trialdata": {"rt": -1000, "trial_type": "single-audio", "word": "scissors", "stimulus": "/static/audio/wordpool/SCISSORS.wav", "conditions": [24, 1600, "a", 12000], "internal_node_id": "0.0-131.0", "trial": 5, "time_elapsed": 1109157, "serialpos": 0, "key_press": -1, "wordID": 1249, "type": "PRES_AUD", "trial_index": 185}, "uniqueid": "MTK2429:3U0SRXB7CECV1UXI4HKHR3H5OJLNRU", "dateTime": 1517249779482}, {"current_trial": 186, "trialdata": {"rt": -1000, "trial_type": "single-audio", "word": "smog", "stimulus": "/static/audio/wordpool/SMOG.wav", "conditions": [24, 1600, "a", 12000], "internal_node_id": "0.0-132.0", "trial": 5, "time_elapsed": 1111953, "serialpos": 1, "key_press": -1, "wordID": 1329, "type": "PRES_AUD", "trial_index": 186}, "uniqueid": "MTK2429:3U0SRXB7CECV1UXI4HKHR3H5OJLNRU", "dateTime": 1517249782278}, {"current_trial": 187, "trialdata": {"rt": -1000, "trial_type": "single-audio", "word": "actor", "stimulus": "/static/audio/wordpool/ACTOR.wav", "conditions": [24, 1600, "a", 12000], "internal_node_id": "0.0-133.0", "trial": 5, "time_elapsed": 1114456, "serialpos": 2, "key_press": -1, "wordID": 4, "type": "PRES_AUD", "trial_index": 187}, "uniqueid": "MTK2429:3U0SRXB7CECV1UXI4HKHR3H5OJLNRU", "dateTime": 1517249784781}, {"current_trial": 188, "trialdata": {"rt": -1000, "trial_type": "single-audio", "word": "tweezers", "stimulus": "/static/audio/wordpool/TWEEZERS.wav", "conditions": [24, 1600, "a", 12000], "internal_node_id": "0.0-134.0", "trial": 5, "time_elapsed": 1116908, "serialpos": 3, "key_press": -1, "wordID": 1525, "type": "PRES_AUD", "trial_index": 188}, "uniqueid": "MTK2429:3U0SRXB7CECV1UXI4HKHR3H5OJLNRU", "dateTime": 1517249787234}, {"current_trial": 189, "trialdata": {"rt": -1000, "trial_type": "single-audio", "word": "dust", "stimulus": "/static/audio/wordpool/DUST.wav", "conditions": [24, 1600, "a", 12000], "internal_node_id": "0.0-135.0", "trial": 5, "time_elapsed": 1119413, "serialpos": 4, "key_press": -1, "wordID": 507, "type": "PRES_AUD", "trial_index": 189}, "uniqueid": "MTK2429:3U0SRXB7CECV1UXI4HKHR3H5OJLNRU", "dateTime": 1517249789738}, {"current_trial": 190, "trialdata": {"rt": -1000, "trial_type": "single-audio", "word": "heart", "stimulus": "/static/audio/wordpool/HEART.wav", "conditions": [24, 1600, "a", 12000], "internal_node_id": "0.0-136.0", "trial": 5, "time_elapsed": 1121977, "serialpos": 5, "key_press": -1, "wordID": 696, "type": "PRES_AUD", "trial_index": 190}, "uniqueid": "MTK2429:3U0SRXB7CECV1UXI4HKHR3H5OJLNRU", "dateTime": 1517249792302}, {"current_trial": 191, "trialdata": {"rt": -1000, "trial_type": "single-audio", "word": "dandruff", "stimulus": "/static/audio/wordpool/DANDRUFF.wav", "conditions": [24, 1600, "a", 12000], "internal_node_id": "0.0-137.0", "trial": 5, "time_elapsed": 1124449, "serialpos": 6, "key_press": -1, "wordID": 438, "type": "PRES_AUD", "trial_index": 191}, "uniqueid": "MTK2429:3U0SRXB7CECV1UXI4HKHR3H5OJLNRU", "dateTime": 1517249794775}, {"current_trial": 192, "trialdata": {"rt": -1000, "trial_type": "single-audio", "word": "viking", "stimulus": "/static/audio/wordpool/VIKING.wav", "conditions": [24, 1600, "a", 12000], "internal_node_id": "0.0-138.0", "trial": 5, "time_elapsed": 1126896, "serialpos": 7, "key_press": -1, "wordID": 1564, "type": "PRES_AUD", "trial_index": 192}, "uniqueid": "MTK2429:3U0SRXB7CECV1UXI4HKHR3H5OJLNRU", "dateTime": 1517249797221}, {"current_trial": 193, "trialdata": {"rt": -1000, "trial_type": "single-audio", "word": "thief", "stimulus": "/static/audio/wordpool/THIEF.wav", "conditions": [24, 1600, "a", 12000], "internal_node_id": "0.0-139.0", "trial": 5, "time_elapsed": 1129693, "serialpos": 8, "key_press": -1, "wordID": 1455, "type": "PRES_AUD", "trial_index": 193}, "uniqueid": "MTK2429:3U0SRXB7CECV1UXI4HKHR3H5OJLNRU", "dateTime": 1517249800018}, {"current_trial": 194, "trialdata": {"rt": -1000, "trial_type": "single-audio", "word": "pilot", "stimulus": "/static/audio/wordpool/PILOT.wav", "conditions": [24, 1600, "a", 12000], "internal_node_id": "0.0-140.0", "trial": 5, "time_elapsed": 1132362, "serialpos": 9, "key_press": -1, "wordID": 1069, "type": "PRES_AUD", "trial_index": 194}, "uniqueid": "MTK2429:3U0SRXB7CECV1UXI4HKHR3H5OJLNRU", "dateTime": 1517249802688}, {"current_trial": 195, "trialdata": {"rt": -1000, "trial_type": "single-audio", "word": "snack", "stimulus": "/static/audio/wordpool/SNACK.wav", "conditions": [24, 1600, "a", 12000], "internal_node_id": "0.0-141.0", "trial": 5, "time_elapsed": 1134917, "serialpos": 10, "key_press": -1, "wordID": 1330, "type": "PRES_AUD", "trial_index": 195}, "uniqueid": "MTK2429:3U0SRXB7CECV1UXI4HKHR3H5OJLNRU", "dateTime": 1517249805242}, {"current_trial": 196, "trialdata": {"rt": -1000, "trial_type": "single-audio", "word": "lunch", "stimulus": "/static/audio/wordpool/LUNCH.wav", "conditions": [24, 1600, "a", 12000], "internal_node_id": "0.0-142.0", "trial": 5, "time_elapsed": 1137575, "serialpos": 11, "key_press": -1, "wordID": 848, "type": "PRES_AUD", "trial_index": 196}, "uniqueid": "MTK2429:3U0SRXB7CECV1UXI4HKHR3H5OJLNRU", "dateTime": 1517249807900}, {"current_trial": 197, "trialdata": {"rt": -1000, "trial_type": "single-audio", "word": "spouse", "stimulus": "/static/audio/wordpool/SPOUSE.wav", "conditions": [24, 1600, "a", 12000], "internal_node_id": "0.0-143.0", "trial": 5, "time_elapsed": 1140102, "serialpos": 12, "key_press": -1, "wordID": 1357, "type": "PRES_AUD", "trial_index": 197}, "uniqueid": "MTK2429:3U0SRXB7CECV1UXI4HKHR3H5OJLNRU", "dateTime": 1517249810427}, {"current_trial": 198, "trialdata": {"rt": -1000, "trial_type": "single-audio", "word": "contract", "stimulus": "/static/audio/wordpool/CONTRACT.wav", "conditions": [24, 1600, "a", 12000], "internal_node_id": "0.0-144.0", "trial": 5, "time_elapsed": 1142597, "serialpos": 13, "key_press": -1, "wordID": 367, "type": "PRES_AUD", "trial_index": 198}, "uniqueid": "MTK2429:3U0SRXB7CECV1UXI4HKHR3H5OJLNRU", "dateTime": 1517249812922}, {"current_trial": 199, "trialdata": {"rt": -1000, "trial_type": "single-audio", "word": "muffin", "stimulus": "/static/audio/wordpool/MUFFIN.wav", "conditions": [24, 1600, "a", 12000], "internal_node_id": "0.0-145.0", "trial": 5, "time_elapsed": 1145126, "serialpos": 14, "key_press": -1, "wordID": 928, "type": "PRES_AUD", "trial_index": 199}, "uniqueid": "MTK2429:3U0SRXB7CECV1UXI4HKHR3H5OJLNRU", "dateTime": 1517249815452}, {"current_trial": 200, "trialdata": {"rt": -1000, "trial_type": "single-audio", "word": "apple", "stimulus": "/static/audio/wordpool/APPLE.wav", "conditions": [24, 1600, "a", 12000], "internal_node_id": "0.0-146.0", "trial": 5, "time_elapsed": 1147576, "serialpos": 15, "key_press": -1, "wordID": 32, "type": "PRES_AUD", "trial_index": 200}, "uniqueid": "MTK2429:3U0SRXB7CECV1UXI4HKHR3H5OJLNRU", "dateTime": 1517249817902}, {"current_trial": 201, "trialdata": {"rt": -1000, "trial_type": "single-audio", "word": "climber", "stimulus": "/static/audio/wordpool/CLIMBER.wav", "conditions": [24, 1600, "a", 12000], "internal_node_id": "0.0-147.0", "trial": 5, "time_elapsed": 1149995, "serialpos": 16, "key_press": -1, "wordID": 322, "type": "PRES_AUD", "trial_index": 201}, "uniqueid": "MTK2429:3U0SRXB7CECV1UXI4HKHR3H5OJLNRU", "dateTime": 1517249820320}, {"current_trial": 202, "trialdata": {"rt": -1000, "trial_type": "single-audio", "word": "wardrobe", "stimulus": "/static/audio/wordpool/WARDROBE.wav", "conditions": [24, 1600, "a", 12000], "internal_node_id": "0.0-148.0", "trial": 5, "time_elapsed": 1152396, "serialpos": 17, "key_press": -1, "wordID": 1586, "type": "PRES_AUD", "trial_index": 202}, "uniqueid": "MTK2429:3U0SRXB7CECV1UXI4HKHR3H5OJLNRU", "dateTime": 1517249822721}, {"current_trial": 203, "trialdata": {"rt": -1000, "trial_type": "single-audio", "word": "glass", "stimulus": "/static/audio/wordpool/GLASS.wav", "conditions": [24, 1600, "a", 12000], "internal_node_id": "0.0-149.0", "trial": 5, "time_elapsed": 1154879, "serialpos": 18, "key_press": -1, "wordID": 638, "type": "PRES_AUD", "trial_index": 203}, "uniqueid": "MTK2429:3U0SRXB7CECV1UXI4HKHR3H5OJLNRU", "dateTime": 1517249825205}, {"current_trial": 204, "trialdata": {"rt": -1000, "trial_type": "single-audio", "word": "parent", "stimulus": "/static/audio/wordpool/PARENT.wav", "conditions": [24, 1600, "a", 12000], "internal_node_id": "0.0-150.0", "trial": 5, "time_elapsed": 1157436, "serialpos": 19, "key_press": -1, "wordID": 1012, "type": "PRES_AUD", "trial_index": 204}, "uniqueid": "MTK2429:3U0SRXB7CECV1UXI4HKHR3H5OJLNRU", "dateTime": 1517249827761}, {"current_trial": 205, "trialdata": {"rt": -1000, "trial_type": "single-audio", "word": "harp", "stimulus": "/static/audio/wordpool/HARP.wav", "conditions": [24, 1600, "a", 12000], "internal_node_id": "0.0-151.0", "trial": 5, "time_elapsed": 1159960, "serialpos": 20, "key_press": -1, "wordID": 688, "type": "PRES_AUD", "trial_index": 205}, "uniqueid": "MTK2429:3U0SRXB7CECV1UXI4HKHR3H5OJLNRU", "dateTime": 1517249830285}, {"current_trial": 206, "trialdata": {"rt": -1000, "trial_type": "single-audio", "word": "flute", "stimulus": "/static/audio/wordpool/FLUTE.wav", "conditions": [24, 1600, "a", 12000], "internal_node_id": "0.0-152.0", "trial": 5, "time_elapsed": 1162624, "serialpos": 21, "key_press": -1, "wordID": 584, "type": "PRES_AUD", "trial_index": 206}, "uniqueid": "MTK2429:3U0SRXB7CECV1UXI4HKHR3H5OJLNRU", "dateTime": 1517249832949}, {"current_trial": 207, "trialdata": {"rt": -1000, "trial_type": "single-audio", "word": "female", "stimulus": "/static/audio/wordpool/FEMALE.wav", "conditions": [24, 1600, "a", 12000], "internal_node_id": "0.0-153.0", "trial": 5, "time_elapsed": 1165376, "serialpos": 22, "key_press": -1, "wordID": 558, "type": "PRES_AUD", "trial_index": 207}, "uniqueid": "MTK2429:3U0SRXB7CECV1UXI4HKHR3H5OJLNRU", "dateTime": 1517249835702}, {"current_trial": 208, "trialdata": {"rt": -1000, "trial_type": "single-audio", "word": "hiker", "stimulus": "/static/audio/wordpool/HIKER.wav", "conditions": [24, 1600, "a", 12000], "internal_node_id": "0.0-154.0", "trial": 5, "time_elapsed": 1168021, "serialpos": 23, "key_press": -1, "wordID": 707, "type": "PRES_AUD", "trial_index": 208}, "uniqueid": "MTK2429:3U0SRXB7CECV1UXI4HKHR3H5OJLNRU", "dateTime": 1517249838346}, {"current_trial": 209, "trialdata": {"rt": -1, "trial_type": "single-stim", "stimulus": "", "internal_node_id": "0.0-155.0-0.0", "time_elapsed": 1169317, "key_press": -1, "type": "PRE_RECALL_DELAY", "trial_index": 209}, "uniqueid": "MTK2429:3U0SRXB7CECV1UXI4HKHR3H5OJLNRU", "dateTime": 1517249839642}, {"current_trial": 210, "trialdata": {"rt": -1000, "trial_type": "single-audio", "stimulus": "/static/audio/400Hz.wav", "internal_node_id": "0.0-156.0", "time_elapsed": 1169819, "key_press": -1, "type": "PRE_RECALL_ALERT", "trial_index": 210}, "uniqueid": "MTK2429:3U0SRXB7CECV1UXI4HKHR3H5OJLNRU", "dateTime": 1517249840144}, {"current_trial": 211, "trialdata": {"rt": [1689, 3987, 6846, 10433, 15458, 21294, 27760, 44693], "recwords": ["hiker", "female", "flute", "harp", "pilot", "muffin", "spouse", "carrot"], "key_times": [585, 715, 874, 1067, 1178, 1689, 2434, 2627, 2897, 3042, 3144, 3324, 3987, 5713, 5845, 6106, 6494, 6574, 6846, 7633, 7733, 7978, 8167, 8680, 9207, 10433, 11655, 11991, 13468, 14154, 14684, 14859, 15125, 15458, 17293, 17525, 17805, 17967, 18173, 18288, 19245, 19424, 19602, 19862, 20354, 20502, 20696, 20784, 21294, 26422, 26553, 26732, 26985, 27187, 27380, 27760, 42875, 42995, 43349, 43490, 43617, 43783, 44693, 56274, 56445, 56486, 56722, 56820, 57462, 57642, 57803, 57956, 58581, 58998, 59486, 59619, 59891], "trial_type": "free-recall", "conditions": [24, 1600, "a", 12000], "internal_node_id": "0.0-157.0-0.0", "key_presses": [72, 73, 75, 69, 82, 13, 70, 69, 77, 65, 76, 69, 13, 70, 76, 85, 84, 69, 13, 72, 65, 82, 219, 8, 80, 13, 80, 76, 8, 73, 76, 79, 84, 13, 77, 85, 83, 83, 73, 78, 8, 8, 8, 8, 70, 70, 73, 78, 13, 83, 80, 79, 85, 83, 69, 13, 67, 65, 82, 82, 79, 84, 13, 80, 65, 76, 78, 69, 8, 8, 8, 8, 75, 8, 76, 65, 78], "trial": 5, "time_elapsed": 1229828, "type": "FREE_RECALL", "trial_index": 211}, "uniqueid": "MTK2429:3U0SRXB7CECV1UXI4HKHR3H5OJLNRU", "dateTime": 1517249900166}, {"current_trial": 212, "trialdata": {"rt": 629, "trial_type": "text", "internal_node_id": "0.0-158.0", "time_elapsed": 1232472, "key_press": 13, "type": "INSTRUCTIONS", "trial_index": 212}, "uniqueid": "MTK2429:3U0SRXB7CECV1UXI4HKHR3H5OJLNRU", "dateTime": 1517249902797}, {"current_trial": 213, "trialdata": {"rt": [2411, 8940, 13228, 15389, 17658, 20276, 23567], "trial_type": "math-distractor", "key_times": [1749, 1959, 2411, 8583, 8748, 8940, 12857, 13018, 13228, 15018, 15188, 15389, 17261, 17435, 17658, 19592, 19991, 20276, 23076, 23245, 23567], "responses": ["18", "24", "14", "12", "12", "16", "20"], "num2": [8, 8, 6, 8, 3, 6, 7, 5], "num3": [5, 9, 4, 1, 3, 2, 6, 2], "conditions": [24, 1600, "a", 24000], "internal_node_id": "0.0-159.0", "key_presses": [97, 104, 13, 98, 100, 13, 97, 100, 13, 97, 98, 13, 97, 98, 13, 97, 102, 13, 98, 96, 13], "trial": 6, "time_elapsed": 1258477, "type": "DISTRACTOR", "trial_index": 213, "num1": [5, 5, 4, 3, 6, 8, 7, 5]}, "uniqueid": "MTK2429:3U0SRXB7CECV1UXI4HKHR3H5OJLNRU", "dateTime": 1517249928802}, {"current_trial": 214, "trialdata": {"rt": -1, "trial_type": "single-stim", "stimulus": "<p id=\"stim\">10</p>", "internal_node_id": "0.0-160.0-0.0", "time_elapsed": 1261480, "key_press": -1, "trial_index": 214}, "uniqueid": "MTK2429:3U0SRXB7CECV1UXI4HKHR3H5OJLNRU", "dateTime": 1517249931805}, {"current_trial": 215, "trialdata": {"rt": -1, "trial_type": "single-stim", "stimulus": "<p id=\"stim\">9</p>", "internal_node_id": "0.0-160.0-1.0", "time_elapsed": 1262481, "key_press": -1, "trial_index": 215}, "uniqueid": "MTK2429:3U0SRXB7CECV1UXI4HKHR3H5OJLNRU", "dateTime": 1517249932806}, {"current_trial": 216, "trialdata": {"rt": -1, "trial_type": "single-stim", "stimulus": "<p id=\"stim\">8</p>", "internal_node_id": "0.0-160.0-2.0", "time_elapsed": 1263484, "key_press": -1, "trial_index": 216}, "uniqueid": "MTK2429:3U0SRXB7CECV1UXI4HKHR3H5OJLNRU", "dateTime": 1517249933809}, {"current_trial": 217, "trialdata": {"rt": -1, "trial_type": "single-stim", "stimulus": "<p id=\"stim\">7</p>", "internal_node_id": "0.0-160.0-3.0", "time_elapsed": 1264485, "key_press": -1, "trial_index": 217}, "uniqueid": "MTK2429:3U0SRXB7CECV1UXI4HKHR3H5OJLNRU", "dateTime": 1517249934811}, {"current_trial": 218, "trialdata": {"rt": -1, "trial_type": "single-stim", "stimulus": "<p id=\"stim\">6</p>", "internal_node_id": "0.0-160.0-4.0", "time_elapsed": 1265487, "key_press": -1, "trial_index": 218}, "uniqueid": "MTK2429:3U0SRXB7CECV1UXI4HKHR3H5OJLNRU", "dateTime": 1517249935812}, {"current_trial": 219, "trialdata": {"rt": -1, "trial_type": "single-stim", "stimulus": "<p id=\"stim\">5</p>", "internal_node_id": "0.0-160.0-5.0", "time_elapsed": 1266488, "key_press": -1, "trial_index": 219}, "uniqueid": "MTK2429:3U0SRXB7CECV1UXI4HKHR3H5OJLNRU", "dateTime": 1517249936813}, {"current_trial": 220, "trialdata": {"rt": -1, "trial_type": "single-stim", "stimulus": "<p id=\"stim\">4</p>", "internal_node_id": "0.0-160.0-6.0", "time_elapsed": 1267490, "key_press": -1, "trial_index": 220}, "uniqueid": "MTK2429:3U0SRXB7CECV1UXI4HKHR3H5OJLNRU", "dateTime": 1517249937815}, {"current_trial": 221, "trialdata": {"rt": -1, "trial_type": "single-stim", "stimulus": "<p id=\"stim\">3</p>", "internal_node_id": "0.0-160.0-7.0", "time_elapsed": 1268582, "key_press": -1, "trial_index": 221}, "uniqueid": "MTK2429:3U0SRXB7CECV1UXI4HKHR3H5OJLNRU", "dateTime": 1517249938907}, {"current_trial": 222, "trialdata": {"rt": -1, "trial_type": "single-stim", "stimulus": "<p id=\"stim\">2</p>", "internal_node_id": "0.0-160.0-8.0", "time_elapsed": 1269582, "key_press": -1, "trial_index": 222}, "uniqueid": "MTK2429:3U0SRXB7CECV1UXI4HKHR3H5OJLNRU", "dateTime": 1517249939908}, {"current_trial": 223, "trialdata": {"rt": -1, "trial_type": "single-stim", "stimulus": "<p id=\"stim\">1</p>", "internal_node_id": "0.0-160.0-9.0", "time_elapsed": 1270585, "key_press": -1, "trial_index": 223}, "uniqueid": "MTK2429:3U0SRXB7CECV1UXI4HKHR3H5OJLNRU", "dateTime": 1517249940910}, {"current_trial": 224, "trialdata": {"rt": -1, "trial_type": "single-stim", "stimulus": "<p id=\"stim\">+</p>", "internal_node_id": "0.0-161.0-0.0", "time_elapsed": 1272086, "key_press": -1, "type": "FIXATION", "trial_index": 224}, "uniqueid": "MTK2429:3U0SRXB7CECV1UXI4HKHR3H5OJLNRU", "dateTime": 1517249942411}, {"current_trial": 225, "trialdata": {"rt": -1000, "trial_type": "single-audio", "word": "necklace", "stimulus": "/static/audio/wordpool/NECKLACE.wav", "conditions": [24, 1600, "a", 24000], "internal_node_id": "0.0-162.0", "trial": 6, "time_elapsed": 1274632, "serialpos": 0, "key_press": -1, "wordID": 939, "type": "PRES_AUD", "trial_index": 225}, "uniqueid": "MTK2429:3U0SRXB7CECV1UXI4HKHR3H5OJLNRU", "dateTime": 1517249944957}, {"current_trial": 226, "trialdata": {"rt": -1000, "trial_type": "single-audio", "word": "farmer", "stimulus": "/static/audio/wordpool/FARMER.wav", "conditions": [24, 1600, "a", 24000], "internal_node_id": "0.0-163.0", "trial": 6, "time_elapsed": 1277317, "serialpos": 1, "key_press": -1, "wordID": 552, "type": "PRES_AUD", "trial_index": 226}, "uniqueid": "MTK2429:3U0SRXB7CECV1UXI4HKHR3H5OJLNRU", "dateTime": 1517249947642}, {"current_trial": 227, "trialdata": {"rt": -1000, "trial_type": "single-audio", "word": "goblin", "stimulus": "/static/audio/wordpool/GOBLIN.wav", "conditions": [24, 1600, "a", 24000], "internal_node_id": "0.0-164.0", "trial": 6, "time_elapsed": 1280102, "serialpos": 2, "key_press": -1, "wordID": 644, "type": "PRES_AUD", "trial_index": 227}, "uniqueid": "MTK2429:3U0SRXB7CECV1UXI4HKHR3H5OJLNRU", "dateTime": 1517249950427}, {"current_trial": 228, "trialdata": {"rt": -1000, "trial_type": "single-audio", "word": "candy", "stimulus": "/static/audio/wordpool/CANDY.wav", "conditions": [24, 1600, "a", 24000], "internal_node_id": "0.0-165.0", "trial": 6, "time_elapsed": 1282689, "serialpos": 3, "key_press": -1, "wordID": 229, "type": "PRES_AUD", "trial_index": 228}, "uniqueid": "MTK2429:3U0SRXB7CECV1UXI4HKHR3H5OJLNRU", "dateTime": 1517249953014}, {"current_trial": 229, "trialdata": {"rt": -1000, "trial_type": "single-audio", "word": "flask", "stimulus": "/static/audio/wordpool/FLASK.wav", "conditions": [24, 1600, "a", 24000], "internal_node_id": "0.0-166.0", "trial": 6, "time_elapsed": 1285477, "serialpos": 4, "key_press": -1, "wordID": 575, "type": "PRES_AUD", "trial_index": 229}, "uniqueid": "MTK2429:3U0SRXB7CECV1UXI4HKHR3H5OJLNRU", "dateTime": 1517249955802}, {"current_trial": 230, "trialdata": {"rt": -1000, "trial_type": "single-audio", "word": "padding", "stimulus": "/static/audio/wordpool/PADDING.wav", "conditions": [24, 1600, "a", 24000], "internal_node_id": "0.0-167.0", "trial": 6, "time_elapsed": 1288011, "serialpos": 5, "key_press": -1, "wordID": 998, "type": "PRES_AUD", "trial_index": 230}, "uniqueid": "MTK2429:3U0SRXB7CECV1UXI4HKHR3H5OJLNRU", "dateTime": 1517249958336}, {"current_trial": 231, "trialdata": {"rt": -1000, "trial_type": "single-audio", "word": "truck", "stimulus": "/static/audio/wordpool/TRUCK.wav", "conditions": [24, 1600, "a", 24000], "internal_node_id": "0.0-168.0", "trial": 6, "time_elapsed": 1290668, "serialpos": 6, "key_press": -1, "wordID": 1511, "type": "PRES_AUD", "trial_index": 231}, "uniqueid": "MTK2429:3U0SRXB7CECV1UXI4HKHR3H5OJLNRU", "dateTime": 1517249960994}, {"current_trial": 232, "trialdata": {"rt": -1000, "trial_type": "single-audio", "word": "yacht", "stimulus": "/static/audio/wordpool/YACHT.wav", "conditions": [24, 1600, "a", 24000], "internal_node_id": "0.0-169.0", "trial": 6, "time_elapsed": 1293270, "serialpos": 7, "key_press": -1, "wordID": 1628, "type": "PRES_AUD", "trial_index": 232}, "uniqueid": "MTK2429:3U0SRXB7CECV1UXI4HKHR3H5OJLNRU", "dateTime": 1517249963595}, {"current_trial": 233, "trialdata": {"rt": -1000, "trial_type": "single-audio", "word": "wasp", "stimulus": "/static/audio/wordpool/WASP.wav", "conditions": [24, 1600, "a", 24000], "internal_node_id": "0.0-170.0", "trial": 6, "time_elapsed": 1295955, "serialpos": 8, "key_press": -1, "wordID": 1592, "type": "PRES_AUD", "trial_index": 233}, "uniqueid": "MTK2429:3U0SRXB7CECV1UXI4HKHR3H5OJLNRU", "dateTime": 1517249966280}, {"current_trial": 234, "trialdata": {"rt": -1000, "trial_type": "single-audio", "word": "pastry", "stimulus": "/static/audio/wordpool/PASTRY.wav", "conditions": [24, 1600, "a", 24000], "internal_node_id": "0.0-171.0", "trial": 6, "time_elapsed": 1298527, "serialpos": 9, "key_press": -1, "wordID": 1021, "type": "PRES_AUD", "trial_index": 234}, "uniqueid": "MTK2429:3U0SRXB7CECV1UXI4HKHR3H5OJLNRU", "dateTime": 1517249968852}, {"current_trial": 235, "trialdata": {"rt": -1000, "trial_type": "single-audio", "word": "doughnut", "stimulus": "/static/audio/wordpool/DOUGHNUT.wav", "conditions": [24, 1600, "a", 24000], "internal_node_id": "0.0-172.0", "trial": 6, "time_elapsed": 1301193, "serialpos": 10, "key_press": -1, "wordID": 489, "type": "PRES_AUD", "trial_index": 235}, "uniqueid": "MTK2429:3U0SRXB7CECV1UXI4HKHR3H5OJLNRU", "dateTime": 1517249971519}, {"current_trial": 236, "trialdata": {"rt": -1000, "trial_type": "single-audio", "word": "handbag", "stimulus": "/static/audio/wordpool/HANDBAG.wav", "conditions": [24, 1600, "a", 24000], "internal_node_id": "0.0-173.0", "trial": 6, "time_elapsed": 1303615, "serialpos": 11, "key_press": -1, "wordID": 683, "type": "PRES_AUD", "trial_index": 236}, "uniqueid": "MTK2429:3U0SRXB7CECV1UXI4HKHR3H5OJLNRU", "dateTime": 1517249973940}, {"current_trial": 237, "trialdata": {"rt": -1000, "trial_type": "single-audio", "word": "inmate", "stimulus": "/static/audio/wordpool/INMATE.wav", "conditions": [24, 1600, "a", 24000], "internal_node_id": "0.0-174.0", "trial": 6, "time_elapsed": 1306205, "serialpos": 12, "key_press": -1, "wordID": 737, "type": "PRES_AUD", "trial_index": 237}, "uniqueid": "MTK2429:3U0SRXB7CECV1UXI4HKHR3H5OJLNRU", "dateTime": 1517249976531}, {"current_trial": 238, "trialdata": {"rt": -1000, "trial_type": "single-audio", "word": "cocktail", "stimulus": "/static/audio/wordpool/COCKTAIL.wav", "conditions": [24, 1600, "a", 24000], "internal_node_id": "0.0-175.0", "trial": 6, "time_elapsed": 1308887, "serialpos": 13, "key_press": -1, "wordID": 337, "type": "PRES_AUD", "trial_index": 238}, "uniqueid": "MTK2429:3U0SRXB7CECV1UXI4HKHR3H5OJLNRU", "dateTime": 1517249979212}, {"current_trial": 239, "trialdata": {"rt": -1000, "trial_type": "single-audio", "word": "racket", "stimulus": "/static/audio/wordpool/RACKET.wav", "conditions": [24, 1600, "a", 24000], "internal_node_id": "0.0-176.0", "trial": 6, "time_elapsed": 1311543, "serialpos": 14, "key_press": -1, "wordID": 1154, "type": "PRES_AUD", "trial_index": 239}, "uniqueid": "MTK2429:3U0SRXB7CECV1UXI4HKHR3H5OJLNRU", "dateTime": 1517249981868}, {"current_trial": 240, "trialdata": {"rt": -1000, "trial_type": "single-audio", "word": "relish", "stimulus": "/static/audio/wordpool/RELISH.wav", "conditions": [24, 1600, "a", 24000], "internal_node_id": "0.0-177.0", "trial": 6, "time_elapsed": 1314043, "serialpos": 15, "key_press": -1, "wordID": 1182, "type": "PRES_AUD", "trial_index": 240}, "uniqueid": "MTK2429:3U0SRXB7CECV1UXI4HKHR3H5OJLNRU", "dateTime": 1517249984368}, {"current_trial": 241, "trialdata": {"rt": -1000, "trial_type": "single-audio", "word": "student", "stimulus": "/static/audio/wordpool/STUDENT.wav", "conditions": [24, 1600, "a", 24000], "internal_node_id": "0.0-178.0", "trial": 6, "time_elapsed": 1316459, "serialpos": 16, "key_press": -1, "wordID": 1394, "type": "PRES_AUD", "trial_index": 241}, "uniqueid": "MTK2429:3U0SRXB7CECV1UXI4HKHR3H5OJLNRU", "dateTime": 1517249986784}, {"current_trial": 242, "trialdata": {"rt": -1000, "trial_type": "single-audio", "word": "trombone", "stimulus": "/static/audio/wordpool/TROMBONE.wav", "conditions": [24, 1600, "a", 24000], "internal_node_id": "0.0-179.0", "trial": 6, "time_elapsed": 1318963, "serialpos": 17, "key_press": -1, "wordID": 1507, "type": "PRES_AUD", "trial_index": 242}, "uniqueid": "MTK2429:3U0SRXB7CECV1UXI4HKHR3H5OJLNRU", "dateTime": 1517249989288}, {"current_trial": 243, "trialdata": {"rt": -1000, "trial_type": "single-audio", "word": "piano", "stimulus": "/static/audio/wordpool/PIANO.wav", "conditions": [24, 1600, "a", 24000], "internal_node_id": "0.0-180.0", "trial": 6, "time_elapsed": 1321571, "serialpos": 18, "key_press": -1, "wordID": 1056, "type": "PRES_AUD", "trial_index": 243}, "uniqueid": "MTK2429:3U0SRXB7CECV1UXI4HKHR3H5OJLNRU", "dateTime": 1517249991897}, {"current_trial": 244, "trialdata": {"rt": -1000, "trial_type": "single-audio", "word": "teacher", "stimulus": "/static/audio/wordpool/TEACHER.wav", "conditions": [24, 1600, "a", 24000], "internal_node_id": "0.0-181.0", "trial": 6, "time_elapsed": 1324215, "serialpos": 19, "key_press": -1, "wordID": 1439, "type": "PRES_AUD", "trial_index": 244}, "uniqueid": "MTK2429:3U0SRXB7CECV1UXI4HKHR3H5OJLNRU", "dateTime": 1517249994540}, {"current_trial": 245, "trialdata": {"rt": -1000, "trial_type": "single-audio", "word": "knife", "stimulus": "/static/audio/wordpool/KNIFE.wav", "conditions": [24, 1600, "a", 24000], "internal_node_id": "0.0-182.0", "trial": 6, "time_elapsed": 1326781, "serialpos": 20, "key_press": -1, "wordID": 784, "type": "PRES_AUD", "trial_index": 245}, "uniqueid": "MTK2429:3U0SRXB7CECV1UXI4HKHR3H5OJLNRU", "dateTime": 1517249997106}, {"current_trial": 246, "trialdata": {"rt": -1000, "trial_type": "single-audio", "word": "elbow", "stimulus": "/static/audio/wordpool/ELBOW.wav", "conditions": [24, 1600, "a", 24000], "internal_node_id": "0.0-183.0", "trial": 6, "time_elapsed": 1329468, "serialpos": 21, "key_press": -1, "wordID": 519, "type": "PRES_AUD", "trial_index": 246}, "uniqueid": "MTK2429:3U0SRXB7CECV1UXI4HKHR3H5OJLNRU", "dateTime": 1517249999793}, {"current_trial": 247, "trialdata": {"rt": -1000, "trial_type": "single-audio", "word": "patrol", "stimulus": "/static/audio/wordpool/PATROL.wav", "conditions": [24, 1600, "a", 24000], "internal_node_id": "0.0-184.0", "trial": 6, "time_elapsed": 1332223, "serialpos": 22, "key_press": -1, "wordID": 1026, "type": "PRES_AUD", "trial_index": 247}, "uniqueid": "MTK2429:3U0SRXB7CECV1UXI4HKHR3H5OJLNRU", "dateTime": 1517250002548}, {"current_trial": 248, "trialdata": {"rt": -1000, "trial_type": "single-audio", "word": "robin", "stimulus": "/static/audio/wordpool/ROBIN.wav", "conditions": [24, 1600, "a", 24000], "internal_node_id": "0.0-185.0", "trial": 6, "time_elapsed": 1334696, "serialpos": 23, "key_press": -1, "wordID": 1198, "type": "PRES_AUD", "trial_index": 248}, "uniqueid": "MTK2429:3U0SRXB7CECV1UXI4HKHR3H5OJLNRU", "dateTime": 1517250005021}, {"current_trial": 249, "trialdata": {"rt": -1, "trial_type": "single-stim", "stimulus": "", "internal_node_id": "0.0-186.0-0.0", "time_elapsed": 1335930, "key_press": -1, "type": "PRE_RECALL_DELAY", "trial_index": 249}, "uniqueid": "MTK2429:3U0SRXB7CECV1UXI4HKHR3H5OJLNRU", "dateTime": 1517250006255}, {"current_trial": 250, "trialdata": {"rt": -1000, "trial_type": "single-audio", "stimulus": "/static/audio/400Hz.wav", "internal_node_id": "0.0-187.0", "time_elapsed": 1336431, "key_press": -1, "type": "PRE_RECALL_ALERT", "trial_index": 250}, "uniqueid": "MTK2429:3U0SRXB7CECV1UXI4HKHR3H5OJLNRU", "dateTime": 1517250006757}, {"current_trial": 251, "trialdata": {"rt": [1702, 3459, 5399, 7168, 10278, 16206, 18904, 24448, 31391, 38764, 44000, 58069], "recwords": ["robin", "teacher", "student", "famer", "farmer", "rack", "relish", "wasp", "rake", "farmer", "parent", "relish"], "key_times": [537, 662, 896, 1015, 1108, 1702, 2324, 2412, 2601, 2693, 2891, 3016, 3119, 3459, 4040, 4217, 4449, 4665, 4757, 4967, 5159, 5399, 6288, 6322, 6634, 6775, 6886, 7168, 8355, 8542, 8776, 9148, 9659, 9756, 10278, 12194, 12395, 12664, 12770, 13468, 14388, 16206, 17494, 17584, 17669, 17877, 17944, 18209, 18904, 23239, 23405, 23563, 23800, 24448, 29249, 29422, 29677, 29883, 30308, 30503, 31021, 31173, 31391, 35291, 35408, 35653, 36119, 36455, 36577, 37156, 37344, 37447, 37590, 38764, 42265, 42350, 42604, 42762, 43153, 43365, 44000, 54929, 55037, 55218, 55442, 55556, 56519, 57076, 57449, 58069], "trial_type": "free-recall", "conditions": [24, 1600, "a", 24000], "internal_node_id": "0.0-188.0-0.0", "key_presses": [82, 79, 66, 73, 78, 13, 84, 69, 65, 67, 72, 69, 82, 13, 83, 84, 85, 68, 69, 78, 84, 13, 70, 65, 77, 69, 82, 13, 70, 65, 82, 77, 69, 82, 13, 82, 65, 67, 65, 8, 75, 13, 82, 69, 76, 73, 83, 72, 13, 87, 65, 83, 80, 13, 82, 65, 69, 75, 8, 8, 75, 69, 13, 70, 65, 82, 77, 82, 69, 8, 8, 69, 82, 13, 80, 65, 82, 69, 78, 84, 13, 82, 69, 76, 73, 83, 74, 8, 72, 13], "trial": 6, "time_elapsed": 1396437, "type": "FREE_RECALL", "trial_index": 251}, "uniqueid": "MTK2429:3U0SRXB7CECV1UXI4HKHR3H5OJLNRU", "dateTime": 1517250066776}, {"current_trial": 252, "trialdata": {"rt": 1192, "trial_type": "text", "internal_node_id": "0.0-189.0", "time_elapsed": 1399645, "key_press": 13, "type": "INSTRUCTIONS", "trial_index": 252}, "uniqu