{"assignmentId": "3Y4W8Q93L0RE8PNMO7BOWVUEXAWVDT", "workerId": "MTK2795", "questiondata": {"origin": "United States", "strat-rehearsal": "98", "marital": "Separated", "education": "Some graduate education", "ethnicity": "Not Hispanic", "color_depth": 24, "distracted": "No", "wrote-notes": "No", "strat-other": "", "screen_width": 1280, "avail_screen_width": 1280, "avail_screen_height": 714, "strat-image": "61", "language": "English", "gender": "Male", "age": "32", "gender_other": "", "race": ["White"], "strat-categorize": "95", "pixel_depth": 24, "strat-spatial": "14", "strat-story": "87", "race_other": "", "screen_height": 800}, "bonus": 0, "hitId": "3K2CEDRACB80C7RG635APJX3OS1MTX", "counterbalance": 2112, "useragent": "Mozilla/5.0 (Macintosh; Intel Mac OS X 10_9_5) AppleWebKit/537.36 (KHTML, like Gecko) Chrome/63.0.3239.132 Safari/537.36", "eventdata": [{"eventtype": "initialized", "interval": 0, "value": null, "timestamp": 1519344639674}, {"eventtype": "window_resize", "interval": 0, "value": [1280, 663], "timestamp": 1519344639674}, {"eventtype": "focus", "interval": 1067575, "value": "off", "timestamp": 1519345707249}, {"eventtype": "focus", "interval": 7670, "value": "on", "timestamp": 1519345714919}, {"eventtype": "focus", "interval": 450766, "value": "off", "timestamp": 1519346165685}, {"eventtype": "focus", "interval": 4998, "value": "on", "timestamp": 1519346170683}, {"eventtype": "focus", "interval": 1013545, "value": "off", "timestamp": 1519347184228}, {"eventtype": "focus", "interval": 1976, "value": "on", "timestamp": 1519347186204}], "data": [{"current_trial": 0, "trialdata": {"rt": 8805, "trial_type": "text", "internal_node_id": "0.0-0.0", "time_elapsed": 8809, "key_press": 13, "type": "INSTRUCTIONS", "trial_index": 0}, "uniqueid": "MTK2795:3Y4W8Q93L0RE8PNMO7BOWVUEXAWVDT", "dateTime": 1519344648901}, {"current_trial": 1, "trialdata": {"rt": 23932, "trial_type": "text", "internal_node_id": "0.0-1.0", "time_elapsed": 32743, "key_press": 13, "type": "INSTRUCTIONS", "trial_index": 1}, "uniqueid": "MTK2795:3Y4W8Q93L0RE8PNMO7BOWVUEXAWVDT", "dateTime": 1519344672834}, {"current_trial": 2, "trialdata": {"rt": [8647], "trial_type": "audio-test", "responses": ["ocean"], "internal_node_id": "0.0-2.0", "time_elapsed": 41407, "type": "AUDIO_TEST", "trial_index": 2}, "uniqueid": "MTK2795:3Y4W8Q93L0RE8PNMO7BOWVUEXAWVDT", "dateTime": 1519344681499}, {"current_trial": 3, "trialdata": {"rt": [4401], "trial_type": "audio-test", "responses": ["crystal"], "internal_node_id": "0.0-3.0", "time_elapsed": 45815, "type": "AUDIO_TEST", "trial_index": 3}, "uniqueid": "MTK2795:3Y4W8Q93L0RE8PNMO7BOWVUEXAWVDT", "dateTime": 1519344685906}, {"current_trial": 4, "trialdata": {"rt": [6729], "trial_type": "audio-test", "responses": ["spice"], "internal_node_id": "0.0-4.0", "time_elapsed": 52550, "type": "AUDIO_TEST", "trial_index": 4}, "uniqueid": "MTK2795:3Y4W8Q93L0RE8PNMO7BOWVUEXAWVDT", "dateTime": 1519344692641}, {"current_trial": 5, "trialdata": {"rt": 17141, "trial_type": "survey-text", "responses": "{\"Q0\":\"1145\",\"Q1\":\"545\",\"Q2\":\"4\"}", "internal_node_id": "0.0-5.0", "time_elapsed": 70445, "type": "SLEEP_SURVEY", "trial_index": 5}, "uniqueid": "MTK2795:3Y4W8Q93L0RE8PNMO7BOWVUEXAWVDT", "dateTime": 1519344710536}, {"current_trial": 6, "trialdata": {"rt": 39564, "trial_type": "text", "internal_node_id": "0.0-6.0", "time_elapsed": 111011, "key_press": 13, "type": "INSTRUCTIONS", "trial_index": 6}, "uniqueid": "MTK2795:3Y4W8Q93L0RE8PNMO7BOWVUEXAWVDT", "dateTime": 1519344751102}, {"current_trial": 7, "trialdata": {"rt": 17899, "trial_type": "text", "internal_node_id": "0.0-7.0", "time_elapsed": 129411, "key_press": 13, "type": "INSTRUCTIONS", "trial_index": 7}, "uniqueid": "MTK2795:3Y4W8Q93L0RE8PNMO7BOWVUEXAWVDT", "dateTime": 1519344769502}, {"current_trial": 8, "trialdata": {"rt": 8464, "trial_type": "text", "internal_node_id": "0.0-8.0", "time_elapsed": 138378, "key_press": 13, "type": "INSTRUCTIONS", "trial_index": 8}, "uniqueid": "MTK2795:3Y4W8Q93L0RE8PNMO7BOWVUEXAWVDT", "dateTime": 1519344778469}, {"current_trial": 9, "trialdata": {"rt": [3067, 6370, 8826, 10442, 12066, 13866, 16154], "trial_type": "math-distractor", "key_times": [2355, 2467, 3067, 5875, 6210, 6370, 8498, 8658, 8826, 10314, 10442, 11964, 12066, 13386, 13658, 13866, 15794, 15962, 16154, 17922], "responses": ["21", "13", "24", "9", "9", "15", "15"], "num2": [9, 3, 9, 1, 5, 6, 5, 4], "num3": [4, 5, 9, 2, 1, 6, 3, 8], "conditions": [18, 1200, "v", 18000], "internal_node_id": "0.0-9.0", "key_presses": [50, 49, 13, 49, 51, 13, 50, 52, 13, 57, 13, 57, 13, 49, 53, 13, 49, 53, 13, 50], "trial": 0, "time_elapsed": 157385, "type": "DISTRACTOR", "trial_index": 9, "num1": [8, 4, 6, 6, 3, 3, 7, 9]}, "uniqueid": "MTK2795:3Y4W8Q93L0RE8PNMO7BOWVUEXAWVDT", "dateTime": 1519344797476}, {"current_trial": 10, "trialdata": {"rt": -1, "trial_type": "single-stim", "stimulus": "<p id=\"stim\">10</p>", "internal_node_id": "0.0-10.0-0.0", "time_elapsed": 160389, "key_press": -1, "trial_index": 10}, "uniqueid": "MTK2795:3Y4W8Q93L0RE8PNMO7BOWVUEXAWVDT", "dateTime": 1519344800480}, {"current_trial": 11, "trialdata": {"rt": -1, "trial_type": "single-stim", "stimulus": "<p id=\"stim\">9</p>", "internal_node_id": "0.0-10.0-1.0", "time_elapsed": 161391, "key_press": -1, "trial_index": 11}, "uniqueid": "MTK2795:3Y4W8Q93L0RE8PNMO7BOWVUEXAWVDT", "dateTime": 1519344801482}, {"current_trial": 12, "trialdata": {"rt": -1, "trial_type": "single-stim", "stimulus": "<p id=\"stim\">8</p>", "internal_node_id": "0.0-10.0-2.0", "time_elapsed": 162393, "key_press": -1, "trial_index": 12}, "uniqueid": "MTK2795:3Y4W8Q93L0RE8PNMO7BOWVUEXAWVDT", "dateTime": 1519344802484}, {"current_trial": 13, "trialdata": {"rt": -1, "trial_type": "single-stim", "stimulus": "<p id=\"stim\">7</p>", "internal_node_id": "0.0-10.0-3.0", "time_elapsed": 163395, "key_press": -1, "trial_index": 13}, "uniqueid": "MTK2795:3Y4W8Q93L0RE8PNMO7BOWVUEXAWVDT", "dateTime": 1519344803486}, {"current_trial": 14, "trialdata": {"rt": -1, "trial_type": "single-stim", "stimulus": "<p id=\"stim\">6</p>", "internal_node_id": "0.0-10.0-4.0", "time_elapsed": 164397, "key_press": -1, "trial_index": 14}, "uniqueid": "MTK2795:3Y4W8Q93L0RE8PNMO7BOWVUEXAWVDT", "dateTime": 1519344804488}, {"current_trial": 15, "trialdata": {"rt": -1, "trial_type": "single-stim", "stimulus": "<p id=\"stim\">5</p>", "internal_node_id": "0.0-10.0-5.0", "time_elapsed": 165399, "key_press": -1, "trial_index": 15}, "uniqueid": "MTK2795:3Y4W8Q93L0RE8PNMO7BOWVUEXAWVDT", "dateTime": 1519344805490}, {"current_trial": 16, "trialdata": {"rt": -1, "trial_type": "single-stim", "stimulus": "<p id=\"stim\">4</p>", "internal_node_id": "0.0-10.0-6.0", "time_elapsed": 166401, "key_press": -1, "trial_index": 16}, "uniqueid": "MTK2795:3Y4W8Q93L0RE8PNMO7BOWVUEXAWVDT", "dateTime": 1519344806492}, {"current_trial": 17, "trialdata": {"rt": -1, "trial_type": "single-stim", "stimulus": "<p id=\"stim\">3</p>", "internal_node_id": "0.0-10.0-7.0", "time_elapsed": 167404, "key_press": -1, "trial_index": 17}, "uniqueid": "MTK2795:3Y4W8Q93L0RE8PNMO7BOWVUEXAWVDT", "dateTime": 1519344807495}, {"current_trial": 18, "trialdata": {"rt": -1, "trial_type": "single-stim", "stimulus": "<p id=\"stim\">2</p>", "internal_node_id": "0.0-10.0-8.0", "time_elapsed": 168406, "key_press": -1, "trial_index": 18}, "uniqueid": "MTK2795:3Y4W8Q93L0RE8PNMO7BOWVUEXAWVDT", "dateTime": 1519344808497}, {"current_trial": 19, "trialdata": {"rt": -1, "trial_type": "single-stim", "stimulus": "<p id=\"stim\">1</p>", "internal_node_id": "0.0-10.0-9.0", "time_elapsed": 169408, "key_press": -1, "trial_index": 19}, "uniqueid": "MTK2795:3Y4W8Q93L0RE8PNMO7BOWVUEXAWVDT", "dateTime": 1519344809499}, {"current_trial": 20, "trialdata": {"rt": -1, "trial_type": "single-stim", "stimulus": "<p id=\"stim\">+</p>", "internal_node_id": "0.0-11.0-0.0", "time_elapsed": 170910, "key_press": -1, "type": "FIXATION", "trial_index": 20}, "uniqueid": "MTK2795:3Y4W8Q93L0RE8PNMO7BOWVUEXAWVDT", "dateTime": 1519344811001}, {"current_trial": 21, "trialdata": {"rt": -1, "trial_type": "single-stim", "word": "driver", "stimulus": "<p id=\"stim\">DRIVER</p>", "conditions": [18, 1200, "v", 18000], "internal_node_id": "0.0-12.0", "trial": 0, "time_elapsed": 172112, "serialpos": 0, "key_press": -1, "wordID": 498, "type": "PRES_VIS", "trial_index": 21}, "uniqueid": "MTK2795:3Y4W8Q93L0RE8PNMO7BOWVUEXAWVDT", "dateTime": 1519344812203}, {"current_trial": 22, "trialdata": {"rt": -1, "trial_type": "single-stim", "word": "mildew", "stimulus": "<p id=\"stim\">MILDEW</p>", "conditions": [18, 1200, "v", 18000], "internal_node_id": "0.0-13.0", "trial": 0, "time_elapsed": 174165, "serialpos": 1, "key_press": -1, "wordID": 892, "type": "PRES_VIS", "trial_index": 22}, "uniqueid": "MTK2795:3Y4W8Q93L0RE8PNMO7BOWVUEXAWVDT", "dateTime": 1519344814256}, {"current_trial": 23, "trialdata": {"rt": -1, "trial_type": "single-stim", "word": "uncle", "stimulus": "<p id=\"stim\">UNCLE</p>", "conditions": [18, 1200, "v", 18000], "internal_node_id": "0.0-14.0", "trial": 0, "time_elapsed": 176392, "serialpos": 2, "key_press": -1, "wordID": 1535, "type": "PRES_VIS", "trial_index": 23}, "uniqueid": "MTK2795:3Y4W8Q93L0RE8PNMO7BOWVUEXAWVDT", "dateTime": 1519344816483}, {"current_trial": 24, "trialdata": {"rt": -1, "trial_type": "single-stim", "word": "police", "stimulus": "<p id=\"stim\">POLICE</p>", "conditions": [18, 1200, "v", 18000], "internal_node_id": "0.0-15.0", "trial": 0, "time_elapsed": 178663, "serialpos": 3, "key_press": -1, "wordID": 1097, "type": "PRES_VIS", "trial_index": 24}, "uniqueid": "MTK2795:3Y4W8Q93L0RE8PNMO7BOWVUEXAWVDT", "dateTime": 1519344818754}, {"current_trial": 25, "trialdata": {"rt": -1, "trial_type": "single-stim", "word": "message", "stimulus": "<p id=\"stim\">MESSAGE</p>", "conditions": [18, 1200, "v", 18000], "internal_node_id": "0.0-16.0", "trial": 0, "time_elapsed": 180847, "serialpos": 4, "key_press": -1, "wordID": 887, "type": "PRES_VIS", "trial_index": 25}, "uniqueid": "MTK2795:3Y4W8Q93L0RE8PNMO7BOWVUEXAWVDT", "dateTime": 1519344820938}, {"current_trial": 26, "trialdata": {"rt": -1, "trial_type": "single-stim", "word": "turnip", "stimulus": "<p id=\"stim\">TURNIP</p>", "conditions": [18, 1200, "v", 18000], "internal_node_id": "0.0-17.0", "trial": 0, "time_elapsed": 183238, "serialpos": 5, "key_press": -1, "wordID": 1520, "type": "PRES_VIS", "trial_index": 26}, "uniqueid": "MTK2795:3Y4W8Q93L0RE8PNMO7BOWVUEXAWVDT", "dateTime": 1519344823329}, {"current_trial": 27, "trialdata": {"rt": -1, "trial_type": "single-stim", "word": "london", "stimulus": "<p id=\"stim\">LONDON</p>", "conditions": [18, 1200, "v", 18000], "internal_node_id": "0.0-18.0", "trial": 0, "time_elapsed": 185310, "serialpos": 6, "key_press": -1, "wordID": 842, "type": "PRES_VIS", "trial_index": 27}, "uniqueid": "MTK2795:3Y4W8Q93L0RE8PNMO7BOWVUEXAWVDT", "dateTime": 1519344825401}, {"current_trial": 28, "trialdata": {"rt": -1, "trial_type": "single-stim", "word": "guard", "stimulus": "<p id=\"stim\">GUARD</p>", "conditions": [18, 1200, "v", 18000], "internal_node_id": "0.0-19.0", "trial": 0, "time_elapsed": 187677, "serialpos": 7, "key_press": -1, "wordID": 666, "type": "PRES_VIS", "trial_index": 28}, "uniqueid": "MTK2795:3Y4W8Q93L0RE8PNMO7BOWVUEXAWVDT", "dateTime": 1519344827768}, {"current_trial": 29, "trialdata": {"rt": -1, "trial_type": "single-stim", "word": "icing", "stimulus": "<p id=\"stim\">ICING</p>", "conditions": [18, 1200, "v", 18000], "internal_node_id": "0.0-20.0", "trial": 0, "time_elapsed": 189866, "serialpos": 8, "key_press": -1, "wordID": 731, "type": "PRES_VIS", "trial_index": 29}, "uniqueid": "MTK2795:3Y4W8Q93L0RE8PNMO7BOWVUEXAWVDT", "dateTime": 1519344829957}, {"current_trial": 30, "trialdata": {"rt": -1, "trial_type": "single-stim", "word": "swamp", "stimulus": "<p id=\"stim\">SWAMP</p>", "conditions": [18, 1200, "v", 18000], "internal_node_id": "0.0-21.0", "trial": 0, "time_elapsed": 192037, "serialpos": 9, "key_press": -1, "wordID": 1415, "type": "PRES_VIS", "trial_index": 30}, "uniqueid": "MTK2795:3Y4W8Q93L0RE8PNMO7BOWVUEXAWVDT", "dateTime": 1519344832128}, {"current_trial": 31, "trialdata": {"rt": -1, "trial_type": "single-stim", "word": "hero", "stimulus": "<p id=\"stim\">HERO</p>", "conditions": [18, 1200, "v", 18000], "internal_node_id": "0.0-22.0", "trial": 0, "time_elapsed": 194097, "serialpos": 10, "key_press": -1, "wordID": 705, "type": "PRES_VIS", "trial_index": 31}, "uniqueid": "MTK2795:3Y4W8Q93L0RE8PNMO7BOWVUEXAWVDT", "dateTime": 1519344834188}, {"current_trial": 32, "trialdata": {"rt": -1, "trial_type": "single-stim", "word": "couch", "stimulus": "<p id=\"stim\">COUCH</p>", "conditions": [18, 1200, "v", 18000], "internal_node_id": "0.0-23.0", "trial": 0, "time_elapsed": 196217, "serialpos": 11, "key_press": -1, "wordID": 385, "type": "PRES_VIS", "trial_index": 32}, "uniqueid": "MTK2795:3Y4W8Q93L0RE8PNMO7BOWVUEXAWVDT", "dateTime": 1519344836308}, {"current_trial": 33, "trialdata": {"rt": -1, "trial_type": "single-stim", "word": "chemist", "stimulus": "<p id=\"stim\">CHEMIST</p>", "conditions": [18, 1200, "v", 18000], "internal_node_id": "0.0-24.0", "trial": 0, "time_elapsed": 198619, "serialpos": 12, "key_press": -1, "wordID": 291, "type": "PRES_VIS", "trial_index": 33}, "uniqueid": "MTK2795:3Y4W8Q93L0RE8PNMO7BOWVUEXAWVDT", "dateTime": 1519344838710}, {"current_trial": 34, "trialdata": {"rt": -1, "trial_type": "single-stim", "word": "slide", "stimulus": "<p id=\"stim\">SLIDE</p>", "conditions": [18, 1200, "v", 18000], "internal_node_id": "0.0-25.0", "trial": 0, "time_elapsed": 200881, "serialpos": 13, "key_press": -1, "wordID": 1325, "type": "PRES_VIS", "trial_index": 34}, "uniqueid": "MTK2795:3Y4W8Q93L0RE8PNMO7BOWVUEXAWVDT", "dateTime": 1519344840972}, {"current_trial": 35, "trialdata": {"rt": -1, "trial_type": "single-stim", "word": "rug", "stimulus": "<p id=\"stim\">RUG</p>", "conditions": [18, 1200, "v", 18000], "internal_node_id": "0.0-26.0", "trial": 0, "time_elapsed": 203219, "serialpos": 14, "key_press": -1, "wordID": 1214, "type": "PRES_VIS", "trial_index": 35}, "uniqueid": "MTK2795:3Y4W8Q93L0RE8PNMO7BOWVUEXAWVDT", "dateTime": 1519344843310}, {"current_trial": 36, "trialdata": {"rt": -1, "trial_type": "single-stim", "word": "portrait", "stimulus": "<p id=\"stim\">PORTRAIT</p>", "conditions": [18, 1200, "v", 18000], "internal_node_id": "0.0-27.0", "trial": 0, "time_elapsed": 205266, "serialpos": 15, "key_press": -1, "wordID": 1110, "type": "PRES_VIS", "trial_index": 36}, "uniqueid": "MTK2795:3Y4W8Q93L0RE8PNMO7BOWVUEXAWVDT", "dateTime": 1519344845357}, {"current_trial": 37, "trialdata": {"rt": -1, "trial_type": "single-stim", "word": "coin", "stimulus": "<p id=\"stim\">COIN</p>", "conditions": [18, 1200, "v", 18000], "internal_node_id": "0.0-28.0", "trial": 0, "time_elapsed": 207567, "serialpos": 16, "key_press": -1, "wordID": 342, "type": "PRES_VIS", "trial_index": 37}, "uniqueid": "MTK2795:3Y4W8Q93L0RE8PNMO7BOWVUEXAWVDT", "dateTime": 1519344847658}, {"current_trial": 38, "trialdata": {"rt": -1, "trial_type": "single-stim", "word": "drawing", "stimulus": "<p id=\"stim\">DRAWING</p>", "conditions": [18, 1200, "v", 18000], "internal_node_id": "0.0-29.0", "trial": 0, "time_elapsed": 209620, "serialpos": 17, "key_press": -1, "wordID": 493, "type": "PRES_VIS", "trial_index": 38}, "uniqueid": "MTK2795:3Y4W8Q93L0RE8PNMO7BOWVUEXAWVDT", "dateTime": 1519344849711}, {"current_trial": 39, "trialdata": {"rt": -1, "trial_type": "single-stim", "stimulus": "", "internal_node_id": "0.0-30.0-0.0", "time_elapsed": 212040, "key_press": -1, "type": "PRE_RECALL_DELAY", "trial_index": 39}, "uniqueid": "MTK2795:3Y4W8Q93L0RE8PNMO7BOWVUEXAWVDT", "dateTime": 1519344852131}, {"current_trial": 40, "trialdata": {"rt": -1000, "trial_type": "single-audio", "stimulus": "/static/audio/400Hz.wav", "internal_node_id": "0.0-31.0", "time_elapsed": 212630, "key_press": -1, "type": "PRE_RECALL_ALERT", "trial_index": 40}, "uniqueid": "MTK2795:3Y4W8Q93L0RE8PNMO7BOWVUEXAWVDT", "dateTime": 1519344852721}, {"current_trial": 41, "trialdata": {"rt": [2255, 3903, 5455, 6831, 8431, 10727, 19374, 28600, 49623, 49733, 49885], "recwords": ["driver", "mildew", "coin", "swamp", "chemist", "turnip", "swamp", "", "", "", ""], "key_times": [1257, 1383, 1503, 1591, 1735, 2039, 2255, 2703, 2823, 3047, 3167, 3431, 3663, 3903, 4167, 4263, 4351, 4615, 4991, 5239, 5455, 5943, 6103, 6255, 6367, 6559, 6831, 7479, 7575, 7687, 7767, 7831, 7975, 8239, 8431, 9727, 9855, 9975, 10087, 10191, 10423, 10727, 18504, 18654, 18839, 18934, 19078, 19374, 28600, 49623, 49733, 49885], "trial_type": "free-recall", "conditions": [18, 1200, "v", 18000], "internal_node_id": "0.0-32.0-0.0", "key_presses": [68, 82, 73, 86, 69, 82, 13, 77, 73, 76, 68, 69, 87, 13, 67, 79, 73, 76, 8, 78, 13, 83, 87, 65, 77, 80, 13, 67, 72, 69, 77, 73, 83, 84, 13, 84, 85, 82, 78, 73, 80, 13, 83, 87, 65, 77, 80, 13, 13, 13, 13, 13], "trial": 0, "time_elapsed": 272632, "type": "FREE_RECALL", "trial_index": 41}, "uniqueid": "MTK2795:3Y4W8Q93L0RE8PNMO7BOWVUEXAWVDT", "dateTime": 1519344912726}, {"current_trial": 42, "trialdata": {"rt": 8090, "trial_type": "text", "internal_node_id": "0.0-33.0", "time_elapsed": 282726, "key_press": 13, "type": "INSTRUCTIONS", "trial_index": 42}, "uniqueid": "MTK2795:3Y4W8Q93L0RE8PNMO7BOWVUEXAWVDT", "dateTime": 1519344922817}, {"current_trial": 43, "trialdata": {"rt": [2092, 3403, 5003, 6819, 8307, 10003, 12827, 14907, 17819], "trial_type": "math-distractor", "key_times": [1540, 1844, 2092, 3123, 3252, 3403, 4684, 4843, 5003, 6348, 6564, 6819, 8165, 8307, 9644, 9731, 10003, 12380, 12460, 12827, 14723, 14907, 17443, 17571, 17819], "responses": ["16", "11", "15", "20", "6", "10", "19", "4", "20"], "num2": [3, 2, 9, 3, 4, 3, 9, 1, 7, 2], "num3": [6, 2, 1, 9, 1, 6, 6, 1, 9, 6], "conditions": [18, 1200, "v", 18000], "internal_node_id": "0.0-34.0", "key_presses": [49, 54, 13, 49, 49, 13, 49, 53, 13, 50, 48, 13, 54, 13, 49, 48, 13, 49, 57, 13, 52, 13, 50, 48, 13], "trial": 1, "time_elapsed": 302730, "type": "DISTRACTOR", "trial_index": 43, "num1": [7, 7, 5, 8, 1, 1, 4, 2, 4, 5]}, "uniqueid": "MTK2795:3Y4W8Q93L0RE8PNMO7BOWVUEXAWVDT", "dateTime": 1519344942822}, {"current_trial": 44, "trialdata": {"rt": -1, "trial_type": "single-stim", "stimulus": "<p id=\"stim\">10</p>", "internal_node_id": "0.0-35.0-0.0", "time_elapsed": 305733, "key_press": -1, "trial_index": 44}, "uniqueid": "MTK2795:3Y4W8Q93L0RE8PNMO7BOWVUEXAWVDT", "dateTime": 1519344945825}, {"current_trial": 45, "trialdata": {"rt": -1, "trial_type": "single-stim", "stimulus": "<p id=\"stim\">9</p>", "internal_node_id": "0.0-35.0-1.0", "time_elapsed": 306735, "key_press": -1, "trial_index": 45}, "uniqueid": "MTK2795:3Y4W8Q93L0RE8PNMO7BOWVUEXAWVDT", "dateTime": 1519344946827}, {"current_trial": 46, "trialdata": {"rt": -1, "trial_type": "single-stim", "stimulus": "<p id=\"stim\">8</p>", "internal_node_id": "0.0-35.0-2.0", "time_elapsed": 307737, "key_press": -1, "trial_index": 46}, "uniqueid": "MTK2795:3Y4W8Q93L0RE8PNMO7BOWVUEXAWVDT", "dateTime": 1519344947829}, {"current_trial": 47, "trialdata": {"rt": -1, "trial_type": "single-stim", "stimulus": "<p id=\"stim\">7</p>", "internal_node_id": "0.0-35.0-3.0", "time_elapsed": 308739, "key_press": -1, "trial_index": 47}, "uniqueid": "MTK2795:3Y4W8Q93L0RE8PNMO7BOWVUEXAWVDT", "dateTime": 1519344948831}, {"current_trial": 48, "trialdata": {"rt": -1, "trial_type": "single-stim", "stimulus": "<p id=\"stim\">6</p>", "internal_node_id": "0.0-35.0-4.0", "time_elapsed": 309741, "key_press": -1, "trial_index": 48}, "uniqueid": "MTK2795:3Y4W8Q93L0RE8PNMO7BOWVUEXAWVDT", "dateTime": 1519344949833}, {"current_trial": 49, "trialdata": {"rt": -1, "trial_type": "single-stim", "stimulus": "<p id=\"stim\">5</p>", "internal_node_id": "0.0-35.0-5.0", "time_elapsed": 310743, "key_press": -1, "trial_index": 49}, "uniqueid": "MTK2795:3Y4W8Q93L0RE8PNMO7BOWVUEXAWVDT", "dateTime": 1519344950835}, {"current_trial": 50, "trialdata": {"rt": -1, "trial_type": "single-stim", "stimulus": "<p id=\"stim\">4</p>", "internal_node_id": "0.0-35.0-6.0", "time_elapsed": 311745, "key_press": -1, "trial_index": 50}, "uniqueid": "MTK2795:3Y4W8Q93L0RE8PNMO7BOWVUEXAWVDT", "dateTime": 1519344951836}, {"current_trial": 51, "trialdata": {"rt": -1, "trial_type": "single-stim", "stimulus": "<p id=\"stim\">3</p>", "internal_node_id": "0.0-35.0-7.0", "time_elapsed": 312747, "key_press": -1, "trial_index": 51}, "uniqueid": "MTK2795:3Y4W8Q93L0RE8PNMO7BOWVUEXAWVDT", "dateTime": 1519344952839}, {"current_trial": 52, "trialdata": {"rt": -1, "trial_type": "single-stim", "stimulus": "<p id=\"stim\">2</p>", "internal_node_id": "0.0-35.0-8.0", "time_elapsed": 313750, "key_press": -1, "trial_index": 52}, "uniqueid": "MTK2795:3Y4W8Q93L0RE8PNMO7BOWVUEXAWVDT", "dateTime": 1519344953841}, {"current_trial": 53, "trialdata": {"rt": -1, "trial_type": "single-stim", "stimulus": "<p id=\"stim\">1</p>", "internal_node_id": "0.0-35.0-9.0", "time_elapsed": 314752, "key_press": -1, "trial_index": 53}, "uniqueid": "MTK2795:3Y4W8Q93L0RE8PNMO7BOWVUEXAWVDT", "dateTime": 1519344954844}, {"current_trial": 54, "trialdata": {"rt": -1, "trial_type": "single-stim", "stimulus": "<p id=\"stim\">+</p>", "internal_node_id": "0.0-36.0-0.0", "time_elapsed": 316255, "key_press": -1, "type": "FIXATION", "trial_index": 54}, "uniqueid": "MTK2795:3Y4W8Q93L0RE8PNMO7BOWVUEXAWVDT", "dateTime": 1519344956346}, {"current_trial": 55, "trialdata": {"rt": -1, "trial_type": "single-stim", "word": "quarter", "stimulus": "<p id=\"stim\">QUARTER</p>", "conditions": [18, 1200, "v", 18000], "internal_node_id": "0.0-37.0", "trial": 1, "time_elapsed": 317457, "serialpos": 0, "key_press": -1, "wordID": 1147, "type": "PRES_VIS", "trial_index": 55}, "uniqueid": "MTK2795:3Y4W8Q93L0RE8PNMO7BOWVUEXAWVDT", "dateTime": 1519344957548}, {"current_trial": 56, "trialdata": {"rt": -1, "trial_type": "single-stim", "word": "clock", "stimulus": "<p id=\"stim\">CLOCK</p>", "conditions": [18, 1200, "v", 18000], "internal_node_id": "0.0-38.0", "trial": 1, "time_elapsed": 319473, "serialpos": 1, "key_press": -1, "wordID": 324, "type": "PRES_VIS", "trial_index": 56}, "uniqueid": "MTK2795:3Y4W8Q93L0RE8PNMO7BOWVUEXAWVDT", "dateTime": 1519344959564}, {"current_trial": 57, "trialdata": {"rt": -1, "trial_type": "single-stim", "word": "waiter", "stimulus": "<p id=\"stim\">WAITER</p>", "conditions": [18, 1200, "v", 18000], "internal_node_id": "0.0-39.0", "trial": 1, "time_elapsed": 321836, "serialpos": 2, "key_press": -1, "wordID": 1579, "type": "PRES_VIS", "trial_index": 57}, "uniqueid": "MTK2795:3Y4W8Q93L0RE8PNMO7BOWVUEXAWVDT", "dateTime": 1519344961927}, {"current_trial": 58, "trialdata": {"rt": -1, "trial_type": "single-stim", "word": "sister", "stimulus": "<p id=\"stim\">SISTER</p>", "conditions": [18, 1200, "v", 18000], "internal_node_id": "0.0-40.0", "trial": 1, "time_elapsed": 324027, "serialpos": 3, "key_press": -1, "wordID": 1311, "type": "PRES_VIS", "trial_index": 58}, "uniqueid": "MTK2795:3Y4W8Q93L0RE8PNMO7BOWVUEXAWVDT", "dateTime": 1519344964118}, {"current_trial": 59, "trialdata": {"rt": -1, "trial_type": "single-stim", "word": "banquet", "stimulus": "<p id=\"stim\">BANQUET</p>", "conditions": [18, 1200, "v", 18000], "internal_node_id": "0.0-41.0", "trial": 1, "time_elapsed": 326155, "serialpos": 4, "key_press": -1, "wordID": 85, "type": "PRES_VIS", "trial_index": 59}, "uniqueid": "MTK2795:3Y4W8Q93L0RE8PNMO7BOWVUEXAWVDT", "dateTime": 1519344966246}, {"current_trial": 60, "trialdata": {"rt": -1, "trial_type": "single-stim", "word": "doughnut", "stimulus": "<p id=\"stim\">DOUGHNUT</p>", "conditions": [18, 1200, "v", 18000], "internal_node_id": "0.0-42.0", "trial": 1, "time_elapsed": 328382, "serialpos": 5, "key_press": -1, "wordID": 489, "type": "PRES_VIS", "trial_index": 60}, "uniqueid": "MTK2795:3Y4W8Q93L0RE8PNMO7BOWVUEXAWVDT", "dateTime": 1519344968473}, {"current_trial": 61, "trialdata": {"rt": -1, "trial_type": "single-stim", "word": "oyster", "stimulus": "<p id=\"stim\">OYSTER</p>", "conditions": [18, 1200, "v", 18000], "internal_node_id": "0.0-43.0", "trial": 1, "time_elapsed": 330856, "serialpos": 6, "key_press": -1, "wordID": 994, "type": "PRES_VIS", "trial_index": 61}, "uniqueid": "MTK2795:3Y4W8Q93L0RE8PNMO7BOWVUEXAWVDT", "dateTime": 1519344970947}, {"current_trial": 62, "trialdata": {"rt": -1, "trial_type": "single-stim", "word": "eyelash", "stimulus": "<p id=\"stim\">EYELASH</p>", "conditions": [18, 1200, "v", 18000], "internal_node_id": "0.0-44.0", "trial": 1, "time_elapsed": 333247, "serialpos": 7, "key_press": -1, "wordID": 545, "type": "PRES_VIS", "trial_index": 62}, "uniqueid": "MTK2795:3Y4W8Q93L0RE8PNMO7BOWVUEXAWVDT", "dateTime": 1519344973339}, {"current_trial": 63, "trialdata": {"rt": -1, "trial_type": "single-stim", "word": "sword", "stimulus": "<p id=\"stim\">SWORD</p>", "conditions": [18, 1200, "v", 18000], "internal_node_id": "0.0-45.0", "trial": 1, "time_elapsed": 335476, "serialpos": 8, "key_press": -1, "wordID": 1422, "type": "PRES_VIS", "trial_index": 63}, "uniqueid": "MTK2795:3Y4W8Q93L0RE8PNMO7BOWVUEXAWVDT", "dateTime": 1519344975567}, {"current_trial": 64, "trialdata": {"rt": -1, "trial_type": "single-stim", "word": "report", "stimulus": "<p id=\"stim\">REPORT</p>", "conditions": [18, 1200, "v", 18000], "internal_node_id": "0.0-46.0", "trial": 1, "time_elapsed": 337576, "serialpos": 9, "key_press": -1, "wordID": 1183, "type": "PRES_VIS", "trial_index": 64}, "uniqueid": "MTK2795:3Y4W8Q93L0RE8PNMO7BOWVUEXAWVDT", "dateTime": 1519344977667}, {"current_trial": 65, "trialdata": {"rt": -1, "trial_type": "single-stim", "word": "motel", "stimulus": "<p id=\"stim\">MOTEL</p>", "conditions": [18, 1200, "v", 18000], "internal_node_id": "0.0-47.0", "trial": 1, "time_elapsed": 339682, "serialpos": 10, "key_press": -1, "wordID": 918, "type": "PRES_VIS", "trial_index": 65}, "uniqueid": "MTK2795:3Y4W8Q93L0RE8PNMO7BOWVUEXAWVDT", "dateTime": 1519344979774}, {"current_trial": 66, "trialdata": {"rt": -1, "trial_type": "single-stim", "word": "pistol", "stimulus": "<p id=\"stim\">PISTOL</p>", "conditions": [18, 1200, "v", 18000], "internal_node_id": "0.0-48.0", "trial": 1, "time_elapsed": 341868, "serialpos": 11, "key_press": -1, "wordID": 1074, "type": "PRES_VIS", "trial_index": 66}, "uniqueid": "MTK2795:3Y4W8Q93L0RE8PNMO7BOWVUEXAWVDT", "dateTime": 1519344981959}, {"current_trial": 67, "trialdata": {"rt": -1, "trial_type": "single-stim", "word": "kitchen", "stimulus": "<p id=\"stim\">KITCHEN</p>", "conditions": [18, 1200, "v", 18000], "internal_node_id": "0.0-49.0", "trial": 1, "time_elapsed": 344073, "serialpos": 12, "key_press": -1, "wordID": 777, "type": "PRES_VIS", "trial_index": 67}, "uniqueid": "MTK2795:3Y4W8Q93L0RE8PNMO7BOWVUEXAWVDT", "dateTime": 1519344984164}, {"current_trial": 68, "trialdata": {"rt": -1, "trial_type": "single-stim", "word": "seafood", "stimulus": "<p id=\"stim\">SEAFOOD</p>", "conditions": [18, 1200, "v", 18000], "internal_node_id": "0.0-50.0", "trial": 1, "time_elapsed": 346462, "serialpos": 13, "key_press": -1, "wordID": 1259, "type": "PRES_VIS", "trial_index": 68}, "uniqueid": "MTK2795:3Y4W8Q93L0RE8PNMO7BOWVUEXAWVDT", "dateTime": 1519344986555}, {"current_trial": 69, "trialdata": {"rt": -1, "trial_type": "single-stim", "word": "robot", "stimulus": "<p id=\"stim\">ROBOT</p>", "conditions": [18, 1200, "v", 18000], "internal_node_id": "0.0-51.0", "trial": 1, "time_elapsed": 348528, "serialpos": 14, "key_press": -1, "wordID": 1199, "type": "PRES_VIS", "trial_index": 69}, "uniqueid": "MTK2795:3Y4W8Q93L0RE8PNMO7BOWVUEXAWVDT", "dateTime": 1519344988620}, {"current_trial": 70, "trialdata": {"rt": -1, "trial_type": "single-stim", "word": "convict", "stimulus": "<p id=\"stim\">CONVICT</p>", "conditions": [18, 1200, "v", 18000], "internal_node_id": "0.0-52.0", "trial": 1, "time_elapsed": 350682, "serialpos": 15, "key_press": -1, "wordID": 370, "type": "PRES_VIS", "trial_index": 70}, "uniqueid": "MTK2795:3Y4W8Q93L0RE8PNMO7BOWVUEXAWVDT", "dateTime": 1519344990773}, {"current_trial": 71, "trialdata": {"rt": -1, "trial_type": "single-stim", "word": "island", "stimulus": "<p id=\"stim\">ISLAND</p>", "conditions": [18, 1200, "v", 18000], "internal_node_id": "0.0-53.0", "trial": 1, "time_elapsed": 352709, "serialpos": 16, "key_press": -1, "wordID": 744, "type": "PRES_VIS", "trial_index": 71}, "uniqueid": "MTK2795:3Y4W8Q93L0RE8PNMO7BOWVUEXAWVDT", "dateTime": 1519344992800}, {"current_trial": 72, "trialdata": {"rt": -1, "trial_type": "single-stim", "word": "item", "stimulus": "<p id=\"stim\">ITEM</p>", "conditions": [18, 1200, "v", 18000], "internal_node_id": "0.0-54.0", "trial": 1, "time_elapsed": 355081, "serialpos": 17, "key_press": -1, "wordID": 745, "type": "PRES_VIS", "trial_index": 72}, "uniqueid": "MTK2795:3Y4W8Q93L0RE8PNMO7BOWVUEXAWVDT", "dateTime": 1519344995172}, {"current_trial": 73, "trialdata": {"rt": -1, "trial_type": "single-stim", "stimulus": "", "internal_node_id": "0.0-55.0-0.0", "time_elapsed": 357118, "key_press": -1, "type": "PRE_RECALL_DELAY", "trial_index": 73}, "uniqueid": "MTK2795:3Y4W8Q93L0RE8PNMO7BOWVUEXAWVDT", "dateTime": 1519344997210}, {"current_trial": 74, "trialdata": {"rt": -1000, "trial_type": "single-audio", "stimulus": "/static/audio/400Hz.wav", "internal_node_id": "0.0-56.0", "time_elapsed": 357620, "key_press": -1, "type": "PRE_RECALL_ALERT", "trial_index": 74}, "uniqueid": "MTK2795:3Y4W8Q93L0RE8PNMO7BOWVUEXAWVDT", "dateTime": 1519344997711}, {"current_trial": 75, "trialdata": {"rt": [2332, 4068, 5324, 6884, 11549, 19028, 21940], "recwords": ["quarter", "robot", "item", "banquet", "doughnut", "police", "pistol"], "key_times": [1006, 1133, 1332, 1404, 1564, 1756, 1908, 1964, 2332, 2837, 2956, 3108, 3300, 3404, 4068, 4796, 4884, 5036, 5108, 5324, 5820, 5948, 5988, 6252, 6372, 6564, 6740, 6884, 7180, 7324, 7636, 7772, 7876, 8084, 8164, 8972, 9108, 9252, 9364, 9548, 9948, 10204, 10276, 10604, 10764, 10844, 11549, 15964, 16196, 17236, 17636, 18036, 18243, 18420, 18540, 18652, 18851, 19028, 20396, 20555, 20708, 20843, 20947, 21131, 21267, 21717, 21940], "trial_type": "free-recall", "conditions": [18, 1200, "v", 18000], "internal_node_id": "0.0-57.0-0.0", "key_presses": [16, 81, 85, 65, 82, 84, 69, 82, 13, 82, 79, 66, 79, 84, 13, 73, 84, 69, 77, 13, 66, 65, 78, 81, 85, 69, 84, 13, 68, 79, 85, 71, 78, 85, 84, 8, 8, 8, 8, 72, 8, 71, 72, 78, 85, 84, 13, 80, 76, 8, 76, 8, 79, 76, 73, 67, 69, 13, 80, 73, 83, 84, 79, 76, 69, 8, 13], "trial": 1, "time_elapsed": 417621, "type": "FREE_RECALL", "trial_index": 75}, "uniqueid": "MTK2795:3Y4W8Q93L0RE8PNMO7BOWVUEXAWVDT", "dateTime": 1519345057714}, {"current_trial": 76, "trialdata": {"rt": 1921, "trial_type": "text", "internal_node_id": "0.0-58.0", "time_elapsed": 421546, "key_press": 13, "type": "INSTRUCTIONS", "trial_index": 76}, "uniqueid": "MTK2795:3Y4W8Q93L0RE8PNMO7BOWVUEXAWVDT", "dateTime": 1519345061637}, {"current_trial": 77, "trialdata": {"rt": [2356, 4796, 6196, 8300, 9884, 11772], "trial_type": "math-distractor", "key_times": [1924, 2116, 2356, 4308, 4668, 4796, 5892, 6076, 6196, 8012, 8172, 8300, 9429, 9692, 9884, 11596, 11772], "responses": ["18", "16", "14", "12", "10", "8"], "num2": [9, 4, 4, 1, 1, 3, 5], "num3": [7, 9, 5, 8, 3, 4, 3], "conditions": [24, 800, "v", 12000], "internal_node_id": "0.0-59.0", "key_presses": [49, 56, 13, 49, 54, 13, 49, 52, 13, 49, 50, 13, 49, 48, 13, 56, 13], "trial": 2, "time_elapsed": 434550, "type": "DISTRACTOR", "trial_index": 77, "num1": [2, 3, 5, 3, 6, 1, 3]}, "uniqueid": "MTK2795:3Y4W8Q93L0RE8PNMO7BOWVUEXAWVDT", "dateTime": 1519345074641}, {"current_trial": 78, "trialdata": {"rt": -1, "trial_type": "single-stim", "stimulus": "<p id=\"stim\">10</p>", "internal_node_id": "0.0-60.0-0.0", "time_elapsed": 437552, "key_press": -1, "trial_index": 78}, "uniqueid": "MTK2795:3Y4W8Q93L0RE8PNMO7BOWVUEXAWVDT", "dateTime": 1519345077643}, {"current_trial": 79, "trialdata": {"rt": -1, "trial_type": "single-stim", "stimulus": "<p id=\"stim\">9</p>", "internal_node_id": "0.0-60.0-1.0", "time_elapsed": 438554, "key_press": -1, "trial_index": 79}, "uniqueid": "MTK2795:3Y4W8Q93L0RE8PNMO7BOWVUEXAWVDT", "dateTime": 1519345078645}, {"current_trial": 80, "trialdata": {"rt": -1, "trial_type": "single-stim", "stimulus": "<p id=\"stim\">8</p>", "internal_node_id": "0.0-60.0-2.0", "time_elapsed": 439555, "key_press": -1, "trial_index": 80}, "uniqueid": "MTK2795:3Y4W8Q93L0RE8PNMO7BOWVUEXAWVDT", "dateTime": 1519345079646}, {"current_trial": 81, "trialdata": {"rt": -1, "trial_type": "single-stim", "stimulus": "<p id=\"stim\">7</p>", "internal_node_id": "0.0-60.0-3.0", "time_elapsed": 440556, "key_press": -1, "trial_index": 81}, "uniqueid": "MTK2795:3Y4W8Q93L0RE8PNMO7BOWVUEXAWVDT", "dateTime": 1519345080647}, {"current_trial": 82, "trialdata": {"rt": -1, "trial_type": "single-stim", "stimulus": "<p id=\"stim\">6</p>", "internal_node_id": "0.0-60.0-4.0", "time_elapsed": 441558, "key_press": -1, "trial_index": 82}, "uniqueid": "MTK2795:3Y4W8Q93L0RE8PNMO7BOWVUEXAWVDT", "dateTime": 1519345081649}, {"current_trial": 83, "trialdata": {"rt": -1, "trial_type": "single-stim", "stimulus": "<p id=\"stim\">5</p>", "internal_node_id": "0.0-60.0-5.0", "time_elapsed": 442560, "key_press": -1, "trial_index": 83}, "uniqueid": "MTK2795:3Y4W8Q93L0RE8PNMO7BOWVUEXAWVDT", "dateTime": 1519345082651}, {"current_trial": 84, "trialdata": {"rt": -1, "trial_type": "single-stim", "stimulus": "<p id=\"stim\">4</p>", "internal_node_id": "0.0-60.0-6.0", "time_elapsed": 443562, "key_press": -1, "trial_index": 84}, "uniqueid": "MTK2795:3Y4W8Q93L0RE8PNMO7BOWVUEXAWVDT", "dateTime": 1519345083653}, {"current_trial": 85, "trialdata": {"rt": -1, "trial_type": "single-stim", "stimulus": "<p id=\"stim\">3</p>", "internal_node_id": "0.0-60.0-7.0", "time_elapsed": 444563, "key_press": -1, "trial_index": 85}, "uniqueid": "MTK2795:3Y4W8Q93L0RE8PNMO7BOWVUEXAWVDT", "dateTime": 1519345084655}, {"current_trial": 86, "trialdata": {"rt": -1, "trial_type": "single-stim", "stimulus": "<p id=\"stim\">2</p>", "internal_node_id": "0.0-60.0-8.0", "time_elapsed": 445565, "key_press": -1, "trial_index": 86}, "uniqueid": "MTK2795:3Y4W8Q93L0RE8PNMO7BOWVUEXAWVDT", "dateTime": 1519345085657}, {"current_trial": 87, "trialdata": {"rt": -1, "trial_type": "single-stim", "stimulus": "<p id=\"stim\">1</p>", "internal_node_id": "0.0-60.0-9.0", "time_elapsed": 446567, "key_press": -1, "trial_index": 87}, "uniqueid": "MTK2795:3Y4W8Q93L0RE8PNMO7BOWVUEXAWVDT", "dateTime": 1519345086658}, {"current_trial": 88, "trialdata": {"rt": -1, "trial_type": "single-stim", "stimulus": "<p id=\"stim\">+</p>", "internal_node_id": "0.0-61.0-0.0", "time_elapsed": 448069, "key_press": -1, "type": "FIXATION", "trial_index": 88}, "uniqueid": "MTK2795:3Y4W8Q93L0RE8PNMO7BOWVUEXAWVDT", "dateTime": 1519345088160}, {"current_trial": 89, "trialdata": {"rt": -1, "trial_type": "single-stim", "word": "japan", "stimulus": "<p id=\"stim\">JAPAN</p>", "conditions": [24, 800, "v", 12000], "internal_node_id": "0.0-62.0", "trial": 2, "time_elapsed": 448871, "serialpos": 0, "key_press": -1, "wordID": 748, "type": "PRES_VIS", "trial_index": 89}, "uniqueid": "MTK2795:3Y4W8Q93L0RE8PNMO7BOWVUEXAWVDT", "dateTime": 1519345088962}, {"current_trial": 90, "trialdata": {"rt": -1, "trial_type": "single-stim", "word": "onion", "stimulus": "<p id=\"stim\">ONION</p>", "conditions": [24, 800, "v", 12000], "internal_node_id": "0.0-63.0", "trial": 2, "time_elapsed": 450563, "serialpos": 1, "key_press": -1, "wordID": 976, "type": "PRES_VIS", "trial_index": 90}, "uniqueid": "MTK2795:3Y4W8Q93L0RE8PNMO7BOWVUEXAWVDT", "dateTime": 1519345090654}, {"current_trial": 91, "trialdata": {"rt": -1, "trial_type": "single-stim", "word": "lettuce", "stimulus": "<p id=\"stim\">LETTUCE</p>", "conditions": [24, 800, "v", 12000], "internal_node_id": "0.0-64.0", "trial": 2, "time_elapsed": 452303, "serialpos": 2, "key_press": -1, "wordID": 813, "type": "PRES_VIS", "trial_index": 91}, "uniqueid": "MTK2795:3Y4W8Q93L0RE8PNMO7BOWVUEXAWVDT", "dateTime": 1519345092394}, {"current_trial": 92, "trialdata": {"rt": -1, "trial_type": "single-stim", "word": "asia", "stimulus": "<p id=\"stim\">ASIA</p>", "conditions": [24, 800, "v", 12000], "internal_node_id": "0.0-65.0", "trial": 2, "time_elapsed": 454074, "serialpos": 3, "key_press": -1, "wordID": 45, "type": "PRES_VIS", "trial_index": 92}, "uniqueid": "MTK2795:3Y4W8Q93L0RE8PNMO7BOWVUEXAWVDT", "dateTime": 1519345094165}, {"current_trial": 93, "trialdata": {"rt": -1, "trial_type": "single-stim", "word": "lagoon", "stimulus": "<p id=\"stim\">LAGOON</p>", "conditions": [24, 800, "v", 12000], "internal_node_id": "0.0-66.0", "trial": 2, "time_elapsed": 455796, "serialpos": 4, "key_press": -1, "wordID": 794, "type": "PRES_VIS", "trial_index": 93}, "uniqueid": "MTK2795:3Y4W8Q93L0RE8PNMO7BOWVUEXAWVDT", "dateTime": 1519345095887}, {"current_trial": 94, "trialdata": {"rt": -1, "trial_type": "single-stim", "word": "canal", "stimulus": "<p id=\"stim\">CANAL</p>", "conditions": [24, 800, "v", 12000], "internal_node_id": "0.0-67.0", "trial": 2, "time_elapsed": 457429, "serialpos": 5, "key_press": -1, "wordID": 225, "type": "PRES_VIS", "trial_index": 94}, "uniqueid": "MTK2795:3Y4W8Q93L0RE8PNMO7BOWVUEXAWVDT", "dateTime": 1519345097520}, {"current_trial": 95, "trialdata": {"rt": -1, "trial_type": "single-stim", "word": "grape", "stimulus": "<p id=\"stim\">GRAPE</p>", "conditions": [24, 800, "v", 12000], "internal_node_id": "0.0-68.0", "trial": 2, "time_elapsed": 459411, "serialpos": 6, "key_press": -1, "wordID": 653, "type": "PRES_VIS", "trial_index": 95}, "uniqueid": "MTK2795:3Y4W8Q93L0RE8PNMO7BOWVUEXAWVDT", "dateTime": 1519345099502}, {"current_trial": 96, "trialdata": {"rt": -1, "trial_type": "single-stim", "word": "stallion", "stimulus": "<p id=\"stim\">STALLION</p>", "conditions": [24, 800, "v", 12000], "internal_node_id": "0.0-69.0", "trial": 2, "time_elapsed": 461283, "serialpos": 7, "key_press": -1, "wordID": 1368, "type": "PRES_VIS", "trial_index": 96}, "uniqueid": "MTK2795:3Y4W8Q93L0RE8PNMO7BOWVUEXAWVDT", "dateTime": 1519345101374}, {"current_trial": 97, "trialdata": {"rt": -1, "trial_type": "single-stim", "word": "grill", "stimulus": "<p id=\"stim\">GRILL</p>", "conditions": [24, 800, "v", 12000], "internal_node_id": "0.0-70.0", "trial": 2, "time_elapsed": 463210, "serialpos": 8, "key_press": -1, "wordID": 660, "type": "PRES_VIS", "trial_index": 97}, "uniqueid": "MTK2795:3Y4W8Q93L0RE8PNMO7BOWVUEXAWVDT", "dateTime": 1519345103301}, {"current_trial": 98, "trialdata": {"rt": -1, "trial_type": "single-stim", "word": "mammal", "stimulus": "<p id=\"stim\">MAMMAL</p>", "conditions": [24, 800, "v", 12000], "internal_node_id": "0.0-71.0", "trial": 2, "time_elapsed": 465065, "serialpos": 9, "key_press": -1, "wordID": 860, "type": "PRES_VIS", "trial_index": 98}, "uniqueid": "MTK2795:3Y4W8Q93L0RE8PNMO7BOWVUEXAWVDT", "dateTime": 1519345105156}, {"current_trial": 99, "trialdata": {"rt": -1, "trial_type": "single-stim", "word": "salt", "stimulus": "<p id=\"stim\">SALT</p>", "conditions": [24, 800, "v", 12000], "internal_node_id": "0.0-72.0", "trial": 2, "time_elapsed": 466899, "serialpos": 10, "key_press": -1, "wordID": 1228, "type": "PRES_VIS", "trial_index": 99}, "uniqueid": "MTK2795:3Y4W8Q93L0RE8PNMO7BOWVUEXAWVDT", "dateTime": 1519345106990}, {"current_trial": 100, "trialdata": {"rt": -1, "trial_type": "single-stim", "word": "dust", "stimulus": "<p id=\"stim\">DUST</p>", "conditions": [24, 800, "v", 12000], "internal_node_id": "0.0-73.0", "trial": 2, "time_elapsed": 468808, "serialpos": 11, "key_press": -1, "wordID": 507, "type": "PRES_VIS", "trial_index": 100}, "uniqueid": "MTK2795:3Y4W8Q93L0RE8PNMO7BOWVUEXAWVDT", "dateTime": 1519345108900}, {"current_trial": 101, "trialdata": {"rt": -1, "trial_type": "single-stim", "word": "rod", "stimulus": "<p id=\"stim\">ROD</p>", "conditions": [24, 800, "v", 12000], "internal_node_id": "0.0-74.0", "trial": 2, "time_elapsed": 470756, "serialpos": 12, "key_press": -1, "wordID": 1202, "type": "PRES_VIS", "trial_index": 101}, "uniqueid": "MTK2795:3Y4W8Q93L0RE8PNMO7BOWVUEXAWVDT", "dateTime": 1519345110847}, {"current_trial": 102, "trialdata": {"rt": -1, "trial_type": "single-stim", "word": "friend", "stimulus": "<p id=\"stim\">FRIEND</p>", "conditions": [24, 800, "v", 12000], "internal_node_id": "0.0-75.0", "trial": 2, "time_elapsed": 472544, "serialpos": 13, "key_press": -1, "wordID": 605, "type": "PRES_VIS", "trial_index": 102}, "uniqueid": "MTK2795:3Y4W8Q93L0RE8PNMO7BOWVUEXAWVDT", "dateTime": 1519345112635}, {"current_trial": 103, "trialdata": {"rt": -1, "trial_type": "single-stim", "word": "label", "stimulus": "<p id=\"stim\">LABEL</p>", "conditions": [24, 800, "v", 12000], "internal_node_id": "0.0-76.0", "trial": 2, "time_elapsed": 474182, "serialpos": 14, "key_press": -1, "wordID": 789, "type": "PRES_VIS", "trial_index": 103}, "uniqueid": "MTK2795:3Y4W8Q93L0RE8PNMO7BOWVUEXAWVDT", "dateTime": 1519345114273}, {"current_trial": 104, "trialdata": {"rt": -1, "trial_type": "single-stim", "word": "hand", "stimulus": "<p id=\"stim\">HAND</p>", "conditions": [24, 800, "v", 12000], "internal_node_id": "0.0-77.0", "trial": 2, "time_elapsed": 475852, "serialpos": 15, "key_press": -1, "wordID": 682, "type": "PRES_VIS", "trial_index": 104}, "uniqueid": "MTK2795:3Y4W8Q93L0RE8PNMO7BOWVUEXAWVDT", "dateTime": 1519345115943}, {"current_trial": 105, "trialdata": {"rt": -1, "trial_type": "single-stim", "word": "waitress", "stimulus": "<p id=\"stim\">WAITRESS</p>", "conditions": [24, 800, "v", 12000], "internal_node_id": "0.0-78.0", "trial": 2, "time_elapsed": 477759, "serialpos": 16, "key_press": -1, "wordID": 1580, "type": "PRES_VIS", "trial_index": 105}, "uniqueid": "MTK2795:3Y4W8Q93L0RE8PNMO7BOWVUEXAWVDT", "dateTime": 1519345117850}, {"current_trial": 106, "trialdata": {"rt": -1, "trial_type": "single-stim", "word": "diner", "stimulus": "<p id=\"stim\">DINER</p>", "conditions": [24, 800, "v", 12000], "internal_node_id": "0.0-79.0", "trial": 2, "time_elapsed": 479373, "serialpos": 17, "key_press": -1, "wordID": 466, "type": "PRES_VIS", "trial_index": 106}, "uniqueid": "MTK2795:3Y4W8Q93L0RE8PNMO7BOWVUEXAWVDT", "dateTime": 1519345119464}, {"current_trial": 107, "trialdata": {"rt": -1, "trial_type": "single-stim", "word": "brother", "stimulus": "<p id=\"stim\">BROTHER</p>", "conditions": [24, 800, "v", 12000], "internal_node_id": "0.0-80.0", "trial": 2, "time_elapsed": 481150, "serialpos": 18, "key_press": -1, "wordID": 178, "type": "PRES_VIS", "trial_index": 107}, "uniqueid": "MTK2795:3Y4W8Q93L0RE8PNMO7BOWVUEXAWVDT", "dateTime": 1519345121241}, {"current_trial": 108, "trialdata": {"rt": -1, "trial_type": "single-stim", "word": "sidewalk", "stimulus": "<p id=\"stim\">SIDEWALK</p>", "conditions": [24, 800, "v", 12000], "internal_node_id": "0.0-81.0", "trial": 2, "time_elapsed": 483134, "serialpos": 19, "key_press": -1, "wordID": 1302, "type": "PRES_VIS", "trial_index": 108}, "uniqueid": "MTK2795:3Y4W8Q93L0RE8PNMO7BOWVUEXAWVDT", "dateTime": 1519345123225}, {"current_trial": 109, "trialdata": {"rt": -1, "trial_type": "single-stim", "word": "dolphin", "stimulus": "<p id=\"stim\">DOLPHIN</p>", "conditions": [24, 800, "v", 12000], "internal_node_id": "0.0-82.0", "trial": 2, "time_elapsed": 484822, "serialpos": 20, "key_press": -1, "wordID": 482, "type": "PRES_VIS", "trial_index": 109}, "uniqueid": "MTK2795:3Y4W8Q93L0RE8PNMO7BOWVUEXAWVDT", "dateTime": 1519345124913}, {"current_trial": 110, "trialdata": {"rt": -1, "trial_type": "single-stim", "word": "plaid", "stimulus": "<p id=\"stim\">PLAID</p>", "conditions": [24, 800, "v", 12000], "internal_node_id": "0.0-83.0", "trial": 2, "time_elapsed": 486670, "serialpos": 21, "key_press": -1, "wordID": 1079, "type": "PRES_VIS", "trial_index": 110}, "uniqueid": "MTK2795:3Y4W8Q93L0RE8PNMO7BOWVUEXAWVDT", "dateTime": 1519345126761}, {"current_trial": 111, "trialdata": {"rt": -1, "trial_type": "single-stim", "word": "muffin", "stimulus": "<p id=\"stim\">MUFFIN</p>", "conditions": [24, 800, "v", 12000], "internal_node_id": "0.0-84.0", "trial": 2, "time_elapsed": 488448, "serialpos": 22, "key_press": -1, "wordID": 928, "type": "PRES_VIS", "trial_index": 111}, "uniqueid": "MTK2795:3Y4W8Q93L0RE8PNMO7BOWVUEXAWVDT", "dateTime": 1519345128539}, {"current_trial": 112, "trialdata": {"rt": -1, "trial_type": "single-stim", "word": "raft", "stimulus": "<p id=\"stim\">RAFT</p>", "conditions": [24, 800, "v", 12000], "internal_node_id": "0.0-85.0", "trial": 2, "time_elapsed": 490146, "serialpos": 23, "key_press": -1, "wordID": 1158, "type": "PRES_VIS", "trial_index": 112}, "uniqueid": "MTK2795:3Y4W8Q93L0RE8PNMO7BOWVUEXAWVDT", "dateTime": 1519345130238}, {"current_trial": 113, "trialdata": {"rt": -1, "trial_type": "single-stim", "stimulus": "", "internal_node_id": "0.0-86.0-0.0", "time_elapsed": 492594, "key_press": -1, "type": "PRE_RECALL_DELAY", "trial_index": 113}, "uniqueid": "MTK2795:3Y4W8Q93L0RE8PNMO7BOWVUEXAWVDT", "dateTime": 1519345132685}, {"current_trial": 114, "trialdata": {"rt": -1000, "trial_type": "single-audio", "stimulus": "/static/audio/400Hz.wav", "internal_node_id": "0.0-87.0", "time_elapsed": 493095, "key_press": -1, "type": "PRE_RECALL_ALERT", "trial_index": 114}, "uniqueid": "MTK2795:3Y4W8Q93L0RE8PNMO7BOWVUEXAWVDT", "dateTime": 1519345133186}, {"current_trial": 115, "trialdata": {"rt": [1925, 3573, 5149, 6668, 8364, 9876, 12484, 15892, 23548, 44243], "recwords": ["japan", "asia", "onion", "lettuce", "brother", "lagoon", "sidewalk", "giraffe", "mammal", "canal"], "key_times": [1206, 1325, 1436, 1549, 1669, 1925, 2237, 2429, 2525, 2597, 2797, 3212, 3341, 3405, 3573, 4301, 4492, 4596, 4788, 4925, 5149, 5461, 5661, 5868, 5996, 6100, 6308, 6501, 6668, 7165, 7388, 7532, 7660, 7764, 7828, 7908, 8364, 8652, 8756, 8924, 9012, 9156, 9380, 9876, 11020, 11124, 11214, 11372, 11525, 11684, 11796, 12084, 12484, 14293, 14397, 14484, 14596, 14908, 15412, 15612, 15892, 22725, 22836, 22996, 23116, 23228, 23332, 23548, 43580, 43675, 43811, 43891, 44043, 44243], "trial_type": "free-recall", "conditions": [24, 800, "v", 12000], "internal_node_id": "0.0-88.0-0.0", "key_presses": [74, 65, 80, 65, 78, 13, 65, 83, 73, 69, 65, 8, 8, 65, 13, 79, 78, 73, 79, 78, 13, 76, 69, 84, 84, 85, 67, 69, 13, 66, 82, 79, 84, 72, 69, 82, 13, 76, 65, 71, 79, 79, 78, 13, 83, 73, 68, 69, 87, 65, 76, 75, 13, 71, 73, 82, 65, 70, 70, 69, 13, 77, 65, 77, 77, 65, 76, 13, 67, 65, 78, 65, 76, 13], "trial": 2, "time_elapsed": 553096, "type": "FREE_RECALL", "trial_index": 115}, "uniqueid": "MTK2795:3Y4W8Q93L0RE8PNMO7BOWVUEXAWVDT", "dateTime": 1519345193190}, {"current_trial": 116, "trialdata": {"rt": 2048, "trial_type": "text", "internal_node_id": "0.0-89.0", "time_elapsed": 557149, "key_press": 13, "type": "INSTRUCTIONS", "trial_index": 116}, "uniqueid": "MTK2795:3Y4W8Q93L0RE8PNMO7BOWVUEXAWVDT", "dateTime": 1519345197240}, {"current_trial": 117, "trialdata": {"rt": [1597, 3716, 5684, 6972, 8756, 11492], "trial_type": "math-distractor", "key_times": [1405, 1597, 3428, 3580, 3716, 5204, 5548, 5684, 6700, 6844, 6972, 8389, 8596, 8756, 10604, 11236, 11492], "responses": ["8", "23", "18", "11", "13", "14"], "num2": [3, 9, 8, 6, 1, 1, 3], "num3": [2, 7, 1, 4, 5, 4, 8], "conditions": [24, 1600, "v", 12000], "internal_node_id": "0.0-90.0", "key_presses": [56, 13, 50, 51, 13, 49, 56, 13, 49, 49, 13, 49, 51, 13, 49, 52, 13], "trial": 3, "time_elapsed": 571152, "type": "DISTRACTOR", "trial_index": 117, "num1": [3, 7, 9, 1, 7, 9, 4]}, "uniqueid": "MTK2795:3Y4W8Q93L0RE8PNMO7BOWVUEXAWVDT", "dateTime": 1519345211243}, {"current_trial": 118, "trialdata": {"rt": -1, "trial_type": "single-stim", "stimulus": "<p id=\"stim\">10</p>", "internal_node_id": "0.0-91.0-0.0", "time_elapsed": 574155, "key_press": -1, "trial_index": 118}, "uniqueid": "MTK2795:3Y4W8Q93L0RE8PNMO7BOWVUEXAWVDT", "dateTime": 1519345214246}, {"current_trial": 119, "trialdata": {"rt": -1, "trial_type": "single-stim", "stimulus": "<p id=\"stim\">9</p>", "internal_node_id": "0.0-91.0-1.0", "time_elapsed": 575157, "key_press": -1, "trial_index": 119}, "uniqueid": "MTK2795:3Y4W8Q93L0RE8PNMO7BOWVUEXAWVDT", "dateTime": 1519345215248}, {"current_trial": 120, "trialdata": {"rt": -1, "trial_type": "single-stim", "stimulus": "<p id=\"stim\">8</p>", "internal_node_id": "0.0-91.0-2.0", "time_elapsed": 576159, "key_press": -1, "trial_index": 120}, "uniqueid": "MTK2795:3Y4W8Q93L0RE8PNMO7BOWVUEXAWVDT", "dateTime": 1519345216250}, {"current_trial": 121, "trialdata": {"rt": -1, "trial_type": "single-stim", "stimulus": "<p id=\"stim\">7</p>", "internal_node_id": "0.0-91.0-3.0", "time_elapsed": 577161, "key_press": -1, "trial_index": 121}, "uniqueid": "MTK2795:3Y4W8Q93L0RE8PNMO7BOWVUEXAWVDT", "dateTime": 1519345217252}, {"current_trial": 122, "trialdata": {"rt": -1, "trial_type": "single-stim", "stimulus": "<p id=\"stim\">6</p>", "internal_node_id": "0.0-91.0-4.0", "time_elapsed": 578163, "key_press": -1, "trial_index": 122}, "uniqueid": "MTK2795:3Y4W8Q93L0RE8PNMO7BOWVUEXAWVDT", "dateTime": 1519345218254}, {"current_trial": 123, "trialdata": {"rt": -1, "trial_type": "single-stim", "stimulus": "<p id=\"stim\">5</p>", "internal_node_id": "0.0-91.0-5.0", "time_elapsed": 579165, "key_press": -1, "trial_index": 123}, "uniqueid": "MTK2795:3Y4W8Q93L0RE8PNMO7BOWVUEXAWVDT", "dateTime": 1519345219256}, {"current_trial": 124, "trialdata": {"rt": -1, "trial_type": "single-stim", "stimulus": "<p id=\"stim\">4</p>", "internal_node_id": "0.0-91.0-6.0", "time_elapsed": 580167, "key_press": -1, "trial_index": 124}, "uniqueid": "MTK2795:3Y4W8Q93L0RE8PNMO7BOWVUEXAWVDT", "dateTime": 1519345220258}, {"current_trial": 125, "trialdata": {"rt": -1, "trial_type": "single-stim", "stimulus": "<p id=\"stim\">3</p>", "internal_node_id": "0.0-91.0-7.0", "time_elapsed": 581169, "key_press": -1, "trial_index": 125}, "uniqueid": "MTK2795:3Y4W8Q93L0RE8PNMO7BOWVUEXAWVDT", "dateTime": 1519345221260}, {"current_trial": 126, "trialdata": {"rt": -1, "trial_type": "single-stim", "stimulus": "<p id=\"stim\">2</p>", "internal_node_id": "0.0-91.0-8.0", "time_elapsed": 582171, "key_press": -1, "trial_index": 126}, "uniqueid": "MTK2795:3Y4W8Q93L0RE8PNMO7BOWVUEXAWVDT", "dateTime": 1519345222262}, {"current_trial": 127, "trialdata": {"rt": -1, "trial_type": "single-stim", "stimulus": "<p id=\"stim\">1</p>", "internal_node_id": "0.0-91.0-9.0", "time_elapsed": 583173, "key_press": -1, "trial_index": 127}, "uniqueid": "MTK2795:3Y4W8Q93L0RE8PNMO7BOWVUEXAWVDT", "dateTime": 1519345223264}, {"current_trial": 128, "trialdata": {"rt": -1, "trial_type": "single-stim", "stimulus": "<p id=\"stim\">+</p>", "internal_node_id": "0.0-92.0-0.0", "time_elapsed": 584675, "key_press": -1, "type": "FIXATION", "trial_index": 128}, "uniqueid": "MTK2795:3Y4W8Q93L0RE8PNMO7BOWVUEXAWVDT", "dateTime": 1519345224766}, {"current_trial": 129, "trialdata": {"rt": -1, "trial_type": "single-stim", "word": "lava", "stimulus": "<p id=\"stim\">LAVA</p>", "conditions": [24, 1600, "v", 12000], "internal_node_id": "0.0-93.0", "trial": 3, "time_elapsed": 586277, "serialpos": 0, "key_press": -1, "wordID": 803, "type": "PRES_VIS", "trial_index": 129}, "uniqueid": "MTK2795:3Y4W8Q93L0RE8PNMO7BOWVUEXAWVDT", "dateTime": 1519345226368}, {"current_trial": 130, "trialdata": {"rt": -1, "trial_type": "single-stim", "word": "finger", "stimulus": "<p id=\"stim\">FINGER</p>", "conditions": [24, 1600, "v", 12000], "internal_node_id": "0.0-94.0", "trial": 3, "time_elapsed": 589078, "serialpos": 1, "key_press": -1, "wordID": 566, "type": "PRES_VIS", "trial_index": 130}, "uniqueid": "MTK2795:3Y4W8Q93L0RE8PNMO7BOWVUEXAWVDT", "dateTime": 1519345229169}, {"current_trial": 131, "trialdata": {"rt": -1, "trial_type": "single-stim", "word": "wrist", "stimulus": "<p id=\"stim\">WRIST</p>", "conditions": [24, 1600, "v", 12000], "internal_node_id": "0.0-95.0", "trial": 3, "time_elapsed": 591720, "serialpos": 2, "key_press": -1, "wordID": 1625, "type": "PRES_VIS", "trial_index": 131}, "uniqueid": "MTK2795:3Y4W8Q93L0RE8PNMO7BOWVUEXAWVDT", "dateTime": 1519345231811}, {"current_trial": 132, "trialdata": {"rt": -1, "trial_type": "single-stim", "word": "donkey", "stimulus": "<p id=\"stim\">DONKEY</p>", "conditions": [24, 1600, "v", 12000], "internal_node_id": "0.0-96.0", "trial": 3, "time_elapsed": 594400, "serialpos": 3, "key_press": -1, "wordID": 483, "type": "PRES_VIS", "trial_index": 132}, "uniqueid": "MTK2795:3Y4W8Q93L0RE8PNMO7BOWVUEXAWVDT", "dateTime": 1519345234491}, {"current_trial": 133, "trialdata": {"rt": -1, "trial_type": "single-stim", "word": "match", "stimulus": "<p id=\"stim\">MATCH</p>", "conditions": [24, 1600, "v", 12000], "internal_node_id": "0.0-97.0", "trial": 3, "time_elapsed": 597144, "serialpos": 4, "key_press": -1, "wordID": 877, "type": "PRES_VIS", "trial_index": 133}, "uniqueid": "MTK2795:3Y4W8Q93L0RE8PNMO7BOWVUEXAWVDT", "dateTime": 1519345237235}, {"current_trial": 134, "trialdata": {"rt": -1, "trial_type": "single-stim", "word": "chauffeur", "stimulus": "<p id=\"stim\">CHAUFFEUR</p>", "conditions": [24, 1600, "v", 12000], "internal_node_id": "0.0-98.0", "trial": 3, "time_elapsed": 599613, "serialpos": 5, "key_press": -1, "wordID": 282, "type": "PRES_VIS", "trial_index": 134}, "uniqueid": "MTK2795:3Y4W8Q93L0RE8PNMO7BOWVUEXAWVDT", "dateTime": 1519345239704}, {"current_trial": 135, "trialdata": {"rt": -1, "trial_type": "single-stim", "word": "cabin", "stimulus": "<p id=\"stim\">CABIN</p>", "conditions": [24, 1600, "v", 12000], "internal_node_id": "0.0-99.0", "trial": 3, "time_elapsed": 602018, "serialpos": 6, "key_press": -1, "wordID": 210, "type": "PRES_VIS", "trial_index": 135}, "uniqueid": "MTK2795:3Y4W8Q93L0RE8PNMO7BOWVUEXAWVDT", "dateTime": 1519345242109}, {"current_trial": 136, "trialdata": {"rt": -1, "trial_type": "single-stim", "word": "crater", "stimulus": "<p id=\"stim\">CRATER</p>", "conditions": [24, 1600, "v", 12000], "internal_node_id": "0.0-100.0", "trial": 3, "time_elapsed": 604702, "serialpos": 7, "key_press": -1, "wordID": 399, "type": "PRES_VIS", "trial_index": 136}, "uniqueid": "MTK2795:3Y4W8Q93L0RE8PNMO7BOWVUEXAWVDT", "dateTime": 1519345244793}, {"current_trial": 137, "trialdata": {"rt": -1, "trial_type": "single-stim", "word": "bucket", "stimulus": "<p id=\"stim\">BUCKET</p>", "conditions": [24, 1600, "v", 12000], "internal_node_id": "0.0-101.0", "trial": 3, "time_elapsed": 607118, "serialpos": 8, "key_press": -1, "wordID": 183, "type": "PRES_VIS", "trial_index": 137}, "uniqueid": "MTK2795:3Y4W8Q93L0RE8PNMO7BOWVUEXAWVDT", "dateTime": 1519345247209}, {"current_trial": 138, "trialdata": {"rt": -1, "trial_type": "single-stim", "word": "atlas", "stimulus": "<p id=\"stim\">ATLAS</p>", "conditions": [24, 1600, "v", 12000], "internal_node_id": "0.0-102.0", "trial": 3, "time_elapsed": 609815, "serialpos": 9, "key_press": -1, "wordID": 52, "type": "PRES_VIS", "trial_index": 138}, "uniqueid": "MTK2795:3Y4W8Q93L0RE8PNMO7BOWVUEXAWVDT", "dateTime": 1519345249906}, {"current_trial": 139, "trialdata": {"rt": -1, "trial_type": "single-stim", "word": "citrus", "stimulus": "<p id=\"stim\">CITRUS</p>", "conditions": [24, 1600, "v", 12000], "internal_node_id": "0.0-103.0", "trial": 3, "time_elapsed": 612566, "serialpos": 10, "key_press": -1, "wordID": 312, "type": "PRES_VIS", "trial_index": 139}, "uniqueid": "MTK2795:3Y4W8Q93L0RE8PNMO7BOWVUEXAWVDT", "dateTime": 1519345252657}, {"current_trial": 140, "trialdata": {"rt": -1, "trial_type": "single-stim", "word": "tourist", "stimulus": "<p id=\"stim\">TOURIST</p>", "conditions": [24, 1600, "v", 12000], "internal_node_id": "0.0-104.0", "trial": 3, "time_elapsed": 615150, "serialpos": 11, "key_press": -1, "wordID": 1487, "type": "PRES_VIS", "trial_index": 140}, "uniqueid": "MTK2795:3Y4W8Q93L0RE8PNMO7BOWVUEXAWVDT", "dateTime": 1519345255242}, {"current_trial": 141, "trialdata": {"rt": -1, "trial_type": "single-stim", "word": "catcher", "stimulus": "<p id=\"stim\">CATCHER</p>", "conditions": [24, 1600, "v", 12000], "internal_node_id": "0.0-105.0", "trial": 3, "time_elapsed": 617574, "serialpos": 12, "key_press": -1, "wordID": 257, "type": "PRES_VIS", "trial_index": 141}, "uniqueid": "MTK2795:3Y4W8Q93L0RE8PNMO7BOWVUEXAWVDT", "dateTime": 1519345257665}, {"current_trial": 142, "trialdata": {"rt": -1, "trial_type": "single-stim", "word": "keeper", "stimulus": "<p id=\"stim\">KEEPER</p>", "conditions": [24, 1600, "v", 12000], "internal_node_id": "0.0-106.0", "trial": 3, "time_elapsed": 620369, "serialpos": 13, "key_press": -1, "wordID": 768, "type": "PRES_VIS", "trial_index": 142}, "uniqueid": "MTK2795:3Y4W8Q93L0RE8PNMO7BOWVUEXAWVDT", "dateTime": 1519345260460}, {"current_trial": 143, "trialdata": {"rt": -1, "trial_type": "single-stim", "word": "belly", "stimulus": "<p id=\"stim\">BELLY</p>", "conditions": [24, 1600, "v", 12000], "internal_node_id": "0.0-107.0", "trial": 3, "time_elapsed": 622906, "serialpos": 14, "key_press": -1, "wordID": 118, "type": "PRES_VIS", "trial_index": 143}, "uniqueid": "MTK2795:3Y4W8Q93L0RE8PNMO7BOWVUEXAWVDT", "dateTime": 1519345262998}, {"current_trial": 144, "trialdata": {"rt": -1, "trial_type": "single-stim", "word": "summit", "stimulus": "<p id=\"stim\">SUMMIT</p>", "conditions": [24, 1600, "v", 12000], "internal_node_id": "0.0-108.0", "trial": 3, "time_elapsed": 625696, "serialpos": 15, "key_press": -1, "wordID": 1404, "type": "PRES_VIS", "trial_index": 144}, "uniqueid": "MTK2795:3Y4W8Q93L0RE8PNMO7BOWVUEXAWVDT", "dateTime": 1519345265787}, {"current_trial": 145, "trialdata": {"rt": -1, "trial_type": "single-stim", "word": "marine", "stimulus": "<p id=\"stim\">MARINE</p>", "conditions": [24, 1600, "v", 12000], "internal_node_id": "0.0-109.0", "trial": 3, "time_elapsed": 628385, "serialpos": 16, "key_press": -1, "wordID": 868, "type": "PRES_VIS", "trial_index": 145}, "uniqueid": "MTK2795:3Y4W8Q93L0RE8PNMO7BOWVUEXAWVDT", "dateTime": 1519345268476}, {"current_trial": 146, "trialdata": {"rt": -1, "trial_type": "single-stim", "word": "pecan", "stimulus": "<p id=\"stim\">PECAN</p>", "conditions": [24, 1600, "v", 12000], "internal_node_id": "0.0-110.0", "trial": 3, "time_elapsed": 631086, "serialpos": 17, "key_press": -1, "wordID": 1035, "type": "PRES_VIS", "trial_index": 146}, "uniqueid": "MTK2795:3Y4W8Q93L0RE8PNMO7BOWVUEXAWVDT", "dateTime": 1519345271177}, {"current_trial": 147, "trialdata": {"rt": -1, "trial_type": "single-stim", "word": "peanut", "stimulus": "<p id=\"stim\">PEANUT</p>", "conditions": [24, 1600, "v", 12000], "internal_node_id": "0.0-111.0", "trial": 3, "time_elapsed": 633586, "serialpos": 18, "key_press": -1, "wordID": 1031, "type": "PRES_VIS", "trial_index": 147}, "uniqueid": "MTK2795:3Y4W8Q93L0RE8PNMO7BOWVUEXAWVDT", "dateTime": 1519345273677}, {"current_trial": 148, "trialdata": {"rt": -1, "trial_type": "single-stim", "word": "survey", "stimulus": "<p id=\"stim\">SURVEY</p>", "conditions": [24, 1600, "v", 12000], "internal_node_id": "0.0-112.0", "trial": 3, "time_elapsed": 636061, "serialpos": 19, "key_press": -1, "wordID": 1413, "type": "PRES_VIS", "trial_index": 148}, "uniqueid": "MTK2795:3Y4W8Q93L0RE8PNMO7BOWVUEXAWVDT", "dateTime": 1519345276152}, {"current_trial": 149, "trialdata": {"rt": -1, "trial_type": "single-stim", "word": "piston", "stimulus": "<p id=\"stim\">PISTON</p>", "conditions": [24, 1600, "v", 12000], "internal_node_id": "0.0-113.0", "trial": 3, "time_elapsed": 638540, "serialpos": 20, "key_press": -1, "wordID": 1075, "type": "PRES_VIS", "trial_index": 149}, "uniqueid": "MTK2795:3Y4W8Q93L0RE8PNMO7BOWVUEXAWVDT", "dateTime": 1519345278631}, {"current_trial": 150, "trialdata": {"rt": -1, "trial_type": "single-stim", "word": "cousin", "stimulus": "<p id=\"stim\">COUSIN</p>", "conditions": [24, 1600, "v", 12000], "internal_node_id": "0.0-114.0", "trial": 3, "time_elapsed": 641336, "serialpos": 21, "key_press": -1, "wordID": 391, "type": "PRES_VIS", "trial_index": 150}, "uniqueid": "MTK2795:3Y4W8Q93L0RE8PNMO7BOWVUEXAWVDT", "dateTime": 1519345281427}, {"current_trial": 151, "trialdata": {"rt": -1, "trial_type": "single-stim", "word": "journal", "stimulus": "<p id=\"stim\">JOURNAL</p>", "conditions": [24, 1600, "v", 12000], "internal_node_id": "0.0-115.0", "trial": 3, "time_elapsed": 643830, "serialpos": 22, "key_press": -1, "wordID": 759, "type": "PRES_VIS", "trial_index": 151}, "uniqueid": "MTK2795:3Y4W8Q93L0RE8PNMO7BOWVUEXAWVDT", "dateTime": 1519345283921}, {"current_trial": 152, "trialdata": {"rt": -1, "trial_type": "single-stim", "word": "valve", "stimulus": "<p id=\"stim\">VALVE</p>", "conditions": [24, 1600, "v", 12000], "internal_node_id": "0.0-116.0", "trial": 3, "time_elapsed": 646271, "serialpos": 23, "key_press": -1, "wordID": 1545, "type": "PRES_VIS", "trial_index": 152}, "uniqueid": "MTK2795:3Y4W8Q93L0RE8PNMO7BOWVUEXAWVDT", "dateTime": 1519345286363}, {"current_trial": 153, "trialdata": {"rt": -1, "trial_type": "single-stim", "stimulus": "", "internal_node_id": "0.0-117.0-0.0", "time_elapsed": 648683, "key_press": -1, "type": "PRE_RECALL_DELAY", "trial_index": 153}, "uniqueid": "MTK2795:3Y4W8Q93L0RE8PNMO7BOWVUEXAWVDT", "dateTime": 1519345288775}, {"current_trial": 154, "trialdata": {"rt": -1000, "trial_type": "single-audio", "stimulus": "/static/audio/400Hz.wav", "internal_node_id": "0.0-118.0", "time_elapsed": 649185, "key_press": -1, "type": "PRE_RECALL_ALERT", "trial_index": 154}, "uniqueid": "MTK2795:3Y4W8Q93L0RE8PNMO7BOWVUEXAWVDT", "dateTime": 1519345289276}, {"current_trial": 155, "trialdata": {"rt": [1327, 2478, 3991, 10462, 15614, 52245], "recwords": ["lava", "finger", "wrist", "cousin", "tourist", "chauffeur"], "key_times": [536, 654, 798, 918, 1327, 1894, 1974, 2046, 2142, 2262, 2326, 2478, 2822, 3014, 3158, 3319, 3502, 3991, 5327, 5687, 9806, 9910, 9990, 10078, 10190, 10279, 10462, 14920, 14998, 15078, 15118, 15270, 15350, 15502, 15614, 47166, 47293, 47421, 47541, 47677, 47805, 49653, 50077, 50165, 50245, 50669, 50901, 50973, 52245], "trial_type": "free-recall", "conditions": [24, 1600, "v", 12000], "internal_node_id": "0.0-119.0-0.0", "key_presses": [76, 65, 86, 65, 13, 70, 73, 78, 71, 69, 82, 13, 87, 82, 73, 83, 84, 13, 76, 8, 67, 79, 85, 83, 73, 78, 13, 84, 79, 85, 82, 73, 83, 84, 13, 67, 72, 65, 85, 70, 70, 85, 8, 69, 82, 8, 85, 82, 13], "trial": 3, "time_elapsed": 709187, "type": "FREE_RECALL", "trial_index": 155}, "uniqueid": "MTK2795:3Y4W8Q93L0RE8PNMO7BOWVUEXAWVDT", "dateTime": 1519345349281}, {"current_trial": 156, "trialdata": {"rt": 816, "trial_type": "text", "internal_node_id": "0.0-120.0", "time_elapsed": 712008, "key_press": 13, "type": "INSTRUCTIONS", "trial_index": 156}, "uniqueid": "MTK2795:3Y4W8Q93L0RE8PNMO7BOWVUEXAWVDT", "dateTime": 1519345352099}, {"current_trial": 157, "trialdata": {"rt": [3483, 4971, 7067, 8811, 10395], "trial_type": "math-distractor", "key_times": [2347, 2475, 2771, 2915, 2947, 3051, 3483, 4652, 4811, 4971, 6539, 6955, 7067, 8460, 8643, 8811, 9939, 10243, 10395, 11891], "responses": ["21", "12", "17", "14", "17"], "num2": [5, 3, 6, 2, 6, 4], "num3": [8, 6, 5, 6, 6, 6], "conditions": [24, 800, "v", 12000], "internal_node_id": "0.0-121.0", "key_presses": [49, 50, 8, 8, 50, 49, 13, 49, 50, 13, 49, 55, 13, 49, 52, 13, 49, 55, 13, 49], "trial": 4, "time_elapsed": 726013, "type": "DISTRACTOR", "trial_index": 157, "num1": [8, 3, 6, 6, 5, 4]}, "uniqueid": "MTK2795:3Y4W8Q93L0RE8PNMO7BOWVUEXAWVDT", "dateTime": 1519345366104}, {"current_trial": 158, "trialdata": {"rt": -1, "trial_type": "single-stim", "stimulus": "<p id=\"stim\">10</p>", "internal_node_id": "0.0-122.0-0.0", "time_elapsed": 729016, "key_press": -1, "trial_index": 158}, "uniqueid": "MTK2795:3Y4W8Q93L0RE8PNMO7BOWVUEXAWVDT", "dateTime": 1519345369107}, {"current_trial": 159, "trialdata": {"rt": -1, "trial_type": "single-stim", "stimulus": "<p id=\"stim\">9</p>", "internal_node_id": "0.0-122.0-1.0", "time_elapsed": 730018, "key_press": -1, "trial_index": 159}, "uniqueid": "MTK2795:3Y4W8Q93L0RE8PNMO7BOWVUEXAWVDT", "dateTime": 1519345370109}, {"current_trial": 160, "trialdata": {"rt": -1, "trial_type": "single-stim", "stimulus": "<p id=\"stim\">8</p>", "internal_node_id": "0.0-122.0-2.0", "time_elapsed": 731020, "key_press": -1, "trial_index": 160}, "uniqueid": "MTK2795:3Y4W8Q93L0RE8PNMO7BOWVUEXAWVDT", "dateTime": 1519345371111}, {"current_trial": 161, "trialdata": {"rt": -1, "trial_type": "single-stim", "stimulus": "<p id=\"stim\">7</p>", "internal_node_id": "0.0-122.0-3.0", "time_elapsed": 732022, "key_press": -1, "trial_index": 161}, "uniqueid": "MTK2795:3Y4W8Q93L0RE8PNMO7BOWVUEXAWVDT", "dateTime": 1519345372113}, {"current_trial": 162, "trialdata": {"rt": -1, "trial_type": "single-stim", "stimulus": "<p id=\"stim\">6</p>", "internal_node_id": "0.0-122.0-4.0", "time_elapsed": 733024, "key_press": -1, "trial_index": 162}, "uniqueid": "MTK2795:3Y4W8Q93L0RE8PNMO7BOWVUEXAWVDT", "dateTime": 1519345373115}, {"current_trial": 163, "trialdata": {"rt": -1, "trial_type": "single-stim", "stimulus": "<p id=\"stim\">5</p>", "internal_node_id": "0.0-122.0-5.0", "time_elapsed": 734026, "key_press": -1, "trial_index": 163}, "uniqueid": "MTK2795:3Y4W8Q93L0RE8PNMO7BOWVUEXAWVDT", "dateTime": 1519345374117}, {"current_trial": 164, "trialdata": {"rt": -1, "trial_type": "single-stim", "stimulus": "<p id=\"stim\">4</p>", "internal_node_id": "0.0-122.0-6.0", "time_elapsed": 735028, "key_press": -1, "trial_index": 164}, "uniqueid": "MTK2795:3Y4W8Q93L0RE8PNMO7BOWVUEXAWVDT", "dateTime": 1519345375119}, {"current_trial": 165, "trialdata": {"rt": -1, "trial_type": "single-stim", "stimulus": "<p id=\"stim\">3</p>", "internal_node_id": "0.0-122.0-7.0", "time_elapsed": 736030, "key_press": -1, "trial_index": 165}, "uniqueid": "MTK2795:3Y4W8Q93L0RE8PNMO7BOWVUEXAWVDT", "dateTime": 1519345376121}, {"current_trial": 166, "trialdata": {"rt": -1, "trial_type": "single-stim", "stimulus": "<p id=\"stim\">2</p>", "internal_node_id": "0.0-122.0-8.0", "time_elapsed": 737032, "key_press": -1, "trial_index": 166}, "uniqueid": "MTK2795:3Y4W8Q93L0RE8PNMO7BOWVUEXAWVDT", "dateTime": 1519345377123}, {"current_trial": 167, "trialdata": {"rt": -1, "trial_type": "single-stim", "stimulus": "<p id=\"stim\">1</p>", "internal_node_id": "0.0-122.0-9.0", "time_elapsed": 738033, "key_press": -1, "trial_index": 167}, "uniqueid": "MTK2795:3Y4W8Q93L0RE8PNMO7BOWVUEXAWVDT", "dateTime": 1519345378124}, {"current_trial": 168, "trialdata": {"rt": -1, "trial_type": "single-stim", "stimulus": "<p id=\"stim\">+</p>", "internal_node_id": "0.0-123.0-0.0", "time_elapsed": 739535, "key_press": -1, "type": "FIXATION", "trial_index": 168}, "uniqueid": "MTK2795:3Y4W8Q93L0RE8PNMO7BOWVUEXAWVDT", "dateTime": 1519345379626}, {"current_trial": 169, "trialdata": {"rt": -1, "trial_type": "single-stim", "word": "cook", "stimulus": "<p id=\"stim\">COOK</p>", "conditions": [24, 800, "v", 12000], "internal_node_id": "0.0-124.0", "trial": 4, "time_elapsed": 740337, "serialpos": 0, "key_press": -1, "wordID": 371, "type": "PRES_VIS", "trial_index": 169}, "uniqueid": "MTK2795:3Y4W8Q93L0RE8PNMO7BOWVUEXAWVDT", "dateTime": 1519345380428}, {"current_trial": 170, "trialdata": {"rt": -1, "trial_type": "single-stim", "word": "sticker", "stimulus": "<p id=\"stim\">STICKER</p>", "conditions": [24, 800, "v", 12000], "internal_node_id": "0.0-125.0", "trial": 4, "time_elapsed": 742016, "serialpos": 1, "key_press": -1, "wordID": 1381, "type": "PRES_VIS", "trial_index": 170}, "uniqueid": "MTK2795:3Y4W8Q93L0RE8PNMO7BOWVUEXAWVDT", "dateTime": 1519345382107}, {"current_trial": 171, "trialdata": {"rt": -1, "trial_type": "single-stim", "word": "leg", "stimulus": "<p id=\"stim\">LEG</p>", "conditions": [24, 800, "v", 12000], "internal_node_id": "0.0-126.0", "trial": 4, "time_elapsed": 743943, "serialpos": 2, "key_press": -1, "wordID": 808, "type": "PRES_VIS", "trial_index": 171}, "uniqueid": "MTK2795:3Y4W8Q93L0RE8PNMO7BOWVUEXAWVDT", "dateTime": 1519345384034}, {"current_trial": 172, "trialdata": {"rt": -1, "trial_type": "single-stim", "word": "baby", "stimulus": "<p id=\"stim\">BABY</p>", "conditions": [24, 800, "v", 12000], "internal_node_id": "0.0-127.0", "trial": 4, "time_elapsed": 745786, "serialpos": 3, "key_press": -1, "wordID": 63, "type": "PRES_VIS", "trial_index": 172}, "uniqueid": "MTK2795:3Y4W8Q93L0RE8PNMO7BOWVUEXAWVDT", "dateTime": 1519345385877}, {"current_trial": 173, "trialdata": {"rt": -1, "trial_type": "single-stim", "word": "actor", "stimulus": "<p id=\"stim\">ACTOR</p>", "conditions": [24, 800, "v", 12000], "internal_node_id": "0.0-128.0", "trial": 4, "time_elapsed": 747481, "serialpos": 4, "key_press": -1, "wordID": 4, "type": "PRES_VIS", "trial_index": 173}, "uniqueid": "MTK2795:3Y4W8Q93L0RE8PNMO7BOWVUEXAWVDT", "dateTime": 1519345387572}, {"current_trial": 174, "trialdata": {"rt": -1, "trial_type": "single-stim", "word": "stove", "stimulus": "<p id=\"stim\">STOVE</p>", "conditions": [24, 800, "v", 12000], "internal_node_id": "0.0-129.0", "trial": 4, "time_elapsed": 749337, "serialpos": 5, "key_press": -1, "wordID": 1387, "type": "PRES_VIS", "trial_index": 174}, "uniqueid": "MTK2795:3Y4W8Q93L0RE8PNMO7BOWVUEXAWVDT", "dateTime": 1519345389428}, {"current_trial": 175, "trialdata": {"rt": -1, "trial_type": "single-stim", "word": "milk", "stimulus": "<p id=\"stim\">MILK</p>", "conditions": [24, 800, "v", 12000], "internal_node_id": "0.0-130.0", "trial": 4, "time_elapsed": 751207, "serialpos": 6, "key_press": -1, "wordID": 894, "type": "PRES_VIS", "trial_index": 175}, "uniqueid": "MTK2795:3Y4W8Q93L0RE8PNMO7BOWVUEXAWVDT", "dateTime": 1519345391299}, {"current_trial": 176, "trialdata": {"rt": -1, "trial_type": "single-stim", "word": "honey", "stimulus": "<p id=\"stim\">HONEY</p>", "conditions": [24, 800, "v", 12000], "internal_node_id": "0.0-131.0", "trial": 4, "time_elapsed": 753024, "serialpos": 7, "key_press": -1, "wordID": 712, "type": "PRES_VIS", "trial_index": 176}, "uniqueid": "MTK2795:3Y4W8Q93L0RE8PNMO7BOWVUEXAWVDT", "dateTime": 1519345393116}, {"current_trial": 177, "trialdata": {"rt": -1, "trial_type": "single-stim", "word": "wardrobe", "stimulus": "<p id=\"stim\">WARDROBE</p>", "conditions": [24, 800, "v", 12000], "internal_node_id": "0.0-132.0", "trial": 4, "time_elapsed": 754760, "serialpos": 8, "key_press": -1, "wordID": 1586, "type": "PRES_VIS", "trial_index": 177}, "uniqueid": "MTK2795:3Y4W8Q93L0RE8PNMO7BOWVUEXAWVDT", "dateTime": 1519345394851}, {"current_trial": 178, "trialdata": {"rt": -1, "trial_type": "single-stim", "word": "juggler", "stimulus": "<p id=\"stim\">JUGGLER</p>", "conditions": [24, 800, "v", 12000], "internal_node_id": "0.0-133.0", "trial": 4, "time_elapsed": 756524, "serialpos": 9, "key_press": -1, "wordID": 762, "type": "PRES_VIS", "trial_index": 178}, "uniqueid": "MTK2795:3Y4W8Q93L0RE8PNMO7BOWVUEXAWVDT", "dateTime": 1519345396615}, {"current_trial": 179, "trialdata": {"rt": -1, "trial_type": "single-stim", "word": "eagle", "stimulus": "<p id=\"stim\">EAGLE</p>", "conditions": [24, 800, "v", 12000], "internal_node_id": "0.0-134.0", "trial": 4, "time_elapsed": 758231, "serialpos": 10, "key_press": -1, "wordID": 511, "type": "PRES_VIS", "trial_index": 179}, "uniqueid": "MTK2795:3Y4W8Q93L0RE8PNMO7BOWVUEXAWVDT", "dateTime": 1519345398322}, {"current_trial": 180, "trialdata": {"rt": -1, "trial_type": "single-stim", "word": "relish", "stimulus": "<p id=\"stim\">RELISH</p>", "conditions": [24, 800, "v", 12000], "internal_node_id": "0.0-135.0", "trial": 4, "time_elapsed": 760049, "serialpos": 11, "key_press": -1, "wordID": 1182, "type": "PRES_VIS", "trial_index": 180}, "uniqueid": "MTK2795:3Y4W8Q93L0RE8PNMO7BOWVUEXAWVDT", "dateTime": 1519345400140}, {"current_trial": 181, "trialdata": {"rt": -1, "trial_type": "single-stim", "word": "headband", "stimulus": "<p id=\"stim\">HEADBAND</p>", "conditions": [24, 800, "v", 12000], "internal_node_id": "0.0-136.0", "trial": 4, "time_elapsed": 761966, "serialpos": 12, "key_press": -1, "wordID": 695, "type": "PRES_VIS", "trial_index": 181}, "uniqueid": "MTK2795:3Y4W8Q93L0RE8PNMO7BOWVUEXAWVDT", "dateTime": 1519345402057}, {"current_trial": 182, "trialdata": {"rt": -1, "trial_type": "single-stim", "word": "neutron", "stimulus": "<p id=\"stim\">NEUTRON</p>", "conditions": [24, 800, "v", 12000], "internal_node_id": "0.0-137.0", "trial": 4, "time_elapsed": 763826, "serialpos": 13, "key_press": -1, "wordID": 946, "type": "PRES_VIS", "trial_index": 182}, "uniqueid": "MTK2795:3Y4W8Q93L0RE8PNMO7BOWVUEXAWVDT", "dateTime": 1519345403917}, {"current_trial": 183, "trialdata": {"rt": -1, "trial_type": "single-stim", "word": "dorm", "stimulus": "<p id=\"stim\">DORM</p>", "conditions": [24, 800, "v", 12000], "internal_node_id": "0.0-138.0", "trial": 4, "time_elapsed": 765446, "serialpos": 14, "key_press": -1, "wordID": 487, "type": "PRES_VIS", "trial_index": 183}, "uniqueid": "MTK2795:3Y4W8Q93L0RE8PNMO7BOWVUEXAWVDT", "dateTime": 1519345405539}, {"current_trial": 184, "trialdata": {"rt": -1, "trial_type": "single-stim", "word": "sunset", "stimulus": "<p id=\"stim\">SUNSET</p>", "conditions": [24, 800, "v", 12000], "internal_node_id": "0.0-139.0", "trial": 4, "time_elapsed": 767140, "serialpos": 15, "key_press": -1, "wordID": 1407, "type": "PRES_VIS", "trial_index": 184}, "uniqueid": "MTK2795:3Y4W8Q93L0RE8PNMO7BOWVUEXAWVDT", "dateTime": 1519345407231}, {"current_trial": 185, "trialdata": {"rt": -1, "trial_type": "single-stim", "word": "goblin", "stimulus": "<p id=\"stim\">GOBLIN</p>", "conditions": [24, 800, "v", 12000], "internal_node_id": "0.0-140.0", "trial": 4, "time_elapsed": 768958, "serialpos": 16, "key_press": -1, "wordID": 644, "type": "PRES_VIS", "trial_index": 185}, "uniqueid": "MTK2795:3Y4W8Q93L0RE8PNMO7BOWVUEXAWVDT", "dateTime": 1519345409049}, {"current_trial": 186, "trialdata": {"rt": -1, "trial_type": "single-stim", "word": "kidney", "stimulus": "<p id=\"stim\">KIDNEY</p>", "conditions": [24, 800, "v", 12000], "internal_node_id": "0.0-141.0", "trial": 4, "time_elapsed": 770861, "serialpos": 17, "key_press": -1, "wordID": 775, "type": "PRES_VIS", "trial_index": 186}, "uniqueid": "MTK2795:3Y4W8Q93L0RE8PNMO7BOWVUEXAWVDT", "dateTime": 1519345410952}, {"current_trial": 187, "trialdata": {"rt": -1, "trial_type": "single-stim", "word": "transplant", "stimulus": "<p id=\"stim\">TRANSPLANT</p>", "conditions": [24, 800, "v", 12000], "internal_node_id": "0.0-142.0", "trial": 4, "time_elapsed": 772788, "serialpos": 18, "key_press": -1, "wordID": 1495, "type": "PRES_VIS", "trial_index": 187}, "uniqueid": "MTK2795:3Y4W8Q93L0RE8PNMO7BOWVUEXAWVDT", "dateTime": 1519345412880}, {"current_trial": 188, "trialdata": {"rt": -1, "trial_type": "single-stim", "word": "candy", "stimulus": "<p id=\"stim\">CANDY</p>", "conditions": [24, 800, "v", 12000], "internal_node_id": "0.0-143.0", "trial": 4, "time_elapsed": 774622, "serialpos": 19, "key_press": -1, "wordID": 229, "type": "PRES_VIS", "trial_index": 188}, "uniqueid": "MTK2795:3Y4W8Q93L0RE8PNMO7BOWVUEXAWVDT", "dateTime": 1519345414713}, {"current_trial": 189, "trialdata": {"rt": -1, "trial_type": "single-stim", "word": "glass", "stimulus": "<p id=\"stim\">GLASS</p>", "conditions": [24, 800, "v", 12000], "internal_node_id": "0.0-144.0", "trial": 4, "time_elapsed": 776533, "serialpos": 20, "key_press": -1, "wordID": 638, "type": "PRES_VIS", "trial_index": 189}, "uniqueid": "MTK2795:3Y4W8Q93L0RE8PNMO7BOWVUEXAWVDT", "dateTime": 1519345416625}, {"current_trial": 190, "trialdata": {"rt": -1, "trial_type": "single-stim", "word": "dragon", "stimulus": "<p id=\"stim\">DRAGON</p>", "conditions": [24, 800, "v", 12000], "internal_node_id": "0.0-145.0", "trial": 4, "time_elapsed": 778257, "serialpos": 21, "key_press": -1, "wordID": 491, "type": "PRES_VIS", "trial_index": 190}, "uniqueid": "MTK2795:3Y4W8Q93L0RE8PNMO7BOWVUEXAWVDT", "dateTime": 1519345418348}, {"current_trial": 191, "trialdata": {"rt": -1, "trial_type": "single-stim", "word": "handbag", "stimulus": "<p id=\"stim\">HANDBAG</p>", "conditions": [24, 800, "v", 12000], "internal_node_id": "0.0-146.0", "trial": 4, "time_elapsed": 780158, "serialpos": 22, "key_press": -1, "wordID": 683, "type": "PRES_VIS", "trial_index": 191}, "uniqueid": "MTK2795:3Y4W8Q93L0RE8PNMO7BOWVUEXAWVDT", "dateTime": 1519345420249}, {"current_trial": 192, "trialdata": {"rt": -1, "trial_type": "single-stim", "word": "passage", "stimulus": "<p id=\"stim\">PASSAGE</p>", "conditions": [24, 800, "v", 12000], "internal_node_id": "0.0-147.0", "trial": 4, "time_elapsed": 781822, "serialpos": 23, "key_press": -1, "wordID": 1018, "type": "PRES_VIS", "trial_index": 192}, "uniqueid": "MTK2795:3Y4W8Q93L0RE8PNMO7BOWVUEXAWVDT", "dateTime": 1519345421914}, {"current_trial": 193, "trialdata": {"rt": -1, "trial_type": "single-stim", "stimulus": "", "internal_node_id": "0.0-148.0-0.0", "time_elapsed": 784065, "key_press": -1, "type": "PRE_RECALL_DELAY", "trial_index": 193}, "uniqueid": "MTK2795:3Y4W8Q93L0RE8PNMO7BOWVUEXAWVDT", "dateTime": 1519345424156}, {"current_trial": 194, "trialdata": {"rt": -1000, "trial_type": "single-audio", "stimulus": "/static/audio/400Hz.wav", "internal_node_id": "0.0-149.0", "time_elapsed": 784566, "key_press": -1, "type": "PRE_RECALL_ALERT", "trial_index": 194}, "uniqueid": "MTK2795:3Y4W8Q93L0RE8PNMO7BOWVUEXAWVDT", "dateTime": 1519345424657}, {"current_trial": 195, "trialdata": {"rt": [1372, 3460, 3764, 5060, 6636, 8363, 9628, 10692, 11716, 34811], "recwords": ["cook", "sticker", "", "leg", "baby", "actor", "milk", "dragon", "glass", "handbag"], "key_times": [773, 844, 996, 1156, 1372, 1620, 1924, 1996, 2156, 2244, 2332, 2660, 3180, 3332, 3460, 3764, 4260, 4356, 4684, 5060, 5724, 5836, 5924, 6492, 6636, 7332, 7596, 7772, 7844, 7948, 8363, 8812, 8884, 9083, 9348, 9628, 9884, 10004, 10131, 10268, 10372, 10451, 10692, 11197, 11275, 11348, 11500, 11635, 11716, 31692, 31795, 31915, 31979, 32643, 32731, 32883, 33548, 33675, 34811], "trial_type": "free-recall", "conditions": [24, 800, "v", 12000], "internal_node_id": "0.0-150.0-0.0", "key_presses": [67, 79, 79, 75, 13, 83, 84, 73, 67, 75, 69, 84, 8, 82, 13, 32, 76, 69, 71, 13, 66, 65, 66, 89, 32, 65, 67, 84, 79, 82, 13, 77, 73, 76, 75, 13, 68, 82, 65, 71, 79, 78, 13, 71, 76, 65, 83, 83, 13, 72, 65, 78, 68, 66, 65, 67, 8, 71, 13], "trial": 4, "time_elapsed": 844568, "type": "FREE_RECALL", "trial_index": 195}, "uniqueid": "MTK2795:3Y4W8Q93L0RE8PNMO7BOWVUEXAWVDT", "dateTime": 1519345484665}, {"current_trial": 196, "trialdata": {"rt": 580, "trial_type": "text", "internal_node_id": "0.0-151.0", "time_elapsed": 847155, "key_press": 13, "type": "INSTRUCTIONS", "trial_index": 196}, "uniqueid": "MTK2795:3Y4W8Q93L0RE8PNMO7BOWVUEXAWVDT", "dateTime": 1519345487246}, {"current_trial": 197, "trialdata": {"rt": [2075, 5092, 6459, 8053, 9875, 12995, 14267, 15827, 17043, 19443, 21507, 23739], "trial_type": "math-distractor", "key_times": [1820, 1940, 2075, 4460, 4900, 5092, 6220, 6340, 6459, 7596, 7955, 8053, 9484, 9724, 9875, 11436, 12315, 12540, 12723, 12995, 14023, 14155, 14267, 15531, 15707, 15827, 16756, 16883, 17043, 19188, 19283, 19443, 21395, 21507, 23291, 23531, 23739], "responses": ["23", "14", "12", "17", "13", "20", "11", "13", "11", "23", "8", "19"], "num2": [7, 9, 2, 7, 3, 8, 3, 4, 1, 7, 2, 8, 3], "num3": [9, 4, 6, 8, 4, 4, 1, 3, 6, 8, 4, 4, 5], "conditions": [12, 1600, "v", 24000], "internal_node_id": "0.0-152.0", "key_presses": [50, 51, 13, 49, 52, 13, 49, 50, 13, 49, 55, 13, 49, 51, 13, 49, 8, 50, 48, 13, 49, 49, 13, 49, 51, 13, 49, 49, 13, 50, 51, 13, 56, 13, 49, 57, 13], "trial": 5, "time_elapsed": 873159, "type": "DISTRACTOR", "trial_index": 197, "num1": [7, 1, 4, 2, 6, 8, 7, 6, 4, 8, 2, 7, 8]}, "uniqueid": "MTK2795:3Y4W8Q93L0RE8PNMO7BOWVUEXAWVDT", "dateTime": 1519345513250}, {"current_trial": 198, "trialdata": {"rt": -1, "trial_type": "single-stim", "stimulus": "<p id=\"stim\">10</p>", "internal_node_id": "0.0-153.0-0.0", "time_elapsed": 876162, "key_press": -1, "trial_index": 198}, "uniqueid": "MTK2795:3Y4W8Q93L0RE8PNMO7BOWVUEXAWVDT", "dateTime": 1519345516253}, {"current_trial": 199, "trialdata": {"rt": -1, "trial_type": "single-stim", "stimulus": "<p id=\"stim\">9</p>", "internal_node_id": "0.0-153.0-1.0", "time_elapsed": 877164, "key_press": -1, "trial_index": 199}, "uniqueid": "MTK2795:3Y4W8Q93L0RE8PNMO7BOWVUEXAWVDT", "dateTime": 1519345517255}, {"current_trial": 200, "trialdata": {"rt": -1, "trial_type": "single-stim", "stimulus": "<p id=\"stim\">8</p>", "internal_node_id": "0.0-153.0-2.0", "time_elapsed": 878166, "key_press": -1, "trial_index": 200}, "uniqueid": "MTK2795:3Y4W8Q93L0RE8PNMO7BOWVUEXAWVDT", "dateTime": 1519345518257}, {"current_trial": 201, "trialdata": {"rt": -1, "trial_type": "single-stim", "stimulus": "<p id=\"stim\">7</p>", "internal_node_id": "0.0-153.0-3.0", "time_elapsed": 879168, "key_press": -1, "trial_index": 201}, "uniqueid": "MTK2795:3Y4W8Q93L0RE8PNMO7BOWVUEXAWVDT", "dateTime": 1519345519259}, {"current_trial": 202, "trialdata": {"rt": -1, "trial_type": "single-stim", "stimulus": "<p id=\"stim\">6</p>", "internal_node_id": "0.0-153.0-4.0", "time_elapsed": 880169, "key_press": -1, "trial_index": 202}, "uniqueid": "MTK2795:3Y4W8Q93L0RE8PNMO7BOWVUEXAWVDT", "dateTime": 1519345520260}, {"current_trial": 203, "trialdata": {"rt": -1, "trial_type": "single-stim", "stimulus": "<p id=\"stim\">5</p>", "internal_node_id": "0.0-153.0-5.0", "time_elapsed": 881171, "key_press": -1, "trial_index": 203}, "uniqueid": "MTK2795:3Y4W8Q93L0RE8PNMO7BOWVUEXAWVDT", "dateTime": 1519345521262}, {"current_trial": 204, "trialdata": {"rt": -1, "trial_type": "single-stim", "stimulus": "<p id=\"stim\">4</p>", "internal_node_id": "0.0-153.0-6.0", "time_elapsed": 882172, "key_press": -1, "trial_index": 204}, "uniqueid": "MTK2795:3Y4W8Q93L0RE8PNMO7BOWVUEXAWVDT", "dateTime": 1519345522264}, {"current_trial": 205, "trialdata": {"rt": -1, "trial_type": "single-stim", "stimulus": "<p id=\"stim\">3</p>", "internal_node_id": "0.0-153.0-7.0", "time_elapsed": 883174, "key_press": -1, "trial_index": 205}, "uniqueid": "MTK2795:3Y4W8Q93L0RE8PNMO7BOWVUEXAWVDT", "dateTime": 1519345523265}, {"current_trial": 206, "trialdata": {"rt": -1, "trial_type": "single-stim", "stimulus": "<p id=\"stim\">2</p>", "internal_node_id": "0.0-153.0-8.0", "time_elapsed": 884176, "key_press": -1, "trial_index": 206}, "uniqueid": "MTK2795:3Y4W8Q93L0RE8PNMO7BOWVUEXAWVDT", "dateTime": 1519345524267}, {"current_trial": 207, "trialdata": {"rt": -1, "trial_type": "single-stim", "stimulus": "<p id=\"stim\">1</p>", "internal_node_id": "0.0-153.0-9.0", "time_elapsed": 885178, "key_press": -1, "trial_index": 207}, "uniqueid": "MTK2795:3Y4W8Q93L0RE8PNMO7BOWVUEXAWVDT", "dateTime": 1519345525269}, {"current_trial": 208, "trialdata": {"rt": -1, "trial_type": "single-stim", "stimulus": "<p id=\"stim\">+</p>", "internal_node_id": "0.0-154.0-0.0", "time_elapsed": 886680, "key_press": -1, "type": "FIXATION", "trial_index": 208}, "uniqueid": "MTK2795:3Y4W8Q93L0RE8PNMO7BOWVUEXAWVDT", "dateTime": 1519345526772}, {"current_trial": 209, "trialdata": {"rt": -1, "trial_type": "single-stim", "word": "mask", "stimulus": "<p id=\"stim\">MASK</p>", "conditions": [12, 1600, "v", 24000], "internal_node_id": "0.0-155.0", "trial": 5, "time_elapsed": 888283, "serialpos": 0, "key_press": -1, "wordID": 875, "type": "PRES_VIS", "trial_index": 209}, "uniqueid": "MTK2795:3Y4W8Q93L0RE8PNMO7BOWVUEXAWVDT", "dateTime": 1519345528374}, {"current_trial": 210, "trialdata": {"rt": -1, "trial_type": "single-stim", "word": "omelet", "stimulus": "<p id=\"stim\">OMELET</p>", "conditions": [12, 1600, "v", 24000], "internal_node_id": "0.0-156.0", "trial": 5, "time_elapsed": 890732, "serialpos": 1, "key_press": -1, "wordID": 975, "type": "PRES_VIS", "trial_index": 210}, "uniqueid": "MTK2795:3Y4W8Q93L0RE8PNMO7BOWVUEXAWVDT", "dateTime": 1519345530823}, {"current_trial": 211, "trialdata": {"rt": -1, "trial_type": "single-stim", "word": "butcher", "stimulus": "<p id=\"stim\">BUTCHER</p>", "conditions": [12, 1600, "v", 24000], "internal_node_id": "0.0-157.0", "trial": 5, "time_elapsed": 893422, "serialpos": 2, "key_press": -1, "wordID": 202, "type": "PRES_VIS", "trial_index": 211}, "uniqueid": "MTK2795:3Y4W8Q93L0RE8PNMO7BOWVUEXAWVDT", "dateTime": 1519345533513}, {"current_trial": 212, "trialdata": {"rt": -1, "trial_type": "single-stim", "word": "garden", "stimulus": "<p id=\"stim\">GARDEN</p>", "conditions": [12, 1600, "v", 24000], "internal_node_id": "0.0-158.0", "trial": 5, "time_elapsed": 896034, "serialpos": 3, "key_press": -1, "wordID": 622, "type": "PRES_VIS", "trial_index": 212}, "uniqueid": "MTK2795:3Y4W8Q93L0RE8PNMO7BOWVUEXAWVDT", "dateTime": 1519345536125}, {"current_trial": 213, "trialdata": {"rt": -1, "trial_type": "single-stim", "word": "church", "stimulus": "<p id=\"stim\">CHURCH</p>", "conditions": [12, 1600, "v", 24000], "internal_node_id": "0.0-159.0", "trial": 5, "time_elapsed": 898485, "serialpos": 4, "key_press": -1, "wordID": 306, "type": "PRES_VIS", "trial_index": 213}, "uniqueid": "MTK2795:3Y4W8Q93L0RE8PNMO7BOWVUEXAWVDT", "dateTime": 1519345538577}, {"current_trial": 214, "trialdata": {"rt": -1, "trial_type": "single-stim", "word": "denim", "stimulus": "<p id=\"stim\">DENIM</p>", "conditions": [12, 1600, "v", 24000], "internal_node_id": "0.0-160.0", "trial": 5, "time_elapsed": 901277, "serialpos": 5, "key_press": -1, "wordID": 445, "type": "PRES_VIS", "trial_index": 214}, "uniqueid": "MTK2795:3Y4W8Q93L0RE8PNMO7BOWVUEXAWVDT", "dateTime": 1519345541368}, {"current_trial": 215, "trialdata": {"rt": -1, "trial_type": "single-stim", "word": "beef", "stimulus": "<p id=\"stim\">BEEF</p>", "conditions": [12, 1600, "v", 24000], "internal_node_id": "0.0-161.0", "trial": 5, "time_elapsed": 903737, "serialpos": 6, "key_press": -1, "wordID": 112, "type": "PRES_VIS", "trial_index": 215}, "uniqueid": "MTK2795:3Y4W8Q93L0RE8PNMO7BOWVUEXAWVDT", "dateTime": 1519345543829}, {"current_trial": 216, "trialdata": {"rt": -1, "trial_type": "single-stim", "word": "creature", "stimulus": "<p id=\"stim\">CREATURE</p>", "conditions": [12, 1600, "v", 24000], "internal_node_id": "0.0-162.0", "trial": 5, "time_elapsed": 906407, "serialpos": 7, "key_press": -1, "wordID": 402, "type": "PRES_VIS", "trial_index": 216}, "uniqueid": "MTK2795:3Y4W8Q93L0RE8PNMO7BOWVUEXAWVDT", "dateTime": 1519345546498}, {"current_trial": 217, "trialdata": {"rt": -1, "trial_type": "single-stim", "word": "fox", "stimulus": "<p id=\"stim\">FOX</p>", "conditions": [12, 1600, "v", 24000], "internal_node_id": "0.0-163.0", "trial": 5, "time_elapsed": 908992, "serialpos": 8, "key_press": -1, "wordID": 597, "type": "PRES_VIS", "trial_index": 217}, "uniqueid": "MTK2795:3Y4W8Q93L0RE8PNMO7BOWVUEXAWVDT", "dateTime": 1519345549083}, {"current_trial": 218, "trialdata": {"rt": -1, "trial_type": "single-stim", "word": "pasta", "stimulus": "<p id=\"stim\">PASTA</p>", "conditions": [12, 1600, "v", 24000], "internal_node_id": "0.0-164.0", "trial": 5, "time_elapsed": 911526, "serialpos": 9, "key_press": -1, "wordID": 1020, "type": "PRES_VIS", "trial_index": 218}, "uniqueid": "MTK2795:3Y4W8Q93L0RE8PNMO7BOWVUEXAWVDT", "dateTime": 1519345551617}, {"current_trial": 219, "trialdata": {"rt": -1, "trial_type": "single-stim", "word": "bathtub", "stimulus": "<p id=\"stim\">BATHTUB</p>", "conditions": [12, 1600, "v", 24000], "internal_node_id": "0.0-165.0", "trial": 5, "time_elapsed": 914207, "serialpos": 10, "key_press": -1, "wordID": 99, "type": "PRES_VIS", "trial_index": 219}, "uniqueid": "MTK2795:3Y4W8Q93L0RE8PNMO7BOWVUEXAWVDT", "dateTime": 1519345554298}, {"current_trial": 220, "trialdata": {"rt": -1, "trial_type": "single-stim", "word": "rebel", "stimulus": "<p id=\"stim\">REBEL</p>", "conditions": [12, 1600, "v", 24000], "internal_node_id": "0.0-166.0", "trial": 5, "time_elapsed": 916889, "serialpos": 11, "key_press": -1, "wordID": 1171, "type": "PRES_VIS", "trial_index": 220}, "uniqueid": "MTK2795:3Y4W8Q93L0RE8PNMO7BOWVUEXAWVDT", "dateTime": 1519345556981}, {"current_trial": 221, "trialdata": {"rt": -1, "trial_type": "single-stim", "stimulus": "", "internal_node_id": "0.0-167.0-0.0", "time_elapsed": 919162, "key_press": -1, "type": "PRE_RECALL_DELAY", "trial_index": 221}, "uniqueid": "MTK2795:3Y4W8Q93L0RE8PNMO7BOWVUEXAWVDT", "dateTime": 1519345559253}, {"current_trial": 222, "trialdata": {"rt": -1000, "trial_type": "single-audio", "stimulus": "/static/audio/400Hz.wav", "internal_node_id": "0.0-168.0", "time_elapsed": 919663, "key_press": -1, "type": "PRE_RECALL_ALERT", "trial_index": 222}, "uniqueid": "MTK2795:3Y4W8Q93L0RE8PNMO7BOWVUEXAWVDT", "dateTime": 1519345559754}, {"current_trial": 223, "trialdata": {"rt": [1718, 2870, 4126, 5238, 6582, 7998, 17446, 25245], "recwords": ["rebel", "mask", "omelet", "butcher", "garden", "church", "relish", "church"], "key_times": [1020, 1051, 1254, 1407, 1510, 1718, 2054, 2134, 2286, 2398, 2870, 3190, 3430, 3550, 3678, 3750, 3967, 4126, 4431, 4518, 4646, 4855, 4934, 5022, 5094, 5238, 5462, 5598, 5702, 5878, 6030, 6190, 6582, 7055, 7134, 7351, 7438, 7662, 7751, 7998, 16767, 16822, 16902, 17062, 17134, 17262, 17446, 23990, 24054, 24222, 24478, 24814, 24901, 25245], "trial_type": "free-recall", "conditions": [12, 1600, "v", 24000], "internal_node_id": "0.0-169.0-0.0", "key_presses": [82, 69, 66, 69, 76, 13, 77, 65, 83, 75, 13, 79, 77, 69, 76, 69, 84, 13, 66, 85, 84, 67, 72, 69, 82, 13, 71, 65, 82, 68, 69, 78, 13, 67, 72, 85, 82, 67, 72, 13, 82, 69, 76, 73, 83, 72, 13, 67, 72, 85, 82, 67, 72, 13], "trial": 5, "time_elapsed": 979665, "type": "FREE_RECALL", "trial_index": 223}, "uniqueid": "MTK2795:3Y4W8Q93L0RE8PNMO7BOWVUEXAWVDT", "dateTime": 1519345619762}, {"current_trial": 224, "trialdata": {"rt": 1663, "trial_type": "text", "internal_node_id": "0.0-170.0", "time_elapsed": 983335, "key_press": 13, "type": "INSTRUCTIONS", "trial_index": 224}, "uniqueid": "MTK2795:3Y4W8Q93L0RE8PNMO7BOWVUEXAWVDT", "dateTime": 1519345623426}, {"current_trial": 225, "trialdata": {"rt": [1933, 4916, 6764, 8117, 9692, 11332, 12940, 14988, 17036, 18260, 20283, 22372], "trial_type": "math-distractor", "key_times": [1573, 1700, 1933, 4644, 4756, 4916, 6628, 6764, 7988, 8117, 9620, 9692, 11028, 11188, 11332, 12676, 12852, 12940, 14492, 14708, 14988, 16620, 16828, 17036, 18141, 18260, 19732, 20155, 20283, 22020, 22171, 22372, 23995], "responses": ["10", "23", "8", "6", "5", "14", "13", "19", "20", "6", "17", "20"], "num2": [1, 9, 5, 4, 1, 4, 5, 9, 4, 4, 7, 4, 1], "num3": [7, 7, 1, 1, 3, 2, 2, 2, 7, 1, 6, 9, 9], "conditions": [12, 800, "v", 24000], "internal_node_id": "0.0-171.0", "key_presses": [49, 48, 13, 50, 51, 13, 56, 13, 54, 13, 53, 13, 49, 52, 13, 49, 51, 13, 49, 57, 13, 50, 48, 13, 54, 13, 49, 55, 13, 50, 48, 13, 49], "trial": 6, "time_elapsed": 1009338, "type": "DISTRACTOR", "trial_index": 225, "num1": [2, 7, 2, 1, 1, 8, 6, 8, 9, 1, 4, 7, 5]}, "uniqueid": "MTK2795:3Y4W8Q93L0RE8PNMO7BOWVUEXAWVDT", "dateTime": 1519345649429}, {"current_trial": 226, "trialdata": {"rt": -1, "trial_type": "single-stim", "stimulus": "<p id=\"stim\">10</p>", "internal_node_id": "0.0-172.0-0.0", "time_elapsed": 1012341, "key_press": -1, "trial_index": 226}, "uniqueid": "MTK2795:3Y4W8Q93L0RE8PNMO7BOWVUEXAWVDT", "dateTime": 1519345652432}, {"current_trial": 227, "trialdata": {"rt": -1, "trial_type": "single-stim", "stimulus": "<p id=\"stim\">9</p>", "internal_node_id": "0.0-172.0-1.0", "time_elapsed": 1013342, "key_press": -1, "trial_index": 227}, "uniqueid": "MTK2795:3Y4W8Q93L0RE8PNMO7BOWVUEXAWVDT", "dateTime": 1519345653433}, {"current_trial": 228, "trialdata": {"rt": -1, "trial_type": "single-stim", "stimulus": "<p id=\"stim\">8</p>", "internal_node_id": "0.0-172.0-2.0", "time_elapsed": 1014344, "key_press": -1, "trial_index": 228}, "uniqueid": "MTK2795:3Y4W8Q93L0RE8PNMO7BOWVUEXAWVDT", "dateTime": 1519345654435}, {"current_trial": 229, "trialdata": {"rt": -1, "trial_type": "single-stim", "stimulus": "<p id=\"stim\">7</p>", "internal_node_id": "0.0-172.0-3.0", "time_elapsed": 1015346, "key_press": -1, "trial_index": 229}, "uniqueid": "MTK2795:3Y4W8Q93L0RE8PNMO7BOWVUEXAWVDT", "dateTime": 1519345655437}, {"current_trial": 230, "trialdata": {"rt": -1, "trial_type": "single-stim", "stimulus": "<p id=\"stim\">6</p>", "internal_node_id": "0.0-172.0-4.0", "time_elapsed": 1016348, "key_press": -1, "trial_index": 230}, "uniqueid": "MTK2795:3Y4W8Q93L0RE8PNMO7BOWVUEXAWVDT", "dateTime": 1519345656440}, {"current_trial": 231, "trialdata": {"rt": -1, "trial_type": "single-stim", "stimulus": "<p id=\"stim\">5</p>", "internal_node_id": "0.0-172.0-5.0", "time_elapsed": 1017350, "key_press": -1, "trial_index": 231}, "uniqueid": "MTK2795:3Y4W8Q93L0RE8PNMO7BOWVUEXAWVDT", "dateTime": 1519345657442}, {"current_trial": 232, "trialdata": {"rt": -1, "trial_type": "single-stim", "stimulus": "<p id=\"stim\">4</p>", "internal_node_id": "0.0-172.0-6.0", "time_elapsed": 1018353, "key_press": -1, "trial_index": 232}, "uniqueid": "MTK2795:3Y4W8Q93L0RE8PNMO7BOWVUEXAWVDT", "dateTime": 1519345658444}, {"current_trial": 233, "trialdata": {"rt": -1, "trial_type": "single-stim", "stimulus": "<p id=\"stim\">3</p>", "internal_node_id": "0.0-172.0-7.0", "time_elapsed": 1019355, "key_press": -1, "trial_index": 233}, "uniqueid": "MTK2795:3Y4W8Q93L0RE8PNMO7BOWVUEXAWVDT", "dateTime": 1519345659446}, {"current_trial": 234, "trialdata": {"rt": -1, "trial_type": "single-stim", "stimulus": "<p id=\"stim\">2</p>", "internal_node_id": "0.0-172.0-8.0", "time_elapsed": 1020357, "key_press": -1, "trial_index": 234}, "uniqueid": "MTK2795:3Y4W8Q93L0RE8PNMO7BOWVUEXAWVDT", "dateTime": 1519345660448}, {"current_trial": 235, "trialdata": {"rt": -1, "trial_type": "single-stim", "stimulus": "<p id=\"stim\">1</p>", "internal_node_id": "0.0-172.0-9.0", "time_elapsed": 1021359, "key_press": -1, "trial_index": 235}, "uniqueid": "MTK2795:3Y4W8Q93L0RE8PNMO7BOWVUEXAWVDT", "dateTime": 1519345661450}, {"current_trial": 236, "trialdata": {"rt": -1, "trial_type": "single-stim", "stimulus": "<p id=\"stim\">+</p>", "internal_node_id": "0.0-173.0-0.0", "time_elapsed": 1022861, "key_press": -1, "type": "FIXATION", "trial_index": 236}, "uniqueid": "MTK2795:3Y4W8Q93L0RE8PNMO7BOWVUEXAWVDT", "dateTime": 1519345662952}, {"current_trial": 237, "trialdata": {"rt": -1, "trial_type": "single-stim", "word": "nurse", "stimulus": "<p id=\"stim\">NURSE</p>", "conditions": [12, 800, "v", 24000], "internal_node_id": "0.0-174.0", "trial": 6, "time_elapsed": 1023663, "serialpos": 0, "key_press": -1, "wordID": 962, "type": "PRES_VIS", "trial_index": 237}, "uniqueid": "MTK2795:3Y4W8Q93L0RE8PNMO7BOWVUEXAWVDT", "dateTime": 1519345663754}, {"current_trial": 238, "trialdata": {"rt": -1, "trial_type": "single-stim", "word": "trombone", "stimulus": "<p id=\"stim\">TROMBONE</p>", "conditions": [12, 800, "v", 24000], "internal_node_id": "0.0-175.0", "trial": 6, "time_elapsed": 1025659, "serialpos": 1, "key_press": -1, "wordID": 1507, "type": "PRES_VIS", "trial_index": 238}, "uniqueid": "MTK2795:3Y4W8Q93L0RE8PNMO7BOWVUEXAWVDT", "dateTime": 1519345665751}, {"current_trial": 239, "trialdata": {"rt": -1, "trial_type": "single-stim", "word": "puddle", "stimulus": "<p id=\"stim\">PUDDLE</p>", "conditions": [12, 800, "v", 24000], "internal_node_id": "0.0-176.0", "trial": 6, "time_elapsed": 1027291, "serialpos": 2, "key_press": -1, "wordID": 1139, "type": "PRES_VIS", "trial_index": 239}, "uniqueid": "MTK2795:3Y4W8Q93L0RE8PNMO7BOWVUEXAWVDT", "dateTime": 1519345667382}, {"current_trial": 240, "trialdata": {"rt": -1, "trial_type": "single-stim", "word": "twig", "stimulus": "<p id=\"stim\">TWIG</p>", "conditions": [12, 800, "v", 24000], "internal_node_id": "0.0-177.0", "trial": 6, "time_elapsed": 1028927, "serialpos": 3, "key_press": -1, "wordID": 1526, "type": "PRES_VIS", "trial_index": 240}, "uniqueid": "MTK2795:3Y4W8Q93L0RE8PNMO7BOWVUEXAWVDT", "dateTime": 1519345669018}, {"current_trial": 241, "trialdata": {"rt": -1, "trial_type": "single-stim", "word": "bullet", "stimulus": "<p id=\"stim\">BULLET</p>", "conditions": [12, 800, "v", 24000], "internal_node_id": "0.0-178.0", "trial": 6, "time_elapsed": 1030633, "serialpos": 4, "key_press": -1, "wordID": 193, "type": "PRES_VIS", "trial_index": 241}, "uniqueid": "MTK2795:3Y4W8Q93L0RE8PNMO7BOWVUEXAWVDT", "dateTime": 1519345670724}, {"current_trial": 242, "trialdata": {"rt": -1, "trial_type": "single-stim", "word": "chapel", "stimulus": "<p id=\"stim\">CHAPEL</p>", "conditions": [12, 800, "v", 24000], "internal_node_id": "0.0-179.0", "trial": 6, "time_elapsed": 1032271, "serialpos": 5, "key_press": -1, "wordID": 279, "type": "PRES_VIS", "trial_index": 242}, "uniqueid": "MTK2795:3Y4W8Q93L0RE8PNMO7BOWVUEXAWVDT", "dateTime": 1519345672363}, {"current_trial": 243, "trialdata": {"rt": -1, "trial_type": "single-stim", "word": "cellar", "stimulus": "<p id=\"stim\">CELLAR</p>", "conditions": [12, 800, "v", 24000], "internal_node_id": "0.0-180.0", "trial": 6, "time_elapsed": 1034041, "serialpos": 6, "key_press": -1, "wordID": 266, "type": "PRES_VIS", "trial_index": 243}, "uniqueid": "MTK2795:3Y4W8Q93L0RE8PNMO7BOWVUEXAWVDT", "dateTime": 1519345674132}, {"current_trial": 244, "trialdata": {"rt": -1, "trial_type": "single-stim", "word": "patient", "stimulus": "<p id=\"stim\">PATIENT</p>", "conditions": [12, 800, "v", 24000], "internal_node_id": "0.0-181.0", "trial": 6, "time_elapsed": 1035975, "serialpos": 7, "key_press": -1, "wordID": 1023, "type": "PRES_VIS", "trial_index": 244}, "uniqueid": "MTK2795:3Y4W8Q93L0RE8PNMO7BOWVUEXAWVDT", "dateTime": 1519345676066}, {"current_trial": 245, "trialdata": {"rt": -1, "trial_type": "single-stim", "word": "diver", "stimulus": "<p id=\"stim\">DIVER</p>", "conditions": [12, 800, "v", 24000], "internal_node_id": "0.0-182.0", "trial": 6, "time_elapsed": 1037632, "serialpos": 8, "key_press": -1, "wordID": 475, "type": "PRES_VIS", "trial_index": 245}, "uniqueid": "MTK2795:3Y4W8Q93L0RE8PNMO7BOWVUEXAWVDT", "dateTime": 1519345677724}, {"current_trial": 246, "trialdata": {"rt": -1, "trial_type": "single-stim", "word": "swimmer", "stimulus": "<p id=\"stim\">SWIMMER</p>", "conditions": [12, 800, "v", 24000], "internal_node_id": "0.0-183.0", "trial": 6, "time_elapsed": 1039467, "serialpos": 9, "key_press": -1, "wordID": 1419, "type": "PRES_VIS", "trial_index": 246}, "uniqueid": "MTK2795:3Y4W8Q93L0RE8PNMO7BOWVUEXAWVDT", "dateTime": 1519345679558}, {"current_trial": 247, "trialdata": {"rt": -1, "trial_type": "single-stim", "word": "iceberg", "stimulus": "<p id=\"stim\">ICEBERG</p>", "conditions": [12, 800, "v", 24000], "internal_node_id": "0.0-184.0", "trial": 6, "time_elapsed": 1041082, "serialpos": 10, "key_press": -1, "wordID": 730, "type": "PRES_VIS", "trial_index": 247}, "uniqueid": "MTK2795:3Y4W8Q93L0RE8PNMO7BOWVUEXAWVDT", "dateTime": 1519345681173}, {"current_trial": 248, "trialdata": {"rt": -1, "trial_type": "single-stim", "word": "robber", "stimulus": "<p id=\"stim\">ROBBER</p>", "conditions": [12, 800, "v", 24000], "internal_node_id": "0.0-185.0", "trial": 6, "time_elapsed": 1042828, "serialpos": 11, "key_press": -1, "wordID": 1196, "type": "PRES_VIS", "trial_index": 248}, "uniqueid": "MTK2795:3Y4W8Q93L0RE8PNMO7BOWVUEXAWVDT", "dateTime": 1519345682919}, {"current_trial": 249, "trialdata": {"rt": -1, "trial_type": "single-stim", "stimulus": "", "internal_node_id": "0.0-186.0-0.0", "time_elapsed": 1045187, "key_press": -1, "type": "PRE_RECALL_DELAY", "trial_index": 249}, "uniqueid": "MTK2795:3Y4W8Q93L0RE8PNMO7BOWVUEXAWVDT", "dateTime": 1519345685278}, {"current_trial": 250, "trialdata": {"rt": -1000, "trial_type": "single-audio", "stimulus": "/static/audio/400Hz.wav", "internal_node_id": "0.0-187.0", "time_elapsed": 1045689, "key_press": -1, "type": "PRE_RECALL_ALERT", "trial_index": 250}, "uniqueid": "MTK2795:3Y4W8Q93L0RE8PNMO7BOWVUEXAWVDT", "dateTime": 1519345685781}, {"current_trial": 251, "trialdata": {"rt": [1640, 3552, 5096, 6584, 8704, 12424, 41159, 49391], "recwords": ["nurse", "trombone", "chapel", "cellar", "iceberg", "puddle", "twig", "nurse"], "key_times": [801, 944, 1000, 1176, 1344, 1640, 2344, 2504, 2616, 2728, 3000, 3080, 3224, 3312, 3552, 4144, 4232, 4392, 4640, 4776, 4888, 5096, 5536, 5720, 5816, 5952, 6304, 6408, 6584, 6872, 7000, 7168, 7488, 7680, 7768, 8088, 8704, 11625, 11720, 11904, 12032, 12136, 12192, 12424, 40127, 40480, 40703, 41007, 41159, 47975, 48110, 48167, 48335, 48479, 49391], "trial_type": "free-recall", "conditions": [12, 800, "v", 24000], "internal_node_id": "0.0-188.0-0.0", "key_pres