{"assignmentId": "31UV0MXWNRJEI6OTAUUMJUGSCWRI5A", "workerId": "MTK2901", "questiondata": {"avail_screen_height": 1456, "color_depth": 24, "screen_width": 2732, "pixel_depth": 24, "avail_screen_width": 2732, "screen_height": 1536}, "bonus": 0, "hitId": "3RHLQY6EDTBDRS6DE95ZYLYHZJF4DW", "counterbalance": 2469, "useragent": "Mozilla/5.0 (Windows NT 10.0; Win64; x64; rv:58.0) Gecko/20100101 Firefox/58.0", "eventdata": [{"eventtype": "initialized", "interval": 0, "value": null, "timestamp": 1519583783323}, {"eventtype": "window_resize", "interval": 0, "value": [2732, 1336], "timestamp": 1519583783323}, {"eventtype": "focus", "interval": 12469, "value": "off", "timestamp": 1519583795792}, {"eventtype": "focus", "interval": 3716, "value": "on", "timestamp": 1519583799508}, {"eventtype": "focus", "interval": 1770, "value": "off", "timestamp": 1519583801278}, {"eventtype": "focus", "interval": 7055, "value": "on", "timestamp": 1519583808333}, {"eventtype": "focus", "interval": 3030, "value": "off", "timestamp": 1519583811363}, {"eventtype": "focus", "interval": 1, "value": "on", "timestamp": 1519583811364}, {"eventtype": "focus", "interval": 24407, "value": "off", "timestamp": 1519583835771}, {"eventtype": "focus", "interval": 3112, "value": "on", "timestamp": 1519583838883}, {"eventtype": "window_resize", "interval": 520889, "value": [2700, 1304], "timestamp": 1519584359772}, {"eventtype": "focus", "interval": 983, "value": "off", "timestamp": 1519584360755}, {"eventtype": "window_resize", "interval": 62, "value": [1362, 1318], "timestamp": 1519584360817}, {"eventtype": "focus", "interval": 1200, "value": "on", "timestamp": 1519584362017}, {"eventtype": "window_resize", "interval": 1270, "value": [2732, 1336], "timestamp": 1519584363287}, {"eventtype": "focus", "interval": 3114, "value": "off", "timestamp": 1519584366401}, {"eventtype": "focus", "interval": 4260, "value": "on", "timestamp": 1519584370661}, {"eventtype": "focus", "interval": 61517, "value": "off", "timestamp": 1519584432178}, {"eventtype": "focus", "interval": 28889, "value": "on", "timestamp": 1519584461067}, {"eventtype": "focus", "interval": 238302, "value": "off", "timestamp": 1519584699369}, {"eventtype": "focus", "interval": 51122, "value": "on", "timestamp": 1519584750491}, {"eventtype": "focus", "interval": 450997, "value": "off", "timestamp": 1519585201488}, {"eventtype": "focus", "interval": 1666, "value": "on", "timestamp": 1519585203154}, {"eventtype": "focus", "interval": 1327151, "value": "off", "timestamp": 1519586530305}, {"eventtype": "focus", "interval": 3722, "value": "on", "timestamp": 1519586534027}], "data": [{"current_trial": 0, "trialdata": {"rt": 3699, "trial_type": "text", "internal_node_id": "0.0-0.0", "time_elapsed": 3702, "key_press": 13, "type": "INSTRUCTIONS", "trial_index": 0}, "uniqueid": "MTK2901:31UV0MXWNRJEI6OTAUUMJUGSCWRI5A", "dateTime": 1519583824320}, {"current_trial": 1, "trialdata": {"rt": 15179, "trial_type": "text", "internal_node_id": "0.0-1.0", "time_elapsed": 18887, "key_press": 13, "type": "INSTRUCTIONS", "trial_index": 1}, "uniqueid": "MTK2901:31UV0MXWNRJEI6OTAUUMJUGSCWRI5A", "dateTime": 1519583839503}, {"current_trial": 2, "trialdata": {"rt": [7324], "trial_type": "audio-test", "responses": ["ocean"], "internal_node_id": "0.0-2.0", "time_elapsed": 26668, "type": "AUDIO_TEST", "trial_index": 2}, "uniqueid": "MTK2901:31UV0MXWNRJEI6OTAUUMJUGSCWRI5A", "dateTime": 1519583847286}, {"current_trial": 3, "trialdata": {"rt": [6903], "trial_type": "audio-test", "responses": ["crystal"], "internal_node_id": "0.0-3.0", "time_elapsed": 33614, "type": "AUDIO_TEST", "trial_index": 3}, "uniqueid": "MTK2901:31UV0MXWNRJEI6OTAUUMJUGSCWRI5A", "dateTime": 1519583854231}, {"current_trial": 4, "trialdata": {"rt": [4670], "trial_type": "audio-test", "responses": ["spice"], "internal_node_id": "0.0-4.0", "time_elapsed": 38325, "type": "AUDIO_TEST", "trial_index": 4}, "uniqueid": "MTK2901:31UV0MXWNRJEI6OTAUUMJUGSCWRI5A", "dateTime": 1519583858942}, {"current_trial": 5, "trialdata": {"rt": 18056, "trial_type": "survey-text", "responses": "{\"Q0\":\"11pm\",\"Q1\":\"6:45am\",\"Q2\":\"5\"}", "internal_node_id": "0.0-5.0", "time_elapsed": 57147, "type": "SLEEP_SURVEY", "trial_index": 5}, "uniqueid": "MTK2901:31UV0MXWNRJEI6OTAUUMJUGSCWRI5A", "dateTime": 1519583877763}, {"current_trial": 6, "trialdata": {"rt": 90725, "trial_type": "text", "internal_node_id": "0.0-6.0", "time_elapsed": 148880, "key_press": 13, "type": "INSTRUCTIONS", "trial_index": 6}, "uniqueid": "MTK2901:31UV0MXWNRJEI6OTAUUMJUGSCWRI5A", "dateTime": 1519583969497}, {"current_trial": 7, "trialdata": {"rt": 10036, "trial_type": "text", "internal_node_id": "0.0-7.0", "time_elapsed": 159427, "key_press": 13, "type": "INSTRUCTIONS", "trial_index": 7}, "uniqueid": "MTK2901:31UV0MXWNRJEI6OTAUUMJUGSCWRI5A", "dateTime": 1519583980045}, {"current_trial": 8, "trialdata": {"rt": 9657, "trial_type": "text", "internal_node_id": "0.0-8.0", "time_elapsed": 169601, "key_press": 13, "type": "INSTRUCTIONS", "trial_index": 8}, "uniqueid": "MTK2901:31UV0MXWNRJEI6OTAUUMJUGSCWRI5A", "dateTime": 1519583990217}, {"current_trial": 9, "trialdata": {"rt": [2889, 5903, 7534, 8937, 11215, 12881, 15171, 16642], "trial_type": "math-distractor", "key_times": [2460, 2732, 2889, 5669, 5774, 5903, 7091, 7382, 7534, 8695, 8814, 8937, 10667, 10716, 11215, 12631, 12760, 12881, 14822, 15039, 15171, 16528, 16642], "responses": ["17", "12", "16", "11", "12", "11", "15", "6"], "num2": [8, 7, 5, 1, 3, 4, 6, 2, 9], "num3": [3, 1, 6, 3, 6, 5, 8, 2, 6], "conditions": [18, 1200, "a", 18000], "internal_node_id": "0.0-9.0", "key_presses": [49, 55, 13, 49, 50, 13, 49, 54, 13, 49, 49, 13, 49, 50, 13, 49, 49, 13, 49, 53, 13, 54, 13], "trial": 0, "time_elapsed": 188641, "type": "DISTRACTOR", "trial_index": 9, "num1": [4, 4, 5, 7, 3, 2, 1, 2, 7]}, "uniqueid": "MTK2901:31UV0MXWNRJEI6OTAUUMJUGSCWRI5A", "dateTime": 1519584009260}, {"current_trial": 10, "trialdata": {"rt": -1, "trial_type": "single-stim", "stimulus": "<p id=\"stim\">10</p>", "internal_node_id": "0.0-10.0-0.0", "time_elapsed": 191668, "key_press": -1, "trial_index": 10}, "uniqueid": "MTK2901:31UV0MXWNRJEI6OTAUUMJUGSCWRI5A", "dateTime": 1519584012286}, {"current_trial": 11, "trialdata": {"rt": -1, "trial_type": "single-stim", "stimulus": "<p id=\"stim\">9</p>", "internal_node_id": "0.0-10.0-1.0", "time_elapsed": 192673, "key_press": -1, "trial_index": 11}, "uniqueid": "MTK2901:31UV0MXWNRJEI6OTAUUMJUGSCWRI5A", "dateTime": 1519584013290}, {"current_trial": 12, "trialdata": {"rt": -1, "trial_type": "single-stim", "stimulus": "<p id=\"stim\">8</p>", "internal_node_id": "0.0-10.0-2.0", "time_elapsed": 193690, "key_press": -1, "trial_index": 12}, "uniqueid": "MTK2901:31UV0MXWNRJEI6OTAUUMJUGSCWRI5A", "dateTime": 1519584014307}, {"current_trial": 13, "trialdata": {"rt": -1, "trial_type": "single-stim", "stimulus": "<p id=\"stim\">7</p>", "internal_node_id": "0.0-10.0-3.0", "time_elapsed": 194702, "key_press": -1, "trial_index": 13}, "uniqueid": "MTK2901:31UV0MXWNRJEI6OTAUUMJUGSCWRI5A", "dateTime": 1519584015319}, {"current_trial": 14, "trialdata": {"rt": -1, "trial_type": "single-stim", "stimulus": "<p id=\"stim\">6</p>", "internal_node_id": "0.0-10.0-4.0", "time_elapsed": 195716, "key_press": -1, "trial_index": 14}, "uniqueid": "MTK2901:31UV0MXWNRJEI6OTAUUMJUGSCWRI5A", "dateTime": 1519584016332}, {"current_trial": 15, "trialdata": {"rt": -1, "trial_type": "single-stim", "stimulus": "<p id=\"stim\">5</p>", "internal_node_id": "0.0-10.0-5.0", "time_elapsed": 196729, "key_press": -1, "trial_index": 15}, "uniqueid": "MTK2901:31UV0MXWNRJEI6OTAUUMJUGSCWRI5A", "dateTime": 1519584017345}, {"current_trial": 16, "trialdata": {"rt": -1, "trial_type": "single-stim", "stimulus": "<p id=\"stim\">4</p>", "internal_node_id": "0.0-10.0-6.0", "time_elapsed": 197733, "key_press": -1, "trial_index": 16}, "uniqueid": "MTK2901:31UV0MXWNRJEI6OTAUUMJUGSCWRI5A", "dateTime": 1519584018351}, {"current_trial": 17, "trialdata": {"rt": -1, "trial_type": "single-stim", "stimulus": "<p id=\"stim\">3</p>", "internal_node_id": "0.0-10.0-7.0", "time_elapsed": 198745, "key_press": -1, "trial_index": 17}, "uniqueid": "MTK2901:31UV0MXWNRJEI6OTAUUMJUGSCWRI5A", "dateTime": 1519584019362}, {"current_trial": 18, "trialdata": {"rt": -1, "trial_type": "single-stim", "stimulus": "<p id=\"stim\">2</p>", "internal_node_id": "0.0-10.0-8.0", "time_elapsed": 199763, "key_press": -1, "trial_index": 18}, "uniqueid": "MTK2901:31UV0MXWNRJEI6OTAUUMJUGSCWRI5A", "dateTime": 1519584020379}, {"current_trial": 19, "trialdata": {"rt": -1, "trial_type": "single-stim", "stimulus": "<p id=\"stim\">1</p>", "internal_node_id": "0.0-10.0-9.0", "time_elapsed": 200771, "key_press": -1, "trial_index": 19}, "uniqueid": "MTK2901:31UV0MXWNRJEI6OTAUUMJUGSCWRI5A", "dateTime": 1519584021388}, {"current_trial": 20, "trialdata": {"rt": -1, "trial_type": "single-stim", "stimulus": "<p id=\"stim\">+</p>", "internal_node_id": "0.0-11.0-0.0", "time_elapsed": 202292, "key_press": -1, "type": "FIXATION", "trial_index": 20}, "uniqueid": "MTK2901:31UV0MXWNRJEI6OTAUUMJUGSCWRI5A", "dateTime": 1519584022910}, {"current_trial": 21, "trialdata": {"rt": -1000, "trial_type": "single-audio", "word": "cashier", "stimulus": "/static/audio/wordpool/CASHIER.wav", "conditions": [18, 1200, "a", 18000], "internal_node_id": "0.0-12.0", "trial": 0, "time_elapsed": 204537, "serialpos": 0, "key_press": -1, "wordID": 253, "type": "PRES_AUD", "trial_index": 21}, "uniqueid": "MTK2901:31UV0MXWNRJEI6OTAUUMJUGSCWRI5A", "dateTime": 1519584025157}, {"current_trial": 22, "trialdata": {"rt": -1000, "trial_type": "single-audio", "word": "whiskers", "stimulus": "/static/audio/wordpool/WHISKERS.wav", "conditions": [18, 1200, "a", 18000], "internal_node_id": "0.0-13.0", "trial": 0, "time_elapsed": 206924, "serialpos": 1, "key_press": -1, "wordID": 1604, "type": "PRES_AUD", "trial_index": 22}, "uniqueid": "MTK2901:31UV0MXWNRJEI6OTAUUMJUGSCWRI5A", "dateTime": 1519584027544}, {"current_trial": 23, "trialdata": {"rt": -1000, "trial_type": "single-audio", "word": "canal", "stimulus": "/static/audio/wordpool/CANAL.wav", "conditions": [18, 1200, "a", 18000], "internal_node_id": "0.0-14.0", "trial": 0, "time_elapsed": 209241, "serialpos": 2, "key_press": -1, "wordID": 225, "type": "PRES_AUD", "trial_index": 23}, "uniqueid": "MTK2901:31UV0MXWNRJEI6OTAUUMJUGSCWRI5A", "dateTime": 1519584029857}, {"current_trial": 24, "trialdata": {"rt": -1000, "trial_type": "single-audio", "word": "onion", "stimulus": "/static/audio/wordpool/ONION.wav", "conditions": [18, 1200, "a", 18000], "internal_node_id": "0.0-15.0", "trial": 0, "time_elapsed": 211294, "serialpos": 3, "key_press": -1, "wordID": 976, "type": "PRES_AUD", "trial_index": 24}, "uniqueid": "MTK2901:31UV0MXWNRJEI6OTAUUMJUGSCWRI5A", "dateTime": 1519584031911}, {"current_trial": 25, "trialdata": {"rt": -1000, "trial_type": "single-audio", "word": "record", "stimulus": "/static/audio/wordpool/RECORD.wav", "conditions": [18, 1200, "a", 18000], "internal_node_id": "0.0-16.0", "trial": 0, "time_elapsed": 213481, "serialpos": 4, "key_press": -1, "wordID": 1175, "type": "PRES_AUD", "trial_index": 25}, "uniqueid": "MTK2901:31UV0MXWNRJEI6OTAUUMJUGSCWRI5A", "dateTime": 1519584034097}, {"current_trial": 26, "trialdata": {"rt": -1000, "trial_type": "single-audio", "word": "pecan", "stimulus": "/static/audio/wordpool/PECAN.wav", "conditions": [18, 1200, "a", 18000], "internal_node_id": "0.0-17.0", "trial": 0, "time_elapsed": 215734, "serialpos": 5, "key_press": -1, "wordID": 1035, "type": "PRES_AUD", "trial_index": 26}, "uniqueid": "MTK2901:31UV0MXWNRJEI6OTAUUMJUGSCWRI5A", "dateTime": 1519584036350}, {"current_trial": 27, "trialdata": {"rt": -1000, "trial_type": "single-audio", "word": "palace", "stimulus": "/static/audio/wordpool/PALACE.wav", "conditions": [18, 1200, "a", 18000], "internal_node_id": "0.0-18.0", "trial": 0, "time_elapsed": 217976, "serialpos": 6, "key_press": -1, "wordID": 1005, "type": "PRES_AUD", "trial_index": 27}, "uniqueid": "MTK2901:31UV0MXWNRJEI6OTAUUMJUGSCWRI5A", "dateTime": 1519584038592}, {"current_trial": 28, "trialdata": {"rt": -1000, "trial_type": "single-audio", "word": "citrus", "stimulus": "/static/audio/wordpool/CITRUS.wav", "conditions": [18, 1200, "a", 18000], "internal_node_id": "0.0-19.0", "trial": 0, "time_elapsed": 220142, "serialpos": 7, "key_press": -1, "wordID": 312, "type": "PRES_AUD", "trial_index": 28}, "uniqueid": "MTK2901:31UV0MXWNRJEI6OTAUUMJUGSCWRI5A", "dateTime": 1519584040759}, {"current_trial": 29, "trialdata": {"rt": -1000, "trial_type": "single-audio", "word": "pluto", "stimulus": "/static/audio/wordpool/PLUTO.wav", "conditions": [18, 1200, "a", 18000], "internal_node_id": "0.0-20.0", "trial": 0, "time_elapsed": 222542, "serialpos": 8, "key_press": -1, "wordID": 1091, "type": "PRES_AUD", "trial_index": 29}, "uniqueid": "MTK2901:31UV0MXWNRJEI6OTAUUMJUGSCWRI5A", "dateTime": 1519584043159}, {"current_trial": 30, "trialdata": {"rt": -1000, "trial_type": "single-audio", "word": "inmate", "stimulus": "/static/audio/wordpool/INMATE.wav", "conditions": [18, 1200, "a", 18000], "internal_node_id": "0.0-21.0", "trial": 0, "time_elapsed": 224645, "serialpos": 9, "key_press": -1, "wordID": 737, "type": "PRES_AUD", "trial_index": 30}, "uniqueid": "MTK2901:31UV0MXWNRJEI6OTAUUMJUGSCWRI5A", "dateTime": 1519584045262}, {"current_trial": 31, "trialdata": {"rt": -1000, "trial_type": "single-audio", "word": "plaza", "stimulus": "/static/audio/wordpool/PLAZA.wav", "conditions": [18, 1200, "a", 18000], "internal_node_id": "0.0-22.0", "trial": 0, "time_elapsed": 226745, "serialpos": 10, "key_press": -1, "wordID": 1087, "type": "PRES_AUD", "trial_index": 31}, "uniqueid": "MTK2901:31UV0MXWNRJEI6OTAUUMJUGSCWRI5A", "dateTime": 1519584047361}, {"current_trial": 32, "trialdata": {"rt": -1000, "trial_type": "single-audio", "word": "gravel", "stimulus": "/static/audio/wordpool/GRAVEL.wav", "conditions": [18, 1200, "a", 18000], "internal_node_id": "0.0-23.0", "trial": 0, "time_elapsed": 228888, "serialpos": 11, "key_press": -1, "wordID": 658, "type": "PRES_AUD", "trial_index": 32}, "uniqueid": "MTK2901:31UV0MXWNRJEI6OTAUUMJUGSCWRI5A", "dateTime": 1519584049504}, {"current_trial": 33, "trialdata": {"rt": -1000, "trial_type": "single-audio", "word": "lizard", "stimulus": "/static/audio/wordpool/LIZARD.wav", "conditions": [18, 1200, "a", 18000], "internal_node_id": "0.0-24.0", "trial": 0, "time_elapsed": 231260, "serialpos": 12, "key_press": -1, "wordID": 833, "type": "PRES_AUD", "trial_index": 33}, "uniqueid": "MTK2901:31UV0MXWNRJEI6OTAUUMJUGSCWRI5A", "dateTime": 1519584051878}, {"current_trial": 34, "trialdata": {"rt": -1000, "trial_type": "single-audio", "word": "sidewalk", "stimulus": "/static/audio/wordpool/SIDEWALK.wav", "conditions": [18, 1200, "a", 18000], "internal_node_id": "0.0-25.0", "trial": 0, "time_elapsed": 233477, "serialpos": 13, "key_press": -1, "wordID": 1302, "type": "PRES_AUD", "trial_index": 34}, "uniqueid": "MTK2901:31UV0MXWNRJEI6OTAUUMJUGSCWRI5A", "dateTime": 1519584054095}, {"current_trial": 35, "trialdata": {"rt": -1000, "trial_type": "single-audio", "word": "tuba", "stimulus": "/static/audio/wordpool/TUBA.wav", "conditions": [18, 1200, "a", 18000], "internal_node_id": "0.0-26.0", "trial": 0, "time_elapsed": 235789, "serialpos": 14, "key_press": -1, "wordID": 1514, "type": "PRES_AUD", "trial_index": 35}, "uniqueid": "MTK2901:31UV0MXWNRJEI6OTAUUMJUGSCWRI5A", "dateTime": 1519584056405}, {"current_trial": 36, "trialdata": {"rt": -1000, "trial_type": "single-audio", "word": "garbage", "stimulus": "/static/audio/wordpool/GARBAGE.wav", "conditions": [18, 1200, "a", 18000], "internal_node_id": "0.0-27.0", "trial": 0, "time_elapsed": 238030, "serialpos": 15, "key_press": -1, "wordID": 621, "type": "PRES_AUD", "trial_index": 36}, "uniqueid": "MTK2901:31UV0MXWNRJEI6OTAUUMJUGSCWRI5A", "dateTime": 1519584058647}, {"current_trial": 37, "trialdata": {"rt": -1000, "trial_type": "single-audio", "word": "catcher", "stimulus": "/static/audio/wordpool/CATCHER.wav", "conditions": [18, 1200, "a", 18000], "internal_node_id": "0.0-28.0", "trial": 0, "time_elapsed": 240163, "serialpos": 16, "key_press": -1, "wordID": 257, "type": "PRES_AUD", "trial_index": 37}, "uniqueid": "MTK2901:31UV0MXWNRJEI6OTAUUMJUGSCWRI5A", "dateTime": 1519584060779}, {"current_trial": 38, "trialdata": {"rt": -1000, "trial_type": "single-audio", "word": "student", "stimulus": "/static/audio/wordpool/STUDENT.wav", "conditions": [18, 1200, "a", 18000], "internal_node_id": "0.0-29.0", "trial": 0, "time_elapsed": 242457, "serialpos": 17, "key_press": -1, "wordID": 1394, "type": "PRES_AUD", "trial_index": 38}, "uniqueid": "MTK2901:31UV0MXWNRJEI6OTAUUMJUGSCWRI5A", "dateTime": 1519584063074}, {"current_trial": 39, "trialdata": {"rt": -1, "trial_type": "single-stim", "stimulus": "", "internal_node_id": "0.0-30.0-0.0", "time_elapsed": 243758, "key_press": -1, "type": "PRE_RECALL_DELAY", "trial_index": 39}, "uniqueid": "MTK2901:31UV0MXWNRJEI6OTAUUMJUGSCWRI5A", "dateTime": 1519584064374}, {"current_trial": 40, "trialdata": {"rt": -1000, "trial_type": "single-audio", "stimulus": "/static/audio/400Hz.wav", "internal_node_id": "0.0-31.0", "time_elapsed": 244267, "key_press": -1, "type": "PRE_RECALL_ALERT", "trial_index": 40}, "uniqueid": "MTK2901:31UV0MXWNRJEI6OTAUUMJUGSCWRI5A", "dateTime": 1519584064884}, {"current_trial": 41, "trialdata": {"rt": [2459, 3868, 4750, 6039, 9835, 11113, 15469, 41530], "recwords": ["cashier", "whiskers", "canal", "tuba", "sidewalk", "lizard", "citrus", "pluto"], "key_times": [1748, 1857, 1972, 2119, 2200, 2266, 2350, 2459, 2643, 2886, 2955, 3119, 3297, 3417, 3500, 3643, 3868, 4072, 4143, 4262, 4419, 4536, 4750, 5588, 5699, 5781, 5919, 6039, 8840, 8972, 9063, 9201, 9351, 9427, 9484, 9571, 9835, 10353, 10433, 10537, 10683, 10812, 10985, 11113, 14088, 14239, 14669, 14823, 14987, 15123, 15469, 40797, 40989, 41106, 41237, 41333, 41530], "trial_type": "free-recall", "conditions": [18, 1200, "a", 18000], "internal_node_id": "0.0-32.0-0.0", "key_presses": [67, 65, 83, 72, 73, 69, 82, 13, 87, 72, 73, 83, 75, 69, 82, 83, 13, 67, 65, 78, 65, 76, 13, 84, 85, 66, 65, 13, 83, 73, 68, 69, 87, 65, 76, 75, 13, 76, 73, 90, 65, 82, 68, 13, 67, 73, 84, 82, 85, 83, 13, 80, 76, 85, 84, 79, 13], "trial": 0, "time_elapsed": 304303, "type": "FREE_RECALL", "trial_index": 41}, "uniqueid": "MTK2901:31UV0MXWNRJEI6OTAUUMJUGSCWRI5A", "dateTime": 1519584124948}, {"current_trial": 42, "trialdata": {"rt": 2280, "trial_type": "text", "internal_node_id": "0.0-33.0", "time_elapsed": 308616, "key_press": 13, "type": "INSTRUCTIONS", "trial_index": 42}, "uniqueid": "MTK2901:31UV0MXWNRJEI6OTAUUMJUGSCWRI5A", "dateTime": 1519584129232}, {"current_trial": 43, "trialdata": {"rt": [2377, 4333, 5704, 7424, 9419, 12316, 13720, 16612], "trial_type": "math-distractor", "key_times": [2059, 2225, 2377, 4082, 4233, 4333, 5567, 5704, 7171, 7257, 7424, 9249, 9302, 9419, 12039, 12141, 12316, 13514, 13554, 13720, 16357, 16449, 16612], "responses": ["12", "14", "9", "20", "12", "10", "10", "21"], "num2": [3, 8, 1, 8, 8, 1, 3, 8, 3], "num3": [4, 1, 4, 8, 1, 2, 2, 7, 9], "conditions": [18, 1200, "a", 18000], "internal_node_id": "0.0-34.0", "key_presses": [49, 50, 13, 49, 52, 13, 57, 13, 50, 48, 13, 49, 50, 13, 49, 48, 13, 49, 48, 13, 50, 49, 13], "trial": 1, "time_elapsed": 328642, "type": "DISTRACTOR", "trial_index": 43, "num1": [5, 5, 4, 4, 3, 7, 5, 6, 6]}, "uniqueid": "MTK2901:31UV0MXWNRJEI6OTAUUMJUGSCWRI5A", "dateTime": 1519584149259}, {"current_trial": 44, "trialdata": {"rt": -1, "trial_type": "single-stim", "stimulus": "<p id=\"stim\">10</p>", "internal_node_id": "0.0-35.0-0.0", "time_elapsed": 331665, "key_press": -1, "trial_index": 44}, "uniqueid": "MTK2901:31UV0MXWNRJEI6OTAUUMJUGSCWRI5A", "dateTime": 1519584152281}, {"current_trial": 45, "trialdata": {"rt": -1, "trial_type": "single-stim", "stimulus": "<p id=\"stim\">9</p>", "internal_node_id": "0.0-35.0-1.0", "time_elapsed": 332677, "key_press": -1, "trial_index": 45}, "uniqueid": "MTK2901:31UV0MXWNRJEI6OTAUUMJUGSCWRI5A", "dateTime": 1519584153294}, {"current_trial": 46, "trialdata": {"rt": -1, "trial_type": "single-stim", "stimulus": "<p id=\"stim\">8</p>", "internal_node_id": "0.0-35.0-2.0", "time_elapsed": 333692, "key_press": -1, "trial_index": 46}, "uniqueid": "MTK2901:31UV0MXWNRJEI6OTAUUMJUGSCWRI5A", "dateTime": 1519584154308}, {"current_trial": 47, "trialdata": {"rt": -1, "trial_type": "single-stim", "stimulus": "<p id=\"stim\">7</p>", "internal_node_id": "0.0-35.0-3.0", "time_elapsed": 334700, "key_press": -1, "trial_index": 47}, "uniqueid": "MTK2901:31UV0MXWNRJEI6OTAUUMJUGSCWRI5A", "dateTime": 1519584155317}, {"current_trial": 48, "trialdata": {"rt": -1, "trial_type": "single-stim", "stimulus": "<p id=\"stim\">6</p>", "internal_node_id": "0.0-35.0-4.0", "time_elapsed": 335716, "key_press": -1, "trial_index": 48}, "uniqueid": "MTK2901:31UV0MXWNRJEI6OTAUUMJUGSCWRI5A", "dateTime": 1519584156333}, {"current_trial": 49, "trialdata": {"rt": -1, "trial_type": "single-stim", "stimulus": "<p id=\"stim\">5</p>", "internal_node_id": "0.0-35.0-5.0", "time_elapsed": 336720, "key_press": -1, "trial_index": 49}, "uniqueid": "MTK2901:31UV0MXWNRJEI6OTAUUMJUGSCWRI5A", "dateTime": 1519584157337}, {"current_trial": 50, "trialdata": {"rt": -1, "trial_type": "single-stim", "stimulus": "<p id=\"stim\">4</p>", "internal_node_id": "0.0-35.0-6.0", "time_elapsed": 337727, "key_press": -1, "trial_index": 50}, "uniqueid": "MTK2901:31UV0MXWNRJEI6OTAUUMJUGSCWRI5A", "dateTime": 1519584158343}, {"current_trial": 51, "trialdata": {"rt": -1, "trial_type": "single-stim", "stimulus": "<p id=\"stim\">3</p>", "internal_node_id": "0.0-35.0-7.0", "time_elapsed": 338733, "key_press": -1, "trial_index": 51}, "uniqueid": "MTK2901:31UV0MXWNRJEI6OTAUUMJUGSCWRI5A", "dateTime": 1519584159350}, {"current_trial": 52, "trialdata": {"rt": -1, "trial_type": "single-stim", "stimulus": "<p id=\"stim\">2</p>", "internal_node_id": "0.0-35.0-8.0", "time_elapsed": 339742, "key_press": -1, "trial_index": 52}, "uniqueid": "MTK2901:31UV0MXWNRJEI6OTAUUMJUGSCWRI5A", "dateTime": 1519584160358}, {"current_trial": 53, "trialdata": {"rt": -1, "trial_type": "single-stim", "stimulus": "<p id=\"stim\">1</p>", "internal_node_id": "0.0-35.0-9.0", "time_elapsed": 340757, "key_press": -1, "trial_index": 53}, "uniqueid": "MTK2901:31UV0MXWNRJEI6OTAUUMJUGSCWRI5A", "dateTime": 1519584161374}, {"current_trial": 54, "trialdata": {"rt": -1, "trial_type": "single-stim", "stimulus": "<p id=\"stim\">+</p>", "internal_node_id": "0.0-36.0-0.0", "time_elapsed": 342263, "key_press": -1, "type": "FIXATION", "trial_index": 54}, "uniqueid": "MTK2901:31UV0MXWNRJEI6OTAUUMJUGSCWRI5A", "dateTime": 1519584162880}, {"current_trial": 55, "trialdata": {"rt": -1000, "trial_type": "single-audio", "word": "flesh", "stimulus": "/static/audio/wordpool/FLESH.wav", "conditions": [18, 1200, "a", 18000], "internal_node_id": "0.0-37.0", "trial": 1, "time_elapsed": 344531, "serialpos": 0, "key_press": -1, "wordID": 578, "type": "PRES_AUD", "trial_index": 55}, "uniqueid": "MTK2901:31UV0MXWNRJEI6OTAUUMJUGSCWRI5A", "dateTime": 1519584165147}, {"current_trial": 56, "trialdata": {"rt": -1000, "trial_type": "single-audio", "word": "plaid", "stimulus": "/static/audio/wordpool/PLAID.wav", "conditions": [18, 1200, "a", 18000], "internal_node_id": "0.0-38.0", "trial": 1, "time_elapsed": 346643, "serialpos": 1, "key_press": -1, "wordID": 1079, "type": "PRES_AUD", "trial_index": 56}, "uniqueid": "MTK2901:31UV0MXWNRJEI6OTAUUMJUGSCWRI5A", "dateTime": 1519584167259}, {"current_trial": 57, "trialdata": {"rt": -1000, "trial_type": "single-audio", "word": "office", "stimulus": "/static/audio/wordpool/OFFICE.wav", "conditions": [18, 1200, "a", 18000], "internal_node_id": "0.0-39.0", "trial": 1, "time_elapsed": 349030, "serialpos": 2, "key_press": -1, "wordID": 971, "type": "PRES_AUD", "trial_index": 57}, "uniqueid": "MTK2901:31UV0MXWNRJEI6OTAUUMJUGSCWRI5A", "dateTime": 1519584169647}, {"current_trial": 58, "trialdata": {"rt": -1000, "trial_type": "single-audio", "word": "bullet", "stimulus": "/static/audio/wordpool/BULLET.wav", "conditions": [18, 1200, "a", 18000], "internal_node_id": "0.0-40.0", "trial": 1, "time_elapsed": 351236, "serialpos": 3, "key_press": -1, "wordID": 193, "type": "PRES_AUD", "trial_index": 58}, "uniqueid": "MTK2901:31UV0MXWNRJEI6OTAUUMJUGSCWRI5A", "dateTime": 1519584171852}, {"current_trial": 59, "trialdata": {"rt": -1000, "trial_type": "single-audio", "word": "tart", "stimulus": "/static/audio/wordpool/TART.wav", "conditions": [18, 1200, "a", 18000], "internal_node_id": "0.0-41.0", "trial": 1, "time_elapsed": 353301, "serialpos": 4, "key_press": -1, "wordID": 1435, "type": "PRES_AUD", "trial_index": 59}, "uniqueid": "MTK2901:31UV0MXWNRJEI6OTAUUMJUGSCWRI5A", "dateTime": 1519584173917}, {"current_trial": 60, "trialdata": {"rt": -1000, "trial_type": "single-audio", "word": "queen", "stimulus": "/static/audio/wordpool/QUEEN.wav", "conditions": [18, 1200, "a", 18000], "internal_node_id": "0.0-42.0", "trial": 1, "time_elapsed": 355596, "serialpos": 5, "key_press": -1, "wordID": 1148, "type": "PRES_AUD", "trial_index": 60}, "uniqueid": "MTK2901:31UV0MXWNRJEI6OTAUUMJUGSCWRI5A", "dateTime": 1519584176212}, {"current_trial": 61, "trialdata": {"rt": -1000, "trial_type": "single-audio", "word": "marsh", "stimulus": "/static/audio/wordpool/MARSH.wav", "conditions": [18, 1200, "a", 18000], "internal_node_id": "0.0-43.0", "trial": 1, "time_elapsed": 357926, "serialpos": 6, "key_press": -1, "wordID": 873, "type": "PRES_AUD", "trial_index": 61}, "uniqueid": "MTK2901:31UV0MXWNRJEI6OTAUUMJUGSCWRI5A", "dateTime": 1519584178543}, {"current_trial": 62, "trialdata": {"rt": -1000, "trial_type": "single-audio", "word": "crib", "stimulus": "/static/audio/wordpool/CRIB.wav", "conditions": [18, 1200, "a", 18000], "internal_node_id": "0.0-44.0", "trial": 1, "time_elapsed": 360195, "serialpos": 7, "key_press": -1, "wordID": 406, "type": "PRES_AUD", "trial_index": 62}, "uniqueid": "MTK2901:31UV0MXWNRJEI6OTAUUMJUGSCWRI5A", "dateTime": 1519584180812}, {"current_trial": 63, "trialdata": {"rt": -1000, "trial_type": "single-audio", "word": "beast", "stimulus": "/static/audio/wordpool/BEAST.wav", "conditions": [18, 1200, "a", 18000], "internal_node_id": "0.0-45.0", "trial": 1, "time_elapsed": 362288, "serialpos": 8, "key_press": -1, "wordID": 107, "type": "PRES_AUD", "trial_index": 63}, "uniqueid": "MTK2901:31UV0MXWNRJEI6OTAUUMJUGSCWRI5A", "dateTime": 1519584182905}, {"current_trial": 64, "trialdata": {"rt": -1000, "trial_type": "single-audio", "word": "honey", "stimulus": "/static/audio/wordpool/HONEY.wav", "conditions": [18, 1200, "a", 18000], "internal_node_id": "0.0-46.0", "trial": 1, "time_elapsed": 364543, "serialpos": 9, "key_press": -1, "wordID": 712, "type": "PRES_AUD", "trial_index": 64}, "uniqueid": "MTK2901:31UV0MXWNRJEI6OTAUUMJUGSCWRI5A", "dateTime": 1519584185159}, {"current_trial": 65, "trialdata": {"rt": -1000, "trial_type": "single-audio", "word": "tweezers", "stimulus": "/static/audio/wordpool/TWEEZERS.wav", "conditions": [18, 1200, "a", 18000], "internal_node_id": "0.0-47.0", "trial": 1, "time_elapsed": 366685, "serialpos": 10, "key_press": -1, "wordID": 1525, "type": "PRES_AUD", "trial_index": 65}, "uniqueid": "MTK2901:31UV0MXWNRJEI6OTAUUMJUGSCWRI5A", "dateTime": 1519584187301}, {"current_trial": 66, "trialdata": {"rt": -1000, "trial_type": "single-audio", "word": "freezer", "stimulus": "/static/audio/wordpool/FREEZER.wav", "conditions": [18, 1200, "a", 18000], "internal_node_id": "0.0-48.0", "trial": 1, "time_elapsed": 369024, "serialpos": 11, "key_press": -1, "wordID": 603, "type": "PRES_AUD", "trial_index": 66}, "uniqueid": "MTK2901:31UV0MXWNRJEI6OTAUUMJUGSCWRI5A", "dateTime": 1519584189641}, {"current_trial": 67, "trialdata": {"rt": -1000, "trial_type": "single-audio", "word": "belly", "stimulus": "/static/audio/wordpool/BELLY.wav", "conditions": [18, 1200, "a", 18000], "internal_node_id": "0.0-49.0", "trial": 1, "time_elapsed": 371327, "serialpos": 12, "key_press": -1, "wordID": 118, "type": "PRES_AUD", "trial_index": 67}, "uniqueid": "MTK2901:31UV0MXWNRJEI6OTAUUMJUGSCWRI5A", "dateTime": 1519584191943}, {"current_trial": 68, "trialdata": {"rt": -1000, "trial_type": "single-audio", "word": "forehead", "stimulus": "/static/audio/wordpool/FOREHEAD.wav", "conditions": [18, 1200, "a", 18000], "internal_node_id": "0.0-50.0", "trial": 1, "time_elapsed": 373597, "serialpos": 13, "key_press": -1, "wordID": 591, "type": "PRES_AUD", "trial_index": 68}, "uniqueid": "MTK2901:31UV0MXWNRJEI6OTAUUMJUGSCWRI5A", "dateTime": 1519584194214}, {"current_trial": 69, "trialdata": {"rt": -1000, "trial_type": "single-audio", "word": "vagrant", "stimulus": "/static/audio/wordpool/VAGRANT.wav", "conditions": [18, 1200, "a", 18000], "internal_node_id": "0.0-51.0", "trial": 1, "time_elapsed": 375885, "serialpos": 14, "key_press": -1, "wordID": 1543, "type": "PRES_AUD", "trial_index": 69}, "uniqueid": "MTK2901:31UV0MXWNRJEI6OTAUUMJUGSCWRI5A", "dateTime": 1519584196501}, {"current_trial": 70, "trialdata": {"rt": -1000, "trial_type": "single-audio", "word": "panther", "stimulus": "/static/audio/wordpool/PANTHER.wav", "conditions": [18, 1200, "a", 18000], "internal_node_id": "0.0-52.0", "trial": 1, "time_elapsed": 378096, "serialpos": 15, "key_press": -1, "wordID": 1008, "type": "PRES_AUD", "trial_index": 70}, "uniqueid": "MTK2901:31UV0MXWNRJEI6OTAUUMJUGSCWRI5A", "dateTime": 1519584198712}, {"current_trial": 71, "trialdata": {"rt": -1000, "trial_type": "single-audio", "word": "brook", "stimulus": "/static/audio/wordpool/BROOK.wav", "conditions": [18, 1200, "a", 18000], "internal_node_id": "0.0-53.0", "trial": 1, "time_elapsed": 380266, "serialpos": 16, "key_press": -1, "wordID": 176, "type": "PRES_AUD", "trial_index": 71}, "uniqueid": "MTK2901:31UV0MXWNRJEI6OTAUUMJUGSCWRI5A", "dateTime": 1519584200882}, {"current_trial": 72, "trialdata": {"rt": -1000, "trial_type": "single-audio", "word": "lagoon", "stimulus": "/static/audio/wordpool/LAGOON.wav", "conditions": [18, 1200, "a", 18000], "internal_node_id": "0.0-54.0", "trial": 1, "time_elapsed": 382583, "serialpos": 17, "key_press": -1, "wordID": 794, "type": "PRES_AUD", "trial_index": 72}, "uniqueid": "MTK2901:31UV0MXWNRJEI6OTAUUMJUGSCWRI5A", "dateTime": 1519584203201}, {"current_trial": 73, "trialdata": {"rt": -1, "trial_type": "single-stim", "stimulus": "", "internal_node_id": "0.0-55.0-0.0", "time_elapsed": 383905, "key_press": -1, "type": "PRE_RECALL_DELAY", "trial_index": 73}, "uniqueid": "MTK2901:31UV0MXWNRJEI6OTAUUMJUGSCWRI5A", "dateTime": 1519584204522}, {"current_trial": 74, "trialdata": {"rt": -1000, "trial_type": "single-audio", "stimulus": "/static/audio/400Hz.wav", "internal_node_id": "0.0-56.0", "time_elapsed": 384417, "key_press": -1, "type": "PRE_RECALL_ALERT", "trial_index": 74}, "uniqueid": "MTK2901:31UV0MXWNRJEI6OTAUUMJUGSCWRI5A", "dateTime": 1519584205034}, {"current_trial": 75, "trialdata": {"rt": [1395, 2756, 5314, 7188, 8747, 16843, 28344, 53347], "recwords": ["queen", "crib", "lagoon", "tweezers", "marsh", "office", "marsh", "rook"], "key_times": [724, 853, 984, 1117, 1223, 1395, 2253, 2420, 2520, 2644, 2756, 4512, 4583, 4730, 4878, 5006, 5113, 5314, 5733, 6209, 6401, 6528, 6699, 6836, 6902, 7031, 7188, 8162, 8282, 8334, 8487, 8562, 8747, 16184, 16317, 16447, 16516, 16638, 16718, 16843, 27801, 27887, 27995, 28096, 28180, 28344, 52851, 52961, 53073, 53145, 53347], "trial_type": "free-recall", "conditions": [18, 1200, "a", 18000], "internal_node_id": "0.0-57.0-0.0", "key_presses": [81, 85, 69, 69, 78, 13, 67, 82, 73, 66, 13, 76, 65, 71, 79, 79, 78, 13, 84, 87, 69, 69, 90, 69, 82, 83, 13, 77, 65, 82, 83, 72, 13, 79, 70, 70, 73, 67, 69, 13, 77, 65, 82, 83, 72, 13, 82, 79, 79, 75, 13], "trial": 1, "time_elapsed": 444443, "type": "FREE_RECALL", "trial_index": 75}, "uniqueid": "MTK2901:31UV0MXWNRJEI6OTAUUMJUGSCWRI5A", "dateTime": 1519584265074}, {"current_trial": 76, "trialdata": {"rt": 3563, "trial_type": "text", "internal_node_id": "0.0-58.0", "time_elapsed": 450030, "key_press": 13, "type": "INSTRUCTIONS", "trial_index": 76}, "uniqueid": "MTK2901:31UV0MXWNRJEI6OTAUUMJUGSCWRI5A", "dateTime": 1519584270647}, {"current_trial": 77, "trialdata": {"rt": [3414, 5599, 7177, 9206, 11197], "trial_type": "math-distractor", "key_times": [3208, 3302, 3414, 5363, 5468, 5599, 6730, 6998, 7177, 8770, 9015, 9206, 11011, 11197], "responses": ["21", "13", "17", "17", "7"], "num2": [7, 6, 9, 5, 2, 4], "num3": [6, 3, 7, 8, 4, 4], "conditions": [12, 800, "a", 12000], "internal_node_id": "0.0-59.0", "key_presses": [50, 49, 13, 49, 51, 13, 49, 55, 13, 49, 55, 13, 55, 13], "trial": 2, "time_elapsed": 463074, "type": "DISTRACTOR", "trial_index": 77, "num1": [8, 4, 1, 4, 1, 6]}, "uniqueid": "MTK2901:31UV0MXWNRJEI6OTAUUMJUGSCWRI5A", "dateTime": 1519584283691}, {"current_trial": 78, "trialdata": {"rt": -1, "trial_type": "single-stim", "stimulus": "<p id=\"stim\">10</p>", "internal_node_id": "0.0-60.0-0.0", "time_elapsed": 466087, "key_press": -1, "trial_index": 78}, "uniqueid": "MTK2901:31UV0MXWNRJEI6OTAUUMJUGSCWRI5A", "dateTime": 1519584286705}, {"current_trial": 79, "trialdata": {"rt": -1, "trial_type": "single-stim", "stimulus": "<p id=\"stim\">9</p>", "internal_node_id": "0.0-60.0-1.0", "time_elapsed": 467093, "key_press": -1, "trial_index": 79}, "uniqueid": "MTK2901:31UV0MXWNRJEI6OTAUUMJUGSCWRI5A", "dateTime": 1519584287710}, {"current_trial": 80, "trialdata": {"rt": -1, "trial_type": "single-stim", "stimulus": "<p id=\"stim\">8</p>", "internal_node_id": "0.0-60.0-2.0", "time_elapsed": 468099, "key_press": -1, "trial_index": 80}, "uniqueid": "MTK2901:31UV0MXWNRJEI6OTAUUMJUGSCWRI5A", "dateTime": 1519584288716}, {"current_trial": 81, "trialdata": {"rt": -1, "trial_type": "single-stim", "stimulus": "<p id=\"stim\">7</p>", "internal_node_id": "0.0-60.0-3.0", "time_elapsed": 469105, "key_press": -1, "trial_index": 81}, "uniqueid": "MTK2901:31UV0MXWNRJEI6OTAUUMJUGSCWRI5A", "dateTime": 1519584289722}, {"current_trial": 82, "trialdata": {"rt": -1, "trial_type": "single-stim", "stimulus": "<p id=\"stim\">6</p>", "internal_node_id": "0.0-60.0-4.0", "time_elapsed": 470109, "key_press": -1, "trial_index": 82}, "uniqueid": "MTK2901:31UV0MXWNRJEI6OTAUUMJUGSCWRI5A", "dateTime": 1519584290726}, {"current_trial": 83, "trialdata": {"rt": -1, "trial_type": "single-stim", "stimulus": "<p id=\"stim\">5</p>", "internal_node_id": "0.0-60.0-5.0", "time_elapsed": 471117, "key_press": -1, "trial_index": 83}, "uniqueid": "MTK2901:31UV0MXWNRJEI6OTAUUMJUGSCWRI5A", "dateTime": 1519584291733}, {"current_trial": 84, "trialdata": {"rt": -1, "trial_type": "single-stim", "stimulus": "<p id=\"stim\">4</p>", "internal_node_id": "0.0-60.0-6.0", "time_elapsed": 472131, "key_press": -1, "trial_index": 84}, "uniqueid": "MTK2901:31UV0MXWNRJEI6OTAUUMJUGSCWRI5A", "dateTime": 1519584292748}, {"current_trial": 85, "trialdata": {"rt": -1, "trial_type": "single-stim", "stimulus": "<p id=\"stim\">3</p>", "internal_node_id": "0.0-60.0-7.0", "time_elapsed": 473143, "key_press": -1, "trial_index": 85}, "uniqueid": "MTK2901:31UV0MXWNRJEI6OTAUUMJUGSCWRI5A", "dateTime": 1519584293760}, {"current_trial": 86, "trialdata": {"rt": -1, "trial_type": "single-stim", "stimulus": "<p id=\"stim\">2</p>", "internal_node_id": "0.0-60.0-8.0", "time_elapsed": 474148, "key_press": -1, "trial_index": 86}, "uniqueid": "MTK2901:31UV0MXWNRJEI6OTAUUMJUGSCWRI5A", "dateTime": 1519584294765}, {"current_trial": 87, "trialdata": {"rt": -1, "trial_type": "single-stim", "stimulus": "<p id=\"stim\">1</p>", "internal_node_id": "0.0-60.0-9.0", "time_elapsed": 475153, "key_press": -1, "trial_index": 87}, "uniqueid": "MTK2901:31UV0MXWNRJEI6OTAUUMJUGSCWRI5A", "dateTime": 1519584295770}, {"current_trial": 88, "trialdata": {"rt": -1, "trial_type": "single-stim", "stimulus": "<p id=\"stim\">+</p>", "internal_node_id": "0.0-61.0-0.0", "time_elapsed": 476662, "key_press": -1, "type": "FIXATION", "trial_index": 88}, "uniqueid": "MTK2901:31UV0MXWNRJEI6OTAUUMJUGSCWRI5A", "dateTime": 1519584297278}, {"current_trial": 89, "trialdata": {"rt": -1000, "trial_type": "single-audio", "word": "climber", "stimulus": "/static/audio/wordpool/CLIMBER.wav", "conditions": [12, 800, "a", 12000], "internal_node_id": "0.0-62.0", "trial": 2, "time_elapsed": 478282, "serialpos": 0, "key_press": -1, "wordID": 322, "type": "PRES_AUD", "trial_index": 89}, "uniqueid": "MTK2901:31UV0MXWNRJEI6OTAUUMJUGSCWRI5A", "dateTime": 1519584298898}, {"current_trial": 90, "trialdata": {"rt": -1000, "trial_type": "single-audio", "word": "apron", "stimulus": "/static/audio/wordpool/APRON.wav", "conditions": [12, 800, "a", 12000], "internal_node_id": "0.0-63.0", "trial": 2, "time_elapsed": 480123, "serialpos": 1, "key_press": -1, "wordID": 34, "type": "PRES_AUD", "trial_index": 90}, "uniqueid": "MTK2901:31UV0MXWNRJEI6OTAUUMJUGSCWRI5A", "dateTime": 1519584300740}, {"current_trial": 91, "trialdata": {"rt": -1000, "trial_type": "single-audio", "word": "pocket", "stimulus": "/static/audio/wordpool/POCKET.wav", "conditions": [12, 800, "a", 12000], "internal_node_id": "0.0-64.0", "trial": 2, "time_elapsed": 481810, "serialpos": 2, "key_press": -1, "wordID": 1092, "type": "PRES_AUD", "trial_index": 91}, "uniqueid": "MTK2901:31UV0MXWNRJEI6OTAUUMJUGSCWRI5A", "dateTime": 1519584302427}, {"current_trial": 92, "trialdata": {"rt": -1000, "trial_type": "single-audio", "word": "briefcase", "stimulus": "/static/audio/wordpool/BRIEFCASE.wav", "conditions": [12, 800, "a", 12000], "internal_node_id": "0.0-65.0", "trial": 2, "time_elapsed": 483575, "serialpos": 3, "key_press": -1, "wordID": 174, "type": "PRES_AUD", "trial_index": 92}, "uniqueid": "MTK2901:31UV0MXWNRJEI6OTAUUMJUGSCWRI5A", "dateTime": 1519584304192}, {"current_trial": 93, "trialdata": {"rt": -1000, "trial_type": "single-audio", "word": "backbone", "stimulus": "/static/audio/wordpool/BACKBONE.wav", "conditions": [12, 800, "a", 12000], "internal_node_id": "0.0-66.0", "trial": 2, "time_elapsed": 485386, "serialpos": 4, "key_press": -1, "wordID": 65, "type": "PRES_AUD", "trial_index": 93}, "uniqueid": "MTK2901:31UV0MXWNRJEI6OTAUUMJUGSCWRI5A", "dateTime": 1519584306003}, {"current_trial": 94, "trialdata": {"rt": -1000, "trial_type": "single-audio", "word": "convict", "stimulus": "/static/audio/wordpool/CONVICT.wav", "conditions": [12, 800, "a", 12000], "internal_node_id": "0.0-67.0", "trial": 2, "time_elapsed": 487374, "serialpos": 5, "key_press": -1, "wordID": 370, "type": "PRES_AUD", "trial_index": 94}, "uniqueid": "MTK2901:31UV0MXWNRJEI6OTAUUMJUGSCWRI5A", "dateTime": 1519584307991}, {"current_trial": 95, "trialdata": {"rt": -1000, "trial_type": "single-audio", "word": "bug", "stimulus": "/static/audio/wordpool/BUG.wav", "conditions": [12, 800, "a", 12000], "internal_node_id": "0.0-68.0", "trial": 2, "time_elapsed": 489149, "serialpos": 6, "key_press": -1, "wordID": 186, "type": "PRES_AUD", "trial_index": 95}, "uniqueid": "MTK2901:31UV0MXWNRJEI6OTAUUMJUGSCWRI5A", "dateTime": 1519584309765}, {"current_trial": 96, "trialdata": {"rt": -1000, "trial_type": "single-audio", "word": "thread", "stimulus": "/static/audio/wordpool/THREAD.wav", "conditions": [12, 800, "a", 12000], "internal_node_id": "0.0-69.0", "trial": 2, "time_elapsed": 490947, "serialpos": 7, "key_press": -1, "wordID": 1459, "type": "PRES_AUD", "trial_index": 96}, "uniqueid": "MTK2901:31UV0MXWNRJEI6OTAUUMJUGSCWRI5A", "dateTime": 1519584311564}, {"current_trial": 97, "trialdata": {"rt": -1000, "trial_type": "single-audio", "word": "camel", "stimulus": "/static/audio/wordpool/CAMEL.wav", "conditions": [12, 800, "a", 12000], "internal_node_id": "0.0-70.0", "trial": 2, "time_elapsed": 492685, "serialpos": 8, "key_press": -1, "wordID": 222, "type": "PRES_AUD", "trial_index": 97}, "uniqueid": "MTK2901:31UV0MXWNRJEI6OTAUUMJUGSCWRI5A", "dateTime": 1519584313302}, {"current_trial": 98, "trialdata": {"rt": -1000, "trial_type": "single-audio", "word": "clock", "stimulus": "/static/audio/wordpool/CLOCK.wav", "conditions": [12, 800, "a", 12000], "internal_node_id": "0.0-71.0", "trial": 2, "time_elapsed": 494571, "serialpos": 9, "key_press": -1, "wordID": 324, "type": "PRES_AUD", "trial_index": 98}, "uniqueid": "MTK2901:31UV0MXWNRJEI6OTAUUMJUGSCWRI5A", "dateTime": 1519584315188}, {"current_trial": 99, "trialdata": {"rt": -1000, "trial_type": "single-audio", "word": "hiker", "stimulus": "/static/audio/wordpool/HIKER.wav", "conditions": [12, 800, "a", 12000], "internal_node_id": "0.0-72.0", "trial": 2, "time_elapsed": 496562, "serialpos": 10, "key_press": -1, "wordID": 707, "type": "PRES_AUD", "trial_index": 99}, "uniqueid": "MTK2901:31UV0MXWNRJEI6OTAUUMJUGSCWRI5A", "dateTime": 1519584317178}, {"current_trial": 100, "trialdata": {"rt": -1000, "trial_type": "single-audio", "word": "actor", "stimulus": "/static/audio/wordpool/ACTOR.wav", "conditions": [12, 800, "a", 12000], "internal_node_id": "0.0-73.0", "trial": 2, "time_elapsed": 498436, "serialpos": 11, "key_press": -1, "wordID": 4, "type": "PRES_AUD", "trial_index": 100}, "uniqueid": "MTK2901:31UV0MXWNRJEI6OTAUUMJUGSCWRI5A", "dateTime": 1519584319052}, {"current_trial": 101, "trialdata": {"rt": -1, "trial_type": "single-stim", "stimulus": "", "internal_node_id": "0.0-74.0-0.0", "time_elapsed": 499684, "key_press": -1, "type": "PRE_RECALL_DELAY", "trial_index": 101}, "uniqueid": "MTK2901:31UV0MXWNRJEI6OTAUUMJUGSCWRI5A", "dateTime": 1519584320301}, {"current_trial": 102, "trialdata": {"rt": -1000, "trial_type": "single-audio", "stimulus": "/static/audio/400Hz.wav", "internal_node_id": "0.0-75.0", "time_elapsed": 500198, "key_press": -1, "type": "PRE_RECALL_ALERT", "trial_index": 102}, "uniqueid": "MTK2901:31UV0MXWNRJEI6OTAUUMJUGSCWRI5A", "dateTime": 1519584320815}, {"current_trial": 103, "trialdata": {"rt": [2956, 4414, 7209, 9146, 13459, 15545, 19067, 21301, 32753], "recwords": ["actor", "thread", "convict", "apron", "pocket", "climber", "hiker", "bug", "pocket"], "key_times": [2203, 2333, 2546, 2665, 2752, 2956, 3687, 3789, 3888, 3977, 4100, 4241, 4414, 5948, 6030, 6103, 6222, 6340, 6438, 6883, 7209, 8530, 8640, 8726, 8852, 8937, 9146, 12307, 12456, 12659, 12788, 13191, 13330, 13459, 13734, 14260, 14456, 14565, 14648, 14751, 14888, 15196, 15322, 15545, 18423, 18493, 18635, 18800, 18891, 19067, 20970, 21080, 21162, 21301, 32147, 32251, 32387, 32515, 32567, 32657, 32753], "trial_type": "free-recall", "conditions": [12, 800, "a", 12000], "internal_node_id": "0.0-76.0-0.0", "key_presses": [65, 67, 84, 79, 82, 13, 84, 72, 82, 69, 65, 68, 13, 67, 79, 78, 86, 73, 67, 84, 13, 65, 80, 82, 79, 78, 13, 80, 79, 67, 75, 69, 84, 13, 66, 8, 67, 76, 73, 77, 66, 69, 82, 13, 72, 73, 75, 69, 82, 13, 66, 85, 71, 13, 80, 79, 67, 75, 69, 84, 13], "trial": 2, "time_elapsed": 560227, "type": "FREE_RECALL", "trial_index": 103}, "uniqueid": "MTK2901:31UV0MXWNRJEI6OTAUUMJUGSCWRI5A", "dateTime": 1519584380862}, {"current_trial": 104, "trialdata": {"rt": 2721, "trial_type": "text", "internal_node_id": "0.0-77.0", "time_elapsed": 564979, "key_press": 13, "type": "INSTRUCTIONS", "trial_index": 104}, "uniqueid": "MTK2901:31UV0MXWNRJEI6OTAUUMJUGSCWRI5A", "dateTime": 1519584385595}, {"current_trial": 105, "trialdata": {"rt": [2321, 4350, 6209, 8732, 9773, 11402, 13335, 14996, 17368, 18793, 21089], "trial_type": "math-distractor", "key_times": [1841, 2183, 2321, 4078, 4206, 4350, 5859, 6031, 6209, 6218, 7092, 8559, 8732, 9636, 9773, 11088, 11253, 11402, 13057, 13126, 13335, 14811, 14996, 17063, 17198, 17368, 18600, 18662, 18793, 20114, 20296, 20663, 20966, 21089, 23782, 23868], "responses": ["17", "11", "17", "8", "3", "14", "19", "7", "17", "12", "15"], "num2": [8, 3, 4, 3, 1, 3, 8, 3, 6, 1, 5, 7], "num3": [2, 3, 4, 4, 1, 5, 8, 3, 7, 4, 6, 8], "conditions": [12, 1600, "a", 24000], "internal_node_id": "0.0-78.0", "key_presses": [49, 55, 13, 49, 49, 13, 49, 55, 13, 220, 8, 56, 13, 51, 13, 49, 52, 13, 49, 57, 13, 55, 13, 49, 55, 13, 49, 50, 13, 49, 54, 8, 53, 13, 50, 48], "trial": 3, "time_elapsed": 591013, "type": "DISTRACTOR", "trial_index": 105, "num1": [7, 5, 9, 1, 1, 6, 3, 1, 6, 7, 3, 5]}, "uniqueid": "MTK2901:31UV0MXWNRJEI6OTAUUMJUGSCWRI5A", "dateTime": 1519584411630}, {"current_trial": 106, "trialdata": {"rt": -1, "trial_type": "single-stim", "stimulus": "<p id=\"stim\">10</p>", "internal_node_id": "0.0-79.0-0.0", "time_elapsed": 594031, "key_press": -1, "trial_index": 106}, "uniqueid": "MTK2901:31UV0MXWNRJEI6OTAUUMJUGSCWRI5A", "dateTime": 1519584414648}, {"current_trial": 107, "trialdata": {"rt": -1, "trial_type": "single-stim", "stimulus": "<p id=\"stim\">9</p>", "internal_node_id": "0.0-79.0-1.0", "time_elapsed": 595037, "key_press": -1, "trial_index": 107}, "uniqueid": "MTK2901:31UV0MXWNRJEI6OTAUUMJUGSCWRI5A", "dateTime": 1519584415654}, {"current_trial": 108, "trialdata": {"rt": -1, "trial_type": "single-stim", "stimulus": "<p id=\"stim\">8</p>", "internal_node_id": "0.0-79.0-2.0", "time_elapsed": 596051, "key_press": -1, "trial_index": 108}, "uniqueid": "MTK2901:31UV0MXWNRJEI6OTAUUMJUGSCWRI5A", "dateTime": 1519584416668}, {"current_trial": 109, "trialdata": {"rt": -1, "trial_type": "single-stim", "stimulus": "<p id=\"stim\">7</p>", "internal_node_id": "0.0-79.0-3.0", "time_elapsed": 597061, "key_press": -1, "trial_index": 109}, "uniqueid": "MTK2901:31UV0MXWNRJEI6OTAUUMJUGSCWRI5A", "dateTime": 1519584417677}, {"current_trial": 110, "trialdata": {"rt": -1, "trial_type": "single-stim", "stimulus": "<p id=\"stim\">6</p>", "internal_node_id": "0.0-79.0-4.0", "time_elapsed": 598064, "key_press": -1, "trial_index": 110}, "uniqueid": "MTK2901:31UV0MXWNRJEI6OTAUUMJUGSCWRI5A", "dateTime": 1519584418681}, {"current_trial": 111, "trialdata": {"rt": -1, "trial_type": "single-stim", "stimulus": "<p id=\"stim\">5</p>", "internal_node_id": "0.0-79.0-5.0", "time_elapsed": 599072, "key_press": -1, "trial_index": 111}, "uniqueid": "MTK2901:31UV0MXWNRJEI6OTAUUMJUGSCWRI5A", "dateTime": 1519584419689}, {"current_trial": 112, "trialdata": {"rt": -1, "trial_type": "single-stim", "stimulus": "<p id=\"stim\">4</p>", "internal_node_id": "0.0-79.0-6.0", "time_elapsed": 600080, "key_press": -1, "trial_index": 112}, "uniqueid": "MTK2901:31UV0MXWNRJEI6OTAUUMJUGSCWRI5A", "dateTime": 1519584420697}, {"current_trial": 113, "trialdata": {"rt": -1, "trial_type": "single-stim", "stimulus": "<p id=\"stim\">3</p>", "internal_node_id": "0.0-79.0-7.0", "time_elapsed": 601085, "key_press": -1, "trial_index": 113}, "uniqueid": "MTK2901:31UV0MXWNRJEI6OTAUUMJUGSCWRI5A", "dateTime": 1519584421702}, {"current_trial": 114, "trialdata": {"rt": -1, "trial_type": "single-stim", "stimulus": "<p id=\"stim\">2</p>", "internal_node_id": "0.0-79.0-8.0", "time_elapsed": 602101, "key_press": -1, "trial_index": 114}, "uniqueid": "MTK2901:31UV0MXWNRJEI6OTAUUMJUGSCWRI5A", "dateTime": 1519584422717}, {"current_trial": 115, "trialdata": {"rt": -1, "trial_type": "single-stim", "stimulus": "<p id=\"stim\">1</p>", "internal_node_id": "0.0-79.0-9.0", "time_elapsed": 603114, "key_press": -1, "trial_index": 115}, "uniqueid": "MTK2901:31UV0MXWNRJEI6OTAUUMJUGSCWRI5A", "dateTime": 1519584423730}, {"current_trial": 116, "trialdata": {"rt": -1, "trial_type": "single-stim", "stimulus": "<p id=\"stim\">+</p>", "internal_node_id": "0.0-80.0-0.0", "time_elapsed": 604616, "key_press": -1, "type": "FIXATION", "trial_index": 116}, "uniqueid": "MTK2901:31UV0MXWNRJEI6OTAUUMJUGSCWRI5A", "dateTime": 1519584425233}, {"current_trial": 117, "trialdata": {"rt": -1000, "trial_type": "single-audio", "word": "knife", "stimulus": "/static/audio/wordpool/KNIFE.wav", "conditions": [12, 1600, "a", 24000], "internal_node_id": "0.0-81.0", "trial": 3, "time_elapsed": 607147, "serialpos": 0, "key_press": -1, "wordID": 784, "type": "PRES_AUD", "trial_index": 117}, "uniqueid": "MTK2901:31UV0MXWNRJEI6OTAUUMJUGSCWRI5A", "dateTime": 1519584427763}, {"current_trial": 118, "trialdata": {"rt": -1000, "trial_type": "single-audio", "word": "airplane", "stimulus": "/static/audio/wordpool/AIRPLANE.wav", "conditions": [12, 1600, "a", 24000], "internal_node_id": "0.0-82.0", "trial": 3, "time_elapsed": 609641, "serialpos": 1, "key_press": -1, "wordID": 11, "type": "PRES_AUD", "trial_index": 118}, "uniqueid": "MTK2901:31UV0MXWNRJEI6OTAUUMJUGSCWRI5A", "dateTime": 1519584430258}, {"current_trial": 119, "trialdata": {"rt": -1000, "trial_type": "single-audio", "word": "valve", "stimulus": "/static/audio/wordpool/VALVE.wav", "conditions": [12, 1600, "a", 24000], "internal_node_id": "0.0-83.0", "trial": 3, "time_elapsed": 612217, "serialpos": 2, "key_press": -1, "wordID": 1545, "type": "PRES_AUD", "trial_index": 119}, "uniqueid": "MTK2901:31UV0MXWNRJEI6OTAUUMJUGSCWRI5A", "dateTime": 1519584432833}, {"current_trial": 120, "trialdata": {"rt": -1000, "trial_type": "single-audio", "word": "yacht", "stimulus": "/static/audio/wordpool/YACHT.wav", "conditions": [12, 1600, "a", 24000], "internal_node_id": "0.0-84.0", "trial": 3, "time_elapsed": 614803, "serialpos": 3, "key_press": -1, "wordID": 1628, "type": "PRES_AUD", "trial_index": 120}, "uniqueid": "MTK2901:31UV0MXWNRJEI6OTAUUMJUGSCWRI5A", "dateTime": 1519584435420}, {"current_trial": 121, "trialdata": {"rt": -1000, "trial_type": "single-audio", "word": "blade", "stimulus": "/static/audio/wordpool/BLADE.wav", "conditions": [12, 1600, "a", 24000], "internal_node_id": "0.0-85.0", "trial": 3, "time_elapsed": 617542, "serialpos": 4, "key_press": -1, "wordID": 133, "type": "PRES_AUD", "trial_index": 121}, "uniqueid": "MTK2901:31UV0MXWNRJEI6OTAUUMJUGSCWRI5A", "dateTime": 1519584438159}, {"current_trial": 122, "trialdata": {"rt": -1000, "trial_type": "single-audio", "word": "badge", "stimulus": "/static/audio/wordpool/BADGE.wav", "conditions": [12, 1600, "a", 24000], "internal_node_id": "0.0-86.0", "trial": 3, "time_elapsed": 620148, "serialpos": 5, "key_press": -1, "wordID": 67, "type": "PRES_AUD", "trial_index": 122}, "uniqueid": "MTK2901:31UV0MXWNRJEI6OTAUUMJUGSCWRI5A", "dateTime": 1519584440765}, {"current_trial": 123, "trialdata": {"rt": -1000, "trial_type": "single-audio", "word": "dolphin", "stimulus": "/static/audio/wordpool/DOLPHIN.wav", "conditions": [12, 1600, "a", 24000], "internal_node_id": "0.0-87.0", "trial": 3, "time_elapsed": 622811, "serialpos": 6, "key_press": -1, "wordID": 482, "type": "PRES_AUD", "trial_index": 123}, "uniqueid": "MTK2901:31UV0MXWNRJEI6OTAUUMJUGSCWRI5A", "dateTime": 1519584443428}, {"current_trial": 124, "trialdata": {"rt": -1000, "trial_type": "single-audio", "word": "turtle", "stimulus": "/static/audio/wordpool/TURTLE.wav", "conditions": [12, 1600, "a", 24000], "internal_node_id": "0.0-88.0", "trial": 3, "time_elapsed": 625383, "serialpos": 7, "key_press": -1, "wordID": 1521, "type": "PRES_AUD", "trial_index": 124}, "uniqueid": "MTK2901:31UV0MXWNRJEI6OTAUUMJUGSCWRI5A", "dateTime": 1519584446000}, {"current_trial": 125, "trialdata": {"rt": -1000, "trial_type": "single-audio", "word": "window", "stimulus": "/static/audio/wordpool/WINDOW.wav", "conditions": [12, 1600, "a", 24000], "internal_node_id": "0.0-89.0", "trial": 3, "time_elapsed": 628025, "serialpos": 8, "key_press": -1, "wordID": 1610, "type": "PRES_AUD", "trial_index": 125}, "uniqueid": "MTK2901:31UV0MXWNRJEI6OTAUUMJUGSCWRI5A", "dateTime": 1519584448642}, {"current_trial": 126, "trialdata": {"rt": -1000, "trial_type": "single-audio", "word": "film", "stimulus": "/static/audio/wordpool/FILM.wav", "conditions": [12, 1600, "a", 24000], "internal_node_id": "0.0-90.0", "trial": 3, "time_elapsed": 630766, "serialpos": 9, "key_press": -1, "wordID": 564, "type": "PRES_AUD", "trial_index": 126}, "uniqueid": "MTK2901:31UV0MXWNRJEI6OTAUUMJUGSCWRI5A", "dateTime": 1519584451383}, {"current_trial": 127, "trialdata": {"rt": -1000, "trial_type": "single-audio", "word": "picture", "stimulus": "/static/audio/wordpool/PICTURE.wav", "conditions": [12, 1600, "a", 24000], "internal_node_id": "0.0-91.0", "trial": 3, "time_elapsed": 633404, "serialpos": 10, "key_press": -1, "wordID": 1060, "type": "PRES_AUD", "trial_index": 127}, "uniqueid": "MTK2901:31UV0MXWNRJEI6OTAUUMJUGSCWRI5A", "dateTime": 1519584454020}, {"current_trial": 128, "trialdata": {"rt": -1000, "trial_type": "single-audio", "word": "tablet", "stimulus": "/static/audio/wordpool/TABLET.wav", "conditions": [12, 1600, "a", 24000], "internal_node_id": "0.0-92.0", "trial": 3, "time_elapsed": 635870, "serialpos": 11, "key_press": -1, "wordID": 1426, "type": "PRES_AUD", "trial_index": 128}, "uniqueid": "MTK2901:31UV0MXWNRJEI6OTAUUMJUGSCWRI5A", "dateTime": 1519584456487}, {"current_trial": 129, "trialdata": {"rt": -1, "trial_type": "single-stim", "stimulus": "", "internal_node_id": "0.0-93.0-0.0", "time_elapsed": 637090, "key_press": -1, "type": "PRE_RECALL_DELAY", "trial_index": 129}, "uniqueid": "MTK2901:31UV0MXWNRJEI6OTAUUMJUGSCWRI5A", "dateTime": 1519584457706}, {"current_trial": 130, "trialdata": {"rt": -1000, "trial_type": "single-audio", "stimulus": "/static/audio/400Hz.wav", "internal_node_id": "0.0-94.0", "time_elapsed": 637599, "key_press": -1, "type": "PRE_RECALL_ALERT", "trial_index": 130}, "uniqueid": "MTK2901:31UV0MXWNRJEI6OTAUUMJUGSCWRI5A", "dateTime": 1519584458215}, {"current_trial": 131, "trialdata": {"rt": [3883, 5005, 6174, 9588, 41410, 47026], "recwords": ["nice", "airplane", "valve", "tablet", "dolphin", "yacht"], "key_times": [3550, 3606, 3690, 3757, 3883, 4156, 4257, 4359, 4481, 4649, 4758, 4841, 4908, 5005, 5189, 5293, 5391, 5481, 5813, 5959, 6046, 6174, 8577, 8704, 8817, 8934, 9059, 9195, 9588, 40518, 40550, 40711, 40879, 41027, 41133, 41244, 41410, 45309, 45768, 46565, 46675, 46852, 47026], "trial_type": "free-recall", "conditions": [12, 1600, "a", 24000], "internal_node_id": "0.0-95.0-0.0", "key_presses": [78, 73, 67, 69, 13, 65, 73, 82, 80, 76, 65, 78, 69, 13, 86, 65, 76, 69, 8, 86, 69, 13, 84, 65, 66, 76, 69, 84, 13, 68, 79, 76, 80, 72, 73, 78, 13, 89, 65, 67, 72, 84, 13], "trial": 3, "time_elapsed": 697625, "type": "FREE_RECALL", "trial_index": 131}, "uniqueid": "MTK2901:31UV0MXWNRJEI6OTAUUMJUGSCWRI5A", "dateTime": 1519584518258}, {"current_trial": 132, "trialdata": {"rt": 5198, "trial_type": "text", "internal_node_id": "0.0-96.0", "time_elapsed": 704850, "key_press": 13, "type": "INSTRUCTIONS", "trial_index": 132}, "uniqueid": "MTK2901:31UV0MXWNRJEI6OTAUUMJUGSCWRI5A", "dateTime": 1519584525466}, {"current_trial": 133, "trialdata": {"rt": [3128, 5267, 8761, 10098, 13666, 15361, 17370, 18997, 21524, 23088], "trial_type": "math-distractor", "key_times": [2866, 2978, 3128, 4876, 5168, 5267, 8476, 8630, 8761, 9847, 9969, 10098, 13266, 13402, 13666, 15170, 15361, 17065, 17211, 17370, 18794, 18997, 20948, 21383, 21524, 22897, 22948, 23088], "responses": ["20", "17", "15", "11", "24", "8", "18", "7", "16", "12"], "num2": [9, 3, 5, 5, 9, 3, 8, 3, 5, 9, 2], "num3": [4, 6, 3, 5, 7, 2, 3, 3, 3, 1, 2], "conditions": [24, 800, "a", 24000], "internal_node_id": "0.0-97.0", "key_presses": [50, 48, 13, 49, 55, 13, 49, 53, 13, 49, 49, 13, 50, 52, 13, 56, 13, 49, 56, 13, 55, 13, 49, 54, 13, 49, 50, 13], "trial": 4, "time_elapsed": 730878, "type": "DISTRACTOR", "trial_index": 133, "num1": [7, 8, 7, 1, 6, 3, 7, 1, 8, 2, 6]}, "uniqueid": "MTK2901:31UV0MXWNRJEI6OTAUUMJUGSCWRI5A", "dateTime": 1519584551495}, {"current_trial": 134, "trialdata": {"rt": -1, "trial_type": "single-stim", "stimulus": "<p id=\"stim\">10</p>", "internal_node_id": "0.0-98.0-0.0", "time_elapsed": 733908, "key_press": -1, "trial_index": 134}, "uniqueid": "MTK2901:31UV0MXWNRJEI6OTAUUMJUGSCWRI5A", "dateTime": 1519584554524}, {"current_trial": 135, "trialdata": {"rt": -1, "trial_type": "single-stim", "stimulus": "<p id=\"stim\">9</p>", "internal_node_id": "0.0-98.0-1.0", "time_elapsed": 734918, "key_press": -1, "trial_index": 135}, "uniqueid": "MTK2901:31UV0MXWNRJEI6OTAUUMJUGSCWRI5A", "dateTime": 1519584555535}, {"current_trial": 136, "trialdata": {"rt": -1, "trial_type": "single-stim", "stimulus": "<p id=\"stim\">8</p>", "internal_node_id": "0.0-98.0-2.0", "time_elapsed": 735923, "key_press": -1, "trial_index": 136}, "uniqueid": "MTK2901:31UV0MXWNRJEI6OTAUUMJUGSCWRI5A", "dateTime": 1519584556540}, {"current_trial": 137, "trialdata": {"rt": -1, "trial_type": "single-stim", "stimulus": "<p id=\"stim\">7</p>", "internal_node_id": "0.0-98.0-3.0", "time_elapsed": 736927, "key_press": -1, "trial_index": 137}, "uniqueid": "MTK2901:31UV0MXWNRJEI6OTAUUMJUGSCWRI5A", "dateTime": 1519584557544}, {"current_trial": 138, "trialdata": {"rt": -1, "trial_type": "single-stim", "stimulus": "<p id=\"stim\">6</p>", "internal_node_id": "0.0-98.0-4.0", "time_elapsed": 737930, "key_press": -1, "trial_index": 138}, "uniqueid": "MTK2901:31UV0MXWNRJEI6OTAUUMJUGSCWRI5A", "dateTime": 1519584558547}, {"current_trial": 139, "trialdata": {"rt": -1, "trial_type": "single-stim", "stimulus": "<p id=\"stim\">5</p>", "internal_node_id": "0.0-98.0-5.0", "time_elapsed": 738944, "key_press": -1, "trial_index": 139}, "uniqueid": "MTK2901:31UV0MXWNRJEI6OTAUUMJUGSCWRI5A", "dateTime": 1519584559561}, {"current_trial": 140, "trialdata": {"rt": -1, "trial_type": "single-stim", "stimulus": "<p id=\"stim\">4</p>", "internal_node_id": "0.0-98.0-6.0", "time_elapsed": 739959, "key_press": -1, "trial_index": 140}, "uniqueid": "MTK2901:31UV0MXWNRJEI6OTAUUMJUGSCWRI5A", "dateTime": 1519584560575}, {"current_trial": 141, "trialdata": {"rt": -1, "trial_type": "single-stim", "stimulus": "<p id=\"stim\">3</p>", "internal_node_id": "0.0-98.0-7.0", "time_elapsed": 740963, "key_press": -1, "trial_index": 141}, "uniqueid": "MTK2901:31UV0MXWNRJEI6OTAUUMJUGSCWRI5A", "dateTime": 1519584561580}, {"current_trial": 142, "trialdata": {"rt": -1, "trial_type": "single-stim", "stimulus": "<p id=\"stim\">2</p>", "internal_node_id": "0.0-98.0-8.0", "time_elapsed": 741978, "key_press": -1, "trial_index": 142}, "uniqueid": "MTK2901:31UV0MXWNRJEI6OTAUUMJUGSCWRI5A", "dateTime": 1519584562594}, {"current_trial": 143, "trialdata": {"rt": -1, "trial_type": "single-stim", "stimulus": "<p id=\"stim\">1</p>", "internal_node_id": "0.0-98.0-9.0", "time_elapsed": 742993, "key_press": -1, "trial_index": 143}, "uniqueid": "MTK2901:31UV0MXWNRJEI6OTAUUMJUGSCWRI5A", "dateTime": 1519584563610}, {"current_trial": 144, "trialdata": {"rt": -1, "trial_type": "single-stim", "stimulus": "<p id=\"stim\">+</p>", "internal_node_id": "0.0-99.0-0.0", "time_elapsed": 744508, "key_press": -1, "type": "FIXATION", "trial_index": 144}, "uniqueid": "MTK2901:31UV0MXWNRJEI6OTAUUMJUGSCWRI5A", "dateTime": 1519584565125}, {"current_trial": 145, "trialdata": {"rt": -1000, "trial_type": "single-audio", "word": "shovel", "stimulus": "/static/audio/wordpool/SHOVEL.wav", "conditions": [24, 800, "a", 24000], "internal_node_id": "0.0-100.0", "trial": 4, "time_elapsed": 746321, "serialpos": 0, "key_press": -1, "wordID": 1294, "type": "PRES_AUD", "trial_index": 145}, "uniqueid": "MTK2901:31UV0MXWNRJEI6OTAUUMJUGSCWRI5A", "dateTime": 1519584566938}, {"current_trial": 146, "trialdata": {"rt": -1000, "trial_type": "single-audio", "word": "sticker", "stimulus": "/static/audio/wordpool/STICKER.wav", "conditions": [24, 800, "a", 24000], "internal_node_id": "0.0-101.0", "trial": 4, "time_elapsed": 748319, "serialpos": 1, "key_press": -1, "wordID": 1381, "type": "PRES_AUD", "trial_index": 146}, "uniqueid": "MTK2901:31UV0MXWNRJEI6OTAUUMJUGSCWRI5A", "dateTime": 1519584568936}, {"current_trial": 147, "trialdata": {"rt": -1000, "trial_type": "single-audio", "word": "scissors", "stimulus": "/static/audio/wordpool/SCISSORS.wav", "conditions": [24, 800, "a", 24000], "internal_node_id": "0.0-102.0", "trial": 4, "time_elapsed": 750112, "serialpos": 2, "key_press": -1, "wordID": 1249, "type": "PRES_AUD", "trial_index": 147}, "uniqueid": "MTK2901:31UV0MXWNRJEI6OTAUUMJUGSCWRI5A", "dateTime": 1519584570729}, {"current_trial": 148, "trialdata": {"rt": -1000, "trial_type": "single-audio", "word": "scalpel", "stimulus": "/static/audio/wordpool/SCALPEL.wav", "conditions": [24, 800, "a", 24000], "internal_node_id": "0.0-103.0", "trial": 4, "time_elapsed": 751734, "serialpos": 3, "key_press": -1, "wordID": 1242, "type": "PRES_AUD", "trial_index": 148}, "uniqueid": "MTK2901:31UV0MXWNRJEI6OTAUUMJUGSCWRI5A", "dateTime": 1519584572351}, {"current_trial": 149, "trialdata": {"rt": -1000, "trial_type": "single-audio", "word": "possum", "stimulus": "/static/audio/wordpool/POSSUM.wav", "conditions": [24, 800, "a", 24000], "internal_node_id": "0.0-104.0", "trial": 4, "time_elapsed": 753477, "serialpos": 4, "key_press": -1, "wordID": 1111, "type": "PRES_AUD", "trial_index": 149}, "uniqueid": "MTK2901:31UV0MXWNRJEI6OTAUUMJUGSCWRI5A", "dateTime": 1519584574094}, {"current_trial": 150, "trialdata": {"rt": -1000, "trial_type": "single-audio", "word": "teacher", "stimulus": "/static/audio/wordpool/TEACHER.wav", "conditions": [24, 800, "a", 24000], "internal_node_id": "0.0-105.0", "trial": 4, "time_elapsed": 755084, "serialpos": 5, "key_press": -1, "wordID": 1439, "type": "PRES_AUD", "trial_index": 150}, "uniqueid": "MTK2901:31UV0MXWNRJEI6OTAUUMJUGSCWRI5A", "dateTime": 1519584575701}, {"current_trial": 151, "trialdata": {"rt": -1000, "trial_type": "single-audio", "word": "permit", "stimulus": "/static/audio/wordpool/PERMIT.wav", "conditions": [24, 800, "a", 24000], "internal_node_id": "0.0-106.0", "trial": 4, "time_elapsed": 756887, "serialpos": 6, "key_press": -1, "wordID": 1050, "type": "PRES_AUD", "trial_index": 151}, "uniqueid": "MTK2901:31UV0MXWNRJEI6OTAUUMJUGSCWRI5A", "dateTime": 1519584577504}, {"current_trial": 152, "trialdata": {"rt": -1000, "trial_type": "single-audio", "word": "mars", "stimulus": "/static/audio/wordpool/MARS.wav", "conditions": [24, 800, "a", 24000], "internal_node_id": "0.0-107.0", "trial": 4, "time_elapsed": 758631, "serialpos": 7, "key_press": -1, "wordID": 872, "type": "PRES_AUD", "trial_index": 152}, "uniqueid": "MTK2901:31UV0MXWNRJEI6OTAUUMJUGSCWRI5A", "dateTime": 1519584579248}, {"current_trial": 153, "trialdata": {"rt": -1000, "trial_type": "single-audio", "word": "hamper", "stimulus": "/static/audio/wordpool/HAMPER.wav", "conditions": [24, 800, "a", 24000], "internal_node_id": "0.0-108.0", "trial": 4, "time_elapsed": 760259, "serialpos": 8, "key_press": -1, "wordID": 681, "type": "PRES_AUD", "trial_index": 153}, "uniqueid": "MTK2901:31UV0MXWNRJEI6OTAUUMJUGSCWRI5A", "dateTime": 1519584580876}, {"current_trial": 154, "trialdata": {"rt": -1000, "trial_type": "single-audio", "word": "rabbit", "stimulus": "/static/audio/wordpool/RABBIT.wav", "conditions": [24, 800, "a", 24000], "internal_node_id": "0.0-109.0", "trial": 4, "time_elapsed": 762072, "serialpos": 9, "key_press": -1, "wordID": 1151, "type": "PRES_AUD", "trial_index": 154}, "uniqueid": "MTK2901:31UV0MXWNRJEI6OTAUUMJUGSCWRI5A", "dateTime": 1519584582689}, {"current_trial": 155, "trialdata": {"rt": -1000, "trial_type": "single-audio", "word": "tortoise", "stimulus": "/static/audio/wordpool/TORTOISE.wav", "conditions": [24, 800, "a", 24000], "internal_node_id": "0.0-110.0", "trial": 4, "time_elapsed": 764045, "serialpos": 10, "key_press": -1, "wordID": 1485, "type": "PRES_AUD", "trial_index": 155}, "uniqueid": "MTK2901:31UV0MXWNRJEI6OTAUUMJUGSCWRI5A", "dateTime": 1519584584662}, {"current_trial": 156, "trialdata": {"rt": -1000, "trial_type": "single-audio", "word": "island", "stimulus": "/static/audio/wordpool/ISLAND.wav", "conditions": [24, 800, "a", 24000], "internal_node_id": "0.0-111.0", "trial": 4, "time_elapsed": 765994, "serialpos": 11, "key_press": -1, "wordID": 744, "type": "PRES_AUD", "trial_index": 156}, "uniqueid": "MTK2901:31UV0MXWNRJEI6OTAUUMJUGSCWRI5A", "dateTime": 1519584586611}, {"current_trial": 157, "trialdata": {"rt": -1000, "trial_type": "single-audio", "word": "outdoors", "stimulus": "/static/audio/wordpool/OUTDOORS.wav", "conditions": [24, 800, "a", 24000], "internal_node_id": "0.0-112.0", "trial": 4, "time_elapsed": 767844, "serialpos": 12, "key_press": -1, "wordID": 986, "type": "PRES_AUD", "trial_index": 157}, "uniqueid": "MTK2901:31UV0MXWNRJEI6OTAUUMJUGSCWRI5A", "dateTime": 1519584588461}, {"current_trial": 158, "trialdata": {"rt": -1000, "trial_type": "single-audio", "word": "bacon", "stimulus": "/static/audio/wordpool/BACON.wav", "conditions": [24, 800, "a", 24000], "internal_node_id": "0.0-113.0", "trial": 4, "time_elapsed": 769687, "serialpos": 13, "key_press": -1, "wordID": 66, "type": "PRES_AUD", "trial_index": 158}, "uniqueid": "MTK2901:31UV0MXWNRJEI6OTAUUMJUGSCWRI5A", "dateTime": 1519584590304}, {"current_trial": 159, "trialdata": {"rt": -1000, "trial_type": "single-audio", "word": "denim", "stimulus": "/static/audio/wordpool/DENIM.wav", "conditions": [24, 800, "a", 24000], "internal_node_id": "0.0-114.0", "trial": 4, "time_elapsed": 771625, "serialpos": 14, "key_press": -1, "wordID": 445, "type": "PRES_AUD", "trial_index": 159}, "uniqueid": "MTK2901:31UV0MXWNRJEI6OTAUUMJUGSCWRI5A", "dateTime": 1519584592242}, {"current_trial": 160, "trialdata": {"rt": -1000, "trial_type": "single-audio", "word": "shorts", "stimulus": "/static/audio/wordpool/SHORTS.wav", "conditions": [24, 800, "a", 24000], "internal_node_id": "0.0-115.0", "trial": 4, "time_elapsed": 773596, "serialpos": 15, "key_press": -1, "wordID": 1292, "type": "PRES_AUD", "trial_index": 160}, "uniqueid": "MTK2901:31UV0MXWNRJEI6OTAUUMJUGSCWRI5A", "dateTime": 1519584594213}, {"current_trial": 161, "trialdata": {"rt": -1000, "trial_type": "single-audio", "word": "suitcase", "stimulus": "/static/audio/wordpool/SUITCASE.wav", "conditions": [24, 800, "a", 24000], "internal_node_id": "0.0-116.0", "trial": 4, "time_elapsed": 775274, "serialpos": 16, "key_press": -1, "wordID": 1402, "type": "PRES_AUD", "trial_index": 161}, "uniqueid": "MTK2901:31UV0MXWNRJEI6OTAUUMJUGSCWRI5A", "dateTime": 1519584595891}, {"current_trial": 162, "trialdata": {"rt": -1000, "trial_type": "single-audio", "word": "atom", "stimulus": "/static/audio/wordpool/ATOM.wav", "conditions": [24, 800, "a", 24000], "internal_node_id": "0.0-117.0", "trial": 4, "time_elapsed": 777214, "serialpos": 17, "key_press": -1, "wordID": 54, "type": "PRES_AUD", "trial_index": 162}, "uniqueid": "MTK2901:31UV0MXWNRJEI6OTAUUMJUGSCWRI5A", "dateTime": 1519584597831}, {"current_trial": 163, "trialdata": {"rt": -1000, "trial_type": "single-audio", "word": "bike", "stimulus": "/static/audio/wordpool/BIKE.wav", "conditions": [24, 800, "a", 24000], "internal_node_id": "0.0-118.0", "trial": 4, "time_elapsed": 779028, "serialpos": 18, "key_press": -1, "wordID": 124, "type": "PRES_AUD", "trial_index": 163}, "uniqueid": "MTK2901:31UV0MXWNRJEI6OTAUUMJUGSCWRI5A", "dateTime": 1519584599645}, {"current_trial": 164, "trialdata": {"rt": -1000, "trial_type": "single-audio", "word": "grape", "stimulus": "/static/audio/wordpool/GRAPE.wav", "conditions": [24, 800, "a", 24000], "internal_node_id": "0.0-119.0", "trial": 4, "time_elapsed": 780890, "serialpos": 19, "key_press": -1, "wordID": 653, "type": "PRES_AUD", "trial_index": 164}, "uniqueid": "MTK2901:31UV0MXWNRJEI6OTAUUMJUGSCWRI5A", "dateTime": 1519584601507}, {"current_trial": 165, "trialdata": {"rt": -1000, "trial_type": "single-audio", "word": "barley", "stimulus": "/static/audio/wordpool/BARLEY.wav", "conditions": [24, 800, "a", 24000], "internal_node_id": "0.0-120.0", "trial": 4, "time_elapsed": 782566, "serialpos": 20, "key_press": -1, "wordID": 87, "type": "PRES_AUD", "trial_index": 165}, "uniqueid": "MTK2901:31UV0MXWNRJEI6OTAUUMJUGSCWRI5A", "dateTime": 1519584603183}, {"current_trial": 166, "trialdata": {"rt": -1000, "trial_type": "single-audio", "word": "handbag", "stimulus": "/static/audio/wordpool/HANDBAG.wav", "conditions": [24, 800, "a", 24000], "internal_node_id": "0.0-121.0", "trial": 4, "time_elapsed": 784572, "serialpos": 21, "key_press": -1, "wordID": 683, "type": "PRES_AUD", "trial_index": 166}, "uniqueid": "MTK2901:31UV0MXWNRJEI6OTAUUMJUGSCWRI5A", "dateTime": 1519584605189}, {"current_trial": 167, "trialdata": {"rt": -1000, "trial_type": "single-audio", "word": "stove", "stimulus": "/static/audio/wordpool/STOVE.wav", "conditions": [24, 800, "a", 24000], "internal_node_id": "0.0-122.0", "trial": 4, "time_elapsed": 786385, "serialpos": 22, "key_press": -1, "wordID": 1387, "type": "PRES_AUD", "trial_index": 167}, "uniqueid": "MTK2901:31UV0MXWNRJEI6OTAUUMJUGSCWRI5A", "dateTime": 1519584607002}, {"current_trial": 168, "trialdata": {"rt": -1000, "trial_type": "single-audio", "word": "fungus", "stimulus": "/static/audio/wordpool/FUNGUS.wav", "conditions": [24, 800, "a", 24000], "internal_node_id": "0.0-123.0", "trial": 4, "time_elapsed": 788337, "serialpos": 23, "key_press": -1, "wordID": 613, "type": "PRES_AUD", "trial_index": 168}, "uniqueid": "MTK2901:31UV0MXWNRJEI6OTAUUMJUGSCWRI5A", "dateTime": 1519584608954}, {"current_trial": 169, "trialdata": {"rt": -1, "trial_type": "single-stim", "stimulus": "", "internal_node_id": "0.0-124.0-0.0", "time_elapsed": 789700, "key_press": -1, "type": "PRE_RECALL_DELAY", "trial_index": 169}, "uniqueid": "MTK2901:31UV0MXWNRJEI6OTAUUMJUGSCWRI5A", "dateTime": 1519584610318}, {"current_trial": 170, "trialdata": {"rt": -1000, "trial_type": "single-audio", "stimulus": "/static/audio/400Hz.wav", "internal_node_id": "0.0-125.0", "time_elapsed": 790216, "key_press": -1, "type": "PRE_RECALL_ALERT", "trial_index": 170}, "uniqueid": "MTK2901:31UV0MXWNRJEI6OTAUUMJUGSCWRI5A", "dateTime": 1519584610833}, {"current_trial": 171, "trialdata": {"rt": [1354, 2180, 2795, 4175, 7976, 13414, 14124, 14907, 19498, 23542], "recwords": ["stove", "fungus", "bag", "atom", "hair", "shovel", "sticker", "teacher", "tortiose", "shorts"], "key_times": [861, 968, 1063, 1159, 1259, 1354, 1450, 1588, 1739, 1867, 1955, 2068, 2180, 2472, 2589, 2672, 2795, 3444, 3544, 3647, 3746, 4175, 7441, 7590, 7732, 7829, 7976, 12740, 12847, 12913, 13084, 13194, 13258, 13414, 13526, 13618, 13715, 13812, 13893, 13958, 14042, 14124, 14243, 14377, 14438, 14508, 14631, 14718, 14819, 14907, 17720, 17824, 17899, 18089, 18156, 18266, 18433, 18782, 18870, 18982, 19498, 22965, 23079, 23141, 23185, 23292, 23424, 23542], "trial_type": "free-recall", "conditions": [24, 800, "a", 24000], "internal_node_id": "0.0-126.0-0.0", "key_presses": [83, 84, 79, 86, 69, 13, 70, 85, 78, 71, 85, 83, 13, 66, 65, 71, 13, 65, 84, 79, 77, 13, 72, 65, 73, 82, 13, 83, 72, 79, 86, 69, 76, 13, 83, 84, 73, 67, 75, 69, 82, 13, 84, 69, 65, 67, 72, 69, 82, 13, 84, 79, 82, 84, 73, 79, 85, 8, 83, 69, 13, 83, 72, 79, 82, 84, 83, 13], "trial": 4, "time_elapsed": 850240, "type": "FREE_RECALL", "trial_index": 171}, "uniqueid": "MTK2901:31UV0MXWNRJEI6OTAUUMJUGSCWRI5A", "dateTime": 1519584670880}, {"current_trial": 172, "trialdata": {"rt": 1838, "trial_type": "text", "internal_node_id": "0.0-127.0", "time_elapsed": 854105, "key_press": 13, "type": "INSTRUCTIONS", "trial_index": 172}, "uniqueid": "MTK2901:31UV0MXWNRJEI6OTAUUMJUGSCWRI5A", "dateTime": 1519584674721}, {"current_trial": 173, "trialdata": {"rt": [1521, 3093, 6474, 11039], "trial_type": "math-distractor", "key_times": [1274, 1370, 1521, 2826, 2926, 3093, 6100, 6309, 6474, 10394, 10928, 11039], "responses": ["10", "13", "18", "16"], "num2": [2, 3, 7, 3, 5], "num3": [7, 2, 6, 6, 7], "conditions": [24, 800, "a", 12000], "internal_node_id": "0.0-128.0", "key_presses": [49, 48, 13, 49, 51, 13, 49, 56, 13, 49, 54, 13], "trial": 5, "time_elapsed": 868139, "type": "DISTRACTOR", "trial_index": 173, "num1": [1, 8, 7, 7, 7]}, "uniqueid": "MTK2901:31UV0MXWNRJEI6OTAUUMJUGSCWRI5A", "dateTime": 1519584688758}, {"current_trial": 174, "trialdata": {"rt": -1, "trial_type": "single-stim", "stimulus": "<p id=\"stim\">10</p>", "internal_node_id": "0.0-129.0-0.0", "time_elapsed": 871156, "key_press": -1, "trial_index": 174}, "uniqueid": "MTK2901:31UV0MXWNRJEI6OTAUUMJUGSCWRI5A", "dateTime": 1519584691773}, {"current_trial": 175, "trialdata": {"rt": -1, "trial_type": "single-stim", "stimulus": "<p id=\"stim\">9</p>", "internal_node_id": "0.0-129.0-1.0", "time_elapsed": 872164, "key_press": -1, "trial_index": 175}, "uniqueid": "MTK2901:31UV0MXWNRJEI6OTAUUMJUGSCWRI5A", "dateTime": 1519584692781}, {"current_trial": 176, "trialdata": {"rt": -1, "trial_type": "single-stim", "stimulus": "<p id=\"stim\">8</p>", "internal_node_id": "0.0-129.0-2.0", "time_elapsed": 873170, "key_press": -1, "trial_index": 176}, "uniqueid": "MTK2901:31UV0MXWNRJEI6OTAUUMJUGSCWRI5A", "dateTime": 1519584693789}, {"current_trial": 177, "trialdata": {"rt": -1, "trial_type": "single-stim", "stimulus": "<p id=\"stim\">7</p>", "internal_node_id": "0.0-129.0-3.0", "time_elapsed": 874184, "key_press": -1, "trial_index": 177}, "uniqueid": "MTK2901:31UV0MXWNRJEI6OTAUUMJUGSCWRI5A", "dateTime": 1519584694801}, {"current_trial": 178, "trialdata": {"rt": -1, "trial_type": "single-stim", "stimulus": "<p id=\"stim\">6</p>", "internal_node_id": "0.0-129.0-4.0", "time_elapsed": 875199, "key_press": -1, "trial_index": 178}, "uniqueid": "MTK2901:31UV0MXWNRJEI6OTAUUMJUGSCWRI5A", "dateTime": 1519584695816}, {"current_trial": 179, "trialdata": {"rt": -1, "trial_type": "single-stim", "stimulus": "<p id=\"stim\">5</p>", "internal_node_id": "0.0-129.0-5.0", "time_elapsed": 876212, "key_press": -1, "trial_index": 179}, "uniqueid": "MTK2901:31UV0MXWNRJEI6OTAUUMJUGSCWRI5A", "dateTime": 1519584696829}, {"current_trial": 180, "trialdata": {"rt": -1, "trial_type": "single-stim", "stimulus": "<p id=\"stim\">4</p>", "internal_node_id": "0.0-129.0-6.0", "time_elapsed": 877220, "key_press": -1, "trial_index": 180}, "uniqueid": "MTK2901:31UV0MXWNRJEI6OTAUUMJUGSCWRI5A", "dateTime": 1519584697837}, {"current_trial": 181, "trialdata": {"rt": -1, "trial_type": "single-stim", "stimulus": "<p id=\"stim\">3</p>", "internal_node_id": "0.0-129.0-7.0", "time_elapsed": 878229, "key_press": -1, "trial_index": 181}, "uniqueid": "MTK2901:31UV0MXWNRJEI6OTAUUMJUGSCWRI5A", "dateTime": 1519584698846}, {"current_trial": 182, "trialdata": {"rt": -1, "trial_type": "single-stim", "stimulus": "<p id=\"stim\">2</p>", "internal_node_id": "0.0-129.0-8.0", "time_elapsed": 879243, "key_press": -1, "trial_index": 182}, "uniqueid": "MTK2901:31UV0MXWNRJEI6OTAUUMJUGSCWRI5A", "dateTime": 1519584699860}, {"current_trial": 183, "trialdata": {"rt": -1, "trial_type": "single-stim", "stimulus": "<p id=\"stim\">1</p>", "internal_node_id": "0.0-129.0-9.0", "time_elapsed": 880261, "key_press": -1, "trial_index": 183}, "uniqueid": "MTK2901:31UV0MXWNRJEI6OTAUUMJUGSCWRI5A", "dateTime": 1519584700879}, {"current_trial": 184, "trialdata": {"rt": -1, "trial_type": "single-stim", "stimulus": "<p id=\"stim\">+</p>", "internal_node_id": "0.0-130.0-0.0", "time_elapsed": 881775, "key_press": -1, "type": "FIXATION", "trial_index": 184}, "uniqueid": "MTK2901:31UV0MXWNRJEI6OTAUUMJUGSCWRI5A", "dateTime": 1519584702391}, {"current_trial": 185, "trialdata": {"rt": -1000, "trial_type": "single-audio", "word": "tombstone", "stimulus": "/static/audio/wordpool/TOMBSTONE.wav", "conditions": [24, 800, "a", 12000], "internal_node_id": "0.0-131.0", "trial": 5, "time_elapsed": 883590, "serialpos": 0, "key_press": -1, "wordID": 1477, "type": "PRES_AUD", "trial_index": 185}, "uniqueid": "MTK2901:31UV0MXWNRJEI6OTAUUMJUGSCWRI5A", "dateTime": 1519584704208}, {"current_trial": 186, "trialdata": {"rt": -1000, "trial_type": "single-audio", "word": "statue", "stimulus": "/static/audio/wordpool/STATUE.wav", "conditions": [24, 800, "a", 12000], "internal_node_id": "0.0-132.0", "trial": 5, "time_elapsed": 885371, "serialpos": 1, "key_press": -1, "wordID": 1373, "type": "PRES_AUD", "trial_index": 186}, "uniqueid": "MTK2901:31UV0MXWNRJEI6OTAUUMJUGSCWRI5A", "dateTime": 1519584705989}, {"current_trial": 187, "trialdata": {"rt": -1000, "trial_type": "single-audio", "word": "piano", "stimulus": "/static/audio/wordpool/PIANO.wav", "conditions": [24, 800, "a", 12000], "internal_node_id": "0.0-133.0", "trial": 5, "time_elapsed": 887231, "serialpos": 2, "key_press": -1, "wordID": 1056, "type": "PRES_AUD", "trial_index": 187}, "uniqueid": "MTK2901:31UV0MXWNRJEI6OTAUUMJUGSCWRI5A", "dateTime": 1519584707848}, {"current_trial": 188, "trialdata": {"rt": -1000, "trial_type": "single-audio", "word": "robin", "stimulus": "/static/audio/wordpool/ROBIN.wav", "conditions": [24, 800, "a", 12000], "internal_node_id": "0.0-134.0", "trial": 5, "time_elapsed": 889128, "serialpos": 3, "key_press": -1, "wordID": 1198, "type": "PRES_AUD", "trial_index": 188}, "uniqueid": "MTK2901:31UV0MXWNRJEI6OTAUUMJUGSCWRI5A", "dateTime": 1519584709745}, {"current_trial": 189, "trialdata": {"rt": -1000, "trial_type": "single-audio", "word": "boyfriend", "stimulus": "/static/audio/wordpool/BOYFRIEND.wav", "conditions": [24, 800, "a", 12000], "internal_node_id": "0.0-135.0", "trial": 5, "time_elapsed": 890818, "serialpos": 4, "key_press": -1, "wordID": 161, "type": "PRES_AUD", "trial_index": 189}, "uniqueid": "MTK2901:31UV0MXWNRJEI6OTAUUMJUGSCWRI5A", "dateTime": 1519584711435}, {"current_trial": 190, "trialdata": {"rt": -1000, "trial_type": "single-audio", "word": "victim", "stimulus": "/static/audio/wordpool/VICTIM.wav", "conditions": [24, 800, "a", 12000], "internal_node_id": "0.0-136.0", "trial": 5, "time_elapsed": 892446, "serialpos": 5, "key_press": -1, "wordID": 1561, "type": "PRES_AUD", "trial_index": 190}, "uniqueid": "MTK2901:31UV0MXWNRJEI6OTAUUMJUGSCWRI5A", "dateTime": 1519584713063}, {"current_trial": 191, "trialdata": {"rt": -1000, "trial_type": "single-audio", "word": "husband", "stimulus": "/static/audio/wordpool/HUSBAND.wav", "conditions": [24, 800, "a", 12000], "internal_node_id": "0.0-137.0", "trial": 5, "time_elapsed": 894308, "serialpos": 6, "key_press": -1, "wordID": 727, "type": "PRES_AUD", "trial_index": 191}, "uniqueid": "MTK2901:31UV0MXWNRJEI6OTAUUMJUGSCWRI5A", "dateTime": 1519584714926}, {"current_trial": 192, "trialdata": {"rt": -1000, "trial_type": "single-audio", "word": "velvet", "stimulus": "/static/audio/wordpool/VELVET.wav", "conditions": [24, 800, "a", 12000], "internal_node_id": "0.0-138.0", "trial": 5, "time_elapsed": 896290, "serialpos": 7, "key_press": -1, "wordID": 1554, "type": "PRES_AUD", "trial_index": 192}, "uniqueid": "MTK2901:31UV0MXWNRJEI6OTAUUMJUGSCWRI5A", "dateTime": 1519584716908}, {"current_trial": 193, "trialdata": {"rt": -1000, "trial_type": "single-audio", "word": "paper", "stimulus": "/static/audio/wordpool/PAPER.wav", "conditions": [24, 800, "a", 12000], "internal_node_id": "0.0-139.0", "trial": 5, "time_elapsed": 898098, "serialpos": 8, "key_press": -1, "wordID": 1010, "type": "PRES_AUD", "trial_index": 193}, "uniqueid": "MTK2901:31UV0MXWNRJEI6OTAUUMJUGSCWRI5A", "dateTime": 1519584718715}, {"current_trial": 194, "trialdata": {"rt": -1000, "trial_type": "single-audio", "word": "stallion", "stimulus": "/static/audio/wordpool/STALLION.wav", "conditions": [24, 800, "a", 12000], "internal_node_id": "0.0-140.0", "trial": 5, "time_elapsed": 899896, "serialpos": 9, "key_press": -1, "wordID": 1368, "type": "PRES_AUD", "trial_index": 194}, "uniqueid": "MTK2901:31UV0MXWNRJEI6OTAUUMJUGSCWRI5A", "dateTime": 1519584720513}, {"current_trial": 195, "trialdata": {"rt": -1000, "trial_type": "single-audio", "word": "lace", "stimulus": "/static/audio/wordpool/LACE.wav", "conditions": [24, 800, "a", 12000], "internal_node_id": "0.0-141.0", "trial": 5, "time_elapsed": 901727, "serialpos": 10, "key_press": -1, "wordID": 791, "type": "PRES_AUD", "trial_index": 195}, "uniqueid": "MTK2901:31UV0MXWNRJEI6OTAUUMJUGSCWRI5A", "dateTime": 1519584722345}, {"current_trial": 196, "trialdata": {"rt": -1000, "trial_type": "single-audio", "word": "spool", "stimulus": "/static/audio/wordpool/SPOOL.wav", "conditions": [24, 800, "a", 12000], "internal_node_id": "0.0-142.0", "trial": 5, "time_elapsed": 903615, "serialpos": 11, "key_press": -1, "wordID": 1355, "type": "PRES_AUD", "trial_index": 196}, "uniqueid": "MTK2901:31UV0MXWNRJEI6OTAUUMJUGSCWRI5A", "dateTime": 1519584724232}, {"current_trial": 197, "trialdata": {"rt": -1000, "trial_type": "single-audio", "word": "zipper", "stimulus": "/static/audio/wordpool/ZIPPER.wav", "conditions": [24, 800, "a", 12000], "internal_node_id": "0.0-143.0", "trial": 5, "time_elapsed": 905576, "serialpos": 12, "key_press": -1, "wordID": 1635, "type": "PRES_AUD", "trial_index": 197}, "uniqueid": "MTK2901:31UV0MXWNRJEI6OTAUUMJUGSCWRI5A", "dateTime": 1519584726193}, {"current_trial": 198, "trialdata": {"rt": -1000, "trial_type": "single-audio", "word": "robber", "stimulus": "/static/audio/wordpool/ROBBER.wav", "conditions": [24, 800, "a", 12000], "internal_node_id": "0.0-144.0", "trial": 5, "time_elapsed": 907272, "serialpos": 13, "key_press": -1, "wordID": 1196, "type": "PRES_AUD", "trial_index": 198}, "uniqueid": "MTK2901:31UV0MXWNRJEI6OTAUUMJUGSCWRI5A", "dateTime": 1519584727890}, {"current_trial": 199, "trialdata": {"rt": -1000, "trial_type": "single-audio", "word": "custard", "stimulus": "/static/audio/wordpool/CUSTARD.wav", "conditions": [24, 800, "a", 12000], "internal_node_id": "0.0-145.0", "trial": 5, "time_elapsed": 909145, "serialpos": 14, "key_press": -1, "wordID": 428, "type": "PRES_AUD", "trial_index": 199}, "uniqueid": "MTK2901:31UV0MXWNRJEI6OTAUUMJUGSCWRI5A", "dateTime": 1519584729762}, {"current_trial": 200, "trialdata": {"rt": -1000, "trial_type": "single-audio", "word": "drink", "stimulus": "/static/audio/wordpool/DRINK.wav", "conditions": [24, 800, "a", 12000], "internal_node_id": "0.0-146.0", "trial": 5, "time_elapsed": 910774, "serialpos": 15, "key_press": -1, "wordID": 497, "type": "PRES_AUD", "trial_index": 200}, "uniqueid": "MTK2901:31UV0MXWNRJEI6OTAUUMJUGSCWRI5A", "dateTime": 1519584731391}, {"current_trial": 201, "trialdata": {"rt": -1000, "trial_type": "single-audio", "word": "burglar", "stimulus": "/static/audio/wordpool/BURGLAR.wav", "conditions": [24, 800, "a", 12000], "internal_node_id": "0.0-147.0", "trial": 5, "time_elapsed": 912711, "serialpos": 16, "key_press": -1, "wordID": 199, "type": "PRES_AUD", "trial_index": 201}, "uniqueid": "MTK2901:31UV0MXWNRJEI6OTAUUMJUGSCWRI5A", "dateTime": 1519584733328}, {"current_trial": 202, "trialdata": {"rt": -1000, "trial_type": "single-audio", "word": "flower", "stimulus": "/static/audio/wordpool/FLOWER.wav", "conditions": [24, 800, "a", 12000], "internal_node_id": "0.0-148.0", "trial": 5, "time_elapsed": 914466, "serialpos": 17, "key_press": -1, "wordID": 583, "type": "PRES_AUD", "trial_index": 202}, "uniqueid": "MTK2901:31UV0MXWNRJEI6OTAUUMJUGSCWRI5A", "dateTime": 1519584735083}, {"current_trial": 203, "trialdata": {"rt": -1000, "trial_type": "single-audio", "word": "sunrise", "stimulus": "/static/audio/wordpool/SUNRISE.wav", "conditions": [24, 800, "a", 12000], "internal_node_id": "0.0-149.0", "trial": 5, "time_elapsed": 916228, "serialpos": 18, "key_press": -1, "wordID": 1406, "type": "PRES_AUD", "trial_index": 203}, "uniqueid": "MTK2901:31UV0MXWNRJEI6OTAUUMJUGSCWRI5A", "dateTime": 1519584736845}, {"current_trial": 204, "trialdata": {"rt": -1000, "trial_type": "single-audio", "word": "hedge", "stimulus": "/static/audio/wordpool/HEDGE.wav", "conditions": [24, 800, "a", 12000], "internal_node_id": "0.0-150.0", "trial": 5, "time_elapsed": 918126, "serialpos": 19, "key_press": -1, "wordID": 698, "type": "PRES_AUD", "trial_index": 204}, "uniqueid": "MTK2901:31UV0MXWNRJEI6OTAUUMJUGSCWRI5A", "dateTime": 1519584738743}, {"current_trial": 205, "trialdata": {"rt": -1000, "trial_type": "single-audio", "word": "canyon", "stimulus": "/static/audio/wordpool/CANYON.wav", "conditions": [24, 800, "a", 12000], "internal_node_id": "0.0-151.0", "trial": 5, "time_elapsed": 920134, "serialpos": 20, "key_press": -1, "wordID": 234, "type": "PRES_AUD", "trial_index": 205}, "uniqueid": "MTK2901:31UV0MXWNRJEI6OTAUUMJUGSCWRI5A", "dateTime": 1519584740751}, {"current_trial": 206, "trialdata": {"rt": -1000, "trial_type": "single-audio", "word": "dragon", "stimulus": "/static/audio/wordpool/DRAGON.wav", "conditions": [24, 800, "a", 12000], "internal_node_id": "0.0-152.0", "trial": 5, "time_elapsed": 922001, "serialpos": 21, "key_press": -1, "wordID": 491, "type": "PRES_AUD", "trial_index": 206}, "uniqueid": "MTK2901:31UV0MXWNRJEI6OTAUUMJUGSCWRI5A", "dateTime": 1519584742618}, {"current_trial": 207, "trialdata": {"rt": -1000, "trial_type": "single-audio", "word": "goblin", "stimulus": "/static/audio/wordpool/GOBLIN.wav", "conditions": [24, 800, "a", 12000], "internal_node_id": "0.0-153.0", "trial": 5, "time_elapsed": 923759, "serialpos": 22, "key_press": -1, "wordID": 644, "type": "PRES_AUD", "trial_index": 207}, "uniqueid": "MTK2901:31UV0MXWNRJEI6OTAUUMJUGSCWRI5A", "dateTime": 1519584744376}, {"current_trial": 208, "trialdata": {"rt": -1000, "trial_type": "single-audio", "word": "sheriff", "stimulus": "/static/audio/wordpool/SHERIFF.wav", "conditions": [24, 800, "a", 12000], "internal_node_id": "0.0-154.0", "trial": 5, "time_elapsed": 925497, "serialpos": 23, "key_press": -1, "wordID": 1283, "type": "PRES_AUD", "trial_index": 208}, "uniqueid": "MTK2901:31UV0MXWNRJEI6OTAUUMJUGSCWRI5A", "dateTime": 1519584746114}, {"current_trial": 209, "trialdata": {"rt": -1, "trial_type": "single-stim", "stimulus": "", "internal_node_id": "0.0-155.0-0.0", "time_elapsed": 926793, "key_press": -1, "type": "PRE_RECALL_DELAY", "trial_index": 209}, "uniqueid": "MTK2901:31UV0MXWNRJEI6OTAUUMJUGSCWRI5A", "dateTime": 1519584747411}, {"current_trial": 210, "trialdata": {"rt": -1000, "trial_type": "single-audio", "stimulus": "/static/audio/400Hz.wav", "internal_node_id": "0.0-156.0", "time_elapsed": 927300, "key_press": -1, "type": "PRE_RECALL_ALERT", "trial_index": 210}, "uniqueid": "MTK2901:31UV0MXWNRJEI6OTAUUMJUGSCWRI5A", "dateTime": 1519584747917}, {"current_trial": 211, "trialdata": {"rt": [3683, 5295, 7515, 8255, 9363, 11306, 12181, 13607, 17596, 20659, 21586, 23333, 28033, 35354], "recwords": ["goblin", "sherrif", "sunrise", "hedge", "flower", "boyfriend", "piano", "tombstone", "statue", "husband", "victim", "robin", "robber", "custard"], "key_times": [3042, 3189, 3293, 3405, 3473, 3553, 3683, 4291, 4422, 4550, 4759, 4893, 5006, 5085, 5295, 6864, 6954, 7107, 7204, 7288, 7365, 7441, 7515, 7685, 7753, 7898, 8037, 8147, 8255, 8444, 8539, 8669, 8757, 8813, 8887, 9363, 10049, 10337, 10479, 10582, 10656, 10746, 10879, 10951, 11050, 11137, 11214, 11306, 11566, 11693, 11841, 11927, 12005, 12181, 12317, 12434, 12500, 12611, 12830, 12938, 13008, 13065, 13149, 13607, 16870, 16984, 17107, 17222, 17333, 17433, 17596, 19873, 20023, 20112, 20244, 20351, 20441, 20535, 20659, 20912, 20999, 21071, 21224, 21311, 21388, 21586, 22753, 22882, 22972, 23079, 23131, 23333, 27297, 27391, 27528, 27657, 27809, 27891, 28033, 33911, 33989, 34076, 34240, 34371, 34800, 34967, 35035, 35233, 35354], "trial_type": "free-recall", "conditions": [24, 800, "a", 12000], "internal_node_id": "0.0-157.0-0.0", "key_presses": [71, 79, 66, 76, 73, 78, 32, 83, 72, 69, 82, 82, 73, 70, 13, 83, 85, 78, 82, 73, 83, 69, 13, 72, 69, 68, 71, 69, 13, 70, 76, 79, 87, 69, 82, 13, 83, 8, 66, 79, 89, 70, 82, 73, 69, 78, 68, 13, 80, 73, 65, 78, 79, 13, 84, 79, 77, 66, 83, 84, 79, 78, 69, 13, 83, 84, 65, 84, 85, 69, 13, 72, 85, 83, 66, 65, 78, 68, 13, 86, 73, 67, 84, 73, 77, 13, 82, 79, 66, 73, 78, 13, 82, 79, 66, 66, 69, 82, 13, 67, 85, 83, 84, 8, 84, 65, 82, 68, 13], "trial": 5, "time_elapsed": 987322, "type": "FREE_RECALL", "trial_index": 211}, "uniqueid": "MTK2901:31UV0MXWNRJEI6OTAUUMJUGSCWRI5A", "dateTime": 1519584807972}, {"current_trial": 212, "trialdata": {"rt": 1106, "trial_type": "text", "internal_node_id": "0.0-158.0", "time_elapsed": 990468, "key_press": 13, "type": "INSTRUCTIONS", "trial_index": 212}, "uniqueid": "MTK2901:31UV0MXWNRJEI6OTAUUMJUGSCWRI5A", "dateTime": 1519584811085}, {"current_trial": 213, "trialdata": {"rt": [5044, 7428, 10235, 12436, 14082, 16425, 19308, 20982, 22533], "trial_type": "math-distractor", "key_times": [4566, 4688, 5044, 7232, 7428, 10036, 10073, 10235, 12166, 12293, 12436, 13621, 13879, 14082, 16229, 16333, 16425, 18091, 18374, 18888, 19168, 19308, 20661, 20817, 20982, 22203, 22410, 22533], "responses": ["24", "8", "12", "19", "17", "21", "19", "13", "18"], "num2": [9, 3, 3, 6, 7, 8, 6, 7, 9, 8], "num3": [7, 4, 5, 7, 6, 7, 5, 1, 1, 7], "conditions": [24, 1600, "a", 24000], "internal_node_id": "0.0-159.0", "key_presses": [50, 52, 13, 56, 13, 49, 50, 13, 49, 57, 13, 49, 55, 13, 50, 49, 13, 49, 48, 8, 57, 13, 49, 51, 13, 49, 56, 13], "trial": 6, "time_elapsed": 1016507, "type": "DISTRACTOR", "trial_index": 213, "num1": [8, 1, 4, 6, 4, 6, 8, 5, 8, 6]}, "uniqueid": "MTK2901:31UV0MXWNRJEI6OTAUUMJUGSCWRI5A", "dateTime": 1519584837124}, {"current_trial": 214, "trialdata": {"rt": -1, "trial_type": "single-stim", "stimulus": "<p id=\"stim\">10</p>", "internal_node_id": "0.0-160.0-0.0", "time_elapsed": 1019524, "key_press": -1, "trial_index": 214}, "uniqueid": "MTK2901:31UV0MXWNRJEI6OTAUUMJUGSCWRI5A", "dateTime": 1519584840141}, {"current_trial": 215, "trialdata": {"rt": -1, "trial_type": "single-stim", "stimulus": "<p id=\"stim\">9</p>", "internal_node_id": "0.0-160.0-1.0", "time_elapsed": 1020540, "key_press": -1, "trial_index": 215}, "uniqueid": "MTK2901:31UV0MXWNRJEI6OTAUUMJUGSCWRI5A", "dateTime": 1519584841157}, {"current_trial": 216, "trialdata": {"rt": -1, "trial_type": "single-stim", "stimulus": "<p id=\"stim\">8</p>", "internal_node_id": "0.0-160.0-2.0", "time_elapsed": 1021558, "key_press": -1, "trial_index": 216}, "uniqueid": "MTK2901:31UV0MXWNRJEI6OTAUUMJUGSCWRI5A", "dateTime": 1519584842175}, {"current_trial": 217, "trialdata": {"rt": -1, "trial_type": "single-stim", "stimulus": "<p id=\"stim\">7</p>", "internal_node_id": "0.0-160.0-3.0", "time_elapsed": 1022577, "key_press": -1, "trial_index": 217}, "uniqueid": "MTK2901:31UV0MXWNRJEI6OTAUUMJUGSCWRI5A", "dateTime": 1519584843195}, {"current_trial": 218, "trialdata": {"rt": -1, "trial_type": "single-stim", "stimulus": "<p id=\"stim\">6</p>", "internal_node_id": "0.0-160.0-4.0", "time_elapsed": 1023589, "key_press": -1, "trial_index": 218}, "uniqueid": "MTK2901:31UV0MXWNRJEI6OTAUUMJUGSCWRI5A", "dateTime": 1519584844206}, {"current_trial": 219, "trialdata": {"rt": -1, "trial_type": "single-stim", "stimulus": "<p id=\"stim\">5</p>", "internal_node_id": "0.0-160.0-5.0", "time_elapsed": 1024593, "key_press": -1, "trial_index": 219}, "uniqueid": "MTK2901:31UV0MXWNRJEI6OTAUUMJUGSCWRI5A", "dateTime": 1519584845211}, {"current_trial": 220, "trialdata": {"rt": -1, "trial_type": "single-stim", "stimulus": "<p id=\"stim\">4</p>", "internal_node_id": "0.0-160.0-6.0", "time_elapsed": 1025599, "key_press": -1, "trial_index": 220}, "uniqueid": "MTK2901:31UV0MXWNRJEI6OTAUUMJUGSCWRI5A", "dateTime": 1519584846216}, {"current_trial": 221, "trialdata": {"rt": -1, "trial_type": "single-stim", "stimulus": "<p id=\"stim\">3</p>", "internal_node_id": "0.0-160.0-7.0", "time_elapsed": 1026613, "key_press": -1, "trial_index": 221}, "uniqueid": "MTK2901:31UV0MXWNRJEI6OTAUUMJUGSCWRI5A", "dateTime": 1519584847231}, {"current_trial": 222, "trialdata": {"rt": -1, "trial_type": "single-stim", "stimulus": "<p id=\"stim\">2</p>", "internal_node_id": "0.0-160.0-8.0", "time_elapsed": 1027629, "key_press": -1, "trial_index": 222}, "uniqueid": "MTK2901:31UV0MXWNRJEI6OTAUUMJUGSCWRI5A", "dateTime": 1519584848246}, {"current_trial": 223, "trialdata": {"rt": -1, "trial_type": "single-stim", "stimulus": "<p id=\"stim\">1</p>", "internal_node_id": "0.0-160.0-9.0", "time_elapsed": 1028639, "key_press": -1, "trial_index": 223}, "uniqueid": "MTK2901:31UV0MXWNRJEI6OTAUUMJUGSCWRI5A", "dateTime": 1519584849255}, {"current_trial": 224, "trialdata": {"rt": -1, "trial_type": "single-stim", "stimulus": "<p id=\"stim\">+</p>", "internal_node_id": "0.0-161.0-0.0", "time_elapsed": 1030155, "key_press": -1, "type": "FIXATION", "trial_index": 224}, "uniqueid": "MTK2901:31UV0MXWNRJEI6OTAUUMJUGSCWRI5A", "dateTime": 1519584850773}, {"current_trial": 225, "trialdata": {"rt": -1000, "trial_type": "single-audio", "word": "driver", "stimulus": "/static/audio/wordpool/DRIVER.wav", "conditions": [24, 1600, "a", 24000], "internal_node_id": "0.0-162.0", "trial": 6, "time_elapsed": 1032607, "serialpos": 0, "key_press": -1, "wordID": 498, "type": "PRES_AUD", "trial_index": 225}, "uniqueid": "MTK2901:31UV0MXWNRJEI6OTAUUMJUGSCWRI5A", "dateTime": 1519584853224}, {"current_trial": 226, "trialdata": {"rt": -1000, "trial_type": "single-audio", "word": "ozone", "stimulus": "/static/audio/wordpool/OZONE.wav", "conditions": [24, 1600, "a", 24000], "internal_node_id": "0.0-163.0", "trial": 6, "time_elapsed": 1035241, "serialpos": 1, "key_press": -1, "wordID": 995, "type": "PRES_AUD", "trial_index": 226}, "uniqueid": "MTK2901:31UV0MXWNRJEI6OTAUUMJUGSCWRI5A", "dateTime": 1519584855858}, {"current_trial": 227, "trialdata": {"rt": -1000, "trial_type": "single-audio", "word": "costume", "stimulus": "/static/audio/wordpool/COSTUME.wav", "conditions": [24, 1600, "a", 24000], "internal_node_id": "0.0-164.0", "trial": 6, "time_elapsed": 1037901, "serialpos": 2, "key_press": -1, "wordID": 382, "type": "PRES_AUD", "trial_index": 227}, "uniqueid": "MTK2901:31UV0MXWNRJEI6OTAUUMJUGSCWRI5A", "dateTime": 1519584858518}, {"current_trial": 228, "trialdata": {"rt": -1000, "trial_type": "single-audio", "word": "pizza", "stimulus": "/static/audio/wordpool/PIZZA.wav", "conditions": [24, 1600, "a", 24000], "internal_node_id": "0.0-165.0", "trial": 6, "time_elapsed": 1040423, "serialpos": 3, "key_press": -1, "wordID": 1078, "type": "PRES_AUD", "trial_index": 228}, "uniqueid": "MTK2901:31UV0MXWNRJEI6OTAUUMJUGSCWRI5A", "dateTime": 1519584861040}, {"current_trial": 229, "trialdata": {"rt": -1000, "trial_type": "single-audio", "word": "plate", "stimulus": "/static/audio/wordpool/PLATE.wav", "conditions": [24, 1600, "a", 24000], "internal_node_id": "0.0-166.0", "trial": 6, "time_elapsed": 1042996, "serialpos": 4, "key_press": -1, "wordID": 1085, "type": "PRES_AUD", "trial_index": 229}, "uniqueid": "MTK2901:31UV0MXWNRJEI6OTAUUMJUGSCWRI5A", "dateTime": 1519584863614}, {"current_trial": 230, "trialdata": {"rt": -1000, "trial_type": "single-audio", "word": "uncle", "stimulus": "/static/audio/wordpool/UNCLE.wav", "conditions": [24, 1600, "a", 24000], "internal_node_id": "0.0-167.0", "trial": 6, "time_elapsed": 1045519, "serialpos": 5, "key_press": -1, "wordID": 1535, "type": "PRES_AUD", "trial_index": 230}, "uniqueid": "MTK2901:31UV0MXWNRJEI6OTAUUMJUGSCWRI5A", "dateTime": 1519584866137}, {"current_trial": 231, "trialdata": {"rt": -1000, "trial_type": "single-audio", "word": "daughter", "stimulus": "/static/audio/wordpool/DAUGHTER.wav", "conditions": [24, 1600, "a", 24000], "internal_node_id": "0.0-168.0", "trial": 6, "time_elapsed": 1048211, "serialpos": 6, "key_press": -1, "wordID": 441, "type": "PRES_AUD", "trial_index": 231}, "uniqueid": "MTK2901:31UV0MXWNRJEI6OTAUUMJUGSCWRI5A", "dateTime": 1519584868829}, {"current_trial": 232, "trialdata": {"rt": -1000, "trial_type": "single-audio", "word": "shirt", "stimulus": "/static/audio/wordpool/SHIRT.wav", "conditions": [24, 1600, "a", 24000], "internal_node_id": "0.0-169.0", "trial": 6, "time_elapsed": 1050823, "serialpos": 7, "key_press": -1, "wordID": 1286, "type": "PRES_AUD", "trial_index": 232}, "uniqueid": "MTK2901:31UV0MXWNRJEI6OTAUUMJUGSCWRI5A", "dateTime": 1519584871440}, {"current_trial": 233, "trialdata": {"rt": -1000, "trial_type": "single-audio", "word": "subway", "stimulus": "/static/audio/wordpool/SUBWAY.wav", "conditions": [24, 1600, "a", 24000], "internal_node_id": "0.0-170.0", "trial": 6, "time_elapsed": 1053289, "serialpos": 8, "key_press": -1, "wordID": 1399, "type": "PRES_AUD", "trial_index": 233}, "uniqueid": "MTK2901:31UV0MXWNRJEI6OTAUUMJUGSCWRI5A", "dateTime": 1519584873906}, {"current_trial": 234, "trialdata": {"rt": -1000, "trial_type": "single-audio", "word": "laser", "stimulus": "/static/audio/wordpool/LASER.wav", "conditions": [24, 1600, "a", 24000], "internal_node_id": "0.0-171.0", "trial": 6, "time_elapsed": 1055961, "serialpos": 9, "key_press": -1, "wordID": 800, "type": "PRES_AUD", "trial_index": 234}, "uniqueid": "MTK2901:31UV0MXWNRJEI6OTAUUMJUGSCWRI5A", "dateTime": 1519584876579}, {"current_trial": 235, "trialdata": {"rt": -1000, "trial_type": "single-audio", "word": "doughnut", "stimulus": "/static/audio/wordpool/DOUGHNUT.wav", "conditions": [24, 1600, "a", 24000], "internal_node_id": "0.0-172.0", "trial": 6, "time_elapsed": 1058712, "serialpos": 10, "key_press": -1, "wordID": 489, "type": "PRES_AUD", "trial_index": 235}, "uniqueid": "MTK2901:31UV0MXWNRJEI6OTAUUMJUGSCWRI5A", "dateTime": 1519584879329}, {"current_trial": 236, "trialdata": {"rt": -1000, "trial_type": "single-audio", "word": "truck", "stimulus": "/static/audio/wordpool/TRUCK.wav", "conditions": [24, 1600, "a", 24000], "internal_node_id": "0.0-173.0", "trial": 6, "time_elapsed": 1061197, "serialpos": 11, "key_press": -1, "wordID": 1511, "type": "PRES_AUD", "trial_index": 236}, "uniqueid": "MTK2901:31UV0MXWNRJEI6OTAUUMJUGSCWRI5A", "dateTime": 1519584881814}, {"current_trial": 237, "trialdata": {"rt": -1000, "trial_type": "single-audio", "word": "fox", "stimulus": "/static/audio/wordpool/FOX.wav", "conditions": [24, 1600, "a", 24000], "internal_node_id": "0.0-174.0", "trial": 6, "time_elapsed": 1063766, "serialpos": 12, "key_press": -1, "wordID": 597, "type": "PRES_AUD", "trial_index": 237}, "uniqueid": "MTK2901:31UV0MXWNRJEI6OTAUUMJUGSCWRI5A", "dateTime": 1519584884383}, {"current_trial": 238, "trialdata": {"rt": -1000, "trial_type": "single-audio", "word": "bank", "stimulus": "/static/audio/wordpool/BANK.wav", "conditions": [24, 1600, "a", 24000], "internal_node_id": "0.0-175.0", "trial": 6, "time_elapsed": 1066328, "serialpos": 13, "key_press": -1, "wordID": 82, "type": "PRES_AUD", "trial_index": 238}, "uniqueid": "MTK2901:31UV0MXWNRJEI6OTAUUMJUGSCWRI5A", "dateTime": 1519584886945}, {"current_trial": 239, "trialdata": {"rt": -1000, "trial_type": "single-audio", "word": "lettuce", "stimulus": "/static/audio/wordpool/LETTUCE.wav", "conditions": [24, 1600, "a", 24000], "internal_node_id": "0.0-176.0", "trial": 6, "time_elapsed": 1068783, "serialpos": 14, "key_press": -1, "wordID": 813, "type": "PRES_AUD", "trial_index": 239}, "uniqueid": "MTK2901:31UV0MXWNRJEI6OTAUUMJUGSCWRI5A", "dateTime": 1519584889400}, {"current_trial": 240, "trialdata": {"rt": -1000, "trial_type": "single-audio", "word": "toaster", "stimulus": "/static/audio/wordpool/TOASTER.wav", "conditions": [24, 1600, "a", 24000], "internal_node_id": "0.0-177.0", "trial": 6, "time_elapsed": 1071191, "serialpos": 15, "key_press": -1, "wordID": 1471, "type": "PRES_AUD", "trial_index": 240}, "uniqueid": "MTK2901:31UV0MXWNRJEI6OTAUUMJUGSCWRI5A", "dateTime": 1519584891808}, {"current_trial": 241, "trialdata": {"rt": -1000, "trial_type": "single-audio", "word": "creature", "stimulus": "/static/audio/wordpool/CREATURE.wav", "conditions": [24, 1600, "a", 24000], "internal_node_id": "0.0-178.0", "trial": 6, "time_elapsed": 1073818, "serialpos": 16, "key_press": -1, "wordID": 402, "type": "PRES_AUD", "trial_index": 241}, "uniqueid": "MTK2901:31UV0MXWNRJEI6OTAUUMJUGSCWRI5A", "dateTime": 1519584894435}, {"current_trial": 242, "trialdata": {"rt": -1000, "trial_type": "single-audio", "word": "orange", "stimulus": "/static/audio/wordpool/ORANGE.wav", "conditions": [24, 1600, "a", 24000], "internal_node_id": "0.0-179.0", "trial": 6, "time_elapsed": 1076600, "serialpos": 17, "key_press": -1, "wordID": 979, "type": "PRES_AUD", "trial_index": 242}, "uniqueid": "MTK2901:31UV0MXWNRJEI6OTAUUMJUGSCWRI5A", "dateTime": 1519584897218}, {"current_trial": 243, "trialdata": {"rt": -1000, "trial_type": "single-audio", "word": "pastry", "stimulus": "/static/audio/wordpool/PASTRY.wav", "conditions": [24, 1600, "a", 24000], "internal_node_id": "0.0-180.0", "trial": 6, "time_elapsed": 1079401, "serialpos": 18, "key_press": -1, "wordID": 1021, "type": "PRES_AUD", "trial_index": 243}, "uniqueid": "MTK2901:31UV0MXWNRJEI6OTAUUMJUGSCWRI5A", "dateTime": 1519584900018}, {"current_trial": 244, "trialdata": {"rt": -1000, "trial_type": "single-audio", "word": "garlic", "stimulus": "/static/audio/wordpool/GARLIC.wav", "conditions": [24, 1600, "a", 24000], "internal_node_id": "0.0-181.0", "trial": 6, "time_elapsed": 1081966, "serialpos": 19, "key_p