{"assignmentId": "3X73LLYYQ2LIC0JF8C8NDZFZ31IHN6", "workerId": "MTK2857", "questiondata": {"origin": "United States", "strat-rehearsal": "20", "marital": "Married/Domestic Partnership", "education": "Bachelor's degree", "ethnicity": "Not Hispanic", "color_depth": 24, "distracted": "No", "wrote-notes": "No", "strat-other": "", "screen_width": 1366, "avail_screen_width": 1366, "avail_screen_height": 728, "strat-image": "100", "language": "English", "gender": "Female", "age": "32", "gender_other": "", "race": ["White"], "strat-categorize": "42", "pixel_depth": 24, "strat-spatial": "100", "strat-story": "100", "race_other": "", "screen_height": 768}, "bonus": 0, "hitId": "3UY4PIS8QRS5L507GL00WS381001NL", "counterbalance": 2136, "useragent": "Mozilla/5.0 (Windows NT 10.0; Win64; x64) AppleWebKit/537.36 (KHTML, like Gecko) Chrome/64.0.3282.167 Safari/537.36", "eventdata": [{"eventtype": "initialized", "interval": 0, "value": null, "timestamp": 1519414448732}, {"eventtype": "window_resize", "interval": 1, "value": [1366, 721], "timestamp": 1519414448733}, {"eventtype": "focus", "interval": 2593138, "value": "off", "timestamp": 1519417041871}, {"eventtype": "focus", "interval": 8832, "value": "on", "timestamp": 1519417050703}], "data": [{"current_trial": 0, "trialdata": {"rt": 2038, "trial_type": "text", "internal_node_id": "0.0-0.0", "time_elapsed": 2040, "key_press": 72, "type": "INSTRUCTIONS", "trial_index": 0}, "uniqueid": "MTK2857:3X73LLYYQ2LIC0JF8C8NDZFZ31IHN6", "dateTime": 1519414451413}, {"current_trial": 1, "trialdata": {"rt": 16930, "trial_type": "text", "internal_node_id": "0.0-1.0", "time_elapsed": 18972, "key_press": 75, "type": "INSTRUCTIONS", "trial_index": 1}, "uniqueid": "MTK2857:3X73LLYYQ2LIC0JF8C8NDZFZ31IHN6", "dateTime": 1519414468344}, {"current_trial": 2, "trialdata": {"rt": [19064], "trial_type": "audio-test", "responses": ["ocean"], "internal_node_id": "0.0-2.0", "time_elapsed": 38049, "type": "AUDIO_TEST", "trial_index": 2}, "uniqueid": "MTK2857:3X73LLYYQ2LIC0JF8C8NDZFZ31IHN6", "dateTime": 1519414487422}, {"current_trial": 3, "trialdata": {"rt": [7423], "trial_type": "audio-test", "responses": ["crystal"], "internal_node_id": "0.0-3.0", "time_elapsed": 45481, "type": "AUDIO_TEST", "trial_index": 3}, "uniqueid": "MTK2857:3X73LLYYQ2LIC0JF8C8NDZFZ31IHN6", "dateTime": 1519414494853}, {"current_trial": 4, "trialdata": {"rt": [63292], "trial_type": "audio-test", "responses": ["spice"], "internal_node_id": "0.0-4.0", "time_elapsed": 108780, "type": "AUDIO_TEST", "trial_index": 4}, "uniqueid": "MTK2857:3X73LLYYQ2LIC0JF8C8NDZFZ31IHN6", "dateTime": 1519414558152}, {"current_trial": 5, "trialdata": {"rt": 19010, "trial_type": "survey-text", "responses": "{\"Q0\":\"11:00pm\",\"Q1\":\"5:15am\",\"Q2\":\"4\"}", "internal_node_id": "0.0-5.0", "time_elapsed": 128545, "type": "SLEEP_SURVEY", "trial_index": 5}, "uniqueid": "MTK2857:3X73LLYYQ2LIC0JF8C8NDZFZ31IHN6", "dateTime": 1519414577917}, {"current_trial": 6, "trialdata": {"rt": 58285, "trial_type": "text", "internal_node_id": "0.0-6.0", "time_elapsed": 187831, "key_press": 73, "type": "INSTRUCTIONS", "trial_index": 6}, "uniqueid": "MTK2857:3X73LLYYQ2LIC0JF8C8NDZFZ31IHN6", "dateTime": 1519414637204}, {"current_trial": 7, "trialdata": {"rt": 15442, "trial_type": "text", "internal_node_id": "0.0-7.0", "time_elapsed": 203777, "key_press": 73, "type": "INSTRUCTIONS", "trial_index": 7}, "uniqueid": "MTK2857:3X73LLYYQ2LIC0JF8C8NDZFZ31IHN6", "dateTime": 1519414653149}, {"current_trial": 8, "trialdata": {"rt": 16179, "trial_type": "text", "internal_node_id": "0.0-8.0", "time_elapsed": 220459, "key_press": 73, "type": "INSTRUCTIONS", "trial_index": 8}, "uniqueid": "MTK2857:3X73LLYYQ2LIC0JF8C8NDZFZ31IHN6", "dateTime": 1519414669831}, {"current_trial": 9, "trialdata": {"rt": [4625, 6175, 8696, 11612, 14305, 17130], "trial_type": "math-distractor", "key_times": [4157, 4278, 4625, 5817, 6004, 6175, 8345, 8552, 8696, 11270, 11385, 11612, 13929, 14046, 14305, 16854, 16931, 17130], "responses": ["17", "11", "11", "13", "18", "21"], "num2": [7, 4, 4, 6, 7, 9, 2], "num3": [6, 2, 4, 5, 5, 8, 6], "conditions": [18, 1200, "v", 18000], "internal_node_id": "0.0-9.0", "key_presses": [49, 55, 13, 49, 49, 13, 49, 49, 13, 49, 51, 13, 49, 56, 13, 50, 49, 13], "trial": 0, "time_elapsed": 239472, "type": "DISTRACTOR", "trial_index": 9, "num1": [4, 5, 3, 2, 6, 4, 4]}, "uniqueid": "MTK2857:3X73LLYYQ2LIC0JF8C8NDZFZ31IHN6", "dateTime": 1519414688844}, {"current_trial": 10, "trialdata": {"rt": -1, "trial_type": "single-stim", "stimulus": "<p id=\"stim\">10</p>", "internal_node_id": "0.0-10.0-0.0", "time_elapsed": 242477, "key_press": -1, "trial_index": 10}, "uniqueid": "MTK2857:3X73LLYYQ2LIC0JF8C8NDZFZ31IHN6", "dateTime": 1519414691849}, {"current_trial": 11, "trialdata": {"rt": -1, "trial_type": "single-stim", "stimulus": "<p id=\"stim\">9</p>", "internal_node_id": "0.0-10.0-1.0", "time_elapsed": 243481, "key_press": -1, "trial_index": 11}, "uniqueid": "MTK2857:3X73LLYYQ2LIC0JF8C8NDZFZ31IHN6", "dateTime": 1519414692853}, {"current_trial": 12, "trialdata": {"rt": -1, "trial_type": "single-stim", "stimulus": "<p id=\"stim\">8</p>", "internal_node_id": "0.0-10.0-2.0", "time_elapsed": 244484, "key_press": -1, "trial_index": 12}, "uniqueid": "MTK2857:3X73LLYYQ2LIC0JF8C8NDZFZ31IHN6", "dateTime": 1519414693856}, {"current_trial": 13, "trialdata": {"rt": -1, "trial_type": "single-stim", "stimulus": "<p id=\"stim\">7</p>", "internal_node_id": "0.0-10.0-3.0", "time_elapsed": 245487, "key_press": -1, "trial_index": 13}, "uniqueid": "MTK2857:3X73LLYYQ2LIC0JF8C8NDZFZ31IHN6", "dateTime": 1519414694859}, {"current_trial": 14, "trialdata": {"rt": -1, "trial_type": "single-stim", "stimulus": "<p id=\"stim\">6</p>", "internal_node_id": "0.0-10.0-4.0", "time_elapsed": 246488, "key_press": -1, "trial_index": 14}, "uniqueid": "MTK2857:3X73LLYYQ2LIC0JF8C8NDZFZ31IHN6", "dateTime": 1519414695860}, {"current_trial": 15, "trialdata": {"rt": -1, "trial_type": "single-stim", "stimulus": "<p id=\"stim\">5</p>", "internal_node_id": "0.0-10.0-5.0", "time_elapsed": 247491, "key_press": -1, "trial_index": 15}, "uniqueid": "MTK2857:3X73LLYYQ2LIC0JF8C8NDZFZ31IHN6", "dateTime": 1519414696863}, {"current_trial": 16, "trialdata": {"rt": -1, "trial_type": "single-stim", "stimulus": "<p id=\"stim\">4</p>", "internal_node_id": "0.0-10.0-6.0", "time_elapsed": 248493, "key_press": -1, "trial_index": 16}, "uniqueid": "MTK2857:3X73LLYYQ2LIC0JF8C8NDZFZ31IHN6", "dateTime": 1519414697865}, {"current_trial": 17, "trialdata": {"rt": -1, "trial_type": "single-stim", "stimulus": "<p id=\"stim\">3</p>", "internal_node_id": "0.0-10.0-7.0", "time_elapsed": 249497, "key_press": -1, "trial_index": 17}, "uniqueid": "MTK2857:3X73LLYYQ2LIC0JF8C8NDZFZ31IHN6", "dateTime": 1519414698869}, {"current_trial": 18, "trialdata": {"rt": -1, "trial_type": "single-stim", "stimulus": "<p id=\"stim\">2</p>", "internal_node_id": "0.0-10.0-8.0", "time_elapsed": 250498, "key_press": -1, "trial_index": 18}, "uniqueid": "MTK2857:3X73LLYYQ2LIC0JF8C8NDZFZ31IHN6", "dateTime": 1519414699870}, {"current_trial": 19, "trialdata": {"rt": -1, "trial_type": "single-stim", "stimulus": "<p id=\"stim\">1</p>", "internal_node_id": "0.0-10.0-9.0", "time_elapsed": 251500, "key_press": -1, "trial_index": 19}, "uniqueid": "MTK2857:3X73LLYYQ2LIC0JF8C8NDZFZ31IHN6", "dateTime": 1519414700872}, {"current_trial": 20, "trialdata": {"rt": -1, "trial_type": "single-stim", "stimulus": "<p id=\"stim\">+</p>", "internal_node_id": "0.0-11.0-0.0", "time_elapsed": 253002, "key_press": -1, "type": "FIXATION", "trial_index": 20}, "uniqueid": "MTK2857:3X73LLYYQ2LIC0JF8C8NDZFZ31IHN6", "dateTime": 1519414702374}, {"current_trial": 21, "trialdata": {"rt": -1, "trial_type": "single-stim", "word": "powder", "stimulus": "<p id=\"stim\">POWDER</p>", "conditions": [18, 1200, "v", 18000], "internal_node_id": "0.0-12.0", "trial": 0, "time_elapsed": 254205, "serialpos": 0, "key_press": -1, "wordID": 1116, "type": "PRES_VIS", "trial_index": 21}, "uniqueid": "MTK2857:3X73LLYYQ2LIC0JF8C8NDZFZ31IHN6", "dateTime": 1519414703577}, {"current_trial": 22, "trialdata": {"rt": -1, "trial_type": "single-stim", "word": "mammal", "stimulus": "<p id=\"stim\">MAMMAL</p>", "conditions": [18, 1200, "v", 18000], "internal_node_id": "0.0-13.0", "trial": 0, "time_elapsed": 256547, "serialpos": 1, "key_press": -1, "wordID": 860, "type": "PRES_VIS", "trial_index": 22}, "uniqueid": "MTK2857:3X73LLYYQ2LIC0JF8C8NDZFZ31IHN6", "dateTime": 1519414705919}, {"current_trial": 23, "trialdata": {"rt": -1, "trial_type": "single-stim", "word": "sidewalk", "stimulus": "<p id=\"stim\">SIDEWALK</p>", "conditions": [18, 1200, "v", 18000], "internal_node_id": "0.0-14.0", "trial": 0, "time_elapsed": 258810, "serialpos": 2, "key_press": -1, "wordID": 1302, "type": "PRES_VIS", "trial_index": 23}, "uniqueid": "MTK2857:3X73LLYYQ2LIC0JF8C8NDZFZ31IHN6", "dateTime": 1519414708182}, {"current_trial": 24, "trialdata": {"rt": -1, "trial_type": "single-stim", "word": "tutu", "stimulus": "<p id=\"stim\">TUTU</p>", "conditions": [18, 1200, "v", 18000], "internal_node_id": "0.0-15.0", "trial": 0, "time_elapsed": 261184, "serialpos": 3, "key_press": -1, "wordID": 1523, "type": "PRES_VIS", "trial_index": 24}, "uniqueid": "MTK2857:3X73LLYYQ2LIC0JF8C8NDZFZ31IHN6", "dateTime": 1519414710556}, {"current_trial": 25, "trialdata": {"rt": -1, "trial_type": "single-stim", "word": "mars", "stimulus": "<p id=\"stim\">MARS</p>", "conditions": [18, 1200, "v", 18000], "internal_node_id": "0.0-16.0", "trial": 0, "time_elapsed": 263261, "serialpos": 4, "key_press": -1, "wordID": 872, "type": "PRES_VIS", "trial_index": 25}, "uniqueid": "MTK2857:3X73LLYYQ2LIC0JF8C8NDZFZ31IHN6", "dateTime": 1519414712633}, {"current_trial": 26, "trialdata": {"rt": -1, "trial_type": "single-stim", "word": "spool", "stimulus": "<p id=\"stim\">SPOOL</p>", "conditions": [18, 1200, "v", 18000], "internal_node_id": "0.0-17.0", "trial": 0, "time_elapsed": 265286, "serialpos": 5, "key_press": -1, "wordID": 1355, "type": "PRES_VIS", "trial_index": 26}, "uniqueid": "MTK2857:3X73LLYYQ2LIC0JF8C8NDZFZ31IHN6", "dateTime": 1519414714658}, {"current_trial": 27, "trialdata": {"rt": -1, "trial_type": "single-stim", "word": "pork", "stimulus": "<p id=\"stim\">PORK</p>", "conditions": [18, 1200, "v", 18000], "internal_node_id": "0.0-18.0", "trial": 0, "time_elapsed": 267359, "serialpos": 6, "key_press": -1, "wordID": 1107, "type": "PRES_VIS", "trial_index": 27}, "uniqueid": "MTK2857:3X73LLYYQ2LIC0JF8C8NDZFZ31IHN6", "dateTime": 1519414716732}, {"current_trial": 28, "trialdata": {"rt": -1, "trial_type": "single-stim", "word": "cod", "stimulus": "<p id=\"stim\">COD</p>", "conditions": [18, 1200, "v", 18000], "internal_node_id": "0.0-19.0", "trial": 0, "time_elapsed": 269599, "serialpos": 7, "key_press": -1, "wordID": 339, "type": "PRES_VIS", "trial_index": 28}, "uniqueid": "MTK2857:3X73LLYYQ2LIC0JF8C8NDZFZ31IHN6", "dateTime": 1519414718971}, {"current_trial": 29, "trialdata": {"rt": -1, "trial_type": "single-stim", "word": "stamp", "stimulus": "<p id=\"stim\">STAMP</p>", "conditions": [18, 1200, "v", 18000], "internal_node_id": "0.0-20.0", "trial": 0, "time_elapsed": 271787, "serialpos": 8, "key_press": -1, "wordID": 1369, "type": "PRES_VIS", "trial_index": 29}, "uniqueid": "MTK2857:3X73LLYYQ2LIC0JF8C8NDZFZ31IHN6", "dateTime": 1519414721159}, {"current_trial": 30, "trialdata": {"rt": -1, "trial_type": "single-stim", "word": "snail", "stimulus": "<p id=\"stim\">SNAIL</p>", "conditions": [18, 1200, "v", 18000], "internal_node_id": "0.0-21.0", "trial": 0, "time_elapsed": 274153, "serialpos": 9, "key_press": -1, "wordID": 1331, "type": "PRES_VIS", "trial_index": 30}, "uniqueid": "MTK2857:3X73LLYYQ2LIC0JF8C8NDZFZ31IHN6", "dateTime": 1519414723525}, {"current_trial": 31, "trialdata": {"rt": -1, "trial_type": "single-stim", "word": "clamp", "stimulus": "<p id=\"stim\">CLAMP</p>", "conditions": [18, 1200, "v", 18000], "internal_node_id": "0.0-22.0", "trial": 0, "time_elapsed": 276455, "serialpos": 10, "key_press": -1, "wordID": 315, "type": "PRES_VIS", "trial_index": 31}, "uniqueid": "MTK2857:3X73LLYYQ2LIC0JF8C8NDZFZ31IHN6", "dateTime": 1519414725827}, {"current_trial": 32, "trialdata": {"rt": -1, "trial_type": "single-stim", "word": "thread", "stimulus": "<p id=\"stim\">THREAD</p>", "conditions": [18, 1200, "v", 18000], "internal_node_id": "0.0-23.0", "trial": 0, "time_elapsed": 278767, "serialpos": 11, "key_press": -1, "wordID": 1459, "type": "PRES_VIS", "trial_index": 32}, "uniqueid": "MTK2857:3X73LLYYQ2LIC0JF8C8NDZFZ31IHN6", "dateTime": 1519414728139}, {"current_trial": 33, "trialdata": {"rt": -1, "trial_type": "single-stim", "word": "hedge", "stimulus": "<p id=\"stim\">HEDGE</p>", "conditions": [18, 1200, "v", 18000], "internal_node_id": "0.0-24.0", "trial": 0, "time_elapsed": 280984, "serialpos": 12, "key_press": -1, "wordID": 698, "type": "PRES_VIS", "trial_index": 33}, "uniqueid": "MTK2857:3X73LLYYQ2LIC0JF8C8NDZFZ31IHN6", "dateTime": 1519414730357}, {"current_trial": 34, "trialdata": {"rt": -1, "trial_type": "single-stim", "word": "tunnel", "stimulus": "<p id=\"stim\">TUNNEL</p>", "conditions": [18, 1200, "v", 18000], "internal_node_id": "0.0-25.0", "trial": 0, "time_elapsed": 283274, "serialpos": 13, "key_press": -1, "wordID": 1518, "type": "PRES_VIS", "trial_index": 34}, "uniqueid": "MTK2857:3X73LLYYQ2LIC0JF8C8NDZFZ31IHN6", "dateTime": 1519414732647}, {"current_trial": 35, "trialdata": {"rt": -1, "trial_type": "single-stim", "word": "fox", "stimulus": "<p id=\"stim\">FOX</p>", "conditions": [18, 1200, "v", 18000], "internal_node_id": "0.0-26.0", "trial": 0, "time_elapsed": 285620, "serialpos": 14, "key_press": -1, "wordID": 597, "type": "PRES_VIS", "trial_index": 35}, "uniqueid": "MTK2857:3X73LLYYQ2LIC0JF8C8NDZFZ31IHN6", "dateTime": 1519414734992}, {"current_trial": 36, "trialdata": {"rt": -1, "trial_type": "single-stim", "word": "scissors", "stimulus": "<p id=\"stim\">SCISSORS</p>", "conditions": [18, 1200, "v", 18000], "internal_node_id": "0.0-27.0", "trial": 0, "time_elapsed": 288010, "serialpos": 15, "key_press": -1, "wordID": 1249, "type": "PRES_VIS", "trial_index": 36}, "uniqueid": "MTK2857:3X73LLYYQ2LIC0JF8C8NDZFZ31IHN6", "dateTime": 1519414737383}, {"current_trial": 37, "trialdata": {"rt": -1, "trial_type": "single-stim", "word": "venus", "stimulus": "<p id=\"stim\">VENUS</p>", "conditions": [18, 1200, "v", 18000], "internal_node_id": "0.0-28.0", "trial": 0, "time_elapsed": 290322, "serialpos": 16, "key_press": -1, "wordID": 1556, "type": "PRES_VIS", "trial_index": 37}, "uniqueid": "MTK2857:3X73LLYYQ2LIC0JF8C8NDZFZ31IHN6", "dateTime": 1519414739695}, {"current_trial": 38, "trialdata": {"rt": -1, "trial_type": "single-stim", "word": "robin", "stimulus": "<p id=\"stim\">ROBIN</p>", "conditions": [18, 1200, "v", 18000], "internal_node_id": "0.0-29.0", "trial": 0, "time_elapsed": 292653, "serialpos": 17, "key_press": -1, "wordID": 1198, "type": "PRES_VIS", "trial_index": 38}, "uniqueid": "MTK2857:3X73LLYYQ2LIC0JF8C8NDZFZ31IHN6", "dateTime": 1519414742025}, {"current_trial": 39, "trialdata": {"rt": -1, "trial_type": "single-stim", "stimulus": "", "internal_node_id": "0.0-30.0-0.0", "time_elapsed": 294868, "key_press": -1, "type": "PRE_RECALL_DELAY", "trial_index": 39}, "uniqueid": "MTK2857:3X73LLYYQ2LIC0JF8C8NDZFZ31IHN6", "dateTime": 1519414744241}, {"current_trial": 40, "trialdata": {"rt": -1000, "trial_type": "single-audio", "stimulus": "/static/audio/400Hz.wav", "internal_node_id": "0.0-31.0", "time_elapsed": 295379, "key_press": -1, "type": "PRE_RECALL_ALERT", "trial_index": 40}, "uniqueid": "MTK2857:3X73LLYYQ2LIC0JF8C8NDZFZ31IHN6", "dateTime": 1519414744751}, {"current_trial": 41, "trialdata": {"rt": [1692, 2593, 5628, 6976, 8577, 10428, 11598, 13001, 22552, 27421, 33682, 41957], "recwords": ["robin", "venus", "powdery", "mars", "sidewalk", "hedge", "scissors", "spool", "pork", "tunnel", "mammal", "stamp"], "key_times": [966, 1082, 1193, 1316, 1430, 1692, 2022, 2146, 2194, 2368, 2484, 2593, 3493, 4154, 4439, 4644, 4832, 4914, 5149, 5628, 6332, 6440, 6525, 6835, 6976, 7537, 7685, 7774, 7926, 8040, 8119, 8230, 8319, 8577, 9591, 9715, 9856, 10175, 10291, 10428, 10614, 10770, 10884, 11026, 11176, 11248, 11374, 11441, 11598, 12124, 12280, 12461, 12629, 12781, 13001, 21936, 22113, 22276, 22342, 22552, 26672, 26748, 26935, 27059, 27141, 27257, 27421, 32911, 33033, 33148, 33233, 33392, 33497, 33682, 33983, 40141, 40297, 40374, 40707, 40849, 40973, 41098, 41249, 41365, 41539, 41672, 41750, 41957], "trial_type": "free-recall", "conditions": [18, 1200, "v", 18000], "internal_node_id": "0.0-32.0-0.0", "key_presses": [82, 79, 66, 73, 78, 13, 86, 69, 78, 85, 83, 13, 80, 79, 87, 68, 69, 82, 89, 13, 77, 65, 82, 83, 13, 83, 73, 68, 69, 87, 65, 76, 75, 13, 72, 69, 68, 71, 69, 13, 83, 67, 73, 83, 83, 79, 82, 83, 13, 83, 80, 79, 79, 76, 13, 80, 79, 82, 75, 13, 84, 85, 78, 78, 69, 76, 13, 77, 65, 77, 77, 65, 76, 13, 79, 83, 84, 65, 8, 8, 8, 8, 83, 84, 65, 77, 80, 13], "trial": 0, "time_elapsed": 355388, "type": "FREE_RECALL", "trial_index": 41}, "uniqueid": "MTK2857:3X73LLYYQ2LIC0JF8C8NDZFZ31IHN6", "dateTime": 1519414804767}, {"current_trial": 42, "trialdata": {"rt": 7419, "trial_type": "text", "internal_node_id": "0.0-33.0", "time_elapsed": 364815, "key_press": 32, "type": "INSTRUCTIONS", "trial_index": 42}, "uniqueid": "MTK2857:3X73LLYYQ2LIC0JF8C8NDZFZ31IHN6", "dateTime": 1519414814187}, {"current_trial": 43, "trialdata": {"rt": [2800, 6310, 8368, 10569, 11962, 13949, 16658], "trial_type": "math-distractor", "key_times": [2395, 2516, 2800, 5985, 6096, 6310, 7995, 8115, 8368, 10202, 10352, 10569, 11653, 11770, 11962, 13803, 13949, 16446, 16523, 16658], "responses": ["13", "21", "18", "17", "19", "6", "15"], "num2": [3, 8, 5, 2, 7, 2, 9, 2], "num3": [7, 9, 4, 6, 5, 1, 1, 1], "conditions": [18, 1200, "v", 18000], "internal_node_id": "0.0-34.0", "key_presses": [49, 51, 13, 50, 49, 13, 49, 56, 13, 49, 55, 13, 49, 57, 13, 54, 13, 49, 53, 13], "trial": 1, "time_elapsed": 384822, "type": "DISTRACTOR", "trial_index": 43, "num1": [3, 4, 9, 9, 7, 3, 5, 4]}, "uniqueid": "MTK2857:3X73LLYYQ2LIC0JF8C8NDZFZ31IHN6", "dateTime": 1519414834195}, {"current_trial": 44, "trialdata": {"rt": -1, "trial_type": "single-stim", "stimulus": "<p id=\"stim\">10</p>", "internal_node_id": "0.0-35.0-0.0", "time_elapsed": 387825, "key_press": -1, "trial_index": 44}, "uniqueid": "MTK2857:3X73LLYYQ2LIC0JF8C8NDZFZ31IHN6", "dateTime": 1519414837197}, {"current_trial": 45, "trialdata": {"rt": -1, "trial_type": "single-stim", "stimulus": "<p id=\"stim\">9</p>", "internal_node_id": "0.0-35.0-1.0", "time_elapsed": 388826, "key_press": -1, "trial_index": 45}, "uniqueid": "MTK2857:3X73LLYYQ2LIC0JF8C8NDZFZ31IHN6", "dateTime": 1519414838198}, {"current_trial": 46, "trialdata": {"rt": -1, "trial_type": "single-stim", "stimulus": "<p id=\"stim\">8</p>", "internal_node_id": "0.0-35.0-2.0", "time_elapsed": 389828, "key_press": -1, "trial_index": 46}, "uniqueid": "MTK2857:3X73LLYYQ2LIC0JF8C8NDZFZ31IHN6", "dateTime": 1519414839200}, {"current_trial": 47, "trialdata": {"rt": -1, "trial_type": "single-stim", "stimulus": "<p id=\"stim\">7</p>", "internal_node_id": "0.0-35.0-3.0", "time_elapsed": 390831, "key_press": -1, "trial_index": 47}, "uniqueid": "MTK2857:3X73LLYYQ2LIC0JF8C8NDZFZ31IHN6", "dateTime": 1519414840203}, {"current_trial": 48, "trialdata": {"rt": -1, "trial_type": "single-stim", "stimulus": "<p id=\"stim\">6</p>", "internal_node_id": "0.0-35.0-4.0", "time_elapsed": 391832, "key_press": -1, "trial_index": 48}, "uniqueid": "MTK2857:3X73LLYYQ2LIC0JF8C8NDZFZ31IHN6", "dateTime": 1519414841205}, {"current_trial": 49, "trialdata": {"rt": -1, "trial_type": "single-stim", "stimulus": "<p id=\"stim\">5</p>", "internal_node_id": "0.0-35.0-5.0", "time_elapsed": 392835, "key_press": -1, "trial_index": 49}, "uniqueid": "MTK2857:3X73LLYYQ2LIC0JF8C8NDZFZ31IHN6", "dateTime": 1519414842207}, {"current_trial": 50, "trialdata": {"rt": -1, "trial_type": "single-stim", "stimulus": "<p id=\"stim\">4</p>", "internal_node_id": "0.0-35.0-6.0", "time_elapsed": 393837, "key_press": -1, "trial_index": 50}, "uniqueid": "MTK2857:3X73LLYYQ2LIC0JF8C8NDZFZ31IHN6", "dateTime": 1519414843210}, {"current_trial": 51, "trialdata": {"rt": -1, "trial_type": "single-stim", "stimulus": "<p id=\"stim\">3</p>", "internal_node_id": "0.0-35.0-7.0", "time_elapsed": 394839, "key_press": -1, "trial_index": 51}, "uniqueid": "MTK2857:3X73LLYYQ2LIC0JF8C8NDZFZ31IHN6", "dateTime": 1519414844211}, {"current_trial": 52, "trialdata": {"rt": -1, "trial_type": "single-stim", "stimulus": "<p id=\"stim\">2</p>", "internal_node_id": "0.0-35.0-8.0", "time_elapsed": 395841, "key_press": -1, "trial_index": 52}, "uniqueid": "MTK2857:3X73LLYYQ2LIC0JF8C8NDZFZ31IHN6", "dateTime": 1519414845214}, {"current_trial": 53, "trialdata": {"rt": 866, "trial_type": "single-stim", "stimulus": "<p id=\"stim\">1</p>", "internal_node_id": "0.0-35.0-9.0", "time_elapsed": 396843, "key_press": 73, "trial_index": 53}, "uniqueid": "MTK2857:3X73LLYYQ2LIC0JF8C8NDZFZ31IHN6", "dateTime": 1519414846215}, {"current_trial": 54, "trialdata": {"rt": -1, "trial_type": "single-stim", "stimulus": "<p id=\"stim\">+</p>", "internal_node_id": "0.0-36.0-0.0", "time_elapsed": 398346, "key_press": -1, "type": "FIXATION", "trial_index": 54}, "uniqueid": "MTK2857:3X73LLYYQ2LIC0JF8C8NDZFZ31IHN6", "dateTime": 1519414847718}, {"current_trial": 55, "trialdata": {"rt": -1, "trial_type": "single-stim", "word": "turtle", "stimulus": "<p id=\"stim\">TURTLE</p>", "conditions": [18, 1200, "v", 18000], "internal_node_id": "0.0-37.0", "trial": 1, "time_elapsed": 399548, "serialpos": 0, "key_press": -1, "wordID": 1521, "type": "PRES_VIS", "trial_index": 55}, "uniqueid": "MTK2857:3X73LLYYQ2LIC0JF8C8NDZFZ31IHN6", "dateTime": 1519414848920}, {"current_trial": 56, "trialdata": {"rt": -1, "trial_type": "single-stim", "word": "money", "stimulus": "<p id=\"stim\">MONEY</p>", "conditions": [18, 1200, "v", 18000], "internal_node_id": "0.0-38.0", "trial": 1, "time_elapsed": 401642, "serialpos": 1, "key_press": -1, "wordID": 907, "type": "PRES_VIS", "trial_index": 56}, "uniqueid": "MTK2857:3X73LLYYQ2LIC0JF8C8NDZFZ31IHN6", "dateTime": 1519414851014}, {"current_trial": 57, "trialdata": {"rt": -1, "trial_type": "single-stim", "word": "paddle", "stimulus": "<p id=\"stim\">PADDLE</p>", "conditions": [18, 1200, "v", 18000], "internal_node_id": "0.0-39.0", "trial": 1, "time_elapsed": 403868, "serialpos": 2, "key_press": -1, "wordID": 999, "type": "PRES_VIS", "trial_index": 57}, "uniqueid": "MTK2857:3X73LLYYQ2LIC0JF8C8NDZFZ31IHN6", "dateTime": 1519414853240}, {"current_trial": 58, "trialdata": {"rt": -1, "trial_type": "single-stim", "word": "bathtub", "stimulus": "<p id=\"stim\">BATHTUB</p>", "conditions": [18, 1200, "v", 18000], "internal_node_id": "0.0-40.0", "trial": 1, "time_elapsed": 406015, "serialpos": 3, "key_press": -1, "wordID": 99, "type": "PRES_VIS", "trial_index": 58}, "uniqueid": "MTK2857:3X73LLYYQ2LIC0JF8C8NDZFZ31IHN6", "dateTime": 1519414855387}, {"current_trial": 59, "trialdata": {"rt": -1, "trial_type": "single-stim", "word": "gazelle", "stimulus": "<p id=\"stim\">GAZELLE</p>", "conditions": [18, 1200, "v", 18000], "internal_node_id": "0.0-41.0", "trial": 1, "time_elapsed": 408262, "serialpos": 4, "key_press": -1, "wordID": 627, "type": "PRES_VIS", "trial_index": 59}, "uniqueid": "MTK2857:3X73LLYYQ2LIC0JF8C8NDZFZ31IHN6", "dateTime": 1519414857634}, {"current_trial": 60, "trialdata": {"rt": -1, "trial_type": "single-stim", "word": "asia", "stimulus": "<p id=\"stim\">ASIA</p>", "conditions": [18, 1200, "v", 18000], "internal_node_id": "0.0-42.0", "trial": 1, "time_elapsed": 410614, "serialpos": 5, "key_press": -1, "wordID": 45, "type": "PRES_VIS", "trial_index": 60}, "uniqueid": "MTK2857:3X73LLYYQ2LIC0JF8C8NDZFZ31IHN6", "dateTime": 1519414859987}, {"current_trial": 61, "trialdata": {"rt": -1, "trial_type": "single-stim", "word": "whistle", "stimulus": "<p id=\"stim\">WHISTLE</p>", "conditions": [18, 1200, "v", 18000], "internal_node_id": "0.0-43.0", "trial": 1, "time_elapsed": 412850, "serialpos": 6, "key_press": -1, "wordID": 1605, "type": "PRES_VIS", "trial_index": 61}, "uniqueid": "MTK2857:3X73LLYYQ2LIC0JF8C8NDZFZ31IHN6", "dateTime": 1519414862222}, {"current_trial": 62, "trialdata": {"rt": -1, "trial_type": "single-stim", "word": "dustpan", "stimulus": "<p id=\"stim\">DUSTPAN</p>", "conditions": [18, 1200, "v", 18000], "internal_node_id": "0.0-44.0", "trial": 1, "time_elapsed": 415205, "serialpos": 7, "key_press": -1, "wordID": 508, "type": "PRES_VIS", "trial_index": 62}, "uniqueid": "MTK2857:3X73LLYYQ2LIC0JF8C8NDZFZ31IHN6", "dateTime": 1519414864577}, {"current_trial": 63, "trialdata": {"rt": -1, "trial_type": "single-stim", "word": "hero", "stimulus": "<p id=\"stim\">HERO</p>", "conditions": [18, 1200, "v", 18000], "internal_node_id": "0.0-45.0", "trial": 1, "time_elapsed": 417352, "serialpos": 8, "key_press": -1, "wordID": 705, "type": "PRES_VIS", "trial_index": 63}, "uniqueid": "MTK2857:3X73LLYYQ2LIC0JF8C8NDZFZ31IHN6", "dateTime": 1519414866724}, {"current_trial": 64, "trialdata": {"rt": -1, "trial_type": "single-stim", "word": "plaza", "stimulus": "<p id=\"stim\">PLAZA</p>", "conditions": [18, 1200, "v", 18000], "internal_node_id": "0.0-46.0", "trial": 1, "time_elapsed": 419708, "serialpos": 9, "key_press": -1, "wordID": 1087, "type": "PRES_VIS", "trial_index": 64}, "uniqueid": "MTK2857:3X73LLYYQ2LIC0JF8C8NDZFZ31IHN6", "dateTime": 1519414869081}, {"current_trial": 65, "trialdata": {"rt": -1, "trial_type": "single-stim", "word": "office", "stimulus": "<p id=\"stim\">OFFICE</p>", "conditions": [18, 1200, "v", 18000], "internal_node_id": "0.0-47.0", "trial": 1, "time_elapsed": 422074, "serialpos": 10, "key_press": -1, "wordID": 971, "type": "PRES_VIS", "trial_index": 65}, "uniqueid": "MTK2857:3X73LLYYQ2LIC0JF8C8NDZFZ31IHN6", "dateTime": 1519414871447}, {"current_trial": 66, "trialdata": {"rt": -1, "trial_type": "single-stim", "word": "blackboard", "stimulus": "<p id=\"stim\">BLACKBOARD</p>", "conditions": [18, 1200, "v", 18000], "internal_node_id": "0.0-48.0", "trial": 1, "time_elapsed": 424412, "serialpos": 11, "key_press": -1, "wordID": 132, "type": "PRES_VIS", "trial_index": 66}, "uniqueid": "MTK2857:3X73LLYYQ2LIC0JF8C8NDZFZ31IHN6", "dateTime": 1519414873785}, {"current_trial": 67, "trialdata": {"rt": -1, "trial_type": "single-stim", "word": "laser", "stimulus": "<p id=\"stim\">LASER</p>", "conditions": [18, 1200, "v", 18000], "internal_node_id": "0.0-49.0", "trial": 1, "time_elapsed": 426440, "serialpos": 12, "key_press": -1, "wordID": 800, "type": "PRES_VIS", "trial_index": 67}, "uniqueid": "MTK2857:3X73LLYYQ2LIC0JF8C8NDZFZ31IHN6", "dateTime": 1519414875813}, {"current_trial": 68, "trialdata": {"rt": -1, "trial_type": "single-stim", "word": "female", "stimulus": "<p id=\"stim\">FEMALE</p>", "conditions": [18, 1200, "v", 18000], "internal_node_id": "0.0-50.0", "trial": 1, "time_elapsed": 428642, "serialpos": 13, "key_press": -1, "wordID": 558, "type": "PRES_VIS", "trial_index": 68}, "uniqueid": "MTK2857:3X73LLYYQ2LIC0JF8C8NDZFZ31IHN6", "dateTime": 1519414878018}, {"current_trial": 69, "trialdata": {"rt": -1, "trial_type": "single-stim", "word": "backbone", "stimulus": "<p id=\"stim\">BACKBONE</p>", "conditions": [18, 1200, "v", 18000], "internal_node_id": "0.0-51.0", "trial": 1, "time_elapsed": 430674, "serialpos": 14, "key_press": -1, "wordID": 65, "type": "PRES_VIS", "trial_index": 69}, "uniqueid": "MTK2857:3X73LLYYQ2LIC0JF8C8NDZFZ31IHN6", "dateTime": 1519414880047}, {"current_trial": 70, "trialdata": {"rt": -1, "trial_type": "single-stim", "word": "patient", "stimulus": "<p id=\"stim\">PATIENT</p>", "conditions": [18, 1200, "v", 18000], "internal_node_id": "0.0-52.0", "trial": 1, "time_elapsed": 433034, "serialpos": 15, "key_press": -1, "wordID": 1023, "type": "PRES_VIS", "trial_index": 70}, "uniqueid": "MTK2857:3X73LLYYQ2LIC0JF8C8NDZFZ31IHN6", "dateTime": 1519414882406}, {"current_trial": 71, "trialdata": {"rt": -1, "trial_type": "single-stim", "word": "slime", "stimulus": "<p id=\"stim\">SLIME</p>", "conditions": [18, 1200, "v", 18000], "internal_node_id": "0.0-53.0", "trial": 1, "time_elapsed": 435423, "serialpos": 16, "key_press": -1, "wordID": 1326, "type": "PRES_VIS", "trial_index": 71}, "uniqueid": "MTK2857:3X73LLYYQ2LIC0JF8C8NDZFZ31IHN6", "dateTime": 1519414884795}, {"current_trial": 72, "trialdata": {"rt": -1, "trial_type": "single-stim", "word": "message", "stimulus": "<p id=\"stim\">MESSAGE</p>", "conditions": [18, 1200, "v", 18000], "internal_node_id": "0.0-54.0", "trial": 1, "time_elapsed": 437573, "serialpos": 17, "key_press": -1, "wordID": 887, "type": "PRES_VIS", "trial_index": 72}, "uniqueid": "MTK2857:3X73LLYYQ2LIC0JF8C8NDZFZ31IHN6", "dateTime": 1519414886945}, {"current_trial": 73, "trialdata": {"rt": -1, "trial_type": "single-stim", "stimulus": "", "internal_node_id": "0.0-55.0-0.0", "time_elapsed": 439634, "key_press": -1, "type": "PRE_RECALL_DELAY", "trial_index": 73}, "uniqueid": "MTK2857:3X73LLYYQ2LIC0JF8C8NDZFZ31IHN6", "dateTime": 1519414889007}, {"current_trial": 74, "trialdata": {"rt": -1000, "trial_type": "single-audio", "stimulus": "/static/audio/400Hz.wav", "internal_node_id": "0.0-56.0", "time_elapsed": 440138, "key_press": -1, "type": "PRE_RECALL_ALERT", "trial_index": 74}, "uniqueid": "MTK2857:3X73LLYYQ2LIC0JF8C8NDZFZ31IHN6", "dateTime": 1519414889510}, {"current_trial": 75, "trialdata": {"rt": [2270, 3079, 4329, 6626, 8081, 9853, 10821, 13293, 15324, 16825, 17971, 19933, 25974, 26789, 27859], "recwords": ["message", "slime", "femal", "backbone", "patient", "turtle", "money", "paddled", "bathtub", "gazelle", "asia", "whistle", "dustpan", "hero", "plaza"], "key_times": [1120, 1559, 1636, 1826, 1903, 2010, 2091, 2270, 2517, 2674, 2733, 2850, 2938, 3079, 3295, 3413, 3534, 3605, 3716, 4329, 5357, 5477, 5580, 5696, 5860, 5991, 6068, 6121, 6626, 7040, 7158, 7273, 7614, 7740, 7860, 7930, 8081, 8813, 8937, 9153, 9364, 9494, 9616, 9853, 10213, 10329, 10430, 10483, 10603, 10821, 11147, 11274, 11369, 11538, 11656, 11769, 12567, 13293, 13822, 13979, 14089, 14173, 14827, 14954, 15063, 15324, 15838, 15967, 16212, 16288, 16447, 16567, 16645, 16825, 17508, 17627, 17741, 17851, 17971, 18169, 18295, 18364, 18491, 18554, 18765, 19207, 19933, 25124, 25237, 25318, 25399, 25573, 25696, 25794, 25974, 26229, 26343, 26410, 26561, 26789, 27002, 27187, 27309, 27515, 27706, 27859], "trial_type": "free-recall", "conditions": [18, 1200, "v", 18000], "internal_node_id": "0.0-57.0-0.0", "key_presses": [77, 69, 83, 83, 65, 71, 69, 13, 83, 76, 73, 77, 69, 13, 70, 69, 77, 65, 76, 13, 66, 65, 67, 75, 66, 79, 78, 69, 13, 80, 65, 84, 73, 69, 78, 84, 13, 84, 85, 82, 84, 76, 69, 13, 77, 79, 78, 69, 89, 13, 80, 65, 68, 68, 76, 69, 68, 13, 66, 65, 84, 72, 84, 85, 66, 13, 71, 65, 90, 69, 76, 76, 69, 13, 65, 83, 73, 65, 13, 87, 72, 73, 83, 84, 76, 69, 13, 68, 85, 83, 84, 80, 65, 78, 13, 72, 69, 82, 79, 13, 80, 76, 65, 90, 65, 13], "trial": 1, "time_elapsed": 500143, "type": "FREE_RECALL", "trial_index": 75}, "uniqueid": "MTK2857:3X73LLYYQ2LIC0JF8C8NDZFZ31IHN6", "dateTime": 1519414949517}, {"current_trial": 76, "trialdata": {"rt": 2502, "trial_type": "text", "internal_node_id": "0.0-58.0", "time_elapsed": 504649, "key_press": 74, "type": "INSTRUCTIONS", "trial_index": 76}, "uniqueid": "MTK2857:3X73LLYYQ2LIC0JF8C8NDZFZ31IHN6", "dateTime": 1519414954021}, {"current_trial": 77, "trialdata": {"rt": [3891, 5373, 10349], "trial_type": "math-distractor", "key_times": [3140, 3256, 3891, 5079, 5252, 5373, 9838, 10109, 10349], "responses": ["20", "11", "26"], "num2": [7, 5, 9, 9], "num3": [9, 5, 8, 1], "conditions": [12, 800, "v", 12000], "internal_node_id": "0.0-59.0", "key_presses": [50, 48, 13, 49, 49, 13, 50, 54, 13], "trial": 2, "time_elapsed": 517654, "type": "DISTRACTOR", "trial_index": 77, "num1": [4, 1, 9, 7]}, "uniqueid": "MTK2857:3X73LLYYQ2LIC0JF8C8NDZFZ31IHN6", "dateTime": 1519414967026}, {"current_trial": 78, "trialdata": {"rt": -1, "trial_type": "single-stim", "stimulus": "<p id=\"stim\">10</p>", "internal_node_id": "0.0-60.0-0.0", "time_elapsed": 520657, "key_press": -1, "trial_index": 78}, "uniqueid": "MTK2857:3X73LLYYQ2LIC0JF8C8NDZFZ31IHN6", "dateTime": 1519414970029}, {"current_trial": 79, "trialdata": {"rt": -1, "trial_type": "single-stim", "stimulus": "<p id=\"stim\">9</p>", "internal_node_id": "0.0-60.0-1.0", "time_elapsed": 521659, "key_press": -1, "trial_index": 79}, "uniqueid": "MTK2857:3X73LLYYQ2LIC0JF8C8NDZFZ31IHN6", "dateTime": 1519414971031}, {"current_trial": 80, "trialdata": {"rt": -1, "trial_type": "single-stim", "stimulus": "<p id=\"stim\">8</p>", "internal_node_id": "0.0-60.0-2.0", "time_elapsed": 522661, "key_press": -1, "trial_index": 80}, "uniqueid": "MTK2857:3X73LLYYQ2LIC0JF8C8NDZFZ31IHN6", "dateTime": 1519414972036}, {"current_trial": 81, "trialdata": {"rt": -1, "trial_type": "single-stim", "stimulus": "<p id=\"stim\">7</p>", "internal_node_id": "0.0-60.0-3.0", "time_elapsed": 523665, "key_press": -1, "trial_index": 81}, "uniqueid": "MTK2857:3X73LLYYQ2LIC0JF8C8NDZFZ31IHN6", "dateTime": 1519414973038}, {"current_trial": 82, "trialdata": {"rt": -1, "trial_type": "single-stim", "stimulus": "<p id=\"stim\">6</p>", "internal_node_id": "0.0-60.0-4.0", "time_elapsed": 524668, "key_press": -1, "trial_index": 82}, "uniqueid": "MTK2857:3X73LLYYQ2LIC0JF8C8NDZFZ31IHN6", "dateTime": 1519414974040}, {"current_trial": 83, "trialdata": {"rt": -1, "trial_type": "single-stim", "stimulus": "<p id=\"stim\">5</p>", "internal_node_id": "0.0-60.0-5.0", "time_elapsed": 525670, "key_press": -1, "trial_index": 83}, "uniqueid": "MTK2857:3X73LLYYQ2LIC0JF8C8NDZFZ31IHN6", "dateTime": 1519414975042}, {"current_trial": 84, "trialdata": {"rt": -1, "trial_type": "single-stim", "stimulus": "<p id=\"stim\">4</p>", "internal_node_id": "0.0-60.0-6.0", "time_elapsed": 526673, "key_press": -1, "trial_index": 84}, "uniqueid": "MTK2857:3X73LLYYQ2LIC0JF8C8NDZFZ31IHN6", "dateTime": 1519414976045}, {"current_trial": 85, "trialdata": {"rt": -1, "trial_type": "single-stim", "stimulus": "<p id=\"stim\">3</p>", "internal_node_id": "0.0-60.0-7.0", "time_elapsed": 527675, "key_press": -1, "trial_index": 85}, "uniqueid": "MTK2857:3X73LLYYQ2LIC0JF8C8NDZFZ31IHN6", "dateTime": 1519414977048}, {"current_trial": 86, "trialdata": {"rt": -1, "trial_type": "single-stim", "stimulus": "<p id=\"stim\">2</p>", "internal_node_id": "0.0-60.0-8.0", "time_elapsed": 528679, "key_press": -1, "trial_index": 86}, "uniqueid": "MTK2857:3X73LLYYQ2LIC0JF8C8NDZFZ31IHN6", "dateTime": 1519414978051}, {"current_trial": 87, "trialdata": {"rt": -1, "trial_type": "single-stim", "stimulus": "<p id=\"stim\">1</p>", "internal_node_id": "0.0-60.0-9.0", "time_elapsed": 529680, "key_press": -1, "trial_index": 87}, "uniqueid": "MTK2857:3X73LLYYQ2LIC0JF8C8NDZFZ31IHN6", "dateTime": 1519414979052}, {"current_trial": 88, "trialdata": {"rt": -1, "trial_type": "single-stim", "stimulus": "<p id=\"stim\">+</p>", "internal_node_id": "0.0-61.0-0.0", "time_elapsed": 531183, "key_press": -1, "type": "FIXATION", "trial_index": 88}, "uniqueid": "MTK2857:3X73LLYYQ2LIC0JF8C8NDZFZ31IHN6", "dateTime": 1519414980555}, {"current_trial": 89, "trialdata": {"rt": -1, "trial_type": "single-stim", "word": "army", "stimulus": "<p id=\"stim\">ARMY</p>", "conditions": [12, 800, "v", 12000], "internal_node_id": "0.0-62.0", "trial": 2, "time_elapsed": 531985, "serialpos": 0, "key_press": -1, "wordID": 38, "type": "PRES_VIS", "trial_index": 89}, "uniqueid": "MTK2857:3X73LLYYQ2LIC0JF8C8NDZFZ31IHN6", "dateTime": 1519414981358}, {"current_trial": 90, "trialdata": {"rt": -1, "trial_type": "single-stim", "word": "motor", "stimulus": "<p id=\"stim\">MOTOR</p>", "conditions": [12, 800, "v", 12000], "internal_node_id": "0.0-63.0", "trial": 2, "time_elapsed": 533626, "serialpos": 1, "key_press": -1, "wordID": 921, "type": "PRES_VIS", "trial_index": 90}, "uniqueid": "MTK2857:3X73LLYYQ2LIC0JF8C8NDZFZ31IHN6", "dateTime": 1519414982998}, {"current_trial": 91, "trialdata": {"rt": -1, "trial_type": "single-stim", "word": "outdoors", "stimulus": "<p id=\"stim\">OUTDOORS</p>", "conditions": [12, 800, "v", 12000], "internal_node_id": "0.0-64.0", "trial": 2, "time_elapsed": 535470, "serialpos": 2, "key_press": -1, "wordID": 986, "type": "PRES_VIS", "trial_index": 91}, "uniqueid": "MTK2857:3X73LLYYQ2LIC0JF8C8NDZFZ31IHN6", "dateTime": 1519414984843}, {"current_trial": 92, "trialdata": {"rt": -1, "trial_type": "single-stim", "word": "match", "stimulus": "<p id=\"stim\">MATCH</p>", "conditions": [12, 800, "v", 12000], "internal_node_id": "0.0-65.0", "trial": 2, "time_elapsed": 537387, "serialpos": 3, "key_press": -1, "wordID": 877, "type": "PRES_VIS", "trial_index": 92}, "uniqueid": "MTK2857:3X73LLYYQ2LIC0JF8C8NDZFZ31IHN6", "dateTime": 1519414986759}, {"current_trial": 93, "trialdata": {"rt": -1, "trial_type": "single-stim", "word": "garlic", "stimulus": "<p id=\"stim\">GARLIC</p>", "conditions": [12, 800, "v", 12000], "internal_node_id": "0.0-66.0", "trial": 2, "time_elapsed": 538990, "serialpos": 4, "key_press": -1, "wordID": 623, "type": "PRES_VIS", "trial_index": 93}, "uniqueid": "MTK2857:3X73LLYYQ2LIC0JF8C8NDZFZ31IHN6", "dateTime": 1519414988362}, {"current_trial": 94, "trialdata": {"rt": -1, "trial_type": "single-stim", "word": "crater", "stimulus": "<p id=\"stim\">CRATER</p>", "conditions": [12, 800, "v", 12000], "internal_node_id": "0.0-67.0", "trial": 2, "time_elapsed": 540892, "serialpos": 5, "key_press": -1, "wordID": 399, "type": "PRES_VIS", "trial_index": 94}, "uniqueid": "MTK2857:3X73LLYYQ2LIC0JF8C8NDZFZ31IHN6", "dateTime": 1519414990264}, {"current_trial": 95, "trialdata": {"rt": -1, "trial_type": "single-stim", "word": "lava", "stimulus": "<p id=\"stim\">LAVA</p>", "conditions": [12, 800, "v", 12000], "internal_node_id": "0.0-68.0", "trial": 2, "time_elapsed": 542637, "serialpos": 6, "key_press": -1, "wordID": 803, "type": "PRES_VIS", "trial_index": 95}, "uniqueid": "MTK2857:3X73LLYYQ2LIC0JF8C8NDZFZ31IHN6", "dateTime": 1519414992009}, {"current_trial": 96, "trialdata": {"rt": -1, "trial_type": "single-stim", "word": "highway", "stimulus": "<p id=\"stim\">HIGHWAY</p>", "conditions": [12, 800, "v", 12000], "internal_node_id": "0.0-69.0", "trial": 2, "time_elapsed": 544600, "serialpos": 7, "key_press": -1, "wordID": 706, "type": "PRES_VIS", "trial_index": 96}, "uniqueid": "MTK2857:3X73LLYYQ2LIC0JF8C8NDZFZ31IHN6", "dateTime": 1519414993972}, {"current_trial": 97, "trialdata": {"rt": -1, "trial_type": "single-stim", "word": "cabbage", "stimulus": "<p id=\"stim\">CABBAGE</p>", "conditions": [12, 800, "v", 12000], "internal_node_id": "0.0-70.0", "trial": 2, "time_elapsed": 546286, "serialpos": 8, "key_press": -1, "wordID": 209, "type": "PRES_VIS", "trial_index": 97}, "uniqueid": "MTK2857:3X73LLYYQ2LIC0JF8C8NDZFZ31IHN6", "dateTime": 1519414995658}, {"current_trial": 98, "trialdata": {"rt": -1, "trial_type": "single-stim", "word": "dragon", "stimulus": "<p id=\"stim\">DRAGON</p>", "conditions": [12, 800, "v", 12000], "internal_node_id": "0.0-71.0", "trial": 2, "time_elapsed": 548138, "serialpos": 9, "key_press": -1, "wordID": 491, "type": "PRES_VIS", "trial_index": 98}, "uniqueid": "MTK2857:3X73LLYYQ2LIC0JF8C8NDZFZ31IHN6", "dateTime": 1519414997510}, {"current_trial": 99, "trialdata": {"rt": -1, "trial_type": "single-stim", "word": "zipper", "stimulus": "<p id=\"stim\">ZIPPER</p>", "conditions": [12, 800, "v", 12000], "internal_node_id": "0.0-72.0", "trial": 2, "time_elapsed": 549836, "serialpos": 10, "key_press": -1, "wordID": 1635, "type": "PRES_VIS", "trial_index": 99}, "uniqueid": "MTK2857:3X73LLYYQ2LIC0JF8C8NDZFZ31IHN6", "dateTime": 1519414999208}, {"current_trial": 100, "trialdata": {"rt": -1, "trial_type": "single-stim", "word": "label", "stimulus": "<p id=\"stim\">LABEL</p>", "conditions": [12, 800, "v", 12000], "internal_node_id": "0.0-73.0", "trial": 2, "time_elapsed": 551654, "serialpos": 11, "key_press": -1, "wordID": 789, "type": "PRES_VIS", "trial_index": 100}, "uniqueid": "MTK2857:3X73LLYYQ2LIC0JF8C8NDZFZ31IHN6", "dateTime": 1519415001026}, {"current_trial": 101, "trialdata": {"rt": -1, "trial_type": "single-stim", "stimulus": "", "internal_node_id": "0.0-74.0-0.0", "time_elapsed": 553960, "key_press": -1, "type": "PRE_RECALL_DELAY", "trial_index": 101}, "uniqueid": "MTK2857:3X73LLYYQ2LIC0JF8C8NDZFZ31IHN6", "dateTime": 1519415003332}, {"current_trial": 102, "trialdata": {"rt": -1000, "trial_type": "single-audio", "stimulus": "/static/audio/400Hz.wav", "internal_node_id": "0.0-75.0", "time_elapsed": 554466, "key_press": -1, "type": "PRE_RECALL_ALERT", "trial_index": 102}, "uniqueid": "MTK2857:3X73LLYYQ2LIC0JF8C8NDZFZ31IHN6", "dateTime": 1519415003838}, {"current_trial": 103, "trialdata": {"rt": [1540, 2810, 4300, 4959, 6175, 7383, 12406, 13651], "recwords": ["label", "zipper", "dragon", "army", "motor", "outside", "lava", "crater"], "key_times": [869, 988, 1088, 1204, 1313, 1540, 2174, 2329, 2393, 2542, 2615, 2698, 2810, 3073, 3230, 3730, 3838, 3957, 4073, 4300, 4530, 4605, 4683, 4832, 4959, 5225, 5306, 5433, 5507, 5645, 6175, 6428, 6545, 6635, 6853, 7007, 7071, 7232, 7383, 11929, 12044, 12114, 12224, 12406, 12625, 12851, 12930, 13118, 13224, 13298, 13651], "trial_type": "free-recall", "conditions": [12, 800, "v", 12000], "internal_node_id": "0.0-76.0-0.0", "key_presses": [76, 65, 66, 69, 76, 13, 90, 73, 80, 80, 69, 82, 13, 68, 82, 65, 71, 79, 78, 13, 65, 82, 77, 89, 13, 77, 79, 84, 79, 82, 13, 79, 85, 84, 83, 73, 68, 69, 13, 76, 65, 86, 65, 13, 67, 82, 65, 84, 69, 82, 13], "trial": 2, "time_elapsed": 614470, "type": "FREE_RECALL", "trial_index": 103}, "uniqueid": "MTK2857:3X73LLYYQ2LIC0JF8C8NDZFZ31IHN6", "dateTime": 1519415063847}, {"current_trial": 104, "trialdata": {"rt": 1601, "trial_type": "text", "internal_node_id": "0.0-77.0", "time_elapsed": 618079, "key_press": 75, "type": "INSTRUCTIONS", "trial_index": 104}, "uniqueid": "MTK2857:3X73LLYYQ2LIC0JF8C8NDZFZ31IHN6", "dateTime": 1519415067451}, {"current_trial": 105, "trialdata": {"rt": [3334, 5267, 6893, 8818, 10772, 12393, 15300, 17677, 19861, 22693], "trial_type": "math-distractor", "key_times": [2238, 2535, 3334, 4951, 5067, 5267, 6632, 6744, 6893, 8268, 8576, 8818, 10370, 10600, 10772, 11974, 12186, 12393, 14736, 14930, 15300, 16602, 16755, 17353, 17467, 17677, 19632, 19861, 22176, 22293, 22693], "responses": ["25", "14", "12", "17", "16", "11", "15", "13", "9", "13"], "num2": [9, 1, 7, 7, 5, 2, 4, 9, 5, 4, 4], "num3": [8, 8, 3, 5, 9, 7, 7, 2, 3, 6, 4], "conditions": [24, 800, "v", 24000], "internal_node_id": "0.0-78.0", "key_presses": [50, 53, 13, 49, 52, 13, 49, 50, 13, 49, 55, 13, 49, 54, 13, 49, 49, 13, 49, 53, 13, 49, 52, 8, 51, 13, 57, 13, 49, 51, 13], "trial": 3, "time_elapsed": 644084, "type": "DISTRACTOR", "trial_index": 105, "num1": [8, 5, 2, 5, 2, 2, 4, 2, 1, 3, 1]}, "uniqueid": "MTK2857:3X73LLYYQ2LIC0JF8C8NDZFZ31IHN6", "dateTime": 1519415093456}, {"current_trial": 106, "trialdata": {"rt": -1, "trial_type": "single-stim", "stimulus": "<p id=\"stim\">10</p>", "internal_node_id": "0.0-79.0-0.0", "time_elapsed": 647086, "key_press": -1, "trial_index": 106}, "uniqueid": "MTK2857:3X73LLYYQ2LIC0JF8C8NDZFZ31IHN6", "dateTime": 1519415096459}, {"current_trial": 107, "trialdata": {"rt": -1, "trial_type": "single-stim", "stimulus": "<p id=\"stim\">9</p>", "internal_node_id": "0.0-79.0-1.0", "time_elapsed": 648088, "key_press": -1, "trial_index": 107}, "uniqueid": "MTK2857:3X73LLYYQ2LIC0JF8C8NDZFZ31IHN6", "dateTime": 1519415097460}, {"current_trial": 108, "trialdata": {"rt": -1, "trial_type": "single-stim", "stimulus": "<p id=\"stim\">8</p>", "internal_node_id": "0.0-79.0-2.0", "time_elapsed": 649089, "key_press": -1, "trial_index": 108}, "uniqueid": "MTK2857:3X73LLYYQ2LIC0JF8C8NDZFZ31IHN6", "dateTime": 1519415098461}, {"current_trial": 109, "trialdata": {"rt": -1, "trial_type": "single-stim", "stimulus": "<p id=\"stim\">7</p>", "internal_node_id": "0.0-79.0-3.0", "time_elapsed": 650092, "key_press": -1, "trial_index": 109}, "uniqueid": "MTK2857:3X73LLYYQ2LIC0JF8C8NDZFZ31IHN6", "dateTime": 1519415099464}, {"current_trial": 110, "trialdata": {"rt": -1, "trial_type": "single-stim", "stimulus": "<p id=\"stim\">6</p>", "internal_node_id": "0.0-79.0-4.0", "time_elapsed": 651094, "key_press": -1, "trial_index": 110}, "uniqueid": "MTK2857:3X73LLYYQ2LIC0JF8C8NDZFZ31IHN6", "dateTime": 1519415100466}, {"current_trial": 111, "trialdata": {"rt": -1, "trial_type": "single-stim", "stimulus": "<p id=\"stim\">5</p>", "internal_node_id": "0.0-79.0-5.0", "time_elapsed": 652096, "key_press": -1, "trial_index": 111}, "uniqueid": "MTK2857:3X73LLYYQ2LIC0JF8C8NDZFZ31IHN6", "dateTime": 1519415101468}, {"current_trial": 112, "trialdata": {"rt": -1, "trial_type": "single-stim", "stimulus": "<p id=\"stim\">4</p>", "internal_node_id": "0.0-79.0-6.0", "time_elapsed": 653099, "key_press": -1, "trial_index": 112}, "uniqueid": "MTK2857:3X73LLYYQ2LIC0JF8C8NDZFZ31IHN6", "dateTime": 1519415102471}, {"current_trial": 113, "trialdata": {"rt": -1, "trial_type": "single-stim", "stimulus": "<p id=\"stim\">3</p>", "internal_node_id": "0.0-79.0-7.0", "time_elapsed": 654100, "key_press": -1, "trial_index": 113}, "uniqueid": "MTK2857:3X73LLYYQ2LIC0JF8C8NDZFZ31IHN6", "dateTime": 1519415103473}, {"current_trial": 114, "trialdata": {"rt": -1, "trial_type": "single-stim", "stimulus": "<p id=\"stim\">2</p>", "internal_node_id": "0.0-79.0-8.0", "time_elapsed": 655103, "key_press": -1, "trial_index": 114}, "uniqueid": "MTK2857:3X73LLYYQ2LIC0JF8C8NDZFZ31IHN6", "dateTime": 1519415104475}, {"current_trial": 115, "trialdata": {"rt": -1, "trial_type": "single-stim", "stimulus": "<p id=\"stim\">1</p>", "internal_node_id": "0.0-79.0-9.0", "time_elapsed": 656106, "key_press": -1, "trial_index": 115}, "uniqueid": "MTK2857:3X73LLYYQ2LIC0JF8C8NDZFZ31IHN6", "dateTime": 1519415105479}, {"current_trial": 116, "trialdata": {"rt": -1, "trial_type": "single-stim", "stimulus": "<p id=\"stim\">+</p>", "internal_node_id": "0.0-80.0-0.0", "time_elapsed": 657610, "key_press": -1, "type": "FIXATION", "trial_index": 116}, "uniqueid": "MTK2857:3X73LLYYQ2LIC0JF8C8NDZFZ31IHN6", "dateTime": 1519415106982}, {"current_trial": 117, "trialdata": {"rt": -1, "trial_type": "single-stim", "word": "brick", "stimulus": "<p id=\"stim\">BRICK</p>", "conditions": [24, 800, "v", 24000], "internal_node_id": "0.0-81.0", "trial": 3, "time_elapsed": 658412, "serialpos": 0, "key_press": -1, "wordID": 171, "type": "PRES_VIS", "trial_index": 117}, "uniqueid": "MTK2857:3X73LLYYQ2LIC0JF8C8NDZFZ31IHN6", "dateTime": 1519415107784}, {"current_trial": 118, "trialdata": {"rt": -1, "trial_type": "single-stim", "word": "sausage", "stimulus": "<p id=\"stim\">SAUSAGE</p>", "conditions": [24, 800, "v", 24000], "internal_node_id": "0.0-82.0", "trial": 3, "time_elapsed": 660389, "serialpos": 1, "key_press": -1, "wordID": 1237, "type": "PRES_VIS", "trial_index": 118}, "uniqueid": "MTK2857:3X73LLYYQ2LIC0JF8C8NDZFZ31IHN6", "dateTime": 1519415109761}, {"current_trial": 119, "trialdata": {"rt": -1, "trial_type": "single-stim", "word": "custard", "stimulus": "<p id=\"stim\">CUSTARD</p>", "conditions": [24, 800, "v", 24000], "internal_node_id": "0.0-83.0", "trial": 3, "time_elapsed": 662156, "serialpos": 2, "key_press": -1, "wordID": 428, "type": "PRES_VIS", "trial_index": 119}, "uniqueid": "MTK2857:3X73LLYYQ2LIC0JF8C8NDZFZ31IHN6", "dateTime": 1519415111528}, {"current_trial": 120, "trialdata": {"rt": -1, "trial_type": "single-stim", "word": "flask", "stimulus": "<p id=\"stim\">FLASK</p>", "conditions": [24, 800, "v", 24000], "internal_node_id": "0.0-84.0", "trial": 3, "time_elapsed": 664036, "serialpos": 3, "key_press": -1, "wordID": 575, "type": "PRES_VIS", "trial_index": 120}, "uniqueid": "MTK2857:3X73LLYYQ2LIC0JF8C8NDZFZ31IHN6", "dateTime": 1519415113409}, {"current_trial": 121, "trialdata": {"rt": -1, "trial_type": "single-stim", "word": "dress", "stimulus": "<p id=\"stim\">DRESS</p>", "conditions": [24, 800, "v", 24000], "internal_node_id": "0.0-85.0", "trial": 3, "time_elapsed": 665793, "serialpos": 4, "key_press": -1, "wordID": 494, "type": "PRES_VIS", "trial_index": 121}, "uniqueid": "MTK2857:3X73LLYYQ2LIC0JF8C8NDZFZ31IHN6", "dateTime": 1519415115166}, {"current_trial": 122, "trialdata": {"rt": -1, "trial_type": "single-stim", "word": "smog", "stimulus": "<p id=\"stim\">SMOG</p>", "conditions": [24, 800, "v", 24000], "internal_node_id": "0.0-86.0", "trial": 3, "time_elapsed": 667513, "serialpos": 5, "key_press": -1, "wordID": 1329, "type": "PRES_VIS", "trial_index": 122}, "uniqueid": "MTK2857:3X73LLYYQ2LIC0JF8C8NDZFZ31IHN6", "dateTime": 1519415116886}, {"current_trial": 123, "trialdata": {"rt": -1, "trial_type": "single-stim", "word": "dandruff", "stimulus": "<p id=\"stim\">DANDRUFF</p>", "conditions": [24, 800, "v", 24000], "internal_node_id": "0.0-87.0", "trial": 3, "time_elapsed": 669381, "serialpos": 6, "key_press": -1, "wordID": 438, "type": "PRES_VIS", "trial_index": 123}, "uniqueid": "MTK2857:3X73LLYYQ2LIC0JF8C8NDZFZ31IHN6", "dateTime": 1519415118754}, {"current_trial": 124, "trialdata": {"rt": -1, "trial_type": "single-stim", "word": "beaker", "stimulus": "<p id=\"stim\">BEAKER</p>", "conditions": [24, 800, "v", 24000], "internal_node_id": "0.0-88.0", "trial": 3, "time_elapsed": 671378, "serialpos": 7, "key_press": -1, "wordID": 103, "type": "PRES_VIS", "trial_index": 124}, "uniqueid": "MTK2857:3X73LLYYQ2LIC0JF8C8NDZFZ31IHN6", "dateTime": 1519415120750}, {"current_trial": 125, "trialdata": {"rt": -1, "trial_type": "single-stim", "word": "panther", "stimulus": "<p id=\"stim\">PANTHER</p>", "conditions": [24, 800, "v", 24000], "internal_node_id": "0.0-89.0", "trial": 3, "time_elapsed": 673029, "serialpos": 8, "key_press": -1, "wordID": 1008, "type": "PRES_VIS", "trial_index": 125}, "uniqueid": "MTK2857:3X73LLYYQ2LIC0JF8C8NDZFZ31IHN6", "dateTime": 1519415122401}, {"current_trial": 126, "trialdata": {"rt": -1, "trial_type": "single-stim", "word": "skillet", "stimulus": "<p id=\"stim\">SKILLET</p>", "conditions": [24, 800, "v", 24000], "internal_node_id": "0.0-90.0", "trial": 3, "time_elapsed": 674998, "serialpos": 9, "key_press": -1, "wordID": 1316, "type": "PRES_VIS", "trial_index": 126}, "uniqueid": "MTK2857:3X73LLYYQ2LIC0JF8C8NDZFZ31IHN6", "dateTime": 1519415124372}, {"current_trial": 127, "trialdata": {"rt": -1, "trial_type": "single-stim", "word": "infant", "stimulus": "<p id=\"stim\">INFANT</p>", "conditions": [24, 800, "v", 24000], "internal_node_id": "0.0-91.0", "trial": 3, "time_elapsed": 676877, "serialpos": 10, "key_press": -1, "wordID": 736, "type": "PRES_VIS", "trial_index": 127}, "uniqueid": "MTK2857:3X73LLYYQ2LIC0JF8C8NDZFZ31IHN6", "dateTime": 1519415126249}, {"current_trial": 128, "trialdata": {"rt": -1, "trial_type": "single-stim", "word": "curtain", "stimulus": "<p id=\"stim\">CURTAIN</p>", "conditions": [24, 800, "v", 24000], "internal_node_id": "0.0-92.0", "trial": 3, "time_elapsed": 678801, "serialpos": 11, "key_press": -1, "wordID": 426, "type": "PRES_VIS", "trial_index": 128}, "uniqueid": "MTK2857:3X73LLYYQ2LIC0JF8C8NDZFZ31IHN6", "dateTime": 1519415128173}, {"current_trial": 129, "trialdata": {"rt": -1, "trial_type": "single-stim", "word": "fiddle", "stimulus": "<p id=\"stim\">FIDDLE</p>", "conditions": [24, 800, "v", 24000], "internal_node_id": "0.0-93.0", "trial": 3, "time_elapsed": 680618, "serialpos": 12, "key_press": -1, "wordID": 560, "type": "PRES_VIS", "trial_index": 129}, "uniqueid": "MTK2857:3X73LLYYQ2LIC0JF8C8NDZFZ31IHN6", "dateTime": 1519415129991}, {"current_trial": 130, "trialdata": {"rt": -1, "trial_type": "single-stim", "word": "juggler", "stimulus": "<p id=\"stim\">JUGGLER</p>", "conditions": [24, 800, "v", 24000], "internal_node_id": "0.0-94.0", "trial": 3, "time_elapsed": 682296, "serialpos": 13, "key_press": -1, "wordID": 762, "type": "PRES_VIS", "trial_index": 130}, "uniqueid": "MTK2857:3X73LLYYQ2LIC0JF8C8NDZFZ31IHN6", "dateTime": 1519415131669}, {"current_trial": 131, "trialdata": {"rt": -1, "trial_type": "single-stim", "word": "gangster", "stimulus": "<p id=\"stim\">GANGSTER</p>", "conditions": [24, 800, "v", 24000], "internal_node_id": "0.0-95.0", "trial": 3, "time_elapsed": 683921, "serialpos": 14, "key_press": -1, "wordID": 619, "type": "PRES_VIS", "trial_index": 131}, "uniqueid": "MTK2857:3X73LLYYQ2LIC0JF8C8NDZFZ31IHN6", "dateTime": 1519415133293}, {"current_trial": 132, "trialdata": {"rt": -1, "trial_type": "single-stim", "word": "lizard", "stimulus": "<p id=\"stim\">LIZARD</p>", "conditions": [24, 800, "v", 24000], "internal_node_id": "0.0-96.0", "trial": 3, "time_elapsed": 685923, "serialpos": 15, "key_press": -1, "wordID": 833, "type": "PRES_VIS", "trial_index": 132}, "uniqueid": "MTK2857:3X73LLYYQ2LIC0JF8C8NDZFZ31IHN6", "dateTime": 1519415135296}, {"current_trial": 133, "trialdata": {"rt": -1, "trial_type": "single-stim", "word": "author", "stimulus": "<p id=\"stim\">AUTHOR</p>", "conditions": [24, 800, "v", 24000], "internal_node_id": "0.0-97.0", "trial": 3, "time_elapsed": 687636, "serialpos": 16, "key_press": -1, "wordID": 60, "type": "PRES_VIS", "trial_index": 133}, "uniqueid": "MTK2857:3X73LLYYQ2LIC0JF8C8NDZFZ31IHN6", "dateTime": 1519415137008}, {"current_trial": 134, "trialdata": {"rt": -1, "trial_type": "single-stim", "word": "chemist", "stimulus": "<p id=\"stim\">CHEMIST</p>", "conditions": [24, 800, "v", 24000], "internal_node_id": "0.0-98.0", "trial": 3, "time_elapsed": 689297, "serialpos": 17, "key_press": -1, "wordID": 291, "type": "PRES_VIS", "trial_index": 134}, "uniqueid": "MTK2857:3X73LLYYQ2LIC0JF8C8NDZFZ31IHN6", "dateTime": 1519415138669}, {"current_trial": 135, "trialdata": {"rt": -1, "trial_type": "single-stim", "word": "rooster", "stimulus": "<p id=\"stim\">ROOSTER</p>", "conditions": [24, 800, "v", 24000], "internal_node_id": "0.0-99.0", "trial": 3, "time_elapsed": 690907, "serialpos": 18, "key_press": -1, "wordID": 1208, "type": "PRES_VIS", "trial_index": 135}, "uniqueid": "MTK2857:3X73LLYYQ2LIC0JF8C8NDZFZ31IHN6", "dateTime": 1519415140279}, {"current_trial": 136, "trialdata": {"rt": -1, "trial_type": "single-stim", "word": "turkey", "stimulus": "<p id=\"stim\">TURKEY</p>", "conditions": [24, 800, "v", 24000], "internal_node_id": "0.0-100.0", "trial": 3, "time_elapsed": 692610, "serialpos": 19, "key_press": -1, "wordID": 1519, "type": "PRES_VIS", "trial_index": 136}, "uniqueid": "MTK2857:3X73LLYYQ2LIC0JF8C8NDZFZ31IHN6", "dateTime": 1519415141982}, {"current_trial": 137, "trialdata": {"rt": -1, "trial_type": "single-stim", "word": "bacon", "stimulus": "<p id=\"stim\">BACON</p>", "conditions": [24, 800, "v", 24000], "internal_node_id": "0.0-101.0", "trial": 3, "time_elapsed": 694405, "serialpos": 20, "key_press": -1, "wordID": 66, "type": "PRES_VIS", "trial_index": 137}, "uniqueid": "MTK2857:3X73LLYYQ2LIC0JF8C8NDZFZ31IHN6", "dateTime": 1519415143777}, {"current_trial": 138, "trialdata": {"rt": -1, "trial_type": "single-stim", "word": "scarecrow", "stimulus": "<p id=\"stim\">SCARECROW</p>", "conditions": [24, 800, "v", 24000], "internal_node_id": "0.0-102.0", "trial": 3, "time_elapsed": 696008, "serialpos": 21, "key_press": -1, "wordID": 1244, "type": "PRES_VIS", "trial_index": 138}, "uniqueid": "MTK2857:3X73LLYYQ2LIC0JF8C8NDZFZ31IHN6", "dateTime": 1519415145380}, {"current_trial": 139, "trialdata": {"rt": -1, "trial_type": "single-stim", "word": "parrot", "stimulus": "<p id=\"stim\">PARROT</p>", "conditions": [24, 800, "v", 24000], "internal_node_id": "0.0-103.0", "trial": 3, "time_elapsed": 697994, "serialpos": 22, "key_press": -1, "wordID": 1014, "type": "PRES_VIS", "trial_index": 139}, "uniqueid": "MTK2857:3X73LLYYQ2LIC0JF8C8NDZFZ31IHN6", "dateTime": 1519415147366}, {"current_trial": 140, "trialdata": {"rt": -1, "trial_type": "single-stim", "word": "river", "stimulus": "<p id=\"stim\">RIVER</p>", "conditions": [24, 800, "v", 24000], "internal_node_id": "0.0-104.0", "trial": 3, "time_elapsed": 699993, "serialpos": 23, "key_press": -1, "wordID": 1193, "type": "PRES_VIS", "trial_index": 140}, "uniqueid": "MTK2857:3X73LLYYQ2LIC0JF8C8NDZFZ31IHN6", "dateTime": 1519415149365}, {"current_trial": 141, "trialdata": {"rt": -1, "trial_type": "single-stim", "stimulus": "", "internal_node_id": "0.0-105.0-0.0", "time_elapsed": 702177, "key_press": -1, "type": "PRE_RECALL_DELAY", "trial_index": 141}, "uniqueid": "MTK2857:3X73LLYYQ2LIC0JF8C8NDZFZ31IHN6", "dateTime": 1519415151549}, {"current_trial": 142, "trialdata": {"rt": -1000, "trial_type": "single-audio", "stimulus": "/static/audio/400Hz.wav", "internal_node_id": "0.0-106.0", "time_elapsed": 702681, "key_press": -1, "type": "PRE_RECALL_ALERT", "trial_index": 142}, "uniqueid": "MTK2857:3X73LLYYQ2LIC0JF8C8NDZFZ31IHN6", "dateTime": 1519415152053}, {"current_trial": 143, "trialdata": {"rt": [2789, 4077, 5657, 7364, 20781, 21652, 25267, 38567], "recwords": ["river", "rooster", "gangster", "lizard", "skillet", "bacon", "smog", "parrot"], "key_times": [1481, 1660, 2174, 2450, 2532, 2789, 3318, 3439, 3546, 3621, 3735, 3881, 3953, 4077, 4315, 4431, 4529, 4683, 5053, 5128, 5297, 5378, 5657, 6493, 6601, 6695, 6936, 7048, 7136, 7364, 19754, 19892, 20090, 20205, 20359, 20438, 20522, 20781, 21104, 21224, 21338, 21406, 21485, 21652, 24900, 24976, 25048, 25127, 25267, 37874, 37983, 38065, 38231, 38348, 38460, 38567], "trial_type": "free-recall", "conditions": [24, 800, "v", 24000], "internal_node_id": "0.0-107.0-0.0", "key_presses": [82, 73, 86, 69, 82, 13, 82, 79, 79, 83, 84, 69, 82, 13, 71, 65, 78, 71, 83, 84, 69, 82, 13, 76, 73, 90, 65, 82, 68, 13, 83, 75, 73, 76, 76, 69, 84, 13, 66, 65, 67, 79, 78, 13, 83, 77, 79, 71, 13, 80, 65, 82, 82, 79, 84, 13], "trial": 3, "time_elapsed": 762687, "type": "FREE_RECALL", "trial_index": 143}, "uniqueid": "MTK2857:3X73LLYYQ2LIC0JF8C8NDZFZ31IHN6", "dateTime": 1519415212065}, {"current_trial": 144, "trialdata": {"rt": 1226, "trial_type": "text", "internal_node_id": "0.0-108.0", "time_elapsed": 765921, "key_press": 75, "type": "INSTRUCTIONS", "trial_index": 144}, "uniqueid": "MTK2857:3X73LLYYQ2LIC0JF8C8NDZFZ31IHN6", "dateTime": 1519415215293}, {"current_trial": 145, "trialdata": {"rt": [2239, 3870, 5283, 6616, 10282, 12763, 14712, 16931, 17239, 20091, 22254], "trial_type": "math-distractor", "key_times": [2007, 2120, 2239, 3397, 3522, 3870, 4995, 5112, 5283, 6256, 6299, 6616, 10021, 10165, 10282, 12500, 12651, 12763, 14249, 14513, 14712, 16623, 16739, 16931, 17239, 19567, 19673, 20091, 21939, 22055, 22254], "responses": ["15", "13", "13", "13", "14", "15", "14", "20", "", "20", "14"], "num2": [5, 4, 3, 4, 6, 4, 7, 8, 4, 7, 3, 8], "num3": [3, 8, 6, 1, 3, 6, 5, 3, 5, 6, 2, 4], "conditions": [12, 800, "v", 24000], "internal_node_id": "0.0-109.0", "key_presses": [49, 53, 13, 49, 51, 13, 49, 51, 13, 49, 51, 13, 49, 52, 13, 49, 53, 13, 49, 52, 13, 50, 48, 13, 13, 50, 48, 13, 49, 52, 13], "trial": 4, "time_elapsed": 791927, "type": "DISTRACTOR", "trial_index": 145, "num1": [7, 1, 4, 8, 5, 5, 2, 9, 2, 7, 9, 2]}, "uniqueid": "MTK2857:3X73LLYYQ2LIC0JF8C8NDZFZ31IHN6", "dateTime": 1519415241299}, {"current_trial": 146, "trialdata": {"rt": -1, "trial_type": "single-stim", "stimulus": "<p id=\"stim\">10</p>", "internal_node_id": "0.0-110.0-0.0", "time_elapsed": 794931, "key_press": -1, "trial_index": 146}, "uniqueid": "MTK2857:3X73LLYYQ2LIC0JF8C8NDZFZ31IHN6", "dateTime": 1519415244303}, {"current_trial": 147, "trialdata": {"rt": -1, "trial_type": "single-stim", "stimulus": "<p id=\"stim\">9</p>", "internal_node_id": "0.0-110.0-1.0", "time_elapsed": 795933, "key_press": -1, "trial_index": 147}, "uniqueid": "MTK2857:3X73LLYYQ2LIC0JF8C8NDZFZ31IHN6", "dateTime": 1519415245306}, {"current_trial": 148, "trialdata": {"rt": -1, "trial_type": "single-stim", "stimulus": "<p id=\"stim\">8</p>", "internal_node_id": "0.0-110.0-2.0", "time_elapsed": 796936, "key_press": -1, "trial_index": 148}, "uniqueid": "MTK2857:3X73LLYYQ2LIC0JF8C8NDZFZ31IHN6", "dateTime": 1519415246309}, {"current_trial": 149, "trialdata": {"rt": -1, "trial_type": "single-stim", "stimulus": "<p id=\"stim\">7</p>", "internal_node_id": "0.0-110.0-3.0", "time_elapsed": 797938, "key_press": -1, "trial_index": 149}, "uniqueid": "MTK2857:3X73LLYYQ2LIC0JF8C8NDZFZ31IHN6", "dateTime": 1519415247311}, {"current_trial": 150, "trialdata": {"rt": -1, "trial_type": "single-stim", "stimulus": "<p id=\"stim\">6</p>", "internal_node_id": "0.0-110.0-4.0", "time_elapsed": 798941, "key_press": -1, "trial_index": 150}, "uniqueid": "MTK2857:3X73LLYYQ2LIC0JF8C8NDZFZ31IHN6", "dateTime": 1519415248313}, {"current_trial": 151, "trialdata": {"rt": -1, "trial_type": "single-stim", "stimulus": "<p id=\"stim\">5</p>", "internal_node_id": "0.0-110.0-5.0", "time_elapsed": 799944, "key_press": -1, "trial_index": 151}, "uniqueid": "MTK2857:3X73LLYYQ2LIC0JF8C8NDZFZ31IHN6", "dateTime": 1519415249316}, {"current_trial": 152, "trialdata": {"rt": -1, "trial_type": "single-stim", "stimulus": "<p id=\"stim\">4</p>", "internal_node_id": "0.0-110.0-6.0", "time_elapsed": 800945, "key_press": -1, "trial_index": 152}, "uniqueid": "MTK2857:3X73LLYYQ2LIC0JF8C8NDZFZ31IHN6", "dateTime": 1519415250318}, {"current_trial": 153, "trialdata": {"rt": -1, "trial_type": "single-stim", "stimulus": "<p id=\"stim\">3</p>", "internal_node_id": "0.0-110.0-7.0", "time_elapsed": 801947, "key_press": -1, "trial_index": 153}, "uniqueid": "MTK2857:3X73LLYYQ2LIC0JF8C8NDZFZ31IHN6", "dateTime": 1519415251319}, {"current_trial": 154, "trialdata": {"rt": -1, "trial_type": "single-stim", "stimulus": "<p id=\"stim\">2</p>", "internal_node_id": "0.0-110.0-8.0", "time_elapsed": 802949, "key_press": -1, "trial_index": 154}, "uniqueid": "MTK2857:3X73LLYYQ2LIC0JF8C8NDZFZ31IHN6", "dateTime": 1519415252322}, {"current_trial": 155, "trialdata": {"rt": -1, "trial_type": "single-stim", "stimulus": "<p id=\"stim\">1</p>", "internal_node_id": "0.0-110.0-9.0", "time_elapsed": 803951, "key_press": -1, "trial_index": 155}, "uniqueid": "MTK2857:3X73LLYYQ2LIC0JF8C8NDZFZ31IHN6", "dateTime": 1519415253323}, {"current_trial": 156, "trialdata": {"rt": -1, "trial_type": "single-stim", "stimulus": "<p id=\"stim\">+</p>", "internal_node_id": "0.0-111.0-0.0", "time_elapsed": 805453, "key_press": -1, "type": "FIXATION", "trial_index": 156}, "uniqueid": "MTK2857:3X73LLYYQ2LIC0JF8C8NDZFZ31IHN6", "dateTime": 1519415254826}, {"current_trial": 157, "trialdata": {"rt": -1, "trial_type": "single-stim", "word": "stone", "stimulus": "<p id=\"stim\">STONE</p>", "conditions": [12, 800, "v", 24000], "internal_node_id": "0.0-112.0", "trial": 4, "time_elapsed": 806254, "serialpos": 0, "key_press": -1, "wordID": 1384, "type": "PRES_VIS", "trial_index": 157}, "uniqueid": "MTK2857:3X73LLYYQ2LIC0JF8C8NDZFZ31IHN6", "dateTime": 1519415255627}, {"current_trial": 158, "trialdata": {"rt": -1, "trial_type": "single-stim", "word": "france", "stimulus": "<p id=\"stim\">FRANCE</p>", "conditions": [12, 800, "v", 24000], "internal_node_id": "0.0-113.0", "trial": 4, "time_elapsed": 808166, "serialpos": 1, "key_press": -1, "wordID": 600, "type": "PRES_VIS", "trial_index": 158}, "uniqueid": "MTK2857:3X73LLYYQ2LIC0JF8C8NDZFZ31IHN6", "dateTime": 1519415257538}, {"current_trial": 159, "trialdata": {"rt": -1, "trial_type": "single-stim", "word": "kidney", "stimulus": "<p id=\"stim\">KIDNEY</p>", "conditions": [12, 800, "v", 24000], "internal_node_id": "0.0-114.0", "trial": 4, "time_elapsed": 810060, "serialpos": 2, "key_press": -1, "wordID": 775, "type": "PRES_VIS", "trial_index": 159}, "uniqueid": "MTK2857:3X73LLYYQ2LIC0JF8C8NDZFZ31IHN6", "dateTime": 1519415259432}, {"current_trial": 160, "trialdata": {"rt": -1, "trial_type": "single-stim", "word": "umpire", "stimulus": "<p id=\"stim\">UMPIRE</p>", "conditions": [12, 800, "v", 24000], "internal_node_id": "0.0-115.0", "trial": 4, "time_elapsed": 812047, "serialpos": 3, "key_press": -1, "wordID": 1534, "type": "PRES_VIS", "trial_index": 160}, "uniqueid": "MTK2857:3X73LLYYQ2LIC0JF8C8NDZFZ31IHN6", "dateTime": 1519415261419}, {"current_trial": 161, "trialdata": {"rt": -1, "trial_type": "single-stim", "word": "softball", "stimulus": "<p id=\"stim\">SOFTBALL</p>", "conditions": [12, 800, "v", 24000], "internal_node_id": "0.0-116.0", "trial": 4, "time_elapsed": 813732, "serialpos": 4, "key_press": -1, "wordID": 1342, "type": "PRES_VIS", "trial_index": 161}, "uniqueid": "MTK2857:3X73LLYYQ2LIC0JF8C8NDZFZ31IHN6", "dateTime": 1519415263105}, {"current_trial": 162, "trialdata": {"rt": -1, "trial_type": "single-stim", "word": "pepper", "stimulus": "<p id=\"stim\">PEPPER</p>", "conditions": [12, 800, "v", 24000], "internal_node_id": "0.0-117.0", "trial": 4, "time_elapsed": 815431, "serialpos": 5, "key_press": -1, "wordID": 1046, "type": "PRES_VIS", "trial_index": 162}, "uniqueid": "MTK2857:3X73LLYYQ2LIC0JF8C8NDZFZ31IHN6", "dateTime": 1519415264804}, {"current_trial": 163, "trialdata": {"rt": -1, "trial_type": "single-stim", "word": "skirt", "stimulus": "<p id=\"stim\">SKIRT</p>", "conditions": [12, 800, "v", 24000], "internal_node_id": "0.0-118.0", "trial": 4, "time_elapsed": 817364, "serialpos": 6, "key_press": -1, "wordID": 1318, "type": "PRES_VIS", "trial_index": 163}, "uniqueid": "MTK2857:3X73LLYYQ2LIC0JF8C8NDZFZ31IHN6", "dateTime": 1519415266737}, {"current_trial": 164, "trialdata": {"rt": -1, "trial_type": "single-stim", "word": "outlaw", "stimulus": "<p id=\"stim\">OUTLAW</p>", "conditions": [12, 800, "v", 24000], "internal_node_id": "0.0-119.0", "trial": 4, "time_elapsed": 819087, "serialpos": 7, "key_press": -1, "wordID": 988, "type": "PRES_VIS", "trial_index": 164}, "uniqueid": "MTK2857:3X73LLYYQ2LIC0JF8C8NDZFZ31IHN6", "dateTime": 1519415268459}, {"current_trial": 165, "trialdata": {"rt": -1, "trial_type": "single-stim", "word": "mattress", "stimulus": "<p id=\"stim\">MATTRESS</p>", "conditions": [12, 800, "v", 24000], "internal_node_id": "0.0-120.0", "trial": 4, "time_elapsed": 820816, "serialpos": 8, "key_press": -1, "wordID": 878, "type": "PRES_VIS", "trial_index": 165}, "uniqueid": "MTK2857:3X73LLYYQ2LIC0JF8C8NDZFZ31IHN6", "dateTime": 1519415270188}, {"current_trial": 166, "trialdata": {"rt": -1, "trial_type": "single-stim", "word": "crib", "stimulus": "<p id=\"stim\">CRIB</p>", "conditions": [12, 800, "v", 24000], "internal_node_id": "0.0-121.0", "trial": 4, "time_elapsed": 822481, "serialpos": 9, "key_press": -1, "wordID": 406, "type": "PRES_VIS", "trial_index": 166}, "uniqueid": "MTK2857:3X73LLYYQ2LIC0JF8C8NDZFZ31IHN6", "dateTime": 1519415271855}, {"current_trial": 167, "trialdata": {"rt": -1, "trial_type": "single-stim", "word": "trench", "stimulus": "<p id=\"stim\">TRENCH</p>", "conditions": [12, 800, "v", 24000], "internal_node_id": "0.0-122.0", "trial": 4, "time_elapsed": 824177, "serialpos": 10, "key_press": -1, "wordID": 1502, "type": "PRES_VIS", "trial_index": 167}, "uniqueid": "MTK2857:3X73LLYYQ2LIC0JF8C8NDZFZ31IHN6", "dateTime": 1519415273549}, {"current_trial": 168, "trialdata": {"rt": -1, "trial_type": "single-stim", "word": "london", "stimulus": "<p id=\"stim\">LONDON</p>", "conditions": [12, 800, "v", 24000], "internal_node_id": "0.0-123.0", "trial": 4, "time_elapsed": 825785, "serialpos": 11, "key_press": -1, "wordID": 842, "type": "PRES_VIS", "trial_index": 168}, "uniqueid": "MTK2857:3X73LLYYQ2LIC0JF8C8NDZFZ31IHN6", "dateTime": 1519415275157}, {"current_trial": 169, "trialdata": {"rt": -1, "trial_type": "single-stim", "stimulus": "", "internal_node_id": "0.0-124.0-0.0", "time_elapsed": 827963, "key_press": -1, "type": "PRE_RECALL_DELAY", "trial_index": 169}, "uniqueid": "MTK2857:3X73LLYYQ2LIC0JF8C8NDZFZ31IHN6", "dateTime": 1519415277335}, {"current_trial": 170, "trialdata": {"rt": -1000, "trial_type": "single-audio", "stimulus": "/static/audio/400Hz.wav", "internal_node_id": "0.0-125.0", "time_elapsed": 828466, "key_press": -1, "type": "PRE_RECALL_ALERT", "trial_index": 170}, "uniqueid": "MTK2857:3X73LLYYQ2LIC0JF8C8NDZFZ31IHN6", "dateTime": 1519415277838}, {"current_trial": 171, "trialdata": {"rt": [1426, 3134, 5485], "recwords": ["london", "trench", "crib"], "key_times": [497, 676, 792, 965, 1079, 1146, 1426, 1788, 2076, 2189, 2309, 2426, 2545, 3134, 3687, 3895, 3976, 4468, 5485], "trial_type": "free-recall", "conditions": [12, 800, "v", 24000], "internal_node_id": "0.0-126.0-0.0", "key_presses": [76, 79, 78, 68, 79, 78, 13, 84, 82, 69, 78, 67, 72, 13, 67, 82, 73, 66, 13], "trial": 4, "time_elapsed": 888470, "type": "FREE_RECALL", "trial_index": 171}, "uniqueid": "MTK2857:3X73LLYYQ2LIC0JF8C8NDZFZ31IHN6", "dateTime": 1519415337847}, {"current_trial": 172, "trialdata": {"rt": 1706, "trial_type": "text", "internal_node_id": "0.0-127.0", "time_elapsed": 892182, "key_press": 74, "type": "INSTRUCTIONS", "trial_index": 172}, "uniqueid": "MTK2857:3X73LLYYQ2LIC0JF8C8NDZFZ31IHN6", "dateTime": 1519415341555}, {"current_trial": 173, "trialdata": {"rt": [1955, 3467, 5515, 7832, 10273, 11863], "trial_type": "math-distractor", "key_times": [1534, 1955, 3117, 3224, 3467, 5127, 5208, 5515, 7461, 7538, 7832, 9526, 9687, 10273, 11471, 11554, 11863], "responses": ["6", "13", "14", "20", "10", "13"], "num2": [2, 8, 5, 8, 5, 6, 8], "num3": [3, 1, 7, 9, 3, 1, 2], "conditions": [24, 800, "v", 12000], "internal_node_id": "0.0-128.0", "key_presses": [54, 13, 49, 51, 13, 49, 52, 13, 50, 48, 13, 49, 48, 13, 49, 51, 13], "trial": 5, "time_elapsed": 906189, "type": "DISTRACTOR", "trial_index": 173, "num1": [1, 4, 2, 3, 2, 6, 1]}, "uniqueid": "MTK2857:3X73LLYYQ2LIC0JF8C8NDZFZ31IHN6", "dateTime": 1519415355562}, {"current_trial": 174, "trialdata": {"rt": -1, "trial_type": "single-stim", "stimulus": "<p id=\"stim\">10</p>", "internal_node_id": "0.0-129.0-0.0", "time_elapsed": 909193, "key_press": -1, "trial_index": 174}, "uniqueid": "MTK2857:3X73LLYYQ2LIC0JF8C8NDZFZ31IHN6", "dateTime": 1519415358565}, {"current_trial": 175, "trialdata": {"rt": -1, "trial_type": "single-stim", "stimulus": "<p id=\"stim\">9</p>", "internal_node_id": "0.0-129.0-1.0", "time_elapsed": 910195, "key_press": -1, "trial_index": 175}, "uniqueid": "MTK2857:3X73LLYYQ2LIC0JF8C8NDZFZ31IHN6", "dateTime": 1519415359567}, {"current_trial": 176, "trialdata": {"rt": -1, "trial_type": "single-stim", "stimulus": "<p id=\"stim\">8</p>", "internal_node_id": "0.0-129.0-2.0", "time_elapsed": 911197, "key_press": -1, "trial_index": 176}, "uniqueid": "MTK2857:3X73LLYYQ2LIC0JF8C8NDZFZ31IHN6", "dateTime": 1519415360571}, {"current_trial": 177, "trialdata": {"rt": -1, "trial_type": "single-stim", "stimulus": "<p id=\"stim\">7</p>", "internal_node_id": "0.0-129.0-3.0", "time_elapsed": 912200, "key_press": -1, "trial_index": 177}, "uniqueid": "MTK2857:3X73LLYYQ2LIC0JF8C8NDZFZ31IHN6", "dateTime": 1519415361573}, {"current_trial": 178, "trialdata": {"rt": -1, "trial_type": "single-stim", "stimulus": "<p id=\"stim\">6</p>", "internal_node_id": "0.0-129.0-4.0", "time_elapsed": 913203, "key_press": -1, "trial_index": 178}, "uniqueid": "MTK2857:3X73LLYYQ2LIC0JF8C8NDZFZ31IHN6", "dateTime": 1519415362575}, {"current_trial": 179, "trialdata": {"rt": -1, "trial_type": "single-stim", "stimulus": "<p id=\"stim\">5</p>", "internal_node_id": "0.0-129.0-5.0", "time_elapsed": 914206, "key_press": -1, "trial_index": 179}, "uniqueid": "MTK2857:3X73LLYYQ2LIC0JF8C8NDZFZ31IHN6", "dateTime": 1519415363578}, {"current_trial": 180, "trialdata": {"rt": -1, "trial_type": "single-stim", "stimulus": "<p id=\"stim\">4</p>", "internal_node_id": "0.0-129.0-6.0", "time_elapsed": 915208, "key_press": -1, "trial_index": 180}, "uniqueid": "MTK2857:3X73LLYYQ2LIC0JF8C8NDZFZ31IHN6", "dateTime": 1519415364581}, {"current_trial": 181, "trialdata": {"rt": -1, "trial_type": "single-stim", "stimulus": "<p id=\"stim\">3</p>", "internal_node_id": "0.0-129.0-7.0", "time_elapsed": 916211, "key_press": -1, "trial_index": 181}, "uniqueid": "MTK2857:3X73LLYYQ2LIC0JF8C8NDZFZ31IHN6", "dateTime": 1519415365583}, {"current_trial": 182, "trialdata": {"rt": -1, "trial_type": "single-stim", "stimulus": "<p id=\"stim\">2</p>", "internal_node_id": "0.0-129.0-8.0", "time_elapsed": 917212, "key_press": -1, "trial_index": 182}, "uniqueid": "MTK2857:3X73LLYYQ2LIC0JF8C8NDZFZ31IHN6", "dateTime": 1519415366585}, {"current_trial": 183, "trialdata": {"rt": -1, "trial_type": "single-stim", "stimulus": "<p id=\"stim\">1</p>", "internal_node_id": "0.0-129.0-9.0", "time_elapsed": 918215, "key_press": -1, "trial_index": 183}, "uniqueid": "MTK2857:3X73LLYYQ2LIC0JF8C8NDZFZ31IHN6", "dateTime": 1519415367587}, {"current_trial": 184, "trialdata": {"rt": -1, "trial_type": "single-stim", "stimulus": "<p id=\"stim\">+</p>", "internal_node_id": "0.0-130.0-0.0", "time_elapsed": 919717, "key_press": -1, "type": "FIXATION", "trial_index": 184}, "uniqueid": "MTK2857:3X73LLYYQ2LIC0JF8C8NDZFZ31IHN6", "dateTime": 1519415369089}, {"current_trial": 185, "trialdata": {"rt": -1, "trial_type": "single-stim", "word": "church", "stimulus": "<p id=\"stim\">CHURCH</p>", "conditions": [24, 800, "v", 12000], "internal_node_id": "0.0-131.0", "trial": 5, "time_elapsed": 920519, "serialpos": 0, "key_press": -1, "wordID": 306, "type": "PRES_VIS", "trial_index": 185}, "uniqueid": "MTK2857:3X73LLYYQ2LIC0JF8C8NDZFZ31IHN6", "dateTime": 1519415369891}, {"current_trial": 186, "trialdata": {"rt": -1, "trial_type": "single-stim", "word": "shelter", "stimulus": "<p id=\"stim\">SHELTER</p>", "conditions": [24, 800, "v", 12000], "internal_node_id": "0.0-132.0", "trial": 5, "time_elapsed": 922521, "serialpos": 1, "key_press": -1, "wordID": 1281, "type": "PRES_VIS", "trial_index": 186}, "uniqueid": "MTK2857:3X73LLYYQ2LIC0JF8C8NDZFZ31IHN6", "dateTime": 1519415371893}, {"current_trial": 187, "trialdata": {"rt": -1, "trial_type": "single-stim", "word": "pizza", "stimulus": "<p id=\"stim\">PIZZA</p>", "conditions": [24, 800, "v", 12000], "internal_node_id": "0.0-133.0", "trial": 5, "time_elapsed": 924269, "serialpos": 2, "key_press": -1, "wordID": 1078, "type": "PRES_VIS", "trial_index": 187}, "uniqueid": "MTK2857:3X73LLYYQ2LIC0JF8C8NDZFZ31IHN6", "dateTime": 1519415373642}, {"current_trial": 188, "trialdata": {"rt": -1, "trial_type": "single-stim", "word": "beast", "stimulus": "<p id=\"stim\">BEAST</p>", "conditions": [24, 800, "v", 12000], "internal_node_id": "0.0-134.0", "trial": 5, "time_elapsed": 926037, "serialpos": 3, "key_press": -1, "wordID": 107, "type": "PRES_VIS", "trial_index": 188}, "uniqueid": "MTK2857:3X73LLYYQ2LIC0JF8C8NDZFZ31IHN6", "dateTime": 1519415375409}, {"current_trial": 189, "trialdata": {"rt": -1, "trial_type": "single-stim", "word": "blouse", "stimulus": "<p id=\"stim\">BLOUSE</p>", "conditions": [24, 800, "v", 12000], "internal_node_id": "0.0-135.0", "trial": 5, "time_elapsed": 927883, "serialpos": 4, "key_press": -1, "wordID": 138, "type": "PRES_VIS", "trial_index": 189}, "uniqueid": "MTK2857:3X73LLYYQ2LIC0JF8C8NDZFZ31IHN6", "dateTime": 1519415377255}, {"current_trial": 190, "trialdata": {"rt": -1, "trial_type": "single-stim", "word": "shelf", "stimulus": "<p id=\"stim\">SHELF</p>", "conditions": [24, 800, "v", 12000], "internal_node_id": "0.0-136.0", "trial": 5, "time_elapsed": 929670, "serialpos": 5, "key_press": -1, "wordID": 1279, "type": "PRES_VIS", "trial_index": 190}, "uniqueid": "MTK2857:3X73LLYYQ2LIC0JF8C8NDZFZ31IHN6", "dateTime": 1519415379042}, {"current_trial": 191, "trialdata": {"rt": -1, "trial_type": "single-stim", "word": "crutch", "stimulus": "<p id=\"stim\">CRUTCH</p>", "conditions": [24, 800, "v", 12000], "internal_node_id": "0.0-137.0", "trial": 5, "time_elapsed": 931450, "serialpos": 6, "key_press": -1, "wordID": 416, "type": "PRES_VIS", "trial_index": 191}, "uniqueid": "MTK2857:3X73LLYYQ2LIC0JF8C8NDZFZ31IHN6", "dateTime": 1519415380823}, {"current_trial": 192, "trialdata": {"rt": -1, "trial_type": "single-stim", "word": "peanut", "stimulus": "<p id=\"stim\">PEANUT</p>", "conditions": [24, 800, "v", 12000], "internal_node_id": "0.0-138.0", "trial": 5, "time_elapsed": 933436, "serialpos": 7, "key_press": -1, "wordID": 1031, "type": "PRES_VIS", "trial_index": 192}, "uniqueid": "MTK2857:3X73LLYYQ2LIC0JF8C8NDZFZ31IHN6", "dateTime": 1519415382809}, {"current_trial": 193, "trialdata": {"rt": -1, "trial_type": "single-stim", "word": "pudding", "stimulus": "<p id=\"stim\">PUDDING</p>", "conditions": [24, 800, "v", 12000], "internal_node_id": "0.0-139.0", "trial": 5, "time_elapsed": 935066, "serialpos": 8, "key_press": -1, "wordID": 1138, "type": "PRES_VIS", "trial_index": 193}, "uniqueid": "MTK2857:3X73LLYYQ2LIC0JF8C8NDZFZ31IHN6", "dateTime": 1519415384438}, {"current_trial": 194, "trialdata": {"rt": -1, "trial_type": "single-stim", "word": "parsley", "stimulus": "<p id=\"stim\">PARSLEY</p>", "conditions": [24, 800, "v", 12000], "internal_node_id": "0.0-140.0", "trial": 5, "time_elapsed": 937037, "serialpos": 9, "key_press": -1, "wordID": 1015, "type": "PRES_VIS", "trial_index": 194}, "uniqueid": "MTK2857:3X73LLYYQ2LIC0JF8C8NDZFZ31IHN6", "dateTime": 1519415386410}, {"current_trial": 195, "trialdata": {"rt": -1, "trial_type": "single-stim", "word": "lettuce", "stimulus": "<p id=\"stim\">LETTUCE</p>", "conditions": [24, 800, "v", 12000], "internal_node_id": "0.0-141.0", "trial": 5, "time_elapsed": 938930, "serialpos": 10, "key_press": -1, "wordID": 813, "type": "PRES_VIS", "trial_index": 195}, "uniqueid": "MTK2857:3X73LLYYQ2LIC0JF8C8NDZFZ31IHN6", "dateTime": 1519415388303}, {"current_trial": 196, "trialdata": {"rt": -1, "trial_type": "single-stim", "word": "scarf", "stimulus": "<p id=\"stim\">SCARF</p>", "conditions": [24, 800, "v", 12000], "internal_node_id": "0.0-142.0", "trial": 5, "time_elapsed": 940762, "serialpos": 11, "key_press": -1, "wordID": 1245, "type": "PRES_VIS", "trial_index": 196}, "uniqueid": "MTK2857:3X73LLYYQ2LIC0JF8C8NDZFZ31IHN6", "dateTime": 1519415390134}, {"current_trial": 197, "trialdata": {"rt": -1, "trial_type": "single-stim", "word": "orchid", "stimulus": "<p id=\"stim\">ORCHID</p>", "conditions": [24, 800, "v", 12000], "internal_node_id": "0.0-143.0", "trial": 5, "time_elapsed": 942448, "serialpos": 12, "key_press": -1, "wordID": 981, "type": "PRES_VIS", "trial_index": 197}, "uniqueid": "MTK2857:3X73LLYYQ2LIC0JF8C8NDZFZ31IHN6", "dateTime": 1519415391820}, {"current_trial": 198, "trialdata": {"rt": -1, "trial_type": "single-stim", "word": "dashboard", "stimulus": "<p id=\"stim\">DASHBOARD</p>", "conditions": [24, 800, "v", 12000], "internal_node_id": "0.0-144.0", "trial": 5, "time_elapsed": 944431, "serialpos": 13, "key_press": -1, "wordID": 440, "type": "PRES_VIS", "trial_index": 198}, "uniqueid": "MTK2857:3X73LLYYQ2LIC0JF8C8NDZFZ31IHN6", "dateTime": 1519415393804}, {"current_trial": 199, "trialdata": {"rt": -1, "trial_type": "single-stim", "word": "guitar", "stimulus": "<p id=\"stim\">GUITAR</p>", "conditions": [24, 800, "v", 12000], "internal_node_id": "0.0-145.0", "trial": 5, "time_elapsed": 946157, "serialpos": 14, "key_press": -1, "wordID": 669, "type": "PRES_VIS", "trial_index": 199}, "uniqueid": "MTK2857:3X73LLYYQ2LIC0JF8C8NDZFZ31IHN6", "dateTime": 1519415395529}, {"current_trial": 200, "trialdata": {"rt": -1, "trial_type": "single-stim", "word": "cashew", "stimulus": "<p id=\"stim\">CASHEW</p>", "conditions": [24, 800, "v", 12000], "internal_node_id": "0.0-146.0", "trial": 5, "time_elapsed": 948114, "serialpos": 15, "key_press": -1, "wordID": 252, "type": "PRES_VIS", "trial_index": 200}, "uniqueid": "MTK2857:3X73LLYYQ2LIC0JF8C8NDZFZ31IHN6", "dateTime": 1519415397486}, {"current_trial": 201, "trialdata": {"rt": -1, "trial_type": "single-stim", "word": "airport", "stimulus": "<p id=\"stim\">AIRPORT</p>", "conditions": [24, 800, "v", 12000], "internal_node_id": "0.0-147.0", "trial": 5, "time_elapsed": 949838, "serialpos": 16, "key_press": -1, "wordID": 12, "type": "PRES_VIS", "trial_index": 201}, "uniqueid": "MTK2857:3X73LLYYQ2LIC0JF8C8NDZFZ31IHN6", "dateTime": 1519415399211}, {"current_trial": 202, "trialdata": {"rt": -1, "trial_type": "single-stim", "word": "lake", "stimulus": "<p id=\"stim\">LAKE</p>", "conditions": [24, 800, "v", 12000], "internal_node_id": "0.0-148.0", "trial": 5, "time_elapsed": 951600, "serialpos": 17, "key_press": -1, "wordID": 795, "type": "PRES_VIS", "trial_index": 202}, "uniqueid": "MTK2857:3X73LLYYQ2LIC0JF8C8NDZFZ31IHN6", "dateTime": 1519415400973}, {"current_trial": 203, "trialdata": {"rt": -1, "trial_type": "single-stim", "word": "flute", "stimulus": "<p id=\"stim\">FLUTE</p>", "conditions": [24, 800, "v", 12000], "internal_node_id": "0.0-149.0", "trial": 5, "time_elapsed": 953526, "serialpos": 18, "key_press": -1, "wordID": 584, "type": "PRES_VIS", "trial_index": 203}, "uniqueid": "MTK2857:3X73LLYYQ2LIC0JF8C8NDZFZ31IHN6", "dateTime": 1519415402898}, {"current_trial": 204, "trialdata": {"rt": -1, "trial_type": "single-stim", "word": "clam", "stimulus": "<p id=\"stim\">CLAM</p>", "conditions": [24, 800, "v", 12000], "internal_node_id": "0.0-150.0", "trial": 5, "time_elapsed": 955413, "serialpos": 19, "key_press": -1, "wordID": 314, "type": "PRES_VIS", "trial_index": 204}, "uniqueid": "MTK2857:3X73LLYYQ2LIC0JF8C8NDZFZ31IHN6", "dateTime": 1519415404785}, {"current_trial": 205, "trialdata": {"rt": -1, "trial_type": "single-stim", "word": "crab", "stimulus": "<p id=\"stim\">CRAB</p>", "conditions": [24, 800, "v", 12000], "internal_node_id": "0.0-151.0", "trial": 5, "time_elapsed": 957120, "serialpos": 20, "key_press": -1, "wordID": 396, "type": "PRES_VIS", "trial_index": 205}, "uniqueid": "MTK2857:3X73LLYYQ2LIC0JF8C8NDZFZ31IHN6", "dateTime": 1519415406492}, {"current_trial": 206, "trialdata": {"rt": -1, "trial_type": "single-stim", "word": "lace", "stimulus": "<p id=\"stim\">LACE</p>", "conditions": [24, 800, "v", 12000], "internal_node_id": "0.0-152.0", "trial": 5, "time_elapsed": 958809, "serialpos": 21, "key_press": -1, "wordID": 791, "type": "PRES_VIS", "trial_index": 206}, "uniqueid": "MTK2857:3X73LLYYQ2LIC0JF8C8NDZFZ31IHN6", "dateTime": 1519415408181}, {"current_trial": 207, "trialdata": {"rt": -1, "trial_type": "single-stim", "word": "turnip", "stimulus": "<p id=\"stim\">TURNIP</p>", "conditions": [24, 800, "v", 12000], "internal_node_id": "0.0-153.0", "trial": 5, "time_elapsed": 960748, "serialpos": 22, "key_press": -1, "wordID": 1520, "type": "PRES_VIS", "trial_index": 207}, "uniqueid": "MTK2857:3X73LLYYQ2LIC0JF8C8NDZFZ31IHN6", "dateTime": 1519415410120}, {"current_trial": 208, "trialdata": {"rt": -1, "trial_type": "single-stim", "word": "dancer", "stimulus": "<p id=\"stim\">DANCER</p>", "conditions": [24, 800, "v", 12000], "internal_node_id": "0.0-154.0", "trial": 5, "time_elapsed": 962661, "serialpos": 23, "key_press": -1, "wordID": 436, "type": "PRES_VIS", "trial_index": 208}, "uniqueid": "MTK2857:3X73LLYYQ2LIC0JF8C8NDZFZ31IHN6", "dateTime": 1519415412033}, {"current_trial": 209, "trialdata": {"rt": -1, "trial_type": "single-stim", "stimulus": "", "internal_node_id": "0.0-155.0-0.0", "time_elapsed": 964950, "key_press": -1, "type": "PRE_RECALL_DELAY", "trial_index": 209}, "uniqueid": "MTK2857:3X73LLYYQ2LIC0JF8C8NDZFZ31IHN6", "dateTime": 1519415414322}, {"current_trial": 210, "trialdata": {"rt": -1000, "trial_type": "single-audio", "stimulus": "/static/audio/400Hz.wav", "internal_node_id": "0.0-156.0", "time_elapsed": 965460, "key_press": -1, "type": "PRE_RECALL_ALERT", "trial_index": 210}, "uniqueid": "MTK2857:3X73LLYYQ2LIC0JF8C8NDZFZ31IHN6", "dateTime": 1519415414832}, {"current_trial": 211, "trialdata": {"rt": [1990, 3028, 3994, 7130, 8838, 9937, 11140, 12094, 13875, 29389, 38008, 39349], "recwords": ["dancer", "peanut", "pudding", "parlsey", "turnip", "lettuce", "church", "shelter", "pizza", "shelf", "orchid", "dashboard"], "key_times": [1014, 1171, 1322, 1451, 1666, 1783, 1990, 2373, 2407, 2568, 2641, 2803, 2920, 3028, 3284, 3354, 3475, 3622, 3740, 3772, 3844, 3994, 5841, 5974, 6051, 6209, 6361, 6632, 6798, 7130, 7414, 7579, 8182, 8299, 8379, 8498, 8838, 9140, 9258, 9420, 9556, 9639, 9745, 9822, 9937, 10227, 10341, 10524, 10648, 10852, 10933, 11140, 11271, 11389, 11482, 11553, 11678, 11816, 11887, 12094, 12801, 12878, 12967, 13412, 13637, 13875, 28861, 28968, 29060, 29185, 29251, 29389, 37104, 37328, 37554, 37632, 37678, 37836, 38008, 38261, 38376, 38520, 38645, 38801, 38927, 39048, 39156, 39205, 39349], "trial_type": "free-recall", "conditions": [24, 800, "v", 12000], "internal_node_id": "0.0-157.0-0.0", "key_presses": [68, 65, 78, 67, 69, 82, 13, 80, 69, 65, 78, 85, 84, 13, 80, 85, 68, 68, 73, 78, 71, 13, 80, 65, 82, 76, 83, 69, 89, 13, 84, 85, 82, 78, 73, 80, 13, 76, 69, 84, 84, 85, 67, 69, 13, 67, 72, 85, 82, 67, 72, 13, 83, 72, 69, 76, 84, 69, 82, 13, 80, 73, 90, 90, 65, 13, 83, 72, 69, 76, 70, 13, 79, 82, 67, 72, 73, 68, 13, 68, 65, 83, 72, 66, 79, 65, 82, 68, 13], "trial": 5, "time_elapsed": 1025465, "type": "FREE_RECALL", "trial_index": 211}, "uniqueid": "MTK2857:3X73LLYYQ2LIC0JF8C8NDZFZ31IHN6", "dateTime": 1519415474844}, {"current_trial": 212, "trialdata": {"rt": 578, "trial_type": "text", "internal_node_id": "0.0-158.0", "time_elapsed": 1028051, "key_press": 32, "type": "INSTRUCTIONS", "trial_index": 212}, "uniqueid": "MTK2857:3X73LLYYQ2LIC0JF8C8NDZFZ31IHN6", "dateTime": 1519415477424}, {"current_trial": 213, "trialdata": {"rt": [3009, 7886, 10411], "trial_type": "math-distractor", "key_times": [2628, 2748, 3009, 5198, 5349, 7886, 9906, 10146, 10411], "responses": ["15", "14", "18"], "num2": [3, 5, 8, 7], "num3": [9, 2, 4, 8], "conditions": [12, 800, "v", 12000], "internal_node_id": "0.0-159.0", "key_presses": [49, 53, 13, 49, 52, 13, 49, 56, 13], "trial": 6, "time_elapsed": 1042057, "type": "DISTRACTOR", "trial_index": 213, "num1": [3, 7, 6, 6]}, "uniqueid": "MTK2857:3X73LLYYQ2LIC0JF8C8NDZFZ31IHN6", "dateTime": 1519415491429}, {"current_trial": 214, "trialdata": {"rt": -1, "trial_type": "single-stim", "stimulus": "<p id=\"stim\">10</p>", "internal_node_id": "0.0-160.0-0.0", "time_elapsed": 1045060, "key_press": -1, "trial_index": 214}, "uniqueid": "MTK2857:3X73LLYYQ2LIC0JF8C8NDZFZ31IHN6", "dateTime": 1519415494432}, {"current_trial": 215, "trialdata": {"rt": -1, "trial_type": "single-stim", "stimulus": "<p id=\"stim\">9</p>", "internal_node_id": "0.0-160.0-1.0", "time_elapsed": 1046063, "key_press": -1, "trial_index": 215}, "uniqueid": "MTK2857:3X73LLYYQ2LIC0JF8C8NDZFZ31IHN6", "dateTime": 1519415495435}, {"current_trial": 216, "trialdata": {"rt": -1, "trial_type": "single-stim", "stimulus": "<p id=\"stim\">8</p>", "internal_node_id": "0.0-160.0-2.0", "time_elapsed": 1047065, "key_press": -1, "trial_index": 216}, "uniqueid": "MTK2857:3X73LLYYQ2LIC0JF8C8NDZFZ31IHN6", "dateTime": 1519415496437}, {"current_trial": 217, "trialdata": {"rt": -1, "trial_type": "single-stim", "stimulus": "<p id=\"stim\">7</p>", "internal_node_id": "0.0-160.0-3.0", "time_elapsed": 1048067, "key_press": -1, "trial_index": 217}, "uniqueid": "MTK2857:3X73LLYYQ2LIC0JF8C8NDZFZ31IHN6", "dateTime": 1519415497439}, {"current_trial": 218, "trialdata": {"rt": -1, "trial_type": "single-stim", "stimulus": "<p id=\"stim\">6</p>", "internal_node_id": "0.0-160.0-4.0", "time_elapsed": 1049069, "key_press": -1, "trial_index": 218}, "uniqueid": "MTK2857:3X73LLYYQ2LIC0JF8C8NDZFZ31IHN6", "dateTime": 1519415498441}, {"current_trial": 219, "trialdata": {"rt": -1, "trial_type": "single-stim", "stimulus": "<p id=\"stim\">5</p>", "internal_node_id": "0.0-160.0-5.0", "time_elapsed": 1050073, "key_press": -1, "trial_index": 219}, "uniqueid": "MTK2857:3X73LLYYQ2LIC0JF8C8NDZFZ31IHN6", "dateTime": 1519415499445}, {"current_trial": 220, "trialdata": {"rt": -1, "trial_type": "single-stim", "stimulus": "<p id=\"stim\">4</p>", "internal_node_id": "0.0-160.0-6.0", "time_elapsed": 1051075, "key_press": -1, "trial_index": 220}, "uniqueid": "MTK2857:3X73LLYYQ2LIC0JF8C8NDZFZ31IHN6", "dateTime": 1519415500448}, {"current_trial": 221, "trialdata": {"rt": -1, "trial_type": "single-stim", "stimulus": "<p id=\"stim\">3</p>", "internal_node_id": "0.0-160.0-7.0", "time_elapsed": 1052076, "key_press": -1, "trial_index": 221}, "uniqueid": "MTK2857:3X73LLYYQ2LIC0JF8C8NDZFZ31IHN6", "dateTime": 1519415501448}, {"current_trial": 222, "trialdata": {"rt": -1, "trial_type": "single-stim", "stimulus": "<p id=\"stim\">2</p>", "internal_node_id": "0.0-160.0-8.0", "time_elapsed": 1053078, "key_press": -1, "trial_index": 222}, "uniqueid": "MTK2857:3X73LLYYQ2LIC0JF8C8NDZFZ31IHN6", "dateTime": 1519415502451}, {"current_trial": 223, "trialdata": {"rt": -1, "trial_type": "single-stim", "stimulus": "<p id=\"stim\">1</p>", "internal_node_id": "0.0-160.0-9.0", "time_elapsed": 1054080, "key_press": -1, "trial_index": 223}, "uniqueid": "MTK2857:3X73LLYYQ2LIC0JF8C8NDZFZ31IHN6", "dateTime": 1519415503453}, {"current_trial": 224, "trialdata": {"rt": -1, "trial_type": "single-stim", "stimulus": "<p id=\"stim\">+</p>", "internal_node_id": "0.0-161.0-0.0", "time_elapsed": 1055582, "key_press": -1, "type": "FIXATION", "trial_index": 224}, "uniqueid": "MTK2857:3X73LLYYQ2LIC0JF8C8NDZFZ31IHN6", "dateTime": 1519415504954}, {"current_trial": 225, "trialdata": {"rt": -1, "trial_type": "single-stim", "word": "patrol", "stimulus": "<p id=\"stim\">PATROL</p>", "conditions": [12, 800, "v", 12000], "internal_node_id": "0.0-162.0", "trial": 6, "time_elapsed": 1056385, "serialpos": 0, "key_press": -1, "wordID": 1026, "type": "PRES_VIS", "trial_index": 225}, "uniqueid": "MTK2857:3X73LLYYQ2LIC0JF8C8NDZFZ31IHN6", "dateTime": 1519415505757}, {"current_trial": 226, "trialdata": {"rt": -1, "trial_type": "single-stim", "word": "nurse", "stimulus": "<p id=\"stim\">NURSE</p>", "conditions": [12, 800, "v", 12000], "internal_node_id": "0.0-163.0", "trial": 6, "time_elapsed": 1058174, "serialpos": 1, "key_press": -1, "wordID": 962, "type": "PRES_VIS", "trial_index": 226}, "uniqueid": "MTK2857:3X73LLYYQ2LIC0JF8C8NDZFZ31IHN6", "dateTime": 1519415507546}, {"current_trial": 227, "trialdata": {"rt": -1, "trial_type": "single-stim", "word": "flesh", "stimulus": "<p id=\"stim\">FLESH</p>", "conditions": [12, 800, "v", 12000], "internal_node_id": "0.0-164.0", "trial": 6, "time_elapsed": 1059941, "serialpos": 2, "key_press": -1, "wordID": 578, "type": "PRES_VIS", "trial_index": 227}, "uniqueid": "MTK2857:3X73LLYYQ2LIC0JF8C8NDZFZ31IHN6", "dateTime": 1519415509314}, {"current_trial": 228, "trialdata": {"rt": -1, "trial_type": "single-stim", "word": "leg", "stimulus": "<p id=\"stim\">LEG</p>", "conditions": [12, 800, "v", 12000], "internal_node_id": "0.0-165.0", "trial": 6, "time_elapsed": 1061623, "serialpos": 3, "key_press": -1, "wordID": 808, "type": "PRES_VIS", "trial_index": 228}, "uniqueid": "MTK2857:3X73LLYYQ2LIC0JF8C8NDZFZ31IHN6", "dateTime": 1519415510995}, {"current_trial": 229, "trialdata": {"rt": -1, "trial_type": "single-stim", "word": "police", "stimulus": "<p id=\"stim\">POLICE</p>", "conditions": [12, 800, "v", 12000], "internal_node_id": "0.0-166.0", "trial": 6, "time_elapsed": 1063617, "serialpos": 4, "key_press": -1, "wordID": 1097, "type": "PRES_VIS", "trial_index": 229}, "uniqueid": "MTK2857:3X73LLYYQ2LIC0JF8C8NDZFZ31IHN6", "dateTime": 1519415512990}, {"current_trial": 230, "trialdata": {"rt": -1, "trial_type": "single-stim", "word": "fireplace", "stimulus": "<p id=\"stim\">FIREPLACE</p>", "conditions": [12, 800, "v", 12000], "internal_node_id": "0.0-167.0", "trial": 6, "time_elapsed": 1065555, "serialpos": 5, "key_press": -1, "wordID": 569, "type": "PRES_VIS", "trial_index": 230}, "uniqueid": "MTK2857:3X73LLYYQ2LIC0JF8C8NDZFZ31IHN6", "dateTime": 1519415514928}, {"current_trial": 231, "trialdata": {"rt": -1, "trial_type": "single-stim", "word": "stove", "stimulus": "<p id=\"stim\">STOVE</p>", "conditions": [12, 800, "v", 12000], "internal_node_id": "0.0-168.0", "trial": 6, "time_elapsed": 1067310, "serialpos": 6, "key_press": -1, "wordID": 1387, "type": "PRES_VIS", "trial_index": 231}, "uniqueid": "MTK2857:3X73LLYYQ2LIC0JF8C8NDZFZ31IHN6", "dateTime": 1519415516682}, {"current_trial": 232, "trialdata": {"rt": -1, "trial_type": "single-stim", "word": "badge", "stimulus": "<p id=\"stim\">BADGE</p>", "conditions": [12, 800, "v", 12000], "internal_node_id": "0.0-169.0", "trial": 6, "time_elapsed": 1069297, "serialpos": 7, "key_press": -1, "wordID": 67, "type": "PRES_VIS", "trial_index": 232}, "uniqueid": "MTK2857:3X73LLYYQ2LIC0JF8C8NDZFZ31IHN6", "dateTime": 1519415518669}, {"current_trial": 233, "trialdata": {"rt": -1, "trial_type": "single-stim", "word": "cook", "stimulus": "<p id=\"stim\">COOK</p>", "conditions": [12, 800, "v", 12000], "internal_node_id": "0.0-170.0", "trial": 6, "time_elapsed": 1071075, "serialpos": 8, "key_press": -1, "wordID": 371, "type": "PRES_VIS", "trial_index": 233}, "uniqueid": "MTK2857:3X73LLYYQ2LIC0JF8C8NDZFZ31IHN6", "dateTime": 1519415520447}, {"current_trial": 234, "trialdata": {"rt": -1, "trial_type": "single-stim", "word": "vagrant", "stimulus": "<p id=\"stim\">VAGRANT</p>", "conditions": [12, 800, "v", 12000], "internal_node_id": "0.0-171.0", "trial": 6, "time_elapsed": 1073028, "serialpos": 9, "key_press": -1, "wordID": 1543, "type": "PRES_VIS", "trial_index": 234}, "uniqueid": "MTK2857:3X73LLYYQ2LIC0JF8C8NDZFZ31IHN6", "dateTime": 1519415522400}, {"current_trial": 235, "trialdata": {"rt": -1, "trial_type": "single-stim", "word": "student", "stimulus": "<p id=\"stim\">STUDENT</p>", "conditions": [12, 800, "v", 12000], "internal_node_id": "0.0-172.0", "trial": 6, "time_elapsed": 1074720, "serialpos": 10, "key_press": -1, "wordID": 1394, "type": "PRES_VIS", "trial_index": 235}, "uniqueid": "MTK2857:3X73LLYYQ2LIC0JF8C8NDZFZ31IHN6", "dateTime": 1519415524092}, {"current_trial": 236, "trialdata": {"rt": -1, "trial_type": "single-stim", "word": "eyelash", "stimulus": "<p id=\"stim\">EYELASH</p>", "conditions": [12, 800, "v", 12000], "internal_node_id": "0.0-173.0", "trial": 6, "time_elapsed": 1076481, "serialpos": 11, "key_press": -1, "wordID": 545, "type": "PRES_VIS", "trial_index": 236}, "uniqueid": "MTK2857:3X73LLYYQ2LIC0JF8C8NDZFZ31IHN6", "dateTime": 1519415525853}, {"current_trial": 237, "trialdata": {"rt": -1, "trial_type": "single-stim", "stimulus": "", "internal_node_id": "0.0-174.0-0.0", "time_elapsed": 1078776, "key_press": -1, "type": "PRE_RECALL_DELAY", "trial_index": 237}, "uniqueid": "MTK2857:3X73LLYYQ2LIC0JF8C8NDZFZ31IHN6", "dateTime": 1519415528148}, {"current_trial": 238, "trialdata": {"rt": -1000, "trial_type": "single-audio", "stimulus": "/static/audio/400Hz.wav", "internal_node_id": "0.0-175.0", "time_elapsed": 1079278, "key_press": -1, "type": "PRE_RECALL_ALERT", "trial_index": 238}, "uniqueid": "MTK2857:3X73LLYYQ2LIC0JF8C8NDZFZ31IHN6", "dateTime": 1519415528650}, {"current_trial": 239, "trialdata": {"rt": [1590, 2513, 3783, 7149, 9633, 14108, 14903, 20910, 23784], "recwords": ["vagrant", "student", "eyelash", "patrol", "nurse", "flesh", "leg", "police", "badge"], "key_times": [638, 793, 934, 1133, 1208, 1365, 1438, 1590, 1747, 1834, 1957, 2033, 2178, 2295, 2404, 2513, 2634, 2840, 3034, 3163, 3321, 3389, 3541, 3783, 5015, 6142, 6255, 6426, 6556, 6772, 7149, 7440, 7657, 7738, 7952, 8025, 9165, 9306, 9426, 9495, 9633, 13339, 13496, 13607, 13724, 13913, 14108, 14426, 14533, 14660, 14903, 15598, 19671, 19970, 20208, 20491, 20605, 20728, 20754, 20910, 21180, 21343, 21418, 21605, 21734, 22248, 22409, 22556, 22698, 22831, 23045, 23202, 23303, 23475, 23587, 23784], "trial_type": "free-recall", "conditions": [12, 800, "v", 12000], "internal_node_id": "0.0-176.0-0.0", "key_presses": [86, 65, 71, 82, 65, 78, 84, 13, 83, 84, 85, 68, 69, 78, 84, 13, 69, 89, 69, 76, 65, 83, 72, 13, 80, 65, 84, 82, 79, 76, 13, 78, 85, 82, 67, 69, 8, 8, 83, 69, 13, 70, 76, 69, 83, 72, 13, 76, 69, 71, 13, 66, 8, 80, 79, 76, 73, 67, 69, 13, 80, 65, 68, 71, 69, 8, 8, 8, 8, 8, 66, 65, 68, 71, 69, 13], "trial": 6, "time_elapsed": 1139285, "type": "FREE_RECALL", "trial_index": 239}, "uniqueid": "MTK2857:3X73LLYYQ2LIC0JF8C8NDZFZ31IHN6", "dateTime": 1519415588664}, {"current_trial": 240, "trialdata": {"rt": 39917, "trial_type": "text", "internal_node_id": "0.0-177.0", "time_elapsed": 1181215, "key_press": 32, "type": "INSTRUCTIONS", "trial_index": 240}, "uniqueid": "MTK2857:3X73LLYYQ2LIC0JF8C8NDZFZ31IHN6", "dateTime": 1519415630587}, {"current_trial": 241, "trialdata": {"rt": [1513, 3969, 7830, 10467], "trial_type": "math-distractor", "key_times": [1215, 1513, 3615, 3730, 3969, 7415, 7533, 7830, 10029, 10183, 10467], "responses": ["9", "12", "12", "20"], "num2": [6, 7, 1, 8, 8], "num3": [1, 4, 9, 6, 1], "conditions": [24, 1600, "v", 12000], "internal_node_id": "0.0-178.0", "key_presses": [57, 13, 49, 50, 13, 49, 50, 13, 50, 48, 13], "trial": 7, "time_elapsed": 1195220, "type": "DISTRACTOR", "trial_index": 241, "num1": [2, 1, 2, 6, 7]}, "uniqueid": "MTK2857:3X73LLYYQ2LIC0JF8C8NDZFZ31IHN6", "dateTime": 1519415644592}, {"current_trial": 242, "trialdata": {"rt": -1, "trial_type": "single-stim", "stimulus": "<p id=\"stim\">10</p>", "internal_node_id": "0.0-179.0-0.0", "time_elapsed": 1198222, "key_press": -1, "trial_index": 242}, "uniqueid": "MTK2857:3X73LLYYQ2LIC0JF8C8NDZFZ31IHN6", "dateTime": 1519415647595}, {"current_trial": 243, "trialdata": {"rt": -1, "trial_type": "single-stim", "stimulus": "<p id=\"stim\">9</p>", "internal_node_id": "0.0-179.0-1.0", "time_elapsed": 1199224, "key_press": -1, "trial_index": 243}, "uniqueid": "MTK2857:3X73LLYYQ2LIC0JF8C8NDZFZ31IHN6", "dateTime": 1519415648596}, {"current_trial": 244, "trialdata": {"rt": -1, "trial_type": "single-stim", "stimulus": "<p id=\"stim\">8</p>", "internal_node_id": "0.0-179.0-2.0", "time_elapsed": 1200227, "key_press": -1, "trial_index": 244}, "uniqueid": "MTK2857:3X73LLYYQ2LIC0JF8C8NDZFZ31IHN6", "dateTime": 1519415649599}, {"current_trial": 245, "trialdata": {"rt": -1, "trial_type": "single-stim", "stimulus": "<p id=\"stim\">7</p>", "internal_node_id": "0.0-179.0-3.0", "time_elapsed": 1201228, "key_press": -1, "trial_index": 245}, "uniqueid": "MTK2857:3X73LLYYQ2LIC0JF8C8NDZFZ31IHN6", "dateTime": 1519415650601}, {"current_trial": 246, "trialdata": {"rt": -1, "trial_type": "single-stim", "stimulus": "<p id=\"stim\">6</p>", "internal_node_id": "0.0-179.0-4.0", "time_elapsed": 1202231, "key_press": -1, "trial_index": 246}, "uniqueid": "MTK2857:3X73LLYYQ2LIC0JF8C8NDZFZ31IHN6", "dateTime": 1519415651604}, {"current_trial": 247, "trialdata": {"rt": -1, "trial_type": "single-stim", "stimulus": "<p id=\"stim\">5</p>", "internal_node_id": "0.0-179.0-5.0", "time_elapsed": 1203233, "key_press": -1, "trial_index": 247}, "uniqueid": "MTK2857:3X73LLYYQ2LIC0JF8C8NDZFZ31IHN6", "dateTime": 1519415652606}, {"current_trial": 248, "trialdata": {"rt": -1, "trial_type": "single-stim", "stimulus": "<p id=\"stim\">4</p>", "internal_node_id": "0.0-179.0-6.0", "time_elapsed": 1204235, "key_press": -1, "trial_index": 248}, "uniqueid": "MTK2857:3X73LLYYQ2LIC0JF8C8NDZFZ31IHN6", "dateTime": 1519415653607}, {"current_trial": 249, "trialdata": {"rt": -1, "trial_type": "single-stim", "stimulus": "<p id=\"stim\">3</p>", "internal_node_id": "0.0-179.0-7.0", "time_elapsed": 1205236, "key_press": -1, "trial_index": 249}, "uniqueid": "MTK2857:3X73LLYYQ2LIC0JF8C8NDZFZ31IHN6", "dateTime": 1519415654609}, {"current_trial": 250, "trialdata": {"rt": -1, "trial_type": "single-stim", "stimulus": "<p id=\"stim\">2</p>", "internal_node_id": "0.0-179.0-8.0", "time_elapsed": 1206239, "key_press": -1, "trial_index": 250}, "uniqueid": "MTK2857:3X73LLYYQ2LIC0JF8C8NDZFZ31IHN6", "dateTime": 1519415655611}, {"current_trial": 251, "trialdata": {"rt": -1, "trial_type": "single-stim", "stimulus": "<p id=\"stim\">1</p>", "internal_node_id": "0.0-179.0-9.0", "time_elapsed": 1207241, "key_press": -1, "trial_index": 251}, "uniqueid": "MTK2857:3X73LLYYQ2LIC0JF8C8NDZFZ31IHN6", "dateTime": 1519415656613}, {"current_trial": 252, "trialdata": {"rt": -1, "trial_type": "single-stim", "stimulus": "<p id=\"stim\">+</p>", "internal_node_id": "0.0-180.0-0.0", "time_elapsed": 1208743, "key_press": -1, "type": "FIXATION", "trial_index": 252}, "uniqueid": "MTK2857:3X73LLYYQ2LIC0JF8C8NDZFZ31IHN6", "dateTime": 1519415658115}, {"current_trial": 253, "trialdata": {"rt": -1, "trial_type": "single-stim", "word": "mailbox", "stimulus": "<p id=\"stim\">MAILBOX</p>", "conditions": [24, 1600, "v", 12000], "internal_node_id": "0.0-181.0", "trial": 7, "time_elapsed": 1210346, "serialpos": 0, "key_press": -1, "wordID": 856, "type": "PRES_VIS", "trial_index": 253}, "uniqueid": "MTK