{"assignmentId": "3JCG6DTRV4XGSQVA7UNYQ725YP6QQI", "workerId": "MTK2590", "questiondata": {"origin": "United States", "strat-rehearsal": "0", "marital": "Single", "education": "Bachelor's degree", "ethnicity": "Not Hispanic", "color_depth": 24, "distracted": "No", "wrote-notes": "No", "strat-other": "Repeated each word to myself as many times as I could before the next word was said. ", "screen_width": 1366, "avail_screen_width": 1366, "avail_screen_height": 728, "strat-image": "97", "language": "English", "gender": "Female", "age": "36", "gender_other": "", "race": ["White"], "strat-categorize": "3", "pixel_depth": 24, "strat-spatial": "0", "strat-story": "0", "race_other": "", "screen_height": 768}, "bonus": 0, "hitId": "3F6045TU7DV2L8Z8JOWOTXQ7UKE994", "counterbalance": 2273, "useragent": "Mozilla/5.0 (Windows NT 10.0; Win64; x64) AppleWebKit/537.36 (KHTML, like Gecko) Chrome/63.0.3239.132 Safari/537.36", "eventdata": [{"eventtype": "initialized", "interval": 0, "value": null, "timestamp": 1519083028125}, {"eventtype": "window_resize", "interval": 0, "value": [1366, 721], "timestamp": 1519083028125}, {"eventtype": "window_resize", "interval": 16468, "value": [1517, 801], "timestamp": 1519083044593}, {"eventtype": "focus", "interval": 225785, "value": "off", "timestamp": 1519083270378}, {"eventtype": "focus", "interval": 1612, "value": "on", "timestamp": 1519083271990}, {"eventtype": "focus", "interval": 172139, "value": "off", "timestamp": 1519083444129}, {"eventtype": "focus", "interval": 7096, "value": "on", "timestamp": 1519083451225}, {"eventtype": "focus", "interval": 60693, "value": "off", "timestamp": 1519083511918}, {"eventtype": "focus", "interval": 121120, "value": "on", "timestamp": 1519083633038}, {"eventtype": "focus", "interval": 69874, "value": "off", "timestamp": 1519083702912}, {"eventtype": "focus", "interval": 48214, "value": "on", "timestamp": 1519083751126}, {"eventtype": "focus", "interval": 853922, "value": "off", "timestamp": 1519084605048}, {"eventtype": "focus", "interval": 1517, "value": "on", "timestamp": 1519084606565}, {"eventtype": "focus", "interval": 152847, "value": "off", "timestamp": 1519084759412}, {"eventtype": "focus", "interval": 2012, "value": "on", "timestamp": 1519084761424}, {"eventtype": "focus", "interval": 162910, "value": "off", "timestamp": 1519084924334}, {"eventtype": "focus", "interval": 21965, "value": "on", "timestamp": 1519084946299}, {"eventtype": "focus", "interval": 396900, "value": "off", "timestamp": 1519085343199}, {"eventtype": "focus", "interval": 1170, "value": "on", "timestamp": 1519085344369}, {"eventtype": "focus", "interval": 131897, "value": "off", "timestamp": 1519085476266}, {"eventtype": "focus", "interval": 23160, "value": "on", "timestamp": 1519085499426}, {"eventtype": "focus", "interval": 267860, "value": "off", "timestamp": 1519085767286}, {"eventtype": "focus", "interval": 3639, "value": "on", "timestamp": 1519085770925}, {"eventtype": "focus", "interval": 482129, "value": "off", "timestamp": 1519086253054}, {"eventtype": "focus", "interval": 11270, "value": "on", "timestamp": 1519086264324}], "data": [{"current_trial": 0, "trialdata": {"rt": 2536, "trial_type": "text", "internal_node_id": "0.0-0.0", "time_elapsed": 2541, "key_press": 32, "type": "INSTRUCTIONS", "trial_index": 0}, "uniqueid": "MTK2590:3JCG6DTRV4XGSQVA7UNYQ725YP6QQI", "dateTime": 1519083041322}, {"current_trial": 1, "trialdata": {"rt": 2921, "trial_type": "text", "internal_node_id": "0.0-1.0", "time_elapsed": 5465, "key_press": 17, "type": "INSTRUCTIONS", "trial_index": 1}, "uniqueid": "MTK2590:3JCG6DTRV4XGSQVA7UNYQ725YP6QQI", "dateTime": 1519083044245}, {"current_trial": 2, "trialdata": {"rt": [12348], "trial_type": "audio-test", "responses": ["ocean"], "internal_node_id": "0.0-2.0", "time_elapsed": 17830, "type": "AUDIO_TEST", "trial_index": 2}, "uniqueid": "MTK2590:3JCG6DTRV4XGSQVA7UNYQ725YP6QQI", "dateTime": 1519083056609}, {"current_trial": 3, "trialdata": {"rt": [21366], "trial_type": "audio-test", "responses": ["crystal"], "internal_node_id": "0.0-3.0", "time_elapsed": 39200, "type": "AUDIO_TEST", "trial_index": 3}, "uniqueid": "MTK2590:3JCG6DTRV4XGSQVA7UNYQ725YP6QQI", "dateTime": 1519083077979}, {"current_trial": 4, "trialdata": {"rt": [14360], "trial_type": "audio-test", "responses": ["spice"], "internal_node_id": "0.0-4.0", "time_elapsed": 53565, "type": "AUDIO_TEST", "trial_index": 4}, "uniqueid": "MTK2590:3JCG6DTRV4XGSQVA7UNYQ725YP6QQI", "dateTime": 1519083092344}, {"current_trial": 5, "trialdata": {"rt": 32119, "trial_type": "survey-text", "responses": "{\"Q0\":\"12:00pm\",\"Q1\":\"8:30am\",\"Q2\":\"3\"}", "internal_node_id": "0.0-5.0", "time_elapsed": 86437, "type": "SLEEP_SURVEY", "trial_index": 5}, "uniqueid": "MTK2590:3JCG6DTRV4XGSQVA7UNYQ725YP6QQI", "dateTime": 1519083125216}, {"current_trial": 6, "trialdata": {"rt": 83717, "trial_type": "text", "internal_node_id": "0.0-6.0", "time_elapsed": 171157, "key_press": 32, "type": "INSTRUCTIONS", "trial_index": 6}, "uniqueid": "MTK2590:3JCG6DTRV4XGSQVA7UNYQ725YP6QQI", "dateTime": 1519083209936}, {"current_trial": 7, "trialdata": {"rt": 71980, "trial_type": "text", "internal_node_id": "0.0-7.0", "time_elapsed": 243640, "key_press": 32, "type": "INSTRUCTIONS", "trial_index": 7}, "uniqueid": "MTK2590:3JCG6DTRV4XGSQVA7UNYQ725YP6QQI", "dateTime": 1519083282419}, {"current_trial": 8, "trialdata": {"rt": 15246, "trial_type": "text", "internal_node_id": "0.0-8.0", "time_elapsed": 259388, "key_press": 32, "type": "INSTRUCTIONS", "trial_index": 8}, "uniqueid": "MTK2590:3JCG6DTRV4XGSQVA7UNYQ725YP6QQI", "dateTime": 1519083298167}, {"current_trial": 9, "trialdata": {"rt": [6401, 10099, 16945], "trial_type": "math-distractor", "key_times": [4528, 4884, 6401, 9402, 10099, 16012, 16294, 16945], "responses": ["10", "7", "22"], "num2": [3, 2, 9, 6], "num3": [5, 4, 5, 6], "conditions": [18, 1200, "a", 18000], "internal_node_id": "0.0-9.0", "key_presses": [49, 48, 13, 55, 13, 50, 50, 13], "trial": 0, "time_elapsed": 278396, "type": "DISTRACTOR", "trial_index": 9, "num1": [2, 1, 8, 3]}, "uniqueid": "MTK2590:3JCG6DTRV4XGSQVA7UNYQ725YP6QQI", "dateTime": 1519083317175}, {"current_trial": 10, "trialdata": {"rt": -1, "trial_type": "single-stim", "stimulus": "<p id=\"stim\">10</p>", "internal_node_id": "0.0-10.0-0.0", "time_elapsed": 281400, "key_press": -1, "trial_index": 10}, "uniqueid": "MTK2590:3JCG6DTRV4XGSQVA7UNYQ725YP6QQI", "dateTime": 1519083320179}, {"current_trial": 11, "trialdata": {"rt": -1, "trial_type": "single-stim", "stimulus": "<p id=\"stim\">9</p>", "internal_node_id": "0.0-10.0-1.0", "time_elapsed": 282402, "key_press": -1, "trial_index": 11}, "uniqueid": "MTK2590:3JCG6DTRV4XGSQVA7UNYQ725YP6QQI", "dateTime": 1519083321181}, {"current_trial": 12, "trialdata": {"rt": -1, "trial_type": "single-stim", "stimulus": "<p id=\"stim\">8</p>", "internal_node_id": "0.0-10.0-2.0", "time_elapsed": 283404, "key_press": -1, "trial_index": 12}, "uniqueid": "MTK2590:3JCG6DTRV4XGSQVA7UNYQ725YP6QQI", "dateTime": 1519083322183}, {"current_trial": 13, "trialdata": {"rt": -1, "trial_type": "single-stim", "stimulus": "<p id=\"stim\">7</p>", "internal_node_id": "0.0-10.0-3.0", "time_elapsed": 284406, "key_press": -1, "trial_index": 13}, "uniqueid": "MTK2590:3JCG6DTRV4XGSQVA7UNYQ725YP6QQI", "dateTime": 1519083323185}, {"current_trial": 14, "trialdata": {"rt": -1, "trial_type": "single-stim", "stimulus": "<p id=\"stim\">6</p>", "internal_node_id": "0.0-10.0-4.0", "time_elapsed": 285409, "key_press": -1, "trial_index": 14}, "uniqueid": "MTK2590:3JCG6DTRV4XGSQVA7UNYQ725YP6QQI", "dateTime": 1519083324188}, {"current_trial": 15, "trialdata": {"rt": -1, "trial_type": "single-stim", "stimulus": "<p id=\"stim\">5</p>", "internal_node_id": "0.0-10.0-5.0", "time_elapsed": 286417, "key_press": -1, "trial_index": 15}, "uniqueid": "MTK2590:3JCG6DTRV4XGSQVA7UNYQ725YP6QQI", "dateTime": 1519083325197}, {"current_trial": 16, "trialdata": {"rt": -1, "trial_type": "single-stim", "stimulus": "<p id=\"stim\">4</p>", "internal_node_id": "0.0-10.0-6.0", "time_elapsed": 287422, "key_press": -1, "trial_index": 16}, "uniqueid": "MTK2590:3JCG6DTRV4XGSQVA7UNYQ725YP6QQI", "dateTime": 1519083326201}, {"current_trial": 17, "trialdata": {"rt": -1, "trial_type": "single-stim", "stimulus": "<p id=\"stim\">3</p>", "internal_node_id": "0.0-10.0-7.0", "time_elapsed": 288427, "key_press": -1, "trial_index": 17}, "uniqueid": "MTK2590:3JCG6DTRV4XGSQVA7UNYQ725YP6QQI", "dateTime": 1519083327207}, {"current_trial": 18, "trialdata": {"rt": -1, "trial_type": "single-stim", "stimulus": "<p id=\"stim\">2</p>", "internal_node_id": "0.0-10.0-8.0", "time_elapsed": 289429, "key_press": -1, "trial_index": 18}, "uniqueid": "MTK2590:3JCG6DTRV4XGSQVA7UNYQ725YP6QQI", "dateTime": 1519083328209}, {"current_trial": 19, "trialdata": {"rt": -1, "trial_type": "single-stim", "stimulus": "<p id=\"stim\">1</p>", "internal_node_id": "0.0-10.0-9.0", "time_elapsed": 290432, "key_press": -1, "trial_index": 19}, "uniqueid": "MTK2590:3JCG6DTRV4XGSQVA7UNYQ725YP6QQI", "dateTime": 1519083329211}, {"current_trial": 20, "trialdata": {"rt": -1, "trial_type": "single-stim", "stimulus": "<p id=\"stim\">+</p>", "internal_node_id": "0.0-11.0-0.0", "time_elapsed": 291938, "key_press": -1, "type": "FIXATION", "trial_index": 20}, "uniqueid": "MTK2590:3JCG6DTRV4XGSQVA7UNYQ725YP6QQI", "dateTime": 1519083330718}, {"current_trial": 21, "trialdata": {"rt": -1000, "trial_type": "single-audio", "word": "comet", "stimulus": "/static/audio/wordpool/COMET.wav", "conditions": [18, 1200, "a", 18000], "internal_node_id": "0.0-12.0", "trial": 0, "time_elapsed": 294107, "serialpos": 0, "key_press": -1, "wordID": 352, "type": "PRES_AUD", "trial_index": 21}, "uniqueid": "MTK2590:3JCG6DTRV4XGSQVA7UNYQ725YP6QQI", "dateTime": 1519083332886}, {"current_trial": 22, "trialdata": {"rt": -1000, "trial_type": "single-audio", "word": "palace", "stimulus": "/static/audio/wordpool/PALACE.wav", "conditions": [18, 1200, "a", 18000], "internal_node_id": "0.0-13.0", "trial": 0, "time_elapsed": 296479, "serialpos": 1, "key_press": -1, "wordID": 1005, "type": "PRES_AUD", "trial_index": 22}, "uniqueid": "MTK2590:3JCG6DTRV4XGSQVA7UNYQ725YP6QQI", "dateTime": 1519083335258}, {"current_trial": 23, "trialdata": {"rt": -1000, "trial_type": "single-audio", "word": "mask", "stimulus": "/static/audio/wordpool/MASK.wav", "conditions": [18, 1200, "a", 18000], "internal_node_id": "0.0-14.0", "trial": 0, "time_elapsed": 298657, "serialpos": 2, "key_press": -1, "wordID": 875, "type": "PRES_AUD", "trial_index": 23}, "uniqueid": "MTK2590:3JCG6DTRV4XGSQVA7UNYQ725YP6QQI", "dateTime": 1519083337436}, {"current_trial": 24, "trialdata": {"rt": -1000, "trial_type": "single-audio", "word": "stallion", "stimulus": "/static/audio/wordpool/STALLION.wav", "conditions": [18, 1200, "a", 18000], "internal_node_id": "0.0-15.0", "trial": 0, "time_elapsed": 300782, "serialpos": 3, "key_press": -1, "wordID": 1368, "type": "PRES_AUD", "trial_index": 24}, "uniqueid": "MTK2590:3JCG6DTRV4XGSQVA7UNYQ725YP6QQI", "dateTime": 1519083339561}, {"current_trial": 25, "trialdata": {"rt": -1000, "trial_type": "single-audio", "word": "yacht", "stimulus": "/static/audio/wordpool/YACHT.wav", "conditions": [18, 1200, "a", 18000], "internal_node_id": "0.0-16.0", "trial": 0, "time_elapsed": 303119, "serialpos": 4, "key_press": -1, "wordID": 1628, "type": "PRES_AUD", "trial_index": 25}, "uniqueid": "MTK2590:3JCG6DTRV4XGSQVA7UNYQ725YP6QQI", "dateTime": 1519083341898}, {"current_trial": 26, "trialdata": {"rt": -1000, "trial_type": "single-audio", "word": "relish", "stimulus": "/static/audio/wordpool/RELISH.wav", "conditions": [18, 1200, "a", 18000], "internal_node_id": "0.0-17.0", "trial": 0, "time_elapsed": 305313, "serialpos": 5, "key_press": -1, "wordID": 1182, "type": "PRES_AUD", "trial_index": 26}, "uniqueid": "MTK2590:3JCG6DTRV4XGSQVA7UNYQ725YP6QQI", "dateTime": 1519083344093}, {"current_trial": 27, "trialdata": {"rt": -1000, "trial_type": "single-audio", "word": "bathtub", "stimulus": "/static/audio/wordpool/BATHTUB.wav", "conditions": [18, 1200, "a", 18000], "internal_node_id": "0.0-18.0", "trial": 0, "time_elapsed": 307664, "serialpos": 6, "key_press": -1, "wordID": 99, "type": "PRES_AUD", "trial_index": 27}, "uniqueid": "MTK2590:3JCG6DTRV4XGSQVA7UNYQ725YP6QQI", "dateTime": 1519083346443}, {"current_trial": 28, "trialdata": {"rt": -1000, "trial_type": "single-audio", "word": "vagrant", "stimulus": "/static/audio/wordpool/VAGRANT.wav", "conditions": [18, 1200, "a", 18000], "internal_node_id": "0.0-19.0", "trial": 0, "time_elapsed": 309884, "serialpos": 7, "key_press": -1, "wordID": 1543, "type": "PRES_AUD", "trial_index": 28}, "uniqueid": "MTK2590:3JCG6DTRV4XGSQVA7UNYQ725YP6QQI", "dateTime": 1519083348664}, {"current_trial": 29, "trialdata": {"rt": -1000, "trial_type": "single-audio", "word": "softball", "stimulus": "/static/audio/wordpool/SOFTBALL.wav", "conditions": [18, 1200, "a", 18000], "internal_node_id": "0.0-20.0", "trial": 0, "time_elapsed": 311899, "serialpos": 8, "key_press": -1, "wordID": 1342, "type": "PRES_AUD", "trial_index": 29}, "uniqueid": "MTK2590:3JCG6DTRV4XGSQVA7UNYQ725YP6QQI", "dateTime": 1519083350678}, {"current_trial": 30, "trialdata": {"rt": -1000, "trial_type": "single-audio", "word": "curtain", "stimulus": "/static/audio/wordpool/CURTAIN.wav", "conditions": [18, 1200, "a", 18000], "internal_node_id": "0.0-21.0", "trial": 0, "time_elapsed": 314191, "serialpos": 9, "key_press": -1, "wordID": 426, "type": "PRES_AUD", "trial_index": 30}, "uniqueid": "MTK2590:3JCG6DTRV4XGSQVA7UNYQ725YP6QQI", "dateTime": 1519083352971}, {"current_trial": 31, "trialdata": {"rt": -1000, "trial_type": "single-audio", "word": "raft", "stimulus": "/static/audio/wordpool/RAFT.wav", "conditions": [18, 1200, "a", 18000], "internal_node_id": "0.0-22.0", "trial": 0, "time_elapsed": 316454, "serialpos": 10, "key_press": -1, "wordID": 1158, "type": "PRES_AUD", "trial_index": 31}, "uniqueid": "MTK2590:3JCG6DTRV4XGSQVA7UNYQ725YP6QQI", "dateTime": 1519083355234}, {"current_trial": 32, "trialdata": {"rt": -1000, "trial_type": "single-audio", "word": "chipmunk", "stimulus": "/static/audio/wordpool/CHIPMUNK.wav", "conditions": [18, 1200, "a", 18000], "internal_node_id": "0.0-23.0", "trial": 0, "time_elapsed": 318785, "serialpos": 11, "key_press": -1, "wordID": 303, "type": "PRES_AUD", "trial_index": 32}, "uniqueid": "MTK2590:3JCG6DTRV4XGSQVA7UNYQ725YP6QQI", "dateTime": 1519083357564}, {"current_trial": 33, "trialdata": {"rt": -1000, "trial_type": "single-audio", "word": "pebble", "stimulus": "/static/audio/wordpool/PEBBLE.wav", "conditions": [18, 1200, "a", 18000], "internal_node_id": "0.0-24.0", "trial": 0, "time_elapsed": 320853, "serialpos": 12, "key_press": -1, "wordID": 1034, "type": "PRES_AUD", "trial_index": 33}, "uniqueid": "MTK2590:3JCG6DTRV4XGSQVA7UNYQ725YP6QQI", "dateTime": 1519083359632}, {"current_trial": 34, "trialdata": {"rt": -1000, "trial_type": "single-audio", "word": "snail", "stimulus": "/static/audio/wordpool/SNAIL.wav", "conditions": [18, 1200, "a", 18000], "internal_node_id": "0.0-25.0", "trial": 0, "time_elapsed": 322864, "serialpos": 13, "key_press": -1, "wordID": 1331, "type": "PRES_AUD", "trial_index": 34}, "uniqueid": "MTK2590:3JCG6DTRV4XGSQVA7UNYQ725YP6QQI", "dateTime": 1519083361643}, {"current_trial": 35, "trialdata": {"rt": -1000, "trial_type": "single-audio", "word": "widow", "stimulus": "/static/audio/wordpool/WIDOW.wav", "conditions": [18, 1200, "a", 18000], "internal_node_id": "0.0-26.0", "trial": 0, "time_elapsed": 324919, "serialpos": 14, "key_press": -1, "wordID": 1607, "type": "PRES_AUD", "trial_index": 35}, "uniqueid": "MTK2590:3JCG6DTRV4XGSQVA7UNYQ725YP6QQI", "dateTime": 1519083363698}, {"current_trial": 36, "trialdata": {"rt": -1000, "trial_type": "single-audio", "word": "rifle", "stimulus": "/static/audio/wordpool/RIFLE.wav", "conditions": [18, 1200, "a", 18000], "internal_node_id": "0.0-27.0", "trial": 0, "time_elapsed": 327272, "serialpos": 15, "key_press": -1, "wordID": 1191, "type": "PRES_AUD", "trial_index": 36}, "uniqueid": "MTK2590:3JCG6DTRV4XGSQVA7UNYQ725YP6QQI", "dateTime": 1519083366051}, {"current_trial": 37, "trialdata": {"rt": -1000, "trial_type": "single-audio", "word": "girl", "stimulus": "/static/audio/wordpool/GIRL.wav", "conditions": [18, 1200, "a", 18000], "internal_node_id": "0.0-28.0", "trial": 0, "time_elapsed": 329649, "serialpos": 16, "key_press": -1, "wordID": 636, "type": "PRES_AUD", "trial_index": 37}, "uniqueid": "MTK2590:3JCG6DTRV4XGSQVA7UNYQ725YP6QQI", "dateTime": 1519083368428}, {"current_trial": 38, "trialdata": {"rt": -1000, "trial_type": "single-audio", "word": "yarn", "stimulus": "/static/audio/wordpool/YARN.wav", "conditions": [18, 1200, "a", 18000], "internal_node_id": "0.0-29.0", "trial": 0, "time_elapsed": 331859, "serialpos": 17, "key_press": -1, "wordID": 1630, "type": "PRES_AUD", "trial_index": 38}, "uniqueid": "MTK2590:3JCG6DTRV4XGSQVA7UNYQ725YP6QQI", "dateTime": 1519083370639}, {"current_trial": 39, "trialdata": {"rt": -1, "trial_type": "single-stim", "stimulus": "", "internal_node_id": "0.0-30.0-0.0", "time_elapsed": 333109, "key_press": -1, "type": "PRE_RECALL_DELAY", "trial_index": 39}, "uniqueid": "MTK2590:3JCG6DTRV4XGSQVA7UNYQ725YP6QQI", "dateTime": 1519083371888}, {"current_trial": 40, "trialdata": {"rt": -1000, "trial_type": "single-audio", "stimulus": "/static/audio/400Hz.wav", "internal_node_id": "0.0-31.0", "time_elapsed": 333611, "key_press": -1, "type": "PRE_RECALL_ALERT", "trial_index": 40}, "uniqueid": "MTK2590:3JCG6DTRV4XGSQVA7UNYQ725YP6QQI", "dateTime": 1519083372390}, {"current_trial": 41, "trialdata": {"rt": [9932, 12145, 13658, 15639, 27390], "recwords": ["chipmunk", "puddle", "girl", "rifle", "young"], "key_times": [7347, 7570, 7785, 8076, 8437, 8681, 8949, 9255, 9932, 10759, 10937, 11202, 11400, 11528, 11686, 12145, 12596, 12751, 12897, 13220, 13658, 14526, 14763, 14920, 15196, 15367, 15639, 26395, 26558, 26656, 26904, 27094, 27390], "trial_type": "free-recall", "conditions": [18, 1200, "a", 18000], "internal_node_id": "0.0-32.0-0.0", "key_presses": [67, 72, 73, 80, 77, 85, 78, 75, 13, 80, 85, 68, 68, 76, 69, 13, 71, 73, 82, 76, 13, 82, 73, 70, 76, 69, 13, 89, 79, 85, 78, 71, 13], "trial": 0, "time_elapsed": 393616, "type": "FREE_RECALL", "trial_index": 41}, "uniqueid": "MTK2590:3JCG6DTRV4XGSQVA7UNYQ725YP6QQI", "dateTime": 1519083432399}, {"current_trial": 42, "trialdata": {"rt": 319508, "trial_type": "text", "internal_node_id": "0.0-33.0", "time_elapsed": 715131, "key_press": 32, "type": "INSTRUCTIONS", "trial_index": 42}, "uniqueid": "MTK2590:3JCG6DTRV4XGSQVA7UNYQ725YP6QQI", "dateTime": 1519083753910}, {"current_trial": 43, "trialdata": {"rt": [4185, 7188, 10829, 15297], "trial_type": "math-distractor", "key_times": [3168, 3439, 4185, 6545, 7188, 9893, 10166, 10829, 14131, 14550, 15297, 17739], "responses": ["10", "8", "11", "18"], "num2": [3, 2, 8, 8, 4], "num3": [4, 5, 1, 1, 4], "conditions": [18, 1200, "a", 18000], "internal_node_id": "0.0-34.0", "key_presses": [49, 48, 13, 56, 13, 49, 49, 13, 49, 56, 13, 49], "trial": 1, "time_elapsed": 735137, "type": "DISTRACTOR", "trial_index": 43, "num1": [3, 1, 2, 9, 9]}, "uniqueid": "MTK2590:3JCG6DTRV4XGSQVA7UNYQ725YP6QQI", "dateTime": 1519083773916}, {"current_trial": 44, "trialdata": {"rt": -1, "trial_type": "single-stim", "stimulus": "<p id=\"stim\">10</p>", "internal_node_id": "0.0-35.0-0.0", "time_elapsed": 738142, "key_press": -1, "trial_index": 44}, "uniqueid": "MTK2590:3JCG6DTRV4XGSQVA7UNYQ725YP6QQI", "dateTime": 1519083776921}, {"current_trial": 45, "trialdata": {"rt": -1, "trial_type": "single-stim", "stimulus": "<p id=\"stim\">9</p>", "internal_node_id": "0.0-35.0-1.0", "time_elapsed": 739145, "key_press": -1, "trial_index": 45}, "uniqueid": "MTK2590:3JCG6DTRV4XGSQVA7UNYQ725YP6QQI", "dateTime": 1519083777924}, {"current_trial": 46, "trialdata": {"rt": 581, "trial_type": "single-stim", "stimulus": "<p id=\"stim\">8</p>", "internal_node_id": "0.0-35.0-2.0", "time_elapsed": 740146, "key_press": 174, "trial_index": 46}, "uniqueid": "MTK2590:3JCG6DTRV4XGSQVA7UNYQ725YP6QQI", "dateTime": 1519083778926}, {"current_trial": 47, "trialdata": {"rt": 260, "trial_type": "single-stim", "stimulus": "<p id=\"stim\">7</p>", "internal_node_id": "0.0-35.0-3.0", "time_elapsed": 741149, "key_press": 174, "trial_index": 47}, "uniqueid": "MTK2590:3JCG6DTRV4XGSQVA7UNYQ725YP6QQI", "dateTime": 1519083779928}, {"current_trial": 48, "trialdata": {"rt": 183, "trial_type": "single-stim", "stimulus": "<p id=\"stim\">6</p>", "internal_node_id": "0.0-35.0-4.0", "time_elapsed": 742152, "key_press": 174, "trial_index": 48}, "uniqueid": "MTK2590:3JCG6DTRV4XGSQVA7UNYQ725YP6QQI", "dateTime": 1519083780931}, {"current_trial": 49, "trialdata": {"rt": -1, "trial_type": "single-stim", "stimulus": "<p id=\"stim\">5</p>", "internal_node_id": "0.0-35.0-5.0", "time_elapsed": 743155, "key_press": -1, "trial_index": 49}, "uniqueid": "MTK2590:3JCG6DTRV4XGSQVA7UNYQ725YP6QQI", "dateTime": 1519083781935}, {"current_trial": 50, "trialdata": {"rt": -1, "trial_type": "single-stim", "stimulus": "<p id=\"stim\">4</p>", "internal_node_id": "0.0-35.0-6.0", "time_elapsed": 744158, "key_press": -1, "trial_index": 50}, "uniqueid": "MTK2590:3JCG6DTRV4XGSQVA7UNYQ725YP6QQI", "dateTime": 1519083782937}, {"current_trial": 51, "trialdata": {"rt": -1, "trial_type": "single-stim", "stimulus": "<p id=\"stim\">3</p>", "internal_node_id": "0.0-35.0-7.0", "time_elapsed": 745160, "key_press": -1, "trial_index": 51}, "uniqueid": "MTK2590:3JCG6DTRV4XGSQVA7UNYQ725YP6QQI", "dateTime": 1519083783939}, {"current_trial": 52, "trialdata": {"rt": -1, "trial_type": "single-stim", "stimulus": "<p id=\"stim\">2</p>", "internal_node_id": "0.0-35.0-8.0", "time_elapsed": 746164, "key_press": -1, "trial_index": 52}, "uniqueid": "MTK2590:3JCG6DTRV4XGSQVA7UNYQ725YP6QQI", "dateTime": 1519083784943}, {"current_trial": 53, "trialdata": {"rt": -1, "trial_type": "single-stim", "stimulus": "<p id=\"stim\">1</p>", "internal_node_id": "0.0-35.0-9.0", "time_elapsed": 747166, "key_press": -1, "trial_index": 53}, "uniqueid": "MTK2590:3JCG6DTRV4XGSQVA7UNYQ725YP6QQI", "dateTime": 1519083785945}, {"current_trial": 54, "trialdata": {"rt": -1, "trial_type": "single-stim", "stimulus": "<p id=\"stim\">+</p>", "internal_node_id": "0.0-36.0-0.0", "time_elapsed": 748669, "key_press": -1, "type": "FIXATION", "trial_index": 54}, "uniqueid": "MTK2590:3JCG6DTRV4XGSQVA7UNYQ725YP6QQI", "dateTime": 1519083787448}, {"current_trial": 55, "trialdata": {"rt": 1150.666666666666, "trial_type": "single-audio", "word": "chapel", "stimulus": "/static/audio/wordpool/CHAPEL.wav", "conditions": [18, 1200, "a", 18000], "internal_node_id": "0.0-37.0", "trial": 1, "time_elapsed": 750713, "serialpos": 0, "key_press": 175, "wordID": 279, "type": "PRES_AUD", "trial_index": 55}, "uniqueid": "MTK2590:3JCG6DTRV4XGSQVA7UNYQ725YP6QQI", "dateTime": 1519083789492}, {"current_trial": 56, "trialdata": {"rt": 129.33333333330665, "trial_type": "single-audio", "word": "clothes", "stimulus": "/static/audio/wordpool/CLOTHES.wav", "conditions": [18, 1200, "a", 18000], "internal_node_id": "0.0-38.0", "trial": 1, "time_elapsed": 752929, "serialpos": 1, "key_press": 175, "wordID": 326, "type": "PRES_AUD", "trial_index": 56}, "uniqueid": "MTK2590:3JCG6DTRV4XGSQVA7UNYQ725YP6QQI", "dateTime": 1519083791708}, {"current_trial": 57, "trialdata": {"rt": -1000, "trial_type": "single-audio", "word": "drill", "stimulus": "/static/audio/wordpool/DRILL.wav", "conditions": [18, 1200, "a", 18000], "internal_node_id": "0.0-39.0", "trial": 1, "time_elapsed": 755135, "serialpos": 2, "key_press": -1, "wordID": 496, "type": "PRES_AUD", "trial_index": 57}, "uniqueid": "MTK2590:3JCG6DTRV4XGSQVA7UNYQ725YP6QQI", "dateTime": 1519083793914}, {"current_trial": 58, "trialdata": {"rt": -1000, "trial_type": "single-audio", "word": "ox", "stimulus": "/static/audio/wordpool/OX.wav", "conditions": [18, 1200, "a", 18000], "internal_node_id": "0.0-40.0", "trial": 1, "time_elapsed": 757232, "serialpos": 3, "key_press": -1, "wordID": 993, "type": "PRES_AUD", "trial_index": 58}, "uniqueid": "MTK2590:3JCG6DTRV4XGSQVA7UNYQ725YP6QQI", "dateTime": 1519083796011}, {"current_trial": 59, "trialdata": {"rt": -1000, "trial_type": "single-audio", "word": "inmate", "stimulus": "/static/audio/wordpool/INMATE.wav", "conditions": [18, 1200, "a", 18000], "internal_node_id": "0.0-41.0", "trial": 1, "time_elapsed": 759265, "serialpos": 4, "key_press": -1, "wordID": 737, "type": "PRES_AUD", "trial_index": 59}, "uniqueid": "MTK2590:3JCG6DTRV4XGSQVA7UNYQ725YP6QQI", "dateTime": 1519083798044}, {"current_trial": 60, "trialdata": {"rt": -1000, "trial_type": "single-audio", "word": "elbow", "stimulus": "/static/audio/wordpool/ELBOW.wav", "conditions": [18, 1200, "a", 18000], "internal_node_id": "0.0-42.0", "trial": 1, "time_elapsed": 761320, "serialpos": 5, "key_press": -1, "wordID": 519, "type": "PRES_AUD", "trial_index": 60}, "uniqueid": "MTK2590:3JCG6DTRV4XGSQVA7UNYQ725YP6QQI", "dateTime": 1519083800099}, {"current_trial": 61, "trialdata": {"rt": -1000, "trial_type": "single-audio", "word": "sketch", "stimulus": "/static/audio/wordpool/SKETCH.wav", "conditions": [18, 1200, "a", 18000], "internal_node_id": "0.0-43.0", "trial": 1, "time_elapsed": 763686, "serialpos": 6, "key_press": -1, "wordID": 1314, "type": "PRES_AUD", "trial_index": 61}, "uniqueid": "MTK2590:3JCG6DTRV4XGSQVA7UNYQ725YP6QQI", "dateTime": 1519083802465}, {"current_trial": 62, "trialdata": {"rt": -1000, "trial_type": "single-audio", "word": "scarf", "stimulus": "/static/audio/wordpool/SCARF.wav", "conditions": [18, 1200, "a", 18000], "internal_node_id": "0.0-44.0", "trial": 1, "time_elapsed": 765982, "serialpos": 7, "key_press": -1, "wordID": 1245, "type": "PRES_AUD", "trial_index": 62}, "uniqueid": "MTK2590:3JCG6DTRV4XGSQVA7UNYQ725YP6QQI", "dateTime": 1519083804761}, {"current_trial": 63, "trialdata": {"rt": -1000, "trial_type": "single-audio", "word": "server", "stimulus": "/static/audio/wordpool/SERVER.wav", "conditions": [18, 1200, "a", 18000], "internal_node_id": "0.0-45.0", "trial": 1, "time_elapsed": 768334, "serialpos": 8, "key_press": -1, "wordID": 1271, "type": "PRES_AUD", "trial_index": 63}, "uniqueid": "MTK2590:3JCG6DTRV4XGSQVA7UNYQ725YP6QQI", "dateTime": 1519083807113}, {"current_trial": 64, "trialdata": {"rt": -1000, "trial_type": "single-audio", "word": "robot", "stimulus": "/static/audio/wordpool/ROBOT.wav", "conditions": [18, 1200, "a", 18000], "internal_node_id": "0.0-46.0", "trial": 1, "time_elapsed": 770685, "serialpos": 9, "key_press": -1, "wordID": 1199, "type": "PRES_AUD", "trial_index": 64}, "uniqueid": "MTK2590:3JCG6DTRV4XGSQVA7UNYQ725YP6QQI", "dateTime": 1519083809464}, {"current_trial": 65, "trialdata": {"rt": -1000, "trial_type": "single-audio", "word": "bureau", "stimulus": "/static/audio/wordpool/BUREAU.wav", "conditions": [18, 1200, "a", 18000], "internal_node_id": "0.0-47.0", "trial": 1, "time_elapsed": 772756, "serialpos": 10, "key_press": -1, "wordID": 198, "type": "PRES_AUD", "trial_index": 65}, "uniqueid": "MTK2590:3JCG6DTRV4XGSQVA7UNYQ725YP6QQI", "dateTime": 1519083811535}, {"current_trial": 66, "trialdata": {"rt": -1000, "trial_type": "single-audio", "word": "harp", "stimulus": "/static/audio/wordpool/HARP.wav", "conditions": [18, 1200, "a", 18000], "internal_node_id": "0.0-48.0", "trial": 1, "time_elapsed": 774909, "serialpos": 11, "key_press": -1, "wordID": 688, "type": "PRES_AUD", "trial_index": 66}, "uniqueid": "MTK2590:3JCG6DTRV4XGSQVA7UNYQ725YP6QQI", "dateTime": 1519083813688}, {"current_trial": 67, "trialdata": {"rt": -1000, "trial_type": "single-audio", "word": "scalpel", "stimulus": "/static/audio/wordpool/SCALPEL.wav", "conditions": [18, 1200, "a", 18000], "internal_node_id": "0.0-49.0", "trial": 1, "time_elapsed": 777036, "serialpos": 12, "key_press": -1, "wordID": 1242, "type": "PRES_AUD", "trial_index": 67}, "uniqueid": "MTK2590:3JCG6DTRV4XGSQVA7UNYQ725YP6QQI", "dateTime": 1519083815815}, {"current_trial": 68, "trialdata": {"rt": -1000, "trial_type": "single-audio", "word": "seagull", "stimulus": "/static/audio/wordpool/SEAGULL.wav", "conditions": [18, 1200, "a", 18000], "internal_node_id": "0.0-50.0", "trial": 1, "time_elapsed": 779385, "serialpos": 13, "key_press": -1, "wordID": 1260, "type": "PRES_AUD", "trial_index": 68}, "uniqueid": "MTK2590:3JCG6DTRV4XGSQVA7UNYQ725YP6QQI", "dateTime": 1519083818165}, {"current_trial": 69, "trialdata": {"rt": -1000, "trial_type": "single-audio", "word": "daughter", "stimulus": "/static/audio/wordpool/DAUGHTER.wav", "conditions": [18, 1200, "a", 18000], "internal_node_id": "0.0-51.0", "trial": 1, "time_elapsed": 781560, "serialpos": 14, "key_press": -1, "wordID": 441, "type": "PRES_AUD", "trial_index": 69}, "uniqueid": "MTK2590:3JCG6DTRV4XGSQVA7UNYQ725YP6QQI", "dateTime": 1519083820339}, {"current_trial": 70, "trialdata": {"rt": -1000, "trial_type": "single-audio", "word": "scribble", "stimulus": "/static/audio/wordpool/SCRIBBLE.wav", "conditions": [18, 1200, "a", 18000], "internal_node_id": "0.0-52.0", "trial": 1, "time_elapsed": 783626, "serialpos": 15, "key_press": -1, "wordID": 1255, "type": "PRES_AUD", "trial_index": 70}, "uniqueid": "MTK2590:3JCG6DTRV4XGSQVA7UNYQ725YP6QQI", "dateTime": 1519083822405}, {"current_trial": 71, "trialdata": {"rt": -1000, "trial_type": "single-audio", "word": "thread", "stimulus": "/static/audio/wordpool/THREAD.wav", "conditions": [18, 1200, "a", 18000], "internal_node_id": "0.0-53.0", "trial": 1, "time_elapsed": 785837, "serialpos": 16, "key_press": -1, "wordID": 1459, "type": "PRES_AUD", "trial_index": 71}, "uniqueid": "MTK2590:3JCG6DTRV4XGSQVA7UNYQ725YP6QQI", "dateTime": 1519083824616}, {"current_trial": 72, "trialdata": {"rt": -1000, "trial_type": "single-audio", "word": "keeper", "stimulus": "/static/audio/wordpool/KEEPER.wav", "conditions": [18, 1200, "a", 18000], "internal_node_id": "0.0-54.0", "trial": 1, "time_elapsed": 788222, "serialpos": 17, "key_press": -1, "wordID": 768, "type": "PRES_AUD", "trial_index": 72}, "uniqueid": "MTK2590:3JCG6DTRV4XGSQVA7UNYQ725YP6QQI", "dateTime": 1519083827002}, {"current_trial": 73, "trialdata": {"rt": -1, "trial_type": "single-stim", "stimulus": "", "internal_node_id": "0.0-55.0-0.0", "time_elapsed": 789533, "key_press": -1, "type": "PRE_RECALL_DELAY", "trial_index": 73}, "uniqueid": "MTK2590:3JCG6DTRV4XGSQVA7UNYQ725YP6QQI", "dateTime": 1519083828312}, {"current_trial": 74, "trialdata": {"rt": -1000, "trial_type": "single-audio", "stimulus": "/static/audio/400Hz.wav", "internal_node_id": "0.0-56.0", "time_elapsed": 790034, "key_press": -1, "type": "PRE_RECALL_ALERT", "trial_index": 74}, "uniqueid": "MTK2590:3JCG6DTRV4XGSQVA7UNYQ725YP6QQI", "dateTime": 1519083828813}, {"current_trial": 75, "trialdata": {"rt": [6213, 9030, 10744, 13946, 20679, 25694, 29292, 45971], "recwords": ["scapel", "thread", "keeper", "seagul", "harp", "ox", "server", "robot"], "key_times": [4516, 4797, 5066, 5329, 5534, 5709, 6213, 6749, 6892, 7020, 7215, 7389, 7499, 8140, 8699, 9030, 9421, 9761, 9945, 10094, 10259, 10377, 10744, 12188, 12383, 12569, 12790, 13112, 13349, 13946, 19721, 19855, 19976, 20345, 20679, 25145, 25361, 25694, 27968, 28167, 28279, 28567, 28829, 28938, 29292, 44982, 45240, 45480, 45592, 45773, 45971], "trial_type": "free-recall", "conditions": [18, 1200, "a", 18000], "internal_node_id": "0.0-57.0-0.0", "key_presses": [83, 67, 65, 80, 69, 76, 13, 84, 72, 82, 69, 65, 84, 8, 68, 13, 75, 69, 69, 80, 69, 82, 13, 83, 69, 65, 71, 85, 76, 13, 72, 65, 82, 80, 13, 79, 88, 13, 83, 69, 82, 86, 69, 82, 13, 82, 79, 66, 79, 84, 13], "trial": 1, "time_elapsed": 850036, "type": "FREE_RECALL", "trial_index": 75}, "uniqueid": "MTK2590:3JCG6DTRV4XGSQVA7UNYQ725YP6QQI", "dateTime": 1519083888817}, {"current_trial": 76, "trialdata": {"rt": 2001, "trial_type": "text", "internal_node_id": "0.0-58.0", "time_elapsed": 854040, "key_press": 13, "type": "INSTRUCTIONS", "trial_index": 76}, "uniqueid": "MTK2590:3JCG6DTRV4XGSQVA7UNYQ725YP6QQI", "dateTime": 1519083892819}, {"current_trial": 77, "trialdata": {"rt": [3017, 5250], "trial_type": "math-distractor", "key_times": [2458, 3017, 4841, 5032, 5250], "responses": ["9", "11"], "num2": [1, 5, 8], "num3": [5, 4, 7], "conditions": [12, 800, "a", 12000], "internal_node_id": "0.0-59.0", "key_presses": [57, 13, 49, 49, 13], "trial": 2, "time_elapsed": 867043, "type": "DISTRACTOR", "trial_index": 77, "num1": [3, 2, 5]}, "uniqueid": "MTK2590:3JCG6DTRV4XGSQVA7UNYQ725YP6QQI", "dateTime": 1519083905822}, {"current_trial": 78, "trialdata": {"rt": -1, "trial_type": "single-stim", "stimulus": "<p id=\"stim\">10</p>", "internal_node_id": "0.0-60.0-0.0", "time_elapsed": 870045, "key_press": -1, "trial_index": 78}, "uniqueid": "MTK2590:3JCG6DTRV4XGSQVA7UNYQ725YP6QQI", "dateTime": 1519083908824}, {"current_trial": 79, "trialdata": {"rt": -1, "trial_type": "single-stim", "stimulus": "<p id=\"stim\">9</p>", "internal_node_id": "0.0-60.0-1.0", "time_elapsed": 871047, "key_press": -1, "trial_index": 79}, "uniqueid": "MTK2590:3JCG6DTRV4XGSQVA7UNYQ725YP6QQI", "dateTime": 1519083909827}, {"current_trial": 80, "trialdata": {"rt": -1, "trial_type": "single-stim", "stimulus": "<p id=\"stim\">8</p>", "internal_node_id": "0.0-60.0-2.0", "time_elapsed": 872049, "key_press": -1, "trial_index": 80}, "uniqueid": "MTK2590:3JCG6DTRV4XGSQVA7UNYQ725YP6QQI", "dateTime": 1519083910828}, {"current_trial": 81, "trialdata": {"rt": -1, "trial_type": "single-stim", "stimulus": "<p id=\"stim\">7</p>", "internal_node_id": "0.0-60.0-3.0", "time_elapsed": 873051, "key_press": -1, "trial_index": 81}, "uniqueid": "MTK2590:3JCG6DTRV4XGSQVA7UNYQ725YP6QQI", "dateTime": 1519083911830}, {"current_trial": 82, "trialdata": {"rt": -1, "trial_type": "single-stim", "stimulus": "<p id=\"stim\">6</p>", "internal_node_id": "0.0-60.0-4.0", "time_elapsed": 874052, "key_press": -1, "trial_index": 82}, "uniqueid": "MTK2590:3JCG6DTRV4XGSQVA7UNYQ725YP6QQI", "dateTime": 1519083912831}, {"current_trial": 83, "trialdata": {"rt": -1, "trial_type": "single-stim", "stimulus": "<p id=\"stim\">5</p>", "internal_node_id": "0.0-60.0-5.0", "time_elapsed": 875054, "key_press": -1, "trial_index": 83}, "uniqueid": "MTK2590:3JCG6DTRV4XGSQVA7UNYQ725YP6QQI", "dateTime": 1519083913833}, {"current_trial": 84, "trialdata": {"rt": -1, "trial_type": "single-stim", "stimulus": "<p id=\"stim\">4</p>", "internal_node_id": "0.0-60.0-6.0", "time_elapsed": 876055, "key_press": -1, "trial_index": 84}, "uniqueid": "MTK2590:3JCG6DTRV4XGSQVA7UNYQ725YP6QQI", "dateTime": 1519083914834}, {"current_trial": 85, "trialdata": {"rt": -1, "trial_type": "single-stim", "stimulus": "<p id=\"stim\">3</p>", "internal_node_id": "0.0-60.0-7.0", "time_elapsed": 877056, "key_press": -1, "trial_index": 85}, "uniqueid": "MTK2590:3JCG6DTRV4XGSQVA7UNYQ725YP6QQI", "dateTime": 1519083915835}, {"current_trial": 86, "trialdata": {"rt": -1, "trial_type": "single-stim", "stimulus": "<p id=\"stim\">2</p>", "internal_node_id": "0.0-60.0-8.0", "time_elapsed": 878057, "key_press": -1, "trial_index": 86}, "uniqueid": "MTK2590:3JCG6DTRV4XGSQVA7UNYQ725YP6QQI", "dateTime": 1519083916836}, {"current_trial": 87, "trialdata": {"rt": -1, "trial_type": "single-stim", "stimulus": "<p id=\"stim\">1</p>", "internal_node_id": "0.0-60.0-9.0", "time_elapsed": 879059, "key_press": -1, "trial_index": 87}, "uniqueid": "MTK2590:3JCG6DTRV4XGSQVA7UNYQ725YP6QQI", "dateTime": 1519083917838}, {"current_trial": 88, "trialdata": {"rt": -1, "trial_type": "single-stim", "stimulus": "<p id=\"stim\">+</p>", "internal_node_id": "0.0-61.0-0.0", "time_elapsed": 880560, "key_press": -1, "type": "FIXATION", "trial_index": 88}, "uniqueid": "MTK2590:3JCG6DTRV4XGSQVA7UNYQ725YP6QQI", "dateTime": 1519083919339}, {"current_trial": 89, "trialdata": {"rt": -1000, "trial_type": "single-audio", "word": "cousin", "stimulus": "/static/audio/wordpool/COUSIN.wav", "conditions": [12, 800, "a", 12000], "internal_node_id": "0.0-62.0", "trial": 2, "time_elapsed": 882491, "serialpos": 0, "key_press": -1, "wordID": 391, "type": "PRES_AUD", "trial_index": 89}, "uniqueid": "MTK2590:3JCG6DTRV4XGSQVA7UNYQ725YP6QQI", "dateTime": 1519083921270}, {"current_trial": 90, "trialdata": {"rt": -1000, "trial_type": "single-audio", "word": "cellar", "stimulus": "/static/audio/wordpool/CELLAR.wav", "conditions": [12, 800, "a", 12000], "internal_node_id": "0.0-63.0", "trial": 2, "time_elapsed": 884168, "serialpos": 1, "key_press": -1, "wordID": 266, "type": "PRES_AUD", "trial_index": 90}, "uniqueid": "MTK2590:3JCG6DTRV4XGSQVA7UNYQ725YP6QQI", "dateTime": 1519083922948}, {"current_trial": 91, "trialdata": {"rt": -1000, "trial_type": "single-audio", "word": "outfit", "stimulus": "/static/audio/wordpool/OUTFIT.wav", "conditions": [12, 800, "a", 12000], "internal_node_id": "0.0-64.0", "trial": 2, "time_elapsed": 885908, "serialpos": 2, "key_press": -1, "wordID": 987, "type": "PRES_AUD", "trial_index": 91}, "uniqueid": "MTK2590:3JCG6DTRV4XGSQVA7UNYQ725YP6QQI", "dateTime": 1519083924687}, {"current_trial": 92, "trialdata": {"rt": -1000, "trial_type": "single-audio", "word": "lady", "stimulus": "/static/audio/wordpool/LADY.wav", "conditions": [12, 800, "a", 12000], "internal_node_id": "0.0-65.0", "trial": 2, "time_elapsed": 887591, "serialpos": 3, "key_press": -1, "wordID": 793, "type": "PRES_AUD", "trial_index": 92}, "uniqueid": "MTK2590:3JCG6DTRV4XGSQVA7UNYQ725YP6QQI", "dateTime": 1519083926370}, {"current_trial": 93, "trialdata": {"rt": -1000, "trial_type": "single-audio", "word": "sibling", "stimulus": "/static/audio/wordpool/SIBLING.wav", "conditions": [12, 800, "a", 12000], "internal_node_id": "0.0-66.0", "trial": 2, "time_elapsed": 889263, "serialpos": 4, "key_press": -1, "wordID": 1300, "type": "PRES_AUD", "trial_index": 93}, "uniqueid": "MTK2590:3JCG6DTRV4XGSQVA7UNYQ725YP6QQI", "dateTime": 1519083928042}, {"current_trial": 94, "trialdata": {"rt": -1000, "trial_type": "single-audio", "word": "blockade", "stimulus": "/static/audio/wordpool/BLOCKADE.wav", "conditions": [12, 800, "a", 12000], "internal_node_id": "0.0-67.0", "trial": 2, "time_elapsed": 890894, "serialpos": 5, "key_press": -1, "wordID": 136, "type": "PRES_AUD", "trial_index": 94}, "uniqueid": "MTK2590:3JCG6DTRV4XGSQVA7UNYQ725YP6QQI", "dateTime": 1519083929673}, {"current_trial": 95, "trialdata": {"rt": -1000, "trial_type": "single-audio", "word": "cyclone", "stimulus": "/static/audio/wordpool/CYCLONE.wav", "conditions": [12, 800, "a", 12000], "internal_node_id": "0.0-68.0", "trial": 2, "time_elapsed": 892591, "serialpos": 6, "key_press": -1, "wordID": 430, "type": "PRES_AUD", "trial_index": 95}, "uniqueid": "MTK2590:3JCG6DTRV4XGSQVA7UNYQ725YP6QQI", "dateTime": 1519083931370}, {"current_trial": 96, "trialdata": {"rt": -1000, "trial_type": "single-audio", "word": "fireplace", "stimulus": "/static/audio/wordpool/FIREPLACE.wav", "conditions": [12, 800, "a", 12000], "internal_node_id": "0.0-69.0", "trial": 2, "time_elapsed": 894284, "serialpos": 7, "key_press": -1, "wordID": 569, "type": "PRES_AUD", "trial_index": 96}, "uniqueid": "MTK2590:3JCG6DTRV4XGSQVA7UNYQ725YP6QQI", "dateTime": 1519083933063}, {"current_trial": 97, "trialdata": {"rt": -1000, "trial_type": "single-audio", "word": "pepper", "stimulus": "/static/audio/wordpool/PEPPER.wav", "conditions": [12, 800, "a", 12000], "internal_node_id": "0.0-70.0", "trial": 2, "time_elapsed": 896103, "serialpos": 8, "key_press": -1, "wordID": 1046, "type": "PRES_AUD", "trial_index": 97}, "uniqueid": "MTK2590:3JCG6DTRV4XGSQVA7UNYQ725YP6QQI", "dateTime": 1519083934882}, {"current_trial": 98, "trialdata": {"rt": -1000, "trial_type": "single-audio", "word": "onion", "stimulus": "/static/audio/wordpool/ONION.wav", "conditions": [12, 800, "a", 12000], "internal_node_id": "0.0-71.0", "trial": 2, "time_elapsed": 898007, "serialpos": 9, "key_press": -1, "wordID": 976, "type": "PRES_AUD", "trial_index": 98}, "uniqueid": "MTK2590:3JCG6DTRV4XGSQVA7UNYQ725YP6QQI", "dateTime": 1519083936786}, {"current_trial": 99, "trialdata": {"rt": -1000, "trial_type": "single-audio", "word": "dress", "stimulus": "/static/audio/wordpool/DRESS.wav", "conditions": [12, 800, "a", 12000], "internal_node_id": "0.0-72.0", "trial": 2, "time_elapsed": 899959, "serialpos": 10, "key_press": -1, "wordID": 494, "type": "PRES_AUD", "trial_index": 99}, "uniqueid": "MTK2590:3JCG6DTRV4XGSQVA7UNYQ725YP6QQI", "dateTime": 1519083938738}, {"current_trial": 100, "trialdata": {"rt": -1000, "trial_type": "single-audio", "word": "soda", "stimulus": "/static/audio/wordpool/SODA.wav", "conditions": [12, 800, "a", 12000], "internal_node_id": "0.0-73.0", "trial": 2, "time_elapsed": 901810, "serialpos": 11, "key_press": -1, "wordID": 1340, "type": "PRES_AUD", "trial_index": 100}, "uniqueid": "MTK2590:3JCG6DTRV4XGSQVA7UNYQ725YP6QQI", "dateTime": 1519083940589}, {"current_trial": 101, "trialdata": {"rt": -1, "trial_type": "single-stim", "stimulus": "", "internal_node_id": "0.0-74.0-0.0", "time_elapsed": 903137, "key_press": -1, "type": "PRE_RECALL_DELAY", "trial_index": 101}, "uniqueid": "MTK2590:3JCG6DTRV4XGSQVA7UNYQ725YP6QQI", "dateTime": 1519083941916}, {"current_trial": 102, "trialdata": {"rt": -1000, "trial_type": "single-audio", "stimulus": "/static/audio/400Hz.wav", "internal_node_id": "0.0-75.0", "time_elapsed": 903640, "key_press": -1, "type": "PRE_RECALL_ALERT", "trial_index": 102}, "uniqueid": "MTK2590:3JCG6DTRV4XGSQVA7UNYQ725YP6QQI", "dateTime": 1519083942419}, {"current_trial": 103, "trialdata": {"rt": [1858, 3318, 4929, 6957, 9462, 15889, 17335, 34000, 53857], "recwords": ["soda", "dress", "onion", "fireplace", "lady", "cousin", "sibling", "pepper", "blockade"], "key_times": [956, 1119, 1276, 1489, 1858, 2229, 2460, 2644, 2895, 3075, 3318, 3707, 4064, 4295, 4501, 4680, 4929, 5198, 5319, 5465, 5630, 5817, 6113, 6231, 6437, 6713, 6957, 8494, 8601, 8811, 8987, 9462, 14652, 14795, 14942, 15278, 15453, 15627, 15889, 16093, 16229, 16384, 16633, 16810, 16975, 17117, 17335, 32874, 33085, 33334, 33502, 33597, 33707, 34000, 52178, 52378, 52590, 52720, 52897, 53119, 53430, 53680, 53857], "trial_type": "free-recall", "conditions": [12, 800, "a", 12000], "internal_node_id": "0.0-76.0-0.0", "key_presses": [83, 79, 68, 65, 13, 68, 82, 69, 83, 83, 13, 79, 78, 73, 79, 78, 13, 70, 73, 82, 69, 80, 76, 65, 67, 69, 13, 76, 65, 68, 89, 13, 67, 79, 85, 83, 73, 78, 13, 83, 73, 66, 76, 73, 78, 71, 13, 80, 69, 80, 80, 69, 82, 13, 66, 76, 79, 67, 75, 65, 68, 69, 13], "trial": 2, "time_elapsed": 963642, "type": "FREE_RECALL", "trial_index": 103}, "uniqueid": "MTK2590:3JCG6DTRV4XGSQVA7UNYQ725YP6QQI", "dateTime": 1519084002422}, {"current_trial": 104, "trialdata": {"rt": 1312, "trial_type": "text", "internal_node_id": "0.0-77.0", "time_elapsed": 966957, "key_press": 32, "type": "INSTRUCTIONS", "trial_index": 104}, "uniqueid": "MTK2590:3JCG6DTRV4XGSQVA7UNYQ725YP6QQI", "dateTime": 1519084005736}, {"current_trial": 105, "trialdata": {"rt": [5120, 10919, 13297, 19378], "trial_type": "math-distractor", "key_times": [3044, 4905, 5120, 10304, 10575, 10919, 12400, 12979, 13297, 18705, 19108, 19378], "responses": ["14", "15", "16", "25"], "num2": [3, 2, 5, 7, 2], "num3": [6, 7, 6, 9, 6], "conditions": [12, 800, "a", 24000], "internal_node_id": "0.0-78.0", "key_presses": [49, 52, 13, 49, 53, 13, 49, 54, 13, 50, 53, 13], "trial": 3, "time_elapsed": 992965, "type": "DISTRACTOR", "trial_index": 105, "num1": [5, 6, 5, 9, 5]}, "uniqueid": "MTK2590:3JCG6DTRV4XGSQVA7UNYQ725YP6QQI", "dateTime": 1519084031745}, {"current_trial": 106, "trialdata": {"rt": -1, "trial_type": "single-stim", "stimulus": "<p id=\"stim\">10</p>", "internal_node_id": "0.0-79.0-0.0", "time_elapsed": 995969, "key_press": -1, "trial_index": 106}, "uniqueid": "MTK2590:3JCG6DTRV4XGSQVA7UNYQ725YP6QQI", "dateTime": 1519084034748}, {"current_trial": 107, "trialdata": {"rt": -1, "trial_type": "single-stim", "stimulus": "<p id=\"stim\">9</p>", "internal_node_id": "0.0-79.0-1.0", "time_elapsed": 996971, "key_press": -1, "trial_index": 107}, "uniqueid": "MTK2590:3JCG6DTRV4XGSQVA7UNYQ725YP6QQI", "dateTime": 1519084035750}, {"current_trial": 108, "trialdata": {"rt": -1, "trial_type": "single-stim", "stimulus": "<p id=\"stim\">8</p>", "internal_node_id": "0.0-79.0-2.0", "time_elapsed": 997972, "key_press": -1, "trial_index": 108}, "uniqueid": "MTK2590:3JCG6DTRV4XGSQVA7UNYQ725YP6QQI", "dateTime": 1519084036751}, {"current_trial": 109, "trialdata": {"rt": -1, "trial_type": "single-stim", "stimulus": "<p id=\"stim\">7</p>", "internal_node_id": "0.0-79.0-3.0", "time_elapsed": 998975, "key_press": -1, "trial_index": 109}, "uniqueid": "MTK2590:3JCG6DTRV4XGSQVA7UNYQ725YP6QQI", "dateTime": 1519084037754}, {"current_trial": 110, "trialdata": {"rt": -1, "trial_type": "single-stim", "stimulus": "<p id=\"stim\">6</p>", "internal_node_id": "0.0-79.0-4.0", "time_elapsed": 999978, "key_press": -1, "trial_index": 110}, "uniqueid": "MTK2590:3JCG6DTRV4XGSQVA7UNYQ725YP6QQI", "dateTime": 1519084038757}, {"current_trial": 111, "trialdata": {"rt": -1, "trial_type": "single-stim", "stimulus": "<p id=\"stim\">5</p>", "internal_node_id": "0.0-79.0-5.0", "time_elapsed": 1000980, "key_press": -1, "trial_index": 111}, "uniqueid": "MTK2590:3JCG6DTRV4XGSQVA7UNYQ725YP6QQI", "dateTime": 1519084039760}, {"current_trial": 112, "trialdata": {"rt": -1, "trial_type": "single-stim", "stimulus": "<p id=\"stim\">4</p>", "internal_node_id": "0.0-79.0-6.0", "time_elapsed": 1001984, "key_press": -1, "trial_index": 112}, "uniqueid": "MTK2590:3JCG6DTRV4XGSQVA7UNYQ725YP6QQI", "dateTime": 1519084040763}, {"current_trial": 113, "trialdata": {"rt": -1, "trial_type": "single-stim", "stimulus": "<p id=\"stim\">3</p>", "internal_node_id": "0.0-79.0-7.0", "time_elapsed": 1002985, "key_press": -1, "trial_index": 113}, "uniqueid": "MTK2590:3JCG6DTRV4XGSQVA7UNYQ725YP6QQI", "dateTime": 1519084041764}, {"current_trial": 114, "trialdata": {"rt": -1, "trial_type": "single-stim", "stimulus": "<p id=\"stim\">2</p>", "internal_node_id": "0.0-79.0-8.0", "time_elapsed": 1003987, "key_press": -1, "trial_index": 114}, "uniqueid": "MTK2590:3JCG6DTRV4XGSQVA7UNYQ725YP6QQI", "dateTime": 1519084042766}, {"current_trial": 115, "trialdata": {"rt": -1, "trial_type": "single-stim", "stimulus": "<p id=\"stim\">1</p>", "internal_node_id": "0.0-79.0-9.0", "time_elapsed": 1004989, "key_press": -1, "trial_index": 115}, "uniqueid": "MTK2590:3JCG6DTRV4XGSQVA7UNYQ725YP6QQI", "dateTime": 1519084043768}, {"current_trial": 116, "trialdata": {"rt": -1, "trial_type": "single-stim", "stimulus": "<p id=\"stim\">+</p>", "internal_node_id": "0.0-80.0-0.0", "time_elapsed": 1006491, "key_press": -1, "type": "FIXATION", "trial_index": 116}, "uniqueid": "MTK2590:3JCG6DTRV4XGSQVA7UNYQ725YP6QQI", "dateTime": 1519084045270}, {"current_trial": 117, "trialdata": {"rt": -1000, "trial_type": "single-audio", "word": "snake", "stimulus": "/static/audio/wordpool/SNAKE.wav", "conditions": [12, 800, "a", 24000], "internal_node_id": "0.0-81.0", "trial": 3, "time_elapsed": 1008171, "serialpos": 0, "key_press": -1, "wordID": 1332, "type": "PRES_AUD", "trial_index": 117}, "uniqueid": "MTK2590:3JCG6DTRV4XGSQVA7UNYQ725YP6QQI", "dateTime": 1519084046951}, {"current_trial": 118, "trialdata": {"rt": -1000, "trial_type": "single-audio", "word": "turtle", "stimulus": "/static/audio/wordpool/TURTLE.wav", "conditions": [12, 800, "a", 24000], "internal_node_id": "0.0-82.0", "trial": 3, "time_elapsed": 1010030, "serialpos": 1, "key_press": -1, "wordID": 1521, "type": "PRES_AUD", "trial_index": 118}, "uniqueid": "MTK2590:3JCG6DTRV4XGSQVA7UNYQ725YP6QQI", "dateTime": 1519084048809}, {"current_trial": 119, "trialdata": {"rt": -1000, "trial_type": "single-audio", "word": "badge", "stimulus": "/static/audio/wordpool/BADGE.wav", "conditions": [12, 800, "a", 24000], "internal_node_id": "0.0-83.0", "trial": 3, "time_elapsed": 1011899, "serialpos": 2, "key_press": -1, "wordID": 67, "type": "PRES_AUD", "trial_index": 119}, "uniqueid": "MTK2590:3JCG6DTRV4XGSQVA7UNYQ725YP6QQI", "dateTime": 1519084050679}, {"current_trial": 120, "trialdata": {"rt": -1000, "trial_type": "single-audio", "word": "muffin", "stimulus": "/static/audio/wordpool/MUFFIN.wav", "conditions": [12, 800, "a", 24000], "internal_node_id": "0.0-84.0", "trial": 3, "time_elapsed": 1013889, "serialpos": 3, "key_press": -1, "wordID": 928, "type": "PRES_AUD", "trial_index": 120}, "uniqueid": "MTK2590:3JCG6DTRV4XGSQVA7UNYQ725YP6QQI", "dateTime": 1519084052668}, {"current_trial": 121, "trialdata": {"rt": -1000, "trial_type": "single-audio", "word": "office", "stimulus": "/static/audio/wordpool/OFFICE.wav", "conditions": [12, 800, "a", 24000], "internal_node_id": "0.0-85.0", "trial": 3, "time_elapsed": 1015884, "serialpos": 4, "key_press": -1, "wordID": 971, "type": "PRES_AUD", "trial_index": 121}, "uniqueid": "MTK2590:3JCG6DTRV4XGSQVA7UNYQ725YP6QQI", "dateTime": 1519084054663}, {"current_trial": 122, "trialdata": {"rt": -1000, "trial_type": "single-audio", "word": "servant", "stimulus": "/static/audio/wordpool/SERVANT.wav", "conditions": [12, 800, "a", 24000], "internal_node_id": "0.0-86.0", "trial": 3, "time_elapsed": 1017517, "serialpos": 5, "key_press": -1, "wordID": 1270, "type": "PRES_AUD", "trial_index": 122}, "uniqueid": "MTK2590:3JCG6DTRV4XGSQVA7UNYQ725YP6QQI", "dateTime": 1519084056296}, {"current_trial": 123, "trialdata": {"rt": -1000, "trial_type": "single-audio", "word": "gangster", "stimulus": "/static/audio/wordpool/GANGSTER.wav", "conditions": [12, 800, "a", 24000], "internal_node_id": "0.0-87.0", "trial": 3, "time_elapsed": 1019125, "serialpos": 6, "key_press": -1, "wordID": 619, "type": "PRES_AUD", "trial_index": 123}, "uniqueid": "MTK2590:3JCG6DTRV4XGSQVA7UNYQ725YP6QQI", "dateTime": 1519084057904}, {"current_trial": 124, "trialdata": {"rt": -1000, "trial_type": "single-audio", "word": "luggage", "stimulus": "/static/audio/wordpool/LUGGAGE.wav", "conditions": [12, 800, "a", 24000], "internal_node_id": "0.0-88.0", "trial": 3, "time_elapsed": 1021111, "serialpos": 7, "key_press": -1, "wordID": 846, "type": "PRES_AUD", "trial_index": 124}, "uniqueid": "MTK2590:3JCG6DTRV4XGSQVA7UNYQ725YP6QQI", "dateTime": 1519084059890}, {"current_trial": 125, "trialdata": {"rt": -1000, "trial_type": "single-audio", "word": "creature", "stimulus": "/static/audio/wordpool/CREATURE.wav", "conditions": [12, 800, "a", 24000], "internal_node_id": "0.0-89.0", "trial": 3, "time_elapsed": 1022935, "serialpos": 8, "key_press": -1, "wordID": 402, "type": "PRES_AUD", "trial_index": 125}, "uniqueid": "MTK2590:3JCG6DTRV4XGSQVA7UNYQ725YP6QQI", "dateTime": 1519084061715}, {"current_trial": 126, "trialdata": {"rt": -1000, "trial_type": "single-audio", "word": "actor", "stimulus": "/static/audio/wordpool/ACTOR.wav", "conditions": [12, 800, "a", 24000], "internal_node_id": "0.0-90.0", "trial": 3, "time_elapsed": 1024769, "serialpos": 9, "key_press": -1, "wordID": 4, "type": "PRES_AUD", "trial_index": 126}, "uniqueid": "MTK2590:3JCG6DTRV4XGSQVA7UNYQ725YP6QQI", "dateTime": 1519084063548}, {"current_trial": 127, "trialdata": {"rt": -1000, "trial_type": "single-audio", "word": "suitcase", "stimulus": "/static/audio/wordpool/SUITCASE.wav", "conditions": [12, 800, "a", 24000], "internal_node_id": "0.0-91.0", "trial": 3, "time_elapsed": 1026629, "serialpos": 10, "key_press": -1, "wordID": 1402, "type": "PRES_AUD", "trial_index": 127}, "uniqueid": "MTK2590:3JCG6DTRV4XGSQVA7UNYQ725YP6QQI", "dateTime": 1519084065408}, {"current_trial": 128, "trialdata": {"rt": -1000, "trial_type": "single-audio", "word": "machine", "stimulus": "/static/audio/wordpool/MACHINE.wav", "conditions": [12, 800, "a", 24000], "internal_node_id": "0.0-92.0", "trial": 3, "time_elapsed": 1028438, "serialpos": 11, "key_press": -1, "wordID": 851, "type": "PRES_AUD", "trial_index": 128}, "uniqueid": "MTK2590:3JCG6DTRV4XGSQVA7UNYQ725YP6QQI", "dateTime": 1519084067219}, {"current_trial": 129, "trialdata": {"rt": -1, "trial_type": "single-stim", "stimulus": "", "internal_node_id": "0.0-93.0-0.0", "time_elapsed": 1029691, "key_press": -1, "type": "PRE_RECALL_DELAY", "trial_index": 129}, "uniqueid": "MTK2590:3JCG6DTRV4XGSQVA7UNYQ725YP6QQI", "dateTime": 1519084068470}, {"current_trial": 130, "trialdata": {"rt": -1000, "trial_type": "single-audio", "stimulus": "/static/audio/400Hz.wav", "internal_node_id": "0.0-94.0", "time_elapsed": 1030192, "key_press": -1, "type": "PRE_RECALL_ALERT", "trial_index": 130}, "uniqueid": "MTK2590:3JCG6DTRV4XGSQVA7UNYQ725YP6QQI", "dateTime": 1519084068971}, {"current_trial": 131, "trialdata": {"rt": [2897, 4909, 6478, 7915, 11548, 21621, 22849], "recwords": ["luggage", "suitcase", "machine", "actor", "preacher", "turtle", "snake"], "key_times": [1147, 1365, 1901, 2062, 2248, 2419, 2659, 2897, 3141, 3288, 3449, 3580, 3952, 4170, 4390, 4644, 4909, 5216, 5318, 5552, 5697, 5881, 6063, 6187, 6478, 6746, 6997, 7258, 7396, 7497, 7915, 10012, 10157, 10321, 10502, 10754, 10908, 11046, 11143, 11548, 20287, 20573, 20720, 20992, 21224, 21356, 21621, 21968, 22147, 22259, 22444, 22641, 22849], "trial_type": "free-recall", "conditions": [12, 800, "a", 24000], "internal_node_id": "0.0-95.0-0.0", "key_presses": [76, 85, 71, 71, 65, 71, 69, 13, 83, 85, 73, 84, 67, 65, 83, 69, 13, 77, 65, 67, 72, 73, 78, 69, 13, 65, 67, 84, 79, 82, 13, 80, 82, 69, 65, 67, 72, 69, 82, 13, 84, 85, 82, 84, 76, 69, 13, 83, 78, 65, 75, 69, 13], "trial": 3, "time_elapsed": 1090195, "type": "FREE_RECALL", "trial_index": 131}, "uniqueid": "MTK2590:3JCG6DTRV4XGSQVA7UNYQ725YP6QQI", "dateTime": 1519084128976}, {"current_trial": 132, "trialdata": {"rt": 797, "trial_type": "text", "internal_node_id": "0.0-96.0", "time_elapsed": 1092996, "key_press": 32, "type": "INSTRUCTIONS", "trial_index": 132}, "uniqueid": "MTK2590:3JCG6DTRV4XGSQVA7UNYQ725YP6QQI", "dateTime": 1519084131775}, {"current_trial": 133, "trialdata": {"rt": [2335, 4905, 8875], "trial_type": "math-distractor", "key_times": [1702, 2011, 2335, 4417, 4629, 4905, 8513, 8700, 8875, 11886], "responses": ["17", "11", "22"], "num2": [8, 1, 8, 4], "num3": [1, 7, 5, 3], "conditions": [12, 1600, "a", 12000], "internal_node_id": "0.0-97.0", "key_presses": [49, 55, 13, 49, 49, 13, 50, 50, 13, 57], "trial": 4, "time_elapsed": 1106999, "type": "DISTRACTOR", "trial_index": 133, "num1": [9, 3, 8, 2]}, "uniqueid": "MTK2590:3JCG6DTRV4XGSQVA7UNYQ725YP6QQI", "dateTime": 1519084145779}, {"current_trial": 134, "trialdata": {"rt": -1, "trial_type": "single-stim", "stimulus": "<p id=\"stim\">10</p>", "internal_node_id": "0.0-98.0-0.0", "time_elapsed": 1110004, "key_press": -1, "trial_index": 134}, "uniqueid": "MTK2590:3JCG6DTRV4XGSQVA7UNYQ725YP6QQI", "dateTime": 1519084148783}, {"current_trial": 135, "trialdata": {"rt": -1, "trial_type": "single-stim", "stimulus": "<p id=\"stim\">9</p>", "internal_node_id": "0.0-98.0-1.0", "time_elapsed": 1111008, "key_press": -1, "trial_index": 135}, "uniqueid": "MTK2590:3JCG6DTRV4XGSQVA7UNYQ725YP6QQI", "dateTime": 1519084149787}, {"current_trial": 136, "trialdata": {"rt": -1, "trial_type": "single-stim", "stimulus": "<p id=\"stim\">8</p>", "internal_node_id": "0.0-98.0-2.0", "time_elapsed": 1112010, "key_press": -1, "trial_index": 136}, "uniqueid": "MTK2590:3JCG6DTRV4XGSQVA7UNYQ725YP6QQI", "dateTime": 1519084150789}, {"current_trial": 137, "trialdata": {"rt": -1, "trial_type": "single-stim", "stimulus": "<p id=\"stim\">7</p>", "internal_node_id": "0.0-98.0-3.0", "time_elapsed": 1113011, "key_press": -1, "trial_index": 137}, "uniqueid": "MTK2590:3JCG6DTRV4XGSQVA7UNYQ725YP6QQI", "dateTime": 1519084151790}, {"current_trial": 138, "trialdata": {"rt": -1, "trial_type": "single-stim", "stimulus": "<p id=\"stim\">6</p>", "internal_node_id": "0.0-98.0-4.0", "time_elapsed": 1114014, "key_press": -1, "trial_index": 138}, "uniqueid": "MTK2590:3JCG6DTRV4XGSQVA7UNYQ725YP6QQI", "dateTime": 1519084152794}, {"current_trial": 139, "trialdata": {"rt": -1, "trial_type": "single-stim", "stimulus": "<p id=\"stim\">5</p>", "internal_node_id": "0.0-98.0-5.0", "time_elapsed": 1115016, "key_press": -1, "trial_index": 139}, "uniqueid": "MTK2590:3JCG6DTRV4XGSQVA7UNYQ725YP6QQI", "dateTime": 1519084153795}, {"current_trial": 140, "trialdata": {"rt": -1, "trial_type": "single-stim", "stimulus": "<p id=\"stim\">4</p>", "internal_node_id": "0.0-98.0-6.0", "time_elapsed": 1116018, "key_press": -1, "trial_index": 140}, "uniqueid": "MTK2590:3JCG6DTRV4XGSQVA7UNYQ725YP6QQI", "dateTime": 1519084154797}, {"current_trial": 141, "trialdata": {"rt": -1, "trial_type": "single-stim", "stimulus": "<p id=\"stim\">3</p>", "internal_node_id": "0.0-98.0-7.0", "time_elapsed": 1117020, "key_press": -1, "trial_index": 141}, "uniqueid": "MTK2590:3JCG6DTRV4XGSQVA7UNYQ725YP6QQI", "dateTime": 1519084155799}, {"current_trial": 142, "trialdata": {"rt": -1, "trial_type": "single-stim", "stimulus": "<p id=\"stim\">2</p>", "internal_node_id": "0.0-98.0-8.0", "time_elapsed": 1118021, "key_press": -1, "trial_index": 142}, "uniqueid": "MTK2590:3JCG6DTRV4XGSQVA7UNYQ725YP6QQI", "dateTime": 1519084156800}, {"current_trial": 143, "trialdata": {"rt": -1, "trial_type": "single-stim", "stimulus": "<p id=\"stim\">1</p>", "internal_node_id": "0.0-98.0-9.0", "time_elapsed": 1119024, "key_press": -1, "trial_index": 143}, "uniqueid": "MTK2590:3JCG6DTRV4XGSQVA7UNYQ725YP6QQI", "dateTime": 1519084157803}, {"current_trial": 144, "trialdata": {"rt": -1, "trial_type": "single-stim", "stimulus": "<p id=\"stim\">+</p>", "internal_node_id": "0.0-99.0-0.0", "time_elapsed": 1120526, "key_press": -1, "type": "FIXATION", "trial_index": 144}, "uniqueid": "MTK2590:3JCG6DTRV4XGSQVA7UNYQ725YP6QQI", "dateTime": 1519084159305}, {"current_trial": 145, "trialdata": {"rt": -1000, "trial_type": "single-audio", "word": "driver", "stimulus": "/static/audio/wordpool/DRIVER.wav", "conditions": [12, 1600, "a", 12000], "internal_node_id": "0.0-100.0", "trial": 4, "time_elapsed": 1122953, "serialpos": 0, "key_press": -1, "wordID": 498, "type": "PRES_AUD", "trial_index": 145}, "uniqueid": "MTK2590:3JCG6DTRV4XGSQVA7UNYQ725YP6QQI", "dateTime": 1519084161733}, {"current_trial": 146, "trialdata": {"rt": -1000, "trial_type": "single-audio", "word": "forehead", "stimulus": "/static/audio/wordpool/FOREHEAD.wav", "conditions": [12, 1600, "a", 12000], "internal_node_id": "0.0-101.0", "trial": 4, "time_elapsed": 1125634, "serialpos": 1, "key_press": -1, "wordID": 591, "type": "PRES_AUD", "trial_index": 146}, "uniqueid": "MTK2590:3JCG6DTRV4XGSQVA7UNYQ725YP6QQI", "dateTime": 1519084164413}, {"current_trial": 147, "trialdata": {"rt": -1000, "trial_type": "single-audio", "word": "chest", "stimulus": "/static/audio/wordpool/CHEST.wav", "conditions": [12, 1600, "a", 12000], "internal_node_id": "0.0-102.0", "trial": 4, "time_elapsed": 1128097, "serialpos": 2, "key_press": -1, "wordID": 294, "type": "PRES_AUD", "trial_index": 147}, "uniqueid": "MTK2590:3JCG6DTRV4XGSQVA7UNYQ725YP6QQI", "dateTime": 1519084166876}, {"current_trial": 148, "trialdata": {"rt": -1000, "trial_type": "single-audio", "word": "captive", "stimulus": "/static/audio/wordpool/CAPTIVE.wav", "conditions": [12, 1600, "a", 12000], "internal_node_id": "0.0-103.0", "trial": 4, "time_elapsed": 1130834, "serialpos": 3, "key_press": -1, "wordID": 239, "type": "PRES_AUD", "trial_index": 148}, "uniqueid": "MTK2590:3JCG6DTRV4XGSQVA7UNYQ725YP6QQI", "dateTime": 1519084169613}, {"current_trial": 149, "trialdata": {"rt": -1000, "trial_type": "single-audio", "word": "salad", "stimulus": "/static/audio/wordpool/SALAD.wav", "conditions": [12, 1600, "a", 12000], "internal_node_id": "0.0-104.0", "trial": 4, "time_elapsed": 1133296, "serialpos": 4, "key_press": -1, "wordID": 1223, "type": "PRES_AUD", "trial_index": 149}, "uniqueid": "MTK2590:3JCG6DTRV4XGSQVA7UNYQ725YP6QQI", "dateTime": 1519084172075}, {"current_trial": 150, "trialdata": {"rt": -1000, "trial_type": "single-audio", "word": "empire", "stimulus": "/static/audio/wordpool/EMPIRE.wav", "conditions": [12, 1600, "a", 12000], "internal_node_id": "0.0-105.0", "trial": 4, "time_elapsed": 1135998, "serialpos": 5, "key_press": -1, "wordID": 529, "type": "PRES_AUD", "trial_index": 150}, "uniqueid": "MTK2590:3JCG6DTRV4XGSQVA7UNYQ725YP6QQI", "dateTime": 1519084174778}, {"current_trial": 151, "trialdata": {"rt": -1000, "trial_type": "single-audio", "word": "female", "stimulus": "/static/audio/wordpool/FEMALE.wav", "conditions": [12, 1600, "a", 12000], "internal_node_id": "0.0-106.0", "trial": 4, "time_elapsed": 1138610, "serialpos": 6, "key_press": -1, "wordID": 558, "type": "PRES_AUD", "trial_index": 151}, "uniqueid": "MTK2590:3JCG6DTRV4XGSQVA7UNYQ725YP6QQI", "dateTime": 1519084177389}, {"current_trial": 152, "trialdata": {"rt": -1000, "trial_type": "single-audio", "word": "truck", "stimulus": "/static/audio/wordpool/TRUCK.wav", "conditions": [12, 1600, "a", 12000], "internal_node_id": "0.0-107.0", "trial": 4, "time_elapsed": 1141162, "serialpos": 7, "key_press": -1, "wordID": 1511, "type": "PRES_AUD", "trial_index": 152}, "uniqueid": "MTK2590:3JCG6DTRV4XGSQVA7UNYQ725YP6QQI", "dateTime": 1519084179941}, {"current_trial": 153, "trialdata": {"rt": -1000, "trial_type": "single-audio", "word": "marsh", "stimulus": "/static/audio/wordpool/MARSH.wav", "conditions": [12, 1600, "a", 12000], "internal_node_id": "0.0-108.0", "trial": 4, "time_elapsed": 1143801, "serialpos": 8, "key_press": -1, "wordID": 873, "type": "PRES_AUD", "trial_index": 153}, "uniqueid": "MTK2590:3JCG6DTRV4XGSQVA7UNYQ725YP6QQI", "dateTime": 1519084182580}, {"current_trial": 154, "trialdata": {"rt": -1000, "trial_type": "single-audio", "word": "scallop", "stimulus": "/static/audio/wordpool/SCALLOP.wav", "conditions": [12, 1600, "a", 12000], "internal_node_id": "0.0-109.0", "trial": 4, "time_elapsed": 1146413, "serialpos": 9, "key_press": -1, "wordID": 1241, "type": "PRES_AUD", "trial_index": 154}, "uniqueid": "MTK2590:3JCG6DTRV4XGSQVA7UNYQ725YP6QQI", "dateTime": 1519084185192}, {"current_trial": 155, "trialdata": {"rt": -1000, "trial_type": "single-audio", "word": "freezer", "stimulus": "/static/audio/wordpool/FREEZER.wav", "conditions": [12, 1600, "a", 12000], "internal_node_id": "0.0-110.0", "trial": 4, "time_elapsed": 1149058, "serialpos": 10, "key_press": -1, "wordID": 603, "type": "PRES_AUD", "trial_index": 155}, "uniqueid": "MTK2590:3JCG6DTRV4XGSQVA7UNYQ725YP6QQI", "dateTime": 1519084187837}, {"current_trial": 156, "trialdata": {"rt": -1000, "trial_type": "single-audio", "word": "cook", "stimulus": "/static/audio/wordpool/COOK.wav", "conditions": [12, 1600, "a", 12000], "internal_node_id": "0.0-111.0", "trial": 4, "time_elapsed": 1151526, "serialpos": 11, "key_press": -1, "wordID": 371, "type": "PRES_AUD", "trial_index": 156}, "uniqueid": "MTK2590:3JCG6DTRV4XGSQVA7UNYQ725YP6QQI", "dateTime": 1519084190305}, {"current_trial": 157, "trialdata": {"rt": -1, "trial_type": "single-stim", "stimulus": "", "internal_node_id": "0.0-112.0-0.0", "time_elapsed": 1152811, "key_press": -1, "type": "PRE_RECALL_DELAY", "trial_index": 157}, "uniqueid": "MTK2590:3JCG6DTRV4XGSQVA7UNYQ725YP6QQI", "dateTime": 1519084191591}, {"current_trial": 158, "trialdata": {"rt": -1000, "trial_type": "single-audio", "stimulus": "/static/audio/400Hz.wav", "internal_node_id": "0.0-113.0", "time_elapsed": 1153312, "key_press": -1, "type": "PRE_RECALL_ALERT", "trial_index": 158}, "uniqueid": "MTK2590:3JCG6DTRV4XGSQVA7UNYQ725YP6QQI", "dateTime": 1519084192091}, {"current_trial": 159, "trialdata": {"rt": [1992, 3798, 6275, 8117, 15303, 25696], "recwords": ["cook", "freezer", "scaplop", "marsh", "driver", "salad"], "key_times": [951, 1415, 1558, 1729, 1992, 2235, 2498, 2813, 2970, 3207, 3454, 3565, 3798, 4022, 4338, 4555, 5184, 5475, 5697, 5889, 6275, 6671, 6836, 6947, 7314, 7489, 8117, 14230, 14461, 14630, 14806, 15034, 15148, 15303, 24692, 24941, 25162, 25319, 25511, 25696], "trial_type": "free-recall", "conditions": [12, 1600, "a", 12000], "internal_node_id": "0.0-114.0-0.0", "key_presses": [67, 79, 79, 75, 13, 70, 82, 69, 69, 90, 69, 82, 13, 83, 67, 65, 80, 76, 79, 80, 13, 77, 65, 82, 83, 72, 13, 68, 82, 73, 86, 69, 82, 13, 83, 65, 76, 65, 68, 13], "trial": 4, "time_elapsed": 1213318, "type": "FREE_RECALL", "trial_index": 159}, "uniqueid": "MTK2590:3JCG6DTRV4XGSQVA7UNYQ725YP6QQI", "dateTime": 1519084252102}, {"current_trial": 160, "trialdata": {"rt": 1279, "trial_type": "text", "internal_node_id": "0.0-115.0", "time_elapsed": 1216603, "key_press": 32, "type": "INSTRUCTIONS", "trial_index": 160}, "uniqueid": "MTK2590:3JCG6DTRV4XGSQVA7UNYQ725YP6QQI", "dateTime": 1519084255382}, {"current_trial": 161, "trialdata": {"rt": [11096, 14067, 18934, 21402], "trial_type": "math-distractor", "key_times": [10679, 10832, 11096, 13699, 13896, 14067, 18442, 18683, 18934, 20897, 21187, 21402], "responses": ["18", "22", "20", "13"], "num2": [6, 9, 6, 3, 4], "num3": [5, 4, 6, 6, 2], "conditions": [12, 1600, "a", 24000], "internal_node_id": "0.0-116.0", "key_presses": [49, 56, 13, 50, 50, 13, 50, 48, 13, 49, 51, 13], "trial": 5, "time_elapsed": 1242608, "type": "DISTRACTOR", "trial_index": 161, "num1": [7, 9, 8, 4, 9]}, "uniqueid": "MTK2590:3JCG6DTRV4XGSQVA7UNYQ725YP6QQI", "dateTime": 1519084281387}, {"current_trial": 162, "trialdata": {"rt": -1, "trial_type": "single-stim", "stimulus": "<p id=\"stim\">10</p>", "internal_node_id": "0.0-117.0-0.0", "time_elapsed": 1245611, "key_press": -1, "trial_index": 162}, "uniqueid": "MTK2590:3JCG6DTRV4XGSQVA7UNYQ725YP6QQI", "dateTime": 1519084284390}, {"current_trial": 163, "trialdata": {"rt": -1, "trial_type": "single-stim", "stimulus": "<p id=\"stim\">9</p>", "internal_node_id": "0.0-117.0-1.0", "time_elapsed": 1246613, "key_press": -1, "trial_index": 163}, "uniqueid": "MTK2590:3JCG6DTRV4XGSQVA7UNYQ725YP6QQI", "dateTime": 1519084285393}, {"current_trial": 164, "trialdata": {"rt": -1, "trial_type": "single-stim", "stimulus": "<p id=\"stim\">8</p>", "internal_node_id": "0.0-117.0-2.0", "time_elapsed": 1247615, "key_press": -1, "trial_index": 164}, "uniqueid": "MTK2590:3JCG6DTRV4XGSQVA7UNYQ725YP6QQI", "dateTime": 1519084286394}, {"current_trial": 165, "trialdata": {"rt": -1, "trial_type": "single-stim", "stimulus": "<p id=\"stim\">7</p>", "internal_node_id": "0.0-117.0-3.0", "time_elapsed": 1248617, "key_press": -1, "trial_index": 165}, "uniqueid": "MTK2590:3JCG6DTRV4XGSQVA7UNYQ725YP6QQI", "dateTime": 1519084287396}, {"current_trial": 166, "trialdata": {"rt": -1, "trial_type": "single-stim", "stimulus": "<p id=\"stim\">6</p>", "internal_node_id": "0.0-117.0-4.0", "time_elapsed": 1249620, "key_press": -1, "trial_index": 166}, "uniqueid": "MTK2590:3JCG6DTRV4XGSQVA7UNYQ725YP6QQI", "dateTime": 1519084288399}, {"current_trial": 167, "trialdata": {"rt": -1, "trial_type": "single-stim", "stimulus": "<p id=\"stim\">5</p>", "internal_node_id": "0.0-117.0-5.0", "time_elapsed": 1250623, "key_press": -1, "trial_index": 167}, "uniqueid": "MTK2590:3JCG6DTRV4XGSQVA7UNYQ725YP6QQI", "dateTime": 1519084289402}, {"current_trial": 168, "trialdata": {"rt": -1, "trial_type": "single-stim", "stimulus": "<p id=\"stim\">4</p>", "internal_node_id": "0.0-117.0-6.0", "time_elapsed": 1251624, "key_press": -1, "trial_index": 168}, "uniqueid": "MTK2590:3JCG6DTRV4XGSQVA7UNYQ725YP6QQI", "dateTime": 1519084290404}, {"current_trial": 169, "trialdata": {"rt": -1, "trial_type": "single-stim", "stimulus": "<p id=\"stim\">3</p>", "internal_node_id": "0.0-117.0-7.0", "time_elapsed": 1252626, "key_press": -1, "trial_index": 169}, "uniqueid": "MTK2590:3JCG6DTRV4XGSQVA7UNYQ725YP6QQI", "dateTime": 1519084291406}, {"current_trial": 170, "trialdata": {"rt": -1, "trial_type": "single-stim", "stimulus": "<p id=\"stim\">2</p>", "internal_node_id": "0.0-117.0-8.0", "time_elapsed": 1253628, "key_press": -1, "trial_index": 170}, "uniqueid": "MTK2590:3JCG6DTRV4XGSQVA7UNYQ725YP6QQI", "dateTime": 1519084292407}, {"current_trial": 171, "trialdata": {"rt": -1, "trial_type": "single-stim", "stimulus": "<p id=\"stim\">1</p>", "internal_node_id": "0.0-117.0-9.0", "time_elapsed": 1254629, "key_press": -1, "trial_index": 171}, "uniqueid": "MTK2590:3JCG6DTRV4XGSQVA7UNYQ725YP6QQI", "dateTime": 1519084293409}, {"current_trial": 172, "trialdata": {"rt": -1, "trial_type": "single-stim", "stimulus": "<p id=\"stim\">+</p>", "internal_node_id": "0.0-118.0-0.0", "time_elapsed": 1256131, "key_press": -1, "type": "FIXATION", "trial_index": 172}, "uniqueid": "MTK2590:3JCG6DTRV4XGSQVA7UNYQ725YP6QQI", "dateTime": 1519084294910}, {"current_trial": 173, "trialdata": {"rt": -1000, "trial_type": "single-audio", "word": "pigeon", "stimulus": "/static/audio/wordpool/PIGEON.wav", "conditions": [12, 1600, "a", 24000], "internal_node_id": "0.0-119.0", "trial": 5, "time_elapsed": 1258866, "serialpos": 0, "key_press": -1, "wordID": 1064, "type": "PRES_AUD", "trial_index": 173}, "uniqueid": "MTK2590:3JCG6DTRV4XGSQVA7UNYQ725YP6QQI", "dateTime": 1519084297645}, {"current_trial": 174, "trialdata": {"rt": -1000, "trial_type": "single-audio", "word": "rooster", "stimulus": "/static/audio/wordpool/ROOSTER.wav", "conditions": [12, 1600, "a", 24000], "internal_node_id": "0.0-120.0", "trial": 5, "time_elapsed": 1261607, "serialpos": 1, "key_press": -1, "wordID": 1208, "type": "PRES_AUD", "trial_index": 174}, "uniqueid": "MTK2590:3JCG6DTRV4XGSQVA7UNYQ725YP6QQI", "dateTime": 1519084300386}, {"current_trial": 175, "trialdata": {"rt": -1000, "trial_type": "single-audio", "word": "tutu", "stimulus": "/static/audio/wordpool/TUTU.wav", "conditions": [12, 1600, "a", 24000], "internal_node_id": "0.0-121.0", "trial": 5, "time_elapsed": 1264035, "serialpos": 2, "key_press": -1, "wordID": 1523, "type": "PRES_AUD", "trial_index": 175}, "uniqueid": "MTK2590:3JCG6DTRV4XGSQVA7UNYQ725YP6QQI", "dateTime": 1519084302814}, {"current_trial": 176, "trialdata": {"rt": -1000, "trial_type": "single-audio", "word": "turkey", "stimulus": "/static/audio/wordpool/TURKEY.wav", "conditions": [12, 1600, "a", 24000], "internal_node_id": "0.0-122.0", "trial": 5, "time_elapsed": 1266756, "serialpos": 3, "key_press": -1, "wordID": 1519, "type": "PRES_AUD", "trial_index": 176}, "uniqueid": "MTK2590:3JCG6DTRV4XGSQVA7UNYQ725YP6QQI", "dateTime": 1519084305535}, {"current_trial": 177, "trialdata": {"rt": -1000, "trial_type": "single-audio", "word": "ghetto", "stimulus": "/static/audio/wordpool/GHETTO.wav", "conditions": [12, 1600, "a", 24000], "internal_node_id": "0.0-123.0", "trial": 5, "time_elapsed": 1269331, "serialpos": 4, "key_press": -1, "wordID": 632, "type": "PRES_AUD", "trial_index": 177}, "uniqueid": "MTK2590:3JCG6DTRV4XGSQVA7UNYQ725YP6QQI", "dateTime": 1519084308110}, {"current_trial": 178, "trialdata": {"rt": -1000, "trial_type": "single-audio", "word": "seafood", "stimulus": "/static/audio/wordpool/SEAFOOD.wav", "conditions": [12, 1600, "a", 24000], "internal_node_id": "0.0-124.0", "trial": 5, "time_elapsed": 1271912, "serialpos": 5, "key_press": -1, "wordID": 1259, "type": "PRES_AUD", "trial_index": 178}, "uniqueid": "MTK2590:3JCG6DTRV4XGSQVA7UNYQ725YP6QQI", "dateTime": 1519084310691}, {"current_trial": 179, "trialdata": {"rt": -1000, "trial_type": "single-audio", "word": "twig", "stimulus": "/static/audio/wordpool/TWIG.wav", "conditions": [12, 1600, "a", 24000], "internal_node_id": "0.0-125.0", "trial": 5, "time_elapsed": 1274611, "serialpos": 6, "key_press": -1, "wordID": 1526, "type": "PRES_AUD", "trial_index": 179}, "uniqueid": "MTK2590:3JCG6DTRV4XGSQVA7UNYQ725YP6QQI", "dateTime": 1519084313390}, {"current_trial": 180, "trialdata": {"rt": -1000, "trial_type": "single-audio", "word": "juggler", "stimulus": "/static/audio/wordpool/JUGGLER.wav", "conditions": [12, 1600, "a", 24000], "internal_node_id": "0.0-126.0", "trial": 5, "time_elapsed": 1277055, "serialpos": 7, "key_press": -1, "wordID": 762, "type": "PRES_AUD", "trial_index": 180}, "uniqueid": "MTK2590:3JCG6DTRV4XGSQVA7UNYQ725YP6QQI", "dateTime": 1519084315834}, {"current_trial": 181, "trialdata": {"rt": -1000, "trial_type": "single-audio", "word": "skillet", "stimulus": "/static/audio/wordpool/SKILLET.wav", "conditions": [12, 1600, "a", 24000], "internal_node_id": "0.0-127.0", "trial": 5, "time_elapsed": 1279673, "serialpos": 8, "key_press": -1, "wordID": 1316, "type": "PRES_AUD", "trial_index": 181}, "uniqueid": "MTK2590:3JCG6DTRV4XGSQVA7UNYQ725YP6QQI", "dateTime": 1519084318453}, {"current_trial": 182, "trialdata": {"rt": -1000, "trial_type": "single-audio", "word": "grill", "stimulus": "/static/audio/wordpool/GRILL.wav", "conditions": [12, 1600, "a", 24000], "internal_node_id": "0.0-128.0", "trial": 5, "time_elapsed": 1282107, "serialpos": 9, "key_press": -1, "wordID": 660, "type": "PRES_AUD", "trial_index": 182}, "uniqueid": "MTK2590:3JCG6DTRV4XGSQVA7UNYQ725YP6QQI", "dateTime": 1519084320887}, {"current_trial": 183, "trialdata": {"rt": -1000, "trial_type": "single-audio", "word": "candy", "stimulus": "/static/audio/wordpool/CANDY.wav", "conditions": [12, 1600, "a", 24000], "internal_node_id": "0.0-129.0", "trial": 5, "time_elapsed": 1284517, "serialpos": 10, "key_press": -1, "wordID": 229, "type": "PRES_AUD", "trial_index": 183}, "uniqueid": "MTK2590:3JCG6DTRV4XGSQVA7UNYQ725YP6QQI", "dateTime": 1519084323296}, {"current_trial": 184, "trialdata": {"rt": -1000, "trial_type": "single-audio", "word": "quail", "stimulus": "/static/audio/wordpool/QUAIL.wav", "conditions": [12, 1600, "a", 24000], "internal_node_id": "0.0-130.0", "trial": 5, "time_elapsed": 1287044, "serialpos": 11, "key_press": -1, "wordID": 1146, "type": "PRES_AUD", "trial_index": 184}, "uniqueid": "MTK2590:3JCG6DTRV4XGSQVA7UNYQ725YP6QQI", "dateTime": 1519084325823}, {"current_trial": 185, "trialdata": {"rt": -1, "trial_type": "single-stim", "stimulus": "", "internal_node_id": "0.0-131.0-0.0", "time_elapsed": 1288345, "key_press": -1, "type": "PRE_RECALL_DELAY", "trial_index": 185}, "uniqueid": "MTK2590:3JCG6DTRV4XGSQVA7UNYQ725YP6QQI", "dateTime": 1519084327124}, {"current_trial": 186, "trialdata": {"rt": -1000, "trial_type": "single-audio", "stimulus": "/static/audio/400Hz.wav", "internal_node_id": "0.0-132.0", "time_elapsed": 1288847, "key_press": -1, "type": "PRE_RECALL_ALERT", "trial_index": 186}, "uniqueid": "MTK2590:3JCG6DTRV4XGSQVA7UNYQ725YP6QQI", "dateTime": 1519084327626}, {"current_trial": 187, "trialdata": {"rt": [3306, 4717, 6575, 8416, 9818, 12386], "recwords": ["quail", "candy", "skillet", "seafood", "kid", "juggler"], "key_times": [1740, 2397, 2617, 2751, 2987, 3306, 3630, 3846, 3967, 4096, 4377, 4717, 5076, 5267, 5515, 5781, 5923, 6016, 6280, 6575, 6846, 7047, 7211, 7467, 7781, 7918, 8078, 8416, 9018, 9225, 9384, 9818, 10183, 10418, 11031, 11219, 11283, 11447, 12094, 12386], "trial_type": "free-recall", "conditions": [12, 1600, "a", 24000], "internal_node_id": "0.0-133.0-0.0", "key_presses": [81, 85, 65, 73, 76, 13, 67, 65, 78, 68, 89, 13, 83, 75, 73, 76, 76, 69, 84, 13, 83, 69, 65, 70, 79, 79, 68, 13, 75, 73, 68, 13, 74, 85, 71, 71, 76, 69, 82, 13], "trial": 5, "time_elapsed": 1348850, "type": "FREE_RECALL", "trial_index": 187}, "uniqueid": "MTK2590:3JCG6DTRV4XGSQVA7UNYQ725YP6QQI", "dateTime": 1519084387632}, {"current_trial": 188, "trialdata": {"rt": 622, "trial_type": "text", "internal_node_id": "0.0-134.0", "time_elapsed": 1351477, "key_press": 32, "type": "INSTRUCTIONS", "trial_index": 188}, "uniqueid": "MTK2590:3JCG6DTRV4XGSQVA7UNYQ725YP6QQI", "dateTime": 1519084390256}, {"current_trial": 189, "trialdata": {"rt": [3512, 6020, 12351, 16503, 21562], "trial_type": "math-distractor", "key_times": [2712, 2938, 3512, 5745, 6020, 11042, 12068, 12351, 16011, 16239, 16503, 21058, 21284, 21562], "responses": ["11", "8", "16", "19", "17"], "num2": [2, 4, 2, 6, 9, 9], "num3": [3, 3, 5, 8, 3, 5], "conditions": [12, 800, "a", 24000], "internal_node_id": "0.0-135.0", "key_presses": [49, 49, 13, 56, 13, 49, 54, 13, 49, 57, 13, 49, 55, 13], "trial": 6, "time_elapsed": 1377482, "type": "DISTRACTOR", "trial_index": 189, "num1": [6, 1, 9, 5, 5, 3]}, "uniqueid": "MTK2590:3JCG6DTRV4XGSQVA7UNYQ725YP6QQI", "dateTime": 1519084416261}, {"current_trial": 190, "trialdata": {"rt": -1, "trial_type": "single-stim", "stimulus": "<p id=\"stim\">10</p>", "internal_node_id": "0.0-136.0-0.0", "time_elapsed": 1380485, "key_press": -1, "trial_index": 190}, "uniqueid": "MTK2590:3JCG6DTRV4XGSQVA7UNYQ725YP6QQI", "dateTime": 1519084419264}, {"current_trial": 191, "trialdata": {"rt": -1, "trial_type": "single-stim", "stimulus": "<p id=\"stim\">9</p>", "internal_node_id": "0.0-136.0-1.0", "time_elapsed": 1381487, "key_press": -1, "trial_index": 191}, "uniqueid": "MTK2590:3JCG6DTRV4XGSQVA7UNYQ725YP6QQI", "dateTime": 1519084420266}, {"current_trial": 192, "trialdata": {"rt": -1, "trial_type": "single-stim", "stimulus": "<p id=\"stim\">8</p>", "internal_node_id": "0.0-136.0-2.0", "time_elapsed": 1382489, "key_press": -1, "trial_index": 192}, "uniqueid": "MTK2590:3JCG6DTRV4XGSQVA7UNYQ725YP6QQI", "dateTime": 1519084421268}, {"current_trial": 193, "trialdata": {"rt": -1, "trial_type": "single-stim", "stimulus": "<p id=\"stim\">7</p>", "internal_node_id": "0.0-136.0-3.0", "time_elapsed": 1383490, "key_press": -1, "trial_index": 193}, "uniqueid": "MTK2590:3JCG6DTRV4XGSQVA7UNYQ725YP6QQI", "dateTime": 1519084422270}, {"current_trial": 194, "trialdata": {"rt": -1, "trial_type": "single-stim", "stimulus": "<p id=\"stim\">6</p>", "internal_node_id": "0.0-136.0-4.0", "time_elapsed": 1384493, "key_press": -1, "trial_index": 194}, "uniqueid": "MTK2590:3JCG6DTRV4XGSQVA7UNYQ725YP6QQI", "dateTime": 1519084423272}, {"current_trial": 195, "trialdata": {"rt": -1, "trial_type": "single-stim", "stimulus": "<p id=\"stim\">5</p>", "internal_node_id": "0.0-136.0-5.0", "time_elapsed": 1385495, "key_press": -1, "trial_index": 195}, "uniqueid": "MTK2590:3JCG6DTRV4XGSQVA7UNYQ725YP6QQI", "dateTime": 1519084424274}, {"current_trial": 196, "trialdata": {"rt": -1, "trial_type": "single-stim", "stimulus": "<p id=\"stim\">4</p>", "internal_node_id": "0.0-136.0-6.0", "time_elapsed": 1386497, "key_press": -1, "trial_index": 196}, "uniqueid": "MTK2590:3JCG6DTRV4XGSQVA7UNYQ725YP6QQI", "dateTime": 1519084425276}, {"current_trial": 197, "trialdata": {"rt": -1, "trial_type": "single-stim", "stimulus": "<p id=\"stim\">3</p>", "internal_node_id": "0.0-136.0-7.0", "time_elapsed": 1387500, "key_press": -1, "trial_index": 197}, "uniqueid": "MTK2590:3JCG6DTRV4XGSQVA7UNYQ725YP6QQI", "dateTime": 1519084426279}, {"current_trial": 198, "trialdata": {"rt": -1, "trial_type": "single-stim", "stimulus": "<p id=\"stim\">2</p>", "internal_node_id": "0.0-136.0-8.0", "time_elapsed": 1388502, "key_press": -1, "trial_index": 198}, "uniqueid": "MTK2590:3JCG6DTRV4XGSQVA7UNYQ725YP6QQI", "dateTime": 1519084427281}, {"current_trial": 199, "trialdata": {"rt": -1, "trial_type": "single-stim", "stimulus": "<p id=\"stim\">1</p>", "internal_node_id": "0.0-136.0-9.0", "time_elapsed": 1389504, "key_press": -1, "trial_index": 199}, "uniqueid": "MTK2590:3JCG6DTRV4XGSQVA7UNYQ725YP6QQI", "dateTime": 1519084428283}, {"current_trial": 200, "trialdata": {"rt": -1, "trial_type": "single-stim", "stimulus": "<p id=\"stim\">+</p>", "internal_node_id": "0.0-137.0-0.0", "time_elapsed": 1391006, "key_press": -1, "type": "FIXATION", "trial_index": 200}, "uniqueid": "MTK2590:3JCG6DTRV4XGSQVA7UNYQ725YP6QQI", "dateTime": 1519084429786}, {"current_trial": 201, "trialdata": {"rt": -1000, "trial_type": "single-audio", "word": "beaver", "stimulus": "/static/audio/wordpool/BEAVER.wav", "conditions": [12, 800, "a", 24000], "internal_node_id": "0.0-138.0", "trial": 6, "time_elapsed": 1392901, "serialpos": 0, "key_press": -1, "wordID": 108, "type": "PRES_AUD", "trial_index": 201}, "uniqueid": "MTK2590:3JCG6DTRV4XGSQVA7UNYQ725YP6QQI", "dateTime": 1519084431680}, {"current_trial": 202, "trialdata": {"rt": -1000, "trial_type": "single-audio", "word": "gymnast", "stimulus": "/static/audio/wordpool/GYMNAST.wav", "conditions": [12, 800, "a", 24000], "internal_node_id": "0.0-139.0", "trial": 6, "time_elapsed": 1394599, "serialpos": 1, "key_press": -1, "wordID": 674, "type": "PRES_AUD", "trial_index": 202}, "uniqueid": "MTK2590:3JCG6DTRV4XGSQVA7UNYQ725YP6QQI", "dateTime": 1519084433378}, {"current_trial": 203, "trialdata": {"rt": -1000, "trial_type": "single-audio", "word": "loft", "stimulus": "/static/audio/wordpool/LOFT.wav", "conditions": [12, 800, "a", 24000], "internal_node_id": "0.0-140.0", "trial": 6, "time_elapsed": 1396386, "serialpos": 2, "key_press": -1, "wordID": 839, "type": "PRES_AUD", "trial_index": 203}, "uniqueid": "MTK2590:3JCG6DTRV4XGSQVA7UNYQ725YP6QQI", "dateTime": 1519084435165}, {"current_trial": 204, "trialdata": {"rt": -1000, "trial_type": "single-audio", "word": "dolphin", "stimulus": "/static/audio/wordpool/DOLPHIN.wav", "conditions": [12, 800, "a", 24000], "internal_node_id": "0.0-141.0", "trial": 6, "time_elapsed": 1398244, "serialpos": 3, "key_press": -1, "wordID": 482, "type": "PRES_AUD", "trial_index": 204}, "uniqueid": "MTK2590:3JCG6DTRV4XGSQVA7UNYQ725YP6QQI", "dateTime": 1519084437023}, {"current_trial": 205, "trialdata": {"rt": -1000, "trial_type": "single-audio", "word": "brick", "stimulus": "/static/audio/wordpool/BRICK.wav", "conditions": [12, 800, "a", 24000], "internal_node_id": "0.0-142.0", "trial": 6, "time_elapsed": 1399939, "serialpos": 4, "key_press": -1, "wordID": 171, "type": "PRES_AUD", "trial_index": 205}, "uniqueid": "MTK2590:3JCG6DTRV4XGSQVA7UNYQ725YP6QQI", "dateTime": 1519084438719}, {"current_trial": 206, "trialdata": {"rt": -1000, "trial_type": "single-audio", "word": "diner", "stimulus": "/static/audio/wordpool/DINER.wav", "conditions": [12, 800, "a", 24000], "internal_node_id": "0.0-143.0", "trial": 6, "time_elapsed": 1401637, "serialpos": 5, "key_press": -1, "wordID": 466, "type": "PRES_AUD", "trial_index": 206}, "uniqueid": "MTK2590:3JCG6DTRV4XGSQVA7UNYQ725YP6QQI", "dateTime": 1519084440416}, {"current_trial": 207, "trialdata": {"rt": -1000, "trial_type": "single-audio", "word": "dancer", "stimulus": "/static/audio/wordpool/DANCER.wav", "conditions": [12, 800, "a", 24000], "internal_node_id": "0.0-144.0", "trial": 6, "time_elapsed": 1403421, "serialpos": 6, "key_press": -1, "wordID": 436, "type": "PRES_AUD", "trial_index": 207}, "uniqueid": "MTK2590:3JCG6DTRV4XGSQVA7UNYQ725YP6QQI", "dateTime": 1519084442200}, {"current_trial": 208, "trialdata": {"rt": -1000, "trial_type": "single-audio", "word": "trout", "stimulus": "/static/audio/wordpool/TROUT.wav", "conditions": [12, 800, "a", 24000], "internal_node_id": "0.0-145.0", "trial": 6, "time_elapsed": 1405140, "serialpos": 7, "key_press": -1, "wordID": 1510, "type": "PRES_AUD", "trial_index": 208}, "uniqueid": "MTK2590:3JCG6DTRV4XGSQVA7UNYQ725YP6QQI", "dateTime": 1519084443921}, {"current_trial": 209, "trialdata": {"rt": -1000, "trial_type": "single-audio", "word": "fox", "stimulus": "/static/audio/wordpool/FOX.wav", "conditions": [12, 800, "a", 24000], "internal_node_id": "0.0-146.0", "trial": 6, "time_elapsed": 1406768, "serialpos": 8, "key_press": -1, "wordID": 597, "type": "PRES_AUD", "trial_index": 209}, "uniqueid": "MTK2590:3JCG6DTRV4XGSQVA7UNYQ725YP6QQI", "dateTime": 1519084445548}, {"current_trial": 210, "trialdata": {"rt": -1000, "trial_type": "single-audio", "word": "robin", "stimulus": "/static/audio/wordpool/ROBIN.wav", "conditions": [12, 800, "a", 24000], "internal_node_id": "0.0-147.0", "trial": 6, "time_elapsed": 1408549, "serialpos": 9, "key_press": -1, "wordID": 1198, "type": "PRES_AUD", "trial_index": 210}, "uniqueid": "MTK2590:3JCG6DTRV4XGSQVA7UNYQ725YP6QQI", "dateTime": 1519084447329}, {"current_trial": 211, "trialdata": {"rt": -1000, "trial_type": "single-audio", "word": "grape", "stimulus": "/static/audio/wordpool/GRAPE.wav", "conditions": [12, 800, "a", 24000], "internal_node_id": "0.0-148.0", "trial": 6, "time_elapsed": 1410527, "serialpos": 10, "key_press": -1, "wordID": 653, "type": "PRES_AUD", "trial_index": 211}, "uniqueid": "MTK2590:3JCG6DTRV4XGSQVA7UNYQ725YP6QQI", "dateTime": 1519084449306}, {"current_trial": 212, "trialdata": {"rt": -1000, "trial_type": "single-audio", "word": "egypt", "stimulus": "/static/audio/wordpool/EGYPT.wav", "conditions": [12, 800, "a", 24000], "internal_node_id": "0.0-149.0", "trial": 6, "time_elapsed": 1412500, "serialpos": 11, "key_press": -1, "wordID": 518, "type": "PRES_AUD", "trial_index": 212}, "uniqueid": "MTK2590:3JCG6DTRV4XGSQVA7UNYQ725YP6QQI", "dateTime": 1519084451279}, {"current_trial": 213, "trialdata": {"rt": -1, "trial_type": "single-stim", "stimulus": "", "internal_node_id": "0.0-150.0-0.0", "time_elapsed": 1413749, "key_press": -1, "type": "PRE_RECALL_DELAY", "trial_index": 213}, "uniqueid": "MTK2590:3JCG6DTRV4XGSQVA7UNYQ725YP6QQI", "dateTime": 1519084452528}, {"current_trial": 214, "trialdata": {"rt": -1000, "trial_type": "single-audio", "stimulus": "/static/audio/400Hz.wav", "internal_node_id": "0.0-151.0", "time_elapsed": 1414250, "key_press": -1, "type": "PRE_RECALL_ALERT", "trial_index": 214}, "uniqueid": "MTK2590:3JCG6DTRV4XGSQVA7UNYQ725YP6QQI", "dateTime": 1519084453029}, {"current_trial": 215, "trialdata": {"rt": [2926, 4680, 6292, 8056, 13461], "recwords": ["egypt", "grape", "loft", "robin", "brick"], "key_times": [1291, 1591, 2146, 2356, 2543, 2926, 3328, 3565, 3855, 4026, 4211, 4680, 5361, 5583, 5685, 5960, 6292, 6950, 7093, 7259, 7452, 7695, 8056, 12367, 12623, 12832, 12989, 13129, 13461, 21646, 22634], "trial_type": "free-recall", "conditions": [12, 800, "a", 24000], "internal_node_id": "0.0-152.0-0.0", "key_presses": [69, 71, 89, 80, 84, 13, 71, 82, 65, 80, 69, 13, 76, 79, 70, 84, 13, 82, 79, 66, 73, 78, 13, 66, 82, 73, 67, 75, 13, 76, 8], "trial": 6, "time_elapsed": 1474254, "type": "FREE_RECALL", "trial_index": 215}, "uniqueid": "MTK2590:3JCG6DTRV4XGSQVA7UNYQ725YP6QQI", "dateTime": 1519084513035}, {"current_trial": 216, "trialdata": {"rt": 2986, "trial_type": "text", "internal_node_id": "0.0-153.0", "time_elapsed": 1479243, "key_press": 32, "type": "INSTRUCTIONS", "trial_index": 216}, "uniqueid": "MTK2590:3JCG6DTRV4XGSQVA7UNYQ725YP6QQI", "dateTime": 1519084518022}, {"current_trial": 217, "trialdata": {"rt": [7913, 13276, 18819, 20677], "trial_type": "math-distractor", "key_times": [7464, 7707, 7913, 11752, 11973, 12483, 13121, 13276, 18356, 18569, 18819, 20072, 20402, 20677, 23465, 23788], "responses": ["22", "15", "20", "17"], "num2": [5, 2, 8, 5, 9], "num3": [9, 7, 5, 7, 3], "conditions": [24, 1600, "a", 24000], "internal_node_id": "0.0-154.0", "key_presses": [50, 50, 13, 49, 56, 8, 53, 13, 50, 48, 13, 49, 55, 13, 49, 51], "trial": 7, "time_elapsed": 1505247, "type": "DISTRACTOR", "trial_index": 217, "num1": [8, 6, 7, 5, 1]}, "uniqueid": "MTK2590:3JCG6DTRV4XGSQVA7UNYQ725YP6QQI", "dateTime": 1519084544026}, {"current_trial": 218, "trialdata": {"rt": -1, "trial_type": "single-stim", "stimulus": "<p id=\"stim\">10</p>", "internal_node_id": "0.0-155.0-0.0", "time_elapsed": 1508248, "key_press": -1, "trial_index": 218}, "uniqueid": "MTK2590:3JCG6DTRV4XGSQVA7UNYQ725YP6QQI", "dateTime": 1519084547027}, {"current_trial": 219, "trialdata": {"rt": -1, "trial_type": "single-stim", "stimulus": "<p id=\"stim\">9</p>", "internal_node_id": "0.0-155.0-1.0", "time_elapsed": 1509249, "key_press": -1, "trial_index": 219}, "uniqueid": "MTK2590:3JCG6DTRV4XGSQVA7UNYQ725YP6QQI", "dateTime": 1519084548029}, {"current_trial": 220, "trialdata": {"rt": -1, "trial_type": "single-stim", "stimulus": "<p id=\"stim\">8</p>", "internal_node_id": "0.0-155.0-2.0", "time_elapsed": 1510251, "key_press": -1, "trial_index": 220}, "uniqueid": "MTK2590:3JCG6DTRV4XGSQVA7UNYQ725YP6QQI", "dateTime": 1519084549031}, {"current_trial": 221, "trialdata": {"rt": -1, "trial_type": "single-stim", "stimulus": "<p id=\"stim\">7</p>", "internal_node_id": "0.0-155.0-3.0", "time_elapsed": 1511253, "key_press": -1, "trial_index": 221}, "uniqueid": "MTK2590:3JCG6DTRV4XGSQVA7UNYQ725YP6QQI", "dateTime": 1519084550032}, {"current_trial": 222, "trialdata": {"rt": -1, "trial_type": "single-stim", "stimulus": "<p id=\"stim\">6</p>", "internal_node_id": "0.0-155.0-4.0", "time_elapsed": 1512255, "key_press": -1, "trial_index": 222}, "uniqueid": "MTK2590:3JCG6DTRV4XGSQVA7UNYQ725YP6QQI", "dateTime": 1519084551034}, {"current_trial": 223, "trialdata": {"rt": -1, "trial_type": "single-stim", "stimulus": "<p id=\"stim\">5</p>", "internal_node_id": "0.0-155.0-5.0", "time_elapsed": 1513256, "key_press": -1, "trial_index": 223}, "uniqueid": "MTK2590:3JCG6DTRV4XGSQVA7UNYQ725YP6QQI", "dateTime": 1519084552035}, {"current_trial": 224, "trialdata": {"rt": -1, "trial_type": "single-stim", "stimulus": "<p id=\"stim\">4</p>", "internal_node_id": "0.0-155.0-6.0", "time_elapsed": 1514257, "key_press": -1, "trial_index": 224}, "uniqueid": "MTK2590:3JCG6DTRV4XGSQVA7UNYQ725YP6QQI", "dateTime": 1519084553036}, {"current_trial": 225, "trialdata": {"rt": -1, "trial_type": "single-stim", "stimulus": "<p id=\"stim\">3</p>", "internal_node_id": "0.0-155.0-7.0", "time_elapsed": 1515257, "key_press": -1, "trial_index": 225}, "uniqueid": "MTK2590:3JCG6DTRV4XGSQVA7UNYQ725YP6QQI", "dateTime": 1519084554036}, {"current_trial": 226, "trialdata": {"rt": -1, "trial_type": "single-stim", "stimulus": "<p id=\"stim\">2</p>", "internal_node_id": "0.0-155.0-8.0", "time_elapsed": 1516260, "key_press": -1, "trial_index": 226}, "uniqueid": "MTK2590:3JCG6DTRV4XGSQVA7UNYQ725YP6QQI", "dateTime": 1519084555039}, {"current_trial": 227, "trialdata": {"rt": -1, "trial_type": "single-stim", "stimulus": "<p id=\"stim\">1</p>", "internal_node_id": "0.0-155.0-9.0", "time_elapsed": 1517262, "key_press": -1, "trial_index": 227}, "uniqueid": "MTK2590:3JCG6DTRV4XGSQVA7UNYQ725YP6QQI", "dateTime": 1519084556041}, {"current_trial": 228, "trialdata": {"rt": -1, "trial_type": "single-stim", "stimulus": "<p id=\"stim\">+</p>", "internal_node_id": "0.0-156.0-0.0", "time_elapsed": 1518764, "key_press": -1, "type": "FIXATION", "trial_index": 228}, "uniqueid": "MTK2590:3JCG6DTRV4XGSQVA7UNYQ725YP6QQI", "dateTime": 1519084557543}, {"current_trial": 229, "trialdata": {"rt": -1000, "trial_type": "single-audio", "word": "statue", "stimulus": "/static/audio/wordpool/STATUE.wav", "conditions": [24, 1600, "a", 24000], "internal_node_id": "0.0-157.0", "trial": 7, "time_elapsed": 1521279, "serialpos": 0, "key_press": -1, "wordID": 1373, "type": "PRES_AUD", "trial_index": 229}, "uniqueid": "MTK2590:3JCG6DTRV4XGSQVA7UNYQ725YP6QQI", "dateTime": 1519084560058}, {"current_trial": 230, "trialdata": {"rt": -1000, "trial_type": "single-audio", "word": "package", "stimulus": "/static/audio/wordpool/PACKAGE.wav", "conditions": [24, 1600, "a", 24000], "internal_node_id": "0.0-158.0", "trial": 7, "time_elapsed": 1523928, "serialpos": 1, "key_press": -1, "wordID": 996, "type": "PRES_AUD", "trial_index": 230}, "uniqueid": "MTK2590:3JCG6DTRV4XGSQVA7UNYQ725YP6QQI", "dateTime": 1519084562707}, {"current_trial": 231, "trialdata": {"rt": -1000, "trial_type": "single-audio", "word": "mars", "stimulus": "/static/audio/wordpool/MARS.wav", "conditions": [24, 1600, "a", 24000], "internal_node_id": "0.0-159.0", "trial": 7, "time_elapsed": 1526495, "serialpos": 2, "key_press": -1, "wordID": 872, "type": "PRES_AUD", "trial_index": 231}, "uniqueid": "MTK2590:3JCG6DTRV4XGSQVA7UNYQ725YP6QQI", "dateTime": 1519084565274}, {"current_trial": 232, "trialdata": {"rt": -1000, "trial_type": "single-audio", "word": "tombstone", "stimulus": "/static/audio/wordpool/TOMBSTONE.wav", "conditions": [24, 1600, "a", 24000], "internal_node_id": "0.0-160.0", "trial": 7, "time_elapsed": 1529060, "serialpos": 3, "key_press": -1, "wordID": 1477, "type": "PRES_AUD", "trial_index": 232}, "uniqueid": "MTK2590:3JCG6DTRV4XGSQVA7UNYQ725YP6QQI", "dateTime": 1519084567839}, {"current_trial": 233, "trialdata": {"rt": -1000, "trial_type": "single-audio", "word": "suspect", "stimulus": "/static/audio/wordpool/SUSPECT.wav", "conditions": [24, 1600, "a", 24000], "internal_node_id": "0.0-161.0", "trial": 7, "time_elapsed": 1531524, "serialpos": 4, "key_press": -1, "wordID": 1414, "type": "PRES_AUD", "trial_index": 233}, "uniqueid": "MTK2590:3JCG6DTRV4XGSQVA7UNYQ725YP6QQI", "dateTime": 1519084570303}, {"current_trial": 234, "trialdata": {"rt": -1000, "trial_type": "single-audio", "word": "hiker", "stimulus": "/static/audio/wordpool/HIKER.wav", "conditions": [24, 1600, "a", 24000], "internal_node_id": "0.0-162.0", "trial": 7, "time_elapsed": 1534068, "serialpos": 5, "key_press": -1, "wordID": 707, "type": "PRES_AUD", "trial_index": 234}, "uniqueid": "MTK2590:3JCG6DTRV4XGSQVA7UNYQ725YP6QQI", "dateTime": 1519084572847}, {"current_trial": 235, "trialdata": {"rt": -1000, "trial_type": "single-audio", "word": "climber", "stimulus": "/static/audio/wordpool/CLIMBER.wav", "conditions": [24, 1600, "a", 24000], "internal_node_id": "0.0-163.0", "trial": 7, "time_elapsed": 1536843, "serialpos": 6, "key_press": -1, "wordID": 322, "type": "PRES_AUD", "trial_index": 235}, "uniqueid": "MTK2590:3JCG6DTRV4XGSQVA7UNYQ725YP6QQI", "dateTime": 1519084575622}, {"current_trial": 236, "trialdata": {"rt": -1000, "trial_type": "single-audio", "word": "contract", "stimulus": "/static/audio/wordpool/CONTRACT.wav", "conditions": [24, 1600, "a", 24000], "internal_node_id": "0.0-164.0", "trial": 7, "time_elapsed": 1539411, "serialpos": 7, "key_press": -1, "wordID": 367, "type": "PRES_AUD", "trial_index": 236}, "uniqueid": "MTK2590:3JCG6DTRV4XGSQVA7UNYQ725YP6QQI", "dateTime": 1519084578190}, {"current_trial": 237, "trialdata": {"rt": -1000, "trial_type": "single-audio", "word": "cafe", "stimulus": "/static/audio/wordpool/CAFE.wav", "conditions": [24, 1600, "a", 24000], "internal_node_id": "0.0-165.0", "trial": 7, "time_elapsed": 1541890, "serialpos": 8, "key_press": -1, "wordID": 215, "type": "PRES_AUD", "trial_index": 237}, "uniqueid": "MTK2590:3JCG6DTRV4XGSQVA7UNYQ725YP6QQI", "dateTime": 1519084580670}, {"current_trial": 238, "trialdata": {"rt": -1000, "trial_type": "single-audio", "word": "flipper", "stimulus": "/static/audio/wordpool/FLIPPER.wav", "conditions": [24, 1600, "a", 24000], "internal_node_id": "0.0-166.0", "trial": 7, "time_elapsed": 1544471, "serialpos": 9, "key_press": -1, "wordID": 579, "type": "PRES_AUD", "trial_index": 238}, "uniqueid": "MTK2590:3JCG6DTRV4XGSQVA7UNYQ725YP6QQI", "dateTime": 1519084583250}, {"current_trial": 239, "trialdata": {"rt": -1000, "trial_type": "single-audio", "word": "balloon", "stimulus": "/static/audio/wordpool/BALLOON.wav", "conditions": [24, 1600, "a", 24000], "internal_node_id": "0.0-167.0", "trial": 7, "time_elapsed": 1547063, "serialpos": 10, "key_press": -1, "wordID": 74, "type": "PRES_AUD", "trial_index": 239}, "uniqueid": "MTK2590:3JCG6DTRV4XGSQVA7UNYQ725YP6QQI", "dateTime": 1519084585842}, {"current_trial": 240, "trialdata": {"rt": -1000, "trial_type": "single-audio", "word": "fruit", "stimulus": "/static/audio/wordpool/FRUIT.wav", "conditions": [24, 1600, "a", 24000], "internal_node_id": "0.0-168.0", "trial": 7, "time_elapsed": 1549683, "serialpos": 11, "key_press": -1, "wordID": 609, "type": "PRES_AUD", "trial_index": 240}, "uniqueid": "MTK2590:3JCG6DTRV4XGSQVA7UNYQ725YP6QQI", "dateTime": 1519084588462}, {"current_trial": 241, "trialdata": {"rt": -1000, "trial_type": "single-audio", "word": "space", "stimulus": "/static/audio/wordpool/SPACE.wav", "conditions": [24, 1600, "a", 24000], "internal_node_id": "0.0-169.0", "trial": 7, "time_elapsed": 1552391, "serialpos": 12, "key_press": -1, "wordID": 1344, "type": "PRES_AUD", "trial_index": 241}, "uniqueid": "MTK2590:3JCG6DTRV4XGSQVA7UNYQ725YP6QQI", "dateTime": 1519084591171}, {"current_trial": 242, "trialdata": {"rt": -1000, "trial_type": "single-audio", "word": "husband", "stimulus": "/static/audio/wordpool/HUSBAND.wav", "conditions": [24, 1600, "a", 24000], "internal_node_id": "0.0-170.0", "trial": 7, "time_elapsed": 1555123, "serialpos": 13, "key_press": -1, "wordID": 727, "type": "PRES_AUD", "trial_index": 242}, "uniqueid": "MTK2590:3JCG6DTRV4XGSQVA7UNYQ725YP6QQI", "dateTime": 1519084593902}, {"current_trial": 243, "trialdata": {"rt": -1000, "trial_type": "single-audio", "word": "possum", "stimulus": "/static/audio/wordpool/POSSUM.wav", "conditions": [24, 1600, "a", 24000], "internal_node_id": "0.0-171.0", "trial": 7, "time_elapsed": 1557526, "serialpos": 14, "key_press": -1, "wordID": 1111, "type": "PRES_AUD", "trial_index": 243}, "uniqueid": "MTK2590:3JCG6DTRV4XGSQVA7UNYQ725YP6QQI", "dateTime": 1519084596305}, {"current_trial": 244, "trialdata": {"rt": -1000, "trial_type": "single-audio", "word": "market", "stimulus": "/static/audio/wordpool/MARKET.wav", "conditions": [24, 1600, "a", 24000], "internal_node_id": "0.0-172.0", "trial": 7, "time_elapsed": 1560297, "serialpos": 15, "key_press": -1, "wordID": 870, "type": "PRES_AUD", "trial_index": 244}, "uniqueid": "MTK2590:3JCG6DTRV4XGSQVA7UNYQ725YP6QQI", "dateTime": 1519084599076}, {"current_trial": 245, "trialdata": {"rt": -1000, "trial_type": "single-audio", "word": "sidewalk", "stimulus": "/static/audio/wordpool/SIDEWALK.wav", "conditions": [24, 1600, "a", 24000], "internal_node_id": "0.0-173.0", "trial": 7, "time_elapsed": 1562798, "serialpos": 16, "key_press": -1, "wordID": 1302, "type": "PRES_AUD", "trial_index": 245}, "uniqueid": "MTK2590:3JCG6DTRV4XGSQVA7UNYQ725YP6QQI", "dateTime": 1519084601577}, {"current_trial": 246, "trialdata": {"rt": -1000, "trial_type": "single-audio", "word": "plaza", "stimulus": "/static/audio/wordpool/PLAZA.wav", "conditions": [24, 1600, "a", 24000], "internal_node_id": "0.0-174.0", "trial": 7, "time_elapsed": 1565454, "serialpos": 17, "key_press": -1, "wordID": 1087, "type": "PRES_AUD", "trial_index": 246}, "uniqueid": "MTK2590:3JCG6DTRV4XGSQVA7UNYQ725YP6QQI", "dateTime": 1519084604233}, {"current_trial": 247, "trialdata": {"rt": -1000, "trial_type": "single-audio", "word": "spouse", "stimulus": "/static/audio/wordpool/SPOUSE.wav", "conditions": [24, 1600, "a", 24000], "internal_node_id": "0.0-175.0", "trial": 7, "time_elapsed": 1568036, "serialpos": 18, "key_press": -1, "wordID": 1357, "type": "PRES_AUD", "trial_index": 247}, "uniqueid": "MTK2590:3JCG6DTRV4XGSQVA7UNYQ725YP6QQI", "dateTime": 1519084606815}, {"current_trial": 248, "trialdata": {"rt": -1000, "trial_type": "single-audio", "word": "fleet", "stimulus": "/static/audio/wordpool/FLEET.wav", "conditions": [24, 1600, "a", 24000], "internal_node_id": "0.0-176.0", "trial": 7, "time_elapsed": 1570633, "serialpos": 19, "key_press": -1, "wordID": 577, "type": "PRES_AUD", "trial_index": 248}, "uniqueid": "MTK2590:3JCG6DTRV4XGSQVA7UNYQ725YP6QQI", "dateTime": 1519084609412}, {"current_trial": 249, "trialdata": {"rt": -1000, "trial_type": "single-audio", "word": "report", "stimulus": "/static/audio/wordpool/REPORT.wav", "conditions": [24, 1600, "a", 24000], "internal_node_id": "0.0-177.0", "trial": 7, "time_elapsed": 1573364, "serialpos": 20, "key_press": -1, "wordID": 1183, "type": "PRES_AUD", "trial_index": 249}, "uniqueid": "MTK2590:3JCG6DTRV4XGSQVA7UNYQ725YP6QQI", "dateTime": 1519084612144}, {"current_trial": 250, "trialdata": {"rt": -1000, "trial_type": "single-audio", "word": "witness", "stimulus": "/static/audio/wordpool/WITNESS.wav", "conditions": [24, 1600, "a", 24000], "internal_node_id": "0.0-178.0", "trial": 7, "time_elapsed": 1575791, "serialpos": 21, "key_press": -1, "wordID": 1617, "type": "PRES_AUD", "trial_index": 250}, "uniqueid": "MTK2590:3JCG6DTRV4XGSQVA7UNYQ725YP6QQI", "dateTime": 1519084614570}, {"current_trial": 251, "trialdata": {"rt": -1000, "trial_type": "single-audio", "word": "gravel", "stimulus": "/static/audio/wordpool/GRAVEL.wav", "conditions": [24, 1600, "a", 24000], "internal_node_id": "0.0-179.0", "trial": 7, "time_elapsed": 1578564, "serialpos": 22, "key_press": -1, "wordID": 658, "type": "PRES_AUD", "trial_index": 251}, "uniqueid": "MTK2590:3JCG6DTRV4XGSQVA7UNYQ725YP6QQI", "dateTime": 1519084617343}, {"current_trial": 252, "trialdata": {"rt": -1000, "trial_type": "single-audio", "word": "flask", "stimulus": "/static/audio/wordpool/FLASK.wav", "conditions": [24, 1600, "a", 24000], "internal_node_id": "0.0-180.0", "trial": 7, "time_elapsed": 1581077, "serialpos": 23, "key_press": -1, "wordID": 575, "type": "PRES_AUD", "trial_index": 252}, "uniqueid": "MTK2590:3JCG6DTRV4XGSQVA7UNYQ725YP6QQI", "dateTime": 1519084619856}, {"current_trial": 253, "trialdata": {"rt"