{"assignmentId": "3GU1KF0O4J88O8S6OZBJVDHW87IPB6", "workerId": "MTK2977", "questiondata": {"avail_screen_height": 736, "color_depth": 24, "screen_width": 1280, "pixel_depth": 24, "avail_screen_width": 1280, "screen_height": 768}, "bonus": 0, "hitId": "3FBEFUUYRKCT887FDN7C5IAPA7Q6AJ", "counterbalance": 1600, "useragent": "Mozilla/5.0 (Windows NT 5.1) AppleWebKit/537.36 (KHTML, like Gecko) Chrome/49.0.2623.112 Safari/537.36", "eventdata": [{"eventtype": "initialized", "interval": 0, "value": null, "timestamp": 1519607258988}, {"eventtype": "window_resize", "interval": 0, "value": [1280, 719], "timestamp": 1519607258988}, {"eventtype": "focus", "interval": 20950, "value": "off", "timestamp": 1519607279938}, {"eventtype": "focus", "interval": 28434, "value": "on", "timestamp": 1519607308372}, {"eventtype": "focus", "interval": 20250, "value": "off", "timestamp": 1519607328622}, {"eventtype": "focus", "interval": 17257, "value": "on", "timestamp": 1519607345879}, {"eventtype": "focus", "interval": 10134, "value": "off", "timestamp": 1519607356013}, {"eventtype": "focus", "interval": 9002, "value": "on", "timestamp": 1519607365015}, {"eventtype": "focus", "interval": 4856, "value": "off", "timestamp": 1519607369871}, {"eventtype": "focus", "interval": 25237, "value": "on", "timestamp": 1519607395108}, {"eventtype": "focus", "interval": 59843, "value": "off", "timestamp": 1519607454951}, {"eventtype": "focus", "interval": 4737, "value": "on", "timestamp": 1519607459688}, {"eventtype": "focus", "interval": 120466, "value": "off", "timestamp": 1519607580154}, {"eventtype": "focus", "interval": 4027, "value": "on", "timestamp": 1519607584181}, {"eventtype": "focus", "interval": 2422301, "value": "off", "timestamp": 1519610006482}, {"eventtype": "focus", "interval": 2516, "value": "on", "timestamp": 1519610008998}], "data": [{"current_trial": 0, "trialdata": {"rt": 7198, "trial_type": "text", "internal_node_id": "0.0-0.0", "time_elapsed": 7201, "key_press": 75, "type": "INSTRUCTIONS", "trial_index": 0}, "uniqueid": "MTK2977:3GU1KF0O4J88O8S6OZBJVDHW87IPB6", "dateTime": 1519607267170}, {"current_trial": 1, "trialdata": {"rt": 50748, "trial_type": "text", "internal_node_id": "0.0-1.0", "time_elapsed": 57951, "key_press": 74, "type": "INSTRUCTIONS", "trial_index": 1}, "uniqueid": "MTK2977:3GU1KF0O4J88O8S6OZBJVDHW87IPB6", "dateTime": 1519607317920}, {"current_trial": 2, "trialdata": {"rt": [103920], "trial_type": "audio-test", "responses": ["ocean"], "internal_node_id": "0.0-2.0", "time_elapsed": 161934, "type": "AUDIO_TEST", "trial_index": 2}, "uniqueid": "MTK2977:3GU1KF0O4J88O8S6OZBJVDHW87IPB6", "dateTime": 1519607421904}, {"current_trial": 3, "trialdata": {"rt": [13319], "trial_type": "audio-test", "responses": ["crystal"], "internal_node_id": "0.0-3.0", "time_elapsed": 175308, "type": "AUDIO_TEST", "trial_index": 3}, "uniqueid": "MTK2977:3GU1KF0O4J88O8S6OZBJVDHW87IPB6", "dateTime": 1519607435277}, {"current_trial": 4, "trialdata": {"rt": [16288], "trial_type": "audio-test", "responses": ["spice"], "internal_node_id": "0.0-4.0", "time_elapsed": 191638, "type": "AUDIO_TEST", "trial_index": 4}, "uniqueid": "MTK2977:3GU1KF0O4J88O8S6OZBJVDHW87IPB6", "dateTime": 1519607451607}, {"current_trial": 5, "trialdata": {"rt": 32713, "trial_type": "survey-text", "responses": "{\"Q0\":\"11pm\",\"Q1\":\"7am\",\"Q2\":\"5\"}", "internal_node_id": "0.0-5.0", "time_elapsed": 225111, "type": "SLEEP_SURVEY", "trial_index": 5}, "uniqueid": "MTK2977:3GU1KF0O4J88O8S6OZBJVDHW87IPB6", "dateTime": 1519607485080}, {"current_trial": 6, "trialdata": {"rt": 66423, "trial_type": "text", "internal_node_id": "0.0-6.0", "time_elapsed": 292546, "key_press": 74, "type": "INSTRUCTIONS", "trial_index": 6}, "uniqueid": "MTK2977:3GU1KF0O4J88O8S6OZBJVDHW87IPB6", "dateTime": 1519607552515}, {"current_trial": 7, "trialdata": {"rt": 21377, "trial_type": "text", "internal_node_id": "0.0-7.0", "time_elapsed": 314423, "key_press": 78, "type": "INSTRUCTIONS", "trial_index": 7}, "uniqueid": "MTK2977:3GU1KF0O4J88O8S6OZBJVDHW87IPB6", "dateTime": 1519607574392}, {"current_trial": 8, "trialdata": {"rt": 32200, "trial_type": "text", "internal_node_id": "0.0-8.0", "time_elapsed": 347141, "key_press": 78, "type": "INSTRUCTIONS", "trial_index": 8}, "uniqueid": "MTK2977:3GU1KF0O4J88O8S6OZBJVDHW87IPB6", "dateTime": 1519607607110}, {"current_trial": 9, "trialdata": {"rt": [8082, 12635, 17197], "trial_type": "math-distractor", "key_times": [6038, 6191, 8082, 11989, 12156, 12635, 15837, 16066, 17197], "responses": ["10", "11", "10"], "num2": [6, 2, 3, 8], "num3": [2, 3, 4, 9], "conditions": [18, 1200, "v", 18000], "internal_node_id": "0.0-9.0", "key_presses": [49, 48, 13, 49, 49, 13, 49, 48, 13], "trial": 0, "time_elapsed": 366158, "type": "DISTRACTOR", "trial_index": 9, "num1": [2, 6, 3, 5]}, "uniqueid": "MTK2977:3GU1KF0O4J88O8S6OZBJVDHW87IPB6", "dateTime": 1519607626127}, {"current_trial": 10, "trialdata": {"rt": -1, "trial_type": "single-stim", "stimulus": "<p id=\"stim\">10</p>", "internal_node_id": "0.0-10.0-0.0", "time_elapsed": 369171, "key_press": -1, "trial_index": 10}, "uniqueid": "MTK2977:3GU1KF0O4J88O8S6OZBJVDHW87IPB6", "dateTime": 1519607629140}, {"current_trial": 11, "trialdata": {"rt": -1, "trial_type": "single-stim", "stimulus": "<p id=\"stim\">9</p>", "internal_node_id": "0.0-10.0-1.0", "time_elapsed": 370186, "key_press": -1, "trial_index": 11}, "uniqueid": "MTK2977:3GU1KF0O4J88O8S6OZBJVDHW87IPB6", "dateTime": 1519607630155}, {"current_trial": 12, "trialdata": {"rt": -1, "trial_type": "single-stim", "stimulus": "<p id=\"stim\">8</p>", "internal_node_id": "0.0-10.0-2.0", "time_elapsed": 371186, "key_press": -1, "trial_index": 12}, "uniqueid": "MTK2977:3GU1KF0O4J88O8S6OZBJVDHW87IPB6", "dateTime": 1519607631155}, {"current_trial": 13, "trialdata": {"rt": -1, "trial_type": "single-stim", "stimulus": "<p id=\"stim\">7</p>", "internal_node_id": "0.0-10.0-3.0", "time_elapsed": 372186, "key_press": -1, "trial_index": 13}, "uniqueid": "MTK2977:3GU1KF0O4J88O8S6OZBJVDHW87IPB6", "dateTime": 1519607632155}, {"current_trial": 14, "trialdata": {"rt": -1, "trial_type": "single-stim", "stimulus": "<p id=\"stim\">6</p>", "internal_node_id": "0.0-10.0-4.0", "time_elapsed": 373186, "key_press": -1, "trial_index": 14}, "uniqueid": "MTK2977:3GU1KF0O4J88O8S6OZBJVDHW87IPB6", "dateTime": 1519607633155}, {"current_trial": 15, "trialdata": {"rt": -1, "trial_type": "single-stim", "stimulus": "<p id=\"stim\">5</p>", "internal_node_id": "0.0-10.0-5.0", "time_elapsed": 374186, "key_press": -1, "trial_index": 15}, "uniqueid": "MTK2977:3GU1KF0O4J88O8S6OZBJVDHW87IPB6", "dateTime": 1519607634155}, {"current_trial": 16, "trialdata": {"rt": -1, "trial_type": "single-stim", "stimulus": "<p id=\"stim\">4</p>", "internal_node_id": "0.0-10.0-6.0", "time_elapsed": 375186, "key_press": -1, "trial_index": 16}, "uniqueid": "MTK2977:3GU1KF0O4J88O8S6OZBJVDHW87IPB6", "dateTime": 1519607635155}, {"current_trial": 17, "trialdata": {"rt": -1, "trial_type": "single-stim", "stimulus": "<p id=\"stim\">3</p>", "internal_node_id": "0.0-10.0-7.0", "time_elapsed": 376186, "key_press": -1, "trial_index": 17}, "uniqueid": "MTK2977:3GU1KF0O4J88O8S6OZBJVDHW87IPB6", "dateTime": 1519607636155}, {"current_trial": 18, "trialdata": {"rt": -1, "trial_type": "single-stim", "stimulus": "<p id=\"stim\">2</p>", "internal_node_id": "0.0-10.0-8.0", "time_elapsed": 377186, "key_press": -1, "trial_index": 18}, "uniqueid": "MTK2977:3GU1KF0O4J88O8S6OZBJVDHW87IPB6", "dateTime": 1519607637155}, {"current_trial": 19, "trialdata": {"rt": -1, "trial_type": "single-stim", "stimulus": "<p id=\"stim\">1</p>", "internal_node_id": "0.0-10.0-9.0", "time_elapsed": 378186, "key_press": -1, "trial_index": 19}, "uniqueid": "MTK2977:3GU1KF0O4J88O8S6OZBJVDHW87IPB6", "dateTime": 1519607638155}, {"current_trial": 20, "trialdata": {"rt": -1, "trial_type": "single-stim", "stimulus": "<p id=\"stim\">+</p>", "internal_node_id": "0.0-11.0-0.0", "time_elapsed": 379686, "key_press": -1, "type": "FIXATION", "trial_index": 20}, "uniqueid": "MTK2977:3GU1KF0O4J88O8S6OZBJVDHW87IPB6", "dateTime": 1519607639655}, {"current_trial": 21, "trialdata": {"rt": -1, "trial_type": "single-stim", "word": "box", "stimulus": "<p id=\"stim\">BOX</p>", "conditions": [18, 1200, "v", 18000], "internal_node_id": "0.0-12.0", "trial": 0, "time_elapsed": 380890, "serialpos": 0, "key_press": -1, "wordID": 158, "type": "PRES_VIS", "trial_index": 21}, "uniqueid": "MTK2977:3GU1KF0O4J88O8S6OZBJVDHW87IPB6", "dateTime": 1519607640859}, {"current_trial": 22, "trialdata": {"rt": -1, "trial_type": "single-stim", "word": "female", "stimulus": "<p id=\"stim\">FEMALE</p>", "conditions": [18, 1200, "v", 18000], "internal_node_id": "0.0-13.0", "trial": 0, "time_elapsed": 383046, "serialpos": 1, "key_press": -1, "wordID": 558, "type": "PRES_VIS", "trial_index": 22}, "uniqueid": "MTK2977:3GU1KF0O4J88O8S6OZBJVDHW87IPB6", "dateTime": 1519607643015}, {"current_trial": 23, "trialdata": {"rt": -1, "trial_type": "single-stim", "word": "cod", "stimulus": "<p id=\"stim\">COD</p>", "conditions": [18, 1200, "v", 18000], "internal_node_id": "0.0-14.0", "trial": 0, "time_elapsed": 385185, "serialpos": 2, "key_press": -1, "wordID": 339, "type": "PRES_VIS", "trial_index": 23}, "uniqueid": "MTK2977:3GU1KF0O4J88O8S6OZBJVDHW87IPB6", "dateTime": 1519607645154}, {"current_trial": 24, "trialdata": {"rt": -1, "trial_type": "single-stim", "word": "clothes", "stimulus": "<p id=\"stim\">CLOTHES</p>", "conditions": [18, 1200, "v", 18000], "internal_node_id": "0.0-15.0", "trial": 0, "time_elapsed": 387311, "serialpos": 3, "key_press": -1, "wordID": 326, "type": "PRES_VIS", "trial_index": 24}, "uniqueid": "MTK2977:3GU1KF0O4J88O8S6OZBJVDHW87IPB6", "dateTime": 1519607647280}, {"current_trial": 25, "trialdata": {"rt": -1, "trial_type": "single-stim", "word": "banker", "stimulus": "<p id=\"stim\">BANKER</p>", "conditions": [18, 1200, "v", 18000], "internal_node_id": "0.0-16.0", "trial": 0, "time_elapsed": 389700, "serialpos": 4, "key_press": -1, "wordID": 83, "type": "PRES_VIS", "trial_index": 25}, "uniqueid": "MTK2977:3GU1KF0O4J88O8S6OZBJVDHW87IPB6", "dateTime": 1519607649669}, {"current_trial": 26, "trialdata": {"rt": -1, "trial_type": "single-stim", "word": "cricket", "stimulus": "<p id=\"stim\">CRICKET</p>", "conditions": [18, 1200, "v", 18000], "internal_node_id": "0.0-17.0", "trial": 0, "time_elapsed": 391791, "serialpos": 5, "key_press": -1, "wordID": 407, "type": "PRES_VIS", "trial_index": 26}, "uniqueid": "MTK2977:3GU1KF0O4J88O8S6OZBJVDHW87IPB6", "dateTime": 1519607651760}, {"current_trial": 27, "trialdata": {"rt": -1, "trial_type": "single-stim", "word": "compass", "stimulus": "<p id=\"stim\">COMPASS</p>", "conditions": [18, 1200, "v", 18000], "internal_node_id": "0.0-18.0", "trial": 0, "time_elapsed": 394015, "serialpos": 6, "key_press": -1, "wordID": 357, "type": "PRES_VIS", "trial_index": 27}, "uniqueid": "MTK2977:3GU1KF0O4J88O8S6OZBJVDHW87IPB6", "dateTime": 1519607653984}, {"current_trial": 28, "trialdata": {"rt": -1, "trial_type": "single-stim", "word": "gazelle", "stimulus": "<p id=\"stim\">GAZELLE</p>", "conditions": [18, 1200, "v", 18000], "internal_node_id": "0.0-19.0", "trial": 0, "time_elapsed": 396275, "serialpos": 7, "key_press": -1, "wordID": 627, "type": "PRES_VIS", "trial_index": 28}, "uniqueid": "MTK2977:3GU1KF0O4J88O8S6OZBJVDHW87IPB6", "dateTime": 1519607656244}, {"current_trial": 29, "trialdata": {"rt": -1, "trial_type": "single-stim", "word": "notebook", "stimulus": "<p id=\"stim\">NOTEBOOK</p>", "conditions": [18, 1200, "v", 18000], "internal_node_id": "0.0-20.0", "trial": 0, "time_elapsed": 398577, "serialpos": 8, "key_press": -1, "wordID": 958, "type": "PRES_VIS", "trial_index": 29}, "uniqueid": "MTK2977:3GU1KF0O4J88O8S6OZBJVDHW87IPB6", "dateTime": 1519607658546}, {"current_trial": 30, "trialdata": {"rt": -1, "trial_type": "single-stim", "word": "globe", "stimulus": "<p id=\"stim\">GLOBE</p>", "conditions": [18, 1200, "v", 18000], "internal_node_id": "0.0-21.0", "trial": 0, "time_elapsed": 400715, "serialpos": 9, "key_press": -1, "wordID": 640, "type": "PRES_VIS", "trial_index": 30}, "uniqueid": "MTK2977:3GU1KF0O4J88O8S6OZBJVDHW87IPB6", "dateTime": 1519607660684}, {"current_trial": 31, "trialdata": {"rt": -1, "trial_type": "single-stim", "word": "liver", "stimulus": "<p id=\"stim\">LIVER</p>", "conditions": [18, 1200, "v", 18000], "internal_node_id": "0.0-22.0", "trial": 0, "time_elapsed": 402942, "serialpos": 10, "key_press": -1, "wordID": 832, "type": "PRES_VIS", "trial_index": 31}, "uniqueid": "MTK2977:3GU1KF0O4J88O8S6OZBJVDHW87IPB6", "dateTime": 1519607662911}, {"current_trial": 32, "trialdata": {"rt": -1, "trial_type": "single-stim", "word": "turnip", "stimulus": "<p id=\"stim\">TURNIP</p>", "conditions": [18, 1200, "v", 18000], "internal_node_id": "0.0-23.0", "trial": 0, "time_elapsed": 405064, "serialpos": 11, "key_press": -1, "wordID": 1520, "type": "PRES_VIS", "trial_index": 32}, "uniqueid": "MTK2977:3GU1KF0O4J88O8S6OZBJVDHW87IPB6", "dateTime": 1519607665033}, {"current_trial": 33, "trialdata": {"rt": -1, "trial_type": "single-stim", "word": "flesh", "stimulus": "<p id=\"stim\">FLESH</p>", "conditions": [18, 1200, "v", 18000], "internal_node_id": "0.0-24.0", "trial": 0, "time_elapsed": 407407, "serialpos": 12, "key_press": -1, "wordID": 578, "type": "PRES_VIS", "trial_index": 33}, "uniqueid": "MTK2977:3GU1KF0O4J88O8S6OZBJVDHW87IPB6", "dateTime": 1519607667376}, {"current_trial": 34, "trialdata": {"rt": -1, "trial_type": "single-stim", "word": "tortoise", "stimulus": "<p id=\"stim\">TORTOISE</p>", "conditions": [18, 1200, "v", 18000], "internal_node_id": "0.0-25.0", "trial": 0, "time_elapsed": 409437, "serialpos": 13, "key_press": -1, "wordID": 1485, "type": "PRES_VIS", "trial_index": 34}, "uniqueid": "MTK2977:3GU1KF0O4J88O8S6OZBJVDHW87IPB6", "dateTime": 1519607669406}, {"current_trial": 35, "trialdata": {"rt": -1, "trial_type": "single-stim", "word": "snack", "stimulus": "<p id=\"stim\">SNACK</p>", "conditions": [18, 1200, "v", 18000], "internal_node_id": "0.0-26.0", "trial": 0, "time_elapsed": 411778, "serialpos": 14, "key_press": -1, "wordID": 1330, "type": "PRES_VIS", "trial_index": 35}, "uniqueid": "MTK2977:3GU1KF0O4J88O8S6OZBJVDHW87IPB6", "dateTime": 1519607671747}, {"current_trial": 36, "trialdata": {"rt": -1, "trial_type": "single-stim", "word": "pebble", "stimulus": "<p id=\"stim\">PEBBLE</p>", "conditions": [18, 1200, "v", 18000], "internal_node_id": "0.0-27.0", "trial": 0, "time_elapsed": 414017, "serialpos": 15, "key_press": -1, "wordID": 1034, "type": "PRES_VIS", "trial_index": 36}, "uniqueid": "MTK2977:3GU1KF0O4J88O8S6OZBJVDHW87IPB6", "dateTime": 1519607673986}, {"current_trial": 37, "trialdata": {"rt": -1, "trial_type": "single-stim", "word": "pork", "stimulus": "<p id=\"stim\">PORK</p>", "conditions": [18, 1200, "v", 18000], "internal_node_id": "0.0-28.0", "trial": 0, "time_elapsed": 416096, "serialpos": 16, "key_press": -1, "wordID": 1107, "type": "PRES_VIS", "trial_index": 37}, "uniqueid": "MTK2977:3GU1KF0O4J88O8S6OZBJVDHW87IPB6", "dateTime": 1519607676065}, {"current_trial": 38, "trialdata": {"rt": -1, "trial_type": "single-stim", "word": "crater", "stimulus": "<p id=\"stim\">CRATER</p>", "conditions": [18, 1200, "v", 18000], "internal_node_id": "0.0-29.0", "trial": 0, "time_elapsed": 418156, "serialpos": 17, "key_press": -1, "wordID": 399, "type": "PRES_VIS", "trial_index": 38}, "uniqueid": "MTK2977:3GU1KF0O4J88O8S6OZBJVDHW87IPB6", "dateTime": 1519607678125}, {"current_trial": 39, "trialdata": {"rt": -1, "trial_type": "single-stim", "stimulus": "", "internal_node_id": "0.0-30.0-0.0", "time_elapsed": 420250, "key_press": -1, "type": "PRE_RECALL_DELAY", "trial_index": 39}, "uniqueid": "MTK2977:3GU1KF0O4J88O8S6OZBJVDHW87IPB6", "dateTime": 1519607680219}, {"current_trial": 40, "trialdata": {"rt": -1000, "trial_type": "single-audio", "stimulus": "/static/audio/400Hz.wav", "internal_node_id": "0.0-31.0", "time_elapsed": 420766, "key_press": -1, "type": "PRE_RECALL_ALERT", "trial_index": 40}, "uniqueid": "MTK2977:3GU1KF0O4J88O8S6OZBJVDHW87IPB6", "dateTime": 1519607680735}, {"current_trial": 41, "trialdata": {"rt": [3421, 6329, 9454, 12117, 21095, 24940, 28710, 31665, 54937], "recwords": ["box", "cod", "liver", "female", "tortious", "gazelle", "turnip", "crater", "compass"], "key_times": [1964, 2452, 2833, 3421, 5248, 5595, 5870, 6329, 7450, 7692, 8505, 8726, 8851, 9454, 10646, 10826, 10981, 11143, 11311, 11477, 12117, 13388, 13533, 13712, 14002, 15120, 16513, 16909, 17046, 18266, 18474, 18674, 19690, 19970, 20145, 21095, 22956, 23098, 23767, 24039, 24432, 24560, 24726, 24940, 26772, 27101, 27297, 27773, 28072, 28218, 28710, 30214, 30444, 30610, 30839, 30949, 31031, 31665, 53443, 53813, 54009, 54226, 54392, 54494, 54670, 54937], "trial_type": "free-recall", "conditions": [18, 1200, "v", 18000], "internal_node_id": "0.0-32.0-0.0", "key_presses": [66, 79, 88, 13, 67, 79, 68, 13, 76, 73, 86, 69, 82, 13, 70, 69, 77, 65, 76, 69, 13, 84, 79, 82, 84, 73, 85, 83, 69, 8, 8, 8, 79, 85, 83, 13, 71, 65, 90, 69, 76, 76, 69, 13, 84, 85, 82, 78, 73, 80, 13, 67, 82, 65, 84, 69, 82, 13, 67, 79, 77, 80, 65, 83, 83, 13], "trial": 0, "time_elapsed": 480778, "type": "FREE_RECALL", "trial_index": 41}, "uniqueid": "MTK2977:3GU1KF0O4J88O8S6OZBJVDHW87IPB6", "dateTime": 1519607740747}, {"current_trial": 42, "trialdata": {"rt": 2062, "trial_type": "text", "internal_node_id": "0.0-33.0", "time_elapsed": 484855, "key_press": 32, "type": "INSTRUCTIONS", "trial_index": 42}, "uniqueid": "MTK2977:3GU1KF0O4J88O8S6OZBJVDHW87IPB6", "dateTime": 1519607744824}, {"current_trial": 43, "trialdata": {"rt": [5141, 7859, 10567, 13101, 15413], "trial_type": "math-distractor", "key_times": [4006, 4110, 5141, 7027, 7517, 7859, 9903, 10155, 10567, 12552, 12748, 13101, 15026, 15188, 15413, 17716], "responses": ["12", "15", "13", "13", "11"], "num2": [7, 1, 8, 5, 5, 3], "num3": [1, 9, 4, 6, 3, 4], "conditions": [18, 1200, "v", 18000], "internal_node_id": "0.0-34.0", "key_presses": [49, 50, 13, 49, 53, 13, 49, 51, 13, 49, 51, 13, 49, 49, 13, 49], "trial": 1, "time_elapsed": 504882, "type": "DISTRACTOR", "trial_index": 43, "num1": [4, 5, 1, 2, 3, 8]}, "uniqueid": "MTK2977:3GU1KF0O4J88O8S6OZBJVDHW87IPB6", "dateTime": 1519607764851}, {"current_trial": 44, "trialdata": {"rt": -1, "trial_type": "single-stim", "stimulus": "<p id=\"stim\">10</p>", "internal_node_id": "0.0-35.0-0.0", "time_elapsed": 507889, "key_press": -1, "trial_index": 44}, "uniqueid": "MTK2977:3GU1KF0O4J88O8S6OZBJVDHW87IPB6", "dateTime": 1519607767858}, {"current_trial": 45, "trialdata": {"rt": -1, "trial_type": "single-stim", "stimulus": "<p id=\"stim\">9</p>", "internal_node_id": "0.0-35.0-1.0", "time_elapsed": 508903, "key_press": -1, "trial_index": 45}, "uniqueid": "MTK2977:3GU1KF0O4J88O8S6OZBJVDHW87IPB6", "dateTime": 1519607768872}, {"current_trial": 46, "trialdata": {"rt": -1, "trial_type": "single-stim", "stimulus": "<p id=\"stim\">8</p>", "internal_node_id": "0.0-35.0-2.0", "time_elapsed": 509904, "key_press": -1, "trial_index": 46}, "uniqueid": "MTK2977:3GU1KF0O4J88O8S6OZBJVDHW87IPB6", "dateTime": 1519607769873}, {"current_trial": 47, "trialdata": {"rt": -1, "trial_type": "single-stim", "stimulus": "<p id=\"stim\">7</p>", "internal_node_id": "0.0-35.0-3.0", "time_elapsed": 510904, "key_press": -1, "trial_index": 47}, "uniqueid": "MTK2977:3GU1KF0O4J88O8S6OZBJVDHW87IPB6", "dateTime": 1519607770873}, {"current_trial": 48, "trialdata": {"rt": -1, "trial_type": "single-stim", "stimulus": "<p id=\"stim\">6</p>", "internal_node_id": "0.0-35.0-4.0", "time_elapsed": 511904, "key_press": -1, "trial_index": 48}, "uniqueid": "MTK2977:3GU1KF0O4J88O8S6OZBJVDHW87IPB6", "dateTime": 1519607771873}, {"current_trial": 49, "trialdata": {"rt": -1, "trial_type": "single-stim", "stimulus": "<p id=\"stim\">5</p>", "internal_node_id": "0.0-35.0-5.0", "time_elapsed": 512904, "key_press": -1, "trial_index": 49}, "uniqueid": "MTK2977:3GU1KF0O4J88O8S6OZBJVDHW87IPB6", "dateTime": 1519607772873}, {"current_trial": 50, "trialdata": {"rt": -1, "trial_type": "single-stim", "stimulus": "<p id=\"stim\">4</p>", "internal_node_id": "0.0-35.0-6.0", "time_elapsed": 513904, "key_press": -1, "trial_index": 50}, "uniqueid": "MTK2977:3GU1KF0O4J88O8S6OZBJVDHW87IPB6", "dateTime": 1519607773873}, {"current_trial": 51, "trialdata": {"rt": -1, "trial_type": "single-stim", "stimulus": "<p id=\"stim\">3</p>", "internal_node_id": "0.0-35.0-7.0", "time_elapsed": 514904, "key_press": -1, "trial_index": 51}, "uniqueid": "MTK2977:3GU1KF0O4J88O8S6OZBJVDHW87IPB6", "dateTime": 1519607774873}, {"current_trial": 52, "trialdata": {"rt": -1, "trial_type": "single-stim", "stimulus": "<p id=\"stim\">2</p>", "internal_node_id": "0.0-35.0-8.0", "time_elapsed": 515938, "key_press": -1, "trial_index": 52}, "uniqueid": "MTK2977:3GU1KF0O4J88O8S6OZBJVDHW87IPB6", "dateTime": 1519607775907}, {"current_trial": 53, "trialdata": {"rt": -1, "trial_type": "single-stim", "stimulus": "<p id=\"stim\">1</p>", "internal_node_id": "0.0-35.0-9.0", "time_elapsed": 516947, "key_press": -1, "trial_index": 53}, "uniqueid": "MTK2977:3GU1KF0O4J88O8S6OZBJVDHW87IPB6", "dateTime": 1519607776916}, {"current_trial": 54, "trialdata": {"rt": -1, "trial_type": "single-stim", "stimulus": "<p id=\"stim\">+</p>", "internal_node_id": "0.0-36.0-0.0", "time_elapsed": 518448, "key_press": -1, "type": "FIXATION", "trial_index": 54}, "uniqueid": "MTK2977:3GU1KF0O4J88O8S6OZBJVDHW87IPB6", "dateTime": 1519607778417}, {"current_trial": 55, "trialdata": {"rt": -1, "trial_type": "single-stim", "word": "outdoors", "stimulus": "<p id=\"stim\">OUTDOORS</p>", "conditions": [18, 1200, "v", 18000], "internal_node_id": "0.0-37.0", "trial": 1, "time_elapsed": 519651, "serialpos": 0, "key_press": -1, "wordID": 986, "type": "PRES_VIS", "trial_index": 55}, "uniqueid": "MTK2977:3GU1KF0O4J88O8S6OZBJVDHW87IPB6", "dateTime": 1519607779620}, {"current_trial": 56, "trialdata": {"rt": -1, "trial_type": "single-stim", "word": "cross", "stimulus": "<p id=\"stim\">CROSS</p>", "conditions": [18, 1200, "v", 18000], "internal_node_id": "0.0-38.0", "trial": 1, "time_elapsed": 521771, "serialpos": 1, "key_press": -1, "wordID": 412, "type": "PRES_VIS", "trial_index": 56}, "uniqueid": "MTK2977:3GU1KF0O4J88O8S6OZBJVDHW87IPB6", "dateTime": 1519607781740}, {"current_trial": 57, "trialdata": {"rt": -1, "trial_type": "single-stim", "word": "tractor", "stimulus": "<p id=\"stim\">TRACTOR</p>", "conditions": [18, 1200, "v", 18000], "internal_node_id": "0.0-39.0", "trial": 1, "time_elapsed": 524017, "serialpos": 2, "key_press": -1, "wordID": 1492, "type": "PRES_VIS", "trial_index": 57}, "uniqueid": "MTK2977:3GU1KF0O4J88O8S6OZBJVDHW87IPB6", "dateTime": 1519607783986}, {"current_trial": 58, "trialdata": {"rt": -1, "trial_type": "single-stim", "word": "novel", "stimulus": "<p id=\"stim\">NOVEL</p>", "conditions": [18, 1200, "v", 18000], "internal_node_id": "0.0-40.0", "trial": 1, "time_elapsed": 526157, "serialpos": 3, "key_press": -1, "wordID": 959, "type": "PRES_VIS", "trial_index": 58}, "uniqueid": "MTK2977:3GU1KF0O4J88O8S6OZBJVDHW87IPB6", "dateTime": 1519607786126}, {"current_trial": 59, "trialdata": {"rt": -1, "trial_type": "single-stim", "word": "honey", "stimulus": "<p id=\"stim\">HONEY</p>", "conditions": [18, 1200, "v", 18000], "internal_node_id": "0.0-41.0", "trial": 1, "time_elapsed": 528261, "serialpos": 4, "key_press": -1, "wordID": 712, "type": "PRES_VIS", "trial_index": 59}, "uniqueid": "MTK2977:3GU1KF0O4J88O8S6OZBJVDHW87IPB6", "dateTime": 1519607788230}, {"current_trial": 60, "trialdata": {"rt": -1, "trial_type": "single-stim", "word": "ketchup", "stimulus": "<p id=\"stim\">KETCHUP</p>", "conditions": [18, 1200, "v", 18000], "internal_node_id": "0.0-42.0", "trial": 1, "time_elapsed": 530391, "serialpos": 5, "key_press": -1, "wordID": 770, "type": "PRES_VIS", "trial_index": 60}, "uniqueid": "MTK2977:3GU1KF0O4J88O8S6OZBJVDHW87IPB6", "dateTime": 1519607790360}, {"current_trial": 61, "trialdata": {"rt": -1, "trial_type": "single-stim", "word": "pimple", "stimulus": "<p id=\"stim\">PIMPLE</p>", "conditions": [18, 1200, "v", 18000], "internal_node_id": "0.0-43.0", "trial": 1, "time_elapsed": 532640, "serialpos": 6, "key_press": -1, "wordID": 1070, "type": "PRES_VIS", "trial_index": 61}, "uniqueid": "MTK2977:3GU1KF0O4J88O8S6OZBJVDHW87IPB6", "dateTime": 1519607792609}, {"current_trial": 62, "trialdata": {"rt": -1, "trial_type": "single-stim", "word": "trombone", "stimulus": "<p id=\"stim\">TROMBONE</p>", "conditions": [18, 1200, "v", 18000], "internal_node_id": "0.0-44.0", "trial": 1, "time_elapsed": 534828, "serialpos": 7, "key_press": -1, "wordID": 1507, "type": "PRES_VIS", "trial_index": 62}, "uniqueid": "MTK2977:3GU1KF0O4J88O8S6OZBJVDHW87IPB6", "dateTime": 1519607794797}, {"current_trial": 63, "trialdata": {"rt": -1, "trial_type": "single-stim", "word": "carriage", "stimulus": "<p id=\"stim\">CARRIAGE</p>", "conditions": [18, 1200, "v", 18000], "internal_node_id": "0.0-45.0", "trial": 1, "time_elapsed": 537201, "serialpos": 8, "key_press": -1, "wordID": 247, "type": "PRES_VIS", "trial_index": 63}, "uniqueid": "MTK2977:3GU1KF0O4J88O8S6OZBJVDHW87IPB6", "dateTime": 1519607797170}, {"current_trial": 64, "trialdata": {"rt": -1, "trial_type": "single-stim", "word": "football", "stimulus": "<p id=\"stim\">FOOTBALL</p>", "conditions": [18, 1200, "v", 18000], "internal_node_id": "0.0-46.0", "trial": 1, "time_elapsed": 539578, "serialpos": 9, "key_press": -1, "wordID": 590, "type": "PRES_VIS", "trial_index": 64}, "uniqueid": "MTK2977:3GU1KF0O4J88O8S6OZBJVDHW87IPB6", "dateTime": 1519607799547}, {"current_trial": 65, "trialdata": {"rt": -1, "trial_type": "single-stim", "word": "eyelash", "stimulus": "<p id=\"stim\">EYELASH</p>", "conditions": [18, 1200, "v", 18000], "internal_node_id": "0.0-47.0", "trial": 1, "time_elapsed": 541625, "serialpos": 10, "key_press": -1, "wordID": 545, "type": "PRES_VIS", "trial_index": 65}, "uniqueid": "MTK2977:3GU1KF0O4J88O8S6OZBJVDHW87IPB6", "dateTime": 1519607801594}, {"current_trial": 66, "trialdata": {"rt": -1, "trial_type": "single-stim", "word": "world", "stimulus": "<p id=\"stim\">WORLD</p>", "conditions": [18, 1200, "v", 18000], "internal_node_id": "0.0-48.0", "trial": 1, "time_elapsed": 543843, "serialpos": 11, "key_press": -1, "wordID": 1621, "type": "PRES_VIS", "trial_index": 66}, "uniqueid": "MTK2977:3GU1KF0O4J88O8S6OZBJVDHW87IPB6", "dateTime": 1519607803812}, {"current_trial": 67, "trialdata": {"rt": -1, "trial_type": "single-stim", "word": "drill", "stimulus": "<p id=\"stim\">DRILL</p>", "conditions": [18, 1200, "v", 18000], "internal_node_id": "0.0-49.0", "trial": 1, "time_elapsed": 545875, "serialpos": 12, "key_press": -1, "wordID": 496, "type": "PRES_VIS", "trial_index": 67}, "uniqueid": "MTK2977:3GU1KF0O4J88O8S6OZBJVDHW87IPB6", "dateTime": 1519607805844}, {"current_trial": 68, "trialdata": {"rt": -1, "trial_type": "single-stim", "word": "guard", "stimulus": "<p id=\"stim\">GUARD</p>", "conditions": [18, 1200, "v", 18000], "internal_node_id": "0.0-50.0", "trial": 1, "time_elapsed": 548106, "serialpos": 13, "key_press": -1, "wordID": 666, "type": "PRES_VIS", "trial_index": 68}, "uniqueid": "MTK2977:3GU1KF0O4J88O8S6OZBJVDHW87IPB6", "dateTime": 1519607808075}, {"current_trial": 69, "trialdata": {"rt": -1, "trial_type": "single-stim", "word": "pocket", "stimulus": "<p id=\"stim\">POCKET</p>", "conditions": [18, 1200, "v", 18000], "internal_node_id": "0.0-51.0", "trial": 1, "time_elapsed": 550260, "serialpos": 14, "key_press": -1, "wordID": 1092, "type": "PRES_VIS", "trial_index": 69}, "uniqueid": "MTK2977:3GU1KF0O4J88O8S6OZBJVDHW87IPB6", "dateTime": 1519607810229}, {"current_trial": 70, "trialdata": {"rt": -1, "trial_type": "single-stim", "word": "donor", "stimulus": "<p id=\"stim\">DONOR</p>", "conditions": [18, 1200, "v", 18000], "internal_node_id": "0.0-52.0", "trial": 1, "time_elapsed": 552495, "serialpos": 15, "key_press": -1, "wordID": 484, "type": "PRES_VIS", "trial_index": 70}, "uniqueid": "MTK2977:3GU1KF0O4J88O8S6OZBJVDHW87IPB6", "dateTime": 1519607812464}, {"current_trial": 71, "trialdata": {"rt": -1, "trial_type": "single-stim", "word": "creature", "stimulus": "<p id=\"stim\">CREATURE</p>", "conditions": [18, 1200, "v", 18000], "internal_node_id": "0.0-53.0", "trial": 1, "time_elapsed": 554557, "serialpos": 16, "key_press": -1, "wordID": 402, "type": "PRES_VIS", "trial_index": 71}, "uniqueid": "MTK2977:3GU1KF0O4J88O8S6OZBJVDHW87IPB6", "dateTime": 1519607814526}, {"current_trial": 72, "trialdata": {"rt": -1, "trial_type": "single-stim", "word": "drug", "stimulus": "<p id=\"stim\">DRUG</p>", "conditions": [18, 1200, "v", 18000], "internal_node_id": "0.0-54.0", "trial": 1, "time_elapsed": 556843, "serialpos": 17, "key_press": -1, "wordID": 500, "type": "PRES_VIS", "trial_index": 72}, "uniqueid": "MTK2977:3GU1KF0O4J88O8S6OZBJVDHW87IPB6", "dateTime": 1519607816812}, {"current_trial": 73, "trialdata": {"rt": -1, "trial_type": "single-stim", "stimulus": "", "internal_node_id": "0.0-55.0-0.0", "time_elapsed": 558938, "key_press": -1, "type": "PRE_RECALL_DELAY", "trial_index": 73}, "uniqueid": "MTK2977:3GU1KF0O4J88O8S6OZBJVDHW87IPB6", "dateTime": 1519607818908}, {"current_trial": 74, "trialdata": {"rt": -1000, "trial_type": "single-audio", "stimulus": "/static/audio/400Hz.wav", "internal_node_id": "0.0-56.0", "time_elapsed": 559446, "key_press": -1, "type": "PRE_RECALL_ALERT", "trial_index": 74}, "uniqueid": "MTK2977:3GU1KF0O4J88O8S6OZBJVDHW87IPB6", "dateTime": 1519607819415}, {"current_trial": 75, "trialdata": {"rt": [3602, 6881, 16694, 21677, 24973, 37197, 56682], "recwords": ["drug", "creature", "outdoor", "pimple", "cross", "trombone", "honey"], "key_times": [1498, 1728, 2243, 2902, 3602, 4627, 4923, 5111, 5200, 5455, 5743, 5870, 5966, 6881, 14829, 15137, 15494, 15816, 16140, 16283, 16429, 16694, 20235, 20425, 20725, 21102, 21184, 21361, 21677, 23929, 24184, 24421, 24642, 24776, 24973, 33466, 33597, 33915, 34250, 35528, 35864, 36101, 36337, 37197, 54746, 55034, 55595, 55805, 56067, 56682, 58049, 58224, 58467, 58768, 59002, 59159, 59743], "trial_type": "free-recall", "conditions": [18, 1200, "v", 18000], "internal_node_id": "0.0-57.0-0.0", "key_presses": [68, 82, 85, 71, 13, 67, 82, 69, 65, 84, 85, 82, 69, 13, 79, 85, 84, 68, 79, 79, 82, 13, 80, 73, 77, 80, 76, 69, 13, 67, 82, 79, 83, 83, 13, 84, 82, 79, 77, 66, 79, 78, 69, 13, 72, 79, 78, 69, 89, 13, 75, 69, 84, 67, 72, 85, 80], "trial": 1, "time_elapsed": 619464, "type": "FREE_RECALL", "trial_index": 75}, "uniqueid": "MTK2977:3GU1KF0O4J88O8S6OZBJVDHW87IPB6", "dateTime": 1519607879433}, {"current_trial": 76, "trialdata": {"rt": 6937, "trial_type": "text", "internal_node_id": "0.0-58.0", "time_elapsed": 628415, "key_press": 32, "type": "INSTRUCTIONS", "trial_index": 76}, "uniqueid": "MTK2977:3GU1KF0O4J88O8S6OZBJVDHW87IPB6", "dateTime": 1519607888384}, {"current_trial": 77, "trialdata": {"rt": [4921, 8023, 11001], "trial_type": "math-distractor", "key_times": [4186, 4385, 4921, 7316, 7654, 8023, 10655, 10728, 11001], "responses": ["23", "15", "12"], "num2": [7, 8, 7, 7], "num3": [9, 3, 4, 1], "conditions": [24, 800, "v", 12000], "internal_node_id": "0.0-59.0", "key_presses": [50, 51, 13, 49, 53, 13, 49, 50, 13], "trial": 2, "time_elapsed": 641435, "type": "DISTRACTOR", "trial_index": 77, "num1": [7, 4, 1, 9]}, "uniqueid": "MTK2977:3GU1KF0O4J88O8S6OZBJVDHW87IPB6", "dateTime": 1519607901404}, {"current_trial": 78, "trialdata": {"rt": -1, "trial_type": "single-stim", "stimulus": "<p id=\"stim\">10</p>", "internal_node_id": "0.0-60.0-0.0", "time_elapsed": 644451, "key_press": -1, "trial_index": 78}, "uniqueid": "MTK2977:3GU1KF0O4J88O8S6OZBJVDHW87IPB6", "dateTime": 1519607904420}, {"current_trial": 79, "trialdata": {"rt": -1, "trial_type": "single-stim", "stimulus": "<p id=\"stim\">9</p>", "internal_node_id": "0.0-60.0-1.0", "time_elapsed": 645453, "key_press": -1, "trial_index": 79}, "uniqueid": "MTK2977:3GU1KF0O4J88O8S6OZBJVDHW87IPB6", "dateTime": 1519607905422}, {"current_trial": 80, "trialdata": {"rt": -1, "trial_type": "single-stim", "stimulus": "<p id=\"stim\">8</p>", "internal_node_id": "0.0-60.0-2.0", "time_elapsed": 646467, "key_press": -1, "trial_index": 80}, "uniqueid": "MTK2977:3GU1KF0O4J88O8S6OZBJVDHW87IPB6", "dateTime": 1519607906436}, {"current_trial": 81, "trialdata": {"rt": -1, "trial_type": "single-stim", "stimulus": "<p id=\"stim\">7</p>", "internal_node_id": "0.0-60.0-3.0", "time_elapsed": 647482, "key_press": -1, "trial_index": 81}, "uniqueid": "MTK2977:3GU1KF0O4J88O8S6OZBJVDHW87IPB6", "dateTime": 1519607907451}, {"current_trial": 82, "trialdata": {"rt": -1, "trial_type": "single-stim", "stimulus": "<p id=\"stim\">6</p>", "internal_node_id": "0.0-60.0-4.0", "time_elapsed": 648498, "key_press": -1, "trial_index": 82}, "uniqueid": "MTK2977:3GU1KF0O4J88O8S6OZBJVDHW87IPB6", "dateTime": 1519607908467}, {"current_trial": 83, "trialdata": {"rt": -1, "trial_type": "single-stim", "stimulus": "<p id=\"stim\">5</p>", "internal_node_id": "0.0-60.0-5.0", "time_elapsed": 649513, "key_press": -1, "trial_index": 83}, "uniqueid": "MTK2977:3GU1KF0O4J88O8S6OZBJVDHW87IPB6", "dateTime": 1519607909482}, {"current_trial": 84, "trialdata": {"rt": -1, "trial_type": "single-stim", "stimulus": "<p id=\"stim\">4</p>", "internal_node_id": "0.0-60.0-6.0", "time_elapsed": 650515, "key_press": -1, "trial_index": 84}, "uniqueid": "MTK2977:3GU1KF0O4J88O8S6OZBJVDHW87IPB6", "dateTime": 1519607910484}, {"current_trial": 85, "trialdata": {"rt": -1, "trial_type": "single-stim", "stimulus": "<p id=\"stim\">3</p>", "internal_node_id": "0.0-60.0-7.0", "time_elapsed": 651515, "key_press": -1, "trial_index": 85}, "uniqueid": "MTK2977:3GU1KF0O4J88O8S6OZBJVDHW87IPB6", "dateTime": 1519607911484}, {"current_trial": 86, "trialdata": {"rt": -1, "trial_type": "single-stim", "stimulus": "<p id=\"stim\">2</p>", "internal_node_id": "0.0-60.0-8.0", "time_elapsed": 652528, "key_press": -1, "trial_index": 86}, "uniqueid": "MTK2977:3GU1KF0O4J88O8S6OZBJVDHW87IPB6", "dateTime": 1519607912497}, {"current_trial": 87, "trialdata": {"rt": -1, "trial_type": "single-stim", "stimulus": "<p id=\"stim\">1</p>", "internal_node_id": "0.0-60.0-9.0", "time_elapsed": 653533, "key_press": -1, "trial_index": 87}, "uniqueid": "MTK2977:3GU1KF0O4J88O8S6OZBJVDHW87IPB6", "dateTime": 1519607913502}, {"current_trial": 88, "trialdata": {"rt": -1, "trial_type": "single-stim", "stimulus": "<p id=\"stim\">+</p>", "internal_node_id": "0.0-61.0-0.0", "time_elapsed": 655045, "key_press": -1, "type": "FIXATION", "trial_index": 88}, "uniqueid": "MTK2977:3GU1KF0O4J88O8S6OZBJVDHW87IPB6", "dateTime": 1519607915014}, {"current_trial": 89, "trialdata": {"rt": -1, "trial_type": "single-stim", "word": "lava", "stimulus": "<p id=\"stim\">LAVA</p>", "conditions": [24, 800, "v", 12000], "internal_node_id": "0.0-62.0", "trial": 2, "time_elapsed": 655849, "serialpos": 0, "key_press": -1, "wordID": 803, "type": "PRES_VIS", "trial_index": 89}, "uniqueid": "MTK2977:3GU1KF0O4J88O8S6OZBJVDHW87IPB6", "dateTime": 1519607915818}, {"current_trial": 90, "trialdata": {"rt": -1, "trial_type": "single-stim", "word": "possum", "stimulus": "<p id=\"stim\">POSSUM</p>", "conditions": [24, 800, "v", 12000], "internal_node_id": "0.0-63.0", "trial": 2, "time_elapsed": 657499, "serialpos": 1, "key_press": -1, "wordID": 1111, "type": "PRES_VIS", "trial_index": 90}, "uniqueid": "MTK2977:3GU1KF0O4J88O8S6OZBJVDHW87IPB6", "dateTime": 1519607917468}, {"current_trial": 91, "trialdata": {"rt": -1, "trial_type": "single-stim", "word": "outfit", "stimulus": "<p id=\"stim\">OUTFIT</p>", "conditions": [24, 800, "v", 12000], "internal_node_id": "0.0-64.0", "trial": 2, "time_elapsed": 659187, "serialpos": 2, "key_press": -1, "wordID": 987, "type": "PRES_VIS", "trial_index": 91}, "uniqueid": "MTK2977:3GU1KF0O4J88O8S6OZBJVDHW87IPB6", "dateTime": 1519607919156}, {"current_trial": 92, "trialdata": {"rt": -1, "trial_type": "single-stim", "word": "lily", "stimulus": "<p id=\"stim\">LILY</p>", "conditions": [24, 800, "v", 12000], "internal_node_id": "0.0-65.0", "trial": 2, "time_elapsed": 661120, "serialpos": 3, "key_press": -1, "wordID": 820, "type": "PRES_VIS", "trial_index": 92}, "uniqueid": "MTK2977:3GU1KF0O4J88O8S6OZBJVDHW87IPB6", "dateTime": 1519607921089}, {"current_trial": 93, "trialdata": {"rt": -1, "trial_type": "single-stim", "word": "slime", "stimulus": "<p id=\"stim\">SLIME</p>", "conditions": [24, 800, "v", 12000], "internal_node_id": "0.0-66.0", "trial": 2, "time_elapsed": 662732, "serialpos": 4, "key_press": -1, "wordID": 1326, "type": "PRES_VIS", "trial_index": 93}, "uniqueid": "MTK2977:3GU1KF0O4J88O8S6OZBJVDHW87IPB6", "dateTime": 1519607922701}, {"current_trial": 94, "trialdata": {"rt": -1, "trial_type": "single-stim", "word": "snake", "stimulus": "<p id=\"stim\">SNAKE</p>", "conditions": [24, 800, "v", 12000], "internal_node_id": "0.0-67.0", "trial": 2, "time_elapsed": 664705, "serialpos": 5, "key_press": -1, "wordID": 1332, "type": "PRES_VIS", "trial_index": 94}, "uniqueid": "MTK2977:3GU1KF0O4J88O8S6OZBJVDHW87IPB6", "dateTime": 1519607924674}, {"current_trial": 95, "trialdata": {"rt": -1, "trial_type": "single-stim", "word": "pizza", "stimulus": "<p id=\"stim\">PIZZA</p>", "conditions": [24, 800, "v", 12000], "internal_node_id": "0.0-68.0", "trial": 2, "time_elapsed": 666673, "serialpos": 6, "key_press": -1, "wordID": 1078, "type": "PRES_VIS", "trial_index": 95}, "uniqueid": "MTK2977:3GU1KF0O4J88O8S6OZBJVDHW87IPB6", "dateTime": 1519607926642}, {"current_trial": 96, "trialdata": {"rt": -1, "trial_type": "single-stim", "word": "diner", "stimulus": "<p id=\"stim\">DINER</p>", "conditions": [24, 800, "v", 12000], "internal_node_id": "0.0-69.0", "trial": 2, "time_elapsed": 668468, "serialpos": 7, "key_press": -1, "wordID": 466, "type": "PRES_VIS", "trial_index": 96}, "uniqueid": "MTK2977:3GU1KF0O4J88O8S6OZBJVDHW87IPB6", "dateTime": 1519607928437}, {"current_trial": 97, "trialdata": {"rt": -1, "trial_type": "single-stim", "word": "igloo", "stimulus": "<p id=\"stim\">IGLOO</p>", "conditions": [24, 800, "v", 12000], "internal_node_id": "0.0-70.0", "trial": 2, "time_elapsed": 670309, "serialpos": 8, "key_press": -1, "wordID": 733, "type": "PRES_VIS", "trial_index": 97}, "uniqueid": "MTK2977:3GU1KF0O4J88O8S6OZBJVDHW87IPB6", "dateTime": 1519607930278}, {"current_trial": 98, "trialdata": {"rt": -1, "trial_type": "single-stim", "word": "queen", "stimulus": "<p id=\"stim\">QUEEN</p>", "conditions": [24, 800, "v", 12000], "internal_node_id": "0.0-71.0", "trial": 2, "time_elapsed": 671968, "serialpos": 9, "key_press": -1, "wordID": 1148, "type": "PRES_VIS", "trial_index": 98}, "uniqueid": "MTK2977:3GU1KF0O4J88O8S6OZBJVDHW87IPB6", "dateTime": 1519607931937}, {"current_trial": 99, "trialdata": {"rt": -1, "trial_type": "single-stim", "word": "husband", "stimulus": "<p id=\"stim\">HUSBAND</p>", "conditions": [24, 800, "v", 12000], "internal_node_id": "0.0-72.0", "trial": 2, "time_elapsed": 673866, "serialpos": 10, "key_press": -1, "wordID": 727, "type": "PRES_VIS", "trial_index": 99}, "uniqueid": "MTK2977:3GU1KF0O4J88O8S6OZBJVDHW87IPB6", "dateTime": 1519607933835}, {"current_trial": 100, "trialdata": {"rt": -1, "trial_type": "single-stim", "word": "dolphin", "stimulus": "<p id=\"stim\">DOLPHIN</p>", "conditions": [24, 800, "v", 12000], "internal_node_id": "0.0-73.0", "trial": 2, "time_elapsed": 675514, "serialpos": 11, "key_press": -1, "wordID": 482, "type": "PRES_VIS", "trial_index": 100}, "uniqueid": "MTK2977:3GU1KF0O4J88O8S6OZBJVDHW87IPB6", "dateTime": 1519607935483}, {"current_trial": 101, "trialdata": {"rt": -1, "trial_type": "single-stim", "word": "hand", "stimulus": "<p id=\"stim\">HAND</p>", "conditions": [24, 800, "v", 12000], "internal_node_id": "0.0-74.0", "trial": 2, "time_elapsed": 677294, "serialpos": 12, "key_press": -1, "wordID": 682, "type": "PRES_VIS", "trial_index": 101}, "uniqueid": "MTK2977:3GU1KF0O4J88O8S6OZBJVDHW87IPB6", "dateTime": 1519607937263}, {"current_trial": 102, "trialdata": {"rt": -1, "trial_type": "single-stim", "word": "velvet", "stimulus": "<p id=\"stim\">VELVET</p>", "conditions": [24, 800, "v", 12000], "internal_node_id": "0.0-75.0", "trial": 2, "time_elapsed": 679278, "serialpos": 13, "key_press": -1, "wordID": 1554, "type": "PRES_VIS", "trial_index": 102}, "uniqueid": "MTK2977:3GU1KF0O4J88O8S6OZBJVDHW87IPB6", "dateTime": 1519607939247}, {"current_trial": 103, "trialdata": {"rt": -1, "trial_type": "single-stim", "word": "nomad", "stimulus": "<p id=\"stim\">NOMAD</p>", "conditions": [24, 800, "v", 12000], "internal_node_id": "0.0-76.0", "trial": 2, "time_elapsed": 681263, "serialpos": 14, "key_press": -1, "wordID": 954, "type": "PRES_VIS", "trial_index": 103}, "uniqueid": "MTK2977:3GU1KF0O4J88O8S6OZBJVDHW87IPB6", "dateTime": 1519607941232}, {"current_trial": 104, "trialdata": {"rt": -1, "trial_type": "single-stim", "word": "umpire", "stimulus": "<p id=\"stim\">UMPIRE</p>", "conditions": [24, 800, "v", 12000], "internal_node_id": "0.0-77.0", "trial": 2, "time_elapsed": 683232, "serialpos": 15, "key_press": -1, "wordID": 1534, "type": "PRES_VIS", "trial_index": 104}, "uniqueid": "MTK2977:3GU1KF0O4J88O8S6OZBJVDHW87IPB6", "dateTime": 1519607943201}, {"current_trial": 105, "trialdata": {"rt": -1, "trial_type": "single-stim", "word": "daughter", "stimulus": "<p id=\"stim\">DAUGHTER</p>", "conditions": [24, 800, "v", 12000], "internal_node_id": "0.0-78.0", "trial": 2, "time_elapsed": 684882, "serialpos": 16, "key_press": -1, "wordID": 441, "type": "PRES_VIS", "trial_index": 105}, "uniqueid": "MTK2977:3GU1KF0O4J88O8S6OZBJVDHW87IPB6", "dateTime": 1519607944851}, {"current_trial": 106, "trialdata": {"rt": -1, "trial_type": "single-stim", "word": "wagon", "stimulus": "<p id=\"stim\">WAGON</p>", "conditions": [24, 800, "v", 12000], "internal_node_id": "0.0-79.0", "trial": 2, "time_elapsed": 686798, "serialpos": 17, "key_press": -1, "wordID": 1577, "type": "PRES_VIS", "trial_index": 106}, "uniqueid": "MTK2977:3GU1KF0O4J88O8S6OZBJVDHW87IPB6", "dateTime": 1519607946767}, {"current_trial": 107, "trialdata": {"rt": -1, "trial_type": "single-stim", "word": "beast", "stimulus": "<p id=\"stim\">BEAST</p>", "conditions": [24, 800, "v", 12000], "internal_node_id": "0.0-80.0", "trial": 2, "time_elapsed": 688782, "serialpos": 18, "key_press": -1, "wordID": 107, "type": "PRES_VIS", "trial_index": 107}, "uniqueid": "MTK2977:3GU1KF0O4J88O8S6OZBJVDHW87IPB6", "dateTime": 1519607948751}, {"current_trial": 108, "trialdata": {"rt": -1, "trial_type": "single-stim", "word": "eagle", "stimulus": "<p id=\"stim\">EAGLE</p>", "conditions": [24, 800, "v", 12000], "internal_node_id": "0.0-81.0", "trial": 2, "time_elapsed": 690622, "serialpos": 19, "key_press": -1, "wordID": 511, "type": "PRES_VIS", "trial_index": 108}, "uniqueid": "MTK2977:3GU1KF0O4J88O8S6OZBJVDHW87IPB6", "dateTime": 1519607950591}, {"current_trial": 109, "trialdata": {"rt": -1, "trial_type": "single-stim", "word": "france", "stimulus": "<p id=\"stim\">FRANCE</p>", "conditions": [24, 800, "v", 12000], "internal_node_id": "0.0-82.0", "trial": 2, "time_elapsed": 692263, "serialpos": 20, "key_press": -1, "wordID": 600, "type": "PRES_VIS", "trial_index": 109}, "uniqueid": "MTK2977:3GU1KF0O4J88O8S6OZBJVDHW87IPB6", "dateTime": 1519607952232}, {"current_trial": 110, "trialdata": {"rt": -1, "trial_type": "single-stim", "word": "london", "stimulus": "<p id=\"stim\">LONDON</p>", "conditions": [24, 800, "v", 12000], "internal_node_id": "0.0-83.0", "trial": 2, "time_elapsed": 694043, "serialpos": 21, "key_press": -1, "wordID": 842, "type": "PRES_VIS", "trial_index": 110}, "uniqueid": "MTK2977:3GU1KF0O4J88O8S6OZBJVDHW87IPB6", "dateTime": 1519607954012}, {"current_trial": 111, "trialdata": {"rt": -1, "trial_type": "single-stim", "word": "widow", "stimulus": "<p id=\"stim\">WIDOW</p>", "conditions": [24, 800, "v", 12000], "internal_node_id": "0.0-84.0", "trial": 2, "time_elapsed": 695832, "serialpos": 22, "key_press": -1, "wordID": 1607, "type": "PRES_VIS", "trial_index": 111}, "uniqueid": "MTK2977:3GU1KF0O4J88O8S6OZBJVDHW87IPB6", "dateTime": 1519607955801}, {"current_trial": 112, "trialdata": {"rt": -1, "trial_type": "single-stim", "word": "headband", "stimulus": "<p id=\"stim\">HEADBAND</p>", "conditions": [24, 800, "v", 12000], "internal_node_id": "0.0-85.0", "trial": 2, "time_elapsed": 697590, "serialpos": 23, "key_press": -1, "wordID": 695, "type": "PRES_VIS", "trial_index": 112}, "uniqueid": "MTK2977:3GU1KF0O4J88O8S6OZBJVDHW87IPB6", "dateTime": 1519607957559}, {"current_trial": 113, "trialdata": {"rt": -1, "trial_type": "single-stim", "stimulus": "", "internal_node_id": "0.0-86.0-0.0", "time_elapsed": 699751, "key_press": -1, "type": "PRE_RECALL_DELAY", "trial_index": 113}, "uniqueid": "MTK2977:3GU1KF0O4J88O8S6OZBJVDHW87IPB6", "dateTime": 1519607959720}, {"current_trial": 114, "trialdata": {"rt": -1000, "trial_type": "single-audio", "stimulus": "/static/audio/400Hz.wav", "internal_node_id": "0.0-87.0", "time_elapsed": 700263, "key_press": -1, "type": "PRE_RECALL_ALERT", "trial_index": 114}, "uniqueid": "MTK2977:3GU1KF0O4J88O8S6OZBJVDHW87IPB6", "dateTime": 1519607960232}, {"current_trial": 115, "trialdata": {"rt": [2469, 5437, 9176, 11887, 14493, 17448, 23933], "recwords": ["france", "london", "headband", "daughter", "lava", "husband", "eagle"], "key_times": [598, 782, 942, 1552, 1718, 1849, 2469, 3518, 3742, 4044, 4328, 4522, 4718, 5437, 6373, 6522, 6610, 6823, 7318, 7445, 8266, 8803, 9176, 10575, 10710, 10900, 11089, 11192, 11342, 11536, 11664, 11887, 13251, 13391, 13981, 14140, 14493, 16042, 16124, 16241, 16774, 16896, 17009, 17107, 17448, 22217, 22342, 22643, 23576, 23742, 23933], "trial_type": "free-recall", "conditions": [24, 800, "v", 12000], "internal_node_id": "0.0-88.0-0.0", "key_presses": [70, 82, 65, 78, 67, 69, 13, 76, 79, 78, 68, 79, 78, 13, 72, 69, 65, 68, 66, 65, 78, 68, 13, 68, 65, 85, 71, 72, 84, 69, 82, 13, 76, 65, 86, 65, 13, 72, 85, 83, 66, 65, 78, 68, 13, 69, 65, 71, 76, 69, 13], "trial": 2, "time_elapsed": 760276, "type": "FREE_RECALL", "trial_index": 115}, "uniqueid": "MTK2977:3GU1KF0O4J88O8S6OZBJVDHW87IPB6", "dateTime": 1519608020260}, {"current_trial": 116, "trialdata": {"rt": 1963, "trial_type": "text", "internal_node_id": "0.0-89.0", "time_elapsed": 764269, "key_press": 32, "type": "INSTRUCTIONS", "trial_index": 116}, "uniqueid": "MTK2977:3GU1KF0O4J88O8S6OZBJVDHW87IPB6", "dateTime": 1519608024238}, {"current_trial": 117, "trialdata": {"rt": [3277, 6127, 8919, 13324, 17412, 20486, 22981], "trial_type": "math-distractor", "key_times": [2451, 2577, 3277, 5533, 5686, 6127, 8491, 8919, 12433, 12565, 13324, 16951, 17066, 17412, 19702, 19877, 20486, 22461, 22656, 22981], "responses": ["15", "15", "6", "16", "26", "19", "13"], "num2": [8, 4, 2, 9, 9, 7, 5, 3], "num3": [1, 3, 3, 5, 8, 5, 2, 2], "conditions": [24, 1600, "v", 24000], "internal_node_id": "0.0-90.0", "key_presses": [49, 53, 13, 49, 53, 13, 54, 13, 49, 54, 13, 50, 54, 13, 49, 57, 13, 49, 51, 13], "trial": 3, "time_elapsed": 790280, "type": "DISTRACTOR", "trial_index": 117, "num1": [6, 8, 1, 2, 9, 7, 6, 1]}, "uniqueid": "MTK2977:3GU1KF0O4J88O8S6OZBJVDHW87IPB6", "dateTime": 1519608050249}, {"current_trial": 118, "trialdata": {"rt": -1, "trial_type": "single-stim", "stimulus": "<p id=\"stim\">10</p>", "internal_node_id": "0.0-91.0-0.0", "time_elapsed": 793285, "key_press": -1, "trial_index": 118}, "uniqueid": "MTK2977:3GU1KF0O4J88O8S6OZBJVDHW87IPB6", "dateTime": 1519608053254}, {"current_trial": 119, "trialdata": {"rt": -1, "trial_type": "single-stim", "stimulus": "<p id=\"stim\">9</p>", "internal_node_id": "0.0-91.0-1.0", "time_elapsed": 794298, "key_press": -1, "trial_index": 119}, "uniqueid": "MTK2977:3GU1KF0O4J88O8S6OZBJVDHW87IPB6", "dateTime": 1519608054267}, {"current_trial": 120, "trialdata": {"rt": -1, "trial_type": "single-stim", "stimulus": "<p id=\"stim\">8</p>", "internal_node_id": "0.0-91.0-2.0", "time_elapsed": 795312, "key_press": -1, "trial_index": 120}, "uniqueid": "MTK2977:3GU1KF0O4J88O8S6OZBJVDHW87IPB6", "dateTime": 1519608055281}, {"current_trial": 121, "trialdata": {"rt": -1, "trial_type": "single-stim", "stimulus": "<p id=\"stim\">7</p>", "internal_node_id": "0.0-91.0-3.0", "time_elapsed": 796313, "key_press": -1, "trial_index": 121}, "uniqueid": "MTK2977:3GU1KF0O4J88O8S6OZBJVDHW87IPB6", "dateTime": 1519608056282}, {"current_trial": 122, "trialdata": {"rt": -1, "trial_type": "single-stim", "stimulus": "<p id=\"stim\">6</p>", "internal_node_id": "0.0-91.0-4.0", "time_elapsed": 797327, "key_press": -1, "trial_index": 122}, "uniqueid": "MTK2977:3GU1KF0O4J88O8S6OZBJVDHW87IPB6", "dateTime": 1519608057296}, {"current_trial": 123, "trialdata": {"rt": -1, "trial_type": "single-stim", "stimulus": "<p id=\"stim\">5</p>", "internal_node_id": "0.0-91.0-5.0", "time_elapsed": 798328, "key_press": -1, "trial_index": 123}, "uniqueid": "MTK2977:3GU1KF0O4J88O8S6OZBJVDHW87IPB6", "dateTime": 1519608058297}, {"current_trial": 124, "trialdata": {"rt": -1, "trial_type": "single-stim", "stimulus": "<p id=\"stim\">4</p>", "internal_node_id": "0.0-91.0-6.0", "time_elapsed": 799343, "key_press": -1, "trial_index": 124}, "uniqueid": "MTK2977:3GU1KF0O4J88O8S6OZBJVDHW87IPB6", "dateTime": 1519608059312}, {"current_trial": 125, "trialdata": {"rt": -1, "trial_type": "single-stim", "stimulus": "<p id=\"stim\">3</p>", "internal_node_id": "0.0-91.0-7.0", "time_elapsed": 800358, "key_press": -1, "trial_index": 125}, "uniqueid": "MTK2977:3GU1KF0O4J88O8S6OZBJVDHW87IPB6", "dateTime": 1519608060327}, {"current_trial": 126, "trialdata": {"rt": -1, "trial_type": "single-stim", "stimulus": "<p id=\"stim\">2</p>", "internal_node_id": "0.0-91.0-8.0", "time_elapsed": 801358, "key_press": -1, "trial_index": 126}, "uniqueid": "MTK2977:3GU1KF0O4J88O8S6OZBJVDHW87IPB6", "dateTime": 1519608061327}, {"current_trial": 127, "trialdata": {"rt": -1, "trial_type": "single-stim", "stimulus": "<p id=\"stim\">1</p>", "internal_node_id": "0.0-91.0-9.0", "time_elapsed": 802358, "key_press": -1, "trial_index": 127}, "uniqueid": "MTK2977:3GU1KF0O4J88O8S6OZBJVDHW87IPB6", "dateTime": 1519608062327}, {"current_trial": 128, "trialdata": {"rt": -1, "trial_type": "single-stim", "stimulus": "<p id=\"stim\">+</p>", "internal_node_id": "0.0-92.0-0.0", "time_elapsed": 803858, "key_press": -1, "type": "FIXATION", "trial_index": 128}, "uniqueid": "MTK2977:3GU1KF0O4J88O8S6OZBJVDHW87IPB6", "dateTime": 1519608063827}, {"current_trial": 129, "trialdata": {"rt": -1, "trial_type": "single-stim", "word": "butcher", "stimulus": "<p id=\"stim\">BUTCHER</p>", "conditions": [24, 1600, "v", 24000], "internal_node_id": "0.0-93.0", "trial": 3, "time_elapsed": 805459, "serialpos": 0, "key_press": -1, "wordID": 202, "type": "PRES_VIS", "trial_index": 129}, "uniqueid": "MTK2977:3GU1KF0O4J88O8S6OZBJVDHW87IPB6", "dateTime": 1519608065428}, {"current_trial": 130, "trialdata": {"rt": -1, "trial_type": "single-stim", "word": "blender", "stimulus": "<p id=\"stim\">BLENDER</p>", "conditions": [24, 1600, "v", 24000], "internal_node_id": "0.0-94.0", "trial": 3, "time_elapsed": 808096, "serialpos": 1, "key_press": -1, "wordID": 135, "type": "PRES_VIS", "trial_index": 130}, "uniqueid": "MTK2977:3GU1KF0O4J88O8S6OZBJVDHW87IPB6", "dateTime": 1519608068065}, {"current_trial": 131, "trialdata": {"rt": -1, "trial_type": "single-stim", "word": "dress", "stimulus": "<p id=\"stim\">DRESS</p>", "conditions": [24, 1600, "v", 24000], "internal_node_id": "0.0-95.0", "trial": 3, "time_elapsed": 810518, "serialpos": 2, "key_press": -1, "wordID": 494, "type": "PRES_VIS", "trial_index": 131}, "uniqueid": "MTK2977:3GU1KF0O4J88O8S6OZBJVDHW87IPB6", "dateTime": 1519608070487}, {"current_trial": 132, "trialdata": {"rt": -1, "trial_type": "single-stim", "word": "blouse", "stimulus": "<p id=\"stim\">BLOUSE</p>", "conditions": [24, 1600, "v", 24000], "internal_node_id": "0.0-96.0", "trial": 3, "time_elapsed": 813236, "serialpos": 3, "key_press": -1, "wordID": 138, "type": "PRES_VIS", "trial_index": 132}, "uniqueid": "MTK2977:3GU1KF0O4J88O8S6OZBJVDHW87IPB6", "dateTime": 1519608073205}, {"current_trial": 133, "trialdata": {"rt": -1, "trial_type": "single-stim", "word": "turtle", "stimulus": "<p id=\"stim\">TURTLE</p>", "conditions": [24, 1600, "v", 24000], "internal_node_id": "0.0-97.0", "trial": 3, "time_elapsed": 815875, "serialpos": 4, "key_press": -1, "wordID": 1521, "type": "PRES_VIS", "trial_index": 133}, "uniqueid": "MTK2977:3GU1KF0O4J88O8S6OZBJVDHW87IPB6", "dateTime": 1519608075844}, {"current_trial": 134, "trialdata": {"rt": -1, "trial_type": "single-stim", "word": "item", "stimulus": "<p id=\"stim\">ITEM</p>", "conditions": [24, 1600, "v", 24000], "internal_node_id": "0.0-98.0", "trial": 3, "time_elapsed": 818549, "serialpos": 5, "key_press": -1, "wordID": 745, "type": "PRES_VIS", "trial_index": 134}, "uniqueid": "MTK2977:3GU1KF0O4J88O8S6OZBJVDHW87IPB6", "dateTime": 1519608078518}, {"current_trial": 135, "trialdata": {"rt": -1, "trial_type": "single-stim", "word": "space", "stimulus": "<p id=\"stim\">SPACE</p>", "conditions": [24, 1600, "v", 24000], "internal_node_id": "0.0-99.0", "trial": 3, "time_elapsed": 821268, "serialpos": 6, "key_press": -1, "wordID": 1344, "type": "PRES_VIS", "trial_index": 135}, "uniqueid": "MTK2977:3GU1KF0O4J88O8S6OZBJVDHW87IPB6", "dateTime": 1519608081237}, {"current_trial": 136, "trialdata": {"rt": -1, "trial_type": "single-stim", "word": "casket", "stimulus": "<p id=\"stim\">CASKET</p>", "conditions": [24, 1600, "v", 24000], "internal_node_id": "0.0-100.0", "trial": 3, "time_elapsed": 824016, "serialpos": 7, "key_press": -1, "wordID": 254, "type": "PRES_VIS", "trial_index": 136}, "uniqueid": "MTK2977:3GU1KF0O4J88O8S6OZBJVDHW87IPB6", "dateTime": 1519608083985}, {"current_trial": 137, "trialdata": {"rt": -1, "trial_type": "single-stim", "word": "atom", "stimulus": "<p id=\"stim\">ATOM</p>", "conditions": [24, 1600, "v", 24000], "internal_node_id": "0.0-101.0", "trial": 3, "time_elapsed": 826437, "serialpos": 8, "key_press": -1, "wordID": 54, "type": "PRES_VIS", "trial_index": 137}, "uniqueid": "MTK2977:3GU1KF0O4J88O8S6OZBJVDHW87IPB6", "dateTime": 1519608086406}, {"current_trial": 138, "trialdata": {"rt": -1, "trial_type": "single-stim", "word": "lady", "stimulus": "<p id=\"stim\">LADY</p>", "conditions": [24, 1600, "v", 24000], "internal_node_id": "0.0-102.0", "trial": 3, "time_elapsed": 828873, "serialpos": 9, "key_press": -1, "wordID": 793, "type": "PRES_VIS", "trial_index": 138}, "uniqueid": "MTK2977:3GU1KF0O4J88O8S6OZBJVDHW87IPB6", "dateTime": 1519608088842}, {"current_trial": 139, "trialdata": {"rt": -1, "trial_type": "single-stim", "word": "scarf", "stimulus": "<p id=\"stim\">SCARF</p>", "conditions": [24, 1600, "v", 24000], "internal_node_id": "0.0-103.0", "trial": 3, "time_elapsed": 831358, "serialpos": 10, "key_press": -1, "wordID": 1245, "type": "PRES_VIS", "trial_index": 139}, "uniqueid": "MTK2977:3GU1KF0O4J88O8S6OZBJVDHW87IPB6", "dateTime": 1519608091327}, {"current_trial": 140, "trialdata": {"rt": -1, "trial_type": "single-stim", "word": "lizard", "stimulus": "<p id=\"stim\">LIZARD</p>", "conditions": [24, 1600, "v", 24000], "internal_node_id": "0.0-104.0", "trial": 3, "time_elapsed": 833826, "serialpos": 11, "key_press": -1, "wordID": 833, "type": "PRES_VIS", "trial_index": 140}, "uniqueid": "MTK2977:3GU1KF0O4J88O8S6OZBJVDHW87IPB6", "dateTime": 1519608093795}, {"current_trial": 141, "trialdata": {"rt": -1, "trial_type": "single-stim", "word": "mailbox", "stimulus": "<p id=\"stim\">MAILBOX</p>", "conditions": [24, 1600, "v", 24000], "internal_node_id": "0.0-105.0", "trial": 3, "time_elapsed": 836514, "serialpos": 12, "key_press": -1, "wordID": 856, "type": "PRES_VIS", "trial_index": 141}, "uniqueid": "MTK2977:3GU1KF0O4J88O8S6OZBJVDHW87IPB6", "dateTime": 1519608096483}, {"current_trial": 142, "trialdata": {"rt": -1, "trial_type": "single-stim", "word": "crib", "stimulus": "<p id=\"stim\">CRIB</p>", "conditions": [24, 1600, "v", 24000], "internal_node_id": "0.0-106.0", "trial": 3, "time_elapsed": 839181, "serialpos": 13, "key_press": -1, "wordID": 406, "type": "PRES_VIS", "trial_index": 142}, "uniqueid": "MTK2977:3GU1KF0O4J88O8S6OZBJVDHW87IPB6", "dateTime": 1519608099150}, {"current_trial": 143, "trialdata": {"rt": -1, "trial_type": "single-stim", "word": "receipt", "stimulus": "<p id=\"stim\">RECEIPT</p>", "conditions": [24, 1600, "v", 24000], "internal_node_id": "0.0-107.0", "trial": 3, "time_elapsed": 841667, "serialpos": 14, "key_press": -1, "wordID": 1172, "type": "PRES_VIS", "trial_index": 143}, "uniqueid": "MTK2977:3GU1KF0O4J88O8S6OZBJVDHW87IPB6", "dateTime": 1519608101636}, {"current_trial": 144, "trialdata": {"rt": -1, "trial_type": "single-stim", "word": "message", "stimulus": "<p id=\"stim\">MESSAGE</p>", "conditions": [24, 1600, "v", 24000], "internal_node_id": "0.0-108.0", "trial": 3, "time_elapsed": 844450, "serialpos": 15, "key_press": -1, "wordID": 887, "type": "PRES_VIS", "trial_index": 144}, "uniqueid": "MTK2977:3GU1KF0O4J88O8S6OZBJVDHW87IPB6", "dateTime": 1519608104419}, {"current_trial": 145, "trialdata": {"rt": -1, "trial_type": "single-stim", "word": "thread", "stimulus": "<p id=\"stim\">THREAD</p>", "conditions": [24, 1600, "v", 24000], "internal_node_id": "0.0-109.0", "trial": 3, "time_elapsed": 847075, "serialpos": 16, "key_press": -1, "wordID": 1459, "type": "PRES_VIS", "trial_index": 145}, "uniqueid": "MTK2977:3GU1KF0O4J88O8S6OZBJVDHW87IPB6", "dateTime": 1519608107044}, {"current_trial": 146, "trialdata": {"rt": -1, "trial_type": "single-stim", "word": "mattress", "stimulus": "<p id=\"stim\">MATTRESS</p>", "conditions": [24, 1600, "v", 24000], "internal_node_id": "0.0-110.0", "trial": 3, "time_elapsed": 849780, "serialpos": 17, "key_press": -1, "wordID": 878, "type": "PRES_VIS", "trial_index": 146}, "uniqueid": "MTK2977:3GU1KF0O4J88O8S6OZBJVDHW87IPB6", "dateTime": 1519608109749}, {"current_trial": 147, "trialdata": {"rt": -1, "trial_type": "single-stim", "word": "suitcase", "stimulus": "<p id=\"stim\">SUITCASE</p>", "conditions": [24, 1600, "v", 24000], "internal_node_id": "0.0-111.0", "trial": 3, "time_elapsed": 852359, "serialpos": 18, "key_press": -1, "wordID": 1402, "type": "PRES_VIS", "trial_index": 147}, "uniqueid": "MTK2977:3GU1KF0O4J88O8S6OZBJVDHW87IPB6", "dateTime": 1519608112329}, {"current_trial": 148, "trialdata": {"rt": -1, "trial_type": "single-stim", "word": "marine", "stimulus": "<p id=\"stim\">MARINE</p>", "conditions": [24, 1600, "v", 24000], "internal_node_id": "0.0-112.0", "trial": 3, "time_elapsed": 855138, "serialpos": 19, "key_press": -1, "wordID": 868, "type": "PRES_VIS", "trial_index": 148}, "uniqueid": "MTK2977:3GU1KF0O4J88O8S6OZBJVDHW87IPB6", "dateTime": 1519608115107}, {"current_trial": 149, "trialdata": {"rt": -1, "trial_type": "single-stim", "word": "handbag", "stimulus": "<p id=\"stim\">HANDBAG</p>", "conditions": [24, 1600, "v", 24000], "internal_node_id": "0.0-113.0", "trial": 3, "time_elapsed": 857869, "serialpos": 20, "key_press": -1, "wordID": 683, "type": "PRES_VIS", "trial_index": 149}, "uniqueid": "MTK2977:3GU1KF0O4J88O8S6OZBJVDHW87IPB6", "dateTime": 1519608117838}, {"current_trial": 150, "trialdata": {"rt": -1, "trial_type": "single-stim", "word": "necklace", "stimulus": "<p id=\"stim\">NECKLACE</p>", "conditions": [24, 1600, "v", 24000], "internal_node_id": "0.0-114.0", "trial": 3, "time_elapsed": 860666, "serialpos": 21, "key_press": -1, "wordID": 939, "type": "PRES_VIS", "trial_index": 150}, "uniqueid": "MTK2977:3GU1KF0O4J88O8S6OZBJVDHW87IPB6", "dateTime": 1519608120635}, {"current_trial": 151, "trialdata": {"rt": -1, "trial_type": "single-stim", "word": "baby", "stimulus": "<p id=\"stim\">BABY</p>", "conditions": [24, 1600, "v", 24000], "internal_node_id": "0.0-115.0", "trial": 3, "time_elapsed": 863467, "serialpos": 22, "key_press": -1, "wordID": 63, "type": "PRES_VIS", "trial_index": 151}, "uniqueid": "MTK2977:3GU1KF0O4J88O8S6OZBJVDHW87IPB6", "dateTime": 1519608123436}, {"current_trial": 152, "trialdata": {"rt": -1, "trial_type": "single-stim", "word": "fruit", "stimulus": "<p id=\"stim\">FRUIT</p>", "conditions": [24, 1600, "v", 24000], "internal_node_id": "0.0-116.0", "trial": 3, "time_elapsed": 865998, "serialpos": 23, "key_press": -1, "wordID": 609, "type": "PRES_VIS", "trial_index": 152}, "uniqueid": "MTK2977:3GU1KF0O4J88O8S6OZBJVDHW87IPB6", "dateTime": 1519608125967}, {"current_trial": 153, "trialdata": {"rt": -1, "trial_type": "single-stim", "stimulus": "", "internal_node_id": "0.0-117.0-0.0", "time_elapsed": 868499, "key_press": -1, "type": "PRE_RECALL_DELAY", "trial_index": 153}, "uniqueid": "MTK2977:3GU1KF0O4J88O8S6OZBJVDHW87IPB6", "dateTime": 1519608128468}, {"current_trial": 154, "trialdata": {"rt": -1000, "trial_type": "single-audio", "stimulus": "/static/audio/400Hz.wav", "internal_node_id": "0.0-118.0", "time_elapsed": 869014, "key_press": -1, "type": "PRE_RECALL_ALERT", "trial_index": 154}, "uniqueid": "MTK2977:3GU1KF0O4J88O8S6OZBJVDHW87IPB6", "dateTime": 1519608128983}, {"current_trial": 155, "trialdata": {"rt": [2374, 4564, 7412, 9953, 16883, 41808], "recwords": ["fruit", "baby", "crib", "mattress", "carriage", "eagle"], "key_times": [802, 953, 1348, 1432, 1577, 2374, 3643, 3732, 3891, 4159, 4564, 5984, 6148, 6480, 7058, 7412, 8016, 8116, 8432, 8597, 8868, 8953, 9568, 9698, 9953, 15390, 15510, 15673, 15921, 16076, 16271, 16518, 16661, 16883, 38713, 38799, 39105, 39367, 40857, 41464, 41673, 41808], "trial_type": "free-recall", "conditions": [24, 1600, "v", 24000], "internal_node_id": "0.0-119.0-0.0", "key_presses": [70, 82, 85, 73, 84, 13, 66, 65, 66, 89, 13, 67, 82, 73, 66, 13, 77, 65, 84, 84, 82, 69, 83, 83, 13, 67, 65, 82, 82, 73, 65, 71, 69, 13, 69, 65, 71, 69, 8, 76, 69, 13], "trial": 3, "time_elapsed": 929024, "type": "FREE_RECALL", "trial_index": 155}, "uniqueid": "MTK2977:3GU1KF0O4J88O8S6OZBJVDHW87IPB6", "dateTime": 1519608189027}, {"current_trial": 156, "trialdata": {"rt": 1797, "trial_type": "text", "internal_node_id": "0.0-120.0", "time_elapsed": 932868, "key_press": 32, "type": "INSTRUCTIONS", "trial_index": 156}, "uniqueid": "MTK2977:3GU1KF0O4J88O8S6OZBJVDHW87IPB6", "dateTime": 1519608192837}, {"current_trial": 157, "trialdata": {"rt": [3363, 6425, 9400, 11990, 17166, 19505, 21859], "trial_type": "math-distractor", "key_times": [2579, 3363, 5484, 6078, 6425, 8468, 9063, 9400, 11261, 11680, 11990, 16182, 16867, 17166, 19104, 19251, 19505, 20966, 21666, 21859, 23775], "responses": ["7", "16", "17", "15", "18", "11", "19"], "num2": [3, 7, 8, 5, 3, 5, 1, 2], "num3": [3, 6, 7, 5, 7, 2, 9, 4], "conditions": [24, 1600, "v", 24000], "internal_node_id": "0.0-121.0", "key_presses": [55, 13, 49, 54, 13, 49, 55, 13, 49, 53, 13, 49, 56, 13, 49, 49, 13, 49, 57, 13, 49], "trial": 4, "time_elapsed": 958912, "type": "DISTRACTOR", "trial_index": 157, "num1": [1, 3, 2, 5, 8, 4, 9, 8]}, "uniqueid": "MTK2977:3GU1KF0O4J88O8S6OZBJVDHW87IPB6", "dateTime": 1519608218882}, {"current_trial": 158, "trialdata": {"rt": -1, "trial_type": "single-stim", "stimulus": "<p id=\"stim\">10</p>", "internal_node_id": "0.0-122.0-0.0", "time_elapsed": 961941, "key_press": -1, "trial_index": 158}, "uniqueid": "MTK2977:3GU1KF0O4J88O8S6OZBJVDHW87IPB6", "dateTime": 1519608221910}, {"current_trial": 159, "trialdata": {"rt": -1, "trial_type": "single-stim", "stimulus": "<p id=\"stim\">9</p>", "internal_node_id": "0.0-122.0-1.0", "time_elapsed": 962944, "key_press": -1, "trial_index": 159}, "uniqueid": "MTK2977:3GU1KF0O4J88O8S6OZBJVDHW87IPB6", "dateTime": 1519608222913}, {"current_trial": 160, "trialdata": {"rt": -1, "trial_type": "single-stim", "stimulus": "<p id=\"stim\">8</p>", "internal_node_id": "0.0-122.0-2.0", "time_elapsed": 963947, "key_press": -1, "trial_index": 160}, "uniqueid": "MTK2977:3GU1KF0O4J88O8S6OZBJVDHW87IPB6", "dateTime": 1519608223916}, {"current_trial": 161, "trialdata": {"rt": -1, "trial_type": "single-stim", "stimulus": "<p id=\"stim\">7</p>", "internal_node_id": "0.0-122.0-3.0", "time_elapsed": 964950, "key_press": -1, "trial_index": 161}, "uniqueid": "MTK2977:3GU1KF0O4J88O8S6OZBJVDHW87IPB6", "dateTime": 1519608224919}, {"current_trial": 162, "trialdata": {"rt": -1, "trial_type": "single-stim", "stimulus": "<p id=\"stim\">6</p>", "internal_node_id": "0.0-122.0-4.0", "time_elapsed": 965952, "key_press": -1, "trial_index": 162}, "uniqueid": "MTK2977:3GU1KF0O4J88O8S6OZBJVDHW87IPB6", "dateTime": 1519608225921}, {"current_trial": 163, "trialdata": {"rt": -1, "trial_type": "single-stim", "stimulus": "<p id=\"stim\">5</p>", "internal_node_id": "0.0-122.0-5.0", "time_elapsed": 966954, "key_press": -1, "trial_index": 163}, "uniqueid": "MTK2977:3GU1KF0O4J88O8S6OZBJVDHW87IPB6", "dateTime": 1519608226923}, {"current_trial": 164, "trialdata": {"rt": -1, "trial_type": "single-stim", "stimulus": "<p id=\"stim\">4</p>", "internal_node_id": "0.0-122.0-6.0", "time_elapsed": 967956, "key_press": -1, "trial_index": 164}, "uniqueid": "MTK2977:3GU1KF0O4J88O8S6OZBJVDHW87IPB6", "dateTime": 1519608227925}, {"current_trial": 165, "trialdata": {"rt": -1, "trial_type": "single-stim", "stimulus": "<p id=\"stim\">3</p>", "internal_node_id": "0.0-122.0-7.0", "time_elapsed": 968957, "key_press": -1, "trial_index": 165}, "uniqueid": "MTK2977:3GU1KF0O4J88O8S6OZBJVDHW87IPB6", "dateTime": 1519608228926}, {"current_trial": 166, "trialdata": {"rt": -1, "trial_type": "single-stim", "stimulus": "<p id=\"stim\">2</p>", "internal_node_id": "0.0-122.0-8.0", "time_elapsed": 969972, "key_press": -1, "trial_index": 166}, "uniqueid": "MTK2977:3GU1KF0O4J88O8S6OZBJVDHW87IPB6", "dateTime": 1519608229941}, {"current_trial": 167, "trialdata": {"rt": -1, "trial_type": "single-stim", "stimulus": "<p id=\"stim\">1</p>", "internal_node_id": "0.0-122.0-9.0", "time_elapsed": 970973, "key_press": -1, "trial_index": 167}, "uniqueid": "MTK2977:3GU1KF0O4J88O8S6OZBJVDHW87IPB6", "dateTime": 1519608230942}, {"current_trial": 168, "trialdata": {"rt": -1, "trial_type": "single-stim", "stimulus": "<p id=\"stim\">+</p>", "internal_node_id": "0.0-123.0-0.0", "time_elapsed": 972488, "key_press": -1, "type": "FIXATION", "trial_index": 168}, "uniqueid": "MTK2977:3GU1KF0O4J88O8S6OZBJVDHW87IPB6", "dateTime": 1519608232457}, {"current_trial": 169, "trialdata": {"rt": -1, "trial_type": "single-stim", "word": "frame", "stimulus": "<p id=\"stim\">FRAME</p>", "conditions": [24, 1600, "v", 24000], "internal_node_id": "0.0-124.0", "trial": 4, "time_elapsed": 974097, "serialpos": 0, "key_press": -1, "wordID": 599, "type": "PRES_VIS", "trial_index": 169}, "uniqueid": "MTK2977:3GU1KF0O4J88O8S6OZBJVDHW87IPB6", "dateTime": 1519608234066}, {"current_trial": 170, "trialdata": {"rt": -1, "trial_type": "single-stim", "word": "tuba", "stimulus": "<p id=\"stim\">TUBA</p>", "conditions": [24, 1600, "v", 24000], "internal_node_id": "0.0-125.0", "trial": 4, "time_elapsed": 976596, "serialpos": 1, "key_press": -1, "wordID": 1514, "type": "PRES_VIS", "trial_index": 170}, "uniqueid": "MTK2977:3GU1KF0O4J88O8S6OZBJVDHW87IPB6", "dateTime": 1519608236565}, {"current_trial": 171, "trialdata": {"rt": -1, "trial_type": "single-stim", "word": "college", "stimulus": "<p id=\"stim\">COLLEGE</p>", "conditions": [24, 1600, "v", 24000], "internal_node_id": "0.0-126.0", "trial": 4, "time_elapsed": 979409, "serialpos": 2, "key_press": -1, "wordID": 345, "type": "PRES_VIS", "trial_index": 171}, "uniqueid": "MTK2977:3GU1KF0O4J88O8S6OZBJVDHW87IPB6", "dateTime": 1519608239378}, {"current_trial": 172, "trialdata": {"rt": -1, "trial_type": "single-stim", "word": "heart", "stimulus": "<p id=\"stim\">HEART</p>", "conditions": [24, 1600, "v", 24000], "internal_node_id": "0.0-127.0", "trial": 4, "time_elapsed": 982050, "serialpos": 3, "key_press": -1, "wordID": 696, "type": "PRES_VIS", "trial_index": 172}, "uniqueid": "MTK2977:3GU1KF0O4J88O8S6OZBJVDHW87IPB6", "dateTime": 1519608242019}, {"current_trial": 173, "trialdata": {"rt": -1, "trial_type": "single-stim", "word": "plaster", "stimulus": "<p id=\"stim\">PLASTER</p>", "conditions": [24, 1600, "v", 24000], "internal_node_id": "0.0-128.0", "trial": 4, "time_elapsed": 984626, "serialpos": 4, "key_press": -1, "wordID": 1084, "type": "PRES_VIS", "trial_index": 173}, "uniqueid": "MTK2977:3GU1KF0O4J88O8S6OZBJVDHW87IPB6", "dateTime": 1519608244595}, {"current_trial": 174, "trialdata": {"rt": -1, "trial_type": "single-stim", "word": "body", "stimulus": "<p id=\"stim\">BODY</p>", "conditions": [24, 1600, "v", 24000], "internal_node_id": "0.0-129.0", "trial": 4, "time_elapsed": 987347, "serialpos": 5, "key_press": -1, "wordID": 144, "type": "PRES_VIS", "trial_index": 174}, "uniqueid": "MTK2977:3GU1KF0O4J88O8S6OZBJVDHW87IPB6", "dateTime": 1519608247316}, {"current_trial": 175, "trialdata": {"rt": -1, "trial_type": "single-stim", "word": "brandy", "stimulus": "<p id=\"stim\">BRANDY</p>", "conditions": [24, 1600, "v", 24000], "internal_node_id": "0.0-130.0", "trial": 4, "time_elapsed": 990097, "serialpos": 6, "key_press": -1, "wordID": 168, "type": "PRES_VIS", "trial_index": 175}, "uniqueid": "MTK2977:3GU1KF0O4J88O8S6OZBJVDHW87IPB6", "dateTime": 1519608250066}, {"current_trial": 176, "trialdata": {"rt": -1, "trial_type": "single-stim", "word": "cupboard", "stimulus": "<p id=\"stim\">CUPBOARD</p>", "conditions": [24, 1600, "v", 24000], "internal_node_id": "0.0-131.0", "trial": 4, "time_elapsed": 992768, "serialpos": 7, "key_press": -1, "wordID": 424, "type": "PRES_VIS", "trial_index": 176}, "uniqueid": "MTK2977:3GU1KF0O4J88O8S6OZBJVDHW87IPB6", "dateTime": 1519608252737}, {"current_trial": 177, "trialdata": {"rt": -1, "trial_type": "single-stim", "word": "dresser", "stimulus": "<p id=\"stim\">DRESSER</p>", "conditions": [24, 1600, "v", 24000], "internal_node_id": "0.0-132.0", "trial": 4, "time_elapsed": 995331, "serialpos": 8, "key_press": -1, "wordID": 495, "type": "PRES_VIS", "trial_index": 177}, "uniqueid": "MTK2977:3GU1KF0O4J88O8S6OZBJVDHW87IPB6", "dateTime": 1519608255300}, {"current_trial": 178, "trialdata": {"rt": -1, "trial_type": "single-stim", "word": "viking", "stimulus": "<p id=\"stim\">VIKING</p>", "conditions": [24, 1600, "v", 24000], "internal_node_id": "0.0-133.0", "trial": 4, "time_elapsed": 998142, "serialpos": 9, "key_press": -1, "wordID": 1564, "type": "PRES_VIS", "trial_index": 178}, "uniqueid": "MTK2977:3GU1KF0O4J88O8S6OZBJVDHW87IPB6", "dateTime": 1519608258111}, {"current_trial": 179, "trialdata": {"rt": -1, "trial_type": "single-stim", "word": "scotch", "stimulus": "<p id=\"stim\">SCOTCH</p>", "conditions": [24, 1600, "v", 24000], "internal_node_id": "0.0-134.0", "trial": 4, "time_elapsed": 1000936, "serialpos": 10, "key_press": -1, "wordID": 1250, "type": "PRES_VIS", "trial_index": 179}, "uniqueid": "MTK2977:3GU1KF0O4J88O8S6OZBJVDHW87IPB6", "dateTime": 1519608260905}, {"current_trial": 180, "trialdata": {"rt": -1, "trial_type": "single-stim", "word": "shoulder", "stimulus": "<p id=\"stim\">SHOULDER</p>", "conditions": [24, 1600, "v", 24000], "internal_node_id": "0.0-135.0", "trial": 4, "time_elapsed": 1003361, "serialpos": 11, "key_press": -1, "wordID": 1293, "type": "PRES_VIS", "trial_index": 180}, "uniqueid": "MTK2977:3GU1KF0O4J88O8S6OZBJVDHW87IPB6", "dateTime": 1519608263330}, {"current_trial": 181, "trialdata": {"rt": -1, "trial_type": "single-stim", "word": "robin", "stimulus": "<p id=\"stim\">ROBIN</p>", "conditions": [24, 1600, "v", 24000], "internal_node_id": "0.0-136.0", "trial": 4, "time_elapsed": 1006015, "serialpos": 12, "key_press": -1, "wordID": 1198, "type": "PRES_VIS", "trial_index": 181}, "uniqueid": "MTK2977:3GU1KF0O4J88O8S6OZBJVDHW87IPB6", "dateTime": 1519608265984}, {"current_trial": 182, "trialdata": {"rt": -1, "trial_type": "single-stim", "word": "canyon", "stimulus": "<p id=\"stim\">CANYON</p>", "conditions": [24, 1600, "v", 24000], "internal_node_id": "0.0-137.0", "trial": 4, "time_elapsed": 1008482, "serialpos": 13, "key_press": -1, "wordID": 234, "type": "PRES_VIS", "trial_index": 182}, "uniqueid": "MTK2977:3GU1KF0O4J88O8S6OZBJVDHW87IPB6", "dateTime": 1519608268451}, {"current_trial": 183, "trialdata": {"rt": -1, "trial_type": "single-stim", "word": "shirt", "stimulus": "<p id=\"stim\">SHIRT</p>", "conditions": [24, 1600, "v", 24000], "internal_node_id": "0.0-138.0", "trial": 4, "time_elapsed": 1010984, "serialpos": 14, "key_press": -1, "wordID": 1286, "type": "PRES_VIS", "trial_index": 183}, "uniqueid": "MTK2977:3GU1KF0O4J88O8S6OZBJVDHW87IPB6", "dateTime": 1519608270953}, {"current_trial": 184, "trialdata": {"rt": -1, "trial_type": "single-stim", "word": "camel", "stimulus": "<p id=\"stim\">CAMEL</p>", "conditions": [24, 1600, "v", 24000], "internal_node_id": "0.0-139.0", "trial": 4, "time_elapsed": 1013592, "serialpos": 15, "key_press": -1, "wordID": 222, "type": "PRES_VIS", "trial_index": 184}, "uniqueid": "MTK2977:3GU1KF0O4J88O8S6OZBJVDHW87IPB6", "dateTime": 1519608273561}, {"current_trial": 185, "trialdata": {"rt": -1, "trial_type": "single-stim", "word": "donkey", "stimulus": "<p id=\"stim\">DONKEY</p>", "conditions": [24, 1600, "v", 24000], "internal_node_id": "0.0-140.0", "trial": 4, "time_elapsed": 1016078, "serialpos": 16, "key_press": -1, "wordID": 483, "type": "PRES_VIS", "trial_index": 185}, "uniqueid": "MTK2977:3GU1KF0O4J88O8S6OZBJVDHW87IPB6", "dateTime": 1519608276047}, {"current_trial": 186, "trialdata": {"rt": -1, "trial_type": "single-stim", "word": "patrol", "stimulus": "<p id=\"stim\">PATROL</p>", "conditions": [24, 1600, "v", 24000], "internal_node_id": "0.0-141.0", "trial": 4, "time_elapsed": 1018781, "serialpos": 17, "key_press": -1, "wordID": 1026, "type": "PRES_VIS", "trial_index": 186}, "uniqueid": "MTK2977:3GU1KF0O4J88O8S6OZBJVDHW87IPB6", "dateTime": 1519608278750}, {"current_trial": 187, "trialdata": {"rt": -1, "trial_type": "single-stim", "word": "omelet", "stimulus": "<p id=\"stim\">OMELET</p>", "conditions": [24, 1600, "v", 24000], "internal_node_id": "0.0-142.0", "trial": 4, "time_elapsed": 1021562, "serialpos": 18, "key_press": -1, "wordID": 975, "type": "PRES_VIS", "trial_index": 187}, "uniqueid": "MTK2977:3GU1KF0O4J88O8S6OZBJVDHW87IPB6", "dateTime": 1519608281531}, {"current_trial": 188, "trialdata": {"rt": -1, "trial_type": "single-stim", "word": "spouse", "stimulus": "<p id=\"stim\">SPOUSE</p>", "conditions": [24, 1600, "v", 24000], "internal_node_id": "0.0-143.0", "trial": 4, "time_elapsed": 1024124, "serialpos": 19, "key_press": -1, "wordID": 1357, "type": "PRES_VIS", "trial_index": 188}, "uniqueid": "MTK2977:3GU1KF0O4J88O8S6OZBJVDHW87IPB6", "dateTime": 1519608284093}, {"current_trial": 189, "trialdata": {"rt": -1, "trial_type": "single-stim", "word": "church", "stimulus": "<p id=\"stim\">CHURCH</p>", "conditions": [24, 1600, "v", 24000], "internal_node_id": "0.0-144.0", "trial": 4, "time_elapsed": 1026938, "serialpos": 20, "key_press": -1, "wordID": 306, "type": "PRES_VIS", "trial_index": 189}, "uniqueid": "MTK2977:3GU1KF0O4J88O8S6OZBJVDHW87IPB6", "dateTime": 1519608286907}, {"current_trial": 190, "trialdata": {"rt": -1, "trial_type": "single-stim", "word": "cashier", "stimulus": "<p id=\"stim\">CASHIER</p>", "conditions": [24, 1600, "v", 24000], "internal_node_id": "0.0-145.0", "trial": 4, "time_elapsed": 1029421, "serialpos": 21, "key_press": -1, "wordID": 253, "type": "PRES_VIS", "trial_index": 190}, "uniqueid": "MTK2977:3GU1KF0O4J88O8S6OZBJVDHW87IPB6", "dateTime": 1519608289390}, {"current_trial": 191, "trialdata": {"rt": -1, "trial_type": "single-stim", "word": "luggage", "stimulus": "<p id=\"stim\">LUGGAGE</p>", "conditions": [24, 1600, "v", 24000], "internal_node_id": "0.0-146.0", "trial": 4, "time_elapsed": 1031933, "serialpos": 22, "key_press": -1, "wordID": 846, "type": "PRES_VIS", "trial_index": 191}, "uniqueid": "MTK2977:3GU1KF0O4J88O8S6OZBJVDHW87IPB6", "dateTime": 1519608291902}, {"current_trial": 192, "trialdata": {"rt": -1, "trial_type": "single-stim", "word": "valley", "stimulus": "<p id=\"stim\">VALLEY</p>", "conditions": [24, 1600, "v", 24000], "internal_node_id": "0.0-147.0", "trial": 4, "time_elapsed": 1034702, "serialpos": 23, "key_press": -1, "wordID": 1544, "type": "PRES_VIS", "trial_index": 192}, "uniqueid": "MTK2977:3GU1KF0O4J88O8S6OZBJVDHW87IPB6", "dateTime": 1519608294671}, {"current_trial": 193, "trialdata": {"rt": -1, "trial_type": "single-stim", "stimulus": "", "internal_node_id": "0.0-148.0-0.0", "time_elapsed": 1036791, "key_press": -1, "type": "PRE_RECALL_DELAY", "trial_index": 193}, "uniqueid": "MTK2977:3GU1KF0O4J88O8S6OZBJVDHW87IPB6", "dateTime": 1519608296760}, {"current_trial": 194, "trialdata": {"rt": -1000, "trial_type": "single-audio", "stimulus": "/static/audio/400Hz.wav", "internal_node_id": "0.0-149.0", "time_elapsed": 1037295, "key_press": -1, "type": "PRE_RECALL_ALERT", "trial_index": 194}, "uniqueid": "MTK2977:3GU1KF0O4J88O8S6OZBJVDHW87IPB6", "dateTime": 1519608297264}, {"current_trial": 195, "trialdata": {"rt": [2957, 5780, 8134, 11256, 14001, 18968, 26249, 32410, 37221, 43887, 49855, 52293], "recwords": ["valley", "church", "tuba", "luggage", "spouse", "canyon", "daughter", "crib", "spouse", "cupboard", "valley", "canyon"], "key_times": [777, 980, 1460, 1600, 1783, 2103, 2957, 3918, 4235, 4332, 4656, 4942, 5116, 5780, 6657, 6943, 7570, 7800, 8134, 9130, 9391, 9968, 10070, 10216, 10534, 10683, 11256, 12259, 12586, 12701, 13049, 13182, 13409, 14001, 17334, 17447, 17874, 18282, 18399, 18564, 18968, 24765, 24847, 24968, 25190, 25289, 25559, 25784, 25882, 26249, 26249, 30987, 31169, 31474, 32140, 32410, 35515, 36138, 36205, 36521, 36676, 36852, 37221, 41036, 41341, 41707, 42341, 42659, 42852, 43064, 43298, 43887, 48165, 48284, 48643, 48746, 48965, 49226, 49855, 50752, 50854, 51049, 51691, 51917, 52024, 52293], "trial_type": "free-recall", "conditions": [24, 1600, "v", 24000], "internal_node_id": "0.0-150.0-0.0", "key_presses": [86, 65, 76, 76, 69, 89, 13, 67, 72, 85, 82, 67, 72, 13, 84, 85, 66, 65, 13, 76, 85, 71, 71, 65, 71, 69, 13, 83, 80, 79, 85, 83, 69, 13, 67, 65, 78, 89, 79, 78, 13, 68, 65, 85, 71, 72, 84, 69, 82, 16, 13, 67, 82, 73, 66, 13, 83, 80, 79, 85, 83, 69, 13, 67, 85, 80, 66, 79, 65, 82, 68, 13, 86, 65, 76, 76, 69, 89, 13, 67, 65, 78, 89, 79, 78, 13], "trial": 4, "time_elapsed": 1097302, "type": "FREE_RECALL", "trial_index": 195}, "uniqueid": "MTK2977:3GU1KF0O4J88O8S6OZBJVDHW87IPB6", "dateTime": 1519608357271}, {"current_trial": 196, "trialdata": {"rt": 1874, "trial_type": "text", "internal_node_id": "0.0-151.0", "time_elapsed": 1101187, "key_press": 32, "type": "INSTRUCTIONS", "trial_index": 196}, "uniqueid": "MTK2977:3GU1KF0O4J88O8S6OZBJVDHW87IPB6", "dateTime": 1519608361156}, {"current_trial": 197, "trialdata": {"rt": [3410, 8858, 12624, 15269, 18206, 22171], "trial_type": "math-distractor", "key_times": [2938, 3043, 3410, 8467, 8564, 8858, 11219, 12238, 12624, 14561, 14827, 15269, 17481, 17844, 18206, 21104, 21319, 22171], "responses": ["17", "21", "10", "13", "10", "17"], "num2": [4, 8, 4, 6, 5, 6, 5], "num3": [5, 6, 3, 2, 3, 3, 7], "conditions": [12, 1600, "v", 24000], "internal_node_id": "0.0-152.0", "key_presses": [49, 55, 13, 50, 49, 13, 49, 48, 13, 49, 51, 13, 49, 48, 13, 49, 55, 13], "trial": 5, "time_elapsed": 1127208, "type": "DISTRACTOR", "trial_index": 197, "num1": [8, 7, 3, 5, 2, 8, 7]}, "uniqueid": "MTK2977:3GU1KF0O4J88O8S6OZBJVDHW87IPB6", "dateTime": 1519608387177}, {"current_trial": 198, "trialdata": {"rt": -1, "trial_type": "single-stim", "stimulus": "<p id=\"stim\">10</p>", "internal_node_id": "0.0-153.0-0.0", "time_elapsed": 1130225, "key_press": -1, "trial_index": 198}, "uniqueid": "MTK2977:3GU1KF0O4J88O8S6OZBJVDHW87IPB6", "dateTime": 1519608390194}, {"current_trial": 199, "trialdata": {"rt": -1, "trial_type": "single-stim", "stimulus": "<p id=\"stim\">9</p>", "internal_node_id": "0.0-153.0-1.0", "time_elapsed": 1131238, "key_press": -1, "trial_index": 199}, "uniqueid": "MTK2977:3GU1KF0O4J88O8S6OZBJVDHW87IPB6", "dateTime": 1519608391207}, {"current_trial": 200, "trialdata": {"rt": -1, "trial_type": "single-stim", "stimulus": "<p id=\"stim\">8</p>", "internal_node_id": "0.0-153.0-2.0", "time_elapsed": 1132240, "key_press": -1, "trial_index": 200}, "uniqueid": "MTK2977:3GU1KF0O4J88O8S6OZBJVDHW87IPB6", "dateTime": 1519608392209}, {"current_trial": 201, "trialdata": {"rt": -1, "trial_type": "single-stim", "stimulus": "<p id=\"stim\">7</p>", "internal_node_id": "0.0-153.0-3.0", "time_elapsed": 1133254, "key_press": -1, "trial_index": 201}, "uniqueid": "MTK2977:3GU1KF0O4J88O8S6OZBJVDHW87IPB6", "dateTime": 1519608393223}, {"current_trial": 202, "trialdata": {"rt": -1, "trial_type": "single-stim", "stimulus": "<p id=\"stim\">6</p>", "internal_node_id": "0.0-153.0-4.0", "time_elapsed": 1134270, "key_press": -1, "trial_index": 202}, "uniqueid": "MTK2977:3GU1KF0O4J88O8S6OZBJVDHW87IPB6", "dateTime": 1519608394239}, {"current_trial": 203, "trialdata": {"rt": -1, "trial_type": "single-stim", "stimulus": "<p id=\"stim\">5</p>", "internal_node_id": "0.0-153.0-5.0", "time_elapsed": 1135285, "key_press": -1, "trial_index": 203}, "uniqueid": "MTK2977:3GU1KF0O4J88O8S6OZBJVDHW87IPB6", "dateTime": 1519608395254}, {"current_trial": 204, "trialdata": {"rt": -1, "trial_type": "single-stim", "stimulus": "<p id=\"stim\">4</p>", "internal_node_id": "0.0-153.0-6.0", "time_elapsed": 1136285, "key_press": -1, "trial_index": 204}, "uniqueid": "MTK2977:3GU1KF0O4J88O8S6OZBJVDHW87IPB6", "dateTime": 1519608396254}, {"current_trial": 205, "trialdata": {"rt": -1, "trial_type": "single-stim", "stimulus": "<p id=\"stim\">3</p>", "internal_node_id": "0.0-153.0-7.0", "time_elapsed": 1137285, "key_press": -1, "trial_index": 205}, "uniqueid": "MTK2977:3GU1KF0O4J88O8S6OZBJVDHW87IPB6", "dateTime": 1519608397254}, {"current_trial": 206, "trialdata": {"rt": -1, "trial_type": "single-stim", "stimulus": "<p id=\"stim\">2</p>", "internal_node_id": "0.0-153.0-8.0", "time_elapsed": 1138285, "key_press": -1, "trial_index": 206}, "uniqueid": "MTK2977:3GU1KF0O4J88O8S6OZBJVDHW87IPB6", "dateTime": 1519608398254}, {"current_trial": 207, "trialdata": {"rt": -1, "trial_type": "single-stim", "stimulus": "<p id=\"stim\">1</p>", "internal_node_id": "0.0-153.0-9.0", "time_elapsed": 1139301, "key_press": -1, "trial_index": 207}, "uniqueid": "MTK2977:3GU1KF0O4J88O8S6OZBJVDHW87IPB6", "dateTime": 1519608399270}, {"current_trial": 208, "trialdata": {"rt": -1, "trial_type": "single-stim", "stimulus": "<p id=\"stim\">+</p>", "internal_node_id": "0.0-154.0-0.0", "time_elapsed": 1140816, "key_press": -1, "type": "FIXATION", "trial_index": 208}, "uniqueid": "MTK2977:3GU1KF0O4J88O8S6OZBJVDHW87IPB6", "dateTime": 1519608400785}, {"current_trial": 209, "trialdata": {"rt": -1, "trial_type": "single-stim", "word": "beaker", "stimulus": "<p id=\"stim\">BEAKER</p>", "conditions": [12, 1600, "v", 24000], "internal_node_id": "0.0-155.0", "trial": 5, "time_elapsed": 1142428, "serialpos": 0, "key_press": -1, "wordID": 103, "type": "PRES_VIS", "trial_index": 209}, "uniqueid": "MTK2977:3GU1KF0O4J88O8S6OZBJVDHW87IPB6", "dateTime": 1519608402397}, {"current_trial": 210, "trialdata": {"rt": -1, "trial_type": "single-stim", "word": "virus", "stimulus": "<p id=\"stim\">VIRUS</p>", "conditions": [12, 1600, "v", 24000], "internal_node_id": "0.0-156.0", "trial": 5, "time_elapsed": 1144950, "serialpos": 1, "key_press": -1, "wordID": 1571, "type": "PRES_VIS", "trial_index": 210}, "uniqueid": "MTK2977:3GU1KF0O4J88O8S6OZBJVDHW87IPB6", "dateTime": 1519608404920}, {"current_trial": 211, "trialdata": {"rt": -1, "trial_type": "single-stim", "word": "staple", "stimulus": "<p id=\"stim\">STAPLE</p>", "conditions": [12, 1600, "v", 24000], "internal_node_id": "0.0-157.0", "trial": 5, "time_elapsed": 1147395, "serialpos": 2, "key_press": -1, "wordID": 1370, "type": "PRES_VIS", "trial_index": 211}, "uniqueid": "MTK2977:3GU1KF0O4J88O8S6OZBJVDHW87IPB6", "dateTime": 1519608407364}, {"current_trial": 212, "trialdata": {"rt": -1, "trial_type": "single-stim", "word": "bubble", "stimulus": "<p id=\"stim\">BUBBLE</p>", "conditions": [12, 1600, "v", 24000], "internal_node_id": "0.0-158.0", "trial": 5, "time_elapsed": 1150036, "serialpos": 3, "key_press": -1, "wordID": 182, "type": "PRES_VIS", "trial_index": 212}, "uniqueid": "MTK2977:3GU1KF0O4J88O8S6OZBJVDHW87IPB6", "dateTime": 1519608410005}, {"current_trial": 213, "trialdata": {"rt": -1, "trial_type": "single-stim", "word": "actor", "stimulus": "<p id=\"stim\">ACTOR</p>", "conditions": [12, 1600, "v", 24000], "internal_node_id": "0.0-159.0", "trial": 5, "time_elapsed": 1152645, "serialpos": 4, "key_press": -1, "wordID": 4, "type": "PRES_VIS", "trial_index": 213}, "uniqueid": "MTK2977:3GU1KF0O4J88O8S6OZBJVDHW87IPB6", "dateTime": 1519608412614}, {"current_trial": 214, "trialdata": {"rt": -1, "trial_type": "single-stim", "word": "film", "stimulus": "<p id=\"stim\">FILM</p>", "conditions": [12, 1600, "v", 24000], "internal_node_id": "0.0-160.0", "trial": 5, "time_elapsed": 1155427, "serialpos": 5, "key_press": -1, "wordID": 564, "type": "PRES_VIS", "trial_index": 214}, "uniqueid": "MTK2977:3GU1KF0O4J88O8S6OZBJVDHW87IPB6", "dateTime": 1519608415396}, {"current_trial": 215, "trialdata": {"rt": -1, "trial_type": "single-stim", "word": "lagoon", "stimulus": "<p id=\"stim\">LAGOON</p>", "conditions": [12, 1600, "v", 24000], "internal_node_id": "0.0-161.0", "trial": 5, "time_elapsed": 1158192, "serialpos": 6, "key_press": -1, "wordID": 794, "type": "PRES_VIS", "trial_index": 215}, "uniqueid": "MTK2977:3GU1KF0O4J88O8S6OZBJVDHW87IPB6", "dateTime": 1519608418161}, {"current_trial": 216, "trialdata": {"rt": -1, "trial_type": "single-stim", "word": "preacher", "stimulus": "<p id=\"stim\">PREACHER</p>", "conditions": [12, 1600, "v", 24000], "internal_node_id": "0.0-162.0", "trial": 5, "time_elapsed": 1160894, "serialpos": 7, "key_press": -1, "wordID": 1118, "type": "PRES_VIS", "trial_index": 216}, "uniqueid": "MTK2977:3GU1KF0O4J88O8S6OZBJVDHW87IPB6", "dateTime": 1519608420863}, {"current_trial": 217, "trialdata": {"rt": -1, "trial_type": "single-stim", "word": "catcher", "stimulus": "<p id=\"stim\">CATCHER</p>", "conditions": [12, 1600, "v", 24000], "internal_node_id": "0.0-163.0", "trial": 5, "time_elapsed": 1163519, "serialpos": 8, "key_press": -1, "wordID": 257, "type": "PRES_VIS", "trial_index": 217}, "uniqueid": "MTK2977:3GU1KF0O4J88O8S6OZBJVDHW87IPB6", "dateTime": 1519608423488}, {"current_trial": 218, "trialdata": {"rt": -1, "trial_type": "single-stim", "word": "banjo", "stimulus": "<p id=\"stim\">BANJO</p>", "conditions": [12, 1600, "v", 24000], "internal_node_id": "0.0-164.0", "trial": 5, "time_elapsed": 1166036, "serialpos": 9, "key_press": -1, "wordID": 81, "type": "PRES_VIS", "trial_index": 218}, "uniqueid": "MTK2977:3GU1KF0O4J88O8S6OZBJVDHW87IPB6", "dateTime": 1519608426005}, {"current_trial": 219, "trialdata": {"rt": -1, "trial_type": "single-stim", "word": "lake", "stimulus": "<p id=\"stim\">LAKE</p>", "conditions": [12, 1600, "v", 24000], "internal_node_id": "0.0-165.0", "trial": 5, "time_elapsed": 1168458, "serialpos": 10, "key_press": -1, "wordID": 795, "type": "PRES_VIS", "trial_index": 219}, "uniqueid": "MTK2977:3GU1KF0O4J88O8S6OZBJVDHW87IPB6", "dateTime": 1519608428427}, {"current_trial": 220, "trialdata": {"rt": -1, "trial_type": "single-stim", "word": "icing", "stimulus": "<p id=\"stim\">ICING</p>", "conditions": [12, 1600, "v", 24000], "internal_node_id": "0.0-166.0", "trial": 5, "time_elapsed": 1170878, "serialpos": 11, "key_press": -1, "wordID": 731, "type": "PRES_VIS", "trial_index": 220}, "uniqueid": "MTK2977:3GU1KF0O4J88O8S6OZBJVDHW87IPB6", "dateTime": 1519608430847}, {"current_trial": 221, "trialdata": {"rt": -1, "trial_type": "single-stim", "stimulus": "", "internal_node_id": "0.0-167.0-0.0", "time_elapsed": 1173328, "key_press": -1, "type": "PRE_RECALL_DELAY", "trial_index": 221}, "uniqueid": "MTK2977:3GU1KF0O4J88O8S6OZBJVDHW87IPB6", "dateTime": 1519608433297}, {"current_trial": 222, "trialdata": {"rt": -1000, "trial_type": "single-audio", "stimulus": "/static/audio/400Hz.wav", "internal_node_id": "0.0-168.0", "time_elapsed": 1173838, "key_press": -1, "type": "PRE_RECALL_ALERT", "trial_index": 222}, "uniqueid": "MTK2977:3GU1KF0O4J88O8S6OZBJVDHW87IPB6", "dateTime": 1519608433807}, {"current_trial": 223, "trialdata": {"rt": [3200, 5159, 7608, 13443, 17431, 21560, 24883, 29189, 33270], "recwords": ["banjo", "lake", "icing", "preacher", "lake", "beaker", "lagoon", "film", "actor"], "key_times": [1023, 1150, 1328, 1809, 2353, 3200, 3880, 4040, 4495, 4675, 5159, 6065, 6418, 6940, 7047, 7151, 7608, 8497, 8689, 8844, 8994, 9432, 9447, 10354, 10561, 11039, 11239, 11419, 11554, 12537, 12781, 12924, 12996, 13443, 15896, 16073, 16552, 16704, 17431, 20349, 20519, 20655, 20991, 21146, 21229, 21560, 22612, 22757, 23156, 23491, 23650, 24174, 24883, 27831, 28221, 28465, 28892, 29189, 32235, 32340, 32674, 32975, 33118, 33270], "trial_type": "free-recall", "conditions": [12, 1600, "v", 24000], "internal_node_id": "0.0-169.0-0.0", "key_presses": [66, 65, 78, 74, 79, 13, 76, 65, 75, 69, 13, 73, 67, 73, 78, 71, 13, 80, 82, 69, 65, 72, 67, 220, 220, 8, 8, 8, 8, 67, 72, 69, 82, 13, 76, 65, 75, 69, 13, 66, 69, 65, 75, 69, 82, 13, 76, 65, 71, 79, 79, 78, 13, 70, 73, 76, 77, 13, 65, 67, 84, 79, 82, 13], "trial": 5, "time_elapsed": 1233840, "type": "FREE_RECALL", "trial_index": 223}, "uniqueid": "MTK2977:3GU1KF0O4J88O8S6OZBJVDHW87IPB6", "dateTime": 1519608493809}, {"current_trial": 224, "trialdata": {"rt": 1872, "trial_type": "text", "internal_node_id": "0.0-170.0", "time_elapsed": 1237713, "key_press": 32, "type": "INSTRUCTIONS", "trial_index": 224}, "uniqueid": "MTK2977:3GU1KF0O4J88O8S6OZBJVDHW87IPB6", "dateTime": 1519608497682}, {"current_trial": 225, "trialdata": {"rt": [4057, 7516, 13932, 16518, 21462], "trial_type": "math-distractor", "key_times": [3152, 3328, 4057, 6695, 6835, 7516, 13025, 13286, 13932, 15758, 16119, 16518, 20839, 20954, 21462], "responses": ["18", "20", "25", "14", "18"], "num2": [3, 2, 9, 4, 9, 5], "num3": [6, 9, 8, 8, 4, 8], "conditions": [12, 800, "v", 24000], "internal_node_id": "0.0-171.0", "key_presses": [49, 56, 13, 50, 48, 13, 50, 53, 13, 49, 52, 13, 49, 56, 13], "trial": 6, "time_elapsed": 1263728, "type": "DISTRACTOR", "trial_index": 225, "num1": [9, 9, 8, 2, 5, 8]}, "uniqueid": "MTK2977:3GU1KF0O4J88O8S6OZBJVDHW87IPB6", "dateTime": 1519608523697}, {"current_trial": 226, "trialdata": {"rt": -1, "trial_type": "single-stim", "stimulus": "<p id=\"stim\">10</p>", "internal_node_id": "0.0-172.0-0.0", "time_elapsed": 1266750, "key_press": -1, "trial_index": 226}, "uniqueid": "MTK2977:3GU1KF0O4J88O8S6OZBJVDHW87IPB6", "dateTime": 1519608526719}, {"current_trial": 227, "trialdata": {"rt": -1, "trial_type": "single-stim", "stimulus": "<p id=\"stim\">9</p>", "internal_node_id": "0.0-172.0-1.0", "time_elapsed": 1267766, "key_press": -1, "trial_index": 227}, "uniqueid": "MTK2977:3GU1KF0O4J88O8S6OZBJVDHW87IPB6", "dateTime": 1519608527735}, {"current_trial": 228, "trialdata": {"rt": -1, "trial_type": "single-stim", "stimulus": "<p id=\"stim\">8</p>", "internal_node_id": "0.0-172.0-2.0", "time_elapsed": 1268781, "key_press": -1, "trial_index": 228}, "uniqueid": "MTK2977:3GU1KF0O4J88O8S6OZBJVDHW87IPB6", "dateTime": 1519608528750}, {"current_trial": 229, "trialdata": {"rt": -1, "trial_type": "single-stim", "stimulus": "<p id=\"stim\">7</p>", "internal_node_id": "0.0-172.0-3.0", "time_elapsed": 1269782, "key_press": -1, "trial_index": 229}, "uniqueid": "MTK2977:3GU1KF0O4J88O8S6OZBJVDHW87IPB6", "dateTime": 1519608529751}, {"current_trial": 230, "trialdata": {"rt": -1, "trial_type": "single-stim", "stimulus": "<p id=\"stim\">6</p>", "internal_node_id": "0.0-172.0-4.0", "time_elapsed": 1270797, "key_press": -1, "trial_index": 230}, "uniqueid": "MTK2977:3GU1KF0O4J88O8S6OZBJVDHW87IPB6", "dateTime": 1519608530766}, {"current_trial": 231, "trialdata": {"rt": -1, "trial_type": "single-stim", "stimulus": "<p id=\"stim\">5</p>", "internal_node_id": "0.0-172.0-5.0", "time_elapsed": 1271813, "key_press": -1, "trial_index": 231}, "uniqueid": "MTK2977:3GU1KF0O4J88O8S6OZBJVDHW87IPB6", "dateTime": 1519608531782}, {"current_trial": 232, "trialdata": {"rt": -1, "trial_type": "single-stim", "stimulus": "<p id=\"stim\">4</p>", "internal_node_id": "0.0-172.0-6.0", "time_elapsed": 1272826, "key_press": -1, "trial_index": 232}, "uniqueid": "MTK2977:3GU1KF0O4J88O8S6OZBJVDHW87IPB6", "dateTime": 1519608532795}, {"current_trial": 233, "trialdata": {"rt": -1, "trial_type": "single-stim", "stimulus": "<p id=\"stim\">3</p>", "internal_node_id": "0.0-172.0-7.0", "time_elapsed": 1273829, "key_press": -1, "trial_index": 233}, "uniqueid": "MTK2977:3GU1KF0O4J88O8S6OZBJVDHW87IPB6", "dateTime": 1519608533798}, {"current_trial": 234, "trialdata": {"rt": -1, "trial_type": "single-stim", "stimulus": "<p id=\"stim\">2</p>", "internal_node_id": "0.0-172.0-8.0", "time_elapsed": 1274829, "key_press": -1, "trial_index": 234}, "uniqueid": "MTK2977:3GU1KF0O4J88O8S6OZBJVDHW87IPB6", "dateTime": 1519608534798}, {"current_trial": 235, "trialdata": {"rt": -1, "trial_type": "single-stim", "stimulus": "<p id=\"stim\">1</p>", "internal_node_id": "0.0-172.0-9.0", "time_elapsed": 1275829, "key_press": -1, "trial_index": 235}, "uniqueid": "MTK2977:3GU1KF0O4J88O8S6OZBJVDHW87IPB6", "dateTime": 1519608535798}, {"current_trial": 236, "trialdata": {"rt": -1, "trial_type": "single-stim", "stimulus": "<p id=\"stim\">+</p>", "internal_node_id": "0.0-173.0-0.0", "time_elapsed": 1277329, "key_press": -1, "type": "FIXATION", "trial_index": 236}, "uniqueid": "MTK2977:3GU1KF0O4J88O8S6OZBJVDHW87IPB6", "dateTime": 1519608537298}, {"current_trial": 237, "trialdata": {"rt": -1, "trial_type": "single-stim", "word": "friend", "stimulus": "<p id=\"stim\">FRIEND</p>", "conditions": [12, 800, "v", 24000], "internal_node_id": "0.0-174.0", "trial": 6, "time_elapsed": 1278138, "serialpos": 0, "key_press": -1, "wordID": 605, "type": "PRES_VIS", "trial_index": 237}, "uniqueid": "MTK2977:3GU1KF0O4J88O8S6OZBJVDHW87IPB6", "dateTime": 1519608538107}, {"current_trial": 238, "trialdata": {"rt": -1, "trial_type": "single-stim", "word": "radish", "stimulus": "<p id=\"stim\">RADISH</p>", "conditions": [12, 800, "v", 24000], "internal_node_id": "0.0-175.0", "trial": 6, "time_elapsed": 1279766, "serialpos": 1, "key_press": -1, "wordID": 1157, "type": "PRES_VIS", "trial_index": 238}, "uniqueid": "MTK2977:3GU1KF0O4J88O8S6OZBJVDHW87IPB6", "dateTime": 1519608539735}, {"current_trial": 239, "trialdata": {"rt": -1, "trial_type": "single-stim", "word": "silk", "stimulus": "<p id=\"stim\">SILK</p>", "conditions": [12, 800, "v", 24000], "internal_node_id": "0.0-176.0", "trial": 6, "time_elapsed": 1281766, "serialpos": 2, "key_press": -1, "wordID": 1306, "type": "PRES_VIS", "trial_index": 239}, "uniqueid": "MTK2977:3GU1KF0O4J88O8S6OZBJVDHW87IPB6", "dateTime": 1519608541735}, {"current_trial": 240, "trialdata": {"rt": -1, "trial_type": "single-stim", "word": "salmon", "stimulus": "<p id=\"stim\">SALMON</p>", "conditions": [12, 800, "v", 24000], "internal_node_id": "0.0-177.0", "trial": 6, "time_elapsed": 1283594, "serialpos": 3, "key_press": -1, "wordID": 1226, "type": "PRES_VIS", "trial_index": 240}, "uniqueid": "MTK2977:3GU1KF0O4J88O8S6OZBJVDHW87IPB6", "dateTime": 1519608543563}, {"current_trial": 241, "trialdata": {"rt": -1, "trial_type": "single-stim", "word": "apple", "stimulus": "<p id=\"stim\">APPLE</p>", "conditions": [12, 800, "v", 24000], "internal_node_id": "0.0-178.0", "trial": 6, "time_elapsed": 1285357, "serialpos": 4, "key_press": -1, "wordID": 32, "type": "PRES_VIS", "trial_index": 241}, "uniqueid": "MTK2977:3GU1KF0O4J88O8S6OZBJVDHW87IPB6", "dateTime": 1519608545326}, {"current_trial": 242, "trialdata": {"rt": -1, "trial_type": "single-stim", "word": "woman", "stimulus": "<p id=\"stim\">WOMAN</p>", "conditions": [12, 800, "v", 24000], "internal_node_id": "0.0-179.0", "trial": 6, "time_elapsed": 1287268, "serialpos": 5, "key_press": -1, "wordID": 1619, "type": "PRES_VIS", "trial_index": 242}, "uniqueid": "MTK2977:3GU1KF0O4J88O8S6OZBJVDHW87IPB6", "dateTime": 1519608547237}, {"current_trial": 243, "trialdata": {"rt": -1, "trial_type": "single-stim", "word": "twister", "stimulus": "<p id=\"stim\">TWISTER</p>", "conditions": [12, 800, "v", 24000], "internal_node_id": "0.0-180.0", "trial": 6, "time_elapsed": 1288971, "serialpos": 6, "key_press": -1, "wordID": 1529, "type": "PRES_VIS", "trial_index": 243}, "uniqueid": "MTK2977:3GU1KF0O4J88O8S6OZBJVDHW87IPB6", "dateTime": 1519608548940}, {"current_trial": 244, "trialdata": {"rt": -1, "trial_type": "single-stim", "word": "partner", "stimulus": "<p id=\"stim\">PARTNER</p>", "conditions": [12, 800, "v", 24000], "internal_node_id": "0.0-181.0", "trial": 6, "time_elapsed": 1290707, "serialpos": 7, "key_press": -1, "wordID": 1016, "type": "PRES_VIS", "trial_index": 244}, "uniqueid": "MTK2977:3GU1KF0O4J88O8S6OZBJVDHW87IPB6", "dateTime": 1519608550676}, {"current_trial": 245, "trialdata": {"rt": -1, "trial_type": "single-stim", "word": "garlic", "stimulus": "<p id=\"stim\">GARLIC</p>", "conditions": [12, 800, "v", 24000], "internal_node_id": "0.0-182.0", "trial": 6, "time_elapsed": 1292517, "serialpos": 8, "key_press": -1, "wordID": 623, "type": "PRES_VIS", "trial_index": 245}, "uniqueid": "MTK2977:3GU1KF0O4J88O8S6OZBJVDHW87IPB6", "dateTime": 1519608552486}, {"current_trial": 246, "trialdata": {"rt": -1, "trial_type": "single-stim", "word": "puddle", "stimulus": "<p id=\"stim\">PUDDLE</p>", "conditions": [12, 800, "v", 24000], "internal_node_id": "0.0-183.0", "trial": 6, "time_elapsed": 1294327, "serialpos": 9, "key_press": -1, "wordID": 1139, "type": "PRES_VIS", "trial_index": 246}, "uniqueid": "MTK2977:3GU1KF0O4J88O8S6OZBJVDHW87IPB6", "dateTime": 1519608554296}, {"current_trial": 247, "trialdata": {"rt": -1, "trial_type": "single-stim", "word": "waitress", "stimulus": "<p id=\"stim\">WAITRESS</p>", "conditions": [12, 800, "v", 24000], "internal_node_id": "0.0-184.0", "trial": 6, "time_elapsed": 1295954, "serialpos": 10, "key_press": -1, "wordID": 1580, "type": "PRES_VIS", "trial_index": 247}, "uniqueid": "MTK2977:3GU1KF0O4J88O8S6OZBJVDHW87IPB6", "dateTime": 1519608555923}, {"current_trial": 248, "trialdata": {"rt": -1, "trial_type": "single-stim", "word": "waiter", "stimulus": "<p id=\"stim\">WAITER</p>", "conditions": [12, 800, "v", 24000], "internal_node_id": "0.0-185.0", "trial": 6, "time_elapsed": 1297577, "serialpos": 11, "key_press": -1, "wordID": 1579, "type": "PRES_VIS", "trial_index": 248}, "uniqueid": "MTK2977:3GU1KF0O4J88O8S6OZBJVDHW87IPB6", "dateTime": 1519608557546}, {"current_trial": 249, "trialdata": {"rt": -1, "trial_type": "single-stim", "stimulus": "", "internal_node_id": "0.0-186.0-0.0", "time_elapsed": 1299887, "key_press": -1, "type": "PRE_RECALL_DELAY", "trial_index": 249}, "uniqueid": "MTK2977:3GU1KF0O4J88O8S6OZBJVDHW87IPB6", "dateTime": 1519608559856}, {"current_trial": 250, "trialdata": {"rt": -1000, "trial_type": "single-audio", "stimulus": "/static/audio/400Hz.wav", "internal_node_id": "0.0-187.0", "time_elapsed": 1300397, "key_press": -1, "type": "PRE_RECALL_ALERT", "trial_index": 250}, "uniqueid": "MTK2977:3GU1KF0O4J88O8S6OZBJVDHW87IPB6", "dateTime": 1519608560366}, {"current_trial": 251, "trialdata": {"rt": [2307, 7099, 9714, 12717, 14840, 21582, 28500, 35776], "recwords": ["waiter", "waitress", "partner", "friend", "woman", "radish", "salmon", "tuna"], "key_times": [653, 785, 1053, 1461, 1695, 1800, 2307, 3662, 3814, 4308, 5743, 5906, 6003, 6448, 6592, 7099, 8114, 8255, 8451, 8733, 9057, 9168, 9255, 9714, 10920, 11147, 11412, 11607, 12100, 12236, 12717, 13717, 13868, 13988, 14149, 14348, 14840, 17018, 17311, 19338, 19652, 19865, 20206, 20383, 20781, 21582, 26982, 27199, 27387, 27856, 28051, 28162, 28500, 32669, 32927, 33244, 34838, 35313, 35486, 35776], "trial_type": "free-recall", "conditions": [12, 800, "v", 24000], "internal_node_id": "0.0-188.0-0.0", "key_presses": [87, 65, 73, 84, 69, 82, 13, 87, 65, 73, 84, 82, 69, 83, 83, 13, 80, 65, 82, 84, 78, 69, 82, 13, 70, 82, 73, 69, 78, 68, 13, 87, 79, 77, 65, 78, 13, 82, 68, 8, 65, 68, 73, 83, 72, 13, 83, 65, 76, 77, 79, 78, 13, 84, 85, 66, 8, 78, 65, 13], "trial": 6, "time_elapsed": 1360396, "type": "FREE_RECALL", "trial_index": 251}, "uniqueid": "MTK2977:3GU1KF0O4J88O8S6OZBJVDHW87IPB6", 