{"assignmentId": "3I2PTA7R3U1UHNXFUP31ULQWX5JQK1", "workerId": "MTK2047", "questiondata": {"origin": "United States", "strat-rehearsal": "87", "marital": "Married/Domestic Partnership", "education": "Master's degree", "ethnicity": "Hispanic", "color_depth": 24, "distracted": "No", "wrote-notes": "No", "strat-other": "", "screen_width": 1366, "avail_screen_width": 1366, "avail_screen_height": 728, "strat-image": "63", "language": "English", "gender": "Female", "age": "36", "gender_other": "", "race": ["Black"], "strat-categorize": "93", "pixel_depth": 24, "strat-spatial": "14", "strat-story": "88", "race_other": "", "screen_height": 768}, "bonus": 0, "hitId": "34OWYT6U3WOVW9SBNI216QPADL4I9L", "counterbalance": 197, "useragent": "Mozilla/5.0 (Windows NT 6.3; Win64; x64) AppleWebKit/537.36 (KHTML, like Gecko) Chrome/63.0.3239.132 Safari/537.36", "eventdata": [{"eventtype": "initialized", "interval": 0, "value": null, "timestamp": 1516655305470}, {"eventtype": "window_resize", "interval": 1, "value": [1362, 713], "timestamp": 1516655305471}, {"eventtype": "window_resize", "interval": 2835, "value": [1366, 677], "timestamp": 1516655308306}], "data": [{"current_trial": 0, "trialdata": {"rt": 3875, "trial_type": "text", "internal_node_id": "0.0-0.0", "time_elapsed": 3896, "key_press": 32, "type": "INSTRUCTIONS", "trial_index": 0}, "uniqueid": "MTK2047:3I2PTA7R3U1UHNXFUP31ULQWX5JQK1", "dateTime": 1516655310147}, {"current_trial": 1, "trialdata": {"rt": 31439, "trial_type": "text", "internal_node_id": "0.0-1.0", "time_elapsed": 35343, "key_press": 32, "type": "INSTRUCTIONS", "trial_index": 1}, "uniqueid": "MTK2047:3I2PTA7R3U1UHNXFUP31ULQWX5JQK1", "dateTime": 1516655341592}, {"current_trial": 2, "trialdata": {"rt": [22655], "trial_type": "audio-test", "responses": ["ocean"], "internal_node_id": "0.0-2.0", "time_elapsed": 58048, "type": "AUDIO_TEST", "trial_index": 2}, "uniqueid": "MTK2047:3I2PTA7R3U1UHNXFUP31ULQWX5JQK1", "dateTime": 1516655364298}, {"current_trial": 3, "trialdata": {"rt": [15455], "trial_type": "audio-test", "responses": ["crystal"], "internal_node_id": "0.0-3.0", "time_elapsed": 73523, "type": "AUDIO_TEST", "trial_index": 3}, "uniqueid": "MTK2047:3I2PTA7R3U1UHNXFUP31ULQWX5JQK1", "dateTime": 1516655379772}, {"current_trial": 4, "trialdata": {"rt": [12010], "trial_type": "audio-test", "responses": ["spice"], "internal_node_id": "0.0-4.0", "time_elapsed": 85549, "type": "AUDIO_TEST", "trial_index": 4}, "uniqueid": "MTK2047:3I2PTA7R3U1UHNXFUP31ULQWX5JQK1", "dateTime": 1516655391798}, {"current_trial": 5, "trialdata": {"rt": 22617, "trial_type": "survey-text", "responses": "{\"Q0\":\"10 pm\",\"Q1\":\"7 am\",\"Q2\":\"5\"}", "internal_node_id": "0.0-5.0", "time_elapsed": 108927, "type": "SLEEP_SURVEY", "trial_index": 5}, "uniqueid": "MTK2047:3I2PTA7R3U1UHNXFUP31ULQWX5JQK1", "dateTime": 1516655415176}, {"current_trial": 6, "trialdata": {"rt": 32380, "trial_type": "text", "internal_node_id": "0.0-6.0", "time_elapsed": 142311, "key_press": 32, "type": "INSTRUCTIONS", "trial_index": 6}, "uniqueid": "MTK2047:3I2PTA7R3U1UHNXFUP31ULQWX5JQK1", "dateTime": 1516655448560}, {"current_trial": 7, "trialdata": {"rt": 18395, "trial_type": "text", "internal_node_id": "0.0-7.0", "time_elapsed": 161211, "key_press": 32, "type": "INSTRUCTIONS", "trial_index": 7}, "uniqueid": "MTK2047:3I2PTA7R3U1UHNXFUP31ULQWX5JQK1", "dateTime": 1516655467460}, {"current_trial": 8, "trialdata": {"rt": 11921, "trial_type": "text", "internal_node_id": "0.0-8.0", "time_elapsed": 173638, "key_press": 32, "type": "INSTRUCTIONS", "trial_index": 8}, "uniqueid": "MTK2047:3I2PTA7R3U1UHNXFUP31ULQWX5JQK1", "dateTime": 1516655479888}, {"current_trial": 9, "trialdata": {"rt": [8120, 14161], "trial_type": "math-distractor", "key_times": [6747, 7401, 8120, 13224, 13684, 14161], "responses": ["17", "18"], "num2": [9, 7, 4], "num3": [6, 5, 4], "conditions": [18, 1200, "v", 18000], "internal_node_id": "0.0-9.0", "key_presses": [49, 55, 13, 49, 56, 13], "trial": 0, "time_elapsed": 192661, "type": "DISTRACTOR", "trial_index": 9, "num1": [2, 6, 5]}, "uniqueid": "MTK2047:3I2PTA7R3U1UHNXFUP31ULQWX5JQK1", "dateTime": 1516655498912}, {"current_trial": 10, "trialdata": {"rt": -1, "trial_type": "single-stim", "stimulus": "<p id=\"stim\">10</p>", "internal_node_id": "0.0-10.0-0.0", "time_elapsed": 195677, "key_press": -1, "trial_index": 10}, "uniqueid": "MTK2047:3I2PTA7R3U1UHNXFUP31ULQWX5JQK1", "dateTime": 1516655501927}, {"current_trial": 11, "trialdata": {"rt": -1, "trial_type": "single-stim", "stimulus": "<p id=\"stim\">9</p>", "internal_node_id": "0.0-10.0-1.0", "time_elapsed": 196683, "key_press": -1, "trial_index": 11}, "uniqueid": "MTK2047:3I2PTA7R3U1UHNXFUP31ULQWX5JQK1", "dateTime": 1516655502933}, {"current_trial": 12, "trialdata": {"rt": -1, "trial_type": "single-stim", "stimulus": "<p id=\"stim\">8</p>", "internal_node_id": "0.0-10.0-2.0", "time_elapsed": 197688, "key_press": -1, "trial_index": 12}, "uniqueid": "MTK2047:3I2PTA7R3U1UHNXFUP31ULQWX5JQK1", "dateTime": 1516655503937}, {"current_trial": 13, "trialdata": {"rt": -1, "trial_type": "single-stim", "stimulus": "<p id=\"stim\">7</p>", "internal_node_id": "0.0-10.0-3.0", "time_elapsed": 198692, "key_press": -1, "trial_index": 13}, "uniqueid": "MTK2047:3I2PTA7R3U1UHNXFUP31ULQWX5JQK1", "dateTime": 1516655504942}, {"current_trial": 14, "trialdata": {"rt": -1, "trial_type": "single-stim", "stimulus": "<p id=\"stim\">6</p>", "internal_node_id": "0.0-10.0-4.0", "time_elapsed": 199698, "key_press": -1, "trial_index": 14}, "uniqueid": "MTK2047:3I2PTA7R3U1UHNXFUP31ULQWX5JQK1", "dateTime": 1516655505947}, {"current_trial": 15, "trialdata": {"rt": -1, "trial_type": "single-stim", "stimulus": "<p id=\"stim\">5</p>", "internal_node_id": "0.0-10.0-5.0", "time_elapsed": 200703, "key_press": -1, "trial_index": 15}, "uniqueid": "MTK2047:3I2PTA7R3U1UHNXFUP31ULQWX5JQK1", "dateTime": 1516655506952}, {"current_trial": 16, "trialdata": {"rt": -1, "trial_type": "single-stim", "stimulus": "<p id=\"stim\">4</p>", "internal_node_id": "0.0-10.0-6.0", "time_elapsed": 201706, "key_press": -1, "trial_index": 16}, "uniqueid": "MTK2047:3I2PTA7R3U1UHNXFUP31ULQWX5JQK1", "dateTime": 1516655507956}, {"current_trial": 17, "trialdata": {"rt": -1, "trial_type": "single-stim", "stimulus": "<p id=\"stim\">3</p>", "internal_node_id": "0.0-10.0-7.0", "time_elapsed": 202715, "key_press": -1, "trial_index": 17}, "uniqueid": "MTK2047:3I2PTA7R3U1UHNXFUP31ULQWX5JQK1", "dateTime": 1516655508966}, {"current_trial": 18, "trialdata": {"rt": -1, "trial_type": "single-stim", "stimulus": "<p id=\"stim\">2</p>", "internal_node_id": "0.0-10.0-8.0", "time_elapsed": 203721, "key_press": -1, "trial_index": 18}, "uniqueid": "MTK2047:3I2PTA7R3U1UHNXFUP31ULQWX5JQK1", "dateTime": 1516655509970}, {"current_trial": 19, "trialdata": {"rt": -1, "trial_type": "single-stim", "stimulus": "<p id=\"stim\">1</p>", "internal_node_id": "0.0-10.0-9.0", "time_elapsed": 204726, "key_press": -1, "trial_index": 19}, "uniqueid": "MTK2047:3I2PTA7R3U1UHNXFUP31ULQWX5JQK1", "dateTime": 1516655510975}, {"current_trial": 20, "trialdata": {"rt": -1, "trial_type": "single-stim", "stimulus": "<p id=\"stim\">+</p>", "internal_node_id": "0.0-11.0-0.0", "time_elapsed": 206232, "key_press": -1, "type": "FIXATION", "trial_index": 20}, "uniqueid": "MTK2047:3I2PTA7R3U1UHNXFUP31ULQWX5JQK1", "dateTime": 1516655512481}, {"current_trial": 21, "trialdata": {"rt": -1, "trial_type": "single-stim", "word": "denim", "stimulus": "<p id=\"stim\">DENIM</p>", "conditions": [18, 1200, "v", 18000], "internal_node_id": "0.0-12.0", "trial": 0, "time_elapsed": 207436, "serialpos": 0, "key_press": -1, "wordID": 445, "type": "PRES_VIS", "trial_index": 21}, "uniqueid": "MTK2047:3I2PTA7R3U1UHNXFUP31ULQWX5JQK1", "dateTime": 1516655513686}, {"current_trial": 22, "trialdata": {"rt": -1, "trial_type": "single-stim", "word": "hound", "stimulus": "<p id=\"stim\">HOUND</p>", "conditions": [18, 1200, "v", 18000], "internal_node_id": "0.0-13.0", "trial": 0, "time_elapsed": 209506, "serialpos": 1, "key_press": -1, "wordID": 723, "type": "PRES_VIS", "trial_index": 22}, "uniqueid": "MTK2047:3I2PTA7R3U1UHNXFUP31ULQWX5JQK1", "dateTime": 1516655515755}, {"current_trial": 23, "trialdata": {"rt": -1, "trial_type": "single-stim", "word": "chipmunk", "stimulus": "<p id=\"stim\">CHIPMUNK</p>", "conditions": [18, 1200, "v", 18000], "internal_node_id": "0.0-14.0", "trial": 0, "time_elapsed": 211511, "serialpos": 2, "key_press": -1, "wordID": 303, "type": "PRES_VIS", "trial_index": 23}, "uniqueid": "MTK2047:3I2PTA7R3U1UHNXFUP31ULQWX5JQK1", "dateTime": 1516655517761}, {"current_trial": 24, "trialdata": {"rt": -1, "trial_type": "single-stim", "word": "knife", "stimulus": "<p id=\"stim\">KNIFE</p>", "conditions": [18, 1200, "v", 18000], "internal_node_id": "0.0-15.0", "trial": 0, "time_elapsed": 213660, "serialpos": 3, "key_press": -1, "wordID": 784, "type": "PRES_VIS", "trial_index": 24}, "uniqueid": "MTK2047:3I2PTA7R3U1UHNXFUP31ULQWX5JQK1", "dateTime": 1516655519910}, {"current_trial": 25, "trialdata": {"rt": -1, "trial_type": "single-stim", "word": "xerox", "stimulus": "<p id=\"stim\">XEROX</p>", "conditions": [18, 1200, "v", 18000], "internal_node_id": "0.0-16.0", "trial": 0, "time_elapsed": 215786, "serialpos": 4, "key_press": -1, "wordID": 1627, "type": "PRES_VIS", "trial_index": 25}, "uniqueid": "MTK2047:3I2PTA7R3U1UHNXFUP31ULQWX5JQK1", "dateTime": 1516655522035}, {"current_trial": 26, "trialdata": {"rt": -1, "trial_type": "single-stim", "word": "shoulder", "stimulus": "<p id=\"stim\">SHOULDER</p>", "conditions": [18, 1200, "v", 18000], "internal_node_id": "0.0-17.0", "trial": 0, "time_elapsed": 217887, "serialpos": 5, "key_press": -1, "wordID": 1293, "type": "PRES_VIS", "trial_index": 26}, "uniqueid": "MTK2047:3I2PTA7R3U1UHNXFUP31ULQWX5JQK1", "dateTime": 1516655524136}, {"current_trial": 27, "trialdata": {"rt": -1, "trial_type": "single-stim", "word": "cellar", "stimulus": "<p id=\"stim\">CELLAR</p>", "conditions": [18, 1200, "v", 18000], "internal_node_id": "0.0-18.0", "trial": 0, "time_elapsed": 220234, "serialpos": 6, "key_press": -1, "wordID": 266, "type": "PRES_VIS", "trial_index": 27}, "uniqueid": "MTK2047:3I2PTA7R3U1UHNXFUP31ULQWX5JQK1", "dateTime": 1516655526483}, {"current_trial": 28, "trialdata": {"rt": -1, "trial_type": "single-stim", "word": "church", "stimulus": "<p id=\"stim\">CHURCH</p>", "conditions": [18, 1200, "v", 18000], "internal_node_id": "0.0-19.0", "trial": 0, "time_elapsed": 222501, "serialpos": 7, "key_press": -1, "wordID": 306, "type": "PRES_VIS", "trial_index": 28}, "uniqueid": "MTK2047:3I2PTA7R3U1UHNXFUP31ULQWX5JQK1", "dateTime": 1516655528750}, {"current_trial": 29, "trialdata": {"rt": -1, "trial_type": "single-stim", "word": "custard", "stimulus": "<p id=\"stim\">CUSTARD</p>", "conditions": [18, 1200, "v", 18000], "internal_node_id": "0.0-20.0", "trial": 0, "time_elapsed": 224646, "serialpos": 8, "key_press": -1, "wordID": 428, "type": "PRES_VIS", "trial_index": 29}, "uniqueid": "MTK2047:3I2PTA7R3U1UHNXFUP31ULQWX5JQK1", "dateTime": 1516655530896}, {"current_trial": 30, "trialdata": {"rt": -1, "trial_type": "single-stim", "word": "valley", "stimulus": "<p id=\"stim\">VALLEY</p>", "conditions": [18, 1200, "v", 18000], "internal_node_id": "0.0-21.0", "trial": 0, "time_elapsed": 226813, "serialpos": 9, "key_press": -1, "wordID": 1544, "type": "PRES_VIS", "trial_index": 30}, "uniqueid": "MTK2047:3I2PTA7R3U1UHNXFUP31ULQWX5JQK1", "dateTime": 1516655533063}, {"current_trial": 31, "trialdata": {"rt": -1, "trial_type": "single-stim", "word": "patrol", "stimulus": "<p id=\"stim\">PATROL</p>", "conditions": [18, 1200, "v", 18000], "internal_node_id": "0.0-22.0", "trial": 0, "time_elapsed": 229086, "serialpos": 10, "key_press": -1, "wordID": 1026, "type": "PRES_VIS", "trial_index": 31}, "uniqueid": "MTK2047:3I2PTA7R3U1UHNXFUP31ULQWX5JQK1", "dateTime": 1516655535335}, {"current_trial": 32, "trialdata": {"rt": -1, "trial_type": "single-stim", "word": "branch", "stimulus": "<p id=\"stim\">BRANCH</p>", "conditions": [18, 1200, "v", 18000], "internal_node_id": "0.0-23.0", "trial": 0, "time_elapsed": 231148, "serialpos": 11, "key_press": -1, "wordID": 167, "type": "PRES_VIS", "trial_index": 32}, "uniqueid": "MTK2047:3I2PTA7R3U1UHNXFUP31ULQWX5JQK1", "dateTime": 1516655537397}, {"current_trial": 33, "trialdata": {"rt": -1, "trial_type": "single-stim", "word": "perfume", "stimulus": "<p id=\"stim\">PERFUME</p>", "conditions": [18, 1200, "v", 18000], "internal_node_id": "0.0-24.0", "trial": 0, "time_elapsed": 233219, "serialpos": 12, "key_press": -1, "wordID": 1048, "type": "PRES_VIS", "trial_index": 33}, "uniqueid": "MTK2047:3I2PTA7R3U1UHNXFUP31ULQWX5JQK1", "dateTime": 1516655539469}, {"current_trial": 34, "trialdata": {"rt": -1, "trial_type": "single-stim", "word": "hedge", "stimulus": "<p id=\"stim\">HEDGE</p>", "conditions": [18, 1200, "v", 18000], "internal_node_id": "0.0-25.0", "trial": 0, "time_elapsed": 235232, "serialpos": 13, "key_press": -1, "wordID": 698, "type": "PRES_VIS", "trial_index": 34}, "uniqueid": "MTK2047:3I2PTA7R3U1UHNXFUP31ULQWX5JQK1", "dateTime": 1516655541481}, {"current_trial": 35, "trialdata": {"rt": -1, "trial_type": "single-stim", "word": "sausage", "stimulus": "<p id=\"stim\">SAUSAGE</p>", "conditions": [18, 1200, "v", 18000], "internal_node_id": "0.0-26.0", "trial": 0, "time_elapsed": 237486, "serialpos": 14, "key_press": -1, "wordID": 1237, "type": "PRES_VIS", "trial_index": 35}, "uniqueid": "MTK2047:3I2PTA7R3U1UHNXFUP31ULQWX5JQK1", "dateTime": 1516655543736}, {"current_trial": 36, "trialdata": {"rt": -1, "trial_type": "single-stim", "word": "helmet", "stimulus": "<p id=\"stim\">HELMET</p>", "conditions": [18, 1200, "v", 18000], "internal_node_id": "0.0-27.0", "trial": 0, "time_elapsed": 239512, "serialpos": 15, "key_press": -1, "wordID": 701, "type": "PRES_VIS", "trial_index": 36}, "uniqueid": "MTK2047:3I2PTA7R3U1UHNXFUP31ULQWX5JQK1", "dateTime": 1516655545761}, {"current_trial": 37, "trialdata": {"rt": -1, "trial_type": "single-stim", "word": "toaster", "stimulus": "<p id=\"stim\">TOASTER</p>", "conditions": [18, 1200, "v", 18000], "internal_node_id": "0.0-28.0", "trial": 0, "time_elapsed": 241770, "serialpos": 16, "key_press": -1, "wordID": 1471, "type": "PRES_VIS", "trial_index": 37}, "uniqueid": "MTK2047:3I2PTA7R3U1UHNXFUP31ULQWX5JQK1", "dateTime": 1516655548020}, {"current_trial": 38, "trialdata": {"rt": -1, "trial_type": "single-stim", "word": "waitress", "stimulus": "<p id=\"stim\">WAITRESS</p>", "conditions": [18, 1200, "v", 18000], "internal_node_id": "0.0-29.0", "trial": 0, "time_elapsed": 243940, "serialpos": 17, "key_press": -1, "wordID": 1580, "type": "PRES_VIS", "trial_index": 38}, "uniqueid": "MTK2047:3I2PTA7R3U1UHNXFUP31ULQWX5JQK1", "dateTime": 1516655550189}, {"current_trial": 39, "trialdata": {"rt": -1, "trial_type": "single-stim", "stimulus": "", "internal_node_id": "0.0-30.0-0.0", "time_elapsed": 246383, "key_press": -1, "type": "PRE_RECALL_DELAY", "trial_index": 39}, "uniqueid": "MTK2047:3I2PTA7R3U1UHNXFUP31ULQWX5JQK1", "dateTime": 1516655552632}, {"current_trial": 40, "trialdata": {"rt": -1000, "trial_type": "single-audio", "stimulus": "/static/audio/400Hz.wav", "internal_node_id": "0.0-31.0", "time_elapsed": 246895, "key_press": -1, "type": "PRE_RECALL_ALERT", "trial_index": 40}, "uniqueid": "MTK2047:3I2PTA7R3U1UHNXFUP31ULQWX5JQK1", "dateTime": 1516655553144}, {"current_trial": 41, "trialdata": {"rt": [6252, 8322, 10114, 12084, 13933, 19379, 22658, 26225, 29341, 33120, 35138, 40404, 44840, 48082, 52837], "recwords": ["denim", "hound", "branch", "church", "helmet", "perfume", "xereox", "shoulder", "custard", "cvhipmunk", "patrol", "sausage", "hedge", "cellar", "knife"], "key_times": [3430, 4097, 4366, 4613, 4887, 5374, 5622, 5799, 5967, 6252, 7061, 7255, 7451, 7614, 8009, 8322, 8709, 8914, 9023, 9216, 9616, 9845, 10114, 10544, 10748, 11163, 11369, 11572, 11764, 12084, 12581, 12678, 13078, 13305, 13481, 13629, 13933, 17789, 18146, 18290, 18485, 18810, 19047, 19142, 19379, 21428, 21689, 21826, 21878, 22105, 22450, 22658, 24453, 24732, 24960, 25131, 25322, 25595, 25736, 25843, 26225, 27518, 27757, 27868, 27961, 28191, 28333, 29007, 29341, 30533, 30560, 30853, 31382, 31571, 31869, 32116, 32313, 32790, 33120, 33922, 34037, 34231, 34422, 34680, 34846, 35138, 38845, 39085, 39245, 39664, 39902, 40019, 40168, 40404, 42395, 42707, 42944, 43011, 43222, 43642, 44227, 44444, 44534, 44840, 46938, 47037, 47207, 47352, 47451, 47735, 48082, 51605, 51794, 52013, 52505, 52612, 52837], "trial_type": "free-recall", "conditions": [18, 1200, "v", 18000], "internal_node_id": "0.0-32.0-0.0", "key_presses": [70, 8, 68, 69, 77, 8, 78, 73, 77, 13, 72, 79, 85, 78, 68, 13, 66, 82, 65, 78, 67, 72, 13, 67, 72, 85, 82, 67, 72, 13, 72, 69, 76, 77, 69, 84, 13, 80, 69, 82, 70, 85, 77, 69, 13, 88, 69, 82, 69, 79, 88, 13, 83, 72, 79, 85, 76, 68, 69, 82, 13, 67, 85, 83, 84, 65, 82, 68, 13, 67, 86, 72, 73, 80, 77, 85, 78, 75, 13, 80, 65, 84, 82, 79, 76, 13, 83, 65, 85, 83, 65, 71, 69, 13, 71, 8, 72, 69, 70, 8, 68, 71, 69, 13, 67, 69, 76, 76, 65, 82, 13, 75, 78, 73, 70, 69, 13], "trial": 0, "time_elapsed": 306908, "type": "FREE_RECALL", "trial_index": 41}, "uniqueid": "MTK2047:3I2PTA7R3U1UHNXFUP31ULQWX5JQK1", "dateTime": 1516655613169}, {"current_trial": 42, "trialdata": {"rt": 1828, "trial_type": "text", "internal_node_id": "0.0-33.0", "time_elapsed": 310751, "key_press": 32, "type": "INSTRUCTIONS", "trial_index": 42}, "uniqueid": "MTK2047:3I2PTA7R3U1UHNXFUP31ULQWX5JQK1", "dateTime": 1516655617001}, {"current_trial": 43, "trialdata": {"rt": [7729, 14741], "trial_type": "math-distractor", "key_times": [7213, 7461, 7729, 14072, 14234, 14741, 17425, 17775], "responses": ["23", "22"], "num2": [7, 9, 4], "num3": [7, 5, 3], "conditions": [18, 1200, "v", 18000], "internal_node_id": "0.0-34.0", "key_presses": [50, 51, 13, 50, 50, 13, 49, 53], "trial": 1, "time_elapsed": 330768, "type": "DISTRACTOR", "trial_index": 43, "num1": [9, 8, 8]}, "uniqueid": "MTK2047:3I2PTA7R3U1UHNXFUP31ULQWX5JQK1", "dateTime": 1516655637017}, {"current_trial": 44, "trialdata": {"rt": -1, "trial_type": "single-stim", "stimulus": "<p id=\"stim\">10</p>", "internal_node_id": "0.0-35.0-0.0", "time_elapsed": 333775, "key_press": -1, "trial_index": 44}, "uniqueid": "MTK2047:3I2PTA7R3U1UHNXFUP31ULQWX5JQK1", "dateTime": 1516655640024}, {"current_trial": 45, "trialdata": {"rt": -1, "trial_type": "single-stim", "stimulus": "<p id=\"stim\">9</p>", "internal_node_id": "0.0-35.0-1.0", "time_elapsed": 334779, "key_press": -1, "trial_index": 45}, "uniqueid": "MTK2047:3I2PTA7R3U1UHNXFUP31ULQWX5JQK1", "dateTime": 1516655641028}, {"current_trial": 46, "trialdata": {"rt": -1, "trial_type": "single-stim", "stimulus": "<p id=\"stim\">8</p>", "internal_node_id": "0.0-35.0-2.0", "time_elapsed": 335783, "key_press": -1, "trial_index": 46}, "uniqueid": "MTK2047:3I2PTA7R3U1UHNXFUP31ULQWX5JQK1", "dateTime": 1516655642032}, {"current_trial": 47, "trialdata": {"rt": -1, "trial_type": "single-stim", "stimulus": "<p id=\"stim\">7</p>", "internal_node_id": "0.0-35.0-3.0", "time_elapsed": 336788, "key_press": -1, "trial_index": 47}, "uniqueid": "MTK2047:3I2PTA7R3U1UHNXFUP31ULQWX5JQK1", "dateTime": 1516655643037}, {"current_trial": 48, "trialdata": {"rt": -1, "trial_type": "single-stim", "stimulus": "<p id=\"stim\">6</p>", "internal_node_id": "0.0-35.0-4.0", "time_elapsed": 337796, "key_press": -1, "trial_index": 48}, "uniqueid": "MTK2047:3I2PTA7R3U1UHNXFUP31ULQWX5JQK1", "dateTime": 1516655644045}, {"current_trial": 49, "trialdata": {"rt": -1, "trial_type": "single-stim", "stimulus": "<p id=\"stim\">5</p>", "internal_node_id": "0.0-35.0-5.0", "time_elapsed": 338818, "key_press": -1, "trial_index": 49}, "uniqueid": "MTK2047:3I2PTA7R3U1UHNXFUP31ULQWX5JQK1", "dateTime": 1516655645068}, {"current_trial": 50, "trialdata": {"rt": -1, "trial_type": "single-stim", "stimulus": "<p id=\"stim\">4</p>", "internal_node_id": "0.0-35.0-6.0", "time_elapsed": 339828, "key_press": -1, "trial_index": 50}, "uniqueid": "MTK2047:3I2PTA7R3U1UHNXFUP31ULQWX5JQK1", "dateTime": 1516655646077}, {"current_trial": 51, "trialdata": {"rt": -1, "trial_type": "single-stim", "stimulus": "<p id=\"stim\">3</p>", "internal_node_id": "0.0-35.0-7.0", "time_elapsed": 340833, "key_press": -1, "trial_index": 51}, "uniqueid": "MTK2047:3I2PTA7R3U1UHNXFUP31ULQWX5JQK1", "dateTime": 1516655647082}, {"current_trial": 52, "trialdata": {"rt": -1, "trial_type": "single-stim", "stimulus": "<p id=\"stim\">2</p>", "internal_node_id": "0.0-35.0-8.0", "time_elapsed": 341836, "key_press": -1, "trial_index": 52}, "uniqueid": "MTK2047:3I2PTA7R3U1UHNXFUP31ULQWX5JQK1", "dateTime": 1516655648085}, {"current_trial": 53, "trialdata": {"rt": -1, "trial_type": "single-stim", "stimulus": "<p id=\"stim\">1</p>", "internal_node_id": "0.0-35.0-9.0", "time_elapsed": 342839, "key_press": -1, "trial_index": 53}, "uniqueid": "MTK2047:3I2PTA7R3U1UHNXFUP31ULQWX5JQK1", "dateTime": 1516655649089}, {"current_trial": 54, "trialdata": {"rt": -1, "trial_type": "single-stim", "stimulus": "<p id=\"stim\">+</p>", "internal_node_id": "0.0-36.0-0.0", "time_elapsed": 344344, "key_press": -1, "type": "FIXATION", "trial_index": 54}, "uniqueid": "MTK2047:3I2PTA7R3U1UHNXFUP31ULQWX5JQK1", "dateTime": 1516655650593}, {"current_trial": 55, "trialdata": {"rt": -1, "trial_type": "single-stim", "word": "luggage", "stimulus": "<p id=\"stim\">LUGGAGE</p>", "conditions": [18, 1200, "v", 18000], "internal_node_id": "0.0-37.0", "trial": 1, "time_elapsed": 345550, "serialpos": 0, "key_press": -1, "wordID": 846, "type": "PRES_VIS", "trial_index": 55}, "uniqueid": "MTK2047:3I2PTA7R3U1UHNXFUP31ULQWX5JQK1", "dateTime": 1516655651799}, {"current_trial": 56, "trialdata": {"rt": -1, "trial_type": "single-stim", "word": "soda", "stimulus": "<p id=\"stim\">SODA</p>", "conditions": [18, 1200, "v", 18000], "internal_node_id": "0.0-38.0", "trial": 1, "time_elapsed": 347942, "serialpos": 1, "key_press": -1, "wordID": 1340, "type": "PRES_VIS", "trial_index": 56}, "uniqueid": "MTK2047:3I2PTA7R3U1UHNXFUP31ULQWX5JQK1", "dateTime": 1516655654191}, {"current_trial": 57, "trialdata": {"rt": -1, "trial_type": "single-stim", "word": "bike", "stimulus": "<p id=\"stim\">BIKE</p>", "conditions": [18, 1200, "v", 18000], "internal_node_id": "0.0-39.0", "trial": 1, "time_elapsed": 349991, "serialpos": 2, "key_press": -1, "wordID": 124, "type": "PRES_VIS", "trial_index": 57}, "uniqueid": "MTK2047:3I2PTA7R3U1UHNXFUP31ULQWX5JQK1", "dateTime": 1516655656240}, {"current_trial": 58, "trialdata": {"rt": -1, "trial_type": "single-stim", "word": "witness", "stimulus": "<p id=\"stim\">WITNESS</p>", "conditions": [18, 1200, "v", 18000], "internal_node_id": "0.0-40.0", "trial": 1, "time_elapsed": 352323, "serialpos": 3, "key_press": -1, "wordID": 1617, "type": "PRES_VIS", "trial_index": 58}, "uniqueid": "MTK2047:3I2PTA7R3U1UHNXFUP31ULQWX5JQK1", "dateTime": 1516655658572}, {"current_trial": 59, "trialdata": {"rt": -1, "trial_type": "single-stim", "word": "frame", "stimulus": "<p id=\"stim\">FRAME</p>", "conditions": [18, 1200, "v", 18000], "internal_node_id": "0.0-41.0", "trial": 1, "time_elapsed": 354426, "serialpos": 4, "key_press": -1, "wordID": 599, "type": "PRES_VIS", "trial_index": 59}, "uniqueid": "MTK2047:3I2PTA7R3U1UHNXFUP31ULQWX5JQK1", "dateTime": 1516655660675}, {"current_trial": 60, "trialdata": {"rt": -1, "trial_type": "single-stim", "word": "match", "stimulus": "<p id=\"stim\">MATCH</p>", "conditions": [18, 1200, "v", 18000], "internal_node_id": "0.0-42.0", "trial": 1, "time_elapsed": 356552, "serialpos": 5, "key_press": -1, "wordID": 877, "type": "PRES_VIS", "trial_index": 60}, "uniqueid": "MTK2047:3I2PTA7R3U1UHNXFUP31ULQWX5JQK1", "dateTime": 1516655662802}, {"current_trial": 61, "trialdata": {"rt": -1, "trial_type": "single-stim", "word": "headband", "stimulus": "<p id=\"stim\">HEADBAND</p>", "conditions": [18, 1200, "v", 18000], "internal_node_id": "0.0-43.0", "trial": 1, "time_elapsed": 358772, "serialpos": 6, "key_press": -1, "wordID": 695, "type": "PRES_VIS", "trial_index": 61}, "uniqueid": "MTK2047:3I2PTA7R3U1UHNXFUP31ULQWX5JQK1", "dateTime": 1516655665021}, {"current_trial": 62, "trialdata": {"rt": -1, "trial_type": "single-stim", "word": "saddle", "stimulus": "<p id=\"stim\">SADDLE</p>", "conditions": [18, 1200, "v", 18000], "internal_node_id": "0.0-44.0", "trial": 1, "time_elapsed": 360931, "serialpos": 7, "key_press": -1, "wordID": 1220, "type": "PRES_VIS", "trial_index": 62}, "uniqueid": "MTK2047:3I2PTA7R3U1UHNXFUP31ULQWX5JQK1", "dateTime": 1516655667181}, {"current_trial": 63, "trialdata": {"rt": -1, "trial_type": "single-stim", "word": "rug", "stimulus": "<p id=\"stim\">RUG</p>", "conditions": [18, 1200, "v", 18000], "internal_node_id": "0.0-45.0", "trial": 1, "time_elapsed": 363298, "serialpos": 8, "key_press": -1, "wordID": 1214, "type": "PRES_VIS", "trial_index": 63}, "uniqueid": "MTK2047:3I2PTA7R3U1UHNXFUP31ULQWX5JQK1", "dateTime": 1516655669547}, {"current_trial": 64, "trialdata": {"rt": -1, "trial_type": "single-stim", "word": "powder", "stimulus": "<p id=\"stim\">POWDER</p>", "conditions": [18, 1200, "v", 18000], "internal_node_id": "0.0-46.0", "trial": 1, "time_elapsed": 365356, "serialpos": 9, "key_press": -1, "wordID": 1116, "type": "PRES_VIS", "trial_index": 64}, "uniqueid": "MTK2047:3I2PTA7R3U1UHNXFUP31ULQWX5JQK1", "dateTime": 1516655671605}, {"current_trial": 65, "trialdata": {"rt": -1, "trial_type": "single-stim", "word": "plaster", "stimulus": "<p id=\"stim\">PLASTER</p>", "conditions": [18, 1200, "v", 18000], "internal_node_id": "0.0-47.0", "trial": 1, "time_elapsed": 367537, "serialpos": 10, "key_press": -1, "wordID": 1084, "type": "PRES_VIS", "trial_index": 65}, "uniqueid": "MTK2047:3I2PTA7R3U1UHNXFUP31ULQWX5JQK1", "dateTime": 1516655673787}, {"current_trial": 66, "trialdata": {"rt": -1, "trial_type": "single-stim", "word": "rocket", "stimulus": "<p id=\"stim\">ROCKET</p>", "conditions": [18, 1200, "v", 18000], "internal_node_id": "0.0-48.0", "trial": 1, "time_elapsed": 369705, "serialpos": 11, "key_press": -1, "wordID": 1201, "type": "PRES_VIS", "trial_index": 66}, "uniqueid": "MTK2047:3I2PTA7R3U1UHNXFUP31ULQWX5JQK1", "dateTime": 1516655675954}, {"current_trial": 67, "trialdata": {"rt": -1, "trial_type": "single-stim", "word": "creature", "stimulus": "<p id=\"stim\">CREATURE</p>", "conditions": [18, 1200, "v", 18000], "internal_node_id": "0.0-49.0", "trial": 1, "time_elapsed": 371758, "serialpos": 12, "key_press": -1, "wordID": 402, "type": "PRES_VIS", "trial_index": 67}, "uniqueid": "MTK2047:3I2PTA7R3U1UHNXFUP31ULQWX5JQK1", "dateTime": 1516655678008}, {"current_trial": 68, "trialdata": {"rt": -1, "trial_type": "single-stim", "word": "spoon", "stimulus": "<p id=\"stim\">SPOON</p>", "conditions": [18, 1200, "v", 18000], "internal_node_id": "0.0-50.0", "trial": 1, "time_elapsed": 373811, "serialpos": 13, "key_press": -1, "wordID": 1356, "type": "PRES_VIS", "trial_index": 68}, "uniqueid": "MTK2047:3I2PTA7R3U1UHNXFUP31ULQWX5JQK1", "dateTime": 1516655680071}, {"current_trial": 69, "trialdata": {"rt": -1, "trial_type": "single-stim", "word": "shirt", "stimulus": "<p id=\"stim\">SHIRT</p>", "conditions": [18, 1200, "v", 18000], "internal_node_id": "0.0-51.0", "trial": 1, "time_elapsed": 376145, "serialpos": 14, "key_press": -1, "wordID": 1286, "type": "PRES_VIS", "trial_index": 69}, "uniqueid": "MTK2047:3I2PTA7R3U1UHNXFUP31ULQWX5JQK1", "dateTime": 1516655682394}, {"current_trial": 70, "trialdata": {"rt": -1, "trial_type": "single-stim", "word": "sketch", "stimulus": "<p id=\"stim\">SKETCH</p>", "conditions": [18, 1200, "v", 18000], "internal_node_id": "0.0-52.0", "trial": 1, "time_elapsed": 378394, "serialpos": 15, "key_press": -1, "wordID": 1314, "type": "PRES_VIS", "trial_index": 70}, "uniqueid": "MTK2047:3I2PTA7R3U1UHNXFUP31ULQWX5JQK1", "dateTime": 1516655684643}, {"current_trial": 71, "trialdata": {"rt": -1, "trial_type": "single-stim", "word": "viking", "stimulus": "<p id=\"stim\">VIKING</p>", "conditions": [18, 1200, "v", 18000], "internal_node_id": "0.0-53.0", "trial": 1, "time_elapsed": 380412, "serialpos": 16, "key_press": -1, "wordID": 1564, "type": "PRES_VIS", "trial_index": 71}, "uniqueid": "MTK2047:3I2PTA7R3U1UHNXFUP31ULQWX5JQK1", "dateTime": 1516655686661}, {"current_trial": 72, "trialdata": {"rt": -1, "trial_type": "single-stim", "word": "donor", "stimulus": "<p id=\"stim\">DONOR</p>", "conditions": [18, 1200, "v", 18000], "internal_node_id": "0.0-54.0", "trial": 1, "time_elapsed": 382554, "serialpos": 17, "key_press": -1, "wordID": 484, "type": "PRES_VIS", "trial_index": 72}, "uniqueid": "MTK2047:3I2PTA7R3U1UHNXFUP31ULQWX5JQK1", "dateTime": 1516655688804}, {"current_trial": 73, "trialdata": {"rt": -1, "trial_type": "single-stim", "stimulus": "", "internal_node_id": "0.0-55.0-0.0", "time_elapsed": 384640, "key_press": -1, "type": "PRE_RECALL_DELAY", "trial_index": 73}, "uniqueid": "MTK2047:3I2PTA7R3U1UHNXFUP31ULQWX5JQK1", "dateTime": 1516655690889}, {"current_trial": 74, "trialdata": {"rt": -1000, "trial_type": "single-audio", "stimulus": "/static/audio/400Hz.wav", "internal_node_id": "0.0-56.0", "time_elapsed": 385144, "key_press": -1, "type": "PRE_RECALL_ALERT", "trial_index": 74}, "uniqueid": "MTK2047:3I2PTA7R3U1UHNXFUP31ULQWX5JQK1", "dateTime": 1516655691393}, {"current_trial": 75, "trialdata": {"rt": [2475, 4228, 7191, 9217, 11945, 17346, 20308, 34905, 37305, 59840], "recwords": ["donor", "sketch", "viking", "luggage", "headband", "creature", "headband", "stretch", "peach", "shirt"], "key_times": [1018, 1212, 1427, 1631, 1859, 2475, 2708, 3304, 3391, 3560, 3773, 3975, 4228, 4872, 5110, 5308, 5479, 5708, 5939, 5971, 6882, 7191, 7752, 7974, 8208, 8333, 8449, 8693, 8906, 9217, 9595, 9828, 9939, 10066, 10595, 10731, 10824, 11656, 11945, 15381, 15564, 15730, 15799, 15963, 16802, 17009, 17122, 17346, 18176, 18377, 18472, 18620, 19114, 19260, 19357, 19991, 20308, 31114, 31263, 31476, 31683, 31777, 31901, 32171, 33024, 33179, 33368, 34157, 34364, 34584, 34905, 35509, 36113, 36326, 36634, 36954, 37305, 57320, 58421, 58797, 59064, 59266, 59840], "trial_type": "free-recall", "conditions": [18, 1200, "v", 18000], "internal_node_id": "0.0-57.0-0.0", "key_presses": [68, 79, 78, 79, 82, 13, 83, 75, 69, 84, 67, 72, 13, 86, 73, 75, 73, 78, 71, 72, 8, 13, 76, 85, 71, 71, 65, 71, 69, 13, 72, 69, 65, 68, 66, 65, 78, 68, 13, 67, 82, 69, 65, 84, 85, 82, 69, 13, 72, 69, 65, 68, 66, 65, 78, 68, 13, 83, 84, 82, 69, 65, 67, 72, 8, 8, 8, 84, 67, 72, 13, 80, 69, 65, 67, 72, 13, 83, 72, 73, 82, 84, 13], "trial": 1, "time_elapsed": 445155, "type": "FREE_RECALL", "trial_index": 75}, "uniqueid": "MTK2047:3I2PTA7R3U1UHNXFUP31ULQWX5JQK1", "dateTime": 1516655751440}, {"current_trial": 76, "trialdata": {"rt": 3025, "trial_type": "text", "internal_node_id": "0.0-58.0", "time_elapsed": 450222, "key_press": 32, "type": "INSTRUCTIONS", "trial_index": 76}, "uniqueid": "MTK2047:3I2PTA7R3U1UHNXFUP31ULQWX5JQK1", "dateTime": 1516655756471}, {"current_trial": 77, "trialdata": {"rt": [5120, 8248, 10810, 15085, 17486, 22313], "trial_type": "math-distractor", "key_times": [4331, 4499, 5120, 7698, 7862, 8248, 9902, 10403, 10810, 13534, 14096, 14684, 15085, 16711, 17010, 17486, 21596, 21763, 22313], "responses": ["24", "20", "17", "9", "15", "14"], "num2": [9, 7, 6, 4, 9, 9, 3], "num3": [9, 9, 7, 2, 5, 2, 4], "conditions": [24, 1600, "v", 24000], "internal_node_id": "0.0-59.0", "key_presses": [50, 52, 13, 50, 48, 13, 49, 55, 13, 48, 8, 57, 13, 49, 53, 13, 49, 52, 13], "trial": 2, "time_elapsed": 475234, "type": "DISTRACTOR", "trial_index": 77, "num1": [6, 4, 4, 3, 1, 4, 2]}, "uniqueid": "MTK2047:3I2PTA7R3U1UHNXFUP31ULQWX5JQK1", "dateTime": 1516655781484}, {"current_trial": 78, "trialdata": {"rt": -1, "trial_type": "single-stim", "stimulus": "<p id=\"stim\">10</p>", "internal_node_id": "0.0-60.0-0.0", "time_elapsed": 478241, "key_press": -1, "trial_index": 78}, "uniqueid": "MTK2047:3I2PTA7R3U1UHNXFUP31ULQWX5JQK1", "dateTime": 1516655784490}, {"current_trial": 79, "trialdata": {"rt": -1, "trial_type": "single-stim", "stimulus": "<p id=\"stim\">9</p>", "internal_node_id": "0.0-60.0-1.0", "time_elapsed": 479245, "key_press": -1, "trial_index": 79}, "uniqueid": "MTK2047:3I2PTA7R3U1UHNXFUP31ULQWX5JQK1", "dateTime": 1516655785494}, {"current_trial": 80, "trialdata": {"rt": -1, "trial_type": "single-stim", "stimulus": "<p id=\"stim\">8</p>", "internal_node_id": "0.0-60.0-2.0", "time_elapsed": 480254, "key_press": -1, "trial_index": 80}, "uniqueid": "MTK2047:3I2PTA7R3U1UHNXFUP31ULQWX5JQK1", "dateTime": 1516655786503}, {"current_trial": 81, "trialdata": {"rt": -1, "trial_type": "single-stim", "stimulus": "<p id=\"stim\">7</p>", "internal_node_id": "0.0-60.0-3.0", "time_elapsed": 481259, "key_press": -1, "trial_index": 81}, "uniqueid": "MTK2047:3I2PTA7R3U1UHNXFUP31ULQWX5JQK1", "dateTime": 1516655787508}, {"current_trial": 82, "trialdata": {"rt": -1, "trial_type": "single-stim", "stimulus": "<p id=\"stim\">6</p>", "internal_node_id": "0.0-60.0-4.0", "time_elapsed": 482263, "key_press": -1, "trial_index": 82}, "uniqueid": "MTK2047:3I2PTA7R3U1UHNXFUP31ULQWX5JQK1", "dateTime": 1516655788512}, {"current_trial": 83, "trialdata": {"rt": -1, "trial_type": "single-stim", "stimulus": "<p id=\"stim\">5</p>", "internal_node_id": "0.0-60.0-5.0", "time_elapsed": 483267, "key_press": -1, "trial_index": 83}, "uniqueid": "MTK2047:3I2PTA7R3U1UHNXFUP31ULQWX5JQK1", "dateTime": 1516655789517}, {"current_trial": 84, "trialdata": {"rt": -1, "trial_type": "single-stim", "stimulus": "<p id=\"stim\">4</p>", "internal_node_id": "0.0-60.0-6.0", "time_elapsed": 484271, "key_press": -1, "trial_index": 84}, "uniqueid": "MTK2047:3I2PTA7R3U1UHNXFUP31ULQWX5JQK1", "dateTime": 1516655790520}, {"current_trial": 85, "trialdata": {"rt": -1, "trial_type": "single-stim", "stimulus": "<p id=\"stim\">3</p>", "internal_node_id": "0.0-60.0-7.0", "time_elapsed": 485275, "key_press": -1, "trial_index": 85}, "uniqueid": "MTK2047:3I2PTA7R3U1UHNXFUP31ULQWX5JQK1", "dateTime": 1516655791524}, {"current_trial": 86, "trialdata": {"rt": -1, "trial_type": "single-stim", "stimulus": "<p id=\"stim\">2</p>", "internal_node_id": "0.0-60.0-8.0", "time_elapsed": 486279, "key_press": -1, "trial_index": 86}, "uniqueid": "MTK2047:3I2PTA7R3U1UHNXFUP31ULQWX5JQK1", "dateTime": 1516655792528}, {"current_trial": 87, "trialdata": {"rt": -1, "trial_type": "single-stim", "stimulus": "<p id=\"stim\">1</p>", "internal_node_id": "0.0-60.0-9.0", "time_elapsed": 487283, "key_press": -1, "trial_index": 87}, "uniqueid": "MTK2047:3I2PTA7R3U1UHNXFUP31ULQWX5JQK1", "dateTime": 1516655793532}, {"current_trial": 88, "trialdata": {"rt": -1, "trial_type": "single-stim", "stimulus": "<p id=\"stim\">+</p>", "internal_node_id": "0.0-61.0-0.0", "time_elapsed": 488788, "key_press": -1, "type": "FIXATION", "trial_index": 88}, "uniqueid": "MTK2047:3I2PTA7R3U1UHNXFUP31ULQWX5JQK1", "dateTime": 1516655795037}, {"current_trial": 89, "trialdata": {"rt": -1, "trial_type": "single-stim", "word": "shorts", "stimulus": "<p id=\"stim\">SHORTS</p>", "conditions": [24, 1600, "v", 24000], "internal_node_id": "0.0-62.0", "trial": 2, "time_elapsed": 490392, "serialpos": 0, "key_press": -1, "wordID": 1292, "type": "PRES_VIS", "trial_index": 89}, "uniqueid": "MTK2047:3I2PTA7R3U1UHNXFUP31ULQWX5JQK1", "dateTime": 1516655796641}, {"current_trial": 90, "trialdata": {"rt": -1, "trial_type": "single-stim", "word": "grape", "stimulus": "<p id=\"stim\">GRAPE</p>", "conditions": [24, 1600, "v", 24000], "internal_node_id": "0.0-63.0", "trial": 2, "time_elapsed": 493089, "serialpos": 1, "key_press": -1, "wordID": 653, "type": "PRES_VIS", "trial_index": 90}, "uniqueid": "MTK2047:3I2PTA7R3U1UHNXFUP31ULQWX5JQK1", "dateTime": 1516655799338}, {"current_trial": 91, "trialdata": {"rt": -1, "trial_type": "single-stim", "word": "server", "stimulus": "<p id=\"stim\">SERVER</p>", "conditions": [24, 1600, "v", 24000], "internal_node_id": "0.0-64.0", "trial": 2, "time_elapsed": 495673, "serialpos": 2, "key_press": -1, "wordID": 1271, "type": "PRES_VIS", "trial_index": 91}, "uniqueid": "MTK2047:3I2PTA7R3U1UHNXFUP31ULQWX5JQK1", "dateTime": 1516655801925}, {"current_trial": 92, "trialdata": {"rt": -1, "trial_type": "single-stim", "word": "skirt", "stimulus": "<p id=\"stim\">SKIRT</p>", "conditions": [24, 1600, "v", 24000], "internal_node_id": "0.0-65.0", "trial": 2, "time_elapsed": 498256, "serialpos": 3, "key_press": -1, "wordID": 1318, "type": "PRES_VIS", "trial_index": 92}, "uniqueid": "MTK2047:3I2PTA7R3U1UHNXFUP31ULQWX5JQK1", "dateTime": 1516655804505}, {"current_trial": 93, "trialdata": {"rt": -1, "trial_type": "single-stim", "word": "apple", "stimulus": "<p id=\"stim\">APPLE</p>", "conditions": [24, 1600, "v", 24000], "internal_node_id": "0.0-66.0", "trial": 2, "time_elapsed": 500965, "serialpos": 4, "key_press": -1, "wordID": 32, "type": "PRES_VIS", "trial_index": 93}, "uniqueid": "MTK2047:3I2PTA7R3U1UHNXFUP31ULQWX5JQK1", "dateTime": 1516655807214}, {"current_trial": 94, "trialdata": {"rt": -1, "trial_type": "single-stim", "word": "peanut", "stimulus": "<p id=\"stim\">PEANUT</p>", "conditions": [24, 1600, "v", 24000], "internal_node_id": "0.0-67.0", "trial": 2, "time_elapsed": 503769, "serialpos": 5, "key_press": -1, "wordID": 1031, "type": "PRES_VIS", "trial_index": 94}, "uniqueid": "MTK2047:3I2PTA7R3U1UHNXFUP31ULQWX5JQK1", "dateTime": 1516655810019}, {"current_trial": 95, "trialdata": {"rt": -1, "trial_type": "single-stim", "word": "bug", "stimulus": "<p id=\"stim\">BUG</p>", "conditions": [24, 1600, "v", 24000], "internal_node_id": "0.0-68.0", "trial": 2, "time_elapsed": 506323, "serialpos": 6, "key_press": -1, "wordID": 186, "type": "PRES_VIS", "trial_index": 95}, "uniqueid": "MTK2047:3I2PTA7R3U1UHNXFUP31ULQWX5JQK1", "dateTime": 1516655812572}, {"current_trial": 96, "trialdata": {"rt": -1, "trial_type": "single-stim", "word": "virus", "stimulus": "<p id=\"stim\">VIRUS</p>", "conditions": [24, 1600, "v", 24000], "internal_node_id": "0.0-69.0", "trial": 2, "time_elapsed": 508766, "serialpos": 7, "key_press": -1, "wordID": 1571, "type": "PRES_VIS", "trial_index": 96}, "uniqueid": "MTK2047:3I2PTA7R3U1UHNXFUP31ULQWX5JQK1", "dateTime": 1516655815015}, {"current_trial": 97, "trialdata": {"rt": -1, "trial_type": "single-stim", "word": "scarf", "stimulus": "<p id=\"stim\">SCARF</p>", "conditions": [24, 1600, "v", 24000], "internal_node_id": "0.0-70.0", "trial": 2, "time_elapsed": 511465, "serialpos": 8, "key_press": -1, "wordID": 1245, "type": "PRES_VIS", "trial_index": 97}, "uniqueid": "MTK2047:3I2PTA7R3U1UHNXFUP31ULQWX5JQK1", "dateTime": 1516655817714}, {"current_trial": 98, "trialdata": {"rt": -1, "trial_type": "single-stim", "word": "pigment", "stimulus": "<p id=\"stim\">PIGMENT</p>", "conditions": [24, 1600, "v", 24000], "internal_node_id": "0.0-71.0", "trial": 2, "time_elapsed": 514140, "serialpos": 9, "key_press": -1, "wordID": 1065, "type": "PRES_VIS", "trial_index": 98}, "uniqueid": "MTK2047:3I2PTA7R3U1UHNXFUP31ULQWX5JQK1", "dateTime": 1516655820389}, {"current_trial": 99, "trialdata": {"rt": -1, "trial_type": "single-stim", "word": "rust", "stimulus": "<p id=\"stim\">RUST</p>", "conditions": [24, 1600, "v", 24000], "internal_node_id": "0.0-72.0", "trial": 2, "time_elapsed": 516913, "serialpos": 10, "key_press": -1, "wordID": 1218, "type": "PRES_VIS", "trial_index": 99}, "uniqueid": "MTK2047:3I2PTA7R3U1UHNXFUP31ULQWX5JQK1", "dateTime": 1516655823162}, {"current_trial": 100, "trialdata": {"rt": -1, "trial_type": "single-stim", "word": "spouse", "stimulus": "<p id=\"stim\">SPOUSE</p>", "conditions": [24, 1600, "v", 24000], "internal_node_id": "0.0-73.0", "trial": 2, "time_elapsed": 519603, "serialpos": 11, "key_press": -1, "wordID": 1357, "type": "PRES_VIS", "trial_index": 100}, "uniqueid": "MTK2047:3I2PTA7R3U1UHNXFUP31ULQWX5JQK1", "dateTime": 1516655825852}, {"current_trial": 101, "trialdata": {"rt": -1, "trial_type": "single-stim", "word": "picture", "stimulus": "<p id=\"stim\">PICTURE</p>", "conditions": [24, 1600, "v", 24000], "internal_node_id": "0.0-74.0", "trial": 2, "time_elapsed": 522375, "serialpos": 12, "key_press": -1, "wordID": 1060, "type": "PRES_VIS", "trial_index": 101}, "uniqueid": "MTK2047:3I2PTA7R3U1UHNXFUP31ULQWX5JQK1", "dateTime": 1516655828624}, {"current_trial": 102, "trialdata": {"rt": -1, "trial_type": "single-stim", "word": "spider", "stimulus": "<p id=\"stim\">SPIDER</p>", "conditions": [24, 1600, "v", 24000], "internal_node_id": "0.0-75.0", "trial": 2, "time_elapsed": 524790, "serialpos": 13, "key_press": -1, "wordID": 1350, "type": "PRES_VIS", "trial_index": 102}, "uniqueid": "MTK2047:3I2PTA7R3U1UHNXFUP31ULQWX5JQK1", "dateTime": 1516655831039}, {"current_trial": 103, "trialdata": {"rt": -1, "trial_type": "single-stim", "word": "trombone", "stimulus": "<p id=\"stim\">TROMBONE</p>", "conditions": [24, 1600, "v", 24000], "internal_node_id": "0.0-76.0", "trial": 2, "time_elapsed": 527337, "serialpos": 14, "key_press": -1, "wordID": 1507, "type": "PRES_VIS", "trial_index": 103}, "uniqueid": "MTK2047:3I2PTA7R3U1UHNXFUP31ULQWX5JQK1", "dateTime": 1516655833586}, {"current_trial": 104, "trialdata": {"rt": -1, "trial_type": "single-stim", "word": "flute", "stimulus": "<p id=\"stim\">FLUTE</p>", "conditions": [24, 1600, "v", 24000], "internal_node_id": "0.0-77.0", "trial": 2, "time_elapsed": 529968, "serialpos": 15, "key_press": -1, "wordID": 584, "type": "PRES_VIS", "trial_index": 104}, "uniqueid": "MTK2047:3I2PTA7R3U1UHNXFUP31ULQWX5JQK1", "dateTime": 1516655836217}, {"current_trial": 105, "trialdata": {"rt": -1, "trial_type": "single-stim", "word": "football", "stimulus": "<p id=\"stim\">FOOTBALL</p>", "conditions": [24, 1600, "v", 24000], "internal_node_id": "0.0-78.0", "trial": 2, "time_elapsed": 532425, "serialpos": 16, "key_press": -1, "wordID": 590, "type": "PRES_VIS", "trial_index": 105}, "uniqueid": "MTK2047:3I2PTA7R3U1UHNXFUP31ULQWX5JQK1", "dateTime": 1516655838674}, {"current_trial": 106, "trialdata": {"rt": -1, "trial_type": "single-stim", "word": "bullet", "stimulus": "<p id=\"stim\">BULLET</p>", "conditions": [24, 1600, "v", 24000], "internal_node_id": "0.0-79.0", "trial": 2, "time_elapsed": 535222, "serialpos": 17, "key_press": -1, "wordID": 193, "type": "PRES_VIS", "trial_index": 106}, "uniqueid": "MTK2047:3I2PTA7R3U1UHNXFUP31ULQWX5JQK1", "dateTime": 1516655841471}, {"current_trial": 107, "trialdata": {"rt": -1, "trial_type": "single-stim", "word": "piston", "stimulus": "<p id=\"stim\">PISTON</p>", "conditions": [24, 1600, "v", 24000], "internal_node_id": "0.0-80.0", "trial": 2, "time_elapsed": 537894, "serialpos": 18, "key_press": -1, "wordID": 1075, "type": "PRES_VIS", "trial_index": 107}, "uniqueid": "MTK2047:3I2PTA7R3U1UHNXFUP31ULQWX5JQK1", "dateTime": 1516655844143}, {"current_trial": 108, "trialdata": {"rt": -1, "trial_type": "single-stim", "word": "keeper", "stimulus": "<p id=\"stim\">KEEPER</p>", "conditions": [24, 1600, "v", 24000], "internal_node_id": "0.0-81.0", "trial": 2, "time_elapsed": 540385, "serialpos": 19, "key_press": -1, "wordID": 768, "type": "PRES_VIS", "trial_index": 108}, "uniqueid": "MTK2047:3I2PTA7R3U1UHNXFUP31ULQWX5JQK1", "dateTime": 1516655846634}, {"current_trial": 109, "trialdata": {"rt": -1, "trial_type": "single-stim", "word": "paddle", "stimulus": "<p id=\"stim\">PADDLE</p>", "conditions": [24, 1600, "v", 24000], "internal_node_id": "0.0-82.0", "trial": 2, "time_elapsed": 542995, "serialpos": 20, "key_press": -1, "wordID": 999, "type": "PRES_VIS", "trial_index": 109}, "uniqueid": "MTK2047:3I2PTA7R3U1UHNXFUP31ULQWX5JQK1", "dateTime": 1516655849244}, {"current_trial": 110, "trialdata": {"rt": -1, "trial_type": "single-stim", "word": "robot", "stimulus": "<p id=\"stim\">ROBOT</p>", "conditions": [24, 1600, "v", 24000], "internal_node_id": "0.0-83.0", "trial": 2, "time_elapsed": 545526, "serialpos": 21, "key_press": -1, "wordID": 1199, "type": "PRES_VIS", "trial_index": 110}, "uniqueid": "MTK2047:3I2PTA7R3U1UHNXFUP31ULQWX5JQK1", "dateTime": 1516655851776}, {"current_trial": 111, "trialdata": {"rt": -1, "trial_type": "single-stim", "word": "snake", "stimulus": "<p id=\"stim\">SNAKE</p>", "conditions": [24, 1600, "v", 24000], "internal_node_id": "0.0-84.0", "trial": 2, "time_elapsed": 548271, "serialpos": 22, "key_press": -1, "wordID": 1332, "type": "PRES_VIS", "trial_index": 111}, "uniqueid": "MTK2047:3I2PTA7R3U1UHNXFUP31ULQWX5JQK1", "dateTime": 1516655854520}, {"current_trial": 112, "trialdata": {"rt": -1, "trial_type": "single-stim", "word": "female", "stimulus": "<p id=\"stim\">FEMALE</p>", "conditions": [24, 1600, "v", 24000], "internal_node_id": "0.0-85.0", "trial": 2, "time_elapsed": 550873, "serialpos": 23, "key_press": -1, "wordID": 558, "type": "PRES_VIS", "trial_index": 112}, "uniqueid": "MTK2047:3I2PTA7R3U1UHNXFUP31ULQWX5JQK1", "dateTime": 1516655857123}, {"current_trial": 113, "trialdata": {"rt": -1, "trial_type": "single-stim", "stimulus": "", "internal_node_id": "0.0-86.0-0.0", "time_elapsed": 553361, "key_press": -1, "type": "PRE_RECALL_DELAY", "trial_index": 113}, "uniqueid": "MTK2047:3I2PTA7R3U1UHNXFUP31ULQWX5JQK1", "dateTime": 1516655859610}, {"current_trial": 114, "trialdata": {"rt": -1000, "trial_type": "single-audio", "stimulus": "/static/audio/400Hz.wav", "internal_node_id": "0.0-87.0", "time_elapsed": 553863, "key_press": -1, "type": "PRE_RECALL_ALERT", "trial_index": 114}, "uniqueid": "MTK2047:3I2PTA7R3U1UHNXFUP31ULQWX5JQK1", "dateTime": 1516655860113}, {"current_trial": 115, "trialdata": {"rt": [4090, 5852, 10311, 11766, 16345, 23692, 26111, 32638, 34804, 38133, 41971, 50848, 53747, 57849], "recwords": ["football", "female", "spouse", "skirt", "shirt", "servant", "apple", "trombone", "flute", "kite", "robot", "bug", "virus", "kite"], "key_times": [2348, 2635, 2745, 3013, 3346, 3493, 3678, 3807, 4090, 4939, 5045, 5247, 5384, 5541, 5678, 5852, 6111, 6317, 6534, 7003, 7337, 7542, 8639, 8887, 9426, 9579, 10311, 10496, 10840, 11019, 11268, 11439, 11766, 11963, 12313, 12606, 12646, 13247, 13516, 14181, 14478, 14630, 16345, 16562, 16847, 17009, 17485, 17850, 18084, 18213, 19981, 20218, 20391, 20573, 21526, 21613, 22740, 22891, 23028, 23257, 23692, 25058, 25301, 25438, 25617, 25811, 26111, 30715, 30909, 31475, 31677, 31937, 32142, 32341, 32458, 32638, 33439, 33678, 33914, 34255, 34390, 34804, 36786, 36970, 37210, 37326, 38133, 40580, 40831, 41171, 41402, 41623, 41971, 49310, 49554, 49811, 49848, 50539, 50848, 51525, 51770, 52003, 52301, 52325, 52475, 52961, 53107, 53442, 53747, 56526, 56704, 56946, 57616, 57849], "trial_type": "free-recall", "conditions": [24, 1600, "v", 24000], "internal_node_id": "0.0-88.0-0.0", "key_presses": [70, 79, 79, 84, 66, 65, 76, 76, 13, 70, 69, 77, 65, 76, 69, 13, 83, 80, 79, 85, 83, 69, 83, 75, 8, 8, 13, 83, 75, 73, 82, 84, 13, 83, 72, 85, 73, 8, 8, 73, 82, 84, 13, 83, 69, 82, 86, 73, 67, 69, 8, 8, 8, 8, 86, 69, 8, 65, 78, 84, 13, 65, 80, 80, 76, 69, 13, 84, 82, 79, 77, 66, 79, 78, 69, 13, 70, 76, 85, 84, 69, 13, 75, 73, 84, 69, 13, 82, 79, 66, 79, 84, 13, 66, 85, 71, 70, 8, 13, 86, 73, 82, 85, 73, 83, 8, 8, 83, 13, 75, 73, 84, 69, 13], "trial": 2, "time_elapsed": 613870, "type": "FREE_RECALL", "trial_index": 115}, "uniqueid": "MTK2047:3I2PTA7R3U1UHNXFUP31ULQWX5JQK1", "dateTime": 1516655920127}, {"current_trial": 116, "trialdata": {"rt": 1683, "trial_type": "text", "internal_node_id": "0.0-89.0", "time_elapsed": 617565, "key_press": 32, "type": "INSTRUCTIONS", "trial_index": 116}, "uniqueid": "MTK2047:3I2PTA7R3U1UHNXFUP31ULQWX5JQK1", "dateTime": 1516655923814}, {"current_trial": 117, "trialdata": {"rt": [4886, 8727, 11834, 13706, 19307, 21331], "trial_type": "math-distractor", "key_times": [2845, 3578, 3601, 4196, 4886, 8266, 8468, 8727, 11278, 11521, 11834, 13245, 13470, 13706, 18699, 19089, 19307, 20792, 21049, 21331], "responses": ["16", "12", "20", "12", "24", "12"], "num2": [2, 3, 7, 1, 7, 3, 5], "num3": [6, 3, 5, 3, 8, 2, 8], "conditions": [12, 1600, "v", 24000], "internal_node_id": "0.0-90.0", "key_presses": [49, 54, 53, 8, 13, 49, 50, 13, 50, 48, 13, 49, 50, 13, 50, 52, 13, 49, 50, 13], "trial": 3, "time_elapsed": 643576, "type": "DISTRACTOR", "trial_index": 117, "num1": [8, 6, 8, 8, 9, 7, 2]}, "uniqueid": "MTK2047:3I2PTA7R3U1UHNXFUP31ULQWX5JQK1", "dateTime": 1516655949825}, {"current_trial": 118, "trialdata": {"rt": -1, "trial_type": "single-stim", "stimulus": "<p id=\"stim\">10</p>", "internal_node_id": "0.0-91.0-0.0", "time_elapsed": 646581, "key_press": -1, "trial_index": 118}, "uniqueid": "MTK2047:3I2PTA7R3U1UHNXFUP31ULQWX5JQK1", "dateTime": 1516655952836}, {"current_trial": 119, "trialdata": {"rt": -1, "trial_type": "single-stim", "stimulus": "<p id=\"stim\">9</p>", "internal_node_id": "0.0-91.0-1.0", "time_elapsed": 647591, "key_press": -1, "trial_index": 119}, "uniqueid": "MTK2047:3I2PTA7R3U1UHNXFUP31ULQWX5JQK1", "dateTime": 1516655953841}, {"current_trial": 120, "trialdata": {"rt": -1, "trial_type": "single-stim", "stimulus": "<p id=\"stim\">8</p>", "internal_node_id": "0.0-91.0-2.0", "time_elapsed": 648594, "key_press": -1, "trial_index": 120}, "uniqueid": "MTK2047:3I2PTA7R3U1UHNXFUP31ULQWX5JQK1", "dateTime": 1516655954843}, {"current_trial": 121, "trialdata": {"rt": -1, "trial_type": "single-stim", "stimulus": "<p id=\"stim\">7</p>", "internal_node_id": "0.0-91.0-3.0", "time_elapsed": 649597, "key_press": -1, "trial_index": 121}, "uniqueid": "MTK2047:3I2PTA7R3U1UHNXFUP31ULQWX5JQK1", "dateTime": 1516655955846}, {"current_trial": 122, "trialdata": {"rt": -1, "trial_type": "single-stim", "stimulus": "<p id=\"stim\">6</p>", "internal_node_id": "0.0-91.0-4.0", "time_elapsed": 650600, "key_press": -1, "trial_index": 122}, "uniqueid": "MTK2047:3I2PTA7R3U1UHNXFUP31ULQWX5JQK1", "dateTime": 1516655956850}, {"current_trial": 123, "trialdata": {"rt": -1, "trial_type": "single-stim", "stimulus": "<p id=\"stim\">5</p>", "internal_node_id": "0.0-91.0-5.0", "time_elapsed": 651605, "key_press": -1, "trial_index": 123}, "uniqueid": "MTK2047:3I2PTA7R3U1UHNXFUP31ULQWX5JQK1", "dateTime": 1516655957854}, {"current_trial": 124, "trialdata": {"rt": -1, "trial_type": "single-stim", "stimulus": "<p id=\"stim\">4</p>", "internal_node_id": "0.0-91.0-6.0", "time_elapsed": 652609, "key_press": -1, "trial_index": 124}, "uniqueid": "MTK2047:3I2PTA7R3U1UHNXFUP31ULQWX5JQK1", "dateTime": 1516655958858}, {"current_trial": 125, "trialdata": {"rt": -1, "trial_type": "single-stim", "stimulus": "<p id=\"stim\">3</p>", "internal_node_id": "0.0-91.0-7.0", "time_elapsed": 653613, "key_press": -1, "trial_index": 125}, "uniqueid": "MTK2047:3I2PTA7R3U1UHNXFUP31ULQWX5JQK1", "dateTime": 1516655959863}, {"current_trial": 126, "trialdata": {"rt": -1, "trial_type": "single-stim", "stimulus": "<p id=\"stim\">2</p>", "internal_node_id": "0.0-91.0-8.0", "time_elapsed": 654616, "key_press": -1, "trial_index": 126}, "uniqueid": "MTK2047:3I2PTA7R3U1UHNXFUP31ULQWX5JQK1", "dateTime": 1516655960865}, {"current_trial": 127, "trialdata": {"rt": -1, "trial_type": "single-stim", "stimulus": "<p id=\"stim\">1</p>", "internal_node_id": "0.0-91.0-9.0", "time_elapsed": 655620, "key_press": -1, "trial_index": 127}, "uniqueid": "MTK2047:3I2PTA7R3U1UHNXFUP31ULQWX5JQK1", "dateTime": 1516655961870}, {"current_trial": 128, "trialdata": {"rt": -1, "trial_type": "single-stim", "stimulus": "<p id=\"stim\">+</p>", "internal_node_id": "0.0-92.0-0.0", "time_elapsed": 657125, "key_press": -1, "type": "FIXATION", "trial_index": 128}, "uniqueid": "MTK2047:3I2PTA7R3U1UHNXFUP31ULQWX5JQK1", "dateTime": 1516655963375}, {"current_trial": 129, "trialdata": {"rt": -1, "trial_type": "single-stim", "word": "scalpel", "stimulus": "<p id=\"stim\">SCALPEL</p>", "conditions": [12, 1600, "v", 24000], "internal_node_id": "0.0-93.0", "trial": 3, "time_elapsed": 658730, "serialpos": 0, "key_press": -1, "wordID": 1242, "type": "PRES_VIS", "trial_index": 129}, "uniqueid": "MTK2047:3I2PTA7R3U1UHNXFUP31ULQWX5JQK1", "dateTime": 1516655964979}, {"current_trial": 130, "trialdata": {"rt": -1, "trial_type": "single-stim", "word": "suitcase", "stimulus": "<p id=\"stim\">SUITCASE</p>", "conditions": [12, 1600, "v", 24000], "internal_node_id": "0.0-94.0", "trial": 3, "time_elapsed": 661184, "serialpos": 1, "key_press": -1, "wordID": 1402, "type": "PRES_VIS", "trial_index": 130}, "uniqueid": "MTK2047:3I2PTA7R3U1UHNXFUP31ULQWX5JQK1", "dateTime": 1516655967433}, {"current_trial": 131, "trialdata": {"rt": -1, "trial_type": "single-stim", "word": "convict", "stimulus": "<p id=\"stim\">CONVICT</p>", "conditions": [12, 1600, "v", 24000], "internal_node_id": "0.0-95.0", "trial": 3, "time_elapsed": 663669, "serialpos": 2, "key_press": -1, "wordID": 370, "type": "PRES_VIS", "trial_index": 131}, "uniqueid": "MTK2047:3I2PTA7R3U1UHNXFUP31ULQWX5JQK1", "dateTime": 1516655969918}, {"current_trial": 132, "trialdata": {"rt": -1, "trial_type": "single-stim", "word": "finger", "stimulus": "<p id=\"stim\">FINGER</p>", "conditions": [12, 1600, "v", 24000], "internal_node_id": "0.0-96.0", "trial": 3, "time_elapsed": 666275, "serialpos": 3, "key_press": -1, "wordID": 566, "type": "PRES_VIS", "trial_index": 132}, "uniqueid": "MTK2047:3I2PTA7R3U1UHNXFUP31ULQWX5JQK1", "dateTime": 1516655972524}, {"current_trial": 133, "trialdata": {"rt": -1, "trial_type": "single-stim", "word": "foot", "stimulus": "<p id=\"stim\">FOOT</p>", "conditions": [12, 1600, "v", 24000], "internal_node_id": "0.0-97.0", "trial": 3, "time_elapsed": 669039, "serialpos": 4, "key_press": -1, "wordID": 589, "type": "PRES_VIS", "trial_index": 133}, "uniqueid": "MTK2047:3I2PTA7R3U1UHNXFUP31ULQWX5JQK1", "dateTime": 1516655975288}, {"current_trial": 134, "trialdata": {"rt": -1, "trial_type": "single-stim", "word": "jury", "stimulus": "<p id=\"stim\">JURY</p>", "conditions": [12, 1600, "v", 24000], "internal_node_id": "0.0-98.0", "trial": 3, "time_elapsed": 671725, "serialpos": 5, "key_press": -1, "wordID": 765, "type": "PRES_VIS", "trial_index": 134}, "uniqueid": "MTK2047:3I2PTA7R3U1UHNXFUP31ULQWX5JQK1", "dateTime": 1516655977974}, {"current_trial": 135, "trialdata": {"rt": -1, "trial_type": "single-stim", "word": "knapsack", "stimulus": "<p id=\"stim\">KNAPSACK</p>", "conditions": [12, 1600, "v", 24000], "internal_node_id": "0.0-99.0", "trial": 3, "time_elapsed": 674245, "serialpos": 6, "key_press": -1, "wordID": 782, "type": "PRES_VIS", "trial_index": 135}, "uniqueid": "MTK2047:3I2PTA7R3U1UHNXFUP31ULQWX5JQK1", "dateTime": 1516655980495}, {"current_trial": 136, "trialdata": {"rt": -1, "trial_type": "single-stim", "word": "egypt", "stimulus": "<p id=\"stim\">EGYPT</p>", "conditions": [12, 1600, "v", 24000], "internal_node_id": "0.0-100.0", "trial": 3, "time_elapsed": 676959, "serialpos": 7, "key_press": -1, "wordID": 518, "type": "PRES_VIS", "trial_index": 136}, "uniqueid": "MTK2047:3I2PTA7R3U1UHNXFUP31ULQWX5JQK1", "dateTime": 1516655983208}, {"current_trial": 137, "trialdata": {"rt": -1, "trial_type": "single-stim", "word": "valve", "stimulus": "<p id=\"stim\">VALVE</p>", "conditions": [12, 1600, "v", 24000], "internal_node_id": "0.0-101.0", "trial": 3, "time_elapsed": 679722, "serialpos": 8, "key_press": -1, "wordID": 1545, "type": "PRES_VIS", "trial_index": 137}, "uniqueid": "MTK2047:3I2PTA7R3U1UHNXFUP31ULQWX5JQK1", "dateTime": 1516655985971}, {"current_trial": 138, "trialdata": {"rt": -1, "trial_type": "single-stim", "word": "drug", "stimulus": "<p id=\"stim\">DRUG</p>", "conditions": [12, 1600, "v", 24000], "internal_node_id": "0.0-102.0", "trial": 3, "time_elapsed": 682308, "serialpos": 9, "key_press": -1, "wordID": 500, "type": "PRES_VIS", "trial_index": 138}, "uniqueid": "MTK2047:3I2PTA7R3U1UHNXFUP31ULQWX5JQK1", "dateTime": 1516655988557}, {"current_trial": 139, "trialdata": {"rt": -1, "trial_type": "single-stim", "word": "climber", "stimulus": "<p id=\"stim\">CLIMBER</p>", "conditions": [12, 1600, "v", 24000], "internal_node_id": "0.0-103.0", "trial": 3, "time_elapsed": 684775, "serialpos": 10, "key_press": -1, "wordID": 322, "type": "PRES_VIS", "trial_index": 139}, "uniqueid": "MTK2047:3I2PTA7R3U1UHNXFUP31ULQWX5JQK1", "dateTime": 1516655991024}, {"current_trial": 140, "trialdata": {"rt": -1, "trial_type": "single-stim", "word": "hiker", "stimulus": "<p id=\"stim\">HIKER</p>", "conditions": [12, 1600, "v", 24000], "internal_node_id": "0.0-104.0", "trial": 3, "time_elapsed": 687419, "serialpos": 11, "key_press": -1, "wordID": 707, "type": "PRES_VIS", "trial_index": 140}, "uniqueid": "MTK2047:3I2PTA7R3U1UHNXFUP31ULQWX5JQK1", "dateTime": 1516655993668}, {"current_trial": 141, "trialdata": {"rt": -1, "trial_type": "single-stim", "stimulus": "", "internal_node_id": "0.0-105.0-0.0", "time_elapsed": 689832, "key_press": -1, "type": "PRE_RECALL_DELAY", "trial_index": 141}, "uniqueid": "MTK2047:3I2PTA7R3U1UHNXFUP31ULQWX5JQK1", "dateTime": 1516655996081}, {"current_trial": 142, "trialdata": {"rt": -1000, "trial_type": "single-audio", "stimulus": "/static/audio/400Hz.wav", "internal_node_id": "0.0-106.0", "time_elapsed": 690334, "key_press": -1, "type": "PRE_RECALL_ALERT", "trial_index": 142}, "uniqueid": "MTK2047:3I2PTA7R3U1UHNXFUP31ULQWX5JQK1", "dateTime": 1516655996584}, {"current_trial": 143, "trialdata": {"rt": [4054, 5855, 7977, 10051, 14599, 19662, 22752, 24439, 27920, 32578, 36403, 45189], "recwords": ["climber", "hiker", "drug", "valve", "egypt", "knapsack", "jury", "foot", "finger", "convict", "suitcase", "scalpel"], "key_times": [2536, 2779, 2979, 3179, 3545, 3638, 3775, 4054, 4842, 5041, 5187, 5360, 5542, 5855, 6346, 6507, 6962, 7238, 7977, 8772, 8872, 9021, 9671, 9790, 10051, 11190, 13346, 13767, 13992, 14270, 14599, 16721, 16956, 17266, 17541, 17633, 18371, 18559, 18817, 19011, 19377, 19662, 21641, 21818, 22056, 22286, 22752, 23555, 23803, 23954, 24228, 24439, 26024, 26391, 26670, 26885, 27076, 27292, 27430, 27522, 27920, 29788, 30042, 30261, 30591, 30816, 31052, 31161, 31650, 32249, 32578, 34711, 34966, 35116, 35348, 35584, 35703, 35864, 36023, 36403, 42025, 42231, 42713, 42959, 43177, 43654, 44331, 45189], "trial_type": "free-recall", "conditions": [12, 1600, "v", 24000], "internal_node_id": "0.0-107.0-0.0", "key_presses": [67, 76, 73, 77, 66, 69, 82, 13, 72, 73, 75, 69, 82, 13, 68, 82, 85, 71, 13, 86, 65, 76, 86, 69, 13, 69, 71, 89, 80, 84, 13, 75, 72, 8, 78, 65, 80, 83, 65, 67, 75, 13, 74, 85, 82, 89, 13, 70, 79, 79, 84, 32, 68, 8, 70, 73, 78, 71, 69, 82, 13, 67, 79, 78, 86, 73, 67, 69, 8, 84, 13, 83, 85, 73, 84, 67, 65, 83, 69, 13, 83, 67, 65, 76, 80, 69, 76, 13], "trial": 3, "time_elapsed": 750346, "type": "FREE_RECALL", "trial_index": 143}, "uniqueid": "MTK2047:3I2PTA7R3U1UHNXFUP31ULQWX5JQK1", "dateTime": 1516656056621}, {"current_trial": 144, "trialdata": {"rt": 2117, "trial_type": "text", "internal_node_id": "0.0-108.0", "time_elapsed": 754492, "key_press": 32, "type": "INSTRUCTIONS", "trial_index": 144}, "uniqueid": "MTK2047:3I2PTA7R3U1UHNXFUP31ULQWX5JQK1", "dateTime": 1516656060741}, {"current_trial": 145, "trialdata": {"rt": [3232, 5585, 9093, 11216, 12949, 15616, 20932, 23152], "trial_type": "math-distractor", "key_times": [2630, 3232, 4816, 5282, 5585, 8655, 8873, 9093, 10410, 10858, 11216, 12251, 12600, 12949, 14913, 15318, 15616, 20507, 20617, 20932, 22788, 23152], "responses": ["6", "15", "23", "18", "19", "16", "25", "8"], "num2": [1, 7, 9, 8, 2, 8, 9, 5, 8], "num3": [3, 7, 8, 7, 9, 3, 7, 2, 6], "conditions": [24, 800, "v", 24000], "internal_node_id": "0.0-109.0", "key_presses": [54, 13, 49, 53, 13, 50, 51, 13, 49, 56, 13, 49, 57, 13, 49, 54, 13, 50, 53, 13, 56, 13], "trial": 4, "time_elapsed": 780502, "type": "DISTRACTOR", "trial_index": 145, "num1": [2, 1, 6, 3, 8, 5, 7, 1, 2]}, "uniqueid": "MTK2047:3I2PTA7R3U1UHNXFUP31ULQWX5JQK1", "dateTime": 1516656086752}, {"current_trial": 146, "trialdata": {"rt": -1, "trial_type": "single-stim", "stimulus": "<p id=\"stim\">10</p>", "internal_node_id": "0.0-110.0-0.0", "time_elapsed": 783506, "key_press": -1, "trial_index": 146}, "uniqueid": "MTK2047:3I2PTA7R3U1UHNXFUP31ULQWX5JQK1", "dateTime": 1516656089756}, {"current_trial": 147, "trialdata": {"rt": -1, "trial_type": "single-stim", "stimulus": "<p id=\"stim\">9</p>", "internal_node_id": "0.0-110.0-1.0", "time_elapsed": 784510, "key_press": -1, "trial_index": 147}, "uniqueid": "MTK2047:3I2PTA7R3U1UHNXFUP31ULQWX5JQK1", "dateTime": 1516656090759}, {"current_trial": 148, "trialdata": {"rt": -1, "trial_type": "single-stim", "stimulus": "<p id=\"stim\">8</p>", "internal_node_id": "0.0-110.0-2.0", "time_elapsed": 785515, "key_press": -1, "trial_index": 148}, "uniqueid": "MTK2047:3I2PTA7R3U1UHNXFUP31ULQWX5JQK1", "dateTime": 1516656091764}, {"current_trial": 149, "trialdata": {"rt": -1, "trial_type": "single-stim", "stimulus": "<p id=\"stim\">7</p>", "internal_node_id": "0.0-110.0-3.0", "time_elapsed": 786519, "key_press": -1, "trial_index": 149}, "uniqueid": "MTK2047:3I2PTA7R3U1UHNXFUP31ULQWX5JQK1", "dateTime": 1516656092768}, {"current_trial": 150, "trialdata": {"rt": -1, "trial_type": "single-stim", "stimulus": "<p id=\"stim\">6</p>", "internal_node_id": "0.0-110.0-4.0", "time_elapsed": 787522, "key_press": -1, "trial_index": 150}, "uniqueid": "MTK2047:3I2PTA7R3U1UHNXFUP31ULQWX5JQK1", "dateTime": 1516656093771}, {"current_trial": 151, "trialdata": {"rt": -1, "trial_type": "single-stim", "stimulus": "<p id=\"stim\">5</p>", "internal_node_id": "0.0-110.0-5.0", "time_elapsed": 788525, "key_press": -1, "trial_index": 151}, "uniqueid": "MTK2047:3I2PTA7R3U1UHNXFUP31ULQWX5JQK1", "dateTime": 1516656094775}, {"current_trial": 152, "trialdata": {"rt": -1, "trial_type": "single-stim", "stimulus": "<p id=\"stim\">4</p>", "internal_node_id": "0.0-110.0-6.0", "time_elapsed": 789526, "key_press": -1, "trial_index": 152}, "uniqueid": "MTK2047:3I2PTA7R3U1UHNXFUP31ULQWX5JQK1", "dateTime": 1516656095776}, {"current_trial": 153, "trialdata": {"rt": -1, "trial_type": "single-stim", "stimulus": "<p id=\"stim\">3</p>", "internal_node_id": "0.0-110.0-7.0", "time_elapsed": 790528, "key_press": -1, "trial_index": 153}, "uniqueid": "MTK2047:3I2PTA7R3U1UHNXFUP31ULQWX5JQK1", "dateTime": 1516656096778}, {"current_trial": 154, "trialdata": {"rt": -1, "trial_type": "single-stim", "stimulus": "<p id=\"stim\">2</p>", "internal_node_id": "0.0-110.0-8.0", "time_elapsed": 791530, "key_press": -1, "trial_index": 154}, "uniqueid": "MTK2047:3I2PTA7R3U1UHNXFUP31ULQWX5JQK1", "dateTime": 1516656097780}, {"current_trial": 155, "trialdata": {"rt": -1, "trial_type": "single-stim", "stimulus": "<p id=\"stim\">1</p>", "internal_node_id": "0.0-110.0-9.0", "time_elapsed": 792533, "key_press": -1, "trial_index": 155}, "uniqueid": "MTK2047:3I2PTA7R3U1UHNXFUP31ULQWX5JQK1", "dateTime": 1516656098783}, {"current_trial": 156, "trialdata": {"rt": -1, "trial_type": "single-stim", "stimulus": "<p id=\"stim\">+</p>", "internal_node_id": "0.0-111.0-0.0", "time_elapsed": 794038, "key_press": -1, "type": "FIXATION", "trial_index": 156}, "uniqueid": "MTK2047:3I2PTA7R3U1UHNXFUP31ULQWX5JQK1", "dateTime": 1516656100287}, {"current_trial": 157, "trialdata": {"rt": -1, "trial_type": "single-stim", "word": "tunnel", "stimulus": "<p id=\"stim\">TUNNEL</p>", "conditions": [24, 800, "v", 24000], "internal_node_id": "0.0-112.0", "trial": 4, "time_elapsed": 794841, "serialpos": 0, "key_press": -1, "wordID": 1518, "type": "PRES_VIS", "trial_index": 157}, "uniqueid": "MTK2047:3I2PTA7R3U1UHNXFUP31ULQWX5JQK1", "dateTime": 1516656101091}, {"current_trial": 158, "trialdata": {"rt": -1, "trial_type": "single-stim", "word": "lagoon", "stimulus": "<p id=\"stim\">LAGOON</p>", "conditions": [24, 800, "v", 24000], "internal_node_id": "0.0-113.0", "trial": 4, "time_elapsed": 796465, "serialpos": 1, "key_press": -1, "wordID": 794, "type": "PRES_VIS", "trial_index": 158}, "uniqueid": "MTK2047:3I2PTA7R3U1UHNXFUP31ULQWX5JQK1", "dateTime": 1516656102715}, {"current_trial": 159, "trialdata": {"rt": -1, "trial_type": "single-stim", "word": "lake", "stimulus": "<p id=\"stim\">LAKE</p>", "conditions": [24, 800, "v", 24000], "internal_node_id": "0.0-114.0", "trial": 4, "time_elapsed": 798428, "serialpos": 2, "key_press": -1, "wordID": 795, "type": "PRES_VIS", "trial_index": 159}, "uniqueid": "MTK2047:3I2PTA7R3U1UHNXFUP31ULQWX5JQK1", "dateTime": 1516656104677}, {"current_trial": 160, "trialdata": {"rt": -1, "trial_type": "single-stim", "word": "stream", "stimulus": "<p id=\"stim\">STREAM</p>", "conditions": [24, 800, "v", 24000], "internal_node_id": "0.0-115.0", "trial": 4, "time_elapsed": 800215, "serialpos": 3, "key_press": -1, "wordID": 1391, "type": "PRES_VIS", "trial_index": 160}, "uniqueid": "MTK2047:3I2PTA7R3U1UHNXFUP31ULQWX5JQK1", "dateTime": 1516656106464}, {"current_trial": 161, "trialdata": {"rt": -1, "trial_type": "single-stim", "word": "swimmer", "stimulus": "<p id=\"stim\">SWIMMER</p>", "conditions": [24, 800, "v", 24000], "internal_node_id": "0.0-116.0", "trial": 4, "time_elapsed": 801958, "serialpos": 4, "key_press": -1, "wordID": 1419, "type": "PRES_VIS", "trial_index": 161}, "uniqueid": "MTK2047:3I2PTA7R3U1UHNXFUP31ULQWX5JQK1", "dateTime": 1516656108208}, {"current_trial": 162, "trialdata": {"rt": -1, "trial_type": "single-stim", "word": "pasta", "stimulus": "<p id=\"stim\">PASTA</p>", "conditions": [24, 800, "v", 24000], "internal_node_id": "0.0-117.0", "trial": 4, "time_elapsed": 803880, "serialpos": 5, "key_press": -1, "wordID": 1020, "type": "PRES_VIS", "trial_index": 162}, "uniqueid": "MTK2047:3I2PTA7R3U1UHNXFUP31ULQWX5JQK1", "dateTime": 1516656110130}, {"current_trial": 163, "trialdata": {"rt": -1, "trial_type": "single-stim", "word": "preacher", "stimulus": "<p id=\"stim\">PREACHER</p>", "conditions": [24, 800, "v", 24000], "internal_node_id": "0.0-118.0", "trial": 4, "time_elapsed": 805620, "serialpos": 6, "key_press": -1, "wordID": 1118, "type": "PRES_VIS", "trial_index": 163}, "uniqueid": "MTK2047:3I2PTA7R3U1UHNXFUP31ULQWX5JQK1", "dateTime": 1516656111869}, {"current_trial": 164, "trialdata": {"rt": -1, "trial_type": "single-stim", "word": "window", "stimulus": "<p id=\"stim\">WINDOW</p>", "conditions": [24, 800, "v", 24000], "internal_node_id": "0.0-119.0", "trial": 4, "time_elapsed": 807326, "serialpos": 7, "key_press": -1, "wordID": 1610, "type": "PRES_VIS", "trial_index": 164}, "uniqueid": "MTK2047:3I2PTA7R3U1UHNXFUP31ULQWX5JQK1", "dateTime": 1516656113575}, {"current_trial": 165, "trialdata": {"rt": -1, "trial_type": "single-stim", "word": "diver", "stimulus": "<p id=\"stim\">DIVER</p>", "conditions": [24, 800, "v", 24000], "internal_node_id": "0.0-120.0", "trial": 4, "time_elapsed": 809177, "serialpos": 8, "key_press": -1, "wordID": 475, "type": "PRES_VIS", "trial_index": 165}, "uniqueid": "MTK2047:3I2PTA7R3U1UHNXFUP31ULQWX5JQK1", "dateTime": 1516656115426}, {"current_trial": 166, "trialdata": {"rt": -1, "trial_type": "single-stim", "word": "river", "stimulus": "<p id=\"stim\">RIVER</p>", "conditions": [24, 800, "v", 24000], "internal_node_id": "0.0-121.0", "trial": 4, "time_elapsed": 811102, "serialpos": 9, "key_press": -1, "wordID": 1193, "type": "PRES_VIS", "trial_index": 166}, "uniqueid": "MTK2047:3I2PTA7R3U1UHNXFUP31ULQWX5JQK1", "dateTime": 1516656117351}, {"current_trial": 167, "trialdata": {"rt": -1, "trial_type": "single-stim", "word": "blade", "stimulus": "<p id=\"stim\">BLADE</p>", "conditions": [24, 800, "v", 24000], "internal_node_id": "0.0-122.0", "trial": 4, "time_elapsed": 812830, "serialpos": 10, "key_press": -1, "wordID": 133, "type": "PRES_VIS", "trial_index": 167}, "uniqueid": "MTK2047:3I2PTA7R3U1UHNXFUP31ULQWX5JQK1", "dateTime": 1516656119079}, {"current_trial": 168, "trialdata": {"rt": -1, "trial_type": "single-stim", "word": "ground", "stimulus": "<p id=\"stim\">GROUND</p>", "conditions": [24, 800, "v", 24000], "internal_node_id": "0.0-123.0", "trial": 4, "time_elapsed": 814499, "serialpos": 11, "key_press": -1, "wordID": 665, "type": "PRES_VIS", "trial_index": 168}, "uniqueid": "MTK2047:3I2PTA7R3U1UHNXFUP31ULQWX5JQK1", "dateTime": 1516656120749}, {"current_trial": 169, "trialdata": {"rt": -1, "trial_type": "single-stim", "word": "monster", "stimulus": "<p id=\"stim\">MONSTER</p>", "conditions": [24, 800, "v", 24000], "internal_node_id": "0.0-124.0", "trial": 4, "time_elapsed": 816458, "serialpos": 12, "key_press": -1, "wordID": 911, "type": "PRES_VIS", "trial_index": 169}, "uniqueid": "MTK2047:3I2PTA7R3U1UHNXFUP31ULQWX5JQK1", "dateTime": 1516656122707}, {"current_trial": 170, "trialdata": {"rt": -1, "trial_type": "single-stim", "word": "atlas", "stimulus": "<p id=\"stim\">ATLAS</p>", "conditions": [24, 800, "v", 24000], "internal_node_id": "0.0-125.0", "trial": 4, "time_elapsed": 818229, "serialpos": 13, "key_press": -1, "wordID": 52, "type": "PRES_VIS", "trial_index": 170}, "uniqueid": "MTK2047:3I2PTA7R3U1UHNXFUP31ULQWX5JQK1", "dateTime": 1516656124479}, {"current_trial": 171, "trialdata": {"rt": -1, "trial_type": "single-stim", "word": "buggy", "stimulus": "<p id=\"stim\">BUGGY</p>", "conditions": [24, 800, "v", 24000], "internal_node_id": "0.0-126.0", "trial": 4, "time_elapsed": 820112, "serialpos": 14, "key_press": -1, "wordID": 187, "type": "PRES_VIS", "trial_index": 171}, "uniqueid": "MTK2047:3I2PTA7R3U1UHNXFUP31ULQWX5JQK1", "dateTime": 1516656126361}, {"current_trial": 172, "trialdata": {"rt": -1, "trial_type": "single-stim", "word": "loft", "stimulus": "<p id=\"stim\">LOFT</p>", "conditions": [24, 800, "v", 24000], "internal_node_id": "0.0-127.0", "trial": 4, "time_elapsed": 822017, "serialpos": 15, "key_press": -1, "wordID": 839, "type": "PRES_VIS", "trial_index": 172}, "uniqueid": "MTK2047:3I2PTA7R3U1UHNXFUP31ULQWX5JQK1", "dateTime": 1516656128266}, {"current_trial": 173, "trialdata": {"rt": -1, "trial_type": "single-stim", "word": "portrait", "stimulus": "<p id=\"stim\">PORTRAIT</p>", "conditions": [24, 800, "v", 24000], "internal_node_id": "0.0-128.0", "trial": 4, "time_elapsed": 823982, "serialpos": 16, "key_press": -1, "wordID": 1110, "type": "PRES_VIS", "trial_index": 173}, "uniqueid": "MTK2047:3I2PTA7R3U1UHNXFUP31ULQWX5JQK1", "dateTime": 1516656130231}, {"current_trial": 174, "trialdata": {"rt": -1, "trial_type": "single-stim", "word": "mattress", "stimulus": "<p id=\"stim\">MATTRESS</p>", "conditions": [24, 800, "v", 24000], "internal_node_id": "0.0-129.0", "trial": 4, "time_elapsed": 825661, "serialpos": 17, "key_press": -1, "wordID": 878, "type": "PRES_VIS", "trial_index": 174}, "uniqueid": "MTK2047:3I2PTA7R3U1UHNXFUP31ULQWX5JQK1", "dateTime": 1516656131910}, {"current_trial": 175, "trialdata": {"rt": -1, "trial_type": "single-stim", "word": "beast", "stimulus": "<p id=\"stim\">BEAST</p>", "conditions": [24, 800, "v", 24000], "internal_node_id": "0.0-130.0", "trial": 4, "time_elapsed": 827327, "serialpos": 18, "key_press": -1, "wordID": 107, "type": "PRES_VIS", "trial_index": 175}, "uniqueid": "MTK2047:3I2PTA7R3U1UHNXFUP31ULQWX5JQK1", "dateTime": 1516656133577}, {"current_trial": 176, "trialdata": {"rt": -1, "trial_type": "single-stim", "word": "supper", "stimulus": "<p id=\"stim\">SUPPER</p>", "conditions": [24, 800, "v", 24000], "internal_node_id": "0.0-131.0", "trial": 4, "time_elapsed": 829007, "serialpos": 19, "key_press": -1, "wordID": 1410, "type": "PRES_VIS", "trial_index": 176}, "uniqueid": "MTK2047:3I2PTA7R3U1UHNXFUP31ULQWX5JQK1", "dateTime": 1516656135256}, {"current_trial": 177, "trialdata": {"rt": -1, "trial_type": "single-stim", "word": "banquet", "stimulus": "<p id=\"stim\">BANQUET</p>", "conditions": [24, 800, "v", 24000], "internal_node_id": "0.0-132.0", "trial": 4, "time_elapsed": 830627, "serialpos": 20, "key_press": -1, "wordID": 85, "type": "PRES_VIS", "trial_index": 177}, "uniqueid": "MTK2047:3I2PTA7R3U1UHNXFUP31ULQWX5JQK1", "dateTime": 1516656136881}, {"current_trial": 178, "trialdata": {"rt": -1, "trial_type": "single-stim", "word": "hood", "stimulus": "<p id=\"stim\">HOOD</p>", "conditions": [24, 800, "v", 24000], "internal_node_id": "0.0-133.0", "trial": 4, "time_elapsed": 832248, "serialpos": 21, "key_press": -1, "wordID": 713, "type": "PRES_VIS", "trial_index": 178}, "uniqueid": "MTK2047:3I2PTA7R3U1UHNXFUP31ULQWX5JQK1", "dateTime": 1516656138497}, {"current_trial": 179, "trialdata": {"rt": -1, "trial_type": "single-stim", "word": "atom", "stimulus": "<p id=\"stim\">ATOM</p>", "conditions": [24, 800, "v", 24000], "internal_node_id": "0.0-134.0", "trial": 4, "time_elapsed": 833980, "serialpos": 22, "key_press": -1, "wordID": 54, "type": "PRES_VIS", "trial_index": 179}, "uniqueid": "MTK2047:3I2PTA7R3U1UHNXFUP31ULQWX5JQK1", "dateTime": 1516656140229}, {"current_trial": 180, "trialdata": {"rt": -1, "trial_type": "single-stim", "word": "cocktail", "stimulus": "<p id=\"stim\">COCKTAIL</p>", "conditions": [24, 800, "v", 24000], "internal_node_id": "0.0-135.0", "trial": 4, "time_elapsed": 835661, "serialpos": 23, "key_press": -1, "wordID": 337, "type": "PRES_VIS", "trial_index": 180}, "uniqueid": "MTK2047:3I2PTA7R3U1UHNXFUP31ULQWX5JQK1", "dateTime": 1516656141910}, {"current_trial": 181, "trialdata": {"rt": -1, "trial_type": "single-stim", "stimulus": "", "internal_node_id": "0.0-136.0-0.0", "time_elapsed": 837826, "key_press": -1, "type": "PRE_RECALL_DELAY", "trial_index": 181}, "uniqueid": "MTK2047:3I2PTA7R3U1UHNXFUP31ULQWX5JQK1", "dateTime": 1516656144076}, {"current_trial": 182, "trialdata": {"rt": -1000, "trial_type": "single-audio", "stimulus": "/static/audio/400Hz.wav", "internal_node_id": "0.0-137.0", "time_elapsed": 838328, "key_press": -1, "type": "PRE_RECALL_ALERT", "trial_index": 182}, "uniqueid": "MTK2047:3I2PTA7R3U1UHNXFUP31ULQWX5JQK1", "dateTime": 1516656144578}, {"current_trial": 183, "trialdata": {"rt": [4128, 6058, 7494, 9390, 12417, 13578, 15956, 17403, 22777, 25676, 30062, 33441, 36391, 43812, 45825, 54026], "recwords": ["cocktail", "monster", "beat", "blanket", "lagoon", "lake", "stream", "river", "diver", "pasta", "peacher", "window", "blade", "loft", "portal", "banquet"], "key_times": [2152, 2444, 2688, 2936, 3305, 3403, 3626, 3835, 4128, 4723, 4921, 5130, 5220, 5369, 5582, 5724, 6058, 6648, 6856, 6954, 7106, 7494, 8040, 8233, 8337, 8532, 8741, 8910, 9077, 9390, 11010, 11107, 11542, 11766, 11894, 12124, 12417, 12854, 12976, 13112, 13250, 13578, 14448, 14657, 14874, 15061, 15196, 15726, 15956, 16420, 16648, 16887, 16978, 17131, 17403, 17840, 17872, 18190, 18364, 18655, 18944, 19066, 19177, 19663, 19801, 20401, 20820, 20975, 21132, 21720, 21963, 22227, 22361, 22477, 22777, 24285, 24390, 25151, 25301, 25481, 25676, 27131, 27604, 27749, 27878, 28135, 28157, 28221, 28416, 28802, 28945, 29095, 29531, 29731, 30062, 32149, 32358, 32568, 32828, 33081, 33207, 33441, 35174, 35404, 35537, 35947, 36063, 36391, 42564, 42740, 43264, 43495, 43812, 44203, 44490, 44773, 44948, 45091, 45365, 45825, 52117, 52228, 52391, 53057, 53251, 53424, 53582, 54026], "trial_type": "free-recall", "conditions": [24, 800, "v", 24000], "internal_node_id": "0.0-138.0-0.0", "key_presses": [67, 79, 67, 75, 84, 65, 73, 76, 13, 77, 79, 78, 83, 84, 69, 82, 13, 66, 69, 65, 84, 13, 66, 76, 65, 78, 75, 69, 84, 13, 76, 65, 71, 79, 79, 78, 13, 76, 65, 75, 69, 13, 83, 84, 82, 69, 65, 77, 13, 82, 73, 86, 69, 82, 13, 70, 68, 8, 68, 73, 86, 69, 82, 8, 8, 8, 8, 8, 8, 68, 73, 86, 69, 82, 13, 80, 65, 83, 84, 65, 32, 80, 69, 65, 67, 72, 74, 69, 82, 8, 8, 8, 69, 82, 13, 87, 73, 78, 68, 79, 87, 13, 66, 76, 65, 68, 69, 13, 76, 79, 70, 84, 13, 80, 79, 82, 84, 65, 76, 13, 66, 65, 78, 81, 85, 69, 84, 13], "trial": 4, "time_elapsed": 898338, "type": "FREE_RECALL", "trial_index": 183}, "uniqueid": "MTK2047:3I2PTA7R3U1UHNXFUP31ULQWX5JQK1", "dateTime": 1516656204600}, {"current_trial": 184, "trialdata": {"rt": 1546, "trial_type": "text", "internal_node_id": "0.0-139.0", "time_elapsed": 901901, "key_press": 32, "type": "INSTRUCTIONS", "trial_index": 184}, "uniqueid": "MTK2047:3I2PTA7R3U1UHNXFUP31ULQWX5JQK1", "dateTime": 1516656208151}, {"current_trial": 185, "trialdata": {"rt": [2477, 4919, 6659, 10502], "trial_type": "math-distractor", "key_times": [1635, 2082, 2477, 4426, 4565, 4919, 6050, 6290, 6659, 10152, 10347, 10502], "responses": ["14", "17", "19", "22"], "num2": [3, 4, 2, 6, 8], "num3": [4, 8, 9, 7, 3], "conditions": [24, 800, "v", 12000], "internal_node_id": "0.0-140.0", "key_presses": [49, 52, 13, 49, 55, 13, 49, 57, 13, 50, 50, 13], "trial": 5, "time_elapsed": 915910, "type": "DISTRACTOR", "trial_index": 185, "num1": [7, 5, 8, 9, 7]}, "uniqueid": "MTK2047:3I2PTA7R3U1UHNXFUP31ULQWX5JQK1", "dateTime": 1516656222160}, {"current_trial": 186, "trialdata": {"rt": -1, "trial_type": "single-stim", "stimulus": "<p id=\"stim\">10</p>", "internal_node_id": "0.0-141.0-0.0", "time_elapsed": 918916, "key_press": -1, "trial_index": 186}, "uniqueid": "MTK2047:3I2PTA7R3U1UHNXFUP31ULQWX5JQK1", "dateTime": 1516656225165}, {"current_trial": 187, "trialdata": {"rt": -1, "trial_type": "single-stim", "stimulus": "<p id=\"stim\">9</p>", "internal_node_id": "0.0-141.0-1.0", "time_elapsed": 919920, "key_press": -1, "trial_index": 187}, "uniqueid": "MTK2047:3I2PTA7R3U1UHNXFUP31ULQWX5JQK1", "dateTime": 1516656226169}, {"current_trial": 188, "trialdata": {"rt": -1, "trial_type": "single-stim", "stimulus": "<p id=\"stim\">8</p>", "internal_node_id": "0.0-141.0-2.0", "time_elapsed": 920924, "key_press": -1, "trial_index": 188}, "uniqueid": "MTK2047:3I2PTA7R3U1UHNXFUP31ULQWX5JQK1", "dateTime": 1516656227173}, {"current_trial": 189, "trialdata": {"rt": -1, "trial_type": "single-stim", "stimulus": "<p id=\"stim\">7</p>", "internal_node_id": "0.0-141.0-3.0", "time_elapsed": 921927, "key_press": -1, "trial_index": 189}, "uniqueid": "MTK2047:3I2PTA7R3U1UHNXFUP31ULQWX5JQK1", "dateTime": 1516656228176}, {"current_trial": 190, "trialdata": {"rt": -1, "trial_type": "single-stim", "stimulus": "<p id=\"stim\">6</p>", "internal_node_id": "0.0-141.0-4.0", "time_elapsed": 922931, "key_press": -1, "trial_index": 190}, "uniqueid": "MTK2047:3I2PTA7R3U1UHNXFUP31ULQWX5JQK1", "dateTime": 1516656229180}, {"current_trial": 191, "trialdata": {"rt": -1, "trial_type": "single-stim", "stimulus": "<p id=\"stim\">5</p>", "internal_node_id": "0.0-141.0-5.0", "time_elapsed": 923934, "key_press": -1, "trial_index": 191}, "uniqueid": "MTK2047:3I2PTA7R3U1UHNXFUP31ULQWX5JQK1", "dateTime": 1516656230184}, {"current_trial": 192, "trialdata": {"rt": -1, "trial_type": "single-stim", "stimulus": "<p id=\"stim\">4</p>", "internal_node_id": "0.0-141.0-6.0", "time_elapsed": 924939, "key_press": -1, "trial_index": 192}, "uniqueid": "MTK2047:3I2PTA7R3U1UHNXFUP31ULQWX5JQK1", "dateTime": 1516656231188}, {"current_trial": 193, "trialdata": {"rt": -1, "trial_type": "single-stim", "stimulus": "<p id=\"stim\">3</p>", "internal_node_id": "0.0-141.0-7.0", "time_elapsed": 925942, "key_press": -1, "trial_index": 193}, "uniqueid": "MTK2047:3I2PTA7R3U1UHNXFUP31ULQWX5JQK1", "dateTime": 1516656232192}, {"current_trial": 194, "trialdata": {"rt": -1, "trial_type": "single-stim", "stimulus": "<p id=\"stim\">2</p>", "internal_node_id": "0.0-141.0-8.0", "time_elapsed": 926947, "key_press": -1, "trial_index": 194}, "uniqueid": "MTK2047:3I2PTA7R3U1UHNXFUP31ULQWX5JQK1", "dateTime": 1516656233197}, {"current_trial": 195, "trialdata": {"rt": -1, "trial_type": "single-stim", "stimulus": "<p id=\"stim\">1</p>", "internal_node_id": "0.0-141.0-9.0", "time_elapsed": 927952, "key_press": -1, "trial_index": 195}, "uniqueid": "MTK2047:3I2PTA7R3U1UHNXFUP31ULQWX5JQK1", "dateTime": 1516656234202}, {"current_trial": 196, "trialdata": {"rt": -1, "trial_type": "single-stim", "stimulus": "<p id=\"stim\">+</p>", "internal_node_id": "0.0-142.0-0.0", "time_elapsed": 929456, "key_press": -1, "type": "FIXATION", "trial_index": 196}, "uniqueid": "MTK2047:3I2PTA7R3U1UHNXFUP31ULQWX5JQK1", "dateTime": 1516656235705}, {"current_trial": 197, "trialdata": {"rt": -1, "trial_type": "single-stim", "word": "inmate", "stimulus": "<p id=\"stim\">INMATE</p>", "conditions": [24, 800, "v", 12000], "internal_node_id": "0.0-143.0", "trial": 5, "time_elapsed": 930260, "serialpos": 0, "key_press": -1, "wordID": 737, "type": "PRES_VIS", "trial_index": 197}, "uniqueid": "MTK2047:3I2PTA7R3U1UHNXFUP31ULQWX5JQK1", "dateTime": 1516656236509}, {"current_trial": 198, "trialdata": {"rt": -1, "trial_type": "single-stim", "word": "woman", "stimulus": "<p id=\"stim\">WOMAN</p>", "conditions": [24, 800, "v", 12000], "internal_node_id": "0.0-144.0", "trial": 5, "time_elapsed": 932205, "serialpos": 1, "key_press": -1, "wordID": 1619, "type": "PRES_VIS", "trial_index": 198}, "uniqueid": "MTK2047:3I2PTA7R3U1UHNXFUP31ULQWX5JQK1", "dateTime": 1516656238454}, {"current_trial": 199, "trialdata": {"rt": -1, "trial_type": "single-stim", "word": "brick", "stimulus": "<p id=\"stim\">BRICK</p>", "conditions": [24, 800, "v", 12000], "internal_node_id": "0.0-145.0", "trial": 5, "time_elapsed": 933833, "serialpos": 2, "key_press": -1, "wordID": 171, "type": "PRES_VIS", "trial_index": 199}, "uniqueid": "MTK2047:3I2PTA7R3U1UHNXFUP31ULQWX5JQK1", "dateTime": 1516656240083}, {"current_trial": 200, "trialdata": {"rt": -1, "trial_type": "single-stim", "word": "lapel", "stimulus": "<p id=\"stim\">LAPEL</p>", "conditions": [24, 800, "v", 12000], "internal_node_id": "0.0-146.0", "trial": 5, "time_elapsed": 935783, "serialpos": 3, "key_press": -1, "wordID": 799, "type": "PRES_VIS", "trial_index": 200}, "uniqueid": "MTK2047:3I2PTA7R3U1UHNXFUP31ULQWX5JQK1", "dateTime": 1516656242032}, {"current_trial": 201, "trialdata": {"rt": -1, "trial_type": "single-stim", "word": "eagle", "stimulus": "<p id=\"stim\">EAGLE</p>", "conditions": [24, 800, "v", 12000], "internal_node_id": "0.0-147.0", "trial": 5, "time_elapsed": 937435, "serialpos": 4, "key_press": -1, "wordID": 511, "type": "PRES_VIS", "trial_index": 201}, "uniqueid": "MTK2047:3I2PTA7R3U1UHNXFUP31ULQWX5JQK1", "dateTime": 1516656243684}, {"current_trial": 202, "trialdata": {"rt": -1, "trial_type": "single-stim", "word": "bouquet", "stimulus": "<p id=\"stim\">BOUQUET</p>", "conditions": [24, 800, "v", 12000], "internal_node_id": "0.0-148.0", "trial": 5, "time_elapsed": 939342, "serialpos": 5, "key_press": -1, "wordID": 156, "type": "PRES_VIS", "trial_index": 202}, "uniqueid": "MTK2047:3I2PTA7R3U1UHNXFUP31ULQWX5JQK1", "dateTime": 1516656245591}, {"current_trial": 203, "trialdata": {"rt": -1, "trial_type": "single-stim", "word": "tile", "stimulus": "<p id=\"stim\">TILE</p>", "conditions": [24, 800, "v", 12000], "internal_node_id": "0.0-149.0", "trial": 5, "time_elapsed": 941216, "serialpos": 6, "key_press": -1, "wordID": 1467, "type": "PRES_VIS", "trial_index": 203}, "uniqueid": "MTK2047:3I2PTA7R3U1UHNXFUP31ULQWX5JQK1", "dateTime": 1516656247465}, {"current_trial": 204, "trialdata": {"rt": -1, "trial_type": "single-stim", "word": "sphinx", "stimulus": "<p id=\"stim\">SPHINX</p>", "conditions": [24, 800, "v", 12000], "internal_node_id": "0.0-150.0", "trial": 5, "time_elapsed": 943074, "serialpos": 7, "key_press": -1, "wordID": 1348, "type": "PRES_VIS", "trial_index": 204}, "uniqueid": "MTK2047:3I2PTA7R3U1UHNXFUP31ULQWX5JQK1", "dateTime": 1516656249323}, {"current_trial": 205, "trialdata": {"rt": -1, "trial_type": "single-stim", "word": "hawk", "stimulus": "<p id=\"stim\">HAWK</p>", "conditions": [24, 800, "v", 12000], "internal_node_id": "0.0-151.0", "trial": 5, "time_elapsed": 945001, "serialpos": 8, "key_press": -1, "wordID": 691, "type": "PRES_VIS", "trial_index": 205}, "uniqueid": "MTK2047:3I2PTA7R3U1UHNXFUP31ULQWX5JQK1", "dateTime": 1516656251251}, {"current_trial": 206, "trialdata": {"rt": -1, "trial_type": "single-stim", "word": "dorm", "stimulus": "<p id=\"stim\">DORM</p>", "conditions": [24, 800, "v", 12000], "internal_node_id": "0.0-152.0", "trial": 5, "time_elapsed": 946680, "serialpos": 9, "key_press": -1, "wordID": 487, "type": "PRES_VIS", "trial_index": 206}, "uniqueid": "MTK2047:3I2PTA7R3U1UHNXFUP31ULQWX5JQK1", "dateTime": 1516656252935}, {"current_trial": 207, "trialdata": {"rt": -1, "trial_type": "single-stim", "word": "student", "stimulus": "<p id=\"stim\">STUDENT</p>", "conditions": [24, 800, "v", 12000], "internal_node_id": "0.0-153.0", "trial": 5, "time_elapsed": 948429, "serialpos": 10, "key_press": -1, "wordID": 1394, "type": "PRES_VIS", "trial_index": 207}, "uniqueid": "MTK2047:3I2PTA7R3U1UHNXFUP31ULQWX5JQK1", "dateTime": 1516656254678}, {"current_trial": 208, "trialdata": {"rt": -1, "trial_type": "single-stim", "word": "leader", "stimulus": "<p id=\"stim\">LEADER</p>", "conditions": [24, 800, "v", 12000], "internal_node_id": "0.0-154.0", "trial": 5, "time_elapsed": 950062, "serialpos": 11, "key_press": -1, "wordID": 806, "type": "PRES_VIS", "trial_index": 208}, "uniqueid": "MTK2047:3I2PTA7R3U1UHNXFUP31ULQWX5JQK1", "dateTime": 1516656256311}, {"current_trial": 209, "trialdata": {"rt": -1, "trial_type": "single-stim", "word": "sticker", "stimulus": "<p id=\"stim\">STICKER</p>", "conditions": [24, 800, "v", 12000], "internal_node_id": "0.0-155.0", "trial": 5, "time_elapsed": 952061, "serialpos": 12, "key_press": -1, "wordID": 1381, "type": "PRES_VIS", "trial_index": 209}, "uniqueid": "MTK2047:3I2PTA7R3U1UHNXFUP31ULQWX5JQK1", "dateTime": 1516656258310}, {"current_trial": 210, "trialdata": {"rt": -1, "trial_type": "single-stim", "word": "beef", "stimulus": "<p id=\"stim\">BEEF</p>", "conditions": [24, 800, "v", 12000], "internal_node_id": "0.0-156.0", "trial": 5, "time_elapsed": 954051, "serialpos": 13, "key_press": -1, "wordID": 112, "type": "PRES_VIS", "trial_index": 210}, "uniqueid": "MTK2047:3I2PTA7R3U1UHNXFUP31ULQWX5JQK1", "dateTime": 1516656260300}, {"current_trial": 211, "trialdata": {"rt": -1, "trial_type": "single-stim", "word": "agent", "stimulus": "<p id=\"stim\">AGENT</p>", "conditions": [24, 800, "v", 12000], "internal_node_id": "0.0-157.0", "trial": 5, "time_elapsed": 955892, "serialpos": 14, "key_press": -1, "wordID": 9, "type": "PRES_VIS", "trial_index": 211}, "uniqueid": "MTK2047:3I2PTA7R3U1UHNXFUP31ULQWX5JQK1", "dateTime": 1516656262141}, {"current_trial": 212, "trialdata": {"rt": -1, "trial_type": "single-stim", "word": "chemist", "stimulus": "<p id=\"stim\">CHEMIST</p>", "conditions": [24, 800, "v", 12000], "internal_node_id": "0.0-158.0", "trial": 5, "time_elapsed": 957869, "serialpos": 15, "key_press": -1, "wordID": 291, "type": "PRES_VIS", "trial_index": 212}, "uniqueid": "MTK2047:3I2PTA7R3U1UHNXFUP31ULQWX5JQK1", "dateTime": 1516656264119}, {"current_trial": 213, "trialdata": {"rt": -1, "trial_type": "single-stim", "word": "hamper", "stimulus": "<p id=\"stim\">HAMPER</p>", "conditions": [24, 800, "v", 12000], "internal_node_id": "0.0-159.0", "trial": 5, "time_elapsed": 959548, "serialpos": 16, "key_press": -1, "wordID": 681, "type": "PRES_VIS", "trial_index": 213}, "uniqueid": "MTK2047:3I2PTA7R3U1UHNXFUP31ULQWX5JQK1", "dateTime": 1516656265798}, {"current_trial": 214, "trialdata": {"rt": -1, "trial_type": "single-stim", "word": "pizza", "stimulus": "<p id=\"stim\">PIZZA</p>", "conditions": [24, 800, "v", 12000], "internal_node_id": "0.0-160.0", "trial": 5, "time_elapsed": 961521, "serialpos": 17, "key_press": -1, "wordID": 1078, "type": "PRES_VIS", "trial_index": 214}, "uniqueid": "MTK2047:3I2PTA7R3U1UHNXFUP31ULQWX5JQK1", "dateTime": 1516656267770}, {"current_trial": 215, "trialdata": {"rt": -1, "trial_type": "single-stim", "word": "temple", "stimulus": "<p id=\"stim\">TEMPLE</p>", "conditions": [24, 800, "v", 12000], "internal_node_id": "0.0-161.0", "trial": 5, "time_elapsed": 963342, "serialpos": 18, "key_press": -1, "wordID": 1447, "type": "PRES_VIS", "trial_index": 215}, "uniqueid": "MTK2047:3I2PTA7R3U1UHNXFUP31ULQWX5JQK1", "dateTime": 1516656269591}, {"current_trial": 216, "trialdata": {"rt": -1, "trial_type": "single-stim", "word": "razor", "stimulus": "<p id=\"stim\">RAZOR</p>", "conditions": [24, 800, "v", 12000], "internal_node_id": "0.0-162.0", "trial": 5, "time_elapsed": 965034, "serialpos": 19, "key_press": -1, "wordID": 1170, "type": "PRES_VIS", "trial_index": 216}, "uniqueid": "MTK2047:3I2PTA7R3U1UHNXFUP31ULQWX5JQK1", "dateTime": 1516656271283}, {"current_trial": 217, "trialdata": {"rt": -1, "trial_type": "single-stim", "word": "badge", "stimulus": "<p id=\"stim\">BADGE</p>", "conditions": [24, 800, "v", 12000], "internal_node_id": "0.0-163.0", "trial": 5, "time_elapsed": 966821, "serialpos": 20, "key_press": -1, "wordID": 67, "type": "PRES_VIS", "trial_index": 217}, "uniqueid": "MTK2047:3I2PTA7R3U1UHNXFUP31ULQWX5JQK1", "dateTime": 1516656273070}, {"current_trial": 218, "trialdata": {"rt": -1, "trial_type": "single-stim", "word": "stove", "stimulus": "<p id=\"stim\">STOVE</p>", "conditions": [24, 800, "v", 12000], "internal_node_id": "0.0-164.0", "trial": 5, "time_elapsed": 968474, "serialpos": 21, "key_press": -1, "wordID": 1387, "type": "PRES_VIS", "trial_index": 218}, "uniqueid": "MTK2047:3I2PTA7R3U1UHNXFUP31ULQWX5JQK1", "dateTime": 1516656274724}, {"current_trial": 219, "trialdata": {"rt": -1, "trial_type": "single-stim", "word": "scallop", "stimulus": "<p id=\"stim\">SCALLOP</p>", "conditions": [24, 800, "v", 12000], "internal_node_id": "0.0-165.0", "trial": 5, "time_elapsed": 970364, "serialpos": 22, "key_press": -1, "wordID": 1241, "type": "PRES_VIS", "trial_index": 219}, "uniqueid": "MTK2047:3I2PTA7R3U1UHNXFUP31ULQWX5JQK1", "dateTime": 1516656276613}, {"current_trial": 220, "trialdata": {"rt": -1, "trial_type": "single-stim", "word": "seafood", "stimulus": "<p id=\"stim\">SEAFOOD</p>", "conditions": [24, 800, "v", 12000], "internal_node_id": "0.0-166.0", "trial": 5, "time_elapsed": 972038, "serialpos": 23, "key_press": -1, "wordID": 1259, "type": "PRES_VIS", "trial_index": 220}, "uniqueid": "MTK2047:3I2PTA7R3U1UHNXFUP31ULQWX5JQK1", "dateTime": 1516656278288}, {"current_trial": 221, "trialdata": {"rt": -1, "trial_type": "single-stim", "stimulus": "", "internal_node_id": "0.0-167.0-0.0", "time_elapsed": 974351, "key_press": -1, "type": "PRE_RECALL_DELAY", "trial_index": 221}, "uniqueid": "MTK2047:3I2PTA7R3U1UHNXFUP31ULQWX5JQK1", "dateTime": 1516656280600}, {"current_trial": 222, "trialdata": {"rt": -1000, "trial_type": "single-audio", "stimulus": "/static/audio/400Hz.wav", "internal_node_id": "0.0-168.0", "time_elapsed": 974854, "key_press": -1, "type": "PRE_RECALL_ALERT", "trial_index": 222}, "uniqueid": "MTK2047:3I2PTA7R3U1UHNXFUP31ULQWX5JQK1", "dateTime": 1516656281103}, {"current_trial": 223, "trialdata": {"rt": [3255, 5509, 7364, 9211, 13752, 15777, 18583, 20340, 23840, 25756, 29327, 35698, 41867, 43798, 49119, 52912], "recwords": ["scallop", "seafood", "student", "dorm", "agent", "chemist", "pizza", "hamper", "woman", "inmate", "lapel", "bouquet", "sphinx", "tile", "leader", "sticker"], "key_times": [1311, 1579, 1794, 2109, 2268, 2830, 2965, 3255, 3914, 4159, 4282, 4628, 4877, 4997, 5233, 5509, 5898, 6146, 6388, 6616, 6727, 6880, 7079, 7364, 8007, 8294, 8550, 8960, 9211, 10085, 10270, 11642, 11963, 12654, 12965, 13105, 13280, 13488, 13752, 14118, 14312, 14481, 14966, 15176, 15290, 15440, 15777, 17312, 17526, 17962, 18122, 18328, 18583, 19158, 19234, 19419, 19632, 19817, 19997, 20340, 23024, 23154, 23360, 23457, 23592, 23840, 24163, 24344, 24849, 24951, 25132, 25335, 25756, 27944, 28036, 28629, 28742, 28985, 29327, 32345, 32630, 32900, 33141, 33384, 33743, 34066, 34410, 35343, 35698, 38675, 38985, 39162, 39442, 39999, 40251, 40660, 40877, 41084, 41725, 41867, 42815, 43084, 43285, 43381, 43798, 47494, 47827, 48051, 48256, 48448, 48630, 49119, 49513, 49715, 50236, 50917, 51233, 51538, 51826, 52090, 52262, 52912], "trial_type": "free-recall", "conditions": [24, 800, "v", 12000], "internal_node_id": "0.0-169.0-0.0", "key_presses": [83, 67, 65, 76, 76, 79, 80, 13, 83, 69, 65, 70, 79, 79, 68, 13, 83, 84, 85, 68, 69, 78, 84, 13, 68, 79, 82, 77, 13, 68, 82, 8, 8, 65, 71, 69, 78, 84, 13, 67, 72, 69, 77, 73, 83, 84, 13, 80, 73, 90, 90, 65, 13, 72, 65, 77, 80, 69, 82, 13, 87, 79, 77, 65, 78, 13, 73, 78, 77, 65, 84, 69, 13, 76, 65, 80, 69, 76, 13, 71, 8, 66, 79, 85, 81, 85, 69, 84, 13, 80, 8, 83, 72, 8, 80, 72, 73, 78, 88, 13, 84, 73, 76, 69, 13, 76, 69, 65, 68, 69, 82, 13, 83, 82, 8, 84, 73, 67, 75, 69, 82, 13], "trial": 5, "time_elapsed": 1034859, "type": "FREE_RECALL", "trial_index": 223}, "uniqueid": "MTK2047:3I2PTA7R3U1UHNXFUP31ULQWX5JQK1", "dateTime": 1516656341120}, {"current_trial": 224, "trialdata": {"rt": 1682, "trial_type": "text", "internal_node_id": "0.0-170.0", "time_elapsed": 1038556, "key_press": 32, "type": "INSTRUCTIONS", "trial_index": 224}, "uniqueid": "MTK2047:3I2PTA7R3U1UHNXFUP31ULQWX5JQK1", "dateTime": 1516656344805}, {"current_trial": 225, "trialdata": {"rt": [2723, 6452, 9148, 11121, 14146, 16598, 18728, 21366], "trial_type": "math-distractor", "key_times": [2257, 2467, 2723, 3817, 4244, 4534, 4819, 5342, 6053, 6452, 8473, 8802, 9148, 10640, 10837, 11121, 13618, 13855, 14146, 15961, 16256, 16598, 18115, 18421, 18728, 20939, 21143, 21366, 23063, 23669, 23995], "responses": ["12", "16", "18", "20", "18", "19", "16", "11"], "num2": [2, 3, 5, 3, 7, 8, 5, 7, 6], "num3": [9, 6, 9, 8, 7, 3, 5, 2, 4], "conditions": [12, 800, "v", 24000], "internal_node_id": "0.0-171.0", "key_presses": [49, 50, 13, 49, 55, 8, 54, 220, 8, 13, 49, 56, 13, 50, 48, 13, 49, 56, 13, 49, 57, 13, 49, 54, 13, 49, 49, 13, 49, 52, 8], "trial": 6, "time_elapsed": 1064577, "type": "DISTRACTOR", "trial_index": 225, "num1": [1, 7, 4, 9, 4, 8, 6, 2, 3]}, "uniqueid": "MTK2047:3I2PTA7R3U1UHNXFUP31ULQWX5JQK1", "dateTime": 1516656370827}, {"current_trial": 226, "trialdata": {"rt": -1, "trial_type": "single-stim", "stimulus": "<p id=\"stim\">10</p>", "internal_node_id": "0.0-172.0-0.0", "time_elapsed": 1067582, "key_press": -1, "trial_index": 226}, "uniqueid": "MTK2047:3I2PTA7R3U1UHNXFUP31ULQWX5JQK1", "dateTime": 1516656373831}, {"current_trial": 227, "trialdata": {"rt": -1, "trial_type": "single-stim", "stimulus": "<p id=\"stim\">9</p>", "internal_node_id": "0.0-172.0-1.0", "time_elapsed": 1068586, "key_press": -1, "trial_index": 227}, "uniqueid": "MTK2047:3I2PTA7R3U1UHNXFUP31ULQWX5JQK1", "dateTime": 1516656374835}, {"current_trial": 228, "trialdata": {"rt": -1, "trial_type": "single-stim", "stimulus": "<p id=\"stim\">8</p>", "internal_node_id": "0.0-172.0-2.0", "time_elapsed": 1069590, "key_press": -1, "trial_index": 228}, "uniqueid": "MTK2047:3I2PTA7R3U1UHNXFUP31ULQWX5JQK1", "dateTime": 1516656375839}, {"current_trial": 229, "trialdata": {"rt": -1, "trial_type": "single-stim", "stimulus": "<p id=\"stim\">7</p>", "internal_node_id": "0.0-172.0-3.0", "time_elapsed": 1070595, "key_press": -1, "trial_index": 229}, "uniqueid": "MTK2047:3I2PTA7R3U1UHNXFUP31ULQWX5JQK1", "dateTime": 1516656376844}, {"current_trial": 230, "trialdata": {"rt": -1, "trial_type": "single-stim", "stimulus": "<p id=\"stim\">6</p>", "internal_node_id": "0.0-172.0-4.0", "time_elapsed": 1071599, "key_press": -1, "trial_index": 230}, "uniqueid": "MTK2047:3I2PTA7R3U1UHNXFUP31ULQWX5JQK1", "dateTime": 1516656377848}, {"current_trial": 231, "trialdata": {"rt": -1, "trial_type": "single-stim", "stimulus": "<p id=\"stim\">5</p>", "internal_node_id": "0.0-172.0-5.0", "time_elapsed": 1072602, "key_press": -1, "trial_index": 231}, "uniqueid": "MTK2047:3I2PTA7R3U1UHNXFUP31ULQWX5JQK1", "dateTime": 1516656378852}, {"current_trial": 232, "trialdata": {"rt": -1, "trial_type": "single-stim", "stimulus": "<p id=\"stim\">4</p>", "internal_node_id": "0.0-172.0-6.0", "time_elapsed": 1073606, "key_press": -1, "trial_index": 232}, "uniqueid": "MTK2047:3I2PTA7R3U1UHNXFUP31ULQWX5JQK1", "dateTime": 1516656379856}, {"current_trial": 233, "trialdata": {"rt": -1, "trial_type": "single-stim", "stimulus": "<p id=\"stim\">3</p>", "internal_node_id": "0.0-172.0-7.0", "time_elapsed": 1074609, "key_press": -1, "trial_index": 233}, "uniqueid": "MTK2047:3I2PTA7R3U1UHNXFUP31ULQWX5JQK1", "dateTime": 1516656380859}, {"current_trial": 234, "trialdata": {"rt": -1, "trial_type": "single-stim", "stimulus": "<p id=\"stim\">2</p>", "internal_node_id": "0.0-172.0-8.0", "time_elapsed": 1075613, "key_press": -1, "trial_index": 234}, "uniqueid": "MTK2047:3I2PTA7R3U1UHNXFUP31ULQWX5JQK1", "dateTime": 1516656381863}, {"current_trial": 235, "trialdata": {"rt": -1, "trial_type": "single-stim", "stimulus": "<p id=\"stim\">1</p>", "internal_node_id": "0.0-172.0-9.0", "time_elapsed": 1076617, "key_press": -1, "trial_index": 235}, "uniqueid": "MTK2047:3I2PTA7R3U1UHNXFUP31ULQWX5JQK1", "dateTime": 1516656382866}, {"current_trial": 236, "trialdata": {"rt": -1, "trial_type": "single-stim", "stimulus": "<p id=\"stim\">+</p>", "internal_node_id": "0.0-173.0-0.0", "time_elapsed": 1078120, "key_press": -1, "type": "FIXATION", "trial_index": 236}, "uniqueid": "MTK2047:3I2PTA7R3U1UHNXFUP31ULQWX5JQK1", "dateTime": 1516656384370}, {"current_trial": 237, "trialdata": {"rt": -1, "trial_type": "single-stim", "word": "ointment", "stimulus": "<p id=\"stim\">OINTMENT</p>", "conditions": [12, 800, "v", 24000], "internal_node_id": "0.0-174.0", "trial": 6, "time_elapsed": 1078925, "serialpos": 0, "key_press": -1, "wordID": 973, "type": "PRES_VIS", "trial_index": 237}, "uniqueid": "MTK2047:3I2PTA7R3U1UHNXFUP31ULQWX5JQK1", "dateTime": 1516656385174}, {"current_trial": 238, "trialdata": {"rt": -1, "trial_type": "single-stim", "word": "tweezers", "stimulus": "<p id=\"stim\">TWEEZERS</p>", "conditions": [12, 800, "v", 24000], "internal_node_id": "0.0-175.0", "trial": 6, "time_elapsed": 1080915, "serialpos": 1, "key_press": -1, "wordID": 1525, "type": "PRES_VIS", "trial_index": 238}, "uniqueid": "MTK2047:3I2PTA7R3U1UHNXFUP31ULQWX5JQK1", "dateTime": 1516656387164}, {"current_trial": 239, "trialdata": {"rt": -1, "trial_type": "single-stim", "word": "sibling", "stimulus": "<p id=\"stim\">SIBLING</p>", "conditions": [12, 800, "v", 24000], "internal_node_id": "0.0-176.0", "trial": 6, "time_elapsed": 1082787, "serialpos": 2, "key_press": -1, "wordID": 1300, "type": "PRES_VIS", "trial_index": 239}, "uniqueid": "MTK2047:3I2PTA7R3U1UHNXFUP31ULQWX5JQK1", "dateTime": 1516656389036}, {"current_trial": 240, "trialdata": {"rt": -1, "trial_type": "single-stim", "word": "skillet", "stimulus": "<p id=\"stim\">SKILLET</p>", "conditions": [12, 800, "v", 24000], "internal_node_id": "0.0-177.0", "trial": 6, "time_elapsed": 1084568, "serialpos": 3, "key_press": -1, "wordID": 1316, "type": "PRES_VIS", "trial_index": 240}, "uniqueid": "MTK2047:3I2PTA7R3U1UHNXFUP31ULQWX5JQK1", "dateTime": 1516656390817}, {"current_trial": 241, "trialdata": {"rt": -1, "trial_type": "single-stim", "word": "bureau", "stimulus": "<p id=\"stim\">BUREAU</p>", "conditions": [12, 800, "v", 24000], "internal_node_id": "0.0-178.0", "trial": 6, "time_elapsed": 1086456, "serialpos": 4, "key_press": -1, "wordID": 198, "type": "PRES_VIS", "trial_index": 241}, "uniqueid": "MTK2047:3I2PTA7R3U1UHNXFUP31ULQWX5JQK1", "dateTime": 1516656392705}, {"current_trial": 242, "trialdata": {"rt": -1, "trial_type": "single-stim", "word": "brandy", "stimulus": "<p id=\"stim\">BRANDY</p>", "conditions": [12, 800, "v", 24000], "internal_node_id": "0.0-179.0", "trial": 6, "time_elapsed": 1088091, "serialpos": 5, "key_press": -1, "wordID": 168, "type": "PRES_VIS", "trial_index": 242}, "uniqueid": "MTK2047:3I2PTA7R3U1UHNXFUP31ULQWX5JQK1", "dateTime": 1516656394341}, {"current_trial": 243, "trialdata": {"rt": -1, "trial_type": "single-stim", "word": "cigar", "stimulus": "<p id=\"stim\">CIGAR</p>", "conditions": [12, 800, "v", 24000], "internal_node_id": "0.0-180.0", "trial": 6, "time_elapsed": 1089871, "serialpos": 6, "key_press": -1, "wordID": 307, "type": "PRES_VIS", "trial_index": 243}, "uniqueid": "MTK2047:3I2PTA7R3U1UHNXFUP31ULQWX5JQK1", "dateTime": 1516656396121}, {"current_trial": 244, "trialdata": {"rt": -1, "trial_type": "single-stim", "word": "patient", "stimulus": "<p id=\"stim\">PATIENT</p>", "conditions": [12, 800, "v", 24000], "internal_node_id": "0.0-181.0", "trial": 6, "time_elapsed": 1091704, "serialpos": 7, "key_press": -1, "wordID": 1023, "type": "PRES_VIS", "trial_index": 244}, "uniqueid": "MTK2047:3I2PTA7R3U1UHNXFUP31ULQWX5JQK1", "dateTime": 1516656397954}, {"current_trial": 245, "trialdata": {"rt": -1, "trial_type": "single-stim", "word": "tutu", "stimulus": "<p id=\"stim\">TUTU</p>", "conditions": [12, 800, "v", 24000], "internal_node_id": "0.0-182.0", "trial": 6, "time_elapsed": 1093356, "serialpos": 8, "key_press": -1, "wordID": 1523, "type": "PRES_VIS", "trial_index": 245}, "uniqueid": "MTK2047:3I2PTA7R3U1UHNXFUP31ULQWX5JQK1