{"assignmentId": "3N1FSUEFL67FEC474BA1N5U1ING4DZ", "workerId": "MTK2242", "questiondata": {"origin": "United States", "strat-rehearsal": "20", "marital": "Married/Domestic Partnership", "education": "Bachelor's degree", "ethnicity": "Not Hispanic", "color_depth": 24, "distracted": "No", "wrote-notes": "Yes", "strat-other": "pictures, abbreviations, and letters", "screen_width": 1920, "avail_screen_width": 1920, "avail_screen_height": 1040, "strat-image": "100", "language": "English", "gender": "Male", "age": "31", "gender_other": "", "race": ["White"], "strat-categorize": "96", "pixel_depth": 24, "strat-spatial": "21", "strat-story": "96", "race_other": "", "screen_height": 1080}, "bonus": 0, "hitId": "3M7OI89LVYVH1N4DX133BD0DAMG6CE", "counterbalance": 2258, "useragent": "Mozilla/5.0 (Windows NT 10.0; Win64; x64) AppleWebKit/537.36 (KHTML, like Gecko) Chrome/63.0.3239.132 Safari/537.36", "eventdata": [{"eventtype": "initialized", "interval": 0, "value": null, "timestamp": 1516903102142}, {"eventtype": "window_resize", "interval": 0, "value": [1920, 1033], "timestamp": 1516903102142}, {"eventtype": "focus", "interval": 1770481, "value": "off", "timestamp": 1516904872623}, {"eventtype": "focus", "interval": 3455, "value": "on", "timestamp": 1516904876078}], "data": [{"current_trial": 0, "trialdata": {"rt": 2733, "trial_type": "text", "internal_node_id": "0.0-0.0", "time_elapsed": 2740, "key_press": 32, "type": "INSTRUCTIONS", "trial_index": 0}, "uniqueid": "MTK2242:3N1FSUEFL67FEC474BA1N5U1ING4DZ", "dateTime": 1516903105340}, {"current_trial": 1, "trialdata": {"rt": 1749, "trial_type": "text", "internal_node_id": "0.0-1.0", "time_elapsed": 4494, "key_press": 32, "type": "INSTRUCTIONS", "trial_index": 1}, "uniqueid": "MTK2242:3N1FSUEFL67FEC474BA1N5U1ING4DZ", "dateTime": 1516903107092}, {"current_trial": 2, "trialdata": {"rt": [9456], "trial_type": "audio-test", "responses": ["ocean"], "internal_node_id": "0.0-2.0", "time_elapsed": 13959, "type": "AUDIO_TEST", "trial_index": 2}, "uniqueid": "MTK2242:3N1FSUEFL67FEC474BA1N5U1ING4DZ", "dateTime": 1516903116556}, {"current_trial": 3, "trialdata": {"rt": [7876], "trial_type": "audio-test", "responses": ["crystal"], "internal_node_id": "0.0-3.0", "time_elapsed": 21840, "type": "AUDIO_TEST", "trial_index": 3}, "uniqueid": "MTK2242:3N1FSUEFL67FEC474BA1N5U1ING4DZ", "dateTime": 1516903124437}, {"current_trial": 4, "trialdata": {"rt": [4043], "trial_type": "audio-test", "responses": ["spice"], "internal_node_id": "0.0-4.0", "time_elapsed": 25887, "type": "AUDIO_TEST", "trial_index": 4}, "uniqueid": "MTK2242:3N1FSUEFL67FEC474BA1N5U1ING4DZ", "dateTime": 1516903128484}, {"current_trial": 5, "trialdata": {"rt": 18597, "trial_type": "survey-text", "responses": "{\"Q0\":\"10:00\",\"Q1\":\"5:30\",\"Q2\":\"5\"}", "internal_node_id": "0.0-5.0", "time_elapsed": 45239, "type": "SLEEP_SURVEY", "trial_index": 5}, "uniqueid": "MTK2242:3N1FSUEFL67FEC474BA1N5U1ING4DZ", "dateTime": 1516903147836}, {"current_trial": 6, "trialdata": {"rt": 5231, "trial_type": "text", "internal_node_id": "0.0-6.0", "time_elapsed": 51471, "key_press": 13, "type": "INSTRUCTIONS", "trial_index": 6}, "uniqueid": "MTK2242:3N1FSUEFL67FEC474BA1N5U1ING4DZ", "dateTime": 1516903154068}, {"current_trial": 7, "trialdata": {"rt": 11812, "trial_type": "text", "internal_node_id": "0.0-7.0", "time_elapsed": 63786, "key_press": 32, "type": "INSTRUCTIONS", "trial_index": 7}, "uniqueid": "MTK2242:3N1FSUEFL67FEC474BA1N5U1ING4DZ", "dateTime": 1516903166383}, {"current_trial": 8, "trialdata": {"rt": 12250, "trial_type": "text", "internal_node_id": "0.0-8.0", "time_elapsed": 76537, "key_press": 32, "type": "INSTRUCTIONS", "trial_index": 8}, "uniqueid": "MTK2242:3N1FSUEFL67FEC474BA1N5U1ING4DZ", "dateTime": 1516903179134}, {"current_trial": 9, "trialdata": {"rt": [17547], "trial_type": "math-distractor", "key_times": [2805, 3636, 4492, 5492, 17547], "responses": ["10"], "num2": [4, 4], "num3": [5, 8], "conditions": [18, 1200, "v", 18000], "internal_node_id": "0.0-9.0", "key_presses": [49, 48, 32, 8, 13], "trial": 0, "time_elapsed": 95550, "type": "DISTRACTOR", "trial_index": 9, "num1": [1, 9]}, "uniqueid": "MTK2242:3N1FSUEFL67FEC474BA1N5U1ING4DZ", "dateTime": 1516903198147}, {"current_trial": 10, "trialdata": {"rt": -1, "trial_type": "single-stim", "stimulus": "<p id=\"stim\">10</p>", "internal_node_id": "0.0-10.0-0.0", "time_elapsed": 98554, "key_press": -1, "trial_index": 10}, "uniqueid": "MTK2242:3N1FSUEFL67FEC474BA1N5U1ING4DZ", "dateTime": 1516903201152}, {"current_trial": 11, "trialdata": {"rt": -1, "trial_type": "single-stim", "stimulus": "<p id=\"stim\">9</p>", "internal_node_id": "0.0-10.0-1.0", "time_elapsed": 99557, "key_press": -1, "trial_index": 11}, "uniqueid": "MTK2242:3N1FSUEFL67FEC474BA1N5U1ING4DZ", "dateTime": 1516903202154}, {"current_trial": 12, "trialdata": {"rt": -1, "trial_type": "single-stim", "stimulus": "<p id=\"stim\">8</p>", "internal_node_id": "0.0-10.0-2.0", "time_elapsed": 100560, "key_press": -1, "trial_index": 12}, "uniqueid": "MTK2242:3N1FSUEFL67FEC474BA1N5U1ING4DZ", "dateTime": 1516903203157}, {"current_trial": 13, "trialdata": {"rt": -1, "trial_type": "single-stim", "stimulus": "<p id=\"stim\">7</p>", "internal_node_id": "0.0-10.0-3.0", "time_elapsed": 101565, "key_press": -1, "trial_index": 13}, "uniqueid": "MTK2242:3N1FSUEFL67FEC474BA1N5U1ING4DZ", "dateTime": 1516903204162}, {"current_trial": 14, "trialdata": {"rt": -1, "trial_type": "single-stim", "stimulus": "<p id=\"stim\">6</p>", "internal_node_id": "0.0-10.0-4.0", "time_elapsed": 102568, "key_press": -1, "trial_index": 14}, "uniqueid": "MTK2242:3N1FSUEFL67FEC474BA1N5U1ING4DZ", "dateTime": 1516903205165}, {"current_trial": 15, "trialdata": {"rt": -1, "trial_type": "single-stim", "stimulus": "<p id=\"stim\">5</p>", "internal_node_id": "0.0-10.0-5.0", "time_elapsed": 103571, "key_press": -1, "trial_index": 15}, "uniqueid": "MTK2242:3N1FSUEFL67FEC474BA1N5U1ING4DZ", "dateTime": 1516903206168}, {"current_trial": 16, "trialdata": {"rt": -1, "trial_type": "single-stim", "stimulus": "<p id=\"stim\">4</p>", "internal_node_id": "0.0-10.0-6.0", "time_elapsed": 104573, "key_press": -1, "trial_index": 16}, "uniqueid": "MTK2242:3N1FSUEFL67FEC474BA1N5U1ING4DZ", "dateTime": 1516903207170}, {"current_trial": 17, "trialdata": {"rt": -1, "trial_type": "single-stim", "stimulus": "<p id=\"stim\">3</p>", "internal_node_id": "0.0-10.0-7.0", "time_elapsed": 105576, "key_press": -1, "trial_index": 17}, "uniqueid": "MTK2242:3N1FSUEFL67FEC474BA1N5U1ING4DZ", "dateTime": 1516903208173}, {"current_trial": 18, "trialdata": {"rt": -1, "trial_type": "single-stim", "stimulus": "<p id=\"stim\">2</p>", "internal_node_id": "0.0-10.0-8.0", "time_elapsed": 106577, "key_press": -1, "trial_index": 18}, "uniqueid": "MTK2242:3N1FSUEFL67FEC474BA1N5U1ING4DZ", "dateTime": 1516903209175}, {"current_trial": 19, "trialdata": {"rt": -1, "trial_type": "single-stim", "stimulus": "<p id=\"stim\">1</p>", "internal_node_id": "0.0-10.0-9.0", "time_elapsed": 107579, "key_press": -1, "trial_index": 19}, "uniqueid": "MTK2242:3N1FSUEFL67FEC474BA1N5U1ING4DZ", "dateTime": 1516903210177}, {"current_trial": 20, "trialdata": {"rt": -1, "trial_type": "single-stim", "stimulus": "<p id=\"stim\">+</p>", "internal_node_id": "0.0-11.0-0.0", "time_elapsed": 109082, "key_press": -1, "type": "FIXATION", "trial_index": 20}, "uniqueid": "MTK2242:3N1FSUEFL67FEC474BA1N5U1ING4DZ", "dateTime": 1516903211679}, {"current_trial": 21, "trialdata": {"rt": -1, "trial_type": "single-stim", "word": "peach", "stimulus": "<p id=\"stim\">PEACH</p>", "conditions": [18, 1200, "v", 18000], "internal_node_id": "0.0-12.0", "trial": 0, "time_elapsed": 110284, "serialpos": 0, "key_press": -1, "wordID": 1030, "type": "PRES_VIS", "trial_index": 21}, "uniqueid": "MTK2242:3N1FSUEFL67FEC474BA1N5U1ING4DZ", "dateTime": 1516903212881}, {"current_trial": 22, "trialdata": {"rt": -1, "trial_type": "single-stim", "word": "badge", "stimulus": "<p id=\"stim\">BADGE</p>", "conditions": [18, 1200, "v", 18000], "internal_node_id": "0.0-13.0", "trial": 0, "time_elapsed": 112326, "serialpos": 1, "key_press": -1, "wordID": 67, "type": "PRES_VIS", "trial_index": 22}, "uniqueid": "MTK2242:3N1FSUEFL67FEC474BA1N5U1ING4DZ", "dateTime": 1516903214923}, {"current_trial": 23, "trialdata": {"rt": -1, "trial_type": "single-stim", "word": "bunny", "stimulus": "<p id=\"stim\">BUNNY</p>", "conditions": [18, 1200, "v", 18000], "internal_node_id": "0.0-14.0", "trial": 0, "time_elapsed": 114351, "serialpos": 2, "key_press": -1, "wordID": 197, "type": "PRES_VIS", "trial_index": 23}, "uniqueid": "MTK2242:3N1FSUEFL67FEC474BA1N5U1ING4DZ", "dateTime": 1516903216948}, {"current_trial": 24, "trialdata": {"rt": -1, "trial_type": "single-stim", "word": "report", "stimulus": "<p id=\"stim\">REPORT</p>", "conditions": [18, 1200, "v", 18000], "internal_node_id": "0.0-15.0", "trial": 0, "time_elapsed": 116353, "serialpos": 3, "key_press": -1, "wordID": 1183, "type": "PRES_VIS", "trial_index": 24}, "uniqueid": "MTK2242:3N1FSUEFL67FEC474BA1N5U1ING4DZ", "dateTime": 1516903218950}, {"current_trial": 25, "trialdata": {"rt": -1, "trial_type": "single-stim", "word": "curtain", "stimulus": "<p id=\"stim\">CURTAIN</p>", "conditions": [18, 1200, "v", 18000], "internal_node_id": "0.0-16.0", "trial": 0, "time_elapsed": 118686, "serialpos": 4, "key_press": -1, "wordID": 426, "type": "PRES_VIS", "trial_index": 25}, "uniqueid": "MTK2242:3N1FSUEFL67FEC474BA1N5U1ING4DZ", "dateTime": 1516903221283}, {"current_trial": 26, "trialdata": {"rt": -1, "trial_type": "single-stim", "word": "scarecrow", "stimulus": "<p id=\"stim\">SCARECROW</p>", "conditions": [18, 1200, "v", 18000], "internal_node_id": "0.0-17.0", "trial": 0, "time_elapsed": 120853, "serialpos": 5, "key_press": -1, "wordID": 1244, "type": "PRES_VIS", "trial_index": 26}, "uniqueid": "MTK2242:3N1FSUEFL67FEC474BA1N5U1ING4DZ", "dateTime": 1516903223450}, {"current_trial": 27, "trialdata": {"rt": -1, "trial_type": "single-stim", "word": "salmon", "stimulus": "<p id=\"stim\">SALMON</p>", "conditions": [18, 1200, "v", 18000], "internal_node_id": "0.0-18.0", "trial": 0, "time_elapsed": 123181, "serialpos": 6, "key_press": -1, "wordID": 1226, "type": "PRES_VIS", "trial_index": 27}, "uniqueid": "MTK2242:3N1FSUEFL67FEC474BA1N5U1ING4DZ", "dateTime": 1516903225779}, {"current_trial": 28, "trialdata": {"rt": -1, "trial_type": "single-stim", "word": "mars", "stimulus": "<p id=\"stim\">MARS</p>", "conditions": [18, 1200, "v", 18000], "internal_node_id": "0.0-19.0", "trial": 0, "time_elapsed": 125532, "serialpos": 7, "key_press": -1, "wordID": 872, "type": "PRES_VIS", "trial_index": 28}, "uniqueid": "MTK2242:3N1FSUEFL67FEC474BA1N5U1ING4DZ", "dateTime": 1516903228129}, {"current_trial": 29, "trialdata": {"rt": -1, "trial_type": "single-stim", "word": "dashboard", "stimulus": "<p id=\"stim\">DASHBOARD</p>", "conditions": [18, 1200, "v", 18000], "internal_node_id": "0.0-20.0", "trial": 0, "time_elapsed": 127579, "serialpos": 8, "key_press": -1, "wordID": 440, "type": "PRES_VIS", "trial_index": 29}, "uniqueid": "MTK2242:3N1FSUEFL67FEC474BA1N5U1ING4DZ", "dateTime": 1516903230177}, {"current_trial": 30, "trialdata": {"rt": -1, "trial_type": "single-stim", "word": "uncle", "stimulus": "<p id=\"stim\">UNCLE</p>", "conditions": [18, 1200, "v", 18000], "internal_node_id": "0.0-21.0", "trial": 0, "time_elapsed": 129694, "serialpos": 9, "key_press": -1, "wordID": 1535, "type": "PRES_VIS", "trial_index": 30}, "uniqueid": "MTK2242:3N1FSUEFL67FEC474BA1N5U1ING4DZ", "dateTime": 1516903232292}, {"current_trial": 31, "trialdata": {"rt": -1, "trial_type": "single-stim", "word": "sphinx", "stimulus": "<p id=\"stim\">SPHINX</p>", "conditions": [18, 1200, "v", 18000], "internal_node_id": "0.0-22.0", "trial": 0, "time_elapsed": 131937, "serialpos": 10, "key_press": -1, "wordID": 1348, "type": "PRES_VIS", "trial_index": 31}, "uniqueid": "MTK2242:3N1FSUEFL67FEC474BA1N5U1ING4DZ", "dateTime": 1516903234535}, {"current_trial": 32, "trialdata": {"rt": -1, "trial_type": "single-stim", "word": "briefcase", "stimulus": "<p id=\"stim\">BRIEFCASE</p>", "conditions": [18, 1200, "v", 18000], "internal_node_id": "0.0-23.0", "trial": 0, "time_elapsed": 134307, "serialpos": 11, "key_press": -1, "wordID": 174, "type": "PRES_VIS", "trial_index": 32}, "uniqueid": "MTK2242:3N1FSUEFL67FEC474BA1N5U1ING4DZ", "dateTime": 1516903236904}, {"current_trial": 33, "trialdata": {"rt": -1, "trial_type": "single-stim", "word": "raft", "stimulus": "<p id=\"stim\">RAFT</p>", "conditions": [18, 1200, "v", 18000], "internal_node_id": "0.0-24.0", "trial": 0, "time_elapsed": 136636, "serialpos": 12, "key_press": -1, "wordID": 1158, "type": "PRES_VIS", "trial_index": 33}, "uniqueid": "MTK2242:3N1FSUEFL67FEC474BA1N5U1ING4DZ", "dateTime": 1516903239234}, {"current_trial": 34, "trialdata": {"rt": -1, "trial_type": "single-stim", "word": "citrus", "stimulus": "<p id=\"stim\">CITRUS</p>", "conditions": [18, 1200, "v", 18000], "internal_node_id": "0.0-25.0", "trial": 0, "time_elapsed": 138831, "serialpos": 13, "key_press": -1, "wordID": 312, "type": "PRES_VIS", "trial_index": 34}, "uniqueid": "MTK2242:3N1FSUEFL67FEC474BA1N5U1ING4DZ", "dateTime": 1516903241428}, {"current_trial": 35, "trialdata": {"rt": -1, "trial_type": "single-stim", "word": "cyclone", "stimulus": "<p id=\"stim\">CYCLONE</p>", "conditions": [18, 1200, "v", 18000], "internal_node_id": "0.0-26.0", "trial": 0, "time_elapsed": 141025, "serialpos": 14, "key_press": -1, "wordID": 430, "type": "PRES_VIS", "trial_index": 35}, "uniqueid": "MTK2242:3N1FSUEFL67FEC474BA1N5U1ING4DZ", "dateTime": 1516903243623}, {"current_trial": 36, "trialdata": {"rt": -1, "trial_type": "single-stim", "word": "robot", "stimulus": "<p id=\"stim\">ROBOT</p>", "conditions": [18, 1200, "v", 18000], "internal_node_id": "0.0-27.0", "trial": 0, "time_elapsed": 143163, "serialpos": 15, "key_press": -1, "wordID": 1199, "type": "PRES_VIS", "trial_index": 36}, "uniqueid": "MTK2242:3N1FSUEFL67FEC474BA1N5U1ING4DZ", "dateTime": 1516903245761}, {"current_trial": 37, "trialdata": {"rt": -1, "trial_type": "single-stim", "word": "match", "stimulus": "<p id=\"stim\">MATCH</p>", "conditions": [18, 1200, "v", 18000], "internal_node_id": "0.0-28.0", "trial": 0, "time_elapsed": 145206, "serialpos": 16, "key_press": -1, "wordID": 877, "type": "PRES_VIS", "trial_index": 37}, "uniqueid": "MTK2242:3N1FSUEFL67FEC474BA1N5U1ING4DZ", "dateTime": 1516903247803}, {"current_trial": 38, "trialdata": {"rt": -1, "trial_type": "single-stim", "word": "drawing", "stimulus": "<p id=\"stim\">DRAWING</p>", "conditions": [18, 1200, "v", 18000], "internal_node_id": "0.0-29.0", "trial": 0, "time_elapsed": 147391, "serialpos": 17, "key_press": -1, "wordID": 493, "type": "PRES_VIS", "trial_index": 38}, "uniqueid": "MTK2242:3N1FSUEFL67FEC474BA1N5U1ING4DZ", "dateTime": 1516903249988}, {"current_trial": 39, "trialdata": {"rt": -1, "trial_type": "single-stim", "stimulus": "", "internal_node_id": "0.0-30.0-0.0", "time_elapsed": 149465, "key_press": -1, "type": "PRE_RECALL_DELAY", "trial_index": 39}, "uniqueid": "MTK2242:3N1FSUEFL67FEC474BA1N5U1ING4DZ", "dateTime": 1516903252063}, {"current_trial": 40, "trialdata": {"rt": -1000, "trial_type": "single-audio", "stimulus": "/static/audio/400Hz.wav", "internal_node_id": "0.0-31.0", "time_elapsed": 149978, "key_press": -1, "type": "PRE_RECALL_ALERT", "trial_index": 40}, "uniqueid": "MTK2242:3N1FSUEFL67FEC474BA1N5U1ING4DZ", "dateTime": 1516903252575}, {"current_trial": 41, "trialdata": {"rt": [6186, 6345, 10985, 13505, 17194, 21090, 28114, 38377, 43394, 43721, 58785], "recwords": ["peach", "", "bunny", "badge", "robot", "sphinx", "robot", "control", "dashboard", "", "strawberry"], "key_times": [4307, 4433, 4553, 4753, 5666, 6186, 6345, 8865, 9057, 9314, 9457, 9706, 10985, 12257, 12410, 12754, 13170, 13298, 13505, 14538, 14681, 16089, 16244, 16377, 17194, 18849, 19529, 19681, 19921, 20169, 20938, 21090, 27211, 27345, 27577, 27689, 27841, 28114, 36818, 36969, 37259, 37505, 37673, 37858, 38104, 38377, 39426, 39530, 39832, 39968, 40490, 40729, 41083, 41737, 41905, 42285, 42593, 43394, 43721, 53834, 54153, 54417, 54425, 55129, 55409, 55585, 56369, 56563, 56567, 58003, 58282, 58785], "trial_type": "free-recall", "conditions": [18, 1200, "v", 18000], "internal_node_id": "0.0-32.0-0.0", "key_presses": [80, 69, 65, 67, 72, 188, 32, 66, 85, 78, 78, 89, 188, 66, 65, 68, 71, 69, 188, 82, 79, 66, 79, 84, 188, 83, 80, 72, 73, 78, 88, 188, 82, 79, 66, 79, 84, 188, 67, 79, 78, 84, 82, 79, 76, 188, 68, 65, 83, 72, 66, 79, 82, 8, 65, 82, 68, 188, 32, 83, 84, 82, 84, 8, 65, 87, 66, 69, 82, 82, 89, 13], "trial": 0, "time_elapsed": 209984, "type": "FREE_RECALL", "trial_index": 41}, "uniqueid": "MTK2242:3N1FSUEFL67FEC474BA1N5U1ING4DZ", "dateTime": 1516903312587}, {"current_trial": 42, "trialdata": {"rt": 3723, "trial_type": "text", "internal_node_id": "0.0-33.0", "time_elapsed": 215714, "key_press": 32, "type": "INSTRUCTIONS", "trial_index": 42}, "uniqueid": "MTK2242:3N1FSUEFL67FEC474BA1N5U1ING4DZ", "dateTime": 1516903318311}, {"current_trial": 43, "trialdata": {"rt": [], "trial_type": "math-distractor", "key_times": [3534, 4282, 5338, 6410, 7307, 8131, 8610], "responses": [], "num2": [5], "num3": [2], "conditions": [18, 1200, "v", 18000], "internal_node_id": "0.0-34.0", "key_presses": [49, 52, 190, 8, 188, 8, 32], "trial": 1, "time_elapsed": 235719, "type": "DISTRACTOR", "trial_index": 43, "num1": [7]}, "uniqueid": "MTK2242:3N1FSUEFL67FEC474BA1N5U1ING4DZ", "dateTime": 1516903338316}, {"current_trial": 44, "trialdata": {"rt": -1, "trial_type": "single-stim", "stimulus": "<p id=\"stim\">10</p>", "internal_node_id": "0.0-35.0-0.0", "time_elapsed": 238721, "key_press": -1, "trial_index": 44}, "uniqueid": "MTK2242:3N1FSUEFL67FEC474BA1N5U1ING4DZ", "dateTime": 1516903341319}, {"current_trial": 45, "trialdata": {"rt": -1, "trial_type": "single-stim", "stimulus": "<p id=\"stim\">9</p>", "internal_node_id": "0.0-35.0-1.0", "time_elapsed": 239724, "key_press": -1, "trial_index": 45}, "uniqueid": "MTK2242:3N1FSUEFL67FEC474BA1N5U1ING4DZ", "dateTime": 1516903342321}, {"current_trial": 46, "trialdata": {"rt": -1, "trial_type": "single-stim", "stimulus": "<p id=\"stim\">8</p>", "internal_node_id": "0.0-35.0-2.0", "time_elapsed": 240726, "key_press": -1, "trial_index": 46}, "uniqueid": "MTK2242:3N1FSUEFL67FEC474BA1N5U1ING4DZ", "dateTime": 1516903343324}, {"current_trial": 47, "trialdata": {"rt": -1, "trial_type": "single-stim", "stimulus": "<p id=\"stim\">7</p>", "internal_node_id": "0.0-35.0-3.0", "time_elapsed": 241728, "key_press": -1, "trial_index": 47}, "uniqueid": "MTK2242:3N1FSUEFL67FEC474BA1N5U1ING4DZ", "dateTime": 1516903344326}, {"current_trial": 48, "trialdata": {"rt": -1, "trial_type": "single-stim", "stimulus": "<p id=\"stim\">6</p>", "internal_node_id": "0.0-35.0-4.0", "time_elapsed": 242730, "key_press": -1, "trial_index": 48}, "uniqueid": "MTK2242:3N1FSUEFL67FEC474BA1N5U1ING4DZ", "dateTime": 1516903345328}, {"current_trial": 49, "trialdata": {"rt": -1, "trial_type": "single-stim", "stimulus": "<p id=\"stim\">5</p>", "internal_node_id": "0.0-35.0-5.0", "time_elapsed": 243732, "key_press": -1, "trial_index": 49}, "uniqueid": "MTK2242:3N1FSUEFL67FEC474BA1N5U1ING4DZ", "dateTime": 1516903346330}, {"current_trial": 50, "trialdata": {"rt": -1, "trial_type": "single-stim", "stimulus": "<p id=\"stim\">4</p>", "internal_node_id": "0.0-35.0-6.0", "time_elapsed": 244734, "key_press": -1, "trial_index": 50}, "uniqueid": "MTK2242:3N1FSUEFL67FEC474BA1N5U1ING4DZ", "dateTime": 1516903347332}, {"current_trial": 51, "trialdata": {"rt": -1, "trial_type": "single-stim", "stimulus": "<p id=\"stim\">3</p>", "internal_node_id": "0.0-35.0-7.0", "time_elapsed": 245737, "key_press": -1, "trial_index": 51}, "uniqueid": "MTK2242:3N1FSUEFL67FEC474BA1N5U1ING4DZ", "dateTime": 1516903348335}, {"current_trial": 52, "trialdata": {"rt": -1, "trial_type": "single-stim", "stimulus": "<p id=\"stim\">2</p>", "internal_node_id": "0.0-35.0-8.0", "time_elapsed": 246739, "key_press": -1, "trial_index": 52}, "uniqueid": "MTK2242:3N1FSUEFL67FEC474BA1N5U1ING4DZ", "dateTime": 1516903349337}, {"current_trial": 53, "trialdata": {"rt": -1, "trial_type": "single-stim", "stimulus": "<p id=\"stim\">1</p>", "internal_node_id": "0.0-35.0-9.0", "time_elapsed": 247741, "key_press": -1, "trial_index": 53}, "uniqueid": "MTK2242:3N1FSUEFL67FEC474BA1N5U1ING4DZ", "dateTime": 1516903350339}, {"current_trial": 54, "trialdata": {"rt": -1, "trial_type": "single-stim", "stimulus": "<p id=\"stim\">+</p>", "internal_node_id": "0.0-36.0-0.0", "time_elapsed": 249265, "key_press": -1, "type": "FIXATION", "trial_index": 54}, "uniqueid": "MTK2242:3N1FSUEFL67FEC474BA1N5U1ING4DZ", "dateTime": 1516903351863}, {"current_trial": 55, "trialdata": {"rt": -1, "trial_type": "single-stim", "word": "honey", "stimulus": "<p id=\"stim\">HONEY</p>", "conditions": [18, 1200, "v", 18000], "internal_node_id": "0.0-37.0", "trial": 1, "time_elapsed": 250467, "serialpos": 0, "key_press": -1, "wordID": 712, "type": "PRES_VIS", "trial_index": 55}, "uniqueid": "MTK2242:3N1FSUEFL67FEC474BA1N5U1ING4DZ", "dateTime": 1516903353065}, {"current_trial": 56, "trialdata": {"rt": -1, "trial_type": "single-stim", "word": "preacher", "stimulus": "<p id=\"stim\">PREACHER</p>", "conditions": [18, 1200, "v", 18000], "internal_node_id": "0.0-38.0", "trial": 1, "time_elapsed": 252686, "serialpos": 1, "key_press": -1, "wordID": 1118, "type": "PRES_VIS", "trial_index": 56}, "uniqueid": "MTK2242:3N1FSUEFL67FEC474BA1N5U1ING4DZ", "dateTime": 1516903355284}, {"current_trial": 57, "trialdata": {"rt": -1, "trial_type": "single-stim", "word": "outlaw", "stimulus": "<p id=\"stim\">OUTLAW</p>", "conditions": [18, 1200, "v", 18000], "internal_node_id": "0.0-39.0", "trial": 1, "time_elapsed": 254969, "serialpos": 2, "key_press": -1, "wordID": 988, "type": "PRES_VIS", "trial_index": 57}, "uniqueid": "MTK2242:3N1FSUEFL67FEC474BA1N5U1ING4DZ", "dateTime": 1516903357566}, {"current_trial": 58, "trialdata": {"rt": -1, "trial_type": "single-stim", "word": "rattle", "stimulus": "<p id=\"stim\">RATTLE</p>", "conditions": [18, 1200, "v", 18000], "internal_node_id": "0.0-40.0", "trial": 1, "time_elapsed": 257238, "serialpos": 3, "key_press": -1, "wordID": 1169, "type": "PRES_VIS", "trial_index": 58}, "uniqueid": "MTK2242:3N1FSUEFL67FEC474BA1N5U1ING4DZ", "dateTime": 1516903359835}, {"current_trial": 59, "trialdata": {"rt": -1, "trial_type": "single-stim", "word": "cattle", "stimulus": "<p id=\"stim\">CATTLE</p>", "conditions": [18, 1200, "v", 18000], "internal_node_id": "0.0-41.0", "trial": 1, "time_elapsed": 259553, "serialpos": 4, "key_press": -1, "wordID": 260, "type": "PRES_VIS", "trial_index": 59}, "uniqueid": "MTK2242:3N1FSUEFL67FEC474BA1N5U1ING4DZ", "dateTime": 1516903362151}, {"current_trial": 60, "trialdata": {"rt": -1, "trial_type": "single-stim", "word": "crevice", "stimulus": "<p id=\"stim\">CREVICE</p>", "conditions": [18, 1200, "v", 18000], "internal_node_id": "0.0-42.0", "trial": 1, "time_elapsed": 261580, "serialpos": 5, "key_press": -1, "wordID": 404, "type": "PRES_VIS", "trial_index": 60}, "uniqueid": "MTK2242:3N1FSUEFL67FEC474BA1N5U1ING4DZ", "dateTime": 1516903364178}, {"current_trial": 61, "trialdata": {"rt": -1, "trial_type": "single-stim", "word": "whistle", "stimulus": "<p id=\"stim\">WHISTLE</p>", "conditions": [18, 1200, "v", 18000], "internal_node_id": "0.0-43.0", "trial": 1, "time_elapsed": 263925, "serialpos": 6, "key_press": -1, "wordID": 1605, "type": "PRES_VIS", "trial_index": 61}, "uniqueid": "MTK2242:3N1FSUEFL67FEC474BA1N5U1ING4DZ", "dateTime": 1516903366522}, {"current_trial": 62, "trialdata": {"rt": -1, "trial_type": "single-stim", "word": "carriage", "stimulus": "<p id=\"stim\">CARRIAGE</p>", "conditions": [18, 1200, "v", 18000], "internal_node_id": "0.0-44.0", "trial": 1, "time_elapsed": 266238, "serialpos": 7, "key_press": -1, "wordID": 247, "type": "PRES_VIS", "trial_index": 62}, "uniqueid": "MTK2242:3N1FSUEFL67FEC474BA1N5U1ING4DZ", "dateTime": 1516903368835}, {"current_trial": 63, "trialdata": {"rt": -1, "trial_type": "single-stim", "word": "plaster", "stimulus": "<p id=\"stim\">PLASTER</p>", "conditions": [18, 1200, "v", 18000], "internal_node_id": "0.0-45.0", "trial": 1, "time_elapsed": 268284, "serialpos": 8, "key_press": -1, "wordID": 1084, "type": "PRES_VIS", "trial_index": 63}, "uniqueid": "MTK2242:3N1FSUEFL67FEC474BA1N5U1ING4DZ", "dateTime": 1516903370881}, {"current_trial": 64, "trialdata": {"rt": -1, "trial_type": "single-stim", "word": "gymnast", "stimulus": "<p id=\"stim\">GYMNAST</p>", "conditions": [18, 1200, "v", 18000], "internal_node_id": "0.0-46.0", "trial": 1, "time_elapsed": 270393, "serialpos": 9, "key_press": -1, "wordID": 674, "type": "PRES_VIS", "trial_index": 64}, "uniqueid": "MTK2242:3N1FSUEFL67FEC474BA1N5U1ING4DZ", "dateTime": 1516903372991}, {"current_trial": 65, "trialdata": {"rt": -1, "trial_type": "single-stim", "word": "stallion", "stimulus": "<p id=\"stim\">STALLION</p>", "conditions": [18, 1200, "v", 18000], "internal_node_id": "0.0-47.0", "trial": 1, "time_elapsed": 272576, "serialpos": 10, "key_press": -1, "wordID": 1368, "type": "PRES_VIS", "trial_index": 65}, "uniqueid": "MTK2242:3N1FSUEFL67FEC474BA1N5U1ING4DZ", "dateTime": 1516903375174}, {"current_trial": 66, "trialdata": {"rt": -1, "trial_type": "single-stim", "word": "shoulder", "stimulus": "<p id=\"stim\">SHOULDER</p>", "conditions": [18, 1200, "v", 18000], "internal_node_id": "0.0-48.0", "trial": 1, "time_elapsed": 274663, "serialpos": 11, "key_press": -1, "wordID": 1293, "type": "PRES_VIS", "trial_index": 66}, "uniqueid": "MTK2242:3N1FSUEFL67FEC474BA1N5U1ING4DZ", "dateTime": 1516903377261}, {"current_trial": 67, "trialdata": {"rt": -1, "trial_type": "single-stim", "word": "message", "stimulus": "<p id=\"stim\">MESSAGE</p>", "conditions": [18, 1200, "v", 18000], "internal_node_id": "0.0-49.0", "trial": 1, "time_elapsed": 277041, "serialpos": 12, "key_press": -1, "wordID": 887, "type": "PRES_VIS", "trial_index": 67}, "uniqueid": "MTK2242:3N1FSUEFL67FEC474BA1N5U1ING4DZ", "dateTime": 1516903379638}, {"current_trial": 68, "trialdata": {"rt": -1, "trial_type": "single-stim", "word": "subway", "stimulus": "<p id=\"stim\">SUBWAY</p>", "conditions": [18, 1200, "v", 18000], "internal_node_id": "0.0-50.0", "trial": 1, "time_elapsed": 279437, "serialpos": 13, "key_press": -1, "wordID": 1399, "type": "PRES_VIS", "trial_index": 68}, "uniqueid": "MTK2242:3N1FSUEFL67FEC474BA1N5U1ING4DZ", "dateTime": 1516903382034}, {"current_trial": 69, "trialdata": {"rt": -1, "trial_type": "single-stim", "word": "forest", "stimulus": "<p id=\"stim\">FOREST</p>", "conditions": [18, 1200, "v", 18000], "internal_node_id": "0.0-51.0", "trial": 1, "time_elapsed": 281737, "serialpos": 14, "key_press": -1, "wordID": 592, "type": "PRES_VIS", "trial_index": 69}, "uniqueid": "MTK2242:3N1FSUEFL67FEC474BA1N5U1ING4DZ", "dateTime": 1516903384335}, {"current_trial": 70, "trialdata": {"rt": -1, "trial_type": "single-stim", "word": "dime", "stimulus": "<p id=\"stim\">DIME</p>", "conditions": [18, 1200, "v", 18000], "internal_node_id": "0.0-52.0", "trial": 1, "time_elapsed": 284108, "serialpos": 15, "key_press": -1, "wordID": 465, "type": "PRES_VIS", "trial_index": 70}, "uniqueid": "MTK2242:3N1FSUEFL67FEC474BA1N5U1ING4DZ", "dateTime": 1516903386705}, {"current_trial": 71, "trialdata": {"rt": -1, "trial_type": "single-stim", "word": "twister", "stimulus": "<p id=\"stim\">TWISTER</p>", "conditions": [18, 1200, "v", 18000], "internal_node_id": "0.0-53.0", "trial": 1, "time_elapsed": 286151, "serialpos": 16, "key_press": -1, "wordID": 1529, "type": "PRES_VIS", "trial_index": 71}, "uniqueid": "MTK2242:3N1FSUEFL67FEC474BA1N5U1ING4DZ", "dateTime": 1516903388748}, {"current_trial": 72, "trialdata": {"rt": -1, "trial_type": "single-stim", "word": "pudding", "stimulus": "<p id=\"stim\">PUDDING</p>", "conditions": [18, 1200, "v", 18000], "internal_node_id": "0.0-54.0", "trial": 1, "time_elapsed": 288452, "serialpos": 17, "key_press": -1, "wordID": 1138, "type": "PRES_VIS", "trial_index": 72}, "uniqueid": "MTK2242:3N1FSUEFL67FEC474BA1N5U1ING4DZ", "dateTime": 1516903391049}, {"current_trial": 73, "trialdata": {"rt": -1, "trial_type": "single-stim", "stimulus": "", "internal_node_id": "0.0-55.0-0.0", "time_elapsed": 290864, "key_press": -1, "type": "PRE_RECALL_DELAY", "trial_index": 73}, "uniqueid": "MTK2242:3N1FSUEFL67FEC474BA1N5U1ING4DZ", "dateTime": 1516903393462}, {"current_trial": 74, "trialdata": {"rt": -1000, "trial_type": "single-audio", "stimulus": "/static/audio/400Hz.wav", "internal_node_id": "0.0-56.0", "time_elapsed": 291367, "key_press": -1, "type": "PRE_RECALL_ALERT", "trial_index": 74}, "uniqueid": "MTK2242:3N1FSUEFL67FEC474BA1N5U1ING4DZ", "dateTime": 1516903393965}, {"current_trial": 75, "trialdata": {"rt": [8108, 11388, 14220, 18287, 19916, 22940, 24567, 28966, 32356, 37126, 39277, 39549, 42076, 45996, 48501, 50748, 53004, 59858], "recwords": ["honey", "preacher", "outlaw", "rattle", "cattle", "whistle", "crevice", "plaster", "gymnast", "stallion", "shoulder", "", "massage", "forest", "dime", "twister", "pudding", ""], "key_times": [6815, 6980, 7124, 7284, 7452, 8108, 10205, 10444, 10508, 10628, 10852, 10988, 11092, 11204, 11388, 12980, 13237, 13492, 13708, 13869, 14068, 14220, 15694, 15844, 16390, 16525, 16629, 16772, 18287, 18883, 18971, 19269, 19412, 19541, 19652, 19916, 21492, 21772, 21996, 22252, 22534, 22647, 22765, 22940, 23212, 23523, 23635, 23900, 24084, 24221, 24380, 24567, 26597, 26835, 26965, 27126, 27444, 27636, 27822, 28966, 29854, 29996, 30476, 30706, 31100, 31236, 32166, 32356, 32652, 33385, 33619, 34277, 34468, 34692, 34867, 35124, 37126, 37948, 38116, 38324, 38428, 38694, 38868, 38981, 39140, 39277, 39549, 40508, 40701, 40836, 41028, 41196, 41780, 41884, 42076, 44595, 44836, 45133, 45300, 45493, 45779, 45996, 47764, 47965, 48165, 48332, 48501, 49174, 49452, 49669, 49900, 50197, 50365, 50508, 50748, 51548, 51897, 52285, 52444, 52549, 52757, 52844, 53004, 59858], "trial_type": "free-recall", "conditions": [18, 1200, "v", 18000], "internal_node_id": "0.0-57.0-0.0", "key_presses": [72, 79, 78, 69, 89, 32, 80, 82, 69, 65, 67, 72, 69, 82, 32, 79, 85, 84, 76, 65, 87, 32, 82, 65, 84, 84, 76, 69, 32, 67, 65, 84, 84, 76, 69, 32, 87, 72, 73, 83, 84, 76, 69, 32, 67, 82, 69, 86, 73, 67, 69, 32, 80, 76, 65, 83, 84, 69, 82, 32, 71, 89, 77, 78, 65, 83, 84, 32, 83, 84, 65, 76, 76, 73, 79, 78, 32, 83, 72, 79, 85, 76, 68, 69, 82, 32, 32, 77, 65, 83, 83, 65, 71, 69, 32, 70, 79, 82, 69, 83, 84, 32, 68, 73, 77, 69, 32, 84, 87, 73, 83, 84, 69, 82, 32, 80, 85, 68, 68, 73, 78, 71, 32, 32], "trial": 1, "time_elapsed": 351373, "type": "FREE_RECALL", "trial_index": 75}, "uniqueid": "MTK2242:3N1FSUEFL67FEC474BA1N5U1ING4DZ", "dateTime": 1516903453976}, {"current_trial": 76, "trialdata": {"rt": 4500, "trial_type": "text", "internal_node_id": "0.0-58.0", "time_elapsed": 357881, "key_press": 32, "type": "INSTRUCTIONS", "trial_index": 76}, "uniqueid": "MTK2242:3N1FSUEFL67FEC474BA1N5U1ING4DZ", "dateTime": 1516903460478}, {"current_trial": 77, "trialdata": {"rt": [9594], "trial_type": "math-distractor", "key_times": [8829, 9209, 9594], "responses": ["15"], "num2": [5, 8], "num3": [8, 2], "conditions": [24, 800, "v", 12000], "internal_node_id": "0.0-59.0", "key_presses": [49, 53, 13], "trial": 2, "time_elapsed": 370887, "type": "DISTRACTOR", "trial_index": 77, "num1": [2, 3]}, "uniqueid": "MTK2242:3N1FSUEFL67FEC474BA1N5U1ING4DZ", "dateTime": 1516903473484}, {"current_trial": 78, "trialdata": {"rt": -1, "trial_type": "single-stim", "stimulus": "<p id=\"stim\">10</p>", "internal_node_id": "0.0-60.0-0.0", "time_elapsed": 373889, "key_press": -1, "trial_index": 78}, "uniqueid": "MTK2242:3N1FSUEFL67FEC474BA1N5U1ING4DZ", "dateTime": 1516903476486}, {"current_trial": 79, "trialdata": {"rt": -1, "trial_type": "single-stim", "stimulus": "<p id=\"stim\">9</p>", "internal_node_id": "0.0-60.0-1.0", "time_elapsed": 374891, "key_press": -1, "trial_index": 79}, "uniqueid": "MTK2242:3N1FSUEFL67FEC474BA1N5U1ING4DZ", "dateTime": 1516903477489}, {"current_trial": 80, "trialdata": {"rt": -1, "trial_type": "single-stim", "stimulus": "<p id=\"stim\">8</p>", "internal_node_id": "0.0-60.0-2.0", "time_elapsed": 375893, "key_press": -1, "trial_index": 80}, "uniqueid": "MTK2242:3N1FSUEFL67FEC474BA1N5U1ING4DZ", "dateTime": 1516903478491}, {"current_trial": 81, "trialdata": {"rt": -1, "trial_type": "single-stim", "stimulus": "<p id=\"stim\">7</p>", "internal_node_id": "0.0-60.0-3.0", "time_elapsed": 376895, "key_press": -1, "trial_index": 81}, "uniqueid": "MTK2242:3N1FSUEFL67FEC474BA1N5U1ING4DZ", "dateTime": 1516903479492}, {"current_trial": 82, "trialdata": {"rt": -1, "trial_type": "single-stim", "stimulus": "<p id=\"stim\">6</p>", "internal_node_id": "0.0-60.0-4.0", "time_elapsed": 377896, "key_press": -1, "trial_index": 82}, "uniqueid": "MTK2242:3N1FSUEFL67FEC474BA1N5U1ING4DZ", "dateTime": 1516903480494}, {"current_trial": 83, "trialdata": {"rt": -1, "trial_type": "single-stim", "stimulus": "<p id=\"stim\">5</p>", "internal_node_id": "0.0-60.0-5.0", "time_elapsed": 378898, "key_press": -1, "trial_index": 83}, "uniqueid": "MTK2242:3N1FSUEFL67FEC474BA1N5U1ING4DZ", "dateTime": 1516903481495}, {"current_trial": 84, "trialdata": {"rt": -1, "trial_type": "single-stim", "stimulus": "<p id=\"stim\">4</p>", "internal_node_id": "0.0-60.0-6.0", "time_elapsed": 379900, "key_press": -1, "trial_index": 84}, "uniqueid": "MTK2242:3N1FSUEFL67FEC474BA1N5U1ING4DZ", "dateTime": 1516903482498}, {"current_trial": 85, "trialdata": {"rt": -1, "trial_type": "single-stim", "stimulus": "<p id=\"stim\">3</p>", "internal_node_id": "0.0-60.0-7.0", "time_elapsed": 380902, "key_press": -1, "trial_index": 85}, "uniqueid": "MTK2242:3N1FSUEFL67FEC474BA1N5U1ING4DZ", "dateTime": 1516903483500}, {"current_trial": 86, "trialdata": {"rt": -1, "trial_type": "single-stim", "stimulus": "<p id=\"stim\">2</p>", "internal_node_id": "0.0-60.0-8.0", "time_elapsed": 381904, "key_press": -1, "trial_index": 86}, "uniqueid": "MTK2242:3N1FSUEFL67FEC474BA1N5U1ING4DZ", "dateTime": 1516903484501}, {"current_trial": 87, "trialdata": {"rt": -1, "trial_type": "single-stim", "stimulus": "<p id=\"stim\">1</p>", "internal_node_id": "0.0-60.0-9.0", "time_elapsed": 382906, "key_press": -1, "trial_index": 87}, "uniqueid": "MTK2242:3N1FSUEFL67FEC474BA1N5U1ING4DZ", "dateTime": 1516903485504}, {"current_trial": 88, "trialdata": {"rt": -1, "trial_type": "single-stim", "stimulus": "<p id=\"stim\">+</p>", "internal_node_id": "0.0-61.0-0.0", "time_elapsed": 384408, "key_press": -1, "type": "FIXATION", "trial_index": 88}, "uniqueid": "MTK2242:3N1FSUEFL67FEC474BA1N5U1ING4DZ", "dateTime": 1516903487005}, {"current_trial": 89, "trialdata": {"rt": -1, "trial_type": "single-stim", "word": "diner", "stimulus": "<p id=\"stim\">DINER</p>", "conditions": [24, 800, "v", 12000], "internal_node_id": "0.0-62.0", "trial": 2, "time_elapsed": 385210, "serialpos": 0, "key_press": -1, "wordID": 466, "type": "PRES_VIS", "trial_index": 89}, "uniqueid": "MTK2242:3N1FSUEFL67FEC474BA1N5U1ING4DZ", "dateTime": 1516903487807}, {"current_trial": 90, "trialdata": {"rt": -1, "trial_type": "single-stim", "word": "cafe", "stimulus": "<p id=\"stim\">CAFE</p>", "conditions": [24, 800, "v", 12000], "internal_node_id": "0.0-63.0", "trial": 2, "time_elapsed": 386867, "serialpos": 1, "key_press": -1, "wordID": 215, "type": "PRES_VIS", "trial_index": 90}, "uniqueid": "MTK2242:3N1FSUEFL67FEC474BA1N5U1ING4DZ", "dateTime": 1516903489464}, {"current_trial": 91, "trialdata": {"rt": -1, "trial_type": "single-stim", "word": "garden", "stimulus": "<p id=\"stim\">GARDEN</p>", "conditions": [24, 800, "v", 12000], "internal_node_id": "0.0-64.0", "trial": 2, "time_elapsed": 388833, "serialpos": 2, "key_press": -1, "wordID": 622, "type": "PRES_VIS", "trial_index": 91}, "uniqueid": "MTK2242:3N1FSUEFL67FEC474BA1N5U1ING4DZ", "dateTime": 1516903491431}, {"current_trial": 92, "trialdata": {"rt": -1, "trial_type": "single-stim", "word": "dolphin", "stimulus": "<p id=\"stim\">DOLPHIN</p>", "conditions": [24, 800, "v", 12000], "internal_node_id": "0.0-65.0", "trial": 2, "time_elapsed": 390516, "serialpos": 3, "key_press": -1, "wordID": 482, "type": "PRES_VIS", "trial_index": 92}, "uniqueid": "MTK2242:3N1FSUEFL67FEC474BA1N5U1ING4DZ", "dateTime": 1516903493114}, {"current_trial": 93, "trialdata": {"rt": -1, "trial_type": "single-stim", "word": "teacher", "stimulus": "<p id=\"stim\">TEACHER</p>", "conditions": [24, 800, "v", 12000], "internal_node_id": "0.0-66.0", "trial": 2, "time_elapsed": 392331, "serialpos": 4, "key_press": -1, "wordID": 1439, "type": "PRES_VIS", "trial_index": 93}, "uniqueid": "MTK2242:3N1FSUEFL67FEC474BA1N5U1ING4DZ", "dateTime": 1516903494928}, {"current_trial": 94, "trialdata": {"rt": -1, "trial_type": "single-stim", "word": "army", "stimulus": "<p id=\"stim\">ARMY</p>", "conditions": [24, 800, "v", 12000], "internal_node_id": "0.0-67.0", "trial": 2, "time_elapsed": 394217, "serialpos": 5, "key_press": -1, "wordID": 38, "type": "PRES_VIS", "trial_index": 94}, "uniqueid": "MTK2242:3N1FSUEFL67FEC474BA1N5U1ING4DZ", "dateTime": 1516903496814}, {"current_trial": 95, "trialdata": {"rt": -1, "trial_type": "single-stim", "word": "country", "stimulus": "<p id=\"stim\">COUNTRY</p>", "conditions": [24, 800, "v", 12000], "internal_node_id": "0.0-68.0", "trial": 2, "time_elapsed": 395837, "serialpos": 6, "key_press": -1, "wordID": 387, "type": "PRES_VIS", "trial_index": 95}, "uniqueid": "MTK2242:3N1FSUEFL67FEC474BA1N5U1ING4DZ", "dateTime": 1516903498435}, {"current_trial": 96, "trialdata": {"rt": -1, "trial_type": "single-stim", "word": "brother", "stimulus": "<p id=\"stim\">BROTHER</p>", "conditions": [24, 800, "v", 12000], "internal_node_id": "0.0-69.0", "trial": 2, "time_elapsed": 397754, "serialpos": 7, "key_press": -1, "wordID": 178, "type": "PRES_VIS", "trial_index": 96}, "uniqueid": "MTK2242:3N1FSUEFL67FEC474BA1N5U1ING4DZ", "dateTime": 1516903500352}, {"current_trial": 97, "trialdata": {"rt": -1, "trial_type": "single-stim", "word": "bank", "stimulus": "<p id=\"stim\">BANK</p>", "conditions": [24, 800, "v", 12000], "internal_node_id": "0.0-70.0", "trial": 2, "time_elapsed": 399468, "serialpos": 8, "key_press": -1, "wordID": 82, "type": "PRES_VIS", "trial_index": 97}, "uniqueid": "MTK2242:3N1FSUEFL67FEC474BA1N5U1ING4DZ", "dateTime": 1516903502065}, {"current_trial": 98, "trialdata": {"rt": -1, "trial_type": "single-stim", "word": "trombone", "stimulus": "<p id=\"stim\">TROMBONE</p>", "conditions": [24, 800, "v", 12000], "internal_node_id": "0.0-71.0", "trial": 2, "time_elapsed": 401288, "serialpos": 9, "key_press": -1, "wordID": 1507, "type": "PRES_VIS", "trial_index": 98}, "uniqueid": "MTK2242:3N1FSUEFL67FEC474BA1N5U1ING4DZ", "dateTime": 1516903503885}, {"current_trial": 99, "trialdata": {"rt": -1, "trial_type": "single-stim", "word": "friend", "stimulus": "<p id=\"stim\">FRIEND</p>", "conditions": [24, 800, "v", 12000], "internal_node_id": "0.0-72.0", "trial": 2, "time_elapsed": 403123, "serialpos": 10, "key_press": -1, "wordID": 605, "type": "PRES_VIS", "trial_index": 99}, "uniqueid": "MTK2242:3N1FSUEFL67FEC474BA1N5U1ING4DZ", "dateTime": 1516903505721}, {"current_trial": 100, "trialdata": {"rt": -1, "trial_type": "single-stim", "word": "creature", "stimulus": "<p id=\"stim\">CREATURE</p>", "conditions": [24, 800, "v", 12000], "internal_node_id": "0.0-73.0", "trial": 2, "time_elapsed": 405003, "serialpos": 11, "key_press": -1, "wordID": 402, "type": "PRES_VIS", "trial_index": 100}, "uniqueid": "MTK2242:3N1FSUEFL67FEC474BA1N5U1ING4DZ", "dateTime": 1516903507600}, {"current_trial": 101, "trialdata": {"rt": -1, "trial_type": "single-stim", "word": "statue", "stimulus": "<p id=\"stim\">STATUE</p>", "conditions": [24, 800, "v", 12000], "internal_node_id": "0.0-74.0", "trial": 2, "time_elapsed": 406843, "serialpos": 12, "key_press": -1, "wordID": 1373, "type": "PRES_VIS", "trial_index": 101}, "uniqueid": "MTK2242:3N1FSUEFL67FEC474BA1N5U1ING4DZ", "dateTime": 1516903509441}, {"current_trial": 102, "trialdata": {"rt": -1, "trial_type": "single-stim", "word": "neutron", "stimulus": "<p id=\"stim\">NEUTRON</p>", "conditions": [24, 800, "v", 12000], "internal_node_id": "0.0-75.0", "trial": 2, "time_elapsed": 408613, "serialpos": 13, "key_press": -1, "wordID": 946, "type": "PRES_VIS", "trial_index": 102}, "uniqueid": "MTK2242:3N1FSUEFL67FEC474BA1N5U1ING4DZ", "dateTime": 1516903511211}, {"current_trial": 103, "trialdata": {"rt": -1, "trial_type": "single-stim", "word": "jelly", "stimulus": "<p id=\"stim\">JELLY</p>", "conditions": [24, 800, "v", 12000], "internal_node_id": "0.0-76.0", "trial": 2, "time_elapsed": 410577, "serialpos": 14, "key_press": -1, "wordID": 754, "type": "PRES_VIS", "trial_index": 103}, "uniqueid": "MTK2242:3N1FSUEFL67FEC474BA1N5U1ING4DZ", "dateTime": 1516903513175}, {"current_trial": 104, "trialdata": {"rt": -1, "trial_type": "single-stim", "word": "cod", "stimulus": "<p id=\"stim\">COD</p>", "conditions": [24, 800, "v", 12000], "internal_node_id": "0.0-77.0", "trial": 2, "time_elapsed": 412238, "serialpos": 15, "key_press": -1, "wordID": 339, "type": "PRES_VIS", "trial_index": 104}, "uniqueid": "MTK2242:3N1FSUEFL67FEC474BA1N5U1ING4DZ", "dateTime": 1516903514835}, {"current_trial": 105, "trialdata": {"rt": -1, "trial_type": "single-stim", "word": "seal", "stimulus": "<p id=\"stim\">SEAL</p>", "conditions": [24, 800, "v", 12000], "internal_node_id": "0.0-78.0", "trial": 2, "time_elapsed": 414148, "serialpos": 16, "key_press": -1, "wordID": 1261, "type": "PRES_VIS", "trial_index": 105}, "uniqueid": "MTK2242:3N1FSUEFL67FEC474BA1N5U1ING4DZ", "dateTime": 1516903516745}, {"current_trial": 106, "trialdata": {"rt": -1, "trial_type": "single-stim", "word": "tombstone", "stimulus": "<p id=\"stim\">TOMBSTONE</p>", "conditions": [24, 800, "v", 12000], "internal_node_id": "0.0-79.0", "trial": 2, "time_elapsed": 415876, "serialpos": 17, "key_press": -1, "wordID": 1477, "type": "PRES_VIS", "trial_index": 106}, "uniqueid": "MTK2242:3N1FSUEFL67FEC474BA1N5U1ING4DZ", "dateTime": 1516903518474}, {"current_trial": 107, "trialdata": {"rt": -1, "trial_type": "single-stim", "word": "milk", "stimulus": "<p id=\"stim\">MILK</p>", "conditions": [24, 800, "v", 12000], "internal_node_id": "0.0-80.0", "trial": 2, "time_elapsed": 417761, "serialpos": 18, "key_press": -1, "wordID": 894, "type": "PRES_VIS", "trial_index": 107}, "uniqueid": "MTK2242:3N1FSUEFL67FEC474BA1N5U1ING4DZ", "dateTime": 1516903520359}, {"current_trial": 108, "trialdata": {"rt": -1, "trial_type": "single-stim", "word": "rifle", "stimulus": "<p id=\"stim\">RIFLE</p>", "conditions": [24, 800, "v", 12000], "internal_node_id": "0.0-81.0", "trial": 2, "time_elapsed": 419456, "serialpos": 19, "key_press": -1, "wordID": 1191, "type": "PRES_VIS", "trial_index": 108}, "uniqueid": "MTK2242:3N1FSUEFL67FEC474BA1N5U1ING4DZ", "dateTime": 1516903522053}, {"current_trial": 109, "trialdata": {"rt": -1, "trial_type": "single-stim", "word": "bison", "stimulus": "<p id=\"stim\">BISON</p>", "conditions": [24, 800, "v", 12000], "internal_node_id": "0.0-82.0", "trial": 2, "time_elapsed": 421434, "serialpos": 20, "key_press": -1, "wordID": 130, "type": "PRES_VIS", "trial_index": 109}, "uniqueid": "MTK2242:3N1FSUEFL67FEC474BA1N5U1ING4DZ", "dateTime": 1516903524031}, {"current_trial": 110, "trialdata": {"rt": -1, "trial_type": "single-stim", "word": "onion", "stimulus": "<p id=\"stim\">ONION</p>", "conditions": [24, 800, "v", 12000], "internal_node_id": "0.0-83.0", "trial": 2, "time_elapsed": 423208, "serialpos": 21, "key_press": -1, "wordID": 976, "type": "PRES_VIS", "trial_index": 110}, "uniqueid": "MTK2242:3N1FSUEFL67FEC474BA1N5U1ING4DZ", "dateTime": 1516903525805}, {"current_trial": 111, "trialdata": {"rt": -1, "trial_type": "single-stim", "word": "parsley", "stimulus": "<p id=\"stim\">PARSLEY</p>", "conditions": [24, 800, "v", 12000], "internal_node_id": "0.0-84.0", "trial": 2, "time_elapsed": 425076, "serialpos": 22, "key_press": -1, "wordID": 1015, "type": "PRES_VIS", "trial_index": 111}, "uniqueid": "MTK2242:3N1FSUEFL67FEC474BA1N5U1ING4DZ", "dateTime": 1516903527679}, {"current_trial": 112, "trialdata": {"rt": -1, "trial_type": "single-stim", "word": "apple", "stimulus": "<p id=\"stim\">APPLE</p>", "conditions": [24, 800, "v", 12000], "internal_node_id": "0.0-85.0", "trial": 2, "time_elapsed": 426961, "serialpos": 23, "key_press": -1, "wordID": 32, "type": "PRES_VIS", "trial_index": 112}, "uniqueid": "MTK2242:3N1FSUEFL67FEC474BA1N5U1ING4DZ", "dateTime": 1516903529559}, {"current_trial": 113, "trialdata": {"rt": -1, "trial_type": "single-stim", "stimulus": "", "internal_node_id": "0.0-86.0-0.0", "time_elapsed": 429317, "key_press": -1, "type": "PRE_RECALL_DELAY", "trial_index": 113}, "uniqueid": "MTK2242:3N1FSUEFL67FEC474BA1N5U1ING4DZ", "dateTime": 1516903531914}, {"current_trial": 114, "trialdata": {"rt": -1000, "trial_type": "single-audio", "stimulus": "/static/audio/400Hz.wav", "internal_node_id": "0.0-87.0", "time_elapsed": 429819, "key_press": -1, "type": "PRE_RECALL_ALERT", "trial_index": 114}, "uniqueid": "MTK2242:3N1FSUEFL67FEC474BA1N5U1ING4DZ", "dateTime": 1516903532416}, {"current_trial": 115, "trialdata": {"rt": [6081, 8664, 10657, 13337, 17081, 19792, 24776, 27392, 32424, 36384, 39681, 42248, 44952, 46048, 47792, 50769, 52848, 54424, 55576], "recwords": ["diner", "cafe", "garden", "dophin", "teacher", "country", "brother", "bank", "tombstone", "trombone", "creature", "jelly", "cod", "seal", "", "milk", "riffle", "onion", "apple"], "key_times": [4865, 4985, 5201, 5337, 5465, 6081, 8040, 8145, 8376, 8464, 8664, 9497, 9648, 9825, 10080, 10208, 10456, 10657, 11664, 11872, 12112, 12400, 12592, 12880, 13337, 14777, 15041, 15369, 15768, 15960, 16344, 16440, 16672, 16760, 16840, 16960, 17081, 18393, 18544, 18792, 19016, 19376, 19520, 19632, 19792, 21393, 22097, 22217, 22384, 22472, 22489, 22577, 22696, 23568, 23768, 23984, 24456, 24608, 24776, 26729, 26864, 26985, 27136, 27392, 28760, 28977, 29265, 29929, 30392, 30688, 30800, 31032, 31184, 32424, 33088, 33264, 33401, 33809, 34152, 34417, 34616, 34752, 36384, 36720, 36993, 37088, 37184, 37384, 37640, 37641, 37904, 38184, 38680, 38896, 39016, 39681, 40336, 40592, 40896, 41000, 41120, 41288, 42056, 42248, 42992, 43136, 43544, 44952, 45240, 45488, 45632, 45784, 46048, 47792, 48217, 48665, 48880, 49160, 49385, 50769, 52000, 52136, 52320, 52480, 52585, 52696, 52848, 53416, 53672, 53864, 54072, 54272, 54424, 54624, 54904, 55064, 55256, 55400, 55576, 57712, 57856, 58224, 58504, 58776, 59224, 59488, 59608], "trial_type": "free-recall", "conditions": [24, 800, "v", 12000], "internal_node_id": "0.0-88.0-0.0", "key_presses": [68, 73, 78, 69, 82, 32, 67, 65, 70, 69, 32, 71, 65, 82, 68, 69, 78, 32, 68, 79, 80, 72, 73, 78, 32, 84, 65, 67, 8, 8, 69, 65, 67, 72, 69, 82, 32, 67, 79, 85, 78, 84, 82, 89, 32, 66, 82, 79, 84, 72, 74, 69, 82, 8, 8, 8, 69, 82, 32, 66, 65, 78, 75, 32, 84, 79, 77, 66, 83, 84, 79, 78, 69, 32, 84, 82, 79, 77, 66, 79, 78, 69, 32, 67, 82, 69, 65, 84, 69, 82, 8, 8, 85, 82, 69, 32, 74, 85, 8, 69, 76, 76, 89, 32, 67, 79, 68, 32, 83, 69, 65, 76, 32, 188, 8, 77, 73, 76, 75, 32, 82, 73, 70, 70, 76, 69, 32, 79, 78, 73, 79, 78, 32, 65, 80, 80, 76, 69, 32, 80, 65, 82, 83, 69, 8, 76, 69], "trial": 2, "time_elapsed": 489823, "type": "FREE_RECALL", "trial_index": 115}, "uniqueid": "MTK2242:3N1FSUEFL67FEC474BA1N5U1ING4DZ", "dateTime": 1516903592422}, {"current_trial": 116, "trialdata": {"rt": 2957, "trial_type": "text", "internal_node_id": "0.0-89.0", "time_elapsed": 494782, "key_press": 32, "type": "INSTRUCTIONS", "trial_index": 116}, "uniqueid": "MTK2242:3N1FSUEFL67FEC474BA1N5U1ING4DZ", "dateTime": 1516903597379}, {"current_trial": 117, "trialdata": {"rt": [8631], "trial_type": "math-distractor", "key_times": [6624, 6831, 7239, 8127, 8631, 11007], "responses": ["21"], "num2": [7, 2], "num3": [7, 9], "conditions": [12, 800, "v", 12000], "internal_node_id": "0.0-90.0", "key_presses": [50, 49, 32, 8, 13, 49], "trial": 3, "time_elapsed": 508784, "type": "DISTRACTOR", "trial_index": 117, "num1": [7, 4]}, "uniqueid": "MTK2242:3N1FSUEFL67FEC474BA1N5U1ING4DZ", "dateTime": 1516903611381}, {"current_trial": 118, "trialdata": {"rt": -1, "trial_type": "single-stim", "stimulus": "<p id=\"stim\">10</p>", "internal_node_id": "0.0-91.0-0.0", "time_elapsed": 511784, "key_press": -1, "trial_index": 118}, "uniqueid": "MTK2242:3N1FSUEFL67FEC474BA1N5U1ING4DZ", "dateTime": 1516903614382}, {"current_trial": 119, "trialdata": {"rt": -1, "trial_type": "single-stim", "stimulus": "<p id=\"stim\">9</p>", "internal_node_id": "0.0-91.0-1.0", "time_elapsed": 512786, "key_press": -1, "trial_index": 119}, "uniqueid": "MTK2242:3N1FSUEFL67FEC474BA1N5U1ING4DZ", "dateTime": 1516903615383}, {"current_trial": 120, "trialdata": {"rt": -1, "trial_type": "single-stim", "stimulus": "<p id=\"stim\">8</p>", "internal_node_id": "0.0-91.0-2.0", "time_elapsed": 513788, "key_press": -1, "trial_index": 120}, "uniqueid": "MTK2242:3N1FSUEFL67FEC474BA1N5U1ING4DZ", "dateTime": 1516903616385}, {"current_trial": 121, "trialdata": {"rt": -1, "trial_type": "single-stim", "stimulus": "<p id=\"stim\">7</p>", "internal_node_id": "0.0-91.0-3.0", "time_elapsed": 514788, "key_press": -1, "trial_index": 121}, "uniqueid": "MTK2242:3N1FSUEFL67FEC474BA1N5U1ING4DZ", "dateTime": 1516903617386}, {"current_trial": 122, "trialdata": {"rt": -1, "trial_type": "single-stim", "stimulus": "<p id=\"stim\">6</p>", "internal_node_id": "0.0-91.0-4.0", "time_elapsed": 515789, "key_press": -1, "trial_index": 122}, "uniqueid": "MTK2242:3N1FSUEFL67FEC474BA1N5U1ING4DZ", "dateTime": 1516903618386}, {"current_trial": 123, "trialdata": {"rt": -1, "trial_type": "single-stim", "stimulus": "<p id=\"stim\">5</p>", "internal_node_id": "0.0-91.0-5.0", "time_elapsed": 516790, "key_press": -1, "trial_index": 123}, "uniqueid": "MTK2242:3N1FSUEFL67FEC474BA1N5U1ING4DZ", "dateTime": 1516903619388}, {"current_trial": 124, "trialdata": {"rt": -1, "trial_type": "single-stim", "stimulus": "<p id=\"stim\">4</p>", "internal_node_id": "0.0-91.0-6.0", "time_elapsed": 517791, "key_press": -1, "trial_index": 124}, "uniqueid": "MTK2242:3N1FSUEFL67FEC474BA1N5U1ING4DZ", "dateTime": 1516903620388}, {"current_trial": 125, "trialdata": {"rt": -1, "trial_type": "single-stim", "stimulus": "<p id=\"stim\">3</p>", "internal_node_id": "0.0-91.0-7.0", "time_elapsed": 518791, "key_press": -1, "trial_index": 125}, "uniqueid": "MTK2242:3N1FSUEFL67FEC474BA1N5U1ING4DZ", "dateTime": 1516903621389}, {"current_trial": 126, "trialdata": {"rt": -1, "trial_type": "single-stim", "stimulus": "<p id=\"stim\">2</p>", "internal_node_id": "0.0-91.0-8.0", "time_elapsed": 519792, "key_press": -1, "trial_index": 126}, "uniqueid": "MTK2242:3N1FSUEFL67FEC474BA1N5U1ING4DZ", "dateTime": 1516903622390}, {"current_trial": 127, "trialdata": {"rt": -1, "trial_type": "single-stim", "stimulus": "<p id=\"stim\">1</p>", "internal_node_id": "0.0-91.0-9.0", "time_elapsed": 520793, "key_press": -1, "trial_index": 127}, "uniqueid": "MTK2242:3N1FSUEFL67FEC474BA1N5U1ING4DZ", "dateTime": 1516903623391}, {"current_trial": 128, "trialdata": {"rt": -1, "trial_type": "single-stim", "stimulus": "<p id=\"stim\">+</p>", "internal_node_id": "0.0-92.0-0.0", "time_elapsed": 522295, "key_press": -1, "type": "FIXATION", "trial_index": 128}, "uniqueid": "MTK2242:3N1FSUEFL67FEC474BA1N5U1ING4DZ", "dateTime": 1516903624892}, {"current_trial": 129, "trialdata": {"rt": -1, "trial_type": "single-stim", "word": "piston", "stimulus": "<p id=\"stim\">PISTON</p>", "conditions": [12, 800, "v", 12000], "internal_node_id": "0.0-93.0", "trial": 3, "time_elapsed": 523095, "serialpos": 0, "key_press": -1, "wordID": 1075, "type": "PRES_VIS", "trial_index": 129}, "uniqueid": "MTK2242:3N1FSUEFL67FEC474BA1N5U1ING4DZ", "dateTime": 1516903625692}, {"current_trial": 130, "trialdata": {"rt": -1, "trial_type": "single-stim", "word": "europe", "stimulus": "<p id=\"stim\">EUROPE</p>", "conditions": [12, 800, "v", 12000], "internal_node_id": "0.0-94.0", "trial": 3, "time_elapsed": 525012, "serialpos": 1, "key_press": -1, "wordID": 540, "type": "PRES_VIS", "trial_index": 130}, "uniqueid": "MTK2242:3N1FSUEFL67FEC474BA1N5U1ING4DZ", "dateTime": 1516903627610}, {"current_trial": 131, "trialdata": {"rt": -1, "trial_type": "single-stim", "word": "razor", "stimulus": "<p id=\"stim\">RAZOR</p>", "conditions": [12, 800, "v", 12000], "internal_node_id": "0.0-95.0", "trial": 3, "time_elapsed": 526664, "serialpos": 2, "key_press": -1, "wordID": 1170, "type": "PRES_VIS", "trial_index": 131}, "uniqueid": "MTK2242:3N1FSUEFL67FEC474BA1N5U1ING4DZ", "dateTime": 1516903629261}, {"current_trial": 132, "trialdata": {"rt": -1, "trial_type": "single-stim", "word": "kleenex", "stimulus": "<p id=\"stim\">KLEENEX</p>", "conditions": [12, 800, "v", 12000], "internal_node_id": "0.0-96.0", "trial": 3, "time_elapsed": 528557, "serialpos": 3, "key_press": -1, "wordID": 781, "type": "PRES_VIS", "trial_index": 132}, "uniqueid": "MTK2242:3N1FSUEFL67FEC474BA1N5U1ING4DZ", "dateTime": 1516903631156}, {"current_trial": 133, "trialdata": {"rt": -1, "trial_type": "single-stim", "word": "tart", "stimulus": "<p id=\"stim\">TART</p>", "conditions": [12, 800, "v", 12000], "internal_node_id": "0.0-97.0", "trial": 3, "time_elapsed": 530550, "serialpos": 4, "key_press": -1, "wordID": 1435, "type": "PRES_VIS", "trial_index": 133}, "uniqueid": "MTK2242:3N1FSUEFL67FEC474BA1N5U1ING4DZ", "dateTime": 1516903633147}, {"current_trial": 134, "trialdata": {"rt": -1, "trial_type": "single-stim", "word": "tweezers", "stimulus": "<p id=\"stim\">TWEEZERS</p>", "conditions": [12, 800, "v", 12000], "internal_node_id": "0.0-98.0", "trial": 3, "time_elapsed": 532334, "serialpos": 5, "key_press": -1, "wordID": 1525, "type": "PRES_VIS", "trial_index": 134}, "uniqueid": "MTK2242:3N1FSUEFL67FEC474BA1N5U1ING4DZ", "dateTime": 1516903634931}, {"current_trial": 135, "trialdata": {"rt": -1, "trial_type": "single-stim", "word": "scissors", "stimulus": "<p id=\"stim\">SCISSORS</p>", "conditions": [12, 800, "v", 12000], "internal_node_id": "0.0-99.0", "trial": 3, "time_elapsed": 533974, "serialpos": 6, "key_press": -1, "wordID": 1249, "type": "PRES_VIS", "trial_index": 135}, "uniqueid": "MTK2242:3N1FSUEFL67FEC474BA1N5U1ING4DZ", "dateTime": 1516903636571}, {"current_trial": 136, "trialdata": {"rt": -1, "trial_type": "single-stim", "word": "rod", "stimulus": "<p id=\"stim\">ROD</p>", "conditions": [12, 800, "v", 12000], "internal_node_id": "0.0-100.0", "trial": 3, "time_elapsed": 535830, "serialpos": 7, "key_press": -1, "wordID": 1202, "type": "PRES_VIS", "trial_index": 136}, "uniqueid": "MTK2242:3N1FSUEFL67FEC474BA1N5U1ING4DZ", "dateTime": 1516903638427}, {"current_trial": 137, "trialdata": {"rt": -1, "trial_type": "single-stim", "word": "zebra", "stimulus": "<p id=\"stim\">ZEBRA</p>", "conditions": [12, 800, "v", 12000], "internal_node_id": "0.0-101.0", "trial": 3, "time_elapsed": 537751, "serialpos": 8, "key_press": -1, "wordID": 1634, "type": "PRES_VIS", "trial_index": 137}, "uniqueid": "MTK2242:3N1FSUEFL67FEC474BA1N5U1ING4DZ", "dateTime": 1516903640348}, {"current_trial": 138, "trialdata": {"rt": -1, "trial_type": "single-stim", "word": "scalpel", "stimulus": "<p id=\"stim\">SCALPEL</p>", "conditions": [12, 800, "v", 12000], "internal_node_id": "0.0-102.0", "trial": 3, "time_elapsed": 539369, "serialpos": 9, "key_press": -1, "wordID": 1242, "type": "PRES_VIS", "trial_index": 138}, "uniqueid": "MTK2242:3N1FSUEFL67FEC474BA1N5U1ING4DZ", "dateTime": 1516903641966}, {"current_trial": 139, "trialdata": {"rt": -1, "trial_type": "single-stim", "word": "crutch", "stimulus": "<p id=\"stim\">CRUTCH</p>", "conditions": [12, 800, "v", 12000], "internal_node_id": "0.0-103.0", "trial": 3, "time_elapsed": 541345, "serialpos": 10, "key_press": -1, "wordID": 416, "type": "PRES_VIS", "trial_index": 139}, "uniqueid": "MTK2242:3N1FSUEFL67FEC474BA1N5U1ING4DZ", "dateTime": 1516903643942}, {"current_trial": 140, "trialdata": {"rt": -1, "trial_type": "single-stim", "word": "balloon", "stimulus": "<p id=\"stim\">BALLOON</p>", "conditions": [12, 800, "v", 12000], "internal_node_id": "0.0-104.0", "trial": 3, "time_elapsed": 543014, "serialpos": 11, "key_press": -1, "wordID": 74, "type": "PRES_VIS", "trial_index": 140}, "uniqueid": "MTK2242:3N1FSUEFL67FEC474BA1N5U1ING4DZ", "dateTime": 1516903645611}, {"current_trial": 141, "trialdata": {"rt": -1, "trial_type": "single-stim", "stimulus": "", "internal_node_id": "0.0-105.0-0.0", "time_elapsed": 545269, "key_press": -1, "type": "PRE_RECALL_DELAY", "trial_index": 141}, "uniqueid": "MTK2242:3N1FSUEFL67FEC474BA1N5U1ING4DZ", "dateTime": 1516903647866}, {"current_trial": 142, "trialdata": {"rt": -1000, "trial_type": "single-audio", "stimulus": "/static/audio/400Hz.wav", "internal_node_id": "0.0-106.0", "time_elapsed": 545770, "key_press": -1, "type": "PRE_RECALL_ALERT", "trial_index": 142}, "uniqueid": "MTK2242:3N1FSUEFL67FEC474BA1N5U1ING4DZ", "dateTime": 1516903648367}, {"current_trial": 143, "trialdata": {"rt": [7660, 10500, 12598, 18332, 20774, 23716, 28588, 29525, 41508, 44748, 47805], "recwords": ["piston", "europe", "razor", "kleenex", "tart", "tweezer", "scissors", "rod", "scalpel", "crutch", "balloon"], "key_times": [5460, 5692, 5868, 6173, 6308, 6940, 7660, 8547, 8709, 8916, 9148, 9670, 9766, 10500, 11189, 11331, 12069, 12252, 12476, 12598, 14309, 14517, 14668, 15005, 15196, 15356, 16046, 16380, 18133, 18332, 18870, 19028, 19208, 19413, 20774, 21573, 21918, 22156, 22316, 23101, 23340, 23506, 23716, 24380, 24532, 24957, 25228, 25653, 25957, 26376, 26628, 26780, 26900, 27124, 27740, 28588, 29028, 29220, 29409, 29525, 31197, 31436, 31580, 32013, 33709, 34102, 34957, 36260, 40879, 41076, 41173, 41508, 43237, 43493, 43966, 44165, 44420, 44572, 44748, 45557, 45732, 45892, 46043, 46275, 46587, 46956, 47805], "trial_type": "free-recall", "conditions": [12, 800, "v", 12000], "internal_node_id": "0.0-107.0-0.0", "key_presses": [80, 73, 83, 84, 79, 78, 32, 69, 85, 82, 79, 80, 69, 32, 82, 65, 90, 79, 82, 32, 75, 76, 76, 8, 69, 69, 78, 69, 88, 32, 84, 65, 82, 84, 32, 84, 87, 69, 69, 90, 69, 82, 32, 82, 65, 8, 8, 83, 67, 73, 83, 83, 79, 82, 83, 32, 82, 79, 68, 32, 83, 67, 65, 80, 8, 76, 80, 8, 80, 69, 76, 32, 67, 82, 85, 84, 67, 72, 32, 66, 65, 76, 76, 79, 79, 78, 32], "trial": 3, "time_elapsed": 605772, "type": "FREE_RECALL", "trial_index": 143}, "uniqueid": "MTK2242:3N1FSUEFL67FEC474BA1N5U1ING4DZ", "dateTime": 1516903708381}, {"current_trial": 144, "trialdata": {"rt": 1742, "trial_type": "text", "internal_node_id": "0.0-108.0", "time_elapsed": 609528, "key_press": 32, "type": "INSTRUCTIONS", "trial_index": 144}, "uniqueid": "MTK2242:3N1FSUEFL67FEC474BA1N5U1ING4DZ", "dateTime": 1516903712126}, {"current_trial": 145, "trialdata": {"rt": [4977, 8450, 14762, 19465, 21257, 23625], "trial_type": "math-distractor", "key_times": [3538, 3931, 4977, 7402, 7690, 8450, 13932, 14074, 14762, 18586, 18714, 19465, 20890, 21058, 21257, 23066, 23474, 23625], "responses": ["15", "15", "12", "21", "13", "16"], "num2": [1, 8, 3, 3, 3, 3, 5], "num3": [5, 4, 5, 9, 7, 6, 6], "conditions": [12, 800, "v", 24000], "internal_node_id": "0.0-109.0", "key_presses": [49, 53, 13, 49, 53, 13, 49, 50, 13, 50, 49, 13, 49, 51, 13, 49, 54, 13], "trial": 4, "time_elapsed": 635568, "type": "DISTRACTOR", "trial_index": 145, "num1": [9, 3, 4, 9, 3, 7, 7]}, "uniqueid": "MTK2242:3N1FSUEFL67FEC474BA1N5U1ING4DZ", "dateTime": 1516903738165}, {"current_trial": 146, "trialdata": {"rt": -1, "trial_type": "single-stim", "stimulus": "<p id=\"stim\">10</p>", "internal_node_id": "0.0-110.0-0.0", "time_elapsed": 638570, "key_press": -1, "trial_index": 146}, "uniqueid": "MTK2242:3N1FSUEFL67FEC474BA1N5U1ING4DZ", "dateTime": 1516903741168}, {"current_trial": 147, "trialdata": {"rt": -1, "trial_type": "single-stim", "stimulus": "<p id=\"stim\">9</p>", "internal_node_id": "0.0-110.0-1.0", "time_elapsed": 639572, "key_press": -1, "trial_index": 147}, "uniqueid": "MTK2242:3N1FSUEFL67FEC474BA1N5U1ING4DZ", "dateTime": 1516903742170}, {"current_trial": 148, "trialdata": {"rt": -1, "trial_type": "single-stim", "stimulus": "<p id=\"stim\">8</p>", "internal_node_id": "0.0-110.0-2.0", "time_elapsed": 640574, "key_press": -1, "trial_index": 148}, "uniqueid": "MTK2242:3N1FSUEFL67FEC474BA1N5U1ING4DZ", "dateTime": 1516903743171}, {"current_trial": 149, "trialdata": {"rt": -1, "trial_type": "single-stim", "stimulus": "<p id=\"stim\">7</p>", "internal_node_id": "0.0-110.0-3.0", "time_elapsed": 641576, "key_press": -1, "trial_index": 149}, "uniqueid": "MTK2242:3N1FSUEFL67FEC474BA1N5U1ING4DZ", "dateTime": 1516903744174}, {"current_trial": 150, "trialdata": {"rt": -1, "trial_type": "single-stim", "stimulus": "<p id=\"stim\">6</p>", "internal_node_id": "0.0-110.0-4.0", "time_elapsed": 642579, "key_press": -1, "trial_index": 150}, "uniqueid": "MTK2242:3N1FSUEFL67FEC474BA1N5U1ING4DZ", "dateTime": 1516903745177}, {"current_trial": 151, "trialdata": {"rt": -1, "trial_type": "single-stim", "stimulus": "<p id=\"stim\">5</p>", "internal_node_id": "0.0-110.0-5.0", "time_elapsed": 643581, "key_press": -1, "trial_index": 151}, "uniqueid": "MTK2242:3N1FSUEFL67FEC474BA1N5U1ING4DZ", "dateTime": 1516903746179}, {"current_trial": 152, "trialdata": {"rt": -1, "trial_type": "single-stim", "stimulus": "<p id=\"stim\">4</p>", "internal_node_id": "0.0-110.0-6.0", "time_elapsed": 644583, "key_press": -1, "trial_index": 152}, "uniqueid": "MTK2242:3N1FSUEFL67FEC474BA1N5U1ING4DZ", "dateTime": 1516903747181}, {"current_trial": 153, "trialdata": {"rt": -1, "trial_type": "single-stim", "stimulus": "<p id=\"stim\">3</p>", "internal_node_id": "0.0-110.0-7.0", "time_elapsed": 645585, "key_press": -1, "trial_index": 153}, "uniqueid": "MTK2242:3N1FSUEFL67FEC474BA1N5U1ING4DZ", "dateTime": 1516903748183}, {"current_trial": 154, "trialdata": {"rt": -1, "trial_type": "single-stim", "stimulus": "<p id=\"stim\">2</p>", "internal_node_id": "0.0-110.0-8.0", "time_elapsed": 646587, "key_press": -1, "trial_index": 154}, "uniqueid": "MTK2242:3N1FSUEFL67FEC474BA1N5U1ING4DZ", "dateTime": 1516903749185}, {"current_trial": 155, "trialdata": {"rt": -1, "trial_type": "single-stim", "stimulus": "<p id=\"stim\">1</p>", "internal_node_id": "0.0-110.0-9.0", "time_elapsed": 647589, "key_press": -1, "trial_index": 155}, "uniqueid": "MTK2242:3N1FSUEFL67FEC474BA1N5U1ING4DZ", "dateTime": 1516903750187}, {"current_trial": 156, "trialdata": {"rt": -1, "trial_type": "single-stim", "stimulus": "<p id=\"stim\">+</p>", "internal_node_id": "0.0-111.0-0.0", "time_elapsed": 649091, "key_press": -1, "type": "FIXATION", "trial_index": 156}, "uniqueid": "MTK2242:3N1FSUEFL67FEC474BA1N5U1ING4DZ", "dateTime": 1516903751688}, {"current_trial": 157, "trialdata": {"rt": -1, "trial_type": "single-stim", "word": "monster", "stimulus": "<p id=\"stim\">MONSTER</p>", "conditions": [12, 800, "v", 24000], "internal_node_id": "0.0-112.0", "trial": 4, "time_elapsed": 649894, "serialpos": 0, "key_press": -1, "wordID": 911, "type": "PRES_VIS", "trial_index": 157}, "uniqueid": "MTK2242:3N1FSUEFL67FEC474BA1N5U1ING4DZ", "dateTime": 1516903752491}, {"current_trial": 158, "trialdata": {"rt": -1, "trial_type": "single-stim", "word": "nurse", "stimulus": "<p id=\"stim\">NURSE</p>", "conditions": [12, 800, "v", 24000], "internal_node_id": "0.0-113.0", "trial": 4, "time_elapsed": 651649, "serialpos": 1, "key_press": -1, "wordID": 962, "type": "PRES_VIS", "trial_index": 158}, "uniqueid": "MTK2242:3N1FSUEFL67FEC474BA1N5U1ING4DZ", "dateTime": 1516903754253}, {"current_trial": 159, "trialdata": {"rt": -1, "trial_type": "single-stim", "word": "picnic", "stimulus": "<p id=\"stim\">PICNIC</p>", "conditions": [12, 800, "v", 24000], "internal_node_id": "0.0-114.0", "trial": 4, "time_elapsed": 653359, "serialpos": 2, "key_press": -1, "wordID": 1059, "type": "PRES_VIS", "trial_index": 159}, "uniqueid": "MTK2242:3N1FSUEFL67FEC474BA1N5U1ING4DZ", "dateTime": 1516903755956}, {"current_trial": 160, "trialdata": {"rt": -1, "trial_type": "single-stim", "word": "mattress", "stimulus": "<p id=\"stim\">MATTRESS</p>", "conditions": [12, 800, "v", 24000], "internal_node_id": "0.0-115.0", "trial": 4, "time_elapsed": 655194, "serialpos": 3, "key_press": -1, "wordID": 878, "type": "PRES_VIS", "trial_index": 160}, "uniqueid": "MTK2242:3N1FSUEFL67FEC474BA1N5U1ING4DZ", "dateTime": 1516903757791}, {"current_trial": 161, "trialdata": {"rt": -1, "trial_type": "single-stim", "word": "couch", "stimulus": "<p id=\"stim\">COUCH</p>", "conditions": [12, 800, "v", 24000], "internal_node_id": "0.0-116.0", "trial": 4, "time_elapsed": 657040, "serialpos": 4, "key_press": -1, "wordID": 385, "type": "PRES_VIS", "trial_index": 161}, "uniqueid": "MTK2242:3N1FSUEFL67FEC474BA1N5U1ING4DZ", "dateTime": 1516903759637}, {"current_trial": 162, "trialdata": {"rt": -1, "trial_type": "single-stim", "word": "plaid", "stimulus": "<p id=\"stim\">PLAID</p>", "conditions": [12, 800, "v", 24000], "internal_node_id": "0.0-117.0", "trial": 4, "time_elapsed": 658960, "serialpos": 5, "key_press": -1, "wordID": 1079, "type": "PRES_VIS", "trial_index": 162}, "uniqueid": "MTK2242:3N1FSUEFL67FEC474BA1N5U1ING4DZ", "dateTime": 1516903761558}, {"current_trial": 163, "trialdata": {"rt": -1, "trial_type": "single-stim", "word": "relish", "stimulus": "<p id=\"stim\">RELISH</p>", "conditions": [12, 800, "v", 24000], "internal_node_id": "0.0-118.0", "trial": 4, "time_elapsed": 660745, "serialpos": 6, "key_press": -1, "wordID": 1182, "type": "PRES_VIS", "trial_index": 163}, "uniqueid": "MTK2242:3N1FSUEFL67FEC474BA1N5U1ING4DZ", "dateTime": 1516903763342}, {"current_trial": 164, "trialdata": {"rt": -1, "trial_type": "single-stim", "word": "patient", "stimulus": "<p id=\"stim\">PATIENT</p>", "conditions": [12, 800, "v", 24000], "internal_node_id": "0.0-119.0", "trial": 4, "time_elapsed": 662682, "serialpos": 7, "key_press": -1, "wordID": 1023, "type": "PRES_VIS", "trial_index": 164}, "uniqueid": "MTK2242:3N1FSUEFL67FEC474BA1N5U1ING4DZ", "dateTime": 1516903765280}, {"current_trial": 165, "trialdata": {"rt": -1, "trial_type": "single-stim", "word": "suitcase", "stimulus": "<p id=\"stim\">SUITCASE</p>", "conditions": [12, 800, "v", 24000], "internal_node_id": "0.0-120.0", "trial": 4, "time_elapsed": 664400, "serialpos": 8, "key_press": -1, "wordID": 1402, "type": "PRES_VIS", "trial_index": 165}, "uniqueid": "MTK2242:3N1FSUEFL67FEC474BA1N5U1ING4DZ", "dateTime": 1516903766997}, {"current_trial": 166, "trialdata": {"rt": -1, "trial_type": "single-stim", "word": "island", "stimulus": "<p id=\"stim\">ISLAND</p>", "conditions": [12, 800, "v", 24000], "internal_node_id": "0.0-121.0", "trial": 4, "time_elapsed": 666135, "serialpos": 9, "key_press": -1, "wordID": 744, "type": "PRES_VIS", "trial_index": 166}, "uniqueid": "MTK2242:3N1FSUEFL67FEC474BA1N5U1ING4DZ", "dateTime": 1516903768732}, {"current_trial": 167, "trialdata": {"rt": -1, "trial_type": "single-stim", "word": "chapel", "stimulus": "<p id=\"stim\">CHAPEL</p>", "conditions": [12, 800, "v", 24000], "internal_node_id": "0.0-122.0", "trial": 4, "time_elapsed": 667754, "serialpos": 10, "key_press": -1, "wordID": 279, "type": "PRES_VIS", "trial_index": 167}, "uniqueid": "MTK2242:3N1FSUEFL67FEC474BA1N5U1ING4DZ", "dateTime": 1516903770351}, {"current_trial": 168, "trialdata": {"rt": -1, "trial_type": "single-stim", "word": "loft", "stimulus": "<p id=\"stim\">LOFT</p>", "conditions": [12, 800, "v", 24000], "internal_node_id": "0.0-123.0", "trial": 4, "time_elapsed": 669745, "serialpos": 11, "key_press": -1, "wordID": 839, "type": "PRES_VIS", "trial_index": 168}, "uniqueid": "MTK2242:3N1FSUEFL67FEC474BA1N5U1ING4DZ", "dateTime": 1516903772343}, {"current_trial": 169, "trialdata": {"rt": -1, "trial_type": "single-stim", "stimulus": "", "internal_node_id": "0.0-124.0-0.0", "time_elapsed": 671890, "key_press": -1, "type": "PRE_RECALL_DELAY", "trial_index": 169}, "uniqueid": "MTK2242:3N1FSUEFL67FEC474BA1N5U1ING4DZ", "dateTime": 1516903774487}, {"current_trial": 170, "trialdata": {"rt": -1000, "trial_type": "single-audio", "stimulus": "/static/audio/400Hz.wav", "internal_node_id": "0.0-125.0", "time_elapsed": 672392, "key_press": -1, "type": "PRE_RECALL_ALERT", "trial_index": 170}, "uniqueid": "MTK2242:3N1FSUEFL67FEC474BA1N5U1ING4DZ", "dateTime": 1516903774990}, {"current_trial": 171, "trialdata": {"rt": [4293, 6814, 8117, 10830, 14109, 16707, 19060, 22748, 25596, 53043, 59140], "recwords": ["monster", "nurse", "couch", "picnic", "plaid", "relish", "patient", "suitcase", "island", "chapel", ""], "key_times": [3029, 3228, 3373, 3556, 3820, 3964, 4092, 4293, 5829, 6022, 6301, 6437, 6628, 6814, 7278, 7412, 7644, 7798, 7933, 8117, 9260, 9484, 9989, 10292, 10468, 10684, 10830, 11198, 11420, 11588, 11732, 13958, 14109, 15676, 15810, 15956, 16172, 16357, 16524, 16707, 17700, 17845, 18301, 18460, 18605, 18780, 18917, 19060, 20892, 21181, 21388, 21533, 21885, 21990, 22190, 22541, 22748, 23389, 23604, 24848, 25100, 25228, 25390, 25596, 50902, 51308, 51460, 52533, 52707, 52796, 53043, 59140], "trial_type": "free-recall", "conditions": [12, 800, "v", 24000], "internal_node_id": "0.0-126.0-0.0", "key_presses": [77, 79, 78, 83, 84, 69, 82, 32, 78, 85, 82, 83, 69, 32, 67, 79, 85, 67, 72, 32, 80, 73, 67, 78, 73, 67, 32, 80, 76, 65, 73, 68, 32, 82, 69, 76, 73, 83, 72, 32, 80, 65, 84, 73, 69, 78, 84, 32, 83, 85, 73, 84, 67, 65, 83, 69, 32, 73, 83, 76, 65, 78, 68, 13, 67, 72, 65, 80, 69, 76, 13, 32], "trial": 4, "time_elapsed": 732396, "type": "FREE_RECALL", "trial_index": 171}, "uniqueid": "MTK2242:3N1FSUEFL67FEC474BA1N5U1ING4DZ", "dateTime": 1516903835006}, {"current_trial": 172, "trialdata": {"rt": 1781, "trial_type": "text", "internal_node_id": "0.0-127.0", "time_elapsed": 736195, "key_press": 32, "type": "INSTRUCTIONS", "trial_index": 172}, "uniqueid": "MTK2242:3N1FSUEFL67FEC474BA1N5U1ING4DZ", "dateTime": 1516903838792}, {"current_trial": 173, "trialdata": {"rt": [], "trial_type": "math-distractor", "key_times": [4273, 4425, 5409], "responses": [], "num2": [8], "num3": [7], "conditions": [24, 800, "v", 24000], "internal_node_id": "0.0-128.0", "key_presses": [50, 50, 32], "trial": 5, "time_elapsed": 762199, "type": "DISTRACTOR", "trial_index": 173, "num1": [7]}, "uniqueid": "MTK2242:3N1FSUEFL67FEC474BA1N5U1ING4DZ", "dateTime": 1516903864796}, {"current_trial": 174, "trialdata": {"rt": -1, "trial_type": "single-stim", "stimulus": "<p id=\"stim\">10</p>", "internal_node_id": "0.0-129.0-0.0", "time_elapsed": 765201, "key_press": -1, "trial_index": 174}, "uniqueid": "MTK2242:3N1FSUEFL67FEC474BA1N5U1ING4DZ", "dateTime": 1516903867798}, {"current_trial": 175, "trialdata": {"rt": -1, "trial_type": "single-stim", "stimulus": "<p id=\"stim\">9</p>", "internal_node_id": "0.0-129.0-1.0", "time_elapsed": 766204, "key_press": -1, "trial_index": 175}, "uniqueid": "MTK2242:3N1FSUEFL67FEC474BA1N5U1ING4DZ", "dateTime": 1516903868801}, {"current_trial": 176, "trialdata": {"rt": -1, "trial_type": "single-stim", "stimulus": "<p id=\"stim\">8</p>", "internal_node_id": "0.0-129.0-2.0", "time_elapsed": 767206, "key_press": -1, "trial_index": 176}, "uniqueid": "MTK2242:3N1FSUEFL67FEC474BA1N5U1ING4DZ", "dateTime": 1516903869804}, {"current_trial": 177, "trialdata": {"rt": -1, "trial_type": "single-stim", "stimulus": "<p id=\"stim\">7</p>", "internal_node_id": "0.0-129.0-3.0", "time_elapsed": 768208, "key_press": -1, "trial_index": 177}, "uniqueid": "MTK2242:3N1FSUEFL67FEC474BA1N5U1ING4DZ", "dateTime": 1516903870805}, {"current_trial": 178, "trialdata": {"rt": -1, "trial_type": "single-stim", "stimulus": "<p id=\"stim\">6</p>", "internal_node_id": "0.0-129.0-4.0", "time_elapsed": 769209, "key_press": -1, "trial_index": 178}, "uniqueid": "MTK2242:3N1FSUEFL67FEC474BA1N5U1ING4DZ", "dateTime": 1516903871806}, {"current_trial": 179, "trialdata": {"rt": -1, "trial_type": "single-stim", "stimulus": "<p id=\"stim\">5</p>", "internal_node_id": "0.0-129.0-5.0", "time_elapsed": 770212, "key_press": -1, "trial_index": 179}, "uniqueid": "MTK2242:3N1FSUEFL67FEC474BA1N5U1ING4DZ", "dateTime": 1516903872809}, {"current_trial": 180, "trialdata": {"rt": -1, "trial_type": "single-stim", "stimulus": "<p id=\"stim\">4</p>", "internal_node_id": "0.0-129.0-6.0", "time_elapsed": 771215, "key_press": -1, "trial_index": 180}, "uniqueid": "MTK2242:3N1FSUEFL67FEC474BA1N5U1ING4DZ", "dateTime": 1516903873812}, {"current_trial": 181, "trialdata": {"rt": -1, "trial_type": "single-stim", "stimulus": "<p id=\"stim\">3</p>", "internal_node_id": "0.0-129.0-7.0", "time_elapsed": 772217, "key_press": -1, "trial_index": 181}, "uniqueid": "MTK2242:3N1FSUEFL67FEC474BA1N5U1ING4DZ", "dateTime": 1516903874815}, {"current_trial": 182, "trialdata": {"rt": -1, "trial_type": "single-stim", "stimulus": "<p id=\"stim\">2</p>", "internal_node_id": "0.0-129.0-8.0", "time_elapsed": 773220, "key_press": -1, "trial_index": 182}, "uniqueid": "MTK2242:3N1FSUEFL67FEC474BA1N5U1ING4DZ", "dateTime": 1516903875817}, {"current_trial": 183, "trialdata": {"rt": -1, "trial_type": "single-stim", "stimulus": "<p id=\"stim\">1</p>", "internal_node_id": "0.0-129.0-9.0", "time_elapsed": 774222, "key_press": -1, "trial_index": 183}, "uniqueid": "MTK2242:3N1FSUEFL67FEC474BA1N5U1ING4DZ", "dateTime": 1516903876819}, {"current_trial": 184, "trialdata": {"rt": -1, "trial_type": "single-stim", "stimulus": "<p id=\"stim\">+</p>", "internal_node_id": "0.0-130.0-0.0", "time_elapsed": 775725, "key_press": -1, "type": "FIXATION", "trial_index": 184}, "uniqueid": "MTK2242:3N1FSUEFL67FEC474BA1N5U1ING4DZ", "dateTime": 1516903878322}, {"current_trial": 185, "trialdata": {"rt": -1, "trial_type": "single-stim", "word": "grill", "stimulus": "<p id=\"stim\">GRILL</p>", "conditions": [24, 800, "v", 24000], "internal_node_id": "0.0-131.0", "trial": 5, "time_elapsed": 776527, "serialpos": 0, "key_press": -1, "wordID": 660, "type": "PRES_VIS", "trial_index": 185}, "uniqueid": "MTK2242:3N1FSUEFL67FEC474BA1N5U1ING4DZ", "dateTime": 1516903879124}, {"current_trial": 186, "trialdata": {"rt": -1, "trial_type": "single-stim", "word": "diver", "stimulus": "<p id=\"stim\">DIVER</p>", "conditions": [24, 800, "v", 24000], "internal_node_id": "0.0-132.0", "trial": 5, "time_elapsed": 778514, "serialpos": 1, "key_press": -1, "wordID": 475, "type": "PRES_VIS", "trial_index": 186}, "uniqueid": "MTK2242:3N1FSUEFL67FEC474BA1N5U1ING4DZ", "dateTime": 1516903881111}, {"current_trial": 187, "trialdata": {"rt": -1, "trial_type": "single-stim", "word": "tile", "stimulus": "<p id=\"stim\">TILE</p>", "conditions": [24, 800, "v", 24000], "internal_node_id": "0.0-133.0", "trial": 5, "time_elapsed": 780441, "serialpos": 2, "key_press": -1, "wordID": 1467, "type": "PRES_VIS", "trial_index": 187}, "uniqueid": "MTK2242:3N1FSUEFL67FEC474BA1N5U1ING4DZ", "dateTime": 1516903883039}, {"current_trial": 188, "trialdata": {"rt": -1, "trial_type": "single-stim", "word": "market", "stimulus": "<p id=\"stim\">MARKET</p>", "conditions": [24, 800, "v", 24000], "internal_node_id": "0.0-134.0", "trial": 5, "time_elapsed": 782194, "serialpos": 3, "key_press": -1, "wordID": 870, "type": "PRES_VIS", "trial_index": 188}, "uniqueid": "MTK2242:3N1FSUEFL67FEC474BA1N5U1ING4DZ", "dateTime": 1516903884792}, {"current_trial": 189, "trialdata": {"rt": -1, "trial_type": "single-stim", "word": "patrol", "stimulus": "<p id=\"stim\">PATROL</p>", "conditions": [24, 800, "v", 24000], "internal_node_id": "0.0-135.0", "trial": 5, "time_elapsed": 784037, "serialpos": 4, "key_press": -1, "wordID": 1026, "type": "PRES_VIS", "trial_index": 189}, "uniqueid": "MTK2242:3N1FSUEFL67FEC474BA1N5U1ING4DZ", "dateTime": 1516903886635}, {"current_trial": 190, "trialdata": {"rt": -1, "trial_type": "single-stim", "word": "agent", "stimulus": "<p id=\"stim\">AGENT</p>", "conditions": [24, 800, "v", 24000], "internal_node_id": "0.0-136.0", "trial": 5, "time_elapsed": 785801, "serialpos": 5, "key_press": -1, "wordID": 9, "type": "PRES_VIS", "trial_index": 190}, "uniqueid": "MTK2242:3N1FSUEFL67FEC474BA1N5U1ING4DZ", "dateTime": 1516903888399}, {"current_trial": 191, "trialdata": {"rt": -1, "trial_type": "single-stim", "word": "banker", "stimulus": "<p id=\"stim\">BANKER</p>", "conditions": [24, 800, "v", 24000], "internal_node_id": "0.0-137.0", "trial": 5, "time_elapsed": 787492, "serialpos": 6, "key_press": -1, "wordID": 83, "type": "PRES_VIS", "trial_index": 191}, "uniqueid": "MTK2242:3N1FSUEFL67FEC474BA1N5U1ING4DZ", "dateTime": 1516903890090}, {"current_trial": 192, "trialdata": {"rt": -1, "trial_type": "single-stim", "word": "swimmer", "stimulus": "<p id=\"stim\">SWIMMER</p>", "conditions": [24, 800, "v", 24000], "internal_node_id": "0.0-138.0", "trial": 5, "time_elapsed": 789376, "serialpos": 7, "key_press": -1, "wordID": 1419, "type": "PRES_VIS", "trial_index": 192}, "uniqueid": "MTK2242:3N1FSUEFL67FEC474BA1N5U1ING4DZ", "dateTime": 1516903891974}, {"current_trial": 193, "trialdata": {"rt": -1, "trial_type": "single-stim", "word": "mask", "stimulus": "<p id=\"stim\">MASK</p>", "conditions": [24, 800, "v", 24000], "internal_node_id": "0.0-139.0", "trial": 5, "time_elapsed": 791007, "serialpos": 8, "key_press": -1, "wordID": 875, "type": "PRES_VIS", "trial_index": 193}, "uniqueid": "MTK2242:3N1FSUEFL67FEC474BA1N5U1ING4DZ", "dateTime": 1516903893604}, {"current_trial": 194, "trialdata": {"rt": -1, "trial_type": "single-stim", "word": "radish", "stimulus": "<p id=\"stim\">RADISH</p>", "conditions": [24, 800, "v", 24000], "internal_node_id": "0.0-140.0", "trial": 5, "time_elapsed": 792978, "serialpos": 9, "key_press": -1, "wordID": 1157, "type": "PRES_VIS", "trial_index": 194}, "uniqueid": "MTK2242:3N1FSUEFL67FEC474BA1N5U1ING4DZ", "dateTime": 1516903895576}, {"current_trial": 195, "trialdata": {"rt": -1, "trial_type": "single-stim", "word": "boyfriend", "stimulus": "<p id=\"stim\">BOYFRIEND</p>", "conditions": [24, 800, "v", 24000], "internal_node_id": "0.0-141.0", "trial": 5, "time_elapsed": 794882, "serialpos": 10, "key_press": -1, "wordID": 161, "type": "PRES_VIS", "trial_index": 195}, "uniqueid": "MTK2242:3N1FSUEFL67FEC474BA1N5U1ING4DZ", "dateTime": 1516903897480}, {"current_trial": 196, "trialdata": {"rt": -1, "trial_type": "single-stim", "word": "daughter", "stimulus": "<p id=\"stim\">DAUGHTER</p>", "conditions": [24, 800, "v", 24000], "internal_node_id": "0.0-142.0", "trial": 5, "time_elapsed": 796531, "serialpos": 11, "key_press": -1, "wordID": 441, "type": "PRES_VIS", "trial_index": 196}, "uniqueid": "MTK2242:3N1FSUEFL67FEC474BA1N5U1ING4DZ", "dateTime": 1516903899129}, {"current_trial": 197, "trialdata": {"rt": -1, "trial_type": "single-stim", "word": "butcher", "stimulus": "<p id=\"stim\">BUTCHER</p>", "conditions": [24, 800, "v", 24000], "internal_node_id": "0.0-143.0", "trial": 5, "time_elapsed": 798356, "serialpos": 12, "key_press": -1, "wordID": 202, "type": "PRES_VIS", "trial_index": 197}, "uniqueid": "MTK2242:3N1FSUEFL67FEC474BA1N5U1ING4DZ", "dateTime": 1516903900954}, {"current_trial": 198, "trialdata": {"rt": -1, "trial_type": "single-stim", "word": "skillet", "stimulus": "<p id=\"stim\">SKILLET</p>", "conditions": [24, 800, "v", 24000], "internal_node_id": "0.0-144.0", "trial": 5, "time_elapsed": 800102, "serialpos": 13, "key_press": -1, "wordID": 1316, "type": "PRES_VIS", "trial_index": 198}, "uniqueid": "MTK2242:3N1FSUEFL67FEC474BA1N5U1ING4DZ", "dateTime": 1516903902702}, {"current_trial": 199, "trialdata": {"rt": -1, "trial_type": "single-stim", "word": "velvet", "stimulus": "<p id=\"stim\">VELVET</p>", "conditions": [24, 800, "v", 24000], "internal_node_id": "0.0-145.0", "trial": 5, "time_elapsed": 801754, "serialpos": 14, "key_press": -1, "wordID": 1554, "type": "PRES_VIS", "trial_index": 199}, "uniqueid": "MTK2242:3N1FSUEFL67FEC474BA1N5U1ING4DZ", "dateTime": 1516903904351}, {"current_trial": 200, "trialdata": {"rt": -1, "trial_type": "single-stim", "word": "bathtub", "stimulus": "<p id=\"stim\">BATHTUB</p>", "conditions": [24, 800, "v", 24000], "internal_node_id": "0.0-146.0", "trial": 5, "time_elapsed": 803378, "serialpos": 15, "key_press": -1, "wordID": 99, "type": "PRES_VIS", "trial_index": 200}, "uniqueid": "MTK2242:3N1FSUEFL67FEC474BA1N5U1ING4DZ", "dateTime": 1516903905975}, {"current_trial": 201, "trialdata": {"rt": -1, "trial_type": "single-stim", "word": "oyster", "stimulus": "<p id=\"stim\">OYSTER</p>", "conditions": [24, 800, "v", 24000], "internal_node_id": "0.0-147.0", "trial": 5, "time_elapsed": 805083, "serialpos": 16, "key_press": -1, "wordID": 994, "type": "PRES_VIS", "trial_index": 201}, "uniqueid": "MTK2242:3N1FSUEFL67FEC474BA1N5U1ING4DZ", "dateTime": 1516903907681}, {"current_trial": 202, "trialdata": {"rt": -1, "trial_type": "single-stim", "word": "dancer", "stimulus": "<p id=\"stim\">DANCER</p>", "conditions": [24, 800, "v", 24000], "internal_node_id": "0.0-148.0", "trial": 5, "time_elapsed": 807027, "serialpos": 17, "key_press": -1, "wordID": 436, "type": "PRES_VIS", "trial_index": 202}, "uniqueid": "MTK2242:3N1FSUEFL67FEC474BA1N5U1ING4DZ", "dateTime": 1516903909624}, {"current_trial": 203, "trialdata": {"rt": -1, "trial_type": "single-stim", "word": "hiker", "stimulus": "<p id=\"stim\">HIKER</p>", "conditions": [24, 800, "v", 24000], "internal_node_id": "0.0-149.0", "trial": 5, "time_elapsed": 808904, "serialpos": 18, "key_press": -1, "wordID": 707, "type": "PRES_VIS", "trial_index": 203}, "uniqueid": "MTK2242:3N1FSUEFL67FEC474BA1N5U1ING4DZ", "dateTime": 1516903911502}, {"current_trial": 204, "trialdata": {"rt": -1, "trial_type": "single-stim", "word": "climber", "stimulus": "<p id=\"stim\">CLIMBER</p>", "conditions": [24, 800, "v", 24000], "internal_node_id": "0.0-150.0", "trial": 5, "time_elapsed": 810709, "serialpos": 19, "key_press": -1, "wordID": 322, "type": "PRES_VIS", "trial_index": 204}, "uniqueid": "MTK2242:3N1FSUEFL67FEC474BA1N5U1ING4DZ", "dateTime": 1516903913307}, {"current_trial": 205, "trialdata": {"rt": -1, "trial_type": "single-stim", "word": "scallop", "stimulus": "<p id=\"stim\">SCALLOP</p>", "conditions": [24, 800, "v", 24000], "internal_node_id": "0.0-151.0", "trial": 5, "time_elapsed": 812579, "serialpos": 20, "key_press": -1, "wordID": 1241, "type": "PRES_VIS", "trial_index": 205}, "uniqueid": "MTK2242:3N1FSUEFL67FEC474BA1N5U1ING4DZ", "dateTime": 1516903915177}, {"current_trial": 206, "trialdata": {"rt": -1, "trial_type": "single-stim", "word": "egypt", "stimulus": "<p id=\"stim\">EGYPT</p>", "conditions": [24, 800, "v", 24000], "internal_node_id": "0.0-152.0", "trial": 5, "time_elapsed": 814515, "serialpos": 21, "key_press": -1, "wordID": 518, "type": "PRES_VIS", "trial_index": 206}, "uniqueid": "MTK2242:3N1FSUEFL67FEC474BA1N5U1ING4DZ", "dateTime": 1516903917112}, {"current_trial": 207, "trialdata": {"rt": -1, "trial_type": "single-stim", "word": "blueprint", "stimulus": "<p id=\"stim\">BLUEPRINT</p>", "conditions": [24, 800, "v", 24000], "internal_node_id": "0.0-153.0", "trial": 5, "time_elapsed": 816488, "serialpos": 22, "key_press": -1, "wordID": 141, "type": "PRES_VIS", "trial_index": 207}, "uniqueid": "MTK2242:3N1FSUEFL67FEC474BA1N5U1ING4DZ", "dateTime": 1516903919085}, {"current_trial": 208, "trialdata": {"rt": -1, "trial_type": "single-stim", "word": "star", "stimulus": "<p id=\"stim\">STAR</p>", "conditions": [24, 800, "v", 24000], "internal_node_id": "0.0-154.0", "trial": 5, "time_elapsed": 818171, "serialpos": 23, "key_press": -1, "wordID": 1372, "type": "PRES_VIS", "trial_index": 208}, "uniqueid": "MTK2242:3N1FSUEFL67FEC474BA1N5U1ING4DZ", "dateTime": 1516903920768}, {"current_trial": 209, "trialdata": {"rt": -1, "trial_type": "single-stim", "stimulus": "", "internal_node_id": "0.0-155.0-0.0", "time_elapsed": 820334, "key_press": -1, "type": "PRE_RECALL_DELAY", "trial_index": 209}, "uniqueid": "MTK2242:3N1FSUEFL67FEC474BA1N5U1ING4DZ", "dateTime": 1516903922932}, {"current_trial": 210, "trialdata": {"rt": -1000, "trial_type": "single-audio", "stimulus": "/static/audio/400Hz.wav", "internal_node_id": "0.0-156.0", "time_elapsed": 820837, "key_press": -1, "type": "PRE_RECALL_ALERT", "trial_index": 210}, "uniqueid": "MTK2242:3N1FSUEFL67FEC474BA1N5U1ING4DZ", "dateTime": 1516903923434}, {"current_trial": 211, "trialdata": {"rt": [26393, 28601, 30714, 32346, 34434, 37354, 39153, 42443, 44777, 48427, 51187, 54057, 56608, 58921], "recwords": ["grill", "diver", "tile", "market", "patrol", "agent", "banker", "swimmer", "banker", "raddish", "daughter", "dancer", "velvet", "butcher"], "key_times": [25195, 25402, 25689, 26074, 26234, 26393, 27859, 28057, 28201, 28305, 28489, 28601, 30114, 30242, 30434, 30578, 30714, 31289, 31433, 31730, 31833, 31962, 32130, 32346, 33281, 33409, 33721, 33930, 34065, 34256, 34434, 35213, 35505, 36962, 37081, 37257, 37354, 38033, 38185, 38281, 38537, 38721, 38906, 39153, 40914, 41145, 41457, 41761, 41905, 42057, 42234, 42443, 43955, 44074, 44201, 44385, 44530, 44657, 44777, 47131, 47249, 47698, 47841, 47978, 48106, 48265, 48427, 49498, 49585, 49858, 50298, 50425, 50609, 50849, 51009, 51187, 52754, 52881, 53306, 53480, 53633, 53850, 54057, 55138, 55297, 55545, 55978, 56145, 56360, 56608, 57746, 58017, 58193, 58400, 58512, 58625, 58761, 58921, 59827], "trial_type": "free-recall", "conditions": [24, 800, "v", 24000], "internal_node_id": "0.0-157.0-0.0", "key_presses": [71, 82, 73, 76, 76, 13, 68, 73, 86, 69, 82, 32, 84, 73, 76, 69, 32, 77, 65, 82, 75, 69, 84, 32, 80, 65, 84, 82, 79, 76, 32, 65, 71, 69, 78, 84, 32, 66, 65, 78, 75, 69, 82, 32, 83, 87, 73, 77, 77, 69, 82, 32, 66, 65, 78, 75, 69, 82, 32, 82, 65, 68, 68, 73, 83, 72, 32, 68, 65, 85, 71, 72, 84, 69, 82, 32, 68, 65, 78, 67, 69, 82, 32, 86, 69, 76, 86, 69, 84, 32, 66, 85, 84, 67, 72, 69, 82, 32, 74], "trial": 5, "time_elapsed": 880840, "type": "FREE_RECALL", "trial_index": 211}, "uniqueid": "MTK2242:3N1FSUEFL67FEC474BA1N5U1ING4DZ", "dateTime": 1516903983447}, {"current_trial": 212, "trialdata": {"rt": 6194, "trial_type": "text", "internal_node_id": "0.0-158.0", "time_elapsed": 889047, "key_press": 13, "type": "INSTRUCTIONS", "trial_index": 212}, "uniqueid": "MTK2242:3N1FSUEFL67FEC474BA1N5U1ING4DZ", "dateTime": 1516903991644}, {"current_trial": 213, "trialdata": {"rt": [3736, 6832, 9993, 11897], "trial_type": "math-distractor", "key_times": [2250, 2253, 3249, 3529, 3736, 6257, 6689, 6832, 8299, 8497, 9073, 9274, 9425, 9634, 9993, 11753, 11897], "responses": ["10", "17", "11", "7"], "num2": [4, 2, 7, 3, 9], "num3": [3, 9, 3, 1, 9], "conditions": [12, 800, "v", 12000], "internal_node_id": "0.0-159.0", "key_presses": [49, 50, 8, 48, 13, 49, 55, 13, 50, 50, 8, 8, 49, 49, 13, 55, 13], "trial": 6, "time_elapsed": 903057, "type": "DISTRACTOR", "trial_index": 213, "num1": [3, 6, 1, 3, 2]}, "uniqueid": "MTK2242:3N1FSUEFL67FEC474BA1N5U1ING4DZ", "dateTime": 1516904005654}, {"current_trial": 214, "trialdata": {"rt": -1, "trial_type": "single-stim", "stimulus": "<p id=\"stim\">10</p>", "internal_node_id": "0.0-160.0-0.0", "time_elapsed": 906063, "key_press": -1, "trial_index": 214}, "uniqueid": "MTK2242:3N1FSUEFL67FEC474BA1N5U1ING4DZ", "dateTime": 1516904008660}, {"current_trial": 215, "trialdata": {"rt": -1, "trial_type": "single-stim", "stimulus": "<p id=\"stim\">9</p>", "internal_node_id": "0.0-160.0-1.0", "time_elapsed": 907065, "key_press": -1, "trial_index": 215}, "uniqueid": "MTK2242:3N1FSUEFL67FEC474BA1N5U1ING4DZ", "dateTime": 1516904009662}, {"current_trial": 216, "trialdata": {"rt": -1, "trial_type": "single-stim", "stimulus": "<p id=\"stim\">8</p>", "internal_node_id": "0.0-160.0-2.0", "time_elapsed": 908067, "key_press": -1, "trial_index": 216}, "uniqueid": "MTK2242:3N1FSUEFL67FEC474BA1N5U1ING4DZ", "dateTime": 1516904010665}, {"current_trial": 217, "trialdata": {"rt": -1, "trial_type": "single-stim", "stimulus": "<p id=\"stim\">7</p>", "internal_node_id": "0.0-160.0-3.0", "time_elapsed": 909069, "key_press": -1, "trial_index": 217}, "uniqueid": "MTK2242:3N1FSUEFL67FEC474BA1N5U1ING4DZ", "dateTime": 1516904011666}, {"current_trial": 218, "trialdata": {"rt": -1, "trial_type": "single-stim", "stimulus": "<p id=\"stim\">6</p>", "internal_node_id": "0.0-160.0-4.0", "time_elapsed": 910080, "key_press": -1, "trial_index": 218}, "uniqueid": "MTK2242:3N1FSUEFL67FEC474BA1N5U1ING4DZ", "dateTime": 1516904012677}, {"current_trial": 219, "trialdata": {"rt": -1, "trial_type": "single-stim", "stimulus": "<p id=\"stim\">5</p>", "internal_node_id": "0.0-160.0-5.0", "time_elapsed": 911081, "key_press": -1, "trial_index": 219}, "uniqueid": "MTK2242:3N1FSUEFL67FEC474BA1N5U1ING4DZ", "dateTime": 1516904013678}, {"current_trial": 220, "trialdata": {"rt": -1, "trial_type": "single-stim", "stimulus": "<p id=\"stim\">4</p>", "internal_node_id": "0.0-160.0-6.0", "time_elapsed": 912091, "key_press": -1, "trial_index": 220}, "uniqueid": "MTK2242:3N1FSUEFL67FEC474BA1N5U1ING4DZ", "dateTime": 1516904014688}, {"current_trial": 221, "trialdata": {"rt": -1, "trial_type": "single-stim", "stimulus": "<p id=\"stim\">3</p>", "internal_node_id": "0.0-160.0-7.0", "time_elapsed": 913093, "key_press": -1, "trial_index": 221}, "uniqueid": "MTK2242:3N1FSUEFL67FEC474BA1N5U1ING4DZ", "dateTime": 1516904015690}, {"current_trial": 222, "trialdata": {"rt": -1, "trial_type": "single-stim", "stimulus": "<p id=\"stim\">2</p>", "internal_node_id": "0.0-160.0-8.0", "time_elapsed": 914094, "key_press": -1, "trial_index": 222}, "uniqueid": "MTK2242:3N1FSUEFL67FEC474BA1N5U1ING4DZ", "dateTime": 1516904016692}, {"current_trial": 223, "trialdata": {"rt": -1, "trial_type": "single-stim", "stimulus": "<p id=\"stim\">1</p>", "internal_node_id": "0.0-160.0-9.0", "time_elapsed": 915096, "key_press": -1, "trial_index": 223}, "uniqueid": "MTK2242:3N1FSUEFL67FEC474BA1N5U1ING4DZ", "dateTime": 1516904017693}, {"current_trial": 224, "trialdata": {"rt": -1, "trial_type": "single-stim", "stimulus": "<p id=\"stim\">+</p>", "internal_node_id": "0.0-161.0-0.0", "time_elapsed": 916597, "key_press": -1, "type": "FIXATION", "trial_index": 224}, "uniqueid": "MTK2242:3N1FSUEFL67FEC474BA1N5U1ING4DZ", "dateTime": 1516904019195}, {"current_trial": 225, "trialdata": {"rt": -1, "trial_type": "single-stim", "word": "omelet", "stimulus": "<p id=\"stim\">OMELET</p>", "conditions": [12, 800, "v", 12000], "internal_node_id": "0.0-162.0", "trial": 6, "time_elapsed": 917400, "serialpos": 0, "key_press": -1, "wordID": 975, "type": "PRES_VIS", "trial_index": 225}, "uniqueid": "MTK2242:3N1FSUEFL67FEC474BA1N5U1ING4DZ", "dateTime": 1516904019998}, {"current_trial": 226, "trialdata": {"rt": -1, "trial_type": "single-stim", "word": "elbow", "stimulus": "<p id=\"stim\">ELBOW</p>", "conditions": [12, 800, "v", 12000], "internal_node_id": "0.0-163.0", "trial": 6, "time_elapsed": 919151, "serialpos": 1, "key_press": -1, "wordID": 519, "type": "PRES_VIS", "trial_index": 226}, "uniqueid": "MTK2242:3N1FSUEFL67FEC474BA1N5U1ING4DZ", "dateTime": 1516904021748}, {"current_trial": 227, "trialdata": {"rt": -1, "trial_type": "single-stim", "word": "custard", "stimulus": "<p id=\"stim\">CUSTARD</p>", "conditions": [12, 800, "v", 12000], "internal_node_id": "0.0-164.0", "trial": 6, "time_elapsed": 920844, "serialpos": 2, "key_press": -1, "wordID": 428, "type": "PRES_VIS", "trial_index": 227}, "uniqueid": "MTK2242:3N1FSUEFL67FEC474BA1N5U1ING4DZ", "dateTime": 1516904023441}, {"current_trial": 228, "trialdata": {"rt": -1, "trial_type": "single-stim", "word": "fragrance", "stimulus": "<p id=\"stim\">FRAGRANCE</p>", "conditions": [12, 800, "v", 12000], "internal_node_id": "0.0-165.0", "trial": 6, "time_elapsed": 922525, "serialpos": 3, "key_press": -1, "wordID": 598, "type": "PRES_VIS", "trial_index": 228}, "uniqueid": "MTK2242:3N1FSUEFL67FEC474BA1N5U1ING4DZ", "dateTime": 1516904025122}, {"current_trial": 229, "trialdata": {"rt": -1, "trial_type": "single-stim", "word": "rug", "stimulus": "<p id=\"stim\">RUG</p>", "conditions": [12, 800, "v", 12000], "internal_node_id": "0.0-166.0", "trial": 6, "time_elapsed": 924278, "serialpos": 4, "key_press": -1, "wordID": 1214, "type": "PRES_VIS", "trial_index": 229}, "uniqueid": "MTK2242:3N1FSUEFL67FEC474BA1N5U1ING4DZ", "dateTime": 1516904026875}, {"current_trial": 230, "trialdata": {"rt": -1, "trial_type": "single-stim", "word": "shortcake", "stimulus": "<p id=\"stim\">SHORTCAKE</p>", "conditions": [12, 800, "v", 12000], "internal_node_id": "0.0-167.0", "trial": 6, "time_elapsed": 926094, "serialpos": 5, "key_press": -1, "wordID": 1291, "type": "PRES_VIS", "trial_index": 230}, "uniqueid": "MTK2242:3N1FSUEFL67FEC474BA1N5U1ING4DZ", "dateTime": 1516904028691}, {"current_trial": 231, "trialdata": {"rt": -1, "trial_type": "single-stim", "word": "bureau", "stimulus": "<p id=\"stim\">BUREAU</p>", "conditions": [12, 800, "v", 12000], "internal_node_id": "0.0-168.0", "trial": 6, "time_elapsed": 928038, "serialpos": 6, "key_press": -1, "wordID": 198, "type": "PRES_VIS", "trial_index": 231}, "uniqueid": "MTK2242:3N1FSUEFL67FEC474BA1N5U1ING4DZ", "dateTime": 1516904030636}, {"current_trial": 232, "trialdata": {"rt": -1, "trial_type": "single-stim", "word": "clothes", "stimulus": "<p id=\"stim\">CLOTHES</p>", "conditions": [12, 800, "v", 12000], "internal_node_id": "0.0-169.0", "trial": 6, "time_elapsed": 929754, "serialpos": 7, "key_press": -1, "wordID": 326, "type": "PRES_VIS", "trial_index": 232}, "uniqueid": "MTK2242:3N1FSUEFL67FEC474BA1N5U1ING4DZ", "dateTime": 1516904032351}, {"current_trial": 233, "trialdata": {"rt": -1, "trial_type": "single-stim", "word": "student", "stimulus": "<p id=\"stim\">STUDENT</p>", "conditions": [12, 800, "v", 12000], "internal_node_id": "0.0-170.0", "trial": 6, "time_elapsed": 931602, "serialpos": 8, "key_press": -1, "wordID": 1394, "type": "PRES_VIS", "trial_index": 233}, "uniqueid": "MTK2242:3N1FSUEFL67FEC474BA1N5U1ING4DZ", "dateTime": 1516904034200}, {"current_trial": 234, "trialdata": {"rt": -1, "trial_type": "single-stim", "word": "dorm", "stimulus": "<p id=\"stim\">DORM</p>", "conditions": [12, 800, "v", 12000], "internal_node_id": "0.0-171.0", "trial": 6, "time_elapsed": 933600, "serialpos": 9, "key_press": -1, "wordID": 487, "type": "PRES_VIS", "trial_index": 234}, "uniqueid": "MTK2242:3N1FSUEFL67FEC474BA1N5U1ING4DZ", "dateTime": 1516904036198}, {"current_trial": 235, "trialdata": {"rt": -1, "trial_type": "single-stim", "word": "river", "stimulus": "<p id=\"stim\">RIVER</p>", "conditions": [12, 800, "v", 12000], "internal_node_id": "0.0-172.0", "trial": 6, "time_elapsed": 935311, "serialpos": 10, "key_press": -1, "wordID": 1193, "type": "PRES_VIS", "trial_index": 235}, "uniqueid": "MTK2242:3N1FSUEFL67FEC474BA1N5U1ING4DZ", "dateTime": 1516904037908}, {"current_trial": 236, "trialdata": {"rt": -1, "trial_type": "single-stim", "word": "lumber", "stimulus": "<p id=\"stim\">LUMBER</p>", "conditions": [12, 800, "v", 12000], "internal_node_id": "0.0-173.0", "trial": 6, "time_elapsed": 937148, "serialpos": 11, "key_press": -1, "wordID": 847, "type": "PRES_VIS", "trial_index": 236}, "uniqueid": "MTK2242:3N1FSUEFL67FEC474BA1N5U1ING4DZ", "dateTime": 1516904039745}, {"current_trial": 237, "trialdata": {"rt": -1, "trial_type": "single-stim", "stimulus": "", "internal_node_id": "0.0-174.0-0.0", "time_elapsed": 939268, "key_press": -1, "type": "PRE_RECALL_DELAY", "trial_index": 237}, "uniqueid": "MTK2242:3N1FSUEFL67FEC474BA1N5U1ING4DZ", "dateTime": 1516904041865}, {"current_trial": 238, "trialdata": {"rt": -1000, "trial_type": "single-audio", "stimulus": "/static/audio/400Hz.wav", "internal_node_id": "0.0-175.0", "time_elapsed": 939770, "key_press": -1, "type": "PRE_RECALL_ALERT", "trial_index": 238}, "uniqueid": "MTK2242:3N1FSUEFL67FEC474BA1N5U1ING4DZ", "dateTime": 1516904042368}, {"current_trial": 239, "trialdata": {"rt": [6009, 11720, 16609, 19424, 22953, 25424, 31889, 35720, 42010, 43913], "recwords": ["omelet", "elbow", "custard", "rug", "shortcake", "clothes", "fragerance", "dorm", "students", "lumber"], "key_times": [4408, 4648, 5224, 5407, 5583, 5784, 6009, 7289, 7426, 8833, 9112, 9449, 9616, 9792, 9964, 10417, 10890, 11185, 11344, 11576, 11720, 13258, 13520, 13672, 13954, 14177, 14424, 14858, 15009, 16392, 16609, 17552, 17930, 19290, 19424, 20121, 20400, 20568, 20729, 21400, 21730, 22042, 22377, 22537, 22673, 22792, 22953, 24264, 24433, 24633, 24898, 24993, 25096, 25256, 25424, 27073, 27337, 27698, 28008, 28168, 28360, 28544, 28961, 29120, 29291, 29459, 29609, 30465, 30664, 30848, 31034, 31241, 31393, 31536, 31697, 31889, 35053, 35200, 35392, 35480, 35720, 38736, 39058, 39205, 39378, 39513, 39708, 39970, 39973, 40442, 40795, 42010, 42379, 42674, 42929, 43210, 43298, 43442, 43913], "trial_type": "free-recall", "conditions": [12, 800, "v", 12000], "internal_node_id": "0.0-176.0-0.0", "key_presses": [79, 77, 69, 76, 69, 84, 32, 67, 76, 78, 79, 8, 8, 8, 8, 69, 76, 66, 79, 87, 32, 67, 85, 83, 84, 65, 84, 8, 82, 68, 32, 82, 85, 71, 32, 67, 8, 83, 72, 79, 82, 84, 67, 65, 75, 69, 32, 67, 76, 79, 84, 72, 69, 83, 32, 70, 82, 65, 71, 69, 82, 65, 8, 69, 78, 67, 69, 8, 8, 8, 8, 65, 78, 67, 69, 32, 68, 79, 82, 77, 32, 83, 84, 85, 68, 69, 78, 84, 82, 8, 83, 32, 76, 85, 77, 66, 69, 82, 13], "trial": 6, "time_elapsed": 999776, "type": "FREE_RECALL", "trial_index": 239}, "uniqueid": "MTK2242:3N1FSUEFL67FEC474BA1N5U1ING4DZ", "dateTime": 1516904102395}, {"current_trial": 240, "trialdata": {"rt": 1011, "trial_type": "text", "internal_node_id": "0.0-177.0", "time_elapsed": 1002810, "key_press": 32, "type": "INSTRUCTIONS", "trial_index": 240}, "uniqueid": "MTK2242:3N1FSUEFL67FEC474BA1N5U1ING4DZ", "dateTime": 1516904105407}, {"current_trial": 241, "trialdata": {"rt": [2212, 4570, 7970, 9979], "trial_type": "math-distractor", "key_times": [1635, 1819, 2212, 3635, 4083, 4570, 7659, 7835, 7970, 9500, 9852, 9979], "responses": ["11", "10", "24", "17"], "num2": [8, 2, 7, 9, 9], "num3": [1, 3, 9, 6, 8], "conditions": [24, 1600, "v", 12000], "internal_node_id": "0.0-178.0", "key_presses": [49, 49, 13, 49, 48, 13, 50, 52, 13, 49, 55, 13], "trial": 7, "time_elapsed": 1016847, "type": "DISTRACTOR", "trial_index": 241, "num1": [2, 5, 8, 2, 9]}, "uniqueid": "MTK2242:3N1FSUEFL67FEC474BA1N5U1ING4DZ", "dateTime": 1516904119445}, {"current_trial": 242, "trialdata": {"rt": -1, "trial_type": "single-stim", "stimulus": "<p id=\"stim\">10</p>", "internal_node_id": "0.0-179.0-0.0", "time_elapsed": 1019850, "key_press": -1, "trial_index": 242}, "uniqueid": "MTK2242:3N1FSUEFL67FEC474BA1N5U1ING4DZ", "dateTime": 1516904122448}, {"current_trial": 243, "trialdata": {"rt": -1, "trial_type": "single-stim", "stimulus": "<p id=\"stim\">9</p>", "internal_node_id": "0.0-179.0-1.0", "time_elapsed": 1020854, "key_press": -1, "trial_index": 243}, "uniqueid": "MTK2242:3N1FSUEFL67FEC474BA1N5U1ING4DZ", "dateTime": 1516904123452}, {"current_trial": 244, "trialdata": {"rt": -1, "trial_type": "single-stim", "stimulus": "<p id=\"stim\">8</p>", "internal_node_id": "0.0-179.0-2.0", "time_elapsed": 1021856, "key_press": -1, "trial_index": 244}, "uniqueid": "MTK2242:3N1FSUEFL67FEC474BA1N5U1ING4DZ", "dateTime": 1516904124454}, {"current_trial": 245, "trialdata": {"rt": -1, "trial_type": "single-stim", "stimulus": "<p id=\"stim\">7</p>", "internal_node_id": "0.0-179.0-3.0", "time_elapsed": 1022858, "key_press": -1, "trial_index": 245}, "uniqueid": "MTK2242:3N1FSUEFL67FEC474BA1N5U1ING4DZ", "dateTime": 1516904125456}, {"current_trial": 246, "trialdata": {"rt": -1, "trial_type": "single-stim", "stimulus": "<p id=\"stim\">6</p>", "internal_node_id": "0.0-179.0-4.0", "time_elapsed": 1023860, "key_press": -1, "trial_index": 246}, "uniqueid": "MTK2242:3N1FSUEFL67FEC474BA1N5U1ING4DZ", "dateTime": 1516904126458}, {"current_trial": 247, "trialdata": {"rt": -1, "trial_type": "single-stim", "stimulus": "<p id=\"stim\">5</p>", "internal_node_id": "0.0-179.0-5.0", "time_elapsed": 1024863, "key_press": -1, "trial_index": 247}, "uniqueid": "MTK2242:3N1FSUEFL67FEC474BA1N5U1ING4DZ", "dateTime": 1516904127461}, {"current_trial": 248, "trialdata": {"rt": -1, "trial_type": "single-stim", "stimulus": "<p id=\"stim\">4</p>", "internal_node_id": "0.0-179.0-6.0", "time_elapsed": 1025866, "key_press": -1, "trial_index": 248}, "uniqueid": "MTK2242:3N1FSUEFL67FEC474BA1N5U1ING4DZ", "dateTime": 151690412847