{"assignmentId": "3FTOP5WARGVBIAMYV69AE0Z18ZZJ0O", "workerId": "MTK2821", "questiondata": {"origin": "United States", "strat-rehearsal": "75", "marital": "Married/Domestic Partnership", "education": "Bachelor's degree", "ethnicity": "Not Hispanic", "color_depth": 24, "distracted": "No", "wrote-notes": "No", "strat-other": "I tried imagining the words together to make an unusual situation (i.e. a 'penguin' 'slide'-ing down a 'blackboard' into a 'dolphin')", "screen_width": 1680, "avail_screen_width": 1680, "avail_screen_height": 1020, "strat-image": "80", "language": "English", "gender": "Female", "age": "51", "gender_other": "", "race": ["White"], "strat-categorize": "80", "pixel_depth": 24, "strat-spatial": "85", "strat-story": "70", "race_other": "", "screen_height": 1050}, "bonus": 0, "hitId": "3EFNPKWBMSVYACMF2JCL99MSRR3031", "counterbalance": 1371, "useragent": "Mozilla/5.0 (Windows NT 10.0; Win64; x64) AppleWebKit/537.36 (KHTML, like Gecko) Chrome/64.0.3282.167 Safari/537.36", "eventdata": [{"eventtype": "initialized", "interval": 0, "value": null, "timestamp": 1519406243176}, {"eventtype": "window_resize", "interval": 0, "value": [1680, 1003], "timestamp": 1519406243176}, {"eventtype": "focus", "interval": 120807, "value": "off", "timestamp": 1519406363983}, {"eventtype": "focus", "interval": 10156, "value": "on", "timestamp": 1519406374139}, {"eventtype": "window_resize", "interval": 1388, "value": [1680, 954], "timestamp": 1519406375527}, {"eventtype": "focus", "interval": 14675, "value": "off", "timestamp": 1519406390202}, {"eventtype": "focus", "interval": 14362, "value": "on", "timestamp": 1519406404564}, {"eventtype": "focus", "interval": 9434, "value": "off", "timestamp": 1519406413998}, {"eventtype": "focus", "interval": 6810, "value": "on", "timestamp": 1519406420808}, {"eventtype": "focus", "interval": 3268612, "value": "off", "timestamp": 1519409689420}, {"eventtype": "focus", "interval": 14047, "value": "on", "timestamp": 1519409703467}], "data": [{"current_trial": 0, "trialdata": {"rt": 32104, "trial_type": "text", "internal_node_id": "0.0-0.0", "time_elapsed": 32107, "key_press": 32, "type": "INSTRUCTIONS", "trial_index": 0}, "uniqueid": "MTK2821:3FTOP5WARGVBIAMYV69AE0Z18ZZJ0O", "dateTime": 1519406309684}, {"current_trial": 1, "trialdata": {"rt": 30300, "trial_type": "text", "internal_node_id": "0.0-1.0", "time_elapsed": 62409, "key_press": 32, "type": "INSTRUCTIONS", "trial_index": 1}, "uniqueid": "MTK2821:3FTOP5WARGVBIAMYV69AE0Z18ZZJ0O", "dateTime": 1519406339985}, {"current_trial": 2, "trialdata": {"rt": [84478], "trial_type": "audio-test", "responses": ["ocean"], "internal_node_id": "0.0-2.0", "time_elapsed": 146917, "type": "AUDIO_TEST", "trial_index": 2}, "uniqueid": "MTK2821:3FTOP5WARGVBIAMYV69AE0Z18ZZJ0O", "dateTime": 1519406424493}, {"current_trial": 3, "trialdata": {"rt": [11189], "trial_type": "audio-test", "responses": ["crystal"], "internal_node_id": "0.0-3.0", "time_elapsed": 158114, "type": "AUDIO_TEST", "trial_index": 3}, "uniqueid": "MTK2821:3FTOP5WARGVBIAMYV69AE0Z18ZZJ0O", "dateTime": 1519406435690}, {"current_trial": 4, "trialdata": {"rt": [7395], "trial_type": "audio-test", "responses": ["spice"], "internal_node_id": "0.0-4.0", "time_elapsed": 165515, "type": "AUDIO_TEST", "trial_index": 4}, "uniqueid": "MTK2821:3FTOP5WARGVBIAMYV69AE0Z18ZZJ0O", "dateTime": 1519406443091}, {"current_trial": 5, "trialdata": {"rt": 45796, "trial_type": "survey-text", "responses": "{\"Q0\":\"3:20\",\"Q1\":\"9:00\",\"Q2\":\"4\"}", "internal_node_id": "0.0-5.0", "time_elapsed": 212066, "type": "SLEEP_SURVEY", "trial_index": 5}, "uniqueid": "MTK2821:3FTOP5WARGVBIAMYV69AE0Z18ZZJ0O", "dateTime": 1519406489642}, {"current_trial": 6, "trialdata": {"rt": 98806, "trial_type": "text", "internal_node_id": "0.0-6.0", "time_elapsed": 311873, "key_press": 32, "type": "INSTRUCTIONS", "trial_index": 6}, "uniqueid": "MTK2821:3FTOP5WARGVBIAMYV69AE0Z18ZZJ0O", "dateTime": 1519406589449}, {"current_trial": 7, "trialdata": {"rt": 41843, "trial_type": "text", "internal_node_id": "0.0-7.0", "time_elapsed": 354217, "key_press": 32, "type": "INSTRUCTIONS", "trial_index": 7}, "uniqueid": "MTK2821:3FTOP5WARGVBIAMYV69AE0Z18ZZJ0O", "dateTime": 1519406631793}, {"current_trial": 8, "trialdata": {"rt": 34129, "trial_type": "text", "internal_node_id": "0.0-8.0", "time_elapsed": 388847, "key_press": 32, "type": "INSTRUCTIONS", "trial_index": 8}, "uniqueid": "MTK2821:3FTOP5WARGVBIAMYV69AE0Z18ZZJ0O", "dateTime": 1519406666425}, {"current_trial": 9, "trialdata": {"rt": [4776, 8001, 10384, 17175], "trial_type": "math-distractor", "key_times": [3656, 3946, 4776, 7361, 7641, 8001, 9313, 9785, 10384, 15969, 16153, 17175], "responses": ["16", "19", "17", "23"], "num2": [5, 5, 7, 8, 3], "num3": [8, 6, 6, 9, 5], "conditions": [18, 1200, "a", 18000], "internal_node_id": "0.0-9.0", "key_presses": [49, 54, 13, 49, 57, 13, 49, 55, 13, 98, 99, 13], "trial": 0, "time_elapsed": 407859, "type": "DISTRACTOR", "trial_index": 9, "num1": [3, 8, 4, 6, 6]}, "uniqueid": "MTK2821:3FTOP5WARGVBIAMYV69AE0Z18ZZJ0O", "dateTime": 1519406685437}, {"current_trial": 10, "trialdata": {"rt": -1, "trial_type": "single-stim", "stimulus": "<p id=\"stim\">10</p>", "internal_node_id": "0.0-10.0-0.0", "time_elapsed": 410861, "key_press": -1, "trial_index": 10}, "uniqueid": "MTK2821:3FTOP5WARGVBIAMYV69AE0Z18ZZJ0O", "dateTime": 1519406688437}, {"current_trial": 11, "trialdata": {"rt": -1, "trial_type": "single-stim", "stimulus": "<p id=\"stim\">9</p>", "internal_node_id": "0.0-10.0-1.0", "time_elapsed": 411862, "key_press": -1, "trial_index": 11}, "uniqueid": "MTK2821:3FTOP5WARGVBIAMYV69AE0Z18ZZJ0O", "dateTime": 1519406689439}, {"current_trial": 12, "trialdata": {"rt": -1, "trial_type": "single-stim", "stimulus": "<p id=\"stim\">8</p>", "internal_node_id": "0.0-10.0-2.0", "time_elapsed": 412865, "key_press": -1, "trial_index": 12}, "uniqueid": "MTK2821:3FTOP5WARGVBIAMYV69AE0Z18ZZJ0O", "dateTime": 1519406690441}, {"current_trial": 13, "trialdata": {"rt": -1, "trial_type": "single-stim", "stimulus": "<p id=\"stim\">7</p>", "internal_node_id": "0.0-10.0-3.0", "time_elapsed": 413866, "key_press": -1, "trial_index": 13}, "uniqueid": "MTK2821:3FTOP5WARGVBIAMYV69AE0Z18ZZJ0O", "dateTime": 1519406691442}, {"current_trial": 14, "trialdata": {"rt": -1, "trial_type": "single-stim", "stimulus": "<p id=\"stim\">6</p>", "internal_node_id": "0.0-10.0-4.0", "time_elapsed": 414866, "key_press": -1, "trial_index": 14}, "uniqueid": "MTK2821:3FTOP5WARGVBIAMYV69AE0Z18ZZJ0O", "dateTime": 1519406692442}, {"current_trial": 15, "trialdata": {"rt": -1, "trial_type": "single-stim", "stimulus": "<p id=\"stim\">5</p>", "internal_node_id": "0.0-10.0-5.0", "time_elapsed": 415866, "key_press": -1, "trial_index": 15}, "uniqueid": "MTK2821:3FTOP5WARGVBIAMYV69AE0Z18ZZJ0O", "dateTime": 1519406693442}, {"current_trial": 16, "trialdata": {"rt": -1, "trial_type": "single-stim", "stimulus": "<p id=\"stim\">4</p>", "internal_node_id": "0.0-10.0-6.0", "time_elapsed": 416868, "key_press": -1, "trial_index": 16}, "uniqueid": "MTK2821:3FTOP5WARGVBIAMYV69AE0Z18ZZJ0O", "dateTime": 1519406694444}, {"current_trial": 17, "trialdata": {"rt": -1, "trial_type": "single-stim", "stimulus": "<p id=\"stim\">3</p>", "internal_node_id": "0.0-10.0-7.0", "time_elapsed": 417870, "key_press": -1, "trial_index": 17}, "uniqueid": "MTK2821:3FTOP5WARGVBIAMYV69AE0Z18ZZJ0O", "dateTime": 1519406695446}, {"current_trial": 18, "trialdata": {"rt": -1, "trial_type": "single-stim", "stimulus": "<p id=\"stim\">2</p>", "internal_node_id": "0.0-10.0-8.0", "time_elapsed": 418870, "key_press": -1, "trial_index": 18}, "uniqueid": "MTK2821:3FTOP5WARGVBIAMYV69AE0Z18ZZJ0O", "dateTime": 1519406696446}, {"current_trial": 19, "trialdata": {"rt": -1, "trial_type": "single-stim", "stimulus": "<p id=\"stim\">1</p>", "internal_node_id": "0.0-10.0-9.0", "time_elapsed": 419872, "key_press": -1, "trial_index": 19}, "uniqueid": "MTK2821:3FTOP5WARGVBIAMYV69AE0Z18ZZJ0O", "dateTime": 1519406697449}, {"current_trial": 20, "trialdata": {"rt": -1, "trial_type": "single-stim", "stimulus": "<p id=\"stim\">+</p>", "internal_node_id": "0.0-11.0-0.0", "time_elapsed": 421373, "key_press": -1, "type": "FIXATION", "trial_index": 20}, "uniqueid": "MTK2821:3FTOP5WARGVBIAMYV69AE0Z18ZZJ0O", "dateTime": 1519406698949}, {"current_trial": 21, "trialdata": {"rt": -1000, "trial_type": "single-audio", "word": "france", "stimulus": "/static/audio/wordpool/FRANCE.wav", "conditions": [18, 1200, "a", 18000], "internal_node_id": "0.0-12.0", "trial": 0, "time_elapsed": 423659, "serialpos": 0, "key_press": -1, "wordID": 600, "type": "PRES_AUD", "trial_index": 21}, "uniqueid": "MTK2821:3FTOP5WARGVBIAMYV69AE0Z18ZZJ0O", "dateTime": 1519406701235}, {"current_trial": 22, "trialdata": {"rt": -1000, "trial_type": "single-audio", "word": "japan", "stimulus": "/static/audio/wordpool/JAPAN.wav", "conditions": [18, 1200, "a", 18000], "internal_node_id": "0.0-13.0", "trial": 0, "time_elapsed": 426000, "serialpos": 1, "key_press": -1, "wordID": 748, "type": "PRES_AUD", "trial_index": 22}, "uniqueid": "MTK2821:3FTOP5WARGVBIAMYV69AE0Z18ZZJ0O", "dateTime": 1519406703576}, {"current_trial": 23, "trialdata": {"rt": -1000, "trial_type": "single-audio", "word": "motel", "stimulus": "/static/audio/wordpool/MOTEL.wav", "conditions": [18, 1200, "a", 18000], "internal_node_id": "0.0-14.0", "trial": 0, "time_elapsed": 428229, "serialpos": 2, "key_press": -1, "wordID": 918, "type": "PRES_AUD", "trial_index": 23}, "uniqueid": "MTK2821:3FTOP5WARGVBIAMYV69AE0Z18ZZJ0O", "dateTime": 1519406705805}, {"current_trial": 24, "trialdata": {"rt": -1000, "trial_type": "single-audio", "word": "spider", "stimulus": "/static/audio/wordpool/SPIDER.wav", "conditions": [18, 1200, "a", 18000], "internal_node_id": "0.0-15.0", "trial": 0, "time_elapsed": 430279, "serialpos": 3, "key_press": -1, "wordID": 1350, "type": "PRES_AUD", "trial_index": 24}, "uniqueid": "MTK2821:3FTOP5WARGVBIAMYV69AE0Z18ZZJ0O", "dateTime": 1519406707855}, {"current_trial": 25, "trialdata": {"rt": -1000, "trial_type": "single-audio", "word": "tablet", "stimulus": "/static/audio/wordpool/TABLET.wav", "conditions": [18, 1200, "a", 18000], "internal_node_id": "0.0-16.0", "trial": 0, "time_elapsed": 432653, "serialpos": 4, "key_press": -1, "wordID": 1426, "type": "PRES_AUD", "trial_index": 25}, "uniqueid": "MTK2821:3FTOP5WARGVBIAMYV69AE0Z18ZZJ0O", "dateTime": 1519406710229}, {"current_trial": 26, "trialdata": {"rt": -1000, "trial_type": "single-audio", "word": "passage", "stimulus": "/static/audio/wordpool/PASSAGE.wav", "conditions": [18, 1200, "a", 18000], "internal_node_id": "0.0-17.0", "trial": 0, "time_elapsed": 434832, "serialpos": 5, "key_press": -1, "wordID": 1018, "type": "PRES_AUD", "trial_index": 26}, "uniqueid": "MTK2821:3FTOP5WARGVBIAMYV69AE0Z18ZZJ0O", "dateTime": 1519406712408}, {"current_trial": 27, "trialdata": {"rt": -1000, "trial_type": "single-audio", "word": "mars", "stimulus": "/static/audio/wordpool/MARS.wav", "conditions": [18, 1200, "a", 18000], "internal_node_id": "0.0-18.0", "trial": 0, "time_elapsed": 436980, "serialpos": 6, "key_press": -1, "wordID": 872, "type": "PRES_AUD", "trial_index": 27}, "uniqueid": "MTK2821:3FTOP5WARGVBIAMYV69AE0Z18ZZJ0O", "dateTime": 1519406714556}, {"current_trial": 28, "trialdata": {"rt": -1000, "trial_type": "single-audio", "word": "nightgown", "stimulus": "/static/audio/wordpool/NIGHTGOWN.wav", "conditions": [18, 1200, "a", 18000], "internal_node_id": "0.0-19.0", "trial": 0, "time_elapsed": 439346, "serialpos": 7, "key_press": -1, "wordID": 952, "type": "PRES_AUD", "trial_index": 28}, "uniqueid": "MTK2821:3FTOP5WARGVBIAMYV69AE0Z18ZZJ0O", "dateTime": 1519406716922}, {"current_trial": 29, "trialdata": {"rt": -1000, "trial_type": "single-audio", "word": "highway", "stimulus": "/static/audio/wordpool/HIGHWAY.wav", "conditions": [18, 1200, "a", 18000], "internal_node_id": "0.0-20.0", "trial": 0, "time_elapsed": 441430, "serialpos": 8, "key_press": -1, "wordID": 706, "type": "PRES_AUD", "trial_index": 29}, "uniqueid": "MTK2821:3FTOP5WARGVBIAMYV69AE0Z18ZZJ0O", "dateTime": 1519406719006}, {"current_trial": 30, "trialdata": {"rt": -1000, "trial_type": "single-audio", "word": "empire", "stimulus": "/static/audio/wordpool/EMPIRE.wav", "conditions": [18, 1200, "a", 18000], "internal_node_id": "0.0-21.0", "trial": 0, "time_elapsed": 443524, "serialpos": 9, "key_press": -1, "wordID": 529, "type": "PRES_AUD", "trial_index": 30}, "uniqueid": "MTK2821:3FTOP5WARGVBIAMYV69AE0Z18ZZJ0O", "dateTime": 1519406721100}, {"current_trial": 31, "trialdata": {"rt": -1000, "trial_type": "single-audio", "word": "plaza", "stimulus": "/static/audio/wordpool/PLAZA.wav", "conditions": [18, 1200, "a", 18000], "internal_node_id": "0.0-22.0", "trial": 0, "time_elapsed": 445744, "serialpos": 10, "key_press": -1, "wordID": 1087, "type": "PRES_AUD", "trial_index": 31}, "uniqueid": "MTK2821:3FTOP5WARGVBIAMYV69AE0Z18ZZJ0O", "dateTime": 1519406723321}, {"current_trial": 32, "trialdata": {"rt": -1000, "trial_type": "single-audio", "word": "cowboy", "stimulus": "/static/audio/wordpool/COWBOY.wav", "conditions": [18, 1200, "a", 18000], "internal_node_id": "0.0-23.0", "trial": 0, "time_elapsed": 448053, "serialpos": 11, "key_press": -1, "wordID": 394, "type": "PRES_AUD", "trial_index": 32}, "uniqueid": "MTK2821:3FTOP5WARGVBIAMYV69AE0Z18ZZJ0O", "dateTime": 1519406725629}, {"current_trial": 33, "trialdata": {"rt": -1000, "trial_type": "single-audio", "word": "hatchet", "stimulus": "/static/audio/wordpool/HATCHET.wav", "conditions": [18, 1200, "a", 18000], "internal_node_id": "0.0-24.0", "trial": 0, "time_elapsed": 450228, "serialpos": 12, "key_press": -1, "wordID": 690, "type": "PRES_AUD", "trial_index": 33}, "uniqueid": "MTK2821:3FTOP5WARGVBIAMYV69AE0Z18ZZJ0O", "dateTime": 1519406727804}, {"current_trial": 34, "trialdata": {"rt": -1000, "trial_type": "single-audio", "word": "egypt", "stimulus": "/static/audio/wordpool/EGYPT.wav", "conditions": [18, 1200, "a", 18000], "internal_node_id": "0.0-25.0", "trial": 0, "time_elapsed": 452338, "serialpos": 13, "key_press": -1, "wordID": 518, "type": "PRES_AUD", "trial_index": 34}, "uniqueid": "MTK2821:3FTOP5WARGVBIAMYV69AE0Z18ZZJ0O", "dateTime": 1519406729914}, {"current_trial": 35, "trialdata": {"rt": -1000, "trial_type": "single-audio", "word": "subway", "stimulus": "/static/audio/wordpool/SUBWAY.wav", "conditions": [18, 1200, "a", 18000], "internal_node_id": "0.0-26.0", "trial": 0, "time_elapsed": 454705, "serialpos": 14, "key_press": -1, "wordID": 1399, "type": "PRES_AUD", "trial_index": 35}, "uniqueid": "MTK2821:3FTOP5WARGVBIAMYV69AE0Z18ZZJ0O", "dateTime": 1519406732281}, {"current_trial": 36, "trialdata": {"rt": -1000, "trial_type": "single-audio", "word": "primate", "stimulus": "/static/audio/wordpool/PRIMATE.wav", "conditions": [18, 1200, "a", 18000], "internal_node_id": "0.0-27.0", "trial": 0, "time_elapsed": 456732, "serialpos": 15, "key_press": -1, "wordID": 1122, "type": "PRES_AUD", "trial_index": 36}, "uniqueid": "MTK2821:3FTOP5WARGVBIAMYV69AE0Z18ZZJ0O", "dateTime": 1519406734308}, {"current_trial": 37, "trialdata": {"rt": -1000, "trial_type": "single-audio", "word": "police", "stimulus": "/static/audio/wordpool/POLICE.wav", "conditions": [18, 1200, "a", 18000], "internal_node_id": "0.0-28.0", "trial": 0, "time_elapsed": 458897, "serialpos": 16, "key_press": -1, "wordID": 1097, "type": "PRES_AUD", "trial_index": 37}, "uniqueid": "MTK2821:3FTOP5WARGVBIAMYV69AE0Z18ZZJ0O", "dateTime": 1519406736473}, {"current_trial": 38, "trialdata": {"rt": -1000, "trial_type": "single-audio", "word": "bathtub", "stimulus": "/static/audio/wordpool/BATHTUB.wav", "conditions": [18, 1200, "a", 18000], "internal_node_id": "0.0-29.0", "trial": 0, "time_elapsed": 461242, "serialpos": 17, "key_press": -1, "wordID": 99, "type": "PRES_AUD", "trial_index": 38}, "uniqueid": "MTK2821:3FTOP5WARGVBIAMYV69AE0Z18ZZJ0O", "dateTime": 1519406738818}, {"current_trial": 39, "trialdata": {"rt": -1, "trial_type": "single-stim", "stimulus": "", "internal_node_id": "0.0-30.0-0.0", "time_elapsed": 462547, "key_press": -1, "type": "PRE_RECALL_DELAY", "trial_index": 39}, "uniqueid": "MTK2821:3FTOP5WARGVBIAMYV69AE0Z18ZZJ0O", "dateTime": 1519406740123}, {"current_trial": 40, "trialdata": {"rt": -1000, "trial_type": "single-audio", "stimulus": "/static/audio/400Hz.wav", "internal_node_id": "0.0-31.0", "time_elapsed": 463048, "key_press": -1, "type": "PRE_RECALL_ALERT", "trial_index": 40}, "uniqueid": "MTK2821:3FTOP5WARGVBIAMYV69AE0Z18ZZJ0O", "dateTime": 1519406740624}, {"current_trial": 41, "trialdata": {"rt": [4727, 7143, 9095, 10994, 15352, 19630, 27320, 33071, 41967, 43192, 49135], "recwords": ["bathtub", "primate", "police", "france", "egypt", "japan", "highway", "subway", "passage", "mars", "tablet"], "key_times": [3239, 3326, 3439, 3615, 3784, 3935, 4215, 4727, 5839, 5960, 6087, 6262, 6382, 6462, 6695, 7143, 7519, 7704, 7999, 8159, 8367, 8704, 9095, 9431, 9767, 10103, 10289, 10430, 10606, 10994, 11343, 11631, 11927, 12575, 12727, 13575, 13808, 13967, 14151, 15352, 16322, 16446, 16575, 16718, 17472, 19630, 22272, 22383, 22495, 22639, 22751, 22952, 23095, 27320, 31134, 31278, 31576, 31742, 31950, 32094, 33071, 40768, 40905, 40974, 41198, 41446, 41526, 41750, 41967, 42567, 42679, 42759, 42975, 43192, 47806, 47974, 48102, 48422, 48526, 48662, 49135], "trial_type": "free-recall", "conditions": [18, 1200, "a", 18000], "internal_node_id": "0.0-32.0-0.0", "key_presses": [66, 65, 84, 72, 84, 85, 66, 13, 80, 82, 73, 77, 65, 84, 69, 13, 80, 79, 76, 73, 67, 69, 13, 70, 82, 65, 78, 67, 69, 13, 69, 81, 89, 8, 8, 71, 89, 80, 84, 13, 74, 65, 80, 65, 78, 13, 72, 73, 71, 72, 87, 65, 89, 13, 83, 85, 66, 87, 65, 89, 13, 80, 65, 83, 83, 65, 71, 69, 13, 77, 65, 82, 83, 13, 84, 65, 66, 76, 69, 84, 13], "trial": 0, "time_elapsed": 523052, "type": "FREE_RECALL", "trial_index": 41}, "uniqueid": "MTK2821:3FTOP5WARGVBIAMYV69AE0Z18ZZJ0O", "dateTime": 1519406800630}, {"current_trial": 42, "trialdata": {"rt": 11851, "trial_type": "text", "internal_node_id": "0.0-33.0", "time_elapsed": 536904, "key_press": 32, "type": "INSTRUCTIONS", "trial_index": 42}, "uniqueid": "MTK2821:3FTOP5WARGVBIAMYV69AE0Z18ZZJ0O", "dateTime": 1519406814480}, {"current_trial": 43, "trialdata": {"rt": [3171, 5163, 6684, 9027, 11242, 12835, 14707, 16787], "trial_type": "math-distractor", "key_times": [2506, 2843, 3171, 4690, 4899, 5163, 6266, 6434, 6684, 8469, 8708, 9027, 10755, 10995, 11242, 12451, 12624, 12835, 14332, 14499, 14707, 16330, 16570, 16787], "responses": ["17", "14", "13", "18", "14", "11", "22", "10"], "num2": [1, 6, 4, 9, 5, 9, 8, 2, 8], "num3": [8, 3, 3, 1, 5, 1, 5, 5, 2], "conditions": [18, 1200, "a", 18000], "internal_node_id": "0.0-34.0", "key_presses": [97, 103, 13, 97, 100, 13, 97, 99, 13, 97, 104, 13, 97, 100, 13, 97, 97, 13, 98, 98, 13, 97, 96, 13], "trial": 1, "time_elapsed": 556918, "type": "DISTRACTOR", "trial_index": 43, "num1": [8, 5, 6, 8, 4, 1, 9, 3, 7]}, "uniqueid": "MTK2821:3FTOP5WARGVBIAMYV69AE0Z18ZZJ0O", "dateTime": 1519406834494}, {"current_trial": 44, "trialdata": {"rt": -1, "trial_type": "single-stim", "stimulus": "<p id=\"stim\">10</p>", "internal_node_id": "0.0-35.0-0.0", "time_elapsed": 559919, "key_press": -1, "trial_index": 44}, "uniqueid": "MTK2821:3FTOP5WARGVBIAMYV69AE0Z18ZZJ0O", "dateTime": 1519406837497}, {"current_trial": 45, "trialdata": {"rt": -1, "trial_type": "single-stim", "stimulus": "<p id=\"stim\">9</p>", "internal_node_id": "0.0-35.0-1.0", "time_elapsed": 560924, "key_press": -1, "trial_index": 45}, "uniqueid": "MTK2821:3FTOP5WARGVBIAMYV69AE0Z18ZZJ0O", "dateTime": 1519406838500}, {"current_trial": 46, "trialdata": {"rt": -1, "trial_type": "single-stim", "stimulus": "<p id=\"stim\">8</p>", "internal_node_id": "0.0-35.0-2.0", "time_elapsed": 561925, "key_press": -1, "trial_index": 46}, "uniqueid": "MTK2821:3FTOP5WARGVBIAMYV69AE0Z18ZZJ0O", "dateTime": 1519406839501}, {"current_trial": 47, "trialdata": {"rt": -1, "trial_type": "single-stim", "stimulus": "<p id=\"stim\">7</p>", "internal_node_id": "0.0-35.0-3.0", "time_elapsed": 562925, "key_press": -1, "trial_index": 47}, "uniqueid": "MTK2821:3FTOP5WARGVBIAMYV69AE0Z18ZZJ0O", "dateTime": 1519406840503}, {"current_trial": 48, "trialdata": {"rt": -1, "trial_type": "single-stim", "stimulus": "<p id=\"stim\">6</p>", "internal_node_id": "0.0-35.0-4.0", "time_elapsed": 563929, "key_press": -1, "trial_index": 48}, "uniqueid": "MTK2821:3FTOP5WARGVBIAMYV69AE0Z18ZZJ0O", "dateTime": 1519406841505}, {"current_trial": 49, "trialdata": {"rt": -1, "trial_type": "single-stim", "stimulus": "<p id=\"stim\">5</p>", "internal_node_id": "0.0-35.0-5.0", "time_elapsed": 564930, "key_press": -1, "trial_index": 49}, "uniqueid": "MTK2821:3FTOP5WARGVBIAMYV69AE0Z18ZZJ0O", "dateTime": 1519406842507}, {"current_trial": 50, "trialdata": {"rt": -1, "trial_type": "single-stim", "stimulus": "<p id=\"stim\">4</p>", "internal_node_id": "0.0-35.0-6.0", "time_elapsed": 565931, "key_press": -1, "trial_index": 50}, "uniqueid": "MTK2821:3FTOP5WARGVBIAMYV69AE0Z18ZZJ0O", "dateTime": 1519406843507}, {"current_trial": 51, "trialdata": {"rt": -1, "trial_type": "single-stim", "stimulus": "<p id=\"stim\">3</p>", "internal_node_id": "0.0-35.0-7.0", "time_elapsed": 566932, "key_press": -1, "trial_index": 51}, "uniqueid": "MTK2821:3FTOP5WARGVBIAMYV69AE0Z18ZZJ0O", "dateTime": 1519406844508}, {"current_trial": 52, "trialdata": {"rt": -1, "trial_type": "single-stim", "stimulus": "<p id=\"stim\">2</p>", "internal_node_id": "0.0-35.0-8.0", "time_elapsed": 567933, "key_press": -1, "trial_index": 52}, "uniqueid": "MTK2821:3FTOP5WARGVBIAMYV69AE0Z18ZZJ0O", "dateTime": 1519406845509}, {"current_trial": 53, "trialdata": {"rt": -1, "trial_type": "single-stim", "stimulus": "<p id=\"stim\">1</p>", "internal_node_id": "0.0-35.0-9.0", "time_elapsed": 568933, "key_press": -1, "trial_index": 53}, "uniqueid": "MTK2821:3FTOP5WARGVBIAMYV69AE0Z18ZZJ0O", "dateTime": 1519406846509}, {"current_trial": 54, "trialdata": {"rt": -1, "trial_type": "single-stim", "stimulus": "<p id=\"stim\">+</p>", "internal_node_id": "0.0-36.0-0.0", "time_elapsed": 570435, "key_press": -1, "type": "FIXATION", "trial_index": 54}, "uniqueid": "MTK2821:3FTOP5WARGVBIAMYV69AE0Z18ZZJ0O", "dateTime": 1519406848012}, {"current_trial": 55, "trialdata": {"rt": -1000, "trial_type": "single-audio", "word": "couch", "stimulus": "/static/audio/wordpool/COUCH.wav", "conditions": [18, 1200, "a", 18000], "internal_node_id": "0.0-37.0", "trial": 1, "time_elapsed": 572666, "serialpos": 0, "key_press": -1, "wordID": 385, "type": "PRES_AUD", "trial_index": 55}, "uniqueid": "MTK2821:3FTOP5WARGVBIAMYV69AE0Z18ZZJ0O", "dateTime": 1519406850242}, {"current_trial": 56, "trialdata": {"rt": -1000, "trial_type": "single-audio", "word": "relish", "stimulus": "/static/audio/wordpool/RELISH.wav", "conditions": [18, 1200, "a", 18000], "internal_node_id": "0.0-38.0", "trial": 1, "time_elapsed": 574868, "serialpos": 1, "key_press": -1, "wordID": 1182, "type": "PRES_AUD", "trial_index": 56}, "uniqueid": "MTK2821:3FTOP5WARGVBIAMYV69AE0Z18ZZJ0O", "dateTime": 1519406852444}, {"current_trial": 57, "trialdata": {"rt": -1000, "trial_type": "single-audio", "word": "frame", "stimulus": "/static/audio/wordpool/FRAME.wav", "conditions": [18, 1200, "a", 18000], "internal_node_id": "0.0-39.0", "trial": 1, "time_elapsed": 577198, "serialpos": 2, "key_press": -1, "wordID": 599, "type": "PRES_AUD", "trial_index": 57}, "uniqueid": "MTK2821:3FTOP5WARGVBIAMYV69AE0Z18ZZJ0O", "dateTime": 1519406854774}, {"current_trial": 58, "trialdata": {"rt": -1000, "trial_type": "single-audio", "word": "mister", "stimulus": "/static/audio/wordpool/MISTER.wav", "conditions": [18, 1200, "a", 18000], "internal_node_id": "0.0-40.0", "trial": 1, "time_elapsed": 579265, "serialpos": 3, "key_press": -1, "wordID": 900, "type": "PRES_AUD", "trial_index": 58}, "uniqueid": "MTK2821:3FTOP5WARGVBIAMYV69AE0Z18ZZJ0O", "dateTime": 1519406856841}, {"current_trial": 59, "trialdata": {"rt": -1000, "trial_type": "single-audio", "word": "termite", "stimulus": "/static/audio/wordpool/TERMITE.wav", "conditions": [18, 1200, "a", 18000], "internal_node_id": "0.0-41.0", "trial": 1, "time_elapsed": 581274, "serialpos": 4, "key_press": -1, "wordID": 1450, "type": "PRES_AUD", "trial_index": 59}, "uniqueid": "MTK2821:3FTOP5WARGVBIAMYV69AE0Z18ZZJ0O", "dateTime": 1519406858850}, {"current_trial": 60, "trialdata": {"rt": -1000, "trial_type": "single-audio", "word": "portrait", "stimulus": "/static/audio/wordpool/PORTRAIT.wav", "conditions": [18, 1200, "a", 18000], "internal_node_id": "0.0-42.0", "trial": 1, "time_elapsed": 583617, "serialpos": 5, "key_press": -1, "wordID": 1110, "type": "PRES_AUD", "trial_index": 60}, "uniqueid": "MTK2821:3FTOP5WARGVBIAMYV69AE0Z18ZZJ0O", "dateTime": 1519406861193}, {"current_trial": 61, "trialdata": {"rt": -1000, "trial_type": "single-audio", "word": "crutch", "stimulus": "/static/audio/wordpool/CRUTCH.wav", "conditions": [18, 1200, "a", 18000], "internal_node_id": "0.0-43.0", "trial": 1, "time_elapsed": 585679, "serialpos": 6, "key_press": -1, "wordID": 416, "type": "PRES_AUD", "trial_index": 61}, "uniqueid": "MTK2821:3FTOP5WARGVBIAMYV69AE0Z18ZZJ0O", "dateTime": 1519406863255}, {"current_trial": 62, "trialdata": {"rt": -1000, "trial_type": "single-audio", "word": "crab", "stimulus": "/static/audio/wordpool/CRAB.wav", "conditions": [18, 1200, "a", 18000], "internal_node_id": "0.0-44.0", "trial": 1, "time_elapsed": 587696, "serialpos": 7, "key_press": -1, "wordID": 396, "type": "PRES_AUD", "trial_index": 62}, "uniqueid": "MTK2821:3FTOP5WARGVBIAMYV69AE0Z18ZZJ0O", "dateTime": 1519406865272}, {"current_trial": 63, "trialdata": {"rt": -1000, "trial_type": "single-audio", "word": "cocktail", "stimulus": "/static/audio/wordpool/COCKTAIL.wav", "conditions": [18, 1200, "a", 18000], "internal_node_id": "0.0-45.0", "trial": 1, "time_elapsed": 590006, "serialpos": 8, "key_press": -1, "wordID": 337, "type": "PRES_AUD", "trial_index": 63}, "uniqueid": "MTK2821:3FTOP5WARGVBIAMYV69AE0Z18ZZJ0O", "dateTime": 1519406867583}, {"current_trial": 64, "trialdata": {"rt": -1000, "trial_type": "single-audio", "word": "trench", "stimulus": "/static/audio/wordpool/TRENCH.wav", "conditions": [18, 1200, "a", 18000], "internal_node_id": "0.0-46.0", "trial": 1, "time_elapsed": 592294, "serialpos": 9, "key_press": -1, "wordID": 1502, "type": "PRES_AUD", "trial_index": 64}, "uniqueid": "MTK2821:3FTOP5WARGVBIAMYV69AE0Z18ZZJ0O", "dateTime": 1519406869870}, {"current_trial": 65, "trialdata": {"rt": -1000, "trial_type": "single-audio", "word": "candy", "stimulus": "/static/audio/wordpool/CANDY.wav", "conditions": [18, 1200, "a", 18000], "internal_node_id": "0.0-47.0", "trial": 1, "time_elapsed": 594415, "serialpos": 10, "key_press": -1, "wordID": 229, "type": "PRES_AUD", "trial_index": 65}, "uniqueid": "MTK2821:3FTOP5WARGVBIAMYV69AE0Z18ZZJ0O", "dateTime": 1519406871991}, {"current_trial": 66, "trialdata": {"rt": -1000, "trial_type": "single-audio", "word": "tribe", "stimulus": "/static/audio/wordpool/TRIBE.wav", "conditions": [18, 1200, "a", 18000], "internal_node_id": "0.0-48.0", "trial": 1, "time_elapsed": 596780, "serialpos": 11, "key_press": -1, "wordID": 1504, "type": "PRES_AUD", "trial_index": 66}, "uniqueid": "MTK2821:3FTOP5WARGVBIAMYV69AE0Z18ZZJ0O", "dateTime": 1519406874356}, {"current_trial": 67, "trialdata": {"rt": -1000, "trial_type": "single-audio", "word": "servant", "stimulus": "/static/audio/wordpool/SERVANT.wav", "conditions": [18, 1200, "a", 18000], "internal_node_id": "0.0-49.0", "trial": 1, "time_elapsed": 598900, "serialpos": 12, "key_press": -1, "wordID": 1270, "type": "PRES_AUD", "trial_index": 67}, "uniqueid": "MTK2821:3FTOP5WARGVBIAMYV69AE0Z18ZZJ0O", "dateTime": 1519406876476}, {"current_trial": 68, "trialdata": {"rt": -1000, "trial_type": "single-audio", "word": "sparrow", "stimulus": "/static/audio/wordpool/SPARROW.wav", "conditions": [18, 1200, "a", 18000], "internal_node_id": "0.0-50.0", "trial": 1, "time_elapsed": 601272, "serialpos": 13, "key_press": -1, "wordID": 1346, "type": "PRES_AUD", "trial_index": 68}, "uniqueid": "MTK2821:3FTOP5WARGVBIAMYV69AE0Z18ZZJ0O", "dateTime": 1519406878848}, {"current_trial": 69, "trialdata": {"rt": -1000, "trial_type": "single-audio", "word": "farmer", "stimulus": "/static/audio/wordpool/FARMER.wav", "conditions": [18, 1200, "a", 18000], "internal_node_id": "0.0-51.0", "trial": 1, "time_elapsed": 603326, "serialpos": 14, "key_press": -1, "wordID": 552, "type": "PRES_AUD", "trial_index": 69}, "uniqueid": "MTK2821:3FTOP5WARGVBIAMYV69AE0Z18ZZJ0O", "dateTime": 1519406880902}, {"current_trial": 70, "trialdata": {"rt": -1000, "trial_type": "single-audio", "word": "scribble", "stimulus": "/static/audio/wordpool/SCRIBBLE.wav", "conditions": [18, 1200, "a", 18000], "internal_node_id": "0.0-52.0", "trial": 1, "time_elapsed": 605683, "serialpos": 15, "key_press": -1, "wordID": 1255, "type": "PRES_AUD", "trial_index": 70}, "uniqueid": "MTK2821:3FTOP5WARGVBIAMYV69AE0Z18ZZJ0O", "dateTime": 1519406883259}, {"current_trial": 71, "trialdata": {"rt": -1000, "trial_type": "single-audio", "word": "lava", "stimulus": "/static/audio/wordpool/LAVA.wav", "conditions": [18, 1200, "a", 18000], "internal_node_id": "0.0-53.0", "trial": 1, "time_elapsed": 607759, "serialpos": 16, "key_press": -1, "wordID": 803, "type": "PRES_AUD", "trial_index": 71}, "uniqueid": "MTK2821:3FTOP5WARGVBIAMYV69AE0Z18ZZJ0O", "dateTime": 1519406885335}, {"current_trial": 72, "trialdata": {"rt": -1000, "trial_type": "single-audio", "word": "apron", "stimulus": "/static/audio/wordpool/APRON.wav", "conditions": [18, 1200, "a", 18000], "internal_node_id": "0.0-54.0", "trial": 1, "time_elapsed": 609913, "serialpos": 17, "key_press": -1, "wordID": 34, "type": "PRES_AUD", "trial_index": 72}, "uniqueid": "MTK2821:3FTOP5WARGVBIAMYV69AE0Z18ZZJ0O", "dateTime": 1519406887489}, {"current_trial": 73, "trialdata": {"rt": -1, "trial_type": "single-stim", "stimulus": "", "internal_node_id": "0.0-55.0-0.0", "time_elapsed": 611201, "key_press": -1, "type": "PRE_RECALL_DELAY", "trial_index": 73}, "uniqueid": "MTK2821:3FTOP5WARGVBIAMYV69AE0Z18ZZJ0O", "dateTime": 1519406888777}, {"current_trial": 74, "trialdata": {"rt": -1000, "trial_type": "single-audio", "stimulus": "/static/audio/400Hz.wav", "internal_node_id": "0.0-56.0", "time_elapsed": 611700, "key_press": -1, "type": "PRE_RECALL_ALERT", "trial_index": 74}, "uniqueid": "MTK2821:3FTOP5WARGVBIAMYV69AE0Z18ZZJ0O", "dateTime": 1519406889276}, {"current_trial": 75, "trialdata": {"rt": [3664, 4512, 5728, 6901, 15032, 24599], "recwords": ["apron", "lava", "farmer", "candy", "couch", "relish"], "key_times": [2825, 2928, 3055, 3216, 3424, 3664, 3897, 4007, 4080, 4274, 4512, 4759, 4976, 5056, 5240, 5423, 5520, 5728, 5935, 6121, 6223, 6351, 6535, 6901, 14217, 14313, 14393, 14548, 14691, 15032, 23640, 23714, 23872, 23951, 24112, 24225, 24599], "trial_type": "free-recall", "conditions": [18, 1200, "a", 18000], "internal_node_id": "0.0-57.0-0.0", "key_presses": [65, 80, 82, 79, 78, 13, 76, 65, 86, 65, 13, 70, 65, 82, 77, 69, 82, 13, 67, 65, 78, 68, 89, 13, 67, 79, 85, 67, 72, 13, 82, 69, 76, 73, 83, 72, 13], "trial": 1, "time_elapsed": 671704, "type": "FREE_RECALL", "trial_index": 75}, "uniqueid": "MTK2821:3FTOP5WARGVBIAMYV69AE0Z18ZZJ0O", "dateTime": 1519406949283}, {"current_trial": 76, "trialdata": {"rt": 14021, "trial_type": "text", "internal_node_id": "0.0-58.0", "time_elapsed": 687728, "key_press": 32, "type": "INSTRUCTIONS", "trial_index": 76}, "uniqueid": "MTK2821:3FTOP5WARGVBIAMYV69AE0Z18ZZJ0O", "dateTime": 1519406965304}, {"current_trial": 77, "trialdata": {"rt": [2789, 4563, 6157, 8847, 10677, 12524, 14420, 16180, 17893, 19903, 22228], "trial_type": "math-distractor", "key_times": [2260, 2404, 2789, 4013, 4245, 4563, 5765, 6157, 8365, 8581, 8847, 10173, 10357, 10677, 12116, 12284, 12524, 13901, 14140, 14420, 15685, 15861, 16180, 17388, 17621, 17893, 19365, 19533, 19903, 21318, 21525, 22228], "responses": ["23", "17", "9", "10", "11", "15", "14", "13", "14", "16", "13"], "num2": [6, 6, 4, 1, 1, 1, 9, 5, 6, 1, 5, 3], "num3": [9, 2, 1, 4, 9, 8, 1, 1, 4, 9, 6, 5], "conditions": [24, 1600, "a", 24000], "internal_node_id": "0.0-59.0", "key_presses": [98, 99, 13, 97, 103, 13, 105, 13, 97, 96, 13, 97, 97, 13, 97, 101, 13, 97, 100, 13, 97, 99, 13, 97, 100, 13, 97, 102, 13, 97, 99, 13], "trial": 2, "time_elapsed": 712731, "type": "DISTRACTOR", "trial_index": 77, "num1": [8, 9, 4, 5, 1, 6, 4, 7, 4, 6, 2, 9]}, "uniqueid": "MTK2821:3FTOP5WARGVBIAMYV69AE0Z18ZZJ0O", "dateTime": 1519406990307}, {"current_trial": 78, "trialdata": {"rt": -1, "trial_type": "single-stim", "stimulus": "<p id=\"stim\">10</p>", "internal_node_id": "0.0-60.0-0.0", "time_elapsed": 715731, "key_press": -1, "trial_index": 78}, "uniqueid": "MTK2821:3FTOP5WARGVBIAMYV69AE0Z18ZZJ0O", "dateTime": 1519406993308}, {"current_trial": 79, "trialdata": {"rt": -1, "trial_type": "single-stim", "stimulus": "<p id=\"stim\">9</p>", "internal_node_id": "0.0-60.0-1.0", "time_elapsed": 716731, "key_press": -1, "trial_index": 79}, "uniqueid": "MTK2821:3FTOP5WARGVBIAMYV69AE0Z18ZZJ0O", "dateTime": 1519406994309}, {"current_trial": 80, "trialdata": {"rt": -1, "trial_type": "single-stim", "stimulus": "<p id=\"stim\">8</p>", "internal_node_id": "0.0-60.0-2.0", "time_elapsed": 717732, "key_press": -1, "trial_index": 80}, "uniqueid": "MTK2821:3FTOP5WARGVBIAMYV69AE0Z18ZZJ0O", "dateTime": 1519406995310}, {"current_trial": 81, "trialdata": {"rt": -1, "trial_type": "single-stim", "stimulus": "<p id=\"stim\">7</p>", "internal_node_id": "0.0-60.0-3.0", "time_elapsed": 718735, "key_press": -1, "trial_index": 81}, "uniqueid": "MTK2821:3FTOP5WARGVBIAMYV69AE0Z18ZZJ0O", "dateTime": 1519406996311}, {"current_trial": 82, "trialdata": {"rt": -1, "trial_type": "single-stim", "stimulus": "<p id=\"stim\">6</p>", "internal_node_id": "0.0-60.0-4.0", "time_elapsed": 719736, "key_press": -1, "trial_index": 82}, "uniqueid": "MTK2821:3FTOP5WARGVBIAMYV69AE0Z18ZZJ0O", "dateTime": 1519406997312}, {"current_trial": 83, "trialdata": {"rt": -1, "trial_type": "single-stim", "stimulus": "<p id=\"stim\">5</p>", "internal_node_id": "0.0-60.0-5.0", "time_elapsed": 720738, "key_press": -1, "trial_index": 83}, "uniqueid": "MTK2821:3FTOP5WARGVBIAMYV69AE0Z18ZZJ0O", "dateTime": 1519406998314}, {"current_trial": 84, "trialdata": {"rt": -1, "trial_type": "single-stim", "stimulus": "<p id=\"stim\">4</p>", "internal_node_id": "0.0-60.0-6.0", "time_elapsed": 721738, "key_press": -1, "trial_index": 84}, "uniqueid": "MTK2821:3FTOP5WARGVBIAMYV69AE0Z18ZZJ0O", "dateTime": 1519406999316}, {"current_trial": 85, "trialdata": {"rt": -1, "trial_type": "single-stim", "stimulus": "<p id=\"stim\">3</p>", "internal_node_id": "0.0-60.0-7.0", "time_elapsed": 722753, "key_press": -1, "trial_index": 85}, "uniqueid": "MTK2821:3FTOP5WARGVBIAMYV69AE0Z18ZZJ0O", "dateTime": 1519407000329}, {"current_trial": 86, "trialdata": {"rt": -1, "trial_type": "single-stim", "stimulus": "<p id=\"stim\">2</p>", "internal_node_id": "0.0-60.0-8.0", "time_elapsed": 723755, "key_press": -1, "trial_index": 86}, "uniqueid": "MTK2821:3FTOP5WARGVBIAMYV69AE0Z18ZZJ0O", "dateTime": 1519407001331}, {"current_trial": 87, "trialdata": {"rt": -1, "trial_type": "single-stim", "stimulus": "<p id=\"stim\">1</p>", "internal_node_id": "0.0-60.0-9.0", "time_elapsed": 724756, "key_press": -1, "trial_index": 87}, "uniqueid": "MTK2821:3FTOP5WARGVBIAMYV69AE0Z18ZZJ0O", "dateTime": 1519407002337}, {"current_trial": 88, "trialdata": {"rt": -1, "trial_type": "single-stim", "stimulus": "<p id=\"stim\">+</p>", "internal_node_id": "0.0-61.0-0.0", "time_elapsed": 726261, "key_press": -1, "type": "FIXATION", "trial_index": 88}, "uniqueid": "MTK2821:3FTOP5WARGVBIAMYV69AE0Z18ZZJ0O", "dateTime": 1519407003837}, {"current_trial": 89, "trialdata": {"rt": -1000, "trial_type": "single-audio", "word": "world", "stimulus": "/static/audio/wordpool/WORLD.wav", "conditions": [24, 1600, "a", 24000], "internal_node_id": "0.0-62.0", "trial": 2, "time_elapsed": 728900, "serialpos": 0, "key_press": -1, "wordID": 1621, "type": "PRES_AUD", "trial_index": 89}, "uniqueid": "MTK2821:3FTOP5WARGVBIAMYV69AE0Z18ZZJ0O", "dateTime": 1519407006476}, {"current_trial": 90, "trialdata": {"rt": -1000, "trial_type": "single-audio", "word": "butcher", "stimulus": "/static/audio/wordpool/BUTCHER.wav", "conditions": [24, 1600, "a", 24000], "internal_node_id": "0.0-63.0", "trial": 2, "time_elapsed": 731500, "serialpos": 1, "key_press": -1, "wordID": 202, "type": "PRES_AUD", "trial_index": 90}, "uniqueid": "MTK2821:3FTOP5WARGVBIAMYV69AE0Z18ZZJ0O", "dateTime": 1519407009076}, {"current_trial": 91, "trialdata": {"rt": -1000, "trial_type": "single-audio", "word": "globe", "stimulus": "/static/audio/wordpool/GLOBE.wav", "conditions": [24, 1600, "a", 24000], "internal_node_id": "0.0-64.0", "trial": 2, "time_elapsed": 734013, "serialpos": 2, "key_press": -1, "wordID": 640, "type": "PRES_AUD", "trial_index": 91}, "uniqueid": "MTK2821:3FTOP5WARGVBIAMYV69AE0Z18ZZJ0O", "dateTime": 1519407011589}, {"current_trial": 92, "trialdata": {"rt": -1000, "trial_type": "single-audio", "word": "bouquet", "stimulus": "/static/audio/wordpool/BOUQUET.wav", "conditions": [24, 1600, "a", 24000], "internal_node_id": "0.0-65.0", "trial": 2, "time_elapsed": 736787, "serialpos": 3, "key_press": -1, "wordID": 156, "type": "PRES_AUD", "trial_index": 92}, "uniqueid": "MTK2821:3FTOP5WARGVBIAMYV69AE0Z18ZZJ0O", "dateTime": 1519407014363}, {"current_trial": 93, "trialdata": {"rt": -1000, "trial_type": "single-audio", "word": "fungus", "stimulus": "/static/audio/wordpool/FUNGUS.wav", "conditions": [24, 1600, "a", 24000], "internal_node_id": "0.0-66.0", "trial": 2, "time_elapsed": 739240, "serialpos": 4, "key_press": -1, "wordID": 613, "type": "PRES_AUD", "trial_index": 93}, "uniqueid": "MTK2821:3FTOP5WARGVBIAMYV69AE0Z18ZZJ0O", "dateTime": 1519407016816}, {"current_trial": 94, "trialdata": {"rt": -1000, "trial_type": "single-audio", "word": "mildew", "stimulus": "/static/audio/wordpool/MILDEW.wav", "conditions": [24, 1600, "a", 24000], "internal_node_id": "0.0-67.0", "trial": 2, "time_elapsed": 741979, "serialpos": 5, "key_press": -1, "wordID": 892, "type": "PRES_AUD", "trial_index": 94}, "uniqueid": "MTK2821:3FTOP5WARGVBIAMYV69AE0Z18ZZJ0O", "dateTime": 1519407019555}, {"current_trial": 95, "trialdata": {"rt": -1000, "trial_type": "single-audio", "word": "crib", "stimulus": "/static/audio/wordpool/CRIB.wav", "conditions": [24, 1600, "a", 24000], "internal_node_id": "0.0-68.0", "trial": 2, "time_elapsed": 744660, "serialpos": 6, "key_press": -1, "wordID": 406, "type": "PRES_AUD", "trial_index": 95}, "uniqueid": "MTK2821:3FTOP5WARGVBIAMYV69AE0Z18ZZJ0O", "dateTime": 1519407022236}, {"current_trial": 96, "trialdata": {"rt": -1000, "trial_type": "single-audio", "word": "wasp", "stimulus": "/static/audio/wordpool/WASP.wav", "conditions": [24, 1600, "a", 24000], "internal_node_id": "0.0-69.0", "trial": 2, "time_elapsed": 747262, "serialpos": 7, "key_press": -1, "wordID": 1592, "type": "PRES_AUD", "trial_index": 96}, "uniqueid": "MTK2821:3FTOP5WARGVBIAMYV69AE0Z18ZZJ0O", "dateTime": 1519407024838}, {"current_trial": 97, "trialdata": {"rt": -1000, "trial_type": "single-audio", "word": "island", "stimulus": "/static/audio/wordpool/ISLAND.wav", "conditions": [24, 1600, "a", 24000], "internal_node_id": "0.0-70.0", "trial": 2, "time_elapsed": 749773, "serialpos": 8, "key_press": -1, "wordID": 744, "type": "PRES_AUD", "trial_index": 97}, "uniqueid": "MTK2821:3FTOP5WARGVBIAMYV69AE0Z18ZZJ0O", "dateTime": 1519407027349}, {"current_trial": 98, "trialdata": {"rt": -1000, "trial_type": "single-audio", "word": "maple", "stimulus": "/static/audio/wordpool/MAPLE.wav", "conditions": [24, 1600, "a", 24000], "internal_node_id": "0.0-71.0", "trial": 2, "time_elapsed": 752318, "serialpos": 9, "key_press": -1, "wordID": 865, "type": "PRES_AUD", "trial_index": 98}, "uniqueid": "MTK2821:3FTOP5WARGVBIAMYV69AE0Z18ZZJ0O", "dateTime": 1519407029894}, {"current_trial": 99, "trialdata": {"rt": -1000, "trial_type": "single-audio", "word": "market", "stimulus": "/static/audio/wordpool/MARKET.wav", "conditions": [24, 1600, "a", 24000], "internal_node_id": "0.0-72.0", "trial": 2, "time_elapsed": 754887, "serialpos": 10, "key_press": -1, "wordID": 870, "type": "PRES_AUD", "trial_index": 99}, "uniqueid": "MTK2821:3FTOP5WARGVBIAMYV69AE0Z18ZZJ0O", "dateTime": 1519407032463}, {"current_trial": 100, "trialdata": {"rt": -1000, "trial_type": "single-audio", "word": "baby", "stimulus": "/static/audio/wordpool/BABY.wav", "conditions": [24, 1600, "a", 24000], "internal_node_id": "0.0-73.0", "trial": 2, "time_elapsed": 757295, "serialpos": 11, "key_press": -1, "wordID": 63, "type": "PRES_AUD", "trial_index": 100}, "uniqueid": "MTK2821:3FTOP5WARGVBIAMYV69AE0Z18ZZJ0O", "dateTime": 1519407034871}, {"current_trial": 101, "trialdata": {"rt": -1000, "trial_type": "single-audio", "word": "sculpture", "stimulus": "/static/audio/wordpool/SCULPTURE.wav", "conditions": [24, 1600, "a", 24000], "internal_node_id": "0.0-74.0", "trial": 2, "time_elapsed": 760017, "serialpos": 12, "key_press": -1, "wordID": 1257, "type": "PRES_AUD", "trial_index": 101}, "uniqueid": "MTK2821:3FTOP5WARGVBIAMYV69AE0Z18ZZJ0O", "dateTime": 1519407037593}, {"current_trial": 102, "trialdata": {"rt": -1000, "trial_type": "single-audio", "word": "lake", "stimulus": "/static/audio/wordpool/LAKE.wav", "conditions": [24, 1600, "a", 24000], "internal_node_id": "0.0-75.0", "trial": 2, "time_elapsed": 762789, "serialpos": 13, "key_press": -1, "wordID": 795, "type": "PRES_AUD", "trial_index": 102}, "uniqueid": "MTK2821:3FTOP5WARGVBIAMYV69AE0Z18ZZJ0O", "dateTime": 1519407040365}, {"current_trial": 103, "trialdata": {"rt": -1000, "trial_type": "single-audio", "word": "nurse", "stimulus": "/static/audio/wordpool/NURSE.wav", "conditions": [24, 1600, "a", 24000], "internal_node_id": "0.0-76.0", "trial": 2, "time_elapsed": 765327, "serialpos": 14, "key_press": -1, "wordID": 962, "type": "PRES_AUD", "trial_index": 103}, "uniqueid": "MTK2821:3FTOP5WARGVBIAMYV69AE0Z18ZZJ0O", "dateTime": 1519407042903}, {"current_trial": 104, "trialdata": {"rt": -1000, "trial_type": "single-audio", "word": "patient", "stimulus": "/static/audio/wordpool/PATIENT.wav", "conditions": [24, 1600, "a", 24000], "internal_node_id": "0.0-77.0", "trial": 2, "time_elapsed": 768019, "serialpos": 15, "key_press": -1, "wordID": 1023, "type": "PRES_AUD", "trial_index": 104}, "uniqueid": "MTK2821:3FTOP5WARGVBIAMYV69AE0Z18ZZJ0O", "dateTime": 1519407045595}, {"current_trial": 105, "trialdata": {"rt": -1000, "trial_type": "single-audio", "word": "playground", "stimulus": "/static/audio/wordpool/PLAYGROUND.wav", "conditions": [24, 1600, "a", 24000], "internal_node_id": "0.0-78.0", "trial": 2, "time_elapsed": 770498, "serialpos": 16, "key_press": -1, "wordID": 1086, "type": "PRES_AUD", "trial_index": 105}, "uniqueid": "MTK2821:3FTOP5WARGVBIAMYV69AE0Z18ZZJ0O", "dateTime": 1519407048074}, {"current_trial": 106, "trialdata": {"rt": -1000, "trial_type": "single-audio", "word": "glove", "stimulus": "/static/audio/wordpool/GLOVE.wav", "conditions": [24, 1600, "a", 24000], "internal_node_id": "0.0-79.0", "trial": 2, "time_elapsed": 772986, "serialpos": 17, "key_press": -1, "wordID": 641, "type": "PRES_AUD", "trial_index": 106}, "uniqueid": "MTK2821:3FTOP5WARGVBIAMYV69AE0Z18ZZJ0O", "dateTime": 1519407050562}, {"current_trial": 107, "trialdata": {"rt": -1000, "trial_type": "single-audio", "word": "flag", "stimulus": "/static/audio/wordpool/FLAG.wav", "conditions": [24, 1600, "a", 24000], "internal_node_id": "0.0-80.0", "trial": 2, "time_elapsed": 775462, "serialpos": 18, "key_press": -1, "wordID": 572, "type": "PRES_AUD", "trial_index": 107}, "uniqueid": "MTK2821:3FTOP5WARGVBIAMYV69AE0Z18ZZJ0O", "dateTime": 1519407053038}, {"current_trial": 108, "trialdata": {"rt": -1000, "trial_type": "single-audio", "word": "server", "stimulus": "/static/audio/wordpool/SERVER.wav", "conditions": [24, 1600, "a", 24000], "internal_node_id": "0.0-81.0", "trial": 2, "time_elapsed": 777983, "serialpos": 19, "key_press": -1, "wordID": 1271, "type": "PRES_AUD", "trial_index": 108}, "uniqueid": "MTK2821:3FTOP5WARGVBIAMYV69AE0Z18ZZJ0O", "dateTime": 1519407055559}, {"current_trial": 109, "trialdata": {"rt": -1000, "trial_type": "single-audio", "word": "necklace", "stimulus": "/static/audio/wordpool/NECKLACE.wav", "conditions": [24, 1600, "a", 24000], "internal_node_id": "0.0-82.0", "trial": 2, "time_elapsed": 780733, "serialpos": 20, "key_press": -1, "wordID": 939, "type": "PRES_AUD", "trial_index": 109}, "uniqueid": "MTK2821:3FTOP5WARGVBIAMYV69AE0Z18ZZJ0O", "dateTime": 1519407058309}, {"current_trial": 110, "trialdata": {"rt": -1000, "trial_type": "single-audio", "word": "soda", "stimulus": "/static/audio/wordpool/SODA.wav", "conditions": [24, 1600, "a", 24000], "internal_node_id": "0.0-83.0", "trial": 2, "time_elapsed": 783357, "serialpos": 21, "key_press": -1, "wordID": 1340, "type": "PRES_AUD", "trial_index": 110}, "uniqueid": "MTK2821:3FTOP5WARGVBIAMYV69AE0Z18ZZJ0O", "dateTime": 1519407060933}, {"current_trial": 111, "trialdata": {"rt": -1000, "trial_type": "single-audio", "word": "scarf", "stimulus": "/static/audio/wordpool/SCARF.wav", "conditions": [24, 1600, "a", 24000], "internal_node_id": "0.0-84.0", "trial": 2, "time_elapsed": 785787, "serialpos": 22, "key_press": -1, "wordID": 1245, "type": "PRES_AUD", "trial_index": 111}, "uniqueid": "MTK2821:3FTOP5WARGVBIAMYV69AE0Z18ZZJ0O", "dateTime": 1519407063363}, {"current_trial": 112, "trialdata": {"rt": -1000, "trial_type": "single-audio", "word": "handbag", "stimulus": "/static/audio/wordpool/HANDBAG.wav", "conditions": [24, 1600, "a", 24000], "internal_node_id": "0.0-85.0", "trial": 2, "time_elapsed": 788309, "serialpos": 23, "key_press": -1, "wordID": 683, "type": "PRES_AUD", "trial_index": 112}, "uniqueid": "MTK2821:3FTOP5WARGVBIAMYV69AE0Z18ZZJ0O", "dateTime": 1519407065885}, {"current_trial": 113, "trialdata": {"rt": -1, "trial_type": "single-stim", "stimulus": "", "internal_node_id": "0.0-86.0-0.0", "time_elapsed": 789648, "key_press": -1, "type": "PRE_RECALL_DELAY", "trial_index": 113}, "uniqueid": "MTK2821:3FTOP5WARGVBIAMYV69AE0Z18ZZJ0O", "dateTime": 1519407067224}, {"current_trial": 114, "trialdata": {"rt": -1000, "trial_type": "single-audio", "stimulus": "/static/audio/400Hz.wav", "internal_node_id": "0.0-87.0", "time_elapsed": 790150, "key_press": -1, "type": "PRE_RECALL_ALERT", "trial_index": 114}, "uniqueid": "MTK2821:3FTOP5WARGVBIAMYV69AE0Z18ZZJ0O", "dateTime": 1519407067726}, {"current_trial": 115, "trialdata": {"rt": [5060, 6441, 7929, 9313, 16665, 18137, 27513, 48888, 50007, 55919], "recwords": ["world", "globe", "crib", "fungus", "baby", "wasp", "soda", "mildew", "purse", "globe"], "key_times": [3776, 3857, 3953, 4113, 4249, 5060, 5568, 5632, 5800, 6041, 6161, 6441, 6976, 7209, 7323, 7561, 7929, 8345, 8469, 8675, 8785, 8921, 9073, 9313, 15682, 15833, 15961, 16248, 16665, 17345, 17545, 17601, 17744, 18137, 25801, 25963, 26100, 26353, 27513, 47505, 47744, 47937, 48072, 48288, 48625, 48888, 49425, 49520, 49616, 49793, 49848, 50007, 55080, 55167, 55336, 55561, 55682, 55919], "trial_type": "free-recall", "conditions": [24, 1600, "a", 24000], "internal_node_id": "0.0-88.0-0.0", "key_presses": [87, 79, 82, 76, 68, 13, 71, 76, 79, 66, 69, 13, 67, 82, 73, 66, 13, 70, 85, 78, 71, 85, 83, 13, 66, 65, 66, 89, 13, 87, 65, 83, 80, 13, 83, 79, 68, 65, 13, 77, 73, 76, 68, 69, 87, 13, 80, 85, 82, 83, 69, 13, 71, 76, 79, 66, 69, 13], "trial": 2, "time_elapsed": 850151, "type": "FREE_RECALL", "trial_index": 115}, "uniqueid": "MTK2821:3FTOP5WARGVBIAMYV69AE0Z18ZZJ0O", "dateTime": 1519407127731}, {"current_trial": 116, "trialdata": {"rt": 2843, "trial_type": "text", "internal_node_id": "0.0-89.0", "time_elapsed": 854999, "key_press": 32, "type": "INSTRUCTIONS", "trial_index": 116}, "uniqueid": "MTK2821:3FTOP5WARGVBIAMYV69AE0Z18ZZJ0O", "dateTime": 1519407132575}, {"current_trial": 117, "trialdata": {"rt": [2205, 4413, 6158, 8005, 9477, 11508], "trial_type": "math-distractor", "key_times": [1765, 1910, 2205, 3780, 4053, 4413, 5645, 5868, 6158, 7573, 7708, 8005, 9165, 9477, 10892, 11093, 11508], "responses": ["15", "17", "14", "12", "8", "21"], "num2": [2, 8, 1, 3, 2, 8, 7], "num3": [7, 3, 6, 4, 4, 5, 5], "conditions": [12, 800, "a", 12000], "internal_node_id": "0.0-90.0", "key_presses": [97, 101, 13, 97, 103, 13, 97, 100, 13, 97, 98, 13, 104, 13, 98, 97, 13], "trial": 3, "time_elapsed": 869001, "type": "DISTRACTOR", "trial_index": 117, "num1": [6, 6, 7, 5, 2, 8, 7]}, "uniqueid": "MTK2821:3FTOP5WARGVBIAMYV69AE0Z18ZZJ0O", "dateTime": 1519407146577}, {"current_trial": 118, "trialdata": {"rt": -1, "trial_type": "single-stim", "stimulus": "<p id=\"stim\">10</p>", "internal_node_id": "0.0-91.0-0.0", "time_elapsed": 872002, "key_press": -1, "trial_index": 118}, "uniqueid": "MTK2821:3FTOP5WARGVBIAMYV69AE0Z18ZZJ0O", "dateTime": 1519407149578}, {"current_trial": 119, "trialdata": {"rt": -1, "trial_type": "single-stim", "stimulus": "<p id=\"stim\">9</p>", "internal_node_id": "0.0-91.0-1.0", "time_elapsed": 873003, "key_press": -1, "trial_index": 119}, "uniqueid": "MTK2821:3FTOP5WARGVBIAMYV69AE0Z18ZZJ0O", "dateTime": 1519407150579}, {"current_trial": 120, "trialdata": {"rt": -1, "trial_type": "single-stim", "stimulus": "<p id=\"stim\">8</p>", "internal_node_id": "0.0-91.0-2.0", "time_elapsed": 874004, "key_press": -1, "trial_index": 120}, "uniqueid": "MTK2821:3FTOP5WARGVBIAMYV69AE0Z18ZZJ0O", "dateTime": 1519407151580}, {"current_trial": 121, "trialdata": {"rt": -1, "trial_type": "single-stim", "stimulus": "<p id=\"stim\">7</p>", "internal_node_id": "0.0-91.0-3.0", "time_elapsed": 875005, "key_press": -1, "trial_index": 121}, "uniqueid": "MTK2821:3FTOP5WARGVBIAMYV69AE0Z18ZZJ0O", "dateTime": 1519407152581}, {"current_trial": 122, "trialdata": {"rt": -1, "trial_type": "single-stim", "stimulus": "<p id=\"stim\">6</p>", "internal_node_id": "0.0-91.0-4.0", "time_elapsed": 876005, "key_press": -1, "trial_index": 122}, "uniqueid": "MTK2821:3FTOP5WARGVBIAMYV69AE0Z18ZZJ0O", "dateTime": 1519407153581}, {"current_trial": 123, "trialdata": {"rt": -1, "trial_type": "single-stim", "stimulus": "<p id=\"stim\">5</p>", "internal_node_id": "0.0-91.0-5.0", "time_elapsed": 877006, "key_press": -1, "trial_index": 123}, "uniqueid": "MTK2821:3FTOP5WARGVBIAMYV69AE0Z18ZZJ0O", "dateTime": 1519407154582}, {"current_trial": 124, "trialdata": {"rt": -1, "trial_type": "single-stim", "stimulus": "<p id=\"stim\">4</p>", "internal_node_id": "0.0-91.0-6.0", "time_elapsed": 878008, "key_press": -1, "trial_index": 124}, "uniqueid": "MTK2821:3FTOP5WARGVBIAMYV69AE0Z18ZZJ0O", "dateTime": 1519407155584}, {"current_trial": 125, "trialdata": {"rt": -1, "trial_type": "single-stim", "stimulus": "<p id=\"stim\">3</p>", "internal_node_id": "0.0-91.0-7.0", "time_elapsed": 879011, "key_press": -1, "trial_index": 125}, "uniqueid": "MTK2821:3FTOP5WARGVBIAMYV69AE0Z18ZZJ0O", "dateTime": 1519407156587}, {"current_trial": 126, "trialdata": {"rt": -1, "trial_type": "single-stim", "stimulus": "<p id=\"stim\">2</p>", "internal_node_id": "0.0-91.0-8.0", "time_elapsed": 880011, "key_press": -1, "trial_index": 126}, "uniqueid": "MTK2821:3FTOP5WARGVBIAMYV69AE0Z18ZZJ0O", "dateTime": 1519407157587}, {"current_trial": 127, "trialdata": {"rt": -1, "trial_type": "single-stim", "stimulus": "<p id=\"stim\">1</p>", "internal_node_id": "0.0-91.0-9.0", "time_elapsed": 881013, "key_press": -1, "trial_index": 127}, "uniqueid": "MTK2821:3FTOP5WARGVBIAMYV69AE0Z18ZZJ0O", "dateTime": 1519407158591}, {"current_trial": 128, "trialdata": {"rt": -1, "trial_type": "single-stim", "stimulus": "<p id=\"stim\">+</p>", "internal_node_id": "0.0-92.0-0.0", "time_elapsed": 882515, "key_press": -1, "type": "FIXATION", "trial_index": 128}, "uniqueid": "MTK2821:3FTOP5WARGVBIAMYV69AE0Z18ZZJ0O", "dateTime": 1519407160091}, {"current_trial": 129, "trialdata": {"rt": -1000, "trial_type": "single-audio", "word": "message", "stimulus": "/static/audio/wordpool/MESSAGE.wav", "conditions": [12, 800, "a", 12000], "internal_node_id": "0.0-93.0", "trial": 3, "time_elapsed": 884451, "serialpos": 0, "key_press": -1, "wordID": 887, "type": "PRES_AUD", "trial_index": 129}, "uniqueid": "MTK2821:3FTOP5WARGVBIAMYV69AE0Z18ZZJ0O", "dateTime": 1519407162027}, {"current_trial": 130, "trialdata": {"rt": -1000, "trial_type": "single-audio", "word": "concert", "stimulus": "/static/audio/wordpool/CONCERT.wav", "conditions": [12, 800, "a", 12000], "internal_node_id": "0.0-94.0", "trial": 3, "time_elapsed": 886290, "serialpos": 1, "key_press": -1, "wordID": 359, "type": "PRES_AUD", "trial_index": 130}, "uniqueid": "MTK2821:3FTOP5WARGVBIAMYV69AE0Z18ZZJ0O", "dateTime": 1519407163866}, {"current_trial": 131, "trialdata": {"rt": -1000, "trial_type": "single-audio", "word": "juggler", "stimulus": "/static/audio/wordpool/JUGGLER.wav", "conditions": [12, 800, "a", 12000], "internal_node_id": "0.0-95.0", "trial": 3, "time_elapsed": 888203, "serialpos": 2, "key_press": -1, "wordID": 762, "type": "PRES_AUD", "trial_index": 131}, "uniqueid": "MTK2821:3FTOP5WARGVBIAMYV69AE0Z18ZZJ0O", "dateTime": 1519407165779}, {"current_trial": 132, "trialdata": {"rt": -1000, "trial_type": "single-audio", "word": "lettuce", "stimulus": "/static/audio/wordpool/LETTUCE.wav", "conditions": [12, 800, "a", 12000], "internal_node_id": "0.0-96.0", "trial": 3, "time_elapsed": 890118, "serialpos": 3, "key_press": -1, "wordID": 813, "type": "PRES_AUD", "trial_index": 132}, "uniqueid": "MTK2821:3FTOP5WARGVBIAMYV69AE0Z18ZZJ0O", "dateTime": 1519407167694}, {"current_trial": 133, "trialdata": {"rt": -1000, "trial_type": "single-audio", "word": "cabbage", "stimulus": "/static/audio/wordpool/CABBAGE.wav", "conditions": [12, 800, "a", 12000], "internal_node_id": "0.0-97.0", "trial": 3, "time_elapsed": 891756, "serialpos": 4, "key_press": -1, "wordID": 209, "type": "PRES_AUD", "trial_index": 133}, "uniqueid": "MTK2821:3FTOP5WARGVBIAMYV69AE0Z18ZZJ0O", "dateTime": 1519407169332}, {"current_trial": 134, "trialdata": {"rt": -1000, "trial_type": "single-audio", "word": "rug", "stimulus": "/static/audio/wordpool/RUG.wav", "conditions": [12, 800, "a", 12000], "internal_node_id": "0.0-98.0", "trial": 3, "time_elapsed": 893433, "serialpos": 5, "key_press": -1, "wordID": 1214, "type": "PRES_AUD", "trial_index": 134}, "uniqueid": "MTK2821:3FTOP5WARGVBIAMYV69AE0Z18ZZJ0O", "dateTime": 1519407171009}, {"current_trial": 135, "trialdata": {"rt": -1000, "trial_type": "single-audio", "word": "stove", "stimulus": "/static/audio/wordpool/STOVE.wav", "conditions": [12, 800, "a", 12000], "internal_node_id": "0.0-99.0", "trial": 3, "time_elapsed": 895374, "serialpos": 6, "key_press": -1, "wordID": 1387, "type": "PRES_AUD", "trial_index": 135}, "uniqueid": "MTK2821:3FTOP5WARGVBIAMYV69AE0Z18ZZJ0O", "dateTime": 1519407172950}, {"current_trial": 136, "trialdata": {"rt": -1000, "trial_type": "single-audio", "word": "pigment", "stimulus": "/static/audio/wordpool/PIGMENT.wav", "conditions": [12, 800, "a", 12000], "internal_node_id": "0.0-100.0", "trial": 3, "time_elapsed": 897208, "serialpos": 7, "key_press": -1, "wordID": 1065, "type": "PRES_AUD", "trial_index": 136}, "uniqueid": "MTK2821:3FTOP5WARGVBIAMYV69AE0Z18ZZJ0O", "dateTime": 1519407174784}, {"current_trial": 137, "trialdata": {"rt": -1000, "trial_type": "single-audio", "word": "table", "stimulus": "/static/audio/wordpool/TABLE.wav", "conditions": [12, 800, "a", 12000], "internal_node_id": "0.0-101.0", "trial": 3, "time_elapsed": 898896, "serialpos": 8, "key_press": -1, "wordID": 1425, "type": "PRES_AUD", "trial_index": 137}, "uniqueid": "MTK2821:3FTOP5WARGVBIAMYV69AE0Z18ZZJ0O", "dateTime": 1519407176472}, {"current_trial": 138, "trialdata": {"rt": -1000, "trial_type": "single-audio", "word": "toaster", "stimulus": "/static/audio/wordpool/TOASTER.wav", "conditions": [12, 800, "a", 12000], "internal_node_id": "0.0-102.0", "trial": 3, "time_elapsed": 900528, "serialpos": 9, "key_press": -1, "wordID": 1471, "type": "PRES_AUD", "trial_index": 138}, "uniqueid": "MTK2821:3FTOP5WARGVBIAMYV69AE0Z18ZZJ0O", "dateTime": 1519407178104}, {"current_trial": 139, "trialdata": {"rt": -1000, "trial_type": "single-audio", "word": "peach", "stimulus": "/static/audio/wordpool/PEACH.wav", "conditions": [12, 800, "a", 12000], "internal_node_id": "0.0-103.0", "trial": 3, "time_elapsed": 902487, "serialpos": 10, "key_press": -1, "wordID": 1030, "type": "PRES_AUD", "trial_index": 139}, "uniqueid": "MTK2821:3FTOP5WARGVBIAMYV69AE0Z18ZZJ0O", "dateTime": 1519407180063}, {"current_trial": 140, "trialdata": {"rt": -1000, "trial_type": "single-audio", "word": "iceberg", "stimulus": "/static/audio/wordpool/ICEBERG.wav", "conditions": [12, 800, "a", 12000], "internal_node_id": "0.0-104.0", "trial": 3, "time_elapsed": 904173, "serialpos": 11, "key_press": -1, "wordID": 730, "type": "PRES_AUD", "trial_index": 140}, "uniqueid": "MTK2821:3FTOP5WARGVBIAMYV69AE0Z18ZZJ0O", "dateTime": 1519407181749}, {"current_trial": 141, "trialdata": {"rt": -1, "trial_type": "single-stim", "stimulus": "", "internal_node_id": "0.0-105.0-0.0", "time_elapsed": 905498, "key_press": -1, "type": "PRE_RECALL_DELAY", "trial_index": 141}, "uniqueid": "MTK2821:3FTOP5WARGVBIAMYV69AE0Z18ZZJ0O", "dateTime": 1519407183074}, {"current_trial": 142, "trialdata": {"rt": -1000, "trial_type": "single-audio", "stimulus": "/static/audio/400Hz.wav", "internal_node_id": "0.0-106.0", "time_elapsed": 906000, "key_press": -1, "type": "PRE_RECALL_ALERT", "trial_index": 142}, "uniqueid": "MTK2821:3FTOP5WARGVBIAMYV69AE0Z18ZZJ0O", "dateTime": 1519407183576}, {"current_trial": 143, "trialdata": {"rt": [5165, 6908, 9973, 11499, 12391, 18957, 22733], "recwords": ["iceberg", "peach", "cabbage", "lettuce", "table", "juggler", "message"], "key_times": [2330, 2453, 2668, 2917, 3053, 3133, 3645, 5165, 5580, 6061, 6357, 6431, 6604, 6908, 8733, 8932, 9076, 9221, 9404, 9573, 9781, 9973, 10405, 10493, 10711, 10877, 11068, 11189, 11373, 11499, 11717, 11892, 11973, 12124, 12228, 12391, 12669, 12893, 13525, 13701, 13869, 13997, 14093, 18957, 21541, 21669, 21893, 22044, 22285, 22348, 22557, 22733], "trial_type": "free-recall", "conditions": [12, 800, "a", 12000], "internal_node_id": "0.0-107.0-0.0", "key_presses": [73, 67, 69, 66, 69, 82, 71, 13, 80, 69, 65, 67, 72, 13, 67, 65, 66, 66, 65, 71, 69, 13, 76, 69, 84, 84, 85, 67, 69, 13, 84, 65, 66, 76, 69, 13, 74, 85, 71, 71, 76, 69, 82, 13, 77, 69, 83, 83, 65, 71, 69, 13], "trial": 3, "time_elapsed": 966003, "type": "FREE_RECALL", "trial_index": 143}, "uniqueid": "MTK2821:3FTOP5WARGVBIAMYV69AE0Z18ZZJ0O", "dateTime": 1519407243580}, {"current_trial": 144, "trialdata": {"rt": 4921, "trial_type": "text", "internal_node_id": "0.0-108.0", "time_elapsed": 972928, "key_press": 32, "type": "INSTRUCTIONS", "trial_index": 144}, "uniqueid": "MTK2821:3FTOP5WARGVBIAMYV69AE0Z18ZZJ0O", "dateTime": 1519407250504}, {"current_trial": 145, "trialdata": {"rt": [3773, 6301, 8309, 10830, 13109, 15670, 17781, 19669, 21830, 23798], "trial_type": "math-distractor", "key_times": [2774, 3062, 3773, 5693, 5924, 6301, 7846, 8070, 8309, 10534, 10830, 12413, 12645, 13109, 15133, 15358, 15670, 17446, 17781, 19150, 19309, 19669, 21342, 21518, 21830, 23310, 23502, 23798], "responses": ["17", "19", "10", "8", "14", "19", "8", "13", "13", "12"], "num2": [8, 7, 3, 2, 7, 4, 2, 7, 8, 5, 1], "num3": [4, 6, 5, 3, 3, 9, 4, 1, 3, 4, 6], "conditions": [24, 1600, "a", 24000], "internal_node_id": "0.0-109.0", "key_presses": [97, 103, 13, 97, 105, 13, 97, 96, 13, 104, 13, 97, 100, 13, 97, 105, 13, 104, 13, 97, 99, 13, 97, 99, 13, 97, 98, 13], "trial": 4, "time_elapsed": 998932, "type": "DISTRACTOR", "trial_index": 145, "num1": [5, 6, 2, 3, 4, 6, 2, 5, 2, 3, 5]}, "uniqueid": "MTK2821:3FTOP5WARGVBIAMYV69AE0Z18ZZJ0O", "dateTime": 1519407276508}, {"current_trial": 146, "trialdata": {"rt": -1, "trial_type": "single-stim", "stimulus": "<p id=\"stim\">10</p>", "internal_node_id": "0.0-110.0-0.0", "time_elapsed": 1001932, "key_press": -1, "trial_index": 146}, "uniqueid": "MTK2821:3FTOP5WARGVBIAMYV69AE0Z18ZZJ0O", "dateTime": 1519407279508}, {"current_trial": 147, "trialdata": {"rt": -1, "trial_type": "single-stim", "stimulus": "<p id=\"stim\">9</p>", "internal_node_id": "0.0-110.0-1.0", "time_elapsed": 1002933, "key_press": -1, "trial_index": 147}, "uniqueid": "MTK2821:3FTOP5WARGVBIAMYV69AE0Z18ZZJ0O", "dateTime": 1519407280509}, {"current_trial": 148, "trialdata": {"rt": -1, "trial_type": "single-stim", "stimulus": "<p id=\"stim\">8</p>", "internal_node_id": "0.0-110.0-2.0", "time_elapsed": 1003934, "key_press": -1, "trial_index": 148}, "uniqueid": "MTK2821:3FTOP5WARGVBIAMYV69AE0Z18ZZJ0O", "dateTime": 1519407281511}, {"current_trial": 149, "trialdata": {"rt": -1, "trial_type": "single-stim", "stimulus": "<p id=\"stim\">7</p>", "internal_node_id": "0.0-110.0-3.0", "time_elapsed": 1004937, "key_press": -1, "trial_index": 149}, "uniqueid": "MTK2821:3FTOP5WARGVBIAMYV69AE0Z18ZZJ0O", "dateTime": 1519407282513}, {"current_trial": 150, "trialdata": {"rt": -1, "trial_type": "single-stim", "stimulus": "<p id=\"stim\">6</p>", "internal_node_id": "0.0-110.0-4.0", "time_elapsed": 1005938, "key_press": -1, "trial_index": 150}, "uniqueid": "MTK2821:3FTOP5WARGVBIAMYV69AE0Z18ZZJ0O", "dateTime": 1519407283515}, {"current_trial": 151, "trialdata": {"rt": -1, "trial_type": "single-stim", "stimulus": "<p id=\"stim\">5</p>", "internal_node_id": "0.0-110.0-5.0", "time_elapsed": 1006940, "key_press": -1, "trial_index": 151}, "uniqueid": "MTK2821:3FTOP5WARGVBIAMYV69AE0Z18ZZJ0O", "dateTime": 1519407284516}, {"current_trial": 152, "trialdata": {"rt": -1, "trial_type": "single-stim", "stimulus": "<p id=\"stim\">4</p>", "internal_node_id": "0.0-110.0-6.0", "time_elapsed": 1007941, "key_press": -1, "trial_index": 152}, "uniqueid": "MTK2821:3FTOP5WARGVBIAMYV69AE0Z18ZZJ0O", "dateTime": 1519407285517}, {"current_trial": 153, "trialdata": {"rt": -1, "trial_type": "single-stim", "stimulus": "<p id=\"stim\">3</p>", "internal_node_id": "0.0-110.0-7.0", "time_elapsed": 1008943, "key_press": -1, "trial_index": 153}, "uniqueid": "MTK2821:3FTOP5WARGVBIAMYV69AE0Z18ZZJ0O", "dateTime": 1519407286519}, {"current_trial": 154, "trialdata": {"rt": -1, "trial_type": "single-stim", "stimulus": "<p id=\"stim\">2</p>", "internal_node_id": "0.0-110.0-8.0", "time_elapsed": 1009944, "key_press": -1, "trial_index": 154}, "uniqueid": "MTK2821:3FTOP5WARGVBIAMYV69AE0Z18ZZJ0O", "dateTime": 1519407287520}, {"current_trial": 155, "trialdata": {"rt": -1, "trial_type": "single-stim", "stimulus": "<p id=\"stim\">1</p>", "internal_node_id": "0.0-110.0-9.0", "time_elapsed": 1010945, "key_press": -1, "trial_index": 155}, "uniqueid": "MTK2821:3FTOP5WARGVBIAMYV69AE0Z18ZZJ0O", "dateTime": 1519407288521}, {"current_trial": 156, "trialdata": {"rt": -1, "trial_type": "single-stim", "stimulus": "<p id=\"stim\">+</p>", "internal_node_id": "0.0-111.0-0.0", "time_elapsed": 1012446, "key_press": -1, "type": "FIXATION", "trial_index": 156}, "uniqueid": "MTK2821:3FTOP5WARGVBIAMYV69AE0Z18ZZJ0O", "dateTime": 1519407290022}, {"current_trial": 157, "trialdata": {"rt": -1000, "trial_type": "single-audio", "word": "fiddle", "stimulus": "/static/audio/wordpool/FIDDLE.wav", "conditions": [24, 1600, "a", 24000], "internal_node_id": "0.0-112.0", "trial": 4, "time_elapsed": 1015026, "serialpos": 0, "key_press": -1, "wordID": 560, "type": "PRES_AUD", "trial_index": 157}, "uniqueid": "MTK2821:3FTOP5WARGVBIAMYV69AE0Z18ZZJ0O", "dateTime": 1519407292602}, {"current_trial": 158, "trialdata": {"rt": -1000, "trial_type": "single-audio", "word": "dress", "stimulus": "/static/audio/wordpool/DRESS.wav", "conditions": [24, 1600, "a", 24000], "internal_node_id": "0.0-113.0", "trial": 4, "time_elapsed": 1017471, "serialpos": 1, "key_press": -1, "wordID": 494, "type": "PRES_AUD", "trial_index": 158}, "uniqueid": "MTK2821:3FTOP5WARGVBIAMYV69AE0Z18ZZJ0O", "dateTime": 1519407295047}, {"current_trial": 159, "trialdata": {"rt": -1000, "trial_type": "single-audio", "word": "infant", "stimulus": "/static/audio/wordpool/INFANT.wav", "conditions": [24, 1600, "a", 24000], "internal_node_id": "0.0-114.0", "trial": 4, "time_elapsed": 1020070, "serialpos": 2, "key_press": -1, "wordID": 736, "type": "PRES_AUD", "trial_index": 159}, "uniqueid": "MTK2821:3FTOP5WARGVBIAMYV69AE0Z18ZZJ0O", "dateTime": 1519407297646}, {"current_trial": 160, "trialdata": {"rt": -1000, "trial_type": "single-audio", "word": "child", "stimulus": "/static/audio/wordpool/CHILD.wav", "conditions": [24, 1600, "a", 24000], "internal_node_id": "0.0-115.0", "trial": 4, "time_elapsed": 1022578, "serialpos": 3, "key_press": -1, "wordID": 298, "type": "PRES_AUD", "trial_index": 160}, "uniqueid": "MTK2821:3FTOP5WARGVBIAMYV69AE0Z18ZZJ0O", "dateTime": 1519407300154}, {"current_trial": 161, "trialdata": {"rt": -1000, "trial_type": "single-audio", "word": "vagrant", "stimulus": "/static/audio/wordpool/VAGRANT.wav", "conditions": [24, 1600, "a", 24000], "internal_node_id": "0.0-116.0", "trial": 4, "time_elapsed": 1025043, "serialpos": 4, "key_press": -1, "wordID": 1543, "type": "PRES_AUD", "trial_index": 161}, "uniqueid": "MTK2821:3FTOP5WARGVBIAMYV69AE0Z18ZZJ0O", "dateTime": 1519407302619}, {"current_trial": 162, "trialdata": {"rt": -1000, "trial_type": "single-audio", "word": "pastry", "stimulus": "/static/audio/wordpool/PASTRY.wav", "conditions": [24, 1600, "a", 24000], "internal_node_id": "0.0-117.0", "trial": 4, "time_elapsed": 1027603, "serialpos": 5, "key_press": -1, "wordID": 1021, "type": "PRES_AUD", "trial_index": 162}, "uniqueid": "MTK2821:3FTOP5WARGVBIAMYV69AE0Z18ZZJ0O", "dateTime": 1519407305179}, {"current_trial": 163, "trialdata": {"rt": -1000, "trial_type": "single-audio", "word": "rebel", "stimulus": "/static/audio/wordpool/REBEL.wav", "conditions": [24, 1600, "a", 24000], "internal_node_id": "0.0-118.0", "trial": 4, "time_elapsed": 1030297, "serialpos": 6, "key_press": -1, "wordID": 1171, "type": "PRES_AUD", "trial_index": 163}, "uniqueid": "MTK2821:3FTOP5WARGVBIAMYV69AE0Z18ZZJ0O", "dateTime": 1519407307873}, {"current_trial": 164, "trialdata": {"rt": -1000, "trial_type": "single-audio", "word": "leg", "stimulus": "/static/audio/wordpool/LEG.wav", "conditions": [24, 1600, "a", 24000], "internal_node_id": "0.0-119.0", "trial": 4, "time_elapsed": 1032777, "serialpos": 7, "key_press": -1, "wordID": 808, "type": "PRES_AUD", "trial_index": 164}, "uniqueid": "MTK2821:3FTOP5WARGVBIAMYV69AE0Z18ZZJ0O", "dateTime": 1519407310353}, {"current_trial": 165, "trialdata": {"rt": -1000, "trial_type": "single-audio", "word": "flipper", "stimulus": "/static/audio/wordpool/FLIPPER.wav", "conditions": [24, 1600, "a", 24000], "internal_node_id": "0.0-120.0", "trial": 4, "time_elapsed": 1035288, "serialpos": 8, "key_press": -1, "wordID": 579, "type": "PRES_AUD", "trial_index": 165}, "uniqueid": "MTK2821:3FTOP5WARGVBIAMYV69AE0Z18ZZJ0O", "dateTime": 1519407312864}, {"current_trial": 166, "trialdata": {"rt": -1000, "trial_type": "single-audio", "word": "elbow", "stimulus": "/static/audio/wordpool/ELBOW.wav", "conditions": [24, 1600, "a", 24000], "internal_node_id": "0.0-121.0", "trial": 4, "time_elapsed": 1038044, "serialpos": 9, "key_press": -1, "wordID": 519, "type": "PRES_AUD", "trial_index": 166}, "uniqueid": "MTK2821:3FTOP5WARGVBIAMYV69AE0Z18ZZJ0O", "dateTime": 1519407315620}, {"current_trial": 167, "trialdata": {"rt": -1000, "trial_type": "single-audio", "word": "wrist", "stimulus": "/static/audio/wordpool/WRIST.wav", "conditions": [24, 1600, "a", 24000], "internal_node_id": "0.0-122.0", "trial": 4, "time_elapsed": 1040612, "serialpos": 10, "key_press": -1, "wordID": 1625, "type": "PRES_AUD", "trial_index": 167}, "uniqueid": "MTK2821:3FTOP5WARGVBIAMYV69AE0Z18ZZJ0O", "dateTime": 1519407318188}, {"current_trial": 168, "trialdata": {"rt": -1000, "trial_type": "single-audio", "word": "yarn", "stimulus": "/static/audio/wordpool/YARN.wav", "conditions": [24, 1600, "a", 24000], "internal_node_id": "0.0-123.0", "trial": 4, "time_elapsed": 1043167, "serialpos": 11, "key_press": -1, "wordID": 1630, "type": "PRES_AUD", "trial_index": 168}, "uniqueid": "MTK2821:3FTOP5WARGVBIAMYV69AE0Z18ZZJ0O", "dateTime": 1519407320743}, {"current_trial": 169, "trialdata": {"rt": -1000, "trial_type": "single-audio", "word": "sheriff", "stimulus": "/static/audio/wordpool/SHERIFF.wav", "conditions": [24, 1600, "a", 24000], "internal_node_id": "0.0-124.0", "trial": 4, "time_elapsed": 1045913, "serialpos": 12, "key_press": -1, "wordID": 1283, "type": "PRES_AUD", "trial_index": 169}, "uniqueid": "MTK2821:3FTOP5WARGVBIAMYV69AE0Z18ZZJ0O", "dateTime": 1519407323489}, {"current_trial": 170, "trialdata": {"rt": -1000, "trial_type": "single-audio", "word": "lumber", "stimulus": "/static/audio/wordpool/LUMBER.wav", "conditions": [24, 1600, "a", 24000], "internal_node_id": "0.0-125.0", "trial": 4, "time_elapsed": 1048611, "serialpos": 13, "key_press": -1, "wordID": 847, "type": "PRES_AUD", "trial_index": 170}, "uniqueid": "MTK2821:3FTOP5WARGVBIAMYV69AE0Z18ZZJ0O", "dateTime": 1519407326187}, {"current_trial": 171, "trialdata": {"rt": -1000, "trial_type": "single-audio", "word": "sphinx", "stimulus": "/static/audio/wordpool/SPHINX.wav", "conditions": [24, 1600, "a", 24000], "internal_node_id": "0.0-126.0", "trial": 4, "time_elapsed": 1051197, "serialpos": 14, "key_press": -1, "wordID": 1348, "type": "PRES_AUD", "trial_index": 171}, "uniqueid": "MTK2821:3FTOP5WARGVBIAMYV69AE0Z18ZZJ0O", "dateTime": 1519407328773}, {"current_trial": 172, "trialdata": {"rt": -1000, "trial_type": "single-audio", "word": "wife", "stimulus": "/static/audio/wordpool/WIFE.wav", "conditions": [24, 1600, "a", 24000], "internal_node_id": "0.0-127.0", "trial": 4, "time_elapsed": 1053996, "serialpos": 15, "key_press": -1, "wordID": 1608, "type": "PRES_AUD", "trial_index": 172}, "uniqueid": "MTK2821:3FTOP5WARGVBIAMYV69AE0Z18ZZJ0O", "dateTime": 1519407331572}, {"current_trial": 173, "trialdata": {"rt": -1000, "trial_type": "single-audio", "word": "casket", "stimulus": "/static/audio/wordpool/CASKET.wav", "conditions": [24, 1600, "a", 24000], "internal_node_id": "0.0-128.0", "trial": 4, "time_elapsed": 1056412, "serialpos": 16, "key_press": -1, "wordID": 254, "type": "PRES_AUD", "trial_index": 173}, "uniqueid": "MTK2821:3FTOP5WARGVBIAMYV69AE0Z18ZZJ0O", "dateTime": 1519407333988}, {"current_trial": 174, "trialdata": {"rt": -1000, "trial_type": "single-audio", "word": "county", "stimulus": "/static/audio/wordpool/COUNTY.wav", "conditions": [24, 1600, "a", 24000], "internal_node_id": "0.0-129.0", "trial": 4, "time_elapsed": 1058896, "serialpos": 17, "key_press": -1, "wordID": 388, "type": "PRES_AUD", "trial_index": 174}, "uniqueid": "MTK2821:3FTOP5WARGVBIAMYV69AE0Z18ZZJ0O", "dateTime": 1519407336472}, {"current_trial": 175, "trialdata": {"rt": -1000, "trial_type": "single-audio", "word": "oyster", "stimulus": "/static/audio/wordpool/OYSTER.wav", "conditions": [24, 1600, "a", 24000], "internal_node_id": "0.0-130.0", "trial": 4, "time_elapsed": 1061490, "serialpos": 18, "key_press": -1, "wordID": 994, "type": "PRES_AUD", "trial_index": 175}, "uniqueid": "MTK2821:3FTOP5WARGVBIAMYV69AE0Z18ZZJ0O", "dateTime": 1519407339066}, {"current_trial": 176, "trialdata": {"rt": -1000, "trial_type": "single-audio", "word": "scallop", "stimulus": "/static/audio/wordpool/SCALLOP.wav", "conditions": [24, 1600, "a", 24000], "internal_node_id": "0.0-131.0", "trial": 4, "time_elapsed": 1064058, "serialpos": 19, "key_press": -1, "wordID": 1241, "type": "PRES_AUD", "trial_index": 176}, "uniqueid": "MTK2821:3FTOP5WARGVBIAMYV69AE0Z18ZZJ0O", "dateTime": 1519407341634}, {"current_trial": 177, "trialdata": {"rt": -1000, "trial_type": "single-audio", "word": "lion", "stimulus": "/static/audio/wordpool/LION.wav", "conditions": [24, 1600, "a", 24000], "internal_node_id": "0.0-132.0", "trial": 4, "time_elapsed": 1066506, "serialpos": 20, "key_press": -1, "wordID": 826, "type": "PRES_AUD", "trial_index": 177}, "uniqueid": "MTK2821:3FTOP5WARGVBIAMYV69AE0Z18ZZJ0O", "dateTime": 1519407344082}, {"current_trial": 178, "trialdata": {"rt": -1000, "trial_type": "single-audio", "word": "lightning", "stimulus": "/static/audio/wordpool/LIGHTNING.wav", "conditions": [24, 1600, "a", 24000], "internal_node_id": "0.0-133.0", "trial": 4, "time_elapsed": 1068924, "serialpos": 21, "key_press": -1, "wordID": 819, "type": "PRES_AUD", "trial_index": 178}, "uniqueid": "MTK2821:3FTOP5WARGVBIAMYV69AE0Z18ZZJ0O", "dateTime": 1519407346500}, {"current_trial": 179, "trialdata": {"rt": -1000, "trial_type": "single-audio", "word": "pasta", "stimulus": "/static/audio/wordpool/PASTA.wav", "conditions": [24, 1600, "a", 24000], "internal_node_id": "0.0-134.0", "trial": 4, "time_elapsed": 1071612, "serialpos": 22, "key_press": -1, "wordID": 1020, "type": "PRES_AUD", "trial_index": 179}, "uniqueid": "MTK2821:3FTOP5WARGVBIAMYV69AE0Z18ZZJ0O", "dateTime": 1519407349188}, {"current_trial": 180, "trialdata": {"rt": -1000, "trial_type": "single-audio", "word": "princess", "stimulus": "/static/audio/wordpool/PRINCESS.wav", "conditions": [24, 1600, "a", 24000], "internal_node_id": "0.0-135.0", "trial": 4, "time_elapsed": 1074252, "serialpos": 23, "key_press": -1, "wordID": 1124, "type": "PRES_AUD", "trial_index": 180}, "uniqueid": "MTK2821:3FTOP5WARGVBIAMYV69AE0Z18ZZJ0O", "dateTime": 1519407351828}, {"current_trial": 181, "trialdata": {"rt": -1, "trial_type": "single-stim", "stimulus": "", "internal_node_id": "0.0-136.0-0.0", "time_elapsed": 1075458, "key_press": -1, "type": "PRE_RECALL_DELAY", "trial_index": 181}, "uniqueid": "MTK2821:3FTOP5WARGVBIAMYV69AE0Z18ZZJ0O", "dateTime": 1519407353034}, {"current_trial": 182, "trialdata": {"rt": -1000, "trial_type": "single-audio", "stimulus": "/static/audio/400Hz.wav", "internal_node_id": "0.0-137.0", "time_elapsed": 1075960, "key_press": -1, "type": "PRE_RECALL_ALERT", "trial_index": 182}, "uniqueid": "MTK2821:3FTOP5WARGVBIAMYV69AE0Z18ZZJ0O", "dateTime": 1519407353536}, {"current_trial": 183, "trialdata": {"rt": [6685, 8541, 11293, 13854, 15126, 16613, 23053, 24317, 26525, 29421], "recwords": ["princess", "pasta", "lightning", "baby", "child", "rebel", "elbow", "wrist", "casket", "wife"], "key_times": [4950, 5157, 5309, 5534, 5686, 5878, 6102, 6289, 6685, 7014, 7165, 7205, 7813, 8062, 8541, 9718, 9830, 9990, 10174, 10310, 10566, 10734, 10910, 11037, 11293, 12005, 12117, 12205, 12414, 13854, 14301, 14366, 14501, 14613, 14726, 15126, 15493, 15589, 15774, 15869, 16053, 16613, 22134, 22245, 22453, 22637, 22806, 23053, 23493, 23605, 23757, 23860, 23943, 24317, 25702, 25886, 25950, 26109, 26205, 26325, 26525, 28758, 28861, 28981, 29149, 29421], "trial_type": "free-recall", "conditions": [24, 1600, "a", 24000], "internal_node_id": "0.0-138.0-0.0", "key_presses": [80, 82, 73, 78, 67, 69, 83, 83, 13, 80, 65, 83, 84, 65, 13, 76, 73, 71, 72, 84, 78, 73, 78, 71, 13, 66, 65, 66, 89, 13, 67, 72, 73, 76, 68, 13, 82, 69, 66, 69, 76, 13, 69, 76, 66, 79, 87, 13, 87, 82, 73, 83, 84, 13, 67, 65, 83, 75, 69, 84, 13, 87, 73, 70, 69, 13], "trial": 4, "time_elapsed": 1135963, "type": "FREE_RECALL", "trial_index": 183}, "uniqueid": "MTK2821:3FTOP5WARGVBIAMYV69AE0Z18ZZJ0O", "dateTime": 1519407413542}, {"current_trial": 184, "trialdata": {"rt": 2041, "trial_type": "text", "internal_node_id": "0.0-139.0", "time_elapsed": 1140007, "key_press": 32, "type": "INSTRUCTIONS", "trial_index": 184}, "uniqueid": "MTK2821:3FTOP5WARGVBIAMYV69AE0Z18ZZJ0O", "dateTime": 1519407417583}, {"current_trial": 185, "trialdata": {"rt": [2241, 4833, 6809, 9441], "trial_type": "math-distractor", "key_times": [1745, 1938, 2241, 3378, 3586, 4833, 6346, 6538, 6809, 9042, 9144, 9441, 11593, 11810], "responses": ["19", "10", "19", "12"], "num2": [7, 3, 7, 2, 8], "num3": [7, 5, 6, 5, 9], "conditions": [24, 1600, "a", 12000], "internal_node_id": "0.0-140.0", "key_presses": [97, 105, 13, 97, 96, 13, 97, 105, 13, 97, 98, 13, 98, 101], "trial": 5, "time_elapsed": 1154070, "type": "DISTRACTOR", "trial_index": 185, "num1": [5, 2, 6, 5, 8]}, "uniqueid": "MTK2821:3FTOP5WARGVBIAMYV69AE0Z18ZZJ0O", "dateTime": 1519407431646}, {"current_trial": 186, "trialdata": {"rt": -1, "trial_type": "single-stim", "stimulus": "<p id=\"stim\">10</p>", "internal_node_id": "0.0-141.0-0.0", "time_elapsed": 1157071, "key_press": -1, "trial_index": 186}, "uniqueid": "MTK2821:3FTOP5WARGVBIAMYV69AE0Z18ZZJ0O", "dateTime": 1519407434647}, {"current_trial": 187, "trialdata": {"rt": -1, "trial_type": "single-stim", "stimulus": "<p id=\"stim\">9</p>", "internal_node_id": "0.0-141.0-1.0", "time_elapsed": 1158073, "key_press": -1, "trial_index": 187}, "uniqueid": "MTK2821:3FTOP5WARGVBIAMYV69AE0Z18ZZJ0O", "dateTime": 1519407435649}, {"current_trial": 188, "trialdata": {"rt": -1, "trial_type": "single-stim", "stimulus": "<p id=\"stim\">8</p>", "internal_node_id": "0.0-141.0-2.0", "time_elapsed": 1159074, "key_press": -1, "trial_index": 188}, "uniqueid": "MTK2821:3FTOP5WARGVBIAMYV69AE0Z18ZZJ0O", "dateTime": 1519407436650}, {"current_trial": 189, "trialdata": {"rt": -1, "trial_type": "single-stim", "stimulus": "<p id=\"stim\">7</p>", "internal_node_id": "0.0-141.0-3.0", "time_elapsed": 1160075, "key_press": -1, "trial_index": 189}, "uniqueid": "MTK2821:3FTOP5WARGVBIAMYV69AE0Z18ZZJ0O", "dateTime": 1519407437651}, {"current_trial": 190, "trialdata": {"rt": -1, "trial_type": "single-stim", "stimulus": "<p id=\"stim\">6</p>", "internal_node_id": "0.0-141.0-4.0", "time_elapsed": 1161076, "key_press": -1, "trial_index": 190}, "uniqueid": "MTK2821:3FTOP5WARGVBIAMYV69AE0Z18ZZJ0O", "dateTime": 1519407438652}, {"current_trial": 191, "trialdata": {"rt": -1, "trial_type": "single-stim", "stimulus": "<p id=\"stim\">5</p>", "internal_node_id": "0.0-141.0-5.0", "time_elapsed": 1162080, "key_press": -1, "trial_index": 191}, "uniqueid": "MTK2821:3FTOP5WARGVBIAMYV69AE0Z18ZZJ0O", "dateTime": 1519407439656}, {"current_trial": 192, "trialdata": {"rt": -1, "trial_type": "single-stim", "stimulus": "<p id=\"stim\">4</p>", "internal_node_id": "0.0-141.0-6.0", "time_elapsed": 1163082, "key_press": -1, "trial_index": 192}, "uniqueid": "MTK2821:3FTOP5WARGVBIAMYV69AE0Z18ZZJ0O", "dateTime": 1519407440658}, {"current_trial": 193, "trialdata": {"rt": -1, "trial_type": "single-stim", "stimulus": "<p id=\"stim\">3</p>", "internal_node_id": "0.0-141.0-7.0", "time_elapsed": 1164083, "key_press": -1, "trial_index": 193}, "uniqueid": "MTK2821:3FTOP5WARGVBIAMYV69AE0Z18ZZJ0O", "dateTime": 1519407441659}, {"current_trial": 194, "trialdata": {"rt": -1, "trial_type": "single-stim", "stimulus": "<p id=\"stim\">2</p>", "internal_node_id": "0.0-141.0-8.0", "time_elapsed": 1165083, "key_press": -1, "trial_index": 194}, "uniqueid": "MTK2821:3FTOP5WARGVBIAMYV69AE0Z18ZZJ0O", "dateTime": 1519407442659}, {"current_trial": 195, "trialdata": {"rt": -1, "trial_type": "single-stim", "stimulus": "<p id=\"stim\">1</p>", "internal_node_id": "0.0-141.0-9.0", "time_elapsed": 1166086, "key_press": -1, "trial_index": 195}, "uniqueid": "MTK2821:3FTOP5WARGVBIAMYV69AE0Z18ZZJ0O", "dateTime": 1519407443662}, {"current_trial": 196, "trialdata": {"rt": -1, "trial_type": "single-stim", "stimulus": "<p id=\"stim\">+</p>", "internal_node_id": "0.0-142.0-0.0", "time_elapsed": 1167586, "key_press": -1, "type": "FIXATION", "trial_index": 196}, "uniqueid": "MTK2821:3FTOP5WARGVBIAMYV69AE0Z18ZZJ0O", "dateTime": 1519407445162}, {"current_trial": 197, "trialdata": {"rt": -1000, "trial_type": "single-audio", "word": "bug", "stimulus": "/static/audio/wordpool/BUG.wav", "conditions": [24, 1600, "a", 12000], "internal_node_id": "0.0-143.0", "trial": 5, "time_elapsed": 1170350, "serialpos": 0, "key_press": -1, "wordID": 186, "type": "PRES_AUD", "trial_index": 197}, "uniqueid": "MTK2821:3FTOP5WARGVBIAMYV69AE0Z18ZZJ0O", "dateTime": 1519407447926}, {"current_trial": 198, "trialdata": {"rt": -1000, "trial_type": "single-audio", "word": "virus", "stimulus": "/static/audio/wordpool/VIRUS.wav", "conditions": [24, 1600, "a", 12000], "internal_node_id": "0.0-144.0", "trial": 5, "time_elapsed": 1172787, "serialpos": 1, "key_press": -1, "wordID": 1571, "type": "PRES_AUD", "trial_index": 198}, "uniqueid": "MTK2821:3FTOP5WARGVBIAMYV69AE0Z18ZZJ0O", "dateTime": 1519407450363}, {"current_trial": 199, "trialdata": {"rt": -1000, "trial_type": "single-audio", "word": "sibling", "stimulus": "/static/audio/wordpool/SIBLING.wav", "conditions": [24, 1600, "a", 12000], "internal_node_id": "0.0-145.0", "trial": 5, "time_elapsed": 1175203, "serialpos": 2, "key_press": -1, "wordID": 1300, "type": "PRES_AUD", "trial_index": 199}, "uniqueid": "MTK2821:3FTOP5WARGVBIAMYV69AE0Z18ZZJ0O", "dateTime": 1519407452779}, {"current_trial": 200, "trialdata": {"rt": -1000, "trial_type": "single-audio", "word": "pluto", "stimulus": "/static/audio/wordpool/PLUTO.wav", "conditions": [24, 1600, "a", 12000], "internal_node_id": "0.0-146.0", "trial": 5, "time_elapsed": 1177828, "serialpos": 3, "key_press": -1, "wordID": 1091, "type": "PRES_AUD", "trial_index": 200}, "uniqueid": "MTK2821:3FTOP5WARGVBIAMYV69AE0Z18ZZJ0O", "dateTime": 1519407455404}, {"current_trial": 201, "trialdata": {"rt": -1000, "trial_type": "single-audio", "word": "fireman", "stimulus": "/static/audio/wordpool/FIREMAN.wav", "conditions": [24, 1600, "a", 12000], "internal_node_id": "0.0-147.0", "trial": 5, "time_elapsed": 1180344, "serialpos": 4, "key_press": -1, "wordID": 568, "type": "PRES_AUD", "trial_index": 201}, "uniqueid": "MTK2821:3FTOP5WARGVBIAMYV69AE0Z18ZZJ0O", "dateTime": 1519407457920}, {"current_trial": 202, "trialdata": {"rt": -1000, "trial_type": "single-audio", "word": "brother", "stimulus": "/static/audio/wordpool/BROTHER.wav", "conditions": [24, 1600, "a", 12000], "internal_node_id": "0.0-148.0", "trial": 5, "time_elapsed": 1183087, "serialpos": 5, "key_press": -1, "wordID": 178, "type": "PRES_AUD", "trial_index": 202}, "uniqueid": "MTK2821:3FTOP5WARGVBIAMYV69AE0Z18ZZJ0O", "dateTime": 1519407460664}, {"current_trial": 203, "trialdata": {"rt": -1000, "trial_type": "single-audio", "word": "sandwich", "stimulus": "/static/audio/wordpool/SANDWICH.wav", "conditions": [24, 1600, "a", 12000], "internal_node_id": "0.0-149.0", "trial": 5, "time_elapsed": 1185568, "serialpos": 6, "key_press": -1, "wordID": 1231, "type": "PRES_AUD", "trial_index": 203}, "uniqueid": "MTK2821:3FTOP5WARGVBIAMYV69AE0Z18ZZJ0O", "dateTime": 1519407463144}, {"current_trial": 204, "trialdata": {"rt": -1000, "trial_type": "single-audio", "word": "proton", "stimulus": "/static/audio/wordpool/PROTON.wav", "conditions": [24, 1600, "a", 12000], "internal_node_id": "0.0-150.0", "trial": 5, "time_elapsed": 1188222, "serialpos": 7, "key_press": -1, "wordID": 1131, "type": "PRES_AUD", "trial_index": 204}, "uniqueid": "MTK2821:3FTOP5WARGVBIAMYV69AE0Z18ZZJ0O", "dateTime": 1519407465798}, {"current_trial": 205, "trialdata": {"rt": -1000, "trial_type": "single-audio", "word": "whistle", "stimulus": "/static/audio/wordpool/WHISTLE.wav", "conditions": [24, 1600, "a", 12000], "internal_node_id": "0.0-151.0", "trial": 5, "time_elapsed": 1190674, "serialpos": 8, "key_press": -1, "wordID": 1605, "type": "PRES_AUD", "trial_index": 205}, "uniqueid": "MTK2821:3FTOP5WARGVBIAMYV69AE0Z18ZZJ0O", "dateTime": 1519407468250}, {"current_trial": 206, "trialdata": {"rt": -1000, "trial_type": "single-audio", "word": "tombstone", "stimulus": "/static/audio/wordpool/TOMBSTONE.wav", "conditions": [24, 1600, "a", 12000], "internal_node_id": "0.0-152.0", "trial": 5, "time_elapsed": 1193321, "serialpos": 9, "key_press": -1, "wordID": 1477, "type": "PRES_AUD", "trial_index": 206}, "uniqueid": "MTK2821:3FTOP5WARGVBIAMYV69AE0Z18ZZJ0O", "dateTime": 1519407470897}, {"current_trial": 207, "trialdata": {"rt": -1000, "trial_type": "single-audio", "word": "canal", "stimulus": "/static/audio/wordpool/CANAL.wav", "conditions": [24, 1600, "a", 12000], "internal_node_id": "0.0-153.0", "trial": 5, "time_elapsed": 1196022, "serialpos": 10, "key_press": -1, "wordID": 225, "type": "PRES_AUD", "trial_index": 207}, "uniqueid": "MTK2821:3FTOP5WARGVBIAMYV69AE0Z18ZZJ0O", "dateTime": 1519407473599}, {"current_trial": 208, "trialdata": {"rt": -1000, "trial_type": "single-audio", "word": "cousin", "stimulus": "/static/audio/wordpool/COUSIN.wav", "conditions": [24, 1600, "a", 12000], "internal_node_id": "0.0-154.0", "trial": 5, "time_elapsed": 1198569, "serialpos": 11, "key_press": -1, "wordID": 391, "type": "PRES_AUD", "trial_index": 208}, "uniqueid": "MTK2821:3FTOP5WARGVBIAMYV69AE0Z18ZZJ0O", "dateTime": 1519407476145}, {"current_trial": 209, "trialdata": {"rt": -1000, "trial_type": "single-audio", "word": "atom", "stimulus": "/static/audio/wordpool/ATOM.wav", "conditions": [24, 1600, "a", 12000], "internal_node_id": "0.0-155.0", "trial": 5, "time_elapsed": 1201105, "serialpos": 12, "key_press": -1, "wordID": 54, "type": "PRES_AUD", "trial_index": 209}, "uniqueid": "MTK2821:3FTOP5WARGVBIAMYV69AE0Z18ZZJ0O", "dateTime": 1519407478681}, {"current_trial": 210, "trialdata": {"rt": -1000, "trial_type": "single-audio", "word": "dancer", "stimulus": "/static/audio/wordpool/DANCER.wav", "conditions": [24, 1600, "a", 12000], "internal_node_id": "0.0-156.0", "trial": 5, "time_elapsed": 1203559, "serialpos": 13, "key_press": -1, "wordID": 436, "type": "PRES_AUD", "trial_index": 210}, "uniqueid": "MTK2821:3FTOP5WARGVBIAMYV69AE0Z18ZZJ0O", "dateTime": 1519407481135}, {"current_trial": 211, "trialdata": {"rt": -1000, "trial_type": "single-audio", "word": "daughter", "stimulus": "/static/audio/wordpool/DAUGHTER.wav", "conditions": [24, 1600, "a", 12000], "internal_node_id": "0.0-157.0", "trial": 5, "time_elapsed": 1206273, "serialpos": 14, "key_press": -1, "wordID": 441, "type": "PRES_AUD", "trial_index": 211}, "uniqueid": "MTK2821:3FTOP5WARGVBIAMYV69AE0Z18ZZJ0O", "dateTime": 1519407483849}, {"current_trial": 212, "trialdata": {"rt": -1000, "trial_type": "single-audio", "word": "woman", "stimulus": "/static/audio/wordpool/WOMAN.wav", "conditions": [24, 1600, "a", 12000], "internal_node_id": "0.0-158.0", "trial": 5, "time_elapsed": 1208972, "serialpos": 15, "key_press": -1, "wordID": 1619, "type": "PRES_AUD", "trial_index": 212}, "uniqueid": "MTK2821:3FTOP5WARGVBIAMYV69AE0Z18ZZJ0O", "dateTime": 1519407486548}, {"current_trial": 213, "trialdata": {"rt": -1000, "trial_type": "single-audio", "word": "snake", "stimulus": "/static/audio/wordpool/SNAKE.wav", "conditions": [24, 1600, "a", 12000], "internal_node_id": "0.0-159.0", "trial": 5, "time_elapsed": 1211516, "serialpos": 16, "key_press": -1, "wordID": 1332, "type": "PRES_AUD", "trial_index": 213}, "uniqueid": "MTK2821:3FTOP5WARGVBIAMYV69AE0Z18ZZJ0O", "dateTime": 1519407489093}, {"current_trial": 214, "trialdata": {"rt": -1000, "trial_type": "single-audio", "word": "saddle", "stimulus": "/static/audio/wordpool/SADDLE.wav", "conditions": [24, 1600, "a", 12000], "internal_node_id": "0.0-160.0", "trial": 5, "time_elapsed": 1213961, "serialpos": 17, "key_press": -1, "wordID": 1220, "type": "PRES_AUD", "trial_index": 214}, "uniqueid": "MTK2821:3FTOP5WARGVBIAMYV69AE0Z18ZZJ0O", "dateTime": 1519407491537}, {"current_trial": 215, "trialdata": {"rt": -1000, "trial_type": "single-audio", "word": "lace", "stimulus": "/static/audio/wordpool/LACE.wav", "conditions": [24, 1600, "a", 12000], "internal_node_id": "0.0-161.0", "trial": 5, "time_elapsed": 1216363, "serialpos": 18, "key_press": -1, "wordID": 791, "type": "PRES_AUD", "trial_index": 215}, "uniqueid": "MTK2821:3FTOP5WARGVBIAMYV69AE0Z18ZZJ0O", "dateTime": 1519407493939}, {"current_trial": 216, "trialdata": {"rt": -1000, "trial_type": "single-audio", "word": "possum", "stimulus": "/static/audio/wordpool/POSSUM.wav", "conditions": [24, 1600, "a", 12000], "internal_node_id": "0.0-162.0", "trial": 5, "time_elapsed": 1218861, "serialpos": 19, "key_press": -1, "wordID": 1111, "type": "PRES_AUD", "trial_index": 216}, "uniqueid": "MTK2821:3FTOP5WARGVBIAMYV69AE0Z18ZZJ0O", "dateTime": 1519407496437}, {"current_trial": 217, "trialdata": {"rt": -1000, "trial_type": "single-audio", "word": "typist", "stimulus": "/static/audio/wordpool/TYPIST.wav", "conditions": [24, 1600, "a", 12000], "internal_node_id": "0.0-163.0", "trial": 5, "time_elapsed": 1221266, "serialpos": 20, "key_press": -1, "wordID": 1531, "type": "PRES_AUD", "trial_index": 217}, "uniqueid": "MTK2821:3FTOP5WARGVBIAMYV69AE0Z18ZZJ0O", "dateTime": 1519407498842}, {"current_trial": 218, "trialdata": {"rt": -1000, "trial_type": "single-audio", "word": "blade", "stimulus": "/static/audio/wordpool/BLADE.wav", "conditions": [24, 1600, "a", 12000], "internal_node_id": "0.0-164.0", "trial": 5, "time_elapsed": 1223971, "serialpos": 21, "key_press": -1, "wordID": 133, "type": "PRES_AUD", "trial_index": 218}, "uniqueid": "MTK2821:3FTOP5WARGVBIAMYV69AE0Z18ZZJ0O", "dateTime": 1519407501547}, {"current_trial": 219, "trialdata": {"rt": -1000, "trial_type": "single-audio", "word": "barley", "stimulus": "/static/audio/wordpool/BARLEY.wav", "conditions": [24, 1600, "a", 12000], "internal_node_id": "0.0-165.0", "trial": 5, "time_elapsed": 1226540, "serialpos": 22, "key_press": -1, "wordID": 87, "type": "PRES_AUD", "trial_index": 219}, "uniqueid": "MTK2821:3FTOP5WARGVBIAMYV69AE0Z18ZZJ0O", "dateTime": 1519407504116}, {"current_trial": 220, "trialdata": {"rt": -1000, "trial_type": "single-audio", "word": "temple", "stimulus": "/static/audio/wordpool/TEMPLE.wav", "conditions": [24, 1600, "a", 12000], "internal_node_id": "0.0-166.0", "trial": 5, "time_elapsed": 1229226, "serialpos": 23, "key_press": -1, "wordID": 1447, "type": "PRES_AUD", "trial_index": 220}, "uniqueid": "MTK2821:3FTOP5WARGVBIAMYV69AE0Z18ZZJ0O", "dateTime": 1519407506802}, {"current_trial": 221, "trialdata": {"rt": -1, "trial_type": "single-stim", "stimulus": "", "internal_node_id": "0.0-167.0-0.0", "time_elapsed": 1230626, "key_press": -1, "type": "PRE_RECALL_DELAY", "trial_index": 221}, "uniqueid": "MTK2821:3FTOP5WARGVBIAMYV69AE0Z18ZZJ0O", "dateTime": 1519407508202}, {"current_trial": 222, "trialdata": {"rt": -1000, "trial_type": "single-audio", "stimulus": "/static/audio/400Hz.wav", "internal_node_id": "0.0-168.0", "time_elapsed": 1231127, "key_press": -1, "type": "PRE_RECALL_ALERT", "trial_index": 222}, "uniqueid": "MTK2821:3FTOP5WARGVBIAMYV69AE0Z18ZZJ0O", "dateTime": 1519407508703}, {"current_trial": 223, "trialdata": {"rt": [3030, 4470, 5470, 6782, 9446, 11693, 13414, 17478, 21487, 22942, 28126, 36038], "recwords": ["temple", "barley", "blade", "possum", "sibling", "daughter", "woman", "cousin", "bug", "virus", "brother", "snake"], "key_times": [1798, 2014, 2222, 2402, 2615, 2758, 3030, 3558, 3694, 3774, 3910, 4030, 4214, 4470, 4718, 4878, 4984, 5046, 5310, 5470, 5702, 5814, 5965, 6135, 6286, 6558, 6782, 7750, 8149, 8350, 8511, 8590, 8845, 8918, 9446, 10511, 10701, 10870, 10998, 11118, 11230, 11414, 11501, 11693, 12503, 12583, 12694, 12846, 12958, 13414, 16454, 16550, 16630, 16774, 16902, 17094, 17478, 21000, 21190, 21310, 21487, 22007, 22086, 22254, 22359, 22488, 22942, 27246, 27358, 27454, 27598, 27726, 27810, 27878, 28126, 35096, 35097, 35230, 35430, 35526, 36038], "trial_type": "free-recall", "conditions": [24, 1600, "a", 12000], "internal_node_id": "0.0-169.0-0.0", "key_presses": [84, 69, 77, 80, 76, 69, 13, 66, 65, 82, 76, 69, 89, 13, 66, 76, 65, 68, 69, 13, 80, 79, 83, 83, 85, 77, 13, 83, 73, 66, 76, 73, 78, 71, 13, 68, 65, 85, 71, 72, 84, 69, 82, 13, 87, 79, 77, 65, 78, 13, 67, 79, 85, 83, 73, 78, 13, 66, 85, 71, 13, 86, 73, 82, 85, 83, 13, 66, 82, 79, 84, 72, 69, 82, 13, 83, 78, 65, 75, 69, 13], "trial": 5, "time_elapsed": 1291129, "type": "FREE_RECALL", "trial_index": 223}, "uniqueid": "MTK2821:3FTOP5WARGVBIAMYV69AE0Z18ZZJ0O", "dateTime": 1519407568709}, {"current_trial": 224, "trialdata": {"rt": 5148, "trial_type": "text", "internal_node_id": "0.0-170.0", "time_elapsed": 1298283, "key_press": 32, "type": "INSTRUCTIONS", "trial_index": 224}, "uniqueid": "MTK2821:3FTOP5WARGVBIAMYV69AE0Z18ZZJ0O", "dateTime": 1519407575859}, {"current_trial": 225, "trialdata": {"rt": [3490, 5265, 7922, 9347, 11818], "trial_type": "math-distractor", "key_times": [3034, 3244, 3490, 4874, 4978, 5265, 7355, 7658, 7922, 8899, 9002, 9347, 11386, 11482, 11818], "responses": ["19", "13", "18", "13", "12"], "num2": [4, 4, 8, 4, 4, 9], "num3": [8, 8, 5, 3, 5, 3], "conditions": [12, 800, "a", 12000], "internal_node_id": "0.0-171.0", "key_presses": [97, 105, 13, 97, 99, 13, 97, 104, 13, 97, 99, 13, 97, 98, 13], "trial": 6, "time_elapsed": 1312295, "type": "DISTRACTOR", "trial_index": 225, "num1": [7, 1, 5, 6, 3, 4]}, "uniqueid": "MTK2821:3FTOP5WARGVBIAMYV69AE0Z18ZZJ0O", "dateTime": 1519407589871}, {"current_trial": 226, "trialdata": {"rt": -1, "trial_type": "single-stim", "stimulus": "<p id=\"stim\">10</p>", "internal_node_id": "0.0-172.0-0.0", "time_elapsed": 1315295, "key_press": -1, "trial_index": 226}, "uniqueid": "MTK2821:3FTOP5WARGVBIAMYV69AE0Z18ZZJ0O", "dateTime": 1519407592872}, {"current_trial": 227, "trialdata": {"rt": -1, "trial_type": "single-stim", "stimulus": "<p id=\"stim\">9</p>", "internal_node_id": "0.0-172.0-1.0", "time_elapsed": 1316298, "key_press": -1, "trial_index": 227}, "uniqueid": "MTK2821:3FTOP5WARGVBIAMYV69AE0Z18ZZJ0O", "dateTime": 1519407593874}, {"current_trial": 228, "trialdata": {"rt": -1, "trial_type": "single-stim", "stimulus": "<p id=\"stim\">8</p>", "internal_node_id": "0.0-172.0-2.0", "time_elapsed": 1317299, "key_press": -1, "trial_index": 228}, "uniqueid": "MTK2821:3FTOP5WARGVBIAMYV69AE0Z18ZZJ0O", "dateTime": 1519407594875}, {"current_trial": 229, "trialdata": {"rt": -1, "trial_type": "single-stim", "stimulus": "<p id=\"stim\">7</p>", "internal_node_id": "0.0-172.0-3.0", "time_elapsed": 1318300, "key_press": -1, "trial_index": 229}, "uniqueid": "MTK2821:3FTOP5WARGVBIAMYV69AE0Z18ZZJ0O", "dateTime": 1519407595876}, {"current_trial": 230, "trialdata": {"rt": -1, "trial_type": "single-stim", "stimulus": "<p id=\"stim\">6</p>", "internal_node_id": "0.0-172.0-4.0", "time_elapsed": 1319301, "key_press": -1, "trial_index": 230}, "uniqueid": "MTK2821:3FTOP5WARGVBIAMYV69AE0Z18ZZJ0O", "dateTime": 1519407596877}, {"current_trial": 231, "trialdata": {"rt": -1, "trial_type": "single-stim", "stimulus": "<p id=\"stim\">5</p>", "internal_node_id": "0.0-172.0-5.0", "time_elapsed": 1320303, "key_press": -1, "trial_index": 231}, "uniqueid": "MTK2821:3FTOP5WARGVBIAMYV69AE0Z18ZZJ0O", "dateTime": 1519407597879}, {"current_trial": 232, "trialdata": {"rt": -1, "trial_type": "single-stim", "stimulus": "<p id=\"stim\">4</p>", "internal_node_id": "0.0-172.0-6.0", "time_elapsed": 1321305, "key_press": -1, "trial_index": 232}, "uniqueid": "MTK2821:3FTOP5WARGVBIAMYV69AE0Z18ZZJ0O", "dateTime": 1519407598881}, {"current_trial": 233, "trialdata": {"rt": -1, "trial_type": "single-stim", "stimulus": "<p id=\"stim\">3</p>", "internal_node_id": "0.0-172.0-7.0", "time_elapsed": 1322305, "key_press": -1, "trial_index": 233}, "uniqueid": "MTK2821:3FTOP5WARGVBIAMYV69AE0Z18ZZJ0O", "dateTime": 1519407599881}, {"current_trial": 234, "trialdata": {"rt": -1, "trial_type": "single-stim", "stimulus": "<p id=\"stim\">2</p>", "internal_node_id": "0.0-172.0-8.0", "time_elapsed": 1323308, "key_press": -1, "trial_index": 234}, "uniqueid": "MTK2821:3FTOP5WARGVBIAMYV69AE0Z18ZZJ0O", "dateTime": 1519407600884}, {"current_trial": 235, "trialdata": {"rt": -1, "trial_type": "single-stim", "stimulus": "<p id=\"stim\">1</p>", "internal_node_id": "0.0-172.0-9.0", "time_elapsed": 1324356, "key_press": -1, "trial_index": 235}, "uniqueid": "MTK2821:3FTOP5WARGVBIAMYV69AE0Z18ZZJ0O", "dateTime": 1519407601932}, {"current_trial": 236, "trialdata": {"rt": -1, "trial_type": "single-stim", "stimulus": "<p id=\"stim\">+</p>", "internal_node_id": "0.0-173.0-0.0", "time_elapsed": 1325856, "key_press": -1, "type": "FIXATION", "trial_index": 236}, "uniqueid": "MTK2821:3FTOP5WARGVBIAMYV69AE0Z18ZZJ0O", "dateTime": 1519407603432}, {"current_trial": 237, "trialdata": {"rt": -1000, "trial_type": "single-audio", "word": "canyon", "stimulus": "/static/audio/wordpool/CANYON.wav", "conditions": [12, 800, "a", 12000], "internal_node_id": "0.0-174.0", "trial": 6, "time_elapsed": 1327856, "serialpos": 0, "key_press": -1, "wordID": 234, "type": "PRES_AUD", "trial_index": 237}, "uniqueid": "MTK2821:3FTOP5WARGVBIAMYV69AE0Z18ZZJ0O", "dateTime": 1519407605432}, {"current_trial": 238, "trialdata": {"rt": -1000, "trial_type": "single-audio", "word": "truck", "stimulus": "/static/audio/wordpool/TRUCK.wav", "conditions": [12, 800, "a", 12000], "internal_node_id": "0.0-175.0", "trial": 6, "time_elapsed": 1329537, "serialpos": 1, "key_press": -1, "wordID": 1511, "type": "PRES_AUD", "trial_index": 238}, "uniqueid": "MTK2821:3FTOP5WARGVBIAMYV69AE0Z18ZZJ0O", "dateTime": 1519407607113}, {"current_trial": 239, "trialdata": {"rt": -1000, "trial_type": "single-audio", "word": "gallon", "stimulus": "/static/audio/wordpool/GALLON.wav", "conditions": [12, 800, "a", 12000], "internal_node_id": "0.0-176.0", "trial": 6, "time_elapsed": 1331206, "serialpos": 2, "key_press": -1, "wordID": 617, "type": "PRES_AUD", "trial_index": 239}, "uniqueid": "MTK2821:3FTOP5WARGVBIAMYV69AE0Z18ZZJ0O", "dateTime": 1519407608783}, {"current_trial": 240, "trialdata": {"rt": -1000, "trial_type": "single-audio", "word": "quail", "stimulus": "/static/audio/wordpool/QUAIL.wav", "conditions": [12, 800, "a", 12000], "internal_node_id": "0.0-177.0", "trial": 6, "time_elapsed": 1333077, "serialpos": 3, "key_press": -1, "wordID": 1146, "type": "PRES_AUD", "trial_index": 240}, "uniqueid": "MTK2821:3FTOP5WARGVBIAMYV69AE0Z18ZZJ0O", "dateTime": 1519407610653}, {"current_trial": 241, "trialdata": {"rt": -1000, "trial_type": "single-audio", "word": "expert", "stimulus": "/static/audio/wordpool/EXPERT.wav", "conditions": [12, 800, "a", 12000], "internal_node_id": "0.0-178.0", "trial": 6, "time_elapsed": 1334761, "serialpos": 4, "key_press": -1, "wordID": 542, "type": "PRES_AUD", "trial_index": 241}, "uniqueid": "MTK2821:3FTOP5WARGVBIAMYV69AE0Z18ZZJ0O", "dateTime": 1519407612337}, {"current_trial": 242, "trialdata": {"rt": -1000, "trial_type": "single-audio", "word": "brook", "stimulus": "/static/audio/wordpool/BROOK.wav", "conditions": [12, 800, "a", 12000], "internal_node_id": "0.0-179.0", "trial": 6, "time_elapsed": 1336424, "serialpos": 5, "key_press": -1, "wordID": 176, "type": "PRES_AUD", "trial_index": 242}, "uniqueid": "MTK2821:3FTOP5WARGVBIAMYV69AE0Z18ZZJ0O", "dateTime": 1519407614000}, {"current_trial": 243, "trialdata": {"rt": -1000, "trial_type": "single-audio", "word": "shoulder", "stimulus": "/static/audio/wordpool/SHOULDER.wav", "conditions": [12, 800, "a", 12000], "internal_node_id": "0.0-180.0", "trial": 6, "time_elapsed": 1338380, "serialpos": 6, "key_press": -1, "wordID": 1293, "type": "PRES_AUD", "trial_index": 243}, "uniqueid": "MTK2821:3FTOP5WARGVBIAMYV69AE0Z18ZZJ0O", "dateTime": 1519407615956}, {"current_trial": 244, "trialdata": {"rt": -1000, "trial_type": "single-audio", "word": "trombone", "stimulus": "/static/audio/wordpool/TROMBONE.wav", "conditions": [12, 800, "a", 12000], "internal_node_id": "0.0-181.0", "trial": 6, "time_elapsed": 1340279, "serialpos": 7, "key_press": -1, "wordID": 1507, "type": "PRES_AUD", "trial_index": 244}, "uniqueid": "MTK2821:3FTOP5WARGVBIAMYV69AE0Z18ZZJ0O", "dateTime": 1519407617855}, {"current_trial": 245, "trialdata": {"rt": -1000, "trial_type": "single-audio", "word": "piano", "stimulus": "/static/audio/wordpool/PIANO.wav", "conditions": [12, 800, "a", 12000], "internal_node_id": "0.0-182.0", "trial": 6, "time_elapsed": 1341929, "serialpos": 8, "key_press": -1, "wordID": 1056, "type": "PRES_AUD", "trial_index": 245}, "uniqueid": "MTK2821:3FTOP5WARGVBIAMYV69AE0Z18ZZJ0O", "dateTime": 1519407619505}, {"current_trial": 246, "trialdata": {"rt": -1000, "trial_type": "single-audio", "word": "turkey", "stimulus": "/static/audio/wordpool/TURKEY.wav", "conditions": [12, 800, "a", 12000], "internal_node_id": "0.0-183.0", "trial": 6, "time_elapsed": 1343551, "serialpos": 9, "key_press": -1, "wordID": 1519, "type": "PRES_AUD", "trial_index": 246}, "uniqueid": "MTK2821:3FTOP5WARGVBIAMYV69AE0Z18ZZJ0O