{"assignmentId": "32N49TQG3HPGAIKA4XKM6UM8AIZAVQ", "workerId": "MTK2432", "questiondata": {"origin": "United States", "strat-rehearsal": "33", "marital": "Single", "education": "Associate degree", "ethnicity": "Not Hispanic", "color_depth": 24, "distracted": "No", "wrote-notes": "No", "strat-other": "", "screen_width": 1280, "avail_screen_width": 1280, "avail_screen_height": 709, "strat-image": "1", "language": "english", "gender": "Female", "age": "32", "gender_other": "", "race": ["Black"], "strat-categorize": "1", "pixel_depth": 24, "strat-spatial": "1", "strat-story": "2", "race_other": "", "screen_height": 800}, "bonus": 0, "hitId": "31SIZS5W59MEH7CGU77W6DGQAS4RQJ", "counterbalance": 1612, "useragent": "Mozilla/5.0 (Macintosh; Intel Mac OS X 10_13_2) AppleWebKit/537.36 (KHTML, like Gecko) Chrome/63.0.3239.132 Safari/537.36", "eventdata": [{"eventtype": "initialized", "interval": 0, "value": null, "timestamp": 1517249652653}, {"eventtype": "window_resize", "interval": 0, "value": [1280, 658], "timestamp": 1517249652653}], "data": [{"current_trial": 0, "trialdata": {"rt": 2535, "trial_type": "text", "internal_node_id": "0.0-0.0", "time_elapsed": 2542, "key_press": 75, "type": "INSTRUCTIONS", "trial_index": 0}, "uniqueid": "MTK2432:32N49TQG3HPGAIKA4XKM6UM8AIZAVQ", "dateTime": 1517249684730}, {"current_trial": 1, "trialdata": {"rt": 18027, "trial_type": "text", "internal_node_id": "0.0-1.0", "time_elapsed": 20572, "key_press": 76, "type": "INSTRUCTIONS", "trial_index": 1}, "uniqueid": "MTK2432:32N49TQG3HPGAIKA4XKM6UM8AIZAVQ", "dateTime": 1517249702759}, {"current_trial": 2, "trialdata": {"rt": [21879], "trial_type": "audio-test", "responses": ["ocean"], "internal_node_id": "0.0-2.0", "time_elapsed": 42472, "type": "AUDIO_TEST", "trial_index": 2}, "uniqueid": "MTK2432:32N49TQG3HPGAIKA4XKM6UM8AIZAVQ", "dateTime": 1517249724659}, {"current_trial": 3, "trialdata": {"rt": [9200], "trial_type": "audio-test", "responses": ["crystal"], "internal_node_id": "0.0-3.0", "time_elapsed": 51680, "type": "AUDIO_TEST", "trial_index": 3}, "uniqueid": "MTK2432:32N49TQG3HPGAIKA4XKM6UM8AIZAVQ", "dateTime": 1517249733867}, {"current_trial": 4, "trialdata": {"rt": [4837], "trial_type": "audio-test", "responses": ["spice"], "internal_node_id": "0.0-4.0", "time_elapsed": 56527, "type": "AUDIO_TEST", "trial_index": 4}, "uniqueid": "MTK2432:32N49TQG3HPGAIKA4XKM6UM8AIZAVQ", "dateTime": 1517249738714}, {"current_trial": 5, "trialdata": {"rt": 27918, "trial_type": "survey-text", "responses": "{\"Q0\":\"12:00 a.m.\",\"Q1\":\"7:53\",\"Q2\":\"3\"}", "internal_node_id": "0.0-5.0", "time_elapsed": 85204, "type": "SLEEP_SURVEY", "trial_index": 5}, "uniqueid": "MTK2432:32N49TQG3HPGAIKA4XKM6UM8AIZAVQ", "dateTime": 1517249767391}, {"current_trial": 6, "trialdata": {"rt": 37526, "trial_type": "text", "internal_node_id": "0.0-6.0", "time_elapsed": 123734, "key_press": 76, "type": "INSTRUCTIONS", "trial_index": 6}, "uniqueid": "MTK2432:32N49TQG3HPGAIKA4XKM6UM8AIZAVQ", "dateTime": 1517249805921}, {"current_trial": 7, "trialdata": {"rt": 10454, "trial_type": "text", "internal_node_id": "0.0-7.0", "time_elapsed": 134691, "key_press": 188, "type": "INSTRUCTIONS", "trial_index": 7}, "uniqueid": "MTK2432:32N49TQG3HPGAIKA4XKM6UM8AIZAVQ", "dateTime": 1517249816878}, {"current_trial": 8, "trialdata": {"rt": 2714, "trial_type": "text", "internal_node_id": "0.0-8.0", "time_elapsed": 137907, "key_press": 188, "type": "INSTRUCTIONS", "trial_index": 8}, "uniqueid": "MTK2432:32N49TQG3HPGAIKA4XKM6UM8AIZAVQ", "dateTime": 1517249820094}, {"current_trial": 9, "trialdata": {"rt": [2670, 8443, 10203, 12307, 13747], "trial_type": "math-distractor", "key_times": [2071, 2670, 8036, 8124, 8443, 10004, 10083, 10203, 11723, 12155, 12307, 13507, 13651, 13747, 17914], "responses": ["5", "17", "12", "14", "11"], "num2": [1, 9, 5, 9, 8, 2], "num3": [4, 3, 5, 4, 1, 9], "conditions": [18, 1200, "a", 18000], "internal_node_id": "0.0-9.0", "key_presses": [53, 13, 49, 55, 13, 49, 50, 13, 49, 52, 13, 49, 49, 13, 49], "trial": 0, "time_elapsed": 156918, "type": "DISTRACTOR", "trial_index": 9, "num1": [4, 5, 2, 1, 2, 5]}, "uniqueid": "MTK2432:32N49TQG3HPGAIKA4XKM6UM8AIZAVQ", "dateTime": 1517249839105}, {"current_trial": 10, "trialdata": {"rt": -1, "trial_type": "single-stim", "stimulus": "<p id=\"stim\">10</p>", "internal_node_id": "0.0-10.0-0.0", "time_elapsed": 159926, "key_press": -1, "trial_index": 10}, "uniqueid": "MTK2432:32N49TQG3HPGAIKA4XKM6UM8AIZAVQ", "dateTime": 1517249842113}, {"current_trial": 11, "trialdata": {"rt": -1, "trial_type": "single-stim", "stimulus": "<p id=\"stim\">9</p>", "internal_node_id": "0.0-10.0-1.0", "time_elapsed": 160931, "key_press": -1, "trial_index": 11}, "uniqueid": "MTK2432:32N49TQG3HPGAIKA4XKM6UM8AIZAVQ", "dateTime": 1517249843118}, {"current_trial": 12, "trialdata": {"rt": -1, "trial_type": "single-stim", "stimulus": "<p id=\"stim\">8</p>", "internal_node_id": "0.0-10.0-2.0", "time_elapsed": 161937, "key_press": -1, "trial_index": 12}, "uniqueid": "MTK2432:32N49TQG3HPGAIKA4XKM6UM8AIZAVQ", "dateTime": 1517249844124}, {"current_trial": 13, "trialdata": {"rt": -1, "trial_type": "single-stim", "stimulus": "<p id=\"stim\">7</p>", "internal_node_id": "0.0-10.0-3.0", "time_elapsed": 162942, "key_press": -1, "trial_index": 13}, "uniqueid": "MTK2432:32N49TQG3HPGAIKA4XKM6UM8AIZAVQ", "dateTime": 1517249845130}, {"current_trial": 14, "trialdata": {"rt": -1, "trial_type": "single-stim", "stimulus": "<p id=\"stim\">6</p>", "internal_node_id": "0.0-10.0-4.0", "time_elapsed": 163946, "key_press": -1, "trial_index": 14}, "uniqueid": "MTK2432:32N49TQG3HPGAIKA4XKM6UM8AIZAVQ", "dateTime": 1517249846133}, {"current_trial": 15, "trialdata": {"rt": -1, "trial_type": "single-stim", "stimulus": "<p id=\"stim\">5</p>", "internal_node_id": "0.0-10.0-5.0", "time_elapsed": 164951, "key_press": -1, "trial_index": 15}, "uniqueid": "MTK2432:32N49TQG3HPGAIKA4XKM6UM8AIZAVQ", "dateTime": 1517249847139}, {"current_trial": 16, "trialdata": {"rt": -1, "trial_type": "single-stim", "stimulus": "<p id=\"stim\">4</p>", "internal_node_id": "0.0-10.0-6.0", "time_elapsed": 165955, "key_press": -1, "trial_index": 16}, "uniqueid": "MTK2432:32N49TQG3HPGAIKA4XKM6UM8AIZAVQ", "dateTime": 1517249848143}, {"current_trial": 17, "trialdata": {"rt": -1, "trial_type": "single-stim", "stimulus": "<p id=\"stim\">3</p>", "internal_node_id": "0.0-10.0-7.0", "time_elapsed": 166959, "key_press": -1, "trial_index": 17}, "uniqueid": "MTK2432:32N49TQG3HPGAIKA4XKM6UM8AIZAVQ", "dateTime": 1517249849146}, {"current_trial": 18, "trialdata": {"rt": -1, "trial_type": "single-stim", "stimulus": "<p id=\"stim\">2</p>", "internal_node_id": "0.0-10.0-8.0", "time_elapsed": 167963, "key_press": -1, "trial_index": 18}, "uniqueid": "MTK2432:32N49TQG3HPGAIKA4XKM6UM8AIZAVQ", "dateTime": 1517249850150}, {"current_trial": 19, "trialdata": {"rt": -1, "trial_type": "single-stim", "stimulus": "<p id=\"stim\">1</p>", "internal_node_id": "0.0-10.0-9.0", "time_elapsed": 168967, "key_press": -1, "trial_index": 19}, "uniqueid": "MTK2432:32N49TQG3HPGAIKA4XKM6UM8AIZAVQ", "dateTime": 1517249851154}, {"current_trial": 20, "trialdata": {"rt": -1, "trial_type": "single-stim", "stimulus": "<p id=\"stim\">+</p>", "internal_node_id": "0.0-11.0-0.0", "time_elapsed": 170469, "key_press": -1, "type": "FIXATION", "trial_index": 20}, "uniqueid": "MTK2432:32N49TQG3HPGAIKA4XKM6UM8AIZAVQ", "dateTime": 1517249852656}, {"current_trial": 21, "trialdata": {"rt": -1000, "trial_type": "single-audio", "word": "burglar", "stimulus": "/static/audio/wordpool/BURGLAR.wav", "conditions": [18, 1200, "a", 18000], "internal_node_id": "0.0-12.0", "trial": 0, "time_elapsed": 172779, "serialpos": 0, "key_press": -1, "wordID": 199, "type": "PRES_AUD", "trial_index": 21}, "uniqueid": "MTK2432:32N49TQG3HPGAIKA4XKM6UM8AIZAVQ", "dateTime": 1517249854967}, {"current_trial": 22, "trialdata": {"rt": -1000, "trial_type": "single-audio", "word": "teacher", "stimulus": "/static/audio/wordpool/TEACHER.wav", "conditions": [18, 1200, "a", 18000], "internal_node_id": "0.0-13.0", "trial": 0, "time_elapsed": 175158, "serialpos": 1, "key_press": -1, "wordID": 1439, "type": "PRES_AUD", "trial_index": 22}, "uniqueid": "MTK2432:32N49TQG3HPGAIKA4XKM6UM8AIZAVQ", "dateTime": 1517249857345}, {"current_trial": 23, "trialdata": {"rt": -1000, "trial_type": "single-audio", "word": "country", "stimulus": "/static/audio/wordpool/COUNTRY.wav", "conditions": [18, 1200, "a", 18000], "internal_node_id": "0.0-14.0", "trial": 0, "time_elapsed": 177191, "serialpos": 2, "key_press": -1, "wordID": 387, "type": "PRES_AUD", "trial_index": 23}, "uniqueid": "MTK2432:32N49TQG3HPGAIKA4XKM6UM8AIZAVQ", "dateTime": 1517249859378}, {"current_trial": 24, "trialdata": {"rt": -1000, "trial_type": "single-audio", "word": "label", "stimulus": "/static/audio/wordpool/LABEL.wav", "conditions": [18, 1200, "a", 18000], "internal_node_id": "0.0-15.0", "trial": 0, "time_elapsed": 179592, "serialpos": 3, "key_press": -1, "wordID": 789, "type": "PRES_AUD", "trial_index": 24}, "uniqueid": "MTK2432:32N49TQG3HPGAIKA4XKM6UM8AIZAVQ", "dateTime": 1517249861779}, {"current_trial": 25, "trialdata": {"rt": -1000, "trial_type": "single-audio", "word": "cyclone", "stimulus": "/static/audio/wordpool/CYCLONE.wav", "conditions": [18, 1200, "a", 18000], "internal_node_id": "0.0-16.0", "trial": 0, "time_elapsed": 181937, "serialpos": 4, "key_press": -1, "wordID": 430, "type": "PRES_AUD", "trial_index": 25}, "uniqueid": "MTK2432:32N49TQG3HPGAIKA4XKM6UM8AIZAVQ", "dateTime": 1517249864124}, {"current_trial": 26, "trialdata": {"rt": -1000, "trial_type": "single-audio", "word": "actress", "stimulus": "/static/audio/wordpool/ACTRESS.wav", "conditions": [18, 1200, "a", 18000], "internal_node_id": "0.0-17.0", "trial": 0, "time_elapsed": 184208, "serialpos": 5, "key_press": -1, "wordID": 5, "type": "PRES_AUD", "trial_index": 26}, "uniqueid": "MTK2432:32N49TQG3HPGAIKA4XKM6UM8AIZAVQ", "dateTime": 1517249866395}, {"current_trial": 27, "trialdata": {"rt": -1000, "trial_type": "single-audio", "word": "leopard", "stimulus": "/static/audio/wordpool/LEOPARD.wav", "conditions": [18, 1200, "a", 18000], "internal_node_id": "0.0-18.0", "trial": 0, "time_elapsed": 186350, "serialpos": 6, "key_press": -1, "wordID": 811, "type": "PRES_AUD", "trial_index": 27}, "uniqueid": "MTK2432:32N49TQG3HPGAIKA4XKM6UM8AIZAVQ", "dateTime": 1517249868537}, {"current_trial": 28, "trialdata": {"rt": -1000, "trial_type": "single-audio", "word": "flower", "stimulus": "/static/audio/wordpool/FLOWER.wav", "conditions": [18, 1200, "a", 18000], "internal_node_id": "0.0-19.0", "trial": 0, "time_elapsed": 188446, "serialpos": 7, "key_press": -1, "wordID": 583, "type": "PRES_AUD", "trial_index": 28}, "uniqueid": "MTK2432:32N49TQG3HPGAIKA4XKM6UM8AIZAVQ", "dateTime": 1517249870633}, {"current_trial": 29, "trialdata": {"rt": -1000, "trial_type": "single-audio", "word": "marine", "stimulus": "/static/audio/wordpool/MARINE.wav", "conditions": [18, 1200, "a", 18000], "internal_node_id": "0.0-20.0", "trial": 0, "time_elapsed": 190631, "serialpos": 8, "key_press": -1, "wordID": 868, "type": "PRES_AUD", "trial_index": 29}, "uniqueid": "MTK2432:32N49TQG3HPGAIKA4XKM6UM8AIZAVQ", "dateTime": 1517249872818}, {"current_trial": 30, "trialdata": {"rt": -1000, "trial_type": "single-audio", "word": "marrow", "stimulus": "/static/audio/wordpool/MARROW.wav", "conditions": [18, 1200, "a", 18000], "internal_node_id": "0.0-21.0", "trial": 0, "time_elapsed": 192895, "serialpos": 9, "key_press": -1, "wordID": 871, "type": "PRES_AUD", "trial_index": 30}, "uniqueid": "MTK2432:32N49TQG3HPGAIKA4XKM6UM8AIZAVQ", "dateTime": 1517249875082}, {"current_trial": 31, "trialdata": {"rt": -1000, "trial_type": "single-audio", "word": "preacher", "stimulus": "/static/audio/wordpool/PREACHER.wav", "conditions": [18, 1200, "a", 18000], "internal_node_id": "0.0-22.0", "trial": 0, "time_elapsed": 195295, "serialpos": 10, "key_press": -1, "wordID": 1118, "type": "PRES_AUD", "trial_index": 31}, "uniqueid": "MTK2432:32N49TQG3HPGAIKA4XKM6UM8AIZAVQ", "dateTime": 1517249877483}, {"current_trial": 32, "trialdata": {"rt": -1000, "trial_type": "single-audio", "word": "casket", "stimulus": "/static/audio/wordpool/CASKET.wav", "conditions": [18, 1200, "a", 18000], "internal_node_id": "0.0-23.0", "trial": 0, "time_elapsed": 197300, "serialpos": 11, "key_press": -1, "wordID": 254, "type": "PRES_AUD", "trial_index": 32}, "uniqueid": "MTK2432:32N49TQG3HPGAIKA4XKM6UM8AIZAVQ", "dateTime": 1517249879487}, {"current_trial": 33, "trialdata": {"rt": -1000, "trial_type": "single-audio", "word": "subway", "stimulus": "/static/audio/wordpool/SUBWAY.wav", "conditions": [18, 1200, "a", 18000], "internal_node_id": "0.0-24.0", "trial": 0, "time_elapsed": 199310, "serialpos": 12, "key_press": -1, "wordID": 1399, "type": "PRES_AUD", "trial_index": 33}, "uniqueid": "MTK2432:32N49TQG3HPGAIKA4XKM6UM8AIZAVQ", "dateTime": 1517249881497}, {"current_trial": 34, "trialdata": {"rt": -1000, "trial_type": "single-audio", "word": "robot", "stimulus": "/static/audio/wordpool/ROBOT.wav", "conditions": [18, 1200, "a", 18000], "internal_node_id": "0.0-25.0", "trial": 0, "time_elapsed": 201464, "serialpos": 13, "key_press": -1, "wordID": 1199, "type": "PRES_AUD", "trial_index": 34}, "uniqueid": "MTK2432:32N49TQG3HPGAIKA4XKM6UM8AIZAVQ", "dateTime": 1517249883651}, {"current_trial": 35, "trialdata": {"rt": -1000, "trial_type": "single-audio", "word": "money", "stimulus": "/static/audio/wordpool/MONEY.wav", "conditions": [18, 1200, "a", 18000], "internal_node_id": "0.0-26.0", "trial": 0, "time_elapsed": 203780, "serialpos": 14, "key_press": -1, "wordID": 907, "type": "PRES_AUD", "trial_index": 35}, "uniqueid": "MTK2432:32N49TQG3HPGAIKA4XKM6UM8AIZAVQ", "dateTime": 1517249885967}, {"current_trial": 36, "trialdata": {"rt": -1000, "trial_type": "single-audio", "word": "globe", "stimulus": "/static/audio/wordpool/GLOBE.wav", "conditions": [18, 1200, "a", 18000], "internal_node_id": "0.0-27.0", "trial": 0, "time_elapsed": 206076, "serialpos": 15, "key_press": -1, "wordID": 640, "type": "PRES_AUD", "trial_index": 36}, "uniqueid": "MTK2432:32N49TQG3HPGAIKA4XKM6UM8AIZAVQ", "dateTime": 1517249888264}, {"current_trial": 37, "trialdata": {"rt": -1000, "trial_type": "single-audio", "word": "snack", "stimulus": "/static/audio/wordpool/SNACK.wav", "conditions": [18, 1200, "a", 18000], "internal_node_id": "0.0-28.0", "trial": 0, "time_elapsed": 208410, "serialpos": 16, "key_press": -1, "wordID": 1330, "type": "PRES_AUD", "trial_index": 37}, "uniqueid": "MTK2432:32N49TQG3HPGAIKA4XKM6UM8AIZAVQ", "dateTime": 1517249890597}, {"current_trial": 38, "trialdata": {"rt": -1000, "trial_type": "single-audio", "word": "brandy", "stimulus": "/static/audio/wordpool/BRANDY.wav", "conditions": [18, 1200, "a", 18000], "internal_node_id": "0.0-29.0", "trial": 0, "time_elapsed": 210773, "serialpos": 17, "key_press": -1, "wordID": 168, "type": "PRES_AUD", "trial_index": 38}, "uniqueid": "MTK2432:32N49TQG3HPGAIKA4XKM6UM8AIZAVQ", "dateTime": 1517249892960}, {"current_trial": 39, "trialdata": {"rt": -1, "trial_type": "single-stim", "stimulus": "", "internal_node_id": "0.0-30.0-0.0", "time_elapsed": 212013, "key_press": -1, "type": "PRE_RECALL_DELAY", "trial_index": 39}, "uniqueid": "MTK2432:32N49TQG3HPGAIKA4XKM6UM8AIZAVQ", "dateTime": 1517249894200}, {"current_trial": 40, "trialdata": {"rt": -1000, "trial_type": "single-audio", "stimulus": "/static/audio/400Hz.wav", "internal_node_id": "0.0-31.0", "time_elapsed": 212514, "key_press": -1, "type": "PRE_RECALL_ALERT", "trial_index": 40}, "uniqueid": "MTK2432:32N49TQG3HPGAIKA4XKM6UM8AIZAVQ", "dateTime": 1517249894702}, {"current_trial": 41, "trialdata": {"rt": [3102, 5245, 6430, 8645, 9990, 13622, 17750, 28008], "recwords": ["teacher", "burglar", "money", "snack", "country", "cyclone", "hill", "juggler"], "key_times": [1807, 1822, 2006, 2118, 2214, 2374, 2462, 3102, 3918, 4278, 4342, 4581, 4734, 5014, 5101, 5245, 5574, 5734, 5774, 5926, 6030, 6430, 6662, 6853, 7053, 7190, 7686, 7965, 8109, 8206, 8334, 8645, 9038, 9199, 9414, 9462, 9574, 9710, 9798, 9990, 12544, 12669, 12864, 13165, 13341, 13406, 13526, 13622, 17077, 17277, 17462, 17581, 17750, 27129, 27312, 27513, 27656, 27728, 27856, 27920, 28008], "trial_type": "free-recall", "conditions": [18, 1200, "a", 18000], "internal_node_id": "0.0-32.0-0.0", "key_presses": [84, 69, 65, 67, 72, 69, 82, 32, 66, 85, 82, 71, 76, 65, 82, 32, 77, 79, 78, 69, 89, 32, 83, 78, 65, 75, 67, 8, 8, 67, 75, 32, 67, 79, 85, 78, 84, 82, 89, 32, 67, 89, 67, 76, 79, 78, 69, 32, 72, 73, 76, 76, 32, 74, 85, 71, 71, 76, 69, 82, 32], "trial": 0, "time_elapsed": 272521, "type": "FREE_RECALL", "trial_index": 41}, "uniqueid": "MTK2432:32N49TQG3HPGAIKA4XKM6UM8AIZAVQ", "dateTime": 1517249954710}, {"current_trial": 42, "trialdata": {"rt": 2198, "trial_type": "text", "internal_node_id": "0.0-33.0", "time_elapsed": 276726, "key_press": 75, "type": "INSTRUCTIONS", "trial_index": 42}, "uniqueid": "MTK2432:32N49TQG3HPGAIKA4XKM6UM8AIZAVQ", "dateTime": 1517249958913}, {"current_trial": 43, "trialdata": {"rt": [3202, 5226, 7827, 10514, 12058, 15499], "trial_type": "math-distractor", "key_times": [2811, 2858, 3202, 4915, 4987, 5226, 7323, 7690, 7827, 10403, 10514, 11964, 12058, 14884, 15202, 15499, 17532, 17955], "responses": ["16", "10", "13", "8", "6", "19"], "num2": [8, 1, 3, 1, 2, 9, 5], "num3": [7, 7, 5, 5, 3, 5, 7], "conditions": [18, 1200, "a", 18000], "internal_node_id": "0.0-34.0", "key_presses": [49, 54, 13, 49, 48, 13, 49, 51, 13, 56, 13, 54, 13, 49, 57, 13, 49, 53], "trial": 1, "time_elapsed": 296736, "type": "DISTRACTOR", "trial_index": 43, "num1": [1, 2, 5, 2, 1, 5, 3]}, "uniqueid": "MTK2432:32N49TQG3HPGAIKA4XKM6UM8AIZAVQ", "dateTime": 1517249978924}, {"current_trial": 44, "trialdata": {"rt": -1, "trial_type": "single-stim", "stimulus": "<p id=\"stim\">10</p>", "internal_node_id": "0.0-35.0-0.0", "time_elapsed": 299746, "key_press": -1, "trial_index": 44}, "uniqueid": "MTK2432:32N49TQG3HPGAIKA4XKM6UM8AIZAVQ", "dateTime": 1517249981934}, {"current_trial": 45, "trialdata": {"rt": -1, "trial_type": "single-stim", "stimulus": "<p id=\"stim\">9</p>", "internal_node_id": "0.0-35.0-1.0", "time_elapsed": 300752, "key_press": -1, "trial_index": 45}, "uniqueid": "MTK2432:32N49TQG3HPGAIKA4XKM6UM8AIZAVQ", "dateTime": 1517249982939}, {"current_trial": 46, "trialdata": {"rt": -1, "trial_type": "single-stim", "stimulus": "<p id=\"stim\">8</p>", "internal_node_id": "0.0-35.0-2.0", "time_elapsed": 301756, "key_press": -1, "trial_index": 46}, "uniqueid": "MTK2432:32N49TQG3HPGAIKA4XKM6UM8AIZAVQ", "dateTime": 1517249983943}, {"current_trial": 47, "trialdata": {"rt": -1, "trial_type": "single-stim", "stimulus": "<p id=\"stim\">7</p>", "internal_node_id": "0.0-35.0-3.0", "time_elapsed": 302760, "key_press": -1, "trial_index": 47}, "uniqueid": "MTK2432:32N49TQG3HPGAIKA4XKM6UM8AIZAVQ", "dateTime": 1517249984948}, {"current_trial": 48, "trialdata": {"rt": -1, "trial_type": "single-stim", "stimulus": "<p id=\"stim\">6</p>", "internal_node_id": "0.0-35.0-4.0", "time_elapsed": 303766, "key_press": -1, "trial_index": 48}, "uniqueid": "MTK2432:32N49TQG3HPGAIKA4XKM6UM8AIZAVQ", "dateTime": 1517249985954}, {"current_trial": 49, "trialdata": {"rt": -1, "trial_type": "single-stim", "stimulus": "<p id=\"stim\">5</p>", "internal_node_id": "0.0-35.0-5.0", "time_elapsed": 304772, "key_press": -1, "trial_index": 49}, "uniqueid": "MTK2432:32N49TQG3HPGAIKA4XKM6UM8AIZAVQ", "dateTime": 1517249986960}, {"current_trial": 50, "trialdata": {"rt": -1, "trial_type": "single-stim", "stimulus": "<p id=\"stim\">4</p>", "internal_node_id": "0.0-35.0-6.0", "time_elapsed": 305777, "key_press": -1, "trial_index": 50}, "uniqueid": "MTK2432:32N49TQG3HPGAIKA4XKM6UM8AIZAVQ", "dateTime": 1517249987964}, {"current_trial": 51, "trialdata": {"rt": -1, "trial_type": "single-stim", "stimulus": "<p id=\"stim\">3</p>", "internal_node_id": "0.0-35.0-7.0", "time_elapsed": 306781, "key_press": -1, "trial_index": 51}, "uniqueid": "MTK2432:32N49TQG3HPGAIKA4XKM6UM8AIZAVQ", "dateTime": 1517249988968}, {"current_trial": 52, "trialdata": {"rt": -1, "trial_type": "single-stim", "stimulus": "<p id=\"stim\">2</p>", "internal_node_id": "0.0-35.0-8.0", "time_elapsed": 307785, "key_press": -1, "trial_index": 52}, "uniqueid": "MTK2432:32N49TQG3HPGAIKA4XKM6UM8AIZAVQ", "dateTime": 1517249989972}, {"current_trial": 53, "trialdata": {"rt": -1, "trial_type": "single-stim", "stimulus": "<p id=\"stim\">1</p>", "internal_node_id": "0.0-35.0-9.0", "time_elapsed": 308789, "key_press": -1, "trial_index": 53}, "uniqueid": "MTK2432:32N49TQG3HPGAIKA4XKM6UM8AIZAVQ", "dateTime": 1517249990976}, {"current_trial": 54, "trialdata": {"rt": -1, "trial_type": "single-stim", "stimulus": "<p id=\"stim\">+</p>", "internal_node_id": "0.0-36.0-0.0", "time_elapsed": 310294, "key_press": -1, "type": "FIXATION", "trial_index": 54}, "uniqueid": "MTK2432:32N49TQG3HPGAIKA4XKM6UM8AIZAVQ", "dateTime": 1517249992481}, {"current_trial": 55, "trialdata": {"rt": -1000, "trial_type": "single-audio", "word": "supper", "stimulus": "/static/audio/wordpool/SUPPER.wav", "conditions": [18, 1200, "a", 18000], "internal_node_id": "0.0-37.0", "trial": 1, "time_elapsed": 312693, "serialpos": 0, "key_press": -1, "wordID": 1410, "type": "PRES_AUD", "trial_index": 55}, "uniqueid": "MTK2432:32N49TQG3HPGAIKA4XKM6UM8AIZAVQ", "dateTime": 1517249994880}, {"current_trial": 56, "trialdata": {"rt": -1000, "trial_type": "single-audio", "word": "chemist", "stimulus": "/static/audio/wordpool/CHEMIST.wav", "conditions": [18, 1200, "a", 18000], "internal_node_id": "0.0-38.0", "trial": 1, "time_elapsed": 315010, "serialpos": 1, "key_press": -1, "wordID": 291, "type": "PRES_AUD", "trial_index": 56}, "uniqueid": "MTK2432:32N49TQG3HPGAIKA4XKM6UM8AIZAVQ", "dateTime": 1517249997197}, {"current_trial": 57, "trialdata": {"rt": -1000, "trial_type": "single-audio", "word": "rooster", "stimulus": "/static/audio/wordpool/ROOSTER.wav", "conditions": [18, 1200, "a", 18000], "internal_node_id": "0.0-39.0", "trial": 1, "time_elapsed": 317355, "serialpos": 2, "key_press": -1, "wordID": 1208, "type": "PRES_AUD", "trial_index": 57}, "uniqueid": "MTK2432:32N49TQG3HPGAIKA4XKM6UM8AIZAVQ", "dateTime": 1517249999542}, {"current_trial": 58, "trialdata": {"rt": -1000, "trial_type": "single-audio", "word": "napkin", "stimulus": "/static/audio/wordpool/NAPKIN.wav", "conditions": [18, 1200, "a", 18000], "internal_node_id": "0.0-40.0", "trial": 1, "time_elapsed": 319362, "serialpos": 3, "key_press": -1, "wordID": 936, "type": "PRES_AUD", "trial_index": 58}, "uniqueid": "MTK2432:32N49TQG3HPGAIKA4XKM6UM8AIZAVQ", "dateTime": 1517250001550}, {"current_trial": 59, "trialdata": {"rt": -1000, "trial_type": "single-audio", "word": "stove", "stimulus": "/static/audio/wordpool/STOVE.wav", "conditions": [18, 1200, "a", 18000], "internal_node_id": "0.0-41.0", "trial": 1, "time_elapsed": 321545, "serialpos": 4, "key_press": -1, "wordID": 1387, "type": "PRES_AUD", "trial_index": 59}, "uniqueid": "MTK2432:32N49TQG3HPGAIKA4XKM6UM8AIZAVQ", "dateTime": 1517250003732}, {"current_trial": 60, "trialdata": {"rt": -1000, "trial_type": "single-audio", "word": "snail", "stimulus": "/static/audio/wordpool/SNAIL.wav", "conditions": [18, 1200, "a", 18000], "internal_node_id": "0.0-42.0", "trial": 1, "time_elapsed": 323564, "serialpos": 5, "key_press": -1, "wordID": 1331, "type": "PRES_AUD", "trial_index": 60}, "uniqueid": "MTK2432:32N49TQG3HPGAIKA4XKM6UM8AIZAVQ", "dateTime": 1517250005751}, {"current_trial": 61, "trialdata": {"rt": -1000, "trial_type": "single-audio", "word": "cabin", "stimulus": "/static/audio/wordpool/CABIN.wav", "conditions": [18, 1200, "a", 18000], "internal_node_id": "0.0-43.0", "trial": 1, "time_elapsed": 325899, "serialpos": 6, "key_press": -1, "wordID": 210, "type": "PRES_AUD", "trial_index": 61}, "uniqueid": "MTK2432:32N49TQG3HPGAIKA4XKM6UM8AIZAVQ", "dateTime": 1517250008086}, {"current_trial": 62, "trialdata": {"rt": -1000, "trial_type": "single-audio", "word": "outfit", "stimulus": "/static/audio/wordpool/OUTFIT.wav", "conditions": [18, 1200, "a", 18000], "internal_node_id": "0.0-44.0", "trial": 1, "time_elapsed": 328272, "serialpos": 7, "key_press": -1, "wordID": 987, "type": "PRES_AUD", "trial_index": 62}, "uniqueid": "MTK2432:32N49TQG3HPGAIKA4XKM6UM8AIZAVQ", "dateTime": 1517250010459}, {"current_trial": 63, "trialdata": {"rt": -1000, "trial_type": "single-audio", "word": "virus", "stimulus": "/static/audio/wordpool/VIRUS.wav", "conditions": [18, 1200, "a", 18000], "internal_node_id": "0.0-45.0", "trial": 1, "time_elapsed": 330372, "serialpos": 8, "key_press": -1, "wordID": 1571, "type": "PRES_AUD", "trial_index": 63}, "uniqueid": "MTK2432:32N49TQG3HPGAIKA4XKM6UM8AIZAVQ", "dateTime": 1517250012560}, {"current_trial": 64, "trialdata": {"rt": -1000, "trial_type": "single-audio", "word": "servant", "stimulus": "/static/audio/wordpool/SERVANT.wav", "conditions": [18, 1200, "a", 18000], "internal_node_id": "0.0-46.0", "trial": 1, "time_elapsed": 332492, "serialpos": 9, "key_press": -1, "wordID": 1270, "type": "PRES_AUD", "trial_index": 64}, "uniqueid": "MTK2432:32N49TQG3HPGAIKA4XKM6UM8AIZAVQ", "dateTime": 1517250014679}, {"current_trial": 65, "trialdata": {"rt": -1000, "trial_type": "single-audio", "word": "onion", "stimulus": "/static/audio/wordpool/ONION.wav", "conditions": [18, 1200, "a", 18000], "internal_node_id": "0.0-47.0", "trial": 1, "time_elapsed": 334517, "serialpos": 10, "key_press": -1, "wordID": 976, "type": "PRES_AUD", "trial_index": 65}, "uniqueid": "MTK2432:32N49TQG3HPGAIKA4XKM6UM8AIZAVQ", "dateTime": 1517250016704}, {"current_trial": 66, "trialdata": {"rt": -1000, "trial_type": "single-audio", "word": "lipstick", "stimulus": "/static/audio/wordpool/LIPSTICK.wav", "conditions": [18, 1200, "a", 18000], "internal_node_id": "0.0-48.0", "trial": 1, "time_elapsed": 336553, "serialpos": 11, "key_press": -1, "wordID": 828, "type": "PRES_AUD", "trial_index": 66}, "uniqueid": "MTK2432:32N49TQG3HPGAIKA4XKM6UM8AIZAVQ", "dateTime": 1517250018740}, {"current_trial": 67, "trialdata": {"rt": -1000, "trial_type": "single-audio", "word": "seal", "stimulus": "/static/audio/wordpool/SEAL.wav", "conditions": [18, 1200, "a", 18000], "internal_node_id": "0.0-49.0", "trial": 1, "time_elapsed": 338863, "serialpos": 12, "key_press": -1, "wordID": 1261, "type": "PRES_AUD", "trial_index": 67}, "uniqueid": "MTK2432:32N49TQG3HPGAIKA4XKM6UM8AIZAVQ", "dateTime": 1517250021050}, {"current_trial": 68, "trialdata": {"rt": -1000, "trial_type": "single-audio", "word": "crevice", "stimulus": "/static/audio/wordpool/CREVICE.wav", "conditions": [18, 1200, "a", 18000], "internal_node_id": "0.0-50.0", "trial": 1, "time_elapsed": 341207, "serialpos": 13, "key_press": -1, "wordID": 404, "type": "PRES_AUD", "trial_index": 68}, "uniqueid": "MTK2432:32N49TQG3HPGAIKA4XKM6UM8AIZAVQ", "dateTime": 1517250023396}, {"current_trial": 69, "trialdata": {"rt": -1000, "trial_type": "single-audio", "word": "pocket", "stimulus": "/static/audio/wordpool/POCKET.wav", "conditions": [18, 1200, "a", 18000], "internal_node_id": "0.0-51.0", "trial": 1, "time_elapsed": 343519, "serialpos": 14, "key_press": -1, "wordID": 1092, "type": "PRES_AUD", "trial_index": 69}, "uniqueid": "MTK2432:32N49TQG3HPGAIKA4XKM6UM8AIZAVQ", "dateTime": 1517250025706}, {"current_trial": 70, "trialdata": {"rt": -1000, "trial_type": "single-audio", "word": "xerox", "stimulus": "/static/audio/wordpool/XEROX.wav", "conditions": [18, 1200, "a", 18000], "internal_node_id": "0.0-52.0", "trial": 1, "time_elapsed": 345897, "serialpos": 15, "key_press": -1, "wordID": 1627, "type": "PRES_AUD", "trial_index": 70}, "uniqueid": "MTK2432:32N49TQG3HPGAIKA4XKM6UM8AIZAVQ", "dateTime": 1517250028084}, {"current_trial": 71, "trialdata": {"rt": -1000, "trial_type": "single-audio", "word": "lamp", "stimulus": "/static/audio/wordpool/LAMP.wav", "conditions": [18, 1200, "a", 18000], "internal_node_id": "0.0-53.0", "trial": 1, "time_elapsed": 348109, "serialpos": 16, "key_press": -1, "wordID": 797, "type": "PRES_AUD", "trial_index": 71}, "uniqueid": "MTK2432:32N49TQG3HPGAIKA4XKM6UM8AIZAVQ", "dateTime": 1517250030296}, {"current_trial": 72, "trialdata": {"rt": -1000, "trial_type": "single-audio", "word": "braces", "stimulus": "/static/audio/wordpool/BRACES.wav", "conditions": [18, 1200, "a", 18000], "internal_node_id": "0.0-54.0", "trial": 1, "time_elapsed": 350184, "serialpos": 17, "key_press": -1, "wordID": 163, "type": "PRES_AUD", "trial_index": 72}, "uniqueid": "MTK2432:32N49TQG3HPGAIKA4XKM6UM8AIZAVQ", "dateTime": 1517250032371}, {"current_trial": 73, "trialdata": {"rt": -1, "trial_type": "single-stim", "stimulus": "", "internal_node_id": "0.0-55.0-0.0", "time_elapsed": 351487, "key_press": -1, "type": "PRE_RECALL_DELAY", "trial_index": 73}, "uniqueid": "MTK2432:32N49TQG3HPGAIKA4XKM6UM8AIZAVQ", "dateTime": 1517250033675}, {"current_trial": 74, "trialdata": {"rt": -1000, "trial_type": "single-audio", "stimulus": "/static/audio/400Hz.wav", "internal_node_id": "0.0-56.0", "time_elapsed": 351989, "key_press": -1, "type": "PRE_RECALL_ALERT", "trial_index": 74}, "uniqueid": "MTK2432:32N49TQG3HPGAIKA4XKM6UM8AIZAVQ", "dateTime": 1517250034176}, {"current_trial": 75, "trialdata": {"rt": [2238, 5054, 6254, 7582, 19782, 23502], "recwords": ["onion", "servant", "lamp", "braces", "virus", "xerox"], "key_times": [1087, 1198, 1406, 1887, 1950, 2238, 2494, 2710, 3191, 4198, 4383, 4870, 4926, 5054, 5736, 5854, 5926, 6070, 6254, 6814, 6878, 7046, 7143, 7286, 7479, 7582, 18630, 18901, 18997, 19542, 19670, 19782, 22622, 22918, 23054, 23223, 23310, 23502], "trial_type": "free-recall", "conditions": [18, 1200, "a", 18000], "internal_node_id": "0.0-57.0-0.0", "key_presses": [79, 78, 73, 79, 78, 32, 83, 69, 82, 86, 65, 78, 84, 32, 76, 65, 77, 80, 32, 66, 82, 65, 67, 69, 83, 32, 86, 73, 82, 85, 83, 32, 88, 69, 82, 79, 88, 32], "trial": 1, "time_elapsed": 411994, "type": "FREE_RECALL", "trial_index": 75}, "uniqueid": "MTK2432:32N49TQG3HPGAIKA4XKM6UM8AIZAVQ", "dateTime": 1517250094183}, {"current_trial": 76, "trialdata": {"rt": 9745, "trial_type": "text", "internal_node_id": "0.0-58.0", "time_elapsed": 423746, "key_press": 76, "type": "INSTRUCTIONS", "trial_index": 76}, "uniqueid": "MTK2432:32N49TQG3HPGAIKA4XKM6UM8AIZAVQ", "dateTime": 1517250105934}, {"current_trial": 77, "trialdata": {"rt": [3992, 7480, 11227, 14203, 16971, 19188, 21157, 23507], "trial_type": "math-distractor", "key_times": [3489, 3681, 3992, 7169, 7344, 7480, 11036, 11164, 11227, 13899, 14075, 14203, 16516, 16707, 16971, 18795, 18923, 19188, 20883, 21157, 23043, 23219, 23507], "responses": ["16", "23", "11", "21", "20", "20", "9", "20"], "num2": [4, 6, 5, 5, 9, 7, 1, 7, 7], "num3": [3, 9, 4, 8, 8, 8, 4, 6, 7], "conditions": [24, 1600, "a", 24000], "internal_node_id": "0.0-59.0", "key_presses": [49, 54, 13, 50, 51, 13, 49, 49, 13, 50, 49, 13, 50, 48, 13, 50, 48, 13, 57, 13, 50, 48, 13], "trial": 2, "time_elapsed": 448756, "type": "DISTRACTOR", "trial_index": 77, "num1": [9, 8, 2, 8, 3, 5, 4, 7, 2]}, "uniqueid": "MTK2432:32N49TQG3HPGAIKA4XKM6UM8AIZAVQ", "dateTime": 1517250130943}, {"current_trial": 78, "trialdata": {"rt": -1, "trial_type": "single-stim", "stimulus": "<p id=\"stim\">10</p>", "internal_node_id": "0.0-60.0-0.0", "time_elapsed": 451764, "key_press": -1, "trial_index": 78}, "uniqueid": "MTK2432:32N49TQG3HPGAIKA4XKM6UM8AIZAVQ", "dateTime": 1517250133951}, {"current_trial": 79, "trialdata": {"rt": -1, "trial_type": "single-stim", "stimulus": "<p id=\"stim\">9</p>", "internal_node_id": "0.0-60.0-1.0", "time_elapsed": 452770, "key_press": -1, "trial_index": 79}, "uniqueid": "MTK2432:32N49TQG3HPGAIKA4XKM6UM8AIZAVQ", "dateTime": 1517250134957}, {"current_trial": 80, "trialdata": {"rt": -1, "trial_type": "single-stim", "stimulus": "<p id=\"stim\">8</p>", "internal_node_id": "0.0-60.0-2.0", "time_elapsed": 453776, "key_press": -1, "trial_index": 80}, "uniqueid": "MTK2432:32N49TQG3HPGAIKA4XKM6UM8AIZAVQ", "dateTime": 1517250135963}, {"current_trial": 81, "trialdata": {"rt": -1, "trial_type": "single-stim", "stimulus": "<p id=\"stim\">7</p>", "internal_node_id": "0.0-60.0-3.0", "time_elapsed": 454782, "key_press": -1, "trial_index": 81}, "uniqueid": "MTK2432:32N49TQG3HPGAIKA4XKM6UM8AIZAVQ", "dateTime": 1517250136969}, {"current_trial": 82, "trialdata": {"rt": -1, "trial_type": "single-stim", "stimulus": "<p id=\"stim\">6</p>", "internal_node_id": "0.0-60.0-4.0", "time_elapsed": 455786, "key_press": -1, "trial_index": 82}, "uniqueid": "MTK2432:32N49TQG3HPGAIKA4XKM6UM8AIZAVQ", "dateTime": 1517250137973}, {"current_trial": 83, "trialdata": {"rt": -1, "trial_type": "single-stim", "stimulus": "<p id=\"stim\">5</p>", "internal_node_id": "0.0-60.0-5.0", "time_elapsed": 456792, "key_press": -1, "trial_index": 83}, "uniqueid": "MTK2432:32N49TQG3HPGAIKA4XKM6UM8AIZAVQ", "dateTime": 1517250138979}, {"current_trial": 84, "trialdata": {"rt": -1, "trial_type": "single-stim", "stimulus": "<p id=\"stim\">4</p>", "internal_node_id": "0.0-60.0-6.0", "time_elapsed": 457798, "key_press": -1, "trial_index": 84}, "uniqueid": "MTK2432:32N49TQG3HPGAIKA4XKM6UM8AIZAVQ", "dateTime": 1517250139985}, {"current_trial": 85, "trialdata": {"rt": -1, "trial_type": "single-stim", "stimulus": "<p id=\"stim\">3</p>", "internal_node_id": "0.0-60.0-7.0", "time_elapsed": 458802, "key_press": -1, "trial_index": 85}, "uniqueid": "MTK2432:32N49TQG3HPGAIKA4XKM6UM8AIZAVQ", "dateTime": 1517250140989}, {"current_trial": 86, "trialdata": {"rt": -1, "trial_type": "single-stim", "stimulus": "<p id=\"stim\">2</p>", "internal_node_id": "0.0-60.0-8.0", "time_elapsed": 459806, "key_press": -1, "trial_index": 86}, "uniqueid": "MTK2432:32N49TQG3HPGAIKA4XKM6UM8AIZAVQ", "dateTime": 1517250141993}, {"current_trial": 87, "trialdata": {"rt": -1, "trial_type": "single-stim", "stimulus": "<p id=\"stim\">1</p>", "internal_node_id": "0.0-60.0-9.0", "time_elapsed": 460810, "key_press": -1, "trial_index": 87}, "uniqueid": "MTK2432:32N49TQG3HPGAIKA4XKM6UM8AIZAVQ", "dateTime": 1517250142997}, {"current_trial": 88, "trialdata": {"rt": -1, "trial_type": "single-stim", "stimulus": "<p id=\"stim\">+</p>", "internal_node_id": "0.0-61.0-0.0", "time_elapsed": 462315, "key_press": -1, "type": "FIXATION", "trial_index": 88}, "uniqueid": "MTK2432:32N49TQG3HPGAIKA4XKM6UM8AIZAVQ", "dateTime": 1517250144502}, {"current_trial": 89, "trialdata": {"rt": -1000, "trial_type": "single-audio", "word": "lightning", "stimulus": "/static/audio/wordpool/LIGHTNING.wav", "conditions": [24, 1600, "a", 24000], "internal_node_id": "0.0-62.0", "trial": 2, "time_elapsed": 464941, "serialpos": 0, "key_press": -1, "wordID": 819, "type": "PRES_AUD", "trial_index": 89}, "uniqueid": "MTK2432:32N49TQG3HPGAIKA4XKM6UM8AIZAVQ", "dateTime": 1517250147128}, {"current_trial": 90, "trialdata": {"rt": -1000, "trial_type": "single-audio", "word": "friend", "stimulus": "/static/audio/wordpool/FRIEND.wav", "conditions": [24, 1600, "a", 24000], "internal_node_id": "0.0-63.0", "trial": 2, "time_elapsed": 467448, "serialpos": 1, "key_press": -1, "wordID": 605, "type": "PRES_AUD", "trial_index": 90}, "uniqueid": "MTK2432:32N49TQG3HPGAIKA4XKM6UM8AIZAVQ", "dateTime": 1517250149635}, {"current_trial": 91, "trialdata": {"rt": -1000, "trial_type": "single-audio", "word": "lover", "stimulus": "/static/audio/wordpool/LOVER.wav", "conditions": [24, 1600, "a", 24000], "internal_node_id": "0.0-64.0", "trial": 2, "time_elapsed": 470068, "serialpos": 2, "key_press": -1, "wordID": 845, "type": "PRES_AUD", "trial_index": 91}, "uniqueid": "MTK2432:32N49TQG3HPGAIKA4XKM6UM8AIZAVQ", "dateTime": 1517250152255}, {"current_trial": 92, "trialdata": {"rt": -1000, "trial_type": "single-audio", "word": "notebook", "stimulus": "/static/audio/wordpool/NOTEBOOK.wav", "conditions": [24, 1600, "a", 24000], "internal_node_id": "0.0-65.0", "trial": 2, "time_elapsed": 472608, "serialpos": 3, "key_press": -1, "wordID": 958, "type": "PRES_AUD", "trial_index": 92}, "uniqueid": "MTK2432:32N49TQG3HPGAIKA4XKM6UM8AIZAVQ", "dateTime": 1517250154795}, {"current_trial": 93, "trialdata": {"rt": -1000, "trial_type": "single-audio", "word": "hedge", "stimulus": "/static/audio/wordpool/HEDGE.wav", "conditions": [24, 1600, "a", 24000], "internal_node_id": "0.0-66.0", "trial": 2, "time_elapsed": 475378, "serialpos": 4, "key_press": -1, "wordID": 698, "type": "PRES_AUD", "trial_index": 93}, "uniqueid": "MTK2432:32N49TQG3HPGAIKA4XKM6UM8AIZAVQ", "dateTime": 1517250157565}, {"current_trial": 94, "trialdata": {"rt": -1000, "trial_type": "single-audio", "word": "coin", "stimulus": "/static/audio/wordpool/COIN.wav", "conditions": [24, 1600, "a", 24000], "internal_node_id": "0.0-67.0", "trial": 2, "time_elapsed": 478029, "serialpos": 5, "key_press": -1, "wordID": 342, "type": "PRES_AUD", "trial_index": 94}, "uniqueid": "MTK2432:32N49TQG3HPGAIKA4XKM6UM8AIZAVQ", "dateTime": 1517250160217}, {"current_trial": 95, "trialdata": {"rt": -1000, "trial_type": "single-audio", "word": "patient", "stimulus": "/static/audio/wordpool/PATIENT.wav", "conditions": [24, 1600, "a", 24000], "internal_node_id": "0.0-68.0", "trial": 2, "time_elapsed": 480536, "serialpos": 6, "key_press": -1, "wordID": 1023, "type": "PRES_AUD", "trial_index": 95}, "uniqueid": "MTK2432:32N49TQG3HPGAIKA4XKM6UM8AIZAVQ", "dateTime": 1517250162723}, {"current_trial": 96, "trialdata": {"rt": -1000, "trial_type": "single-audio", "word": "bug", "stimulus": "/static/audio/wordpool/BUG.wav", "conditions": [24, 1600, "a", 24000], "internal_node_id": "0.0-69.0", "trial": 2, "time_elapsed": 483306, "serialpos": 7, "key_press": -1, "wordID": 186, "type": "PRES_AUD", "trial_index": 96}, "uniqueid": "MTK2432:32N49TQG3HPGAIKA4XKM6UM8AIZAVQ", "dateTime": 1517250165494}, {"current_trial": 97, "trialdata": {"rt": -1000, "trial_type": "single-audio", "word": "grill", "stimulus": "/static/audio/wordpool/GRILL.wav", "conditions": [24, 1600, "a", 24000], "internal_node_id": "0.0-70.0", "trial": 2, "time_elapsed": 485789, "serialpos": 8, "key_press": -1, "wordID": 660, "type": "PRES_AUD", "trial_index": 97}, "uniqueid": "MTK2432:32N49TQG3HPGAIKA4XKM6UM8AIZAVQ", "dateTime": 1517250167976}, {"current_trial": 98, "trialdata": {"rt": -1000, "trial_type": "single-audio", "word": "nurse", "stimulus": "/static/audio/wordpool/NURSE.wav", "conditions": [24, 1600, "a", 24000], "internal_node_id": "0.0-71.0", "trial": 2, "time_elapsed": 488215, "serialpos": 9, "key_press": -1, "wordID": 962, "type": "PRES_AUD", "trial_index": 98}, "uniqueid": "MTK2432:32N49TQG3HPGAIKA4XKM6UM8AIZAVQ", "dateTime": 1517250170402}, {"current_trial": 99, "trialdata": {"rt": -1000, "trial_type": "single-audio", "word": "chapel", "stimulus": "/static/audio/wordpool/CHAPEL.wav", "conditions": [24, 1600, "a", 24000], "internal_node_id": "0.0-72.0", "trial": 2, "time_elapsed": 490658, "serialpos": 10, "key_press": -1, "wordID": 279, "type": "PRES_AUD", "trial_index": 99}, "uniqueid": "MTK2432:32N49TQG3HPGAIKA4XKM6UM8AIZAVQ", "dateTime": 1517250172845}, {"current_trial": 100, "trialdata": {"rt": -1000, "trial_type": "single-audio", "word": "apron", "stimulus": "/static/audio/wordpool/APRON.wav", "conditions": [24, 1600, "a", 24000], "internal_node_id": "0.0-73.0", "trial": 2, "time_elapsed": 493183, "serialpos": 11, "key_press": -1, "wordID": 34, "type": "PRES_AUD", "trial_index": 100}, "uniqueid": "MTK2432:32N49TQG3HPGAIKA4XKM6UM8AIZAVQ", "dateTime": 1517250175370}, {"current_trial": 101, "trialdata": {"rt": -1000, "trial_type": "single-audio", "word": "transplant", "stimulus": "/static/audio/wordpool/TRANSPLANT.wav", "conditions": [24, 1600, "a", 24000], "internal_node_id": "0.0-74.0", "trial": 2, "time_elapsed": 495678, "serialpos": 12, "key_press": -1, "wordID": 1495, "type": "PRES_AUD", "trial_index": 101}, "uniqueid": "MTK2432:32N49TQG3HPGAIKA4XKM6UM8AIZAVQ", "dateTime": 1517250177865}, {"current_trial": 102, "trialdata": {"rt": -1000, "trial_type": "single-audio", "word": "buggy", "stimulus": "/static/audio/wordpool/BUGGY.wav", "conditions": [24, 1600, "a", 24000], "internal_node_id": "0.0-75.0", "trial": 2, "time_elapsed": 498284, "serialpos": 13, "key_press": -1, "wordID": 187, "type": "PRES_AUD", "trial_index": 102}, "uniqueid": "MTK2432:32N49TQG3HPGAIKA4XKM6UM8AIZAVQ", "dateTime": 1517250180471}, {"current_trial": 103, "trialdata": {"rt": -1000, "trial_type": "single-audio", "word": "tablet", "stimulus": "/static/audio/wordpool/TABLET.wav", "conditions": [24, 1600, "a", 24000], "internal_node_id": "0.0-76.0", "trial": 2, "time_elapsed": 500751, "serialpos": 14, "key_press": -1, "wordID": 1426, "type": "PRES_AUD", "trial_index": 103}, "uniqueid": "MTK2432:32N49TQG3HPGAIKA4XKM6UM8AIZAVQ", "dateTime": 1517250182938}, {"current_trial": 104, "trialdata": {"rt": -1000, "trial_type": "single-audio", "word": "knife", "stimulus": "/static/audio/wordpool/KNIFE.wav", "conditions": [24, 1600, "a", 24000], "internal_node_id": "0.0-77.0", "trial": 2, "time_elapsed": 503258, "serialpos": 15, "key_press": -1, "wordID": 784, "type": "PRES_AUD", "trial_index": 104}, "uniqueid": "MTK2432:32N49TQG3HPGAIKA4XKM6UM8AIZAVQ", "dateTime": 1517250185445}, {"current_trial": 105, "trialdata": {"rt": -1000, "trial_type": "single-audio", "word": "pistol", "stimulus": "/static/audio/wordpool/PISTOL.wav", "conditions": [24, 1600, "a", 24000], "internal_node_id": "0.0-78.0", "trial": 2, "time_elapsed": 505870, "serialpos": 16, "key_press": -1, "wordID": 1074, "type": "PRES_AUD", "trial_index": 105}, "uniqueid": "MTK2432:32N49TQG3HPGAIKA4XKM6UM8AIZAVQ", "dateTime": 1517250188057}, {"current_trial": 106, "trialdata": {"rt": -1000, "trial_type": "single-audio", "word": "cook", "stimulus": "/static/audio/wordpool/COOK.wav", "conditions": [24, 1600, "a", 24000], "internal_node_id": "0.0-79.0", "trial": 2, "time_elapsed": 508558, "serialpos": 17, "key_press": -1, "wordID": 371, "type": "PRES_AUD", "trial_index": 106}, "uniqueid": "MTK2432:32N49TQG3HPGAIKA4XKM6UM8AIZAVQ", "dateTime": 1517250190745}, {"current_trial": 107, "trialdata": {"rt": -1000, "trial_type": "single-audio", "word": "freckle", "stimulus": "/static/audio/wordpool/FRECKLE.wav", "conditions": [24, 1600, "a", 24000], "internal_node_id": "0.0-80.0", "trial": 2, "time_elapsed": 510971, "serialpos": 18, "key_press": -1, "wordID": 601, "type": "PRES_AUD", "trial_index": 107}, "uniqueid": "MTK2432:32N49TQG3HPGAIKA4XKM6UM8AIZAVQ", "dateTime": 1517250193158}, {"current_trial": 108, "trialdata": {"rt": -1000, "trial_type": "single-audio", "word": "barrel", "stimulus": "/static/audio/wordpool/BARREL.wav", "conditions": [24, 1600, "a", 24000], "internal_node_id": "0.0-81.0", "trial": 2, "time_elapsed": 513554, "serialpos": 19, "key_press": -1, "wordID": 90, "type": "PRES_AUD", "trial_index": 108}, "uniqueid": "MTK2432:32N49TQG3HPGAIKA4XKM6UM8AIZAVQ", "dateTime": 1517250195741}, {"current_trial": 109, "trialdata": {"rt": -1000, "trial_type": "single-audio", "word": "branch", "stimulus": "/static/audio/wordpool/BRANCH.wav", "conditions": [24, 1600, "a", 24000], "internal_node_id": "0.0-82.0", "trial": 2, "time_elapsed": 516296, "serialpos": 20, "key_press": -1, "wordID": 167, "type": "PRES_AUD", "trial_index": 109}, "uniqueid": "MTK2432:32N49TQG3HPGAIKA4XKM6UM8AIZAVQ", "dateTime": 1517250198483}, {"current_trial": 110, "trialdata": {"rt": -1000, "trial_type": "single-audio", "word": "plaster", "stimulus": "/static/audio/wordpool/PLASTER.wav", "conditions": [24, 1600, "a", 24000], "internal_node_id": "0.0-83.0", "trial": 2, "time_elapsed": 518812, "serialpos": 21, "key_press": -1, "wordID": 1084, "type": "PRES_AUD", "trial_index": 110}, "uniqueid": "MTK2432:32N49TQG3HPGAIKA4XKM6UM8AIZAVQ", "dateTime": 1517250200999}, {"current_trial": 111, "trialdata": {"rt": -1000, "trial_type": "single-audio", "word": "kidney", "stimulus": "/static/audio/wordpool/KIDNEY.wav", "conditions": [24, 1600, "a", 24000], "internal_node_id": "0.0-84.0", "trial": 2, "time_elapsed": 521523, "serialpos": 22, "key_press": -1, "wordID": 775, "type": "PRES_AUD", "trial_index": 111}, "uniqueid": "MTK2432:32N49TQG3HPGAIKA4XKM6UM8AIZAVQ", "dateTime": 1517250203710}, {"current_trial": 112, "trialdata": {"rt": -1000, "trial_type": "single-audio", "word": "kitchen", "stimulus": "/static/audio/wordpool/KITCHEN.wav", "conditions": [24, 1600, "a", 24000], "internal_node_id": "0.0-85.0", "trial": 2, "time_elapsed": 524129, "serialpos": 23, "key_press": -1, "wordID": 777, "type": "PRES_AUD", "trial_index": 112}, "uniqueid": "MTK2432:32N49TQG3HPGAIKA4XKM6UM8AIZAVQ", "dateTime": 1517250206316}, {"current_trial": 113, "trialdata": {"rt": -1, "trial_type": "single-stim", "stimulus": "", "internal_node_id": "0.0-86.0-0.0", "time_elapsed": 525500, "key_press": -1, "type": "PRE_RECALL_DELAY", "trial_index": 113}, "uniqueid": "MTK2432:32N49TQG3HPGAIKA4XKM6UM8AIZAVQ", "dateTime": 1517250207687}, {"current_trial": 114, "trialdata": {"rt": -1000, "trial_type": "single-audio", "stimulus": "/static/audio/400Hz.wav", "internal_node_id": "0.0-87.0", "time_elapsed": 526001, "key_press": -1, "type": "PRE_RECALL_ALERT", "trial_index": 114}, "uniqueid": "MTK2432:32N49TQG3HPGAIKA4XKM6UM8AIZAVQ", "dateTime": 1517250208189}, {"current_trial": 115, "trialdata": {"rt": [2609, 6954, 8673, 10513, 11801, 14074, 16297, 27846, 29758, 37590, 39029, 45572, 57812], "recwords": ["nurse", "transplant", "bug", "buggy", "kitchen", "knife", "cabinet", "branch", "stove", "lightning", "friend", "kidney", "lamp"], "key_times": [1267, 1433, 1505, 1713, 1907, 2609, 2978, 3499, 3579, 3729, 3969, 4081, 4178, 4682, 4761, 4849, 4938, 5105, 5561, 5729, 6265, 6401, 6602, 6649, 6954, 7890, 8217, 8329, 8673, 8937, 9057, 9156, 9305, 9971, 10513, 10769, 10970, 11033, 11259, 11346, 11521, 11618, 11801, 12370, 12690, 13075, 13290, 13418, 13506, 13657, 14074, 15297, 15433, 15569, 15721, 15906, 15969, 16153, 16297, 25726, 25798, 26102, 26686, 26774, 26950, 27062, 27262, 27846, 29022, 29285, 29381, 29525, 29669, 29758, 35806, 36021, 36197, 36316, 36453, 36644, 36820, 37062, 37212, 37590, 38309, 38477, 38588, 38660, 38773, 38861, 39029, 44188, 44876, 44980, 45108, 45244, 45367, 45572, 57181, 57324, 57428, 57588, 57812], "trial_type": "free-recall", "conditions": [24, 1600, "a", 24000], "internal_node_id": "0.0-88.0-0.0", "key_presses": [78, 85, 82, 83, 69, 32, 82, 8, 84, 82, 65, 78, 83, 80, 76, 65, 67, 69, 8, 84, 8, 8, 78, 84, 32, 66, 85, 71, 32, 66, 85, 71, 71, 89, 32, 75, 73, 84, 67, 72, 69, 78, 32, 75, 73, 8, 78, 73, 70, 69, 32, 67, 65, 66, 73, 78, 69, 84, 32, 66, 82, 78, 8, 65, 78, 67, 72, 32, 83, 84, 79, 86, 69, 32, 76, 73, 71, 72, 84, 78, 73, 78, 71, 32, 70, 82, 73, 69, 78, 68, 32, 75, 73, 68, 78, 69, 89, 32, 76, 65, 77, 80, 32], "trial": 2, "time_elapsed": 586009, "type": "FREE_RECALL", "trial_index": 115}, "uniqueid": "MTK2432:32N49TQG3HPGAIKA4XKM6UM8AIZAVQ", "dateTime": 1517250268199}, {"current_trial": 116, "trialdata": {"rt": 1428, "trial_type": "text", "internal_node_id": "0.0-89.0", "time_elapsed": 589446, "key_press": 32, "type": "INSTRUCTIONS", "trial_index": 116}, "uniqueid": "MTK2432:32N49TQG3HPGAIKA4XKM6UM8AIZAVQ", "dateTime": 1517250271633}, {"current_trial": 117, "trialdata": {"rt": [2243, 4931, 6827, 11219], "trial_type": "math-distractor", "key_times": [1844, 1955, 2243, 4371, 4491, 4931, 6349, 6747, 6827, 10498, 10874, 11219], "responses": ["16", "12", "13", "16"], "num2": [7, 6, 1, 2, 6], "num3": [7, 3, 6, 9, 1], "conditions": [24, 800, "a", 12000], "internal_node_id": "0.0-90.0", "key_presses": [49, 54, 13, 49, 50, 13, 49, 51, 13, 49, 54, 13], "trial": 3, "time_elapsed": 603457, "type": "DISTRACTOR", "trial_index": 117, "num1": [2, 3, 6, 5, 1]}, "uniqueid": "MTK2432:32N49TQG3HPGAIKA4XKM6UM8AIZAVQ", "dateTime": 1517250285644}, {"current_trial": 118, "trialdata": {"rt": -1, "trial_type": "single-stim", "stimulus": "<p id=\"stim\">10</p>", "internal_node_id": "0.0-91.0-0.0", "time_elapsed": 606463, "key_press": -1, "trial_index": 118}, "uniqueid": "MTK2432:32N49TQG3HPGAIKA4XKM6UM8AIZAVQ", "dateTime": 1517250288650}, {"current_trial": 119, "trialdata": {"rt": -1, "trial_type": "single-stim", "stimulus": "<p id=\"stim\">9</p>", "internal_node_id": "0.0-91.0-1.0", "time_elapsed": 607467, "key_press": -1, "trial_index": 119}, "uniqueid": "MTK2432:32N49TQG3HPGAIKA4XKM6UM8AIZAVQ", "dateTime": 1517250289655}, {"current_trial": 120, "trialdata": {"rt": -1, "trial_type": "single-stim", "stimulus": "<p id=\"stim\">8</p>", "internal_node_id": "0.0-91.0-2.0", "time_elapsed": 608473, "key_press": -1, "trial_index": 120}, "uniqueid": "MTK2432:32N49TQG3HPGAIKA4XKM6UM8AIZAVQ", "dateTime": 1517250290660}, {"current_trial": 121, "trialdata": {"rt": -1, "trial_type": "single-stim", "stimulus": "<p id=\"stim\">7</p>", "internal_node_id": "0.0-91.0-3.0", "time_elapsed": 609478, "key_press": -1, "trial_index": 121}, "uniqueid": "MTK2432:32N49TQG3HPGAIKA4XKM6UM8AIZAVQ", "dateTime": 1517250291665}, {"current_trial": 122, "trialdata": {"rt": -1, "trial_type": "single-stim", "stimulus": "<p id=\"stim\">6</p>", "internal_node_id": "0.0-91.0-4.0", "time_elapsed": 610481, "key_press": -1, "trial_index": 122}, "uniqueid": "MTK2432:32N49TQG3HPGAIKA4XKM6UM8AIZAVQ", "dateTime": 1517250292668}, {"current_trial": 123, "trialdata": {"rt": -1, "trial_type": "single-stim", "stimulus": "<p id=\"stim\">5</p>", "internal_node_id": "0.0-91.0-5.0", "time_elapsed": 611486, "key_press": -1, "trial_index": 123}, "uniqueid": "MTK2432:32N49TQG3HPGAIKA4XKM6UM8AIZAVQ", "dateTime": 1517250293673}, {"current_trial": 124, "trialdata": {"rt": -1, "trial_type": "single-stim", "stimulus": "<p id=\"stim\">4</p>", "internal_node_id": "0.0-91.0-6.0", "time_elapsed": 612489, "key_press": -1, "trial_index": 124}, "uniqueid": "MTK2432:32N49TQG3HPGAIKA4XKM6UM8AIZAVQ", "dateTime": 1517250294676}, {"current_trial": 125, "trialdata": {"rt": -1, "trial_type": "single-stim", "stimulus": "<p id=\"stim\">3</p>", "internal_node_id": "0.0-91.0-7.0", "time_elapsed": 613493, "key_press": -1, "trial_index": 125}, "uniqueid": "MTK2432:32N49TQG3HPGAIKA4XKM6UM8AIZAVQ", "dateTime": 1517250295680}, {"current_trial": 126, "trialdata": {"rt": -1, "trial_type": "single-stim", "stimulus": "<p id=\"stim\">2</p>", "internal_node_id": "0.0-91.0-8.0", "time_elapsed": 614498, "key_press": -1, "trial_index": 126}, "uniqueid": "MTK2432:32N49TQG3HPGAIKA4XKM6UM8AIZAVQ", "dateTime": 1517250296685}, {"current_trial": 127, "trialdata": {"rt": -1, "trial_type": "single-stim", "stimulus": "<p id=\"stim\">1</p>", "internal_node_id": "0.0-91.0-9.0", "time_elapsed": 615502, "key_press": -1, "trial_index": 127}, "uniqueid": "MTK2432:32N49TQG3HPGAIKA4XKM6UM8AIZAVQ", "dateTime": 1517250297691}, {"current_trial": 128, "trialdata": {"rt": -1, "trial_type": "single-stim", "stimulus": "<p id=\"stim\">+</p>", "internal_node_id": "0.0-92.0-0.0", "time_elapsed": 617009, "key_press": -1, "type": "FIXATION", "trial_index": 128}, "uniqueid": "MTK2432:32N49TQG3HPGAIKA4XKM6UM8AIZAVQ", "dateTime": 1517250299196}, {"current_trial": 129, "trialdata": {"rt": -1000, "trial_type": "single-audio", "word": "hawk", "stimulus": "/static/audio/wordpool/HAWK.wav", "conditions": [24, 800, "a", 12000], "internal_node_id": "0.0-93.0", "trial": 3, "time_elapsed": 618989, "serialpos": 0, "key_press": -1, "wordID": 691, "type": "PRES_AUD", "trial_index": 129}, "uniqueid": "MTK2432:32N49TQG3HPGAIKA4XKM6UM8AIZAVQ", "dateTime": 1517250301176}, {"current_trial": 130, "trialdata": {"rt": -1000, "trial_type": "single-audio", "word": "ulcer", "stimulus": "/static/audio/wordpool/ULCER.wav", "conditions": [24, 800, "a", 12000], "internal_node_id": "0.0-94.0", "trial": 3, "time_elapsed": 620959, "serialpos": 1, "key_press": -1, "wordID": 1532, "type": "PRES_AUD", "trial_index": 130}, "uniqueid": "MTK2432:32N49TQG3HPGAIKA4XKM6UM8AIZAVQ", "dateTime": 1517250303146}, {"current_trial": 131, "trialdata": {"rt": -1000, "trial_type": "single-audio", "word": "knapsack", "stimulus": "/static/audio/wordpool/KNAPSACK.wav", "conditions": [24, 800, "a", 12000], "internal_node_id": "0.0-95.0", "trial": 3, "time_elapsed": 622639, "serialpos": 2, "key_press": -1, "wordID": 782, "type": "PRES_AUD", "trial_index": 131}, "uniqueid": "MTK2432:32N49TQG3HPGAIKA4XKM6UM8AIZAVQ", "dateTime": 1517250304826}, {"current_trial": 132, "trialdata": {"rt": -1000, "trial_type": "single-audio", "word": "chauffeur", "stimulus": "/static/audio/wordpool/CHAUFFEUR.wav", "conditions": [24, 800, "a", 12000], "internal_node_id": "0.0-96.0", "trial": 3, "time_elapsed": 624432, "serialpos": 3, "key_press": -1, "wordID": 282, "type": "PRES_AUD", "trial_index": 132}, "uniqueid": "MTK2432:32N49TQG3HPGAIKA4XKM6UM8AIZAVQ", "dateTime": 1517250306619}, {"current_trial": 133, "trialdata": {"rt": -1000, "trial_type": "single-audio", "word": "dentist", "stimulus": "/static/audio/wordpool/DENTIST.wav", "conditions": [24, 800, "a", 12000], "internal_node_id": "0.0-97.0", "trial": 3, "time_elapsed": 626228, "serialpos": 4, "key_press": -1, "wordID": 446, "type": "PRES_AUD", "trial_index": 133}, "uniqueid": "MTK2432:32N49TQG3HPGAIKA4XKM6UM8AIZAVQ", "dateTime": 1517250308415}, {"current_trial": 134, "trialdata": {"rt": -1000, "trial_type": "single-audio", "word": "football", "stimulus": "/static/audio/wordpool/FOOTBALL.wav", "conditions": [24, 800, "a", 12000], "internal_node_id": "0.0-98.0", "trial": 3, "time_elapsed": 628216, "serialpos": 5, "key_press": -1, "wordID": 590, "type": "PRES_AUD", "trial_index": 134}, "uniqueid": "MTK2432:32N49TQG3HPGAIKA4XKM6UM8AIZAVQ", "dateTime": 1517250310403}, {"current_trial": 135, "trialdata": {"rt": -1000, "trial_type": "single-audio", "word": "whiskers", "stimulus": "/static/audio/wordpool/WHISKERS.wav", "conditions": [24, 800, "a", 12000], "internal_node_id": "0.0-99.0", "trial": 3, "time_elapsed": 629830, "serialpos": 6, "key_press": -1, "wordID": 1604, "type": "PRES_AUD", "trial_index": 135}, "uniqueid": "MTK2432:32N49TQG3HPGAIKA4XKM6UM8AIZAVQ", "dateTime": 1517250312017}, {"current_trial": 136, "trialdata": {"rt": -1000, "trial_type": "single-audio", "word": "uncle", "stimulus": "/static/audio/wordpool/UNCLE.wav", "conditions": [24, 800, "a", 12000], "internal_node_id": "0.0-100.0", "trial": 3, "time_elapsed": 631717, "serialpos": 7, "key_press": -1, "wordID": 1535, "type": "PRES_AUD", "trial_index": 136}, "uniqueid": "MTK2432:32N49TQG3HPGAIKA4XKM6UM8AIZAVQ", "dateTime": 1517250313904}, {"current_trial": 137, "trialdata": {"rt": -1000, "trial_type": "single-audio", "word": "brother", "stimulus": "/static/audio/wordpool/BROTHER.wav", "conditions": [24, 800, "a", 12000], "internal_node_id": "0.0-101.0", "trial": 3, "time_elapsed": 633679, "serialpos": 8, "key_press": -1, "wordID": 178, "type": "PRES_AUD", "trial_index": 137}, "uniqueid": "MTK2432:32N49TQG3HPGAIKA4XKM6UM8AIZAVQ", "dateTime": 1517250315866}, {"current_trial": 138, "trialdata": {"rt": -1000, "trial_type": "single-audio", "word": "balloon", "stimulus": "/static/audio/wordpool/BALLOON.wav", "conditions": [24, 800, "a", 12000], "internal_node_id": "0.0-102.0", "trial": 3, "time_elapsed": 635358, "serialpos": 9, "key_press": -1, "wordID": 74, "type": "PRES_AUD", "trial_index": 138}, "uniqueid": "MTK2432:32N49TQG3HPGAIKA4XKM6UM8AIZAVQ", "dateTime": 1517250317545}, {"current_trial": 139, "trialdata": {"rt": -1000, "trial_type": "single-audio", "word": "boyfriend", "stimulus": "/static/audio/wordpool/BOYFRIEND.wav", "conditions": [24, 800, "a", 12000], "internal_node_id": "0.0-103.0", "trial": 3, "time_elapsed": 637131, "serialpos": 10, "key_press": -1, "wordID": 161, "type": "PRES_AUD", "trial_index": 139}, "uniqueid": "MTK2432:32N49TQG3HPGAIKA4XKM6UM8AIZAVQ", "dateTime": 1517250319318}, {"current_trial": 140, "trialdata": {"rt": -1000, "trial_type": "single-audio", "word": "briefcase", "stimulus": "/static/audio/wordpool/BRIEFCASE.wav", "conditions": [24, 800, "a", 12000], "internal_node_id": "0.0-104.0", "trial": 3, "time_elapsed": 638832, "serialpos": 11, "key_press": -1, "wordID": 174, "type": "PRES_AUD", "trial_index": 140}, "uniqueid": "MTK2432:32N49TQG3HPGAIKA4XKM6UM8AIZAVQ", "dateTime": 1517250321020}, {"current_trial": 141, "trialdata": {"rt": -1000, "trial_type": "single-audio", "word": "turnip", "stimulus": "/static/audio/wordpool/TURNIP.wav", "conditions": [24, 800, "a", 12000], "internal_node_id": "0.0-105.0", "trial": 3, "time_elapsed": 640439, "serialpos": 12, "key_press": -1, "wordID": 1520, "type": "PRES_AUD", "trial_index": 141}, "uniqueid": "MTK2432:32N49TQG3HPGAIKA4XKM6UM8AIZAVQ", "dateTime": 1517250322626}, {"current_trial": 142, "trialdata": {"rt": -1000, "trial_type": "single-audio", "word": "tart", "stimulus": "/static/audio/wordpool/TART.wav", "conditions": [24, 800, "a", 12000], "internal_node_id": "0.0-106.0", "trial": 3, "time_elapsed": 642289, "serialpos": 13, "key_press": -1, "wordID": 1435, "type": "PRES_AUD", "trial_index": 142}, "uniqueid": "MTK2432:32N49TQG3HPGAIKA4XKM6UM8AIZAVQ", "dateTime": 1517250324476}, {"current_trial": 143, "trialdata": {"rt": -1000, "trial_type": "single-audio", "word": "picture", "stimulus": "/static/audio/wordpool/PICTURE.wav", "conditions": [24, 800, "a", 12000], "internal_node_id": "0.0-107.0", "trial": 3, "time_elapsed": 644263, "serialpos": 14, "key_press": -1, "wordID": 1060, "type": "PRES_AUD", "trial_index": 143}, "uniqueid": "MTK2432:32N49TQG3HPGAIKA4XKM6UM8AIZAVQ", "dateTime": 1517250326450}, {"current_trial": 144, "trialdata": {"rt": -1000, "trial_type": "single-audio", "word": "sponge", "stimulus": "/static/audio/wordpool/SPONGE.wav", "conditions": [24, 800, "a", 12000], "internal_node_id": "0.0-108.0", "trial": 3, "time_elapsed": 645877, "serialpos": 15, "key_press": -1, "wordID": 1354, "type": "PRES_AUD", "trial_index": 144}, "uniqueid": "MTK2432:32N49TQG3HPGAIKA4XKM6UM8AIZAVQ", "dateTime": 1517250328064}, {"current_trial": 145, "trialdata": {"rt": -1000, "trial_type": "single-audio", "word": "denim", "stimulus": "/static/audio/wordpool/DENIM.wav", "conditions": [24, 800, "a", 12000], "internal_node_id": "0.0-109.0", "trial": 3, "time_elapsed": 647498, "serialpos": 16, "key_press": -1, "wordID": 445, "type": "PRES_AUD", "trial_index": 145}, "uniqueid": "MTK2432:32N49TQG3HPGAIKA4XKM6UM8AIZAVQ", "dateTime": 1517250329686}, {"current_trial": 146, "trialdata": {"rt": -1000, "trial_type": "single-audio", "word": "canal", "stimulus": "/static/audio/wordpool/CANAL.wav", "conditions": [24, 800, "a", 12000], "internal_node_id": "0.0-110.0", "trial": 3, "time_elapsed": 649206, "serialpos": 17, "key_press": -1, "wordID": 225, "type": "PRES_AUD", "trial_index": 146}, "uniqueid": "MTK2432:32N49TQG3HPGAIKA4XKM6UM8AIZAVQ", "dateTime": 1517250331393}, {"current_trial": 147, "trialdata": {"rt": -1000, "trial_type": "single-audio", "word": "muffin", "stimulus": "/static/audio/wordpool/MUFFIN.wav", "conditions": [24, 800, "a", 12000], "internal_node_id": "0.0-111.0", "trial": 3, "time_elapsed": 650831, "serialpos": 18, "key_press": -1, "wordID": 928, "type": "PRES_AUD", "trial_index": 147}, "uniqueid": "MTK2432:32N49TQG3HPGAIKA4XKM6UM8AIZAVQ", "dateTime": 1517250333018}, {"current_trial": 148, "trialdata": {"rt": -1000, "trial_type": "single-audio", "word": "shortcake", "stimulus": "/static/audio/wordpool/SHORTCAKE.wav", "conditions": [24, 800, "a", 12000], "internal_node_id": "0.0-112.0", "trial": 3, "time_elapsed": 652793, "serialpos": 19, "key_press": -1, "wordID": 1291, "type": "PRES_AUD", "trial_index": 148}, "uniqueid": "MTK2432:32N49TQG3HPGAIKA4XKM6UM8AIZAVQ", "dateTime": 1517250334980}, {"current_trial": 149, "trialdata": {"rt": -1000, "trial_type": "single-audio", "word": "mattress", "stimulus": "/static/audio/wordpool/MATTRESS.wav", "conditions": [24, 800, "a", 12000], "internal_node_id": "0.0-113.0", "trial": 3, "time_elapsed": 654686, "serialpos": 20, "key_press": -1, "wordID": 878, "type": "PRES_AUD", "trial_index": 149}, "uniqueid": "MTK2432:32N49TQG3HPGAIKA4XKM6UM8AIZAVQ", "dateTime": 1517250336873}, {"current_trial": 150, "trialdata": {"rt": -1000, "trial_type": "single-audio", "word": "radish", "stimulus": "/static/audio/wordpool/RADISH.wav", "conditions": [24, 800, "a", 12000], "internal_node_id": "0.0-114.0", "trial": 3, "time_elapsed": 656620, "serialpos": 21, "key_press": -1, "wordID": 1157, "type": "PRES_AUD", "trial_index": 150}, "uniqueid": "MTK2432:32N49TQG3HPGAIKA4XKM6UM8AIZAVQ", "dateTime": 1517250338808}, {"current_trial": 151, "trialdata": {"rt": -1000, "trial_type": "single-audio", "word": "cattle", "stimulus": "/static/audio/wordpool/CATTLE.wav", "conditions": [24, 800, "a", 12000], "internal_node_id": "0.0-115.0", "trial": 3, "time_elapsed": 658298, "serialpos": 22, "key_press": -1, "wordID": 260, "type": "PRES_AUD", "trial_index": 151}, "uniqueid": "MTK2432:32N49TQG3HPGAIKA4XKM6UM8AIZAVQ", "dateTime": 1517250340485}, {"current_trial": 152, "trialdata": {"rt": -1000, "trial_type": "single-audio", "word": "outlaw", "stimulus": "/static/audio/wordpool/OUTLAW.wav", "conditions": [24, 800, "a", 12000], "internal_node_id": "0.0-116.0", "trial": 3, "time_elapsed": 659963, "serialpos": 23, "key_press": -1, "wordID": 988, "type": "PRES_AUD", "trial_index": 152}, "uniqueid": "MTK2432:32N49TQG3HPGAIKA4XKM6UM8AIZAVQ", "dateTime": 1517250342150}, {"current_trial": 153, "trialdata": {"rt": -1, "trial_type": "single-stim", "stimulus": "", "internal_node_id": "0.0-117.0-0.0", "time_elapsed": 661188, "key_press": -1, "type": "PRE_RECALL_DELAY", "trial_index": 153}, "uniqueid": "MTK2432:32N49TQG3HPGAIKA4XKM6UM8AIZAVQ", "dateTime": 1517250343376}, {"current_trial": 154, "trialdata": {"rt": -1000, "trial_type": "single-audio", "stimulus": "/static/audio/400Hz.wav", "internal_node_id": "0.0-118.0", "time_elapsed": 661690, "key_press": -1, "type": "PRE_RECALL_ALERT", "trial_index": 154}, "uniqueid": "MTK2432:32N49TQG3HPGAIKA4XKM6UM8AIZAVQ", "dateTime": 1517250343877}, {"current_trial": 155, "trialdata": {"rt": [3498, 4748, 6434, 9771, 13619, 14810, 17125, 19963, 29878], "recwords": ["turnip", "uncle", "brother", "boyfriend", "radish", "ulcer", "dentist", "cattle", "football"], "key_times": [1404, 1546, 2362, 2498, 2675, 2906, 3498, 3850, 3906, 4018, 4115, 4244, 4748, 4994, 5491, 5586, 5714, 5819, 5906, 5971, 6434, 6826, 7042, 7522, 8067, 8107, 8370, 8699, 8819, 8899, 9002, 9083, 9771, 10563, 10774, 11066, 11643, 11738, 11858, 11946, 13074, 13619, 13947, 14299, 14442, 14629, 14738, 14810, 15970, 16178, 16275, 16587, 16723, 16827, 17002, 17125, 19058, 19235, 19450, 19611, 19690, 19826, 19963, 27271, 27630, 27990, 28118, 28270, 28823, 28966, 29047, 29262, 29376, 29543, 29671, 29878], "trial_type": "free-recall", "conditions": [24, 800, "a", 12000], "internal_node_id": "0.0-119.0-0.0", "key_presses": [84, 85, 82, 78, 73, 80, 13, 85, 78, 67, 76, 69, 32, 66, 82, 79, 84, 72, 69, 82, 32, 66, 79, 84, 8, 89, 70, 82, 73, 69, 78, 68, 13, 82, 65, 83, 8, 68, 73, 83, 72, 32, 85, 76, 67, 69, 82, 32, 68, 69, 78, 84, 73, 83, 84, 32, 67, 65, 84, 84, 76, 69, 32, 71, 79, 8, 8, 70, 79, 79, 84, 66, 65, 76, 76, 32], "trial": 3, "time_elapsed": 721695, "type": "FREE_RECALL", "trial_index": 155}, "uniqueid": "MTK2432:32N49TQG3HPGAIKA4XKM6UM8AIZAVQ", "dateTime": 1517250403885}, {"current_trial": 156, "trialdata": {"rt": 1672, "trial_type": "text", "internal_node_id": "0.0-120.0", "time_elapsed": 725376, "key_press": 76, "type": "INSTRUCTIONS", "trial_index": 156}, "uniqueid": "MTK2432:32N49TQG3HPGAIKA4XKM6UM8AIZAVQ", "dateTime": 1517250407563}, {"current_trial": 157, "trialdata": {"rt": [3837, 5661, 8654, 9893, 11941], "trial_type": "math-distractor", "key_times": [3349, 3437, 3837, 5294, 5485, 5661, 8071, 8365, 8654, 9702, 9853, 9893, 11517, 11653, 11941], "responses": ["20", "13", "18", "11", "17"], "num2": [6, 7, 5, 5, 6, 1], "num3": [8, 1, 9, 1, 5, 2], "conditions": [24, 1600, "a", 12000], "internal_node_id": "0.0-121.0", "key_presses": [50, 48, 13, 49, 51, 13, 49, 56, 13, 49, 49, 13, 49, 55, 13], "trial": 4, "time_elapsed": 739380, "type": "DISTRACTOR", "trial_index": 157, "num1": [6, 5, 4, 5, 6, 5]}, "uniqueid": "MTK2432:32N49TQG3HPGAIKA4XKM6UM8AIZAVQ", "dateTime": 1517250421567}, {"current_trial": 158, "trialdata": {"rt": -1, "trial_type": "single-stim", "stimulus": "<p id=\"stim\">10</p>", "internal_node_id": "0.0-122.0-0.0", "time_elapsed": 742383, "key_press": -1, "trial_index": 158}, "uniqueid": "MTK2432:32N49TQG3HPGAIKA4XKM6UM8AIZAVQ", "dateTime": 1517250424570}, {"current_trial": 159, "trialdata": {"rt": -1, "trial_type": "single-stim", "stimulus": "<p id=\"stim\">9</p>", "internal_node_id": "0.0-122.0-1.0", "time_elapsed": 743385, "key_press": -1, "trial_index": 159}, "uniqueid": "MTK2432:32N49TQG3HPGAIKA4XKM6UM8AIZAVQ", "dateTime": 1517250425572}, {"current_trial": 160, "trialdata": {"rt": -1, "trial_type": "single-stim", "stimulus": "<p id=\"stim\">8</p>", "internal_node_id": "0.0-122.0-2.0", "time_elapsed": 744386, "key_press": -1, "trial_index": 160}, "uniqueid": "MTK2432:32N49TQG3HPGAIKA4XKM6UM8AIZAVQ", "dateTime": 1517250426574}, {"current_trial": 161, "trialdata": {"rt": -1, "trial_type": "single-stim", "stimulus": "<p id=\"stim\">7</p>", "internal_node_id": "0.0-122.0-3.0", "time_elapsed": 745388, "key_press": -1, "trial_index": 161}, "uniqueid": "MTK2432:32N49TQG3HPGAIKA4XKM6UM8AIZAVQ", "dateTime": 1517250427575}, {"current_trial": 162, "trialdata": {"rt": -1, "trial_type": "single-stim", "stimulus": "<p id=\"stim\">6</p>", "internal_node_id": "0.0-122.0-4.0", "time_elapsed": 746389, "key_press": -1, "trial_index": 162}, "uniqueid": "MTK2432:32N49TQG3HPGAIKA4XKM6UM8AIZAVQ", "dateTime": 1517250428576}, {"current_trial": 163, "trialdata": {"rt": -1, "trial_type": "single-stim", "stimulus": "<p id=\"stim\">5</p>", "internal_node_id": "0.0-122.0-5.0", "time_elapsed": 747391, "key_press": -1, "trial_index": 163}, "uniqueid": "MTK2432:32N49TQG3HPGAIKA4XKM6UM8AIZAVQ", "dateTime": 1517250429578}, {"current_trial": 164, "trialdata": {"rt": -1, "trial_type": "single-stim", "stimulus": "<p id=\"stim\">4</p>", "internal_node_id": "0.0-122.0-6.0", "time_elapsed": 748392, "key_press": -1, "trial_index": 164}, "uniqueid": "MTK2432:32N49TQG3HPGAIKA4XKM6UM8AIZAVQ", "dateTime": 1517250430579}, {"current_trial": 165, "trialdata": {"rt": -1, "trial_type": "single-stim", "stimulus": "<p id=\"stim\">3</p>", "internal_node_id": "0.0-122.0-7.0", "time_elapsed": 749395, "key_press": -1, "trial_index": 165}, "uniqueid": "MTK2432:32N49TQG3HPGAIKA4XKM6UM8AIZAVQ", "dateTime": 1517250431582}, {"current_trial": 166, "trialdata": {"rt": -1, "trial_type": "single-stim", "stimulus": "<p id=\"stim\">2</p>", "internal_node_id": "0.0-122.0-8.0", "time_elapsed": 750398, "key_press": -1, "trial_index": 166}, "uniqueid": "MTK2432:32N49TQG3HPGAIKA4XKM6UM8AIZAVQ", "dateTime": 1517250432585}, {"current_trial": 167, "trialdata": {"rt": -1, "trial_type": "single-stim", "stimulus": "<p id=\"stim\">1</p>", "internal_node_id": "0.0-122.0-9.0", "time_elapsed": 751399, "key_press": -1, "trial_index": 167}, "uniqueid": "MTK2432:32N49TQG3HPGAIKA4XKM6UM8AIZAVQ", "dateTime": 1517250433586}, {"current_trial": 168, "trialdata": {"rt": -1, "trial_type": "single-stim", "stimulus": "<p id=\"stim\">+</p>", "internal_node_id": "0.0-123.0-0.0", "time_elapsed": 752904, "key_press": -1, "type": "FIXATION", "trial_index": 168}, "uniqueid": "MTK2432:32N49TQG3HPGAIKA4XKM6UM8AIZAVQ", "dateTime": 1517250435091}, {"current_trial": 169, "trialdata": {"rt": -1000, "trial_type": "single-audio", "word": "paddle", "stimulus": "/static/audio/wordpool/PADDLE.wav", "conditions": [24, 1600, "a", 12000], "internal_node_id": "0.0-124.0", "trial": 4, "time_elapsed": 755572, "serialpos": 0, "key_press": -1, "wordID": 999, "type": "PRES_AUD", "trial_index": 169}, "uniqueid": "MTK2432:32N49TQG3HPGAIKA4XKM6UM8AIZAVQ", "dateTime": 1517250437759}, {"current_trial": 170, "trialdata": {"rt": -1000, "trial_type": "single-audio", "word": "shark", "stimulus": "/static/audio/wordpool/SHARK.wav", "conditions": [24, 1600, "a", 12000], "internal_node_id": "0.0-125.0", "trial": 4, "time_elapsed": 758049, "serialpos": 1, "key_press": -1, "wordID": 1274, "type": "PRES_AUD", "trial_index": 170}, "uniqueid": "MTK2432:32N49TQG3HPGAIKA4XKM6UM8AIZAVQ", "dateTime": 1517250440236}, {"current_trial": 171, "trialdata": {"rt": -1000, "trial_type": "single-audio", "word": "suspect", "stimulus": "/static/audio/wordpool/SUSPECT.wav", "conditions": [24, 1600, "a", 12000], "internal_node_id": "0.0-126.0", "trial": 4, "time_elapsed": 760641, "serialpos": 2, "key_press": -1, "wordID": 1414, "type": "PRES_AUD", "trial_index": 171}, "uniqueid": "MTK2432:32N49TQG3HPGAIKA4XKM6UM8AIZAVQ", "dateTime": 1517250442828}, {"current_trial": 172, "trialdata": {"rt": -1000, "trial_type": "single-audio", "word": "heart", "stimulus": "/static/audio/wordpool/HEART.wav", "conditions": [24, 1600, "a", 12000], "internal_node_id": "0.0-127.0", "trial": 4, "time_elapsed": 763298, "serialpos": 3, "key_press": -1, "wordID": 696, "type": "PRES_AUD", "trial_index": 172}, "uniqueid": "MTK2432:32N49TQG3HPGAIKA4XKM6UM8AIZAVQ", "dateTime": 1517250445485}, {"current_trial": 173, "trialdata": {"rt": -1000, "trial_type": "single-audio", "word": "tile", "stimulus": "/static/audio/wordpool/TILE.wav", "conditions": [24, 1600, "a", 12000], "internal_node_id": "0.0-128.0", "trial": 4, "time_elapsed": 766059, "serialpos": 4, "key_press": -1, "wordID": 1467, "type": "PRES_AUD", "trial_index": 173}, "uniqueid": "MTK2432:32N49TQG3HPGAIKA4XKM6UM8AIZAVQ", "dateTime": 1517250448246}, {"current_trial": 174, "trialdata": {"rt": -1000, "trial_type": "single-audio", "word": "blackboard", "stimulus": "/static/audio/wordpool/BLACKBOARD.wav", "conditions": [24, 1600, "a", 12000], "internal_node_id": "0.0-129.0", "trial": 4, "time_elapsed": 768674, "serialpos": 5, "key_press": -1, "wordID": 132, "type": "PRES_AUD", "trial_index": 174}, "uniqueid": "MTK2432:32N49TQG3HPGAIKA4XKM6UM8AIZAVQ", "dateTime": 1517250450861}, {"current_trial": 175, "trialdata": {"rt": -1000, "trial_type": "single-audio", "word": "guitar", "stimulus": "/static/audio/wordpool/GUITAR.wav", "conditions": [24, 1600, "a", 12000], "internal_node_id": "0.0-130.0", "trial": 4, "time_elapsed": 771422, "serialpos": 6, "key_press": -1, "wordID": 669, "type": "PRES_AUD", "trial_index": 175}, "uniqueid": "MTK2432:32N49TQG3HPGAIKA4XKM6UM8AIZAVQ", "dateTime": 1517250453610}, {"current_trial": 176, "trialdata": {"rt": -1000, "trial_type": "single-audio", "word": "banjo", "stimulus": "/static/audio/wordpool/BANJO.wav", "conditions": [24, 1600, "a", 12000], "internal_node_id": "0.0-131.0", "trial": 4, "time_elapsed": 774167, "serialpos": 7, "key_press": -1, "wordID": 81, "type": "PRES_AUD", "trial_index": 176}, "uniqueid": "MTK2432:32N49TQG3HPGAIKA4XKM6UM8AIZAVQ", "dateTime": 1517250456354}, {"current_trial": 177, "trialdata": {"rt": -1000, "trial_type": "single-audio", "word": "racket", "stimulus": "/static/audio/wordpool/RACKET.wav", "conditions": [24, 1600, "a", 12000], "internal_node_id": "0.0-132.0", "trial": 4, "time_elapsed": 776918, "serialpos": 8, "key_press": -1, "wordID": 1154, "type": "PRES_AUD", "trial_index": 177}, "uniqueid": "MTK2432:32N49TQG3HPGAIKA4XKM6UM8AIZAVQ", "dateTime": 1517250459105}, {"current_trial": 178, "trialdata": {"rt": -1000, "trial_type": "single-audio", "word": "camel", "stimulus": "/static/audio/wordpool/CAMEL.wav", "conditions": [24, 1600, "a", 12000], "internal_node_id": "0.0-133.0", "trial": 4, "time_elapsed": 779498, "serialpos": 9, "key_press": -1, "wordID": 222, "type": "PRES_AUD", "trial_index": 178}, "uniqueid": "MTK2432:32N49TQG3HPGAIKA4XKM6UM8AIZAVQ", "dateTime": 1517250461685}, {"current_trial": 179, "trialdata": {"rt": -1000, "trial_type": "single-audio", "word": "baby", "stimulus": "/static/audio/wordpool/BABY.wav", "conditions": [24, 1600, "a", 12000], "internal_node_id": "0.0-134.0", "trial": 4, "time_elapsed": 782136, "serialpos": 10, "key_press": -1, "wordID": 63, "type": "PRES_AUD", "trial_index": 179}, "uniqueid": "MTK2432:32N49TQG3HPGAIKA4XKM6UM8AIZAVQ", "dateTime": 1517250464323}, {"current_trial": 180, "trialdata": {"rt": -1000, "trial_type": "single-audio", "word": "brick", "stimulus": "/static/audio/wordpool/BRICK.wav", "conditions": [24, 1600, "a", 12000], "internal_node_id": "0.0-135.0", "trial": 4, "time_elapsed": 784732, "serialpos": 11, "key_press": -1, "wordID": 171, "type": "PRES_AUD", "trial_index": 180}, "uniqueid": "MTK2432:32N49TQG3HPGAIKA4XKM6UM8AIZAVQ", "dateTime": 1517250466919}, {"current_trial": 181, "trialdata": {"rt": -1000, "trial_type": "single-audio", "word": "drill", "stimulus": "/static/audio/wordpool/DRILL.wav", "conditions": [24, 1600, "a", 12000], "internal_node_id": "0.0-136.0", "trial": 4, "time_elapsed": 787464, "serialpos": 12, "key_press": -1, "wordID": 496, "type": "PRES_AUD", "trial_index": 181}, "uniqueid": "MTK2432:32N49TQG3HPGAIKA4XKM6UM8AIZAVQ", "dateTime": 1517250469651}, {"current_trial": 182, "trialdata": {"rt": -1000, "trial_type": "single-audio", "word": "trench", "stimulus": "/static/audio/wordpool/TRENCH.wav", "conditions": [24, 1600, "a", 12000], "internal_node_id": "0.0-137.0", "trial": 4, "time_elapsed": 790082, "serialpos": 13, "key_press": -1, "wordID": 1502, "type": "PRES_AUD", "trial_index": 182}, "uniqueid": "MTK2432:32N49TQG3HPGAIKA4XKM6UM8AIZAVQ", "dateTime": 1517250472269}, {"current_trial": 183, "trialdata": {"rt": -1000, "trial_type": "single-audio", "word": "critic", "stimulus": "/static/audio/wordpool/CRITIC.wav", "conditions": [24, 1600, "a", 12000], "internal_node_id": "0.0-138.0", "trial": 4, "time_elapsed": 792658, "serialpos": 14, "key_press": -1, "wordID": 409, "type": "PRES_AUD", "trial_index": 183}, "uniqueid": "MTK2432:32N49TQG3HPGAIKA4XKM6UM8AIZAVQ", "dateTime": 1517250474845}, {"current_trial": 184, "trialdata": {"rt": -1000, "trial_type": "single-audio", "word": "student", "stimulus": "/static/audio/wordpool/STUDENT.wav", "conditions": [24, 1600, "a", 12000], "internal_node_id": "0.0-139.0", "trial": 4, "time_elapsed": 795123, "serialpos": 15, "key_press": -1, "wordID": 1394, "type": "PRES_AUD", "trial_index": 184}, "uniqueid": "MTK2432:32N49TQG3HPGAIKA4XKM6UM8AIZAVQ", "dateTime": 1517250477310}, {"current_trial": 185, "trialdata": {"rt": -1000, "trial_type": "single-audio", "word": "hero", "stimulus": "/static/audio/wordpool/HERO.wav", "conditions": [24, 1600, "a", 12000], "internal_node_id": "0.0-140.0", "trial": 4, "time_elapsed": 797779, "serialpos": 16, "key_press": -1, "wordID": 705, "type": "PRES_AUD", "trial_index": 185}, "uniqueid": "MTK2432:32N49TQG3HPGAIKA4XKM6UM8AIZAVQ", "dateTime": 1517250479966}, {"current_trial": 186, "trialdata": {"rt": -1000, "trial_type": "single-audio", "word": "valve", "stimulus": "/static/audio/wordpool/VALVE.wav", "conditions": [24, 1600, "a", 12000], "internal_node_id": "0.0-141.0", "trial": 4, "time_elapsed": 800223, "serialpos": 17, "key_press": -1, "wordID": 1545, "type": "PRES_AUD", "trial_index": 186}, "uniqueid": "MTK2432:32N49TQG3HPGAIKA4XKM6UM8AIZAVQ", "dateTime": 1517250482411}, {"current_trial": 187, "trialdata": {"rt": -1000, "trial_type": "single-audio", "word": "piston", "stimulus": "/static/audio/wordpool/PISTON.wav", "conditions": [24, 1600, "a", 12000], "internal_node_id": "0.0-142.0", "trial": 4, "time_elapsed": 802659, "serialpos": 18, "key_press": -1, "wordID": 1075, "type": "PRES_AUD", "trial_index": 187}, "uniqueid": "MTK2432:32N49TQG3HPGAIKA4XKM6UM8AIZAVQ", "dateTime": 1517250484846}, {"current_trial": 188, "trialdata": {"rt": -1000, "trial_type": "single-audio", "word": "dorm", "stimulus": "/static/audio/wordpool/DORM.wav", "conditions": [24, 1600, "a", 12000], "internal_node_id": "0.0-143.0", "trial": 4, "time_elapsed": 805096, "serialpos": 19, "key_press": -1, "wordID": 487, "type": "PRES_AUD", "trial_index": 188}, "uniqueid": "MTK2432:32N49TQG3HPGAIKA4XKM6UM8AIZAVQ", "dateTime": 1517250487283}, {"current_trial": 189, "trialdata": {"rt": -1000, "trial_type": "single-audio", "word": "jelly", "stimulus": "/static/audio/wordpool/JELLY.wav", "conditions": [24, 1600, "a", 12000], "internal_node_id": "0.0-144.0", "trial": 4, "time_elapsed": 807585, "serialpos": 20, "key_press": -1, "wordID": 754, "type": "PRES_AUD", "trial_index": 189}, "uniqueid": "MTK2432:32N49TQG3HPGAIKA4XKM6UM8AIZAVQ", "dateTime": 1517250489772}, {"current_trial": 190, "trialdata": {"rt": -1000, "trial_type": "single-audio", "word": "mop", "stimulus": "/static/audio/wordpool/MOP.wav", "conditions": [24, 1600, "a", 12000], "internal_node_id": "0.0-145.0", "trial": 4, "time_elapsed": 810105, "serialpos": 21, "key_press": -1, "wordID": 915, "type": "PRES_AUD", "trial_index": 190}, "uniqueid": "MTK2432:32N49TQG3HPGAIKA4XKM6UM8AIZAVQ", "dateTime": 1517250492292}, {"current_trial": 191, "trialdata": {"rt": -1000, "trial_type": "single-audio", "word": "stone", "stimulus": "/static/audio/wordpool/STONE.wav", "conditions": [24, 1600, "a", 12000], "internal_node_id": "0.0-146.0", "trial": 4, "time_elapsed": 812855, "serialpos": 22, "key_press": -1, "wordID": 1384, "type": "PRES_AUD", "trial_index": 191}, "uniqueid": "MTK2432:32N49TQG3HPGAIKA4XKM6UM8AIZAVQ", "dateTime": 1517250495042}, {"current_trial": 192, "trialdata": {"rt": -1000, "trial_type": "single-audio", "word": "daughter", "stimulus": "/static/audio/wordpool/DAUGHTER.wav", "conditions": [24, 1600, "a", 12000], "internal_node_id": "0.0-147.0", "trial": 4, "time_elapsed": 815332, "serialpos": 23, "key_press": -1, "wordID": 441, "type": "PRES_AUD", "trial_index": 192}, "uniqueid": "MTK2432:32N49TQG3HPGAIKA4XKM6UM8AIZAVQ", "dateTime": 1517250497519}, {"current_trial": 193, "trialdata": {"rt": -1, "trial_type": "single-stim", "stimulus": "", "internal_node_id": "0.0-148.0-0.0", "time_elapsed": 816618, "key_press": -1, "type": "PRE_RECALL_DELAY", "trial_index": 193}, "uniqueid": "MTK2432:32N49TQG3HPGAIKA4XKM6UM8AIZAVQ", "dateTime": 1517250498805}, {"current_trial": 194, "trialdata": {"rt": -1000, "trial_type": "single-audio", "stimulus": "/static/audio/400Hz.wav", "internal_node_id": "0.0-149.0", "time_elapsed": 817119, "key_press": -1, "type": "PRE_RECALL_ALERT", "trial_index": 194}, "uniqueid": "MTK2432:32N49TQG3HPGAIKA4XKM6UM8AIZAVQ", "dateTime": 1517250499306}, {"current_trial": 195, "trialdata": {"rt": [2198, 2998, 3974, 5126, 6238, 7302], "recwords": ["daughter", "stone", "mop", "shark", "piston", "baby"], "key_times": [575, 814, 918, 1119, 1206, 1390, 1670, 1734, 2198, 2382, 2566, 2646, 2726, 2790, 2998, 3270, 3486, 3710, 3974, 4222, 4382, 4470, 4615, 4734, 5126, 5390, 5614, 5678, 5870, 5958, 6006, 6238, 6694, 6750, 6839, 6966, 7302], "trial_type": "free-recall", "conditions": [24, 1600, "a", 12000], "internal_node_id": "0.0-150.0-0.0", "key_presses": [68, 65, 85, 71, 72, 84, 69, 82, 13, 83, 84, 79, 78, 69, 13, 77, 79, 80, 13, 83, 72, 65, 82, 75, 13, 80, 73, 83, 84, 79, 78, 13, 66, 65, 66, 89, 13], "trial": 4, "time_elapsed": 877124, "type": "FREE_RECALL", "trial_index": 195}, "uniqueid": "MTK2432:32N49TQG3HPGAIKA4XKM6UM8AIZAVQ", "dateTime": 1517250559314}, {"current_trial": 196, "trialdata": {"rt": 971, "trial_type": "text", "internal_node_id": "0.0-151.0", "time_elapsed": 880103, "key_press": 76, "type": "INSTRUCTIONS", "trial_index": 196}, "uniqueid": "MTK2432:32N49TQG3HPGAIKA4XKM6UM8AIZAVQ", "dateTime": 1517250562290}, {"current_trial": 197, "trialdata": {"rt": [2681, 5169, 7873, 10137, 12161, 14521, 18025, 19881, 22121, 23969], "trial_type": "math-distractor", "key_times": [2498, 2618, 2681, 4034, 4305, 4779, 4857, 5169, 7626, 7762, 7873, 10010, 10137, 11769, 12034, 12161, 13961, 14361, 14521, 17409, 17849, 18025, 19289, 19777, 19881, 21986, 22121, 23785, 23969], "responses": ["22", "15", "11", "6", "13", "17", "14", "15", "8", "9"], "num2": [8, 7, 1, 1, 9, 4, 8, 6, 2, 4, 4], "num3": [5, 5, 3, 4, 1, 4, 5, 8, 2, 4, 4], "conditions": [24, 1600, "a", 24000], "internal_node_id": "0.0-152.0", "key_presses": [50, 50, 13, 49, 52, 8, 53, 13, 49, 49, 13, 54, 13, 49, 51, 13, 49, 55, 13, 49, 52, 13, 49, 53, 13, 56, 13, 57, 13], "trial": 5, "time_elapsed": 906111, "type": "DISTRACTOR", "trial_index": 197, "num1": [9, 3, 7, 1, 3, 9, 1, 1, 4, 1, 8]}, "uniqueid": "MTK2432:32N49TQG3HPGAIKA4XKM6UM8AIZAVQ", "dateTime": 1517250588298}, {"current_trial": 198, "trialdata": {"rt": -1, "trial_type": "single-stim", "stimulus": "<p id=\"stim\">10</p>", "internal_node_id": "0.0-153.0-0.0", "time_elapsed": 909121, "key_press": -1, "trial_index": 198}, "uniqueid": "MTK2432:32N49TQG3HPGAIKA4XKM6UM8AIZAVQ", "dateTime": 1517250591308}, {"current_trial": 199, "trialdata": {"rt": -1, "trial_type": "single-stim", "stimulus": "<p id=\"stim\">9</p>", "internal_node_id": "0.0-153.0-1.0", "time_elapsed": 910127, "key_press": -1, "trial_index": 199}, "uniqueid": "MTK2432:32N49TQG3HPGAIKA4XKM6UM8AIZAVQ", "dateTime": 1517250592314}, {"current_trial": 200, "trialdata": {"rt": -1, "trial_type": "single-stim", "stimulus": "<p id=\"stim\">8</p>", "internal_node_id": "0.0-153.0-2.0", "time_elapsed": 911131, "key_press": -1, "trial_index": 200}, "uniqueid": "MTK2432:32N49TQG3HPGAIKA4XKM6UM8AIZAVQ", "dateTime": 1517250593318}, {"current_trial": 201, "trialdata": {"rt": -1, "trial_type": "single-stim", "stimulus": "<p id=\"stim\">7</p>", "internal_node_id": "0.0-153.0-3.0", "time_elapsed": 912135, "key_press": -1, "trial_index": 201}, "uniqueid": "MTK2432:32N49TQG3HPGAIKA4XKM6UM8AIZAVQ", "dateTime": 1517250594322}, {"current_trial": 202, "trialdata": {"rt": -1, "trial_type": "single-stim", "stimulus": "<p id=\"stim\">6</p>", "internal_node_id": "0.0-153.0-4.0", "time_elapsed": 913139, "key_press": -1, "trial_index": 202}, "uniqueid": "MTK2432:32N49TQG3HPGAIKA4XKM6UM8AIZAVQ", "dateTime": 1517250595326}, {"current_trial": 203, "trialdata": {"rt": -1, "trial_type": "single-stim", "stimulus": "<p id=\"stim\">5</p>", "internal_node_id": "0.0-153.0-5.0", "time_elapsed": 914144, "key_press": -1, "trial_index": 203}, "uniqueid": "MTK2432:32N49TQG3HPGAIKA4XKM6UM8AIZAVQ", "dateTime": 1517250596331}, {"current_trial": 204, "trialdata": {"rt": -1, "trial_type": "single-stim", "stimulus": "<p id=\"stim\">4</p>", "internal_node_id": "0.0-153.0-6.0", "time_elapsed": 915149, "key_press": -1, "trial_index": 204}, "uniqueid": "MTK2432:32N49TQG3HPGAIKA4XKM6UM8AIZAVQ", "dateTime": 1517250597336}, {"current_trial": 205, "trialdata": {"rt": -1, "trial_type": "single-stim", "stimulus": "<p id=\"stim\">3</p>", "internal_node_id": "0.0-153.0-7.0", "time_elapsed": 916153, "key_press": -1, "trial_index": 205}, "uniqueid": "MTK2432:32N49TQG3HPGAIKA4XKM6UM8AIZAVQ", "dateTime": 1517250598340}, {"current_trial": 206, "trialdata": {"rt": -1, "trial_type": "single-stim", "stimulus": "<p id=\"stim\">2</p>", "internal_node_id": "0.0-153.0-8.0", "time_elapsed": 917157, "key_press": -1, "trial_index": 206}, "uniqueid": "MTK2432:32N49TQG3HPGAIKA4XKM6UM8AIZAVQ", "dateTime": 1517250599345}, {"current_trial": 207, "trialdata": {"rt": -1, "trial_type": "single-stim", "stimulus": "<p id=\"stim\">1</p>", "internal_node_id": "0.0-153.0-9.0", "time_elapsed": 918158, "key_press": -1, "trial_index": 207}, "uniqueid": "MTK2432:32N49TQG3HPGAIKA4XKM6UM8AIZAVQ", "dateTime": 1517250600346}, {"current_trial": 208, "trialdata": {"rt": -1, "trial_type": "single-stim", "stimulus": "<p id=\"stim\">+</p>", "internal_node_id": "0.0-154.0-0.0", "time_elapsed": 919662, "key_press": -1, "type": "FIXATION", "trial_index": 208}, "uniqueid": "MTK2432:32N49TQG3HPGAIKA4XKM6UM8AIZAVQ", "dateTime": 1517250601849}, {"current_trial": 209, "trialdata": {"rt": -1000, "trial_type": "single-audio", "word": "grape", "stimulus": "/static/audio/wordpool/GRAPE.wav", "conditions": [24, 1600, "a", 24000], "internal_node_id": "0.0-155.0", "trial": 5, "time_elapsed": 922453, "serialpos": 0, "key_press": -1, "wordID": 653, "type": "PRES_AUD", "trial_index": 209}, "uniqueid": "MTK2432:32N49TQG3HPGAIKA4XKM6UM8AIZAVQ", "dateTime": 1517250604640}, {"current_trial": 210, "trialdata": {"rt": -1000, "trial_type": "single-audio", "word": "luggage", "stimulus": "/static/audio/wordpool/LUGGAGE.wav", "conditions": [24, 1600, "a", 24000], "internal_node_id": "0.0-156.0", "trial": 5, "time_elapsed": 924876, "serialpos": 1, "key_press": -1, "wordID": 846, "type": "PRES_AUD", "trial_index": 210}, "uniqueid": "MTK2432:32N49TQG3HPGAIKA4XKM6UM8AIZAVQ", "dateTime": 1517250607064}, {"current_trial": 211, "trialdata": {"rt": -1000, "trial_type": "single-audio", "word": "wagon", "stimulus": "/static/audio/wordpool/WAGON.wav", "conditions": [24, 1600, "a", 24000], "internal_node_id": "0.0-157.0", "trial": 5, "time_elapsed": 927492, "serialpos": 2, "key_press": -1, "wordID": 1577, "type": "PRES_AUD", "trial_index": 211}, "uniqueid": "MTK2432:32N49TQG3HPGAIKA4XKM6UM8AIZAVQ", "dateTime": 1517250609679}, {"current_trial": 212, "trialdata": {"rt": -1000, "trial_type": "single-audio", "word": "stallion", "stimulus": "/static/audio/wordpool/STALLION.wav", "conditions": [24, 1600, "a", 24000], "internal_node_id": "0.0-158.0", "trial": 5, "time_elapsed": 929984, "serialpos": 3, "key_press": -1, "wordID": 1368, "type": "PRES_AUD", "trial_index": 212}, "uniqueid": "MTK2432:32N49TQG3HPGAIKA4XKM6UM8AIZAVQ", "dateTime": 1517250612171}, {"current_trial": 213, "trialdata": {"rt": -1000, "trial_type": "single-audio", "word": "captive", "stimulus": "/static/audio/wordpool/CAPTIVE.wav", "conditions": [24, 1600, "a", 24000], "internal_node_id": "0.0-159.0", "trial": 5, "time_elapsed": 932391, "serialpos": 4, "key_press": -1, "wordID": 239, "type": "PRES_AUD", "trial_index": 213}, "uniqueid": "MTK2432:32N49TQG3HPGAIKA4XKM6UM8AIZAVQ", "dateTime": 1517250614579}, {"current_trial": 214, "trialdata": {"rt": -1000, "trial_type": "single-audio", "word": "spider", "stimulus": "/static/audio/wordpool/SPIDER.wav", "conditions": [24, 1600, "a", 24000], "internal_node_id": "0.0-160.0", "trial": 5, "time_elapsed": 934873, "serialpos": 5, "key_press": -1, "wordID": 1350, "type": "PRES_AUD", "trial_index": 214}, "uniqueid": "MTK2432:32N49TQG3HPGAIKA4XKM6UM8AIZAVQ", "dateTime": 1517250617060}, {"current_trial": 215, "trialdata": {"rt": -1000, "trial_type": "single-audio", "word": "suitcase", "stimulus": "/static/audio/wordpool/SUITCASE.wav", "conditions": [24, 1600, "a", 24000], "internal_node_id": "0.0-161.0", "trial": 5, "time_elapsed": 937283, "serialpos": 6, "key_press": -1, "wordID": 1402, "type": "PRES_AUD", "trial_index": 215}, "uniqueid": "MTK2432:32N49TQG3HPGAIKA4XKM6UM8AIZAVQ", "dateTime": 1517250619470}, {"current_trial": 216, "trialdata": {"rt": -1000, "trial_type": "single-audio", "word": "sidewalk", "stimulus": "/static/audio/wordpool/SIDEWALK.wav", "conditions": [24, 1600, "a", 24000], "internal_node_id": "0.0-162.0", "trial": 5, "time_elapsed": 940004, "serialpos": 7, "key_press": -1, "wordID": 1302, "type": "PRES_AUD", "trial_index": 216}, "uniqueid": "MTK2432:32N49TQG3HPGAIKA4XKM6UM8AIZAVQ", "dateTime": 1517250622191}, {"current_trial": 217, "trialdata": {"rt": -1000, "trial_type": "single-audio", "word": "plaza", "stimulus": "/static/audio/wordpool/PLAZA.wav", "conditions": [24, 1600, "a", 24000], "internal_node_id": "0.0-163.0", "trial": 5, "time_elapsed": 942555, "serialpos": 8, "key_press": -1, "wordID": 1087, "type": "PRES_AUD", "trial_index": 217}, "uniqueid": "MTK2432:32N49TQG3HPGAIKA4XKM6UM8AIZAVQ", "dateTime": 1517250624743}, {"current_trial": 218, "trialdata": {"rt": -1000, "trial_type": "single-audio", "word": "temple", "stimulus": "/static/audio/wordpool/TEMPLE.wav", "conditions": [24, 1600, "a", 24000], "internal_node_id": "0.0-164.0", "trial": 5, "time_elapsed": 945242, "serialpos": 9, "key_press": -1, "wordID": 1447, "type": "PRES_AUD", "trial_index": 218}, "uniqueid": "MTK2432:32N49TQG3HPGAIKA4XKM6UM8AIZAVQ", "dateTime": 1517250627430}, {"current_trial": 219, "trialdata": {"rt": -1000, "trial_type": "single-audio", "word": "silk", "stimulus": "/static/audio/wordpool/SILK.wav", "conditions": [24, 1600, "a", 24000], "internal_node_id": "0.0-165.0", "trial": 5, "time_elapsed": 948039, "serialpos": 10, "key_press": -1, "wordID": 1306, "type": "PRES_AUD", "trial_index": 219}, "uniqueid": "MTK2432:32N49TQG3HPGAIKA4XKM6UM8AIZAVQ", "dateTime": 1517250630227}, {"current_trial": 220, "trialdata": {"rt": -1000, "trial_type": "single-audio", "word": "drawing", "stimulus": "/static/audio/wordpool/DRAWING.wav", "conditions": [24, 1600, "a", 24000], "internal_node_id": "0.0-166.0", "trial": 5, "time_elapsed": 950663, "serialpos": 11, "key_press": -1, "wordID": 493, "type": "PRES_AUD", "trial_index": 220}, "uniqueid": "MTK2432:32N49TQG3HPGAIKA4XKM6UM8AIZAVQ", "dateTime": 1517250632851}, {"current_trial": 221, "trialdata": {"rt": -1000, "trial_type": "single-audio", "word": "flask", "stimulus": "/static/audio/wordpool/FLASK.wav", "conditions": [24, 1600, "a", 24000], "internal_node_id": "0.0-167.0", "trial": 5, "time_elapsed": 953136, "serialpos": 12, "key_press": -1, "wordID": 575, "type": "PRES_AUD", "trial_index": 221}, "uniqueid": "MTK2432:32N49TQG3HPGAIKA4XKM6UM8AIZAVQ", "dateTime": 1517250635323}, {"current_trial": 222, "trialdata": {"rt": -1000, "trial_type": "single-audio", "word": "lizard", "stimulus": "/static/audio/wordpool/LIZARD.wav", "conditions": [24, 1600, "a", 24000], "internal_node_id": "0.0-168.0", "trial": 5, "time_elapsed": 955620, "serialpos": 13, "key_press": -1, "wordID": 833, "type": "PRES_AUD", "trial_index": 222}, "uniqueid": "MTK2432:32N49TQG3HPGAIKA4XKM6UM8AIZAVQ", "dateTime": 1517250637807}, {"current_trial": 223, "trialdata": {"rt": -1000, "trial_type": "single-audio", "word": "penguin", "stimulus": "/static/audio/wordpool/PENGUIN.wav", "conditions": [24, 1600, "a", 24000], "internal_node_id": "0.0-169.0", "trial": 5, "time_elapsed": 958313, "serialpos": 14, "key_press": -1, "wordID": 1043, "type": "PRES_AUD", "trial_index": 223}, "uniqueid": "MTK2432:32N49TQG3HPGAIKA4XKM6UM8AIZAVQ", "dateTime": 1517250640500}, {"current_trial": 224, "trialdata": {"rt": -1000, "trial_type": "single-audio", "word": "beaver", "stimulus": "/static/audio/wordpool/BEAVER.wav", "conditions": [24, 1600, "a", 24000], "internal_node_id": "0.0-170.0", "trial": 5, "time_elapsed": 960985, "serialpos": 15, "key_press": -1, "wordID": 108, "type": "PRES_AUD", "trial_index": 224}, "uniqueid": "MTK2432:32N49TQG3HPGAIKA4XKM6UM8AIZAVQ", "dateTime": 1517250643173}, {"current_trial": 225, "trialdata": {"rt": -1000, "trial_type": "single-audio", "word": "stream", "stimulus": "/static/audio/wordpool/STREAM.wav", "conditions": [24, 1600, "a", 24000], "internal_node_id": "0.0-171.0", "trial": 5, "time_elapsed": 963723, "serialpos": 16, "key_press": -1, "wordID": 1391, "type": "PRES_AUD", "trial_index": 225}, "uniqueid": "MTK2432:32N49TQG3HPGAIKA4XKM6UM8AIZAVQ", "dateTime": 1517250645910}, {"current_trial": 226, "trialdata": {"rt": -1000, "trial_type": "single-audio", "word": "gallon", "stimulus": "/static/audio/wordpool/GALLON.wav", "conditions": [24, 1600, "a", 24000], "internal_node_id": "0.0-172.0", "trial": 5, "time_elapsed": 966498, "serialpos": 17, "key_press": -1, "wordID": 617, "type": "PRES_AUD", "trial_index": 226}, "uniqueid": "MTK2432:32N49TQG3HPGAIKA4XKM6UM8AIZAVQ", "dateTime": 1517250648685}, {"current_trial": 227, "trialdata": {"rt": -1000, "trial_type": "single-audio", "word": "blade", "stimulus": "/static/audio/wordpool/BLADE.wav", "conditions": [24, 1600, "a", 24000], "internal_node_id": "0.0-173.0", "trial": 5, "time_elapsed": 969015, "serialpos": 18, "key_press": -1, "wordID": 133, "type": "PRES_AUD", "trial_index": 227}, "uniqueid": "MTK2432:32N49TQG3HPGAIKA4XKM6UM8AIZAVQ", "dateTime": 1517250651202}, {"current_trial": 228, "trialdata": {"rt": -1000, "trial_type": "single-audio", "word": "wrist", "stimulus": "/static/audio/wordpool/WRIST.wav", "conditions": [24, 1600, "a", 24000], "internal_node_id": "0.0-174.0", "trial": 5, "time_elapsed": 971563, "serialpos": 19, "key_press": -1, "wordID": 1625, "type": "PRES_AUD", "trial_index": 228}, "uniqueid": "MTK2432:32N49TQG3HPGAIKA4XKM6UM8AIZAVQ", "dateTime": 1517250653750}, {"current_trial": 229, "trialdata": {"rt": -1000, "trial_type": "single-audio", "word": "liver", "stimulus": "/static/audio/wordpool/LIVER.wav", "conditions": [24, 1600, "a", 24000], "internal_node_id": "0.0-175.0", "trial": 5, "time_elapsed": 974031, "serialpos": 20, "key_press": -1, "wordID": 832, "type": "PRES_AUD", "trial_index": 229}, "uniqueid": "MTK2432:32N49TQG3HPGAIKA4XKM6UM8AIZAVQ", "dateTime": 1517250656218}, {"current_trial": 230, "trialdata": {"rt": -1000, "trial_type": "single-audio", "word": "river", "stimulus": "/static/audio/wordpool/RIVER.wav", "conditions": [24, 1600, "a", 24000], "internal_node_id": "0.0-176.0", "trial": 5, "time_elapsed": 976571, "serialpos": 21, "key_press": -1, "wordID": 1193, "type": "PRES_AUD", "trial_index": 230}, "uniqueid": "MTK2432:32N49TQG3HPGAIKA4XKM6UM8AIZAVQ", "dateTime": 1517250658759}, {"current_trial": 231, "trialdata": {"rt": -1000, "trial_type": "single-audio", "word": "creature", "stimulus": "/static/audio/wordpool/CREATURE.wav", "conditions": [24, 1600, "a", 24000], "internal_node_id": "0.0-177.0", "trial": 5, "time_elapsed": 979137, "serialpos": 22, "key_press": -1, "wordID": 402, "type": "PRES_AUD", "trial_index": 231}, "uniqueid": "MTK2432:32N49TQG3HPGAIKA4XKM6UM8AIZAVQ", "dateTime": 1517250661324}, {"current_trial": 232, "trialdata": {"rt": -1000, "trial_type": "single-audio", "word": "finger", "stimulus": "/static/audio/wordpool/FINGER.wav", "conditions": [24, 1600, "a", 24000], "internal_node_id": "0.0-178.0", "trial": 5, "time_elapsed": 981604, "serialpos": 23, "key_press": -1, "wordID": 566, "type": "PRES_AUD", "trial_index": 232}, "uniqueid": "MTK2432:32N49TQG3HPGAIKA4XKM6UM8AIZAVQ", "dateTime": 1517250663791}, {"current_trial": 233, "trialdata": {"rt": -1, "trial_type": "single-stim", "stimulus": "", "internal_node_id": "0.0-179.0-0.0", "time_elapsed": 982826, "key_press": -1, "type": "PRE_RECALL_DELAY", "trial_index": 233}, "uniqueid": "MTK2432:32N49TQG3HPGAIKA4XKM6UM8AIZAVQ", "dateTime": 1517250665013}, {"current_trial": 234, "trialdata": {"rt": -1000, "trial_type": "single-audio", "stimulus": "/static/audio/400Hz.wav", "internal_node_id": "0.0-180.0", "time_elapsed": 983327, "key_press": -1, "type": "PRE_RECALL_ALERT", "trial_index": 234}, "uniqueid": "MTK2432:32N49TQG3HPGAIKA4XKM6UM8AIZAVQ", "dateTime": 1517250665515}, {"current_trial": 235, "trialdata": {"rt": [3308, 6196, 7556, 9573, 11861, 13084], "recwords": ["creature", "finger", "liver", "valiant", "risk", "wrist"], "key_times": [1845, 2060, 2213, 2317, 2845, 2988, 3084, 3140, 3308, 5525, 5692, 5740, 5820, 6012, 6084, 6196, 6916, 7108, 7188, 7332, 7444, 7556, 8533, 8732, 8844, 9045, 9189, 9237, 9380, 9573, 10797, 11037, 11164, 11557, 11861, 12268, 12532, 12740, 12780, 12957, 13084], "trial_type": "free-recall", "conditions": [24, 1600, "a", 24000], "internal_node_id": "0.0-181.0-0.0", "key_presses": [67, 82, 69, 65, 84, 85, 82, 69, 13, 70, 73, 78, 71, 69, 82, 13, 76, 73, 86, 69, 82, 13, 86, 65, 76, 73, 65, 78, 84, 13, 82, 73, 83, 75, 13, 87, 82, 73, 83, 84, 13], "trial": 5, "time_elapsed": 1043334, "type": "FREE_RECALL", "trial_index": 235}, "uniqueid": "MTK2432:32N49TQG3HPGAIKA4XKM6UM8AIZAVQ", "dateTime": 1517250725526}, {"current_trial": 236, "trialdata": {"rt": 2422, "trial_type": "text", "internal_node_id": "0.0-182.0", "time_elapsed": 1047765, "key_press": 76, "type": "INSTRUCTIONS", "trial_index": 236}, "uniqueid": "MTK2432:32N49TQG3HPGAIKA4XKM6UM8AIZAVQ", "dateTime": 1517250729952}, {"current_trial": 237, "trialdata": {"rt": [3727, 6639, 11247], "trial_type": "math-distractor", "key_times": [3204, 3567, 3727, 6345, 6536, 6639, 9944, 10962, 11247], "responses": ["25", "21", "18"], "num2": [7, 8, 2, 2], "num3": [8, 7, 9, 2], "conditions": [24, 1600, "a", 12000], "internal_node_id": "0.0-183.0", "key_presses": [50, 53, 13, 50, 49, 13, 49, 56, 13], "trial": 6, "time_elapsed": 1061779, "type": "DISTRACTOR", "trial_index": 237, "num1": [8, 6, 7, 4]}, "uniqueid": "MTK2432:32N49TQG3HPGAIKA4XKM6UM8AIZAVQ", "dateTime": 1517250743966}, {"current_trial": 238, "trialdata": {"rt": -1, "trial_type": "single-stim", "stimulus": "<p id=\"stim\">10</p>", "internal_node_id": "0.0-184.0-0.0", "time_elapsed": 1064788, "key_press": -1, "trial_index": 238}, "uniqueid": "MTK2432:32N49TQG3HPGAIKA4XKM6UM8AIZAVQ", "dateTime": 1517250746975}, {"current_trial": 239, "trialdata": {"rt": -1, "trial_type": "single-stim", "stimulus": "<p id=\"stim\">9</p>", "internal_node_id": "0.0-184.0-1.0", "time_elapsed": 1065794, "key_press": -1, "trial_index": 239}, "uniqueid": "MTK2432:32N49TQG3HPGAIKA4XKM6UM8AIZAVQ", "dateTime": 1517250747982}, {"current_trial": 240, "trialdata": {"rt": -1, "trial_type": "single-stim", "stimulus": "<p id=\"stim\">8</p>", "internal_node_id": "0.0-184.0-2.0", "time_elapsed": 1066802, "key_press": -1, "trial_index": 240}, "uniqueid": "MTK2432:32N49TQG3HPGAIKA4XKM6UM8AIZAVQ", "dateTime": 1517250748989}, {"current_trial": 241, "trialdata": {"rt": -1, "trial_type": "single-stim", "stimulus": "<p id=\"stim\">7</p>", "internal_node_id": "0.0-184.0-3.0", "time_elapsed": 1067807, "key_press": -1, "trial_index": 241}, "uniqueid": "MTK2432:32N49TQG3HPGAIKA4XKM6UM8AIZAVQ", "dateTime": 1517250749995}, {"current_trial": 242, "trialdata": {"rt": -1, "trial_type": "single-stim", "stimulus": "<p id=\"stim\">6</p>", "internal_node_id": "0.0-184.0-4.0", "time_elapsed": 1068814, "key_press": -1, "trial_index": 242}, "uniqueid": "MTK2432:32N49TQG3HPGAIKA4XKM6UM8AIZAVQ", "dateTime": 1517250751002}, {"current_trial": 243, "trialdata": {"rt": -1, "trial_type": "single-stim", "stimulus": "<p id=\"stim\">5</p>", "internal_node_id": "0.0-184.0-5.0", "time_elapsed": 1069816, "key_press": -1, "trial_index": 243}, "uniqueid": "MTK2432:32N49TQG3HPGAIKA4XKM6UM8AIZAVQ", "dateTime": 1517250752003}, {"current_trial": 244, "trialdata": {"rt": -1, "trial_type": "single-stim", "stimulus": "<p id=\"stim\">4</p>", "internal_node_id": "0.0-184.0-6.0", "time_elapsed": 1070819, "key_press": -1, "trial_index": 244}, "uniqueid": "MTK2432:32N49TQG3HPGAIKA4XKM6UM8AIZAVQ", "dateTime": 1517250753007}, {"current_trial": 245, "trialdata": {"rt": -1, "trial_type": "single-stim", "stimulus": "<p id=\"stim\">3</p>", "internal_node_id": "0.0-184.0-7.0", "time_elapsed": 1071822, "key_press": -1, "trial_index": 245}, "uniqueid": "MTK2432:32N49TQG3HPGAIKA4XKM6UM8AIZAVQ", "dateTime": 1517250754009}, {"current_trial": 246, "trialdata": {"rt": -1, "trial_type": "single-stim", "stimulus": "<p id=\"stim\">2</p>", "internal_node_id": "0.0-184.0-8.0", "time_elapsed": 1072824, "key_press": -1, "trial_index": 246}, "uniqueid": "MTK2432:32N49TQG3HPGAIKA4XKM6UM8AIZAVQ", "dateTime": 1517250755012}, {"current_trial": 247, "trialdata": {"rt": -1, "trial_type": "single-stim", "stimulus": "<p id=\"stim\">1</p>", "internal_node_id": "0.0-184.0-9.0", "time_elapsed": 1073828, "key_press": -1, "trial_index": 247}, "uniqueid": "MTK2432:32N49TQG3HPGAIKA4XKM6UM8AIZAVQ", "dateTime": 1517250756015}, {"current_trial": 248, "trialdata": {"rt": -1, "trial_type": "single-stim", "stimulus": "<p id=\"stim\">+</p>", "internal_node_id": "0.0-185.0-0.0", "time_elapsed": 1075333, "key_press": -1, "type": "FIXATION", "trial_index": 248}, "uniqueid": "MTK2432:32N49TQG3HPGAIKA4XKM6UM8AIZAVQ", "dateTime": 1517250757521}, {"current_trial": 249, "trialdata": {"rt": -1000, "trial_type": "single-audio", "word": "shirt", "stimulus": "/static/audio/wordpool/SHIRT.wav", "conditions": [24, 1600, "a", 12000], "internal_node_id": "0.0-186.0", "trial": 6, "time_elapsed": 1078021, "serialpos": 0, "key_press": -1, "wordID": 1286, "type": "PRES_AUD", "trial_index": 249}, "uniqueid": "MTK2432:32N49TQG3HPGAIKA4XKM6UM8AIZAVQ", "dateTime": 1517250760209}, {"current_trial": 250, "trialdata": {"rt": -1000, "trial_type": "single-audio", "word": "slime", "stimulus": "/static/audio/wordpool/SLIME.wav", "conditions": [24, 1600, "a", 12000], "internal_node_id": "0.0-187.0", "trial": 6, "time_elapsed": 1080543, "serialpos": 1, "key_press": -1, "wordID": 1326, "type": "PRES_AUD", "trial_index": 250}, "uniqueid": "MTK2432:32N49TQG3HPGAIKA4XKM6UM8AIZAVQ", "dateTime": 1517250762731}, {"current_trial": 251, "trialdata": {"rt": -1000, "trial_type": "singl