{"assignmentId": "35GMH2SV3FOOABSPJQ0U7LIRYA4EO2", "workerId": "MTK2061", "questiondata": {"origin": "United States", "strat-rehearsal": "40", "marital": "Divorced", "education": "Bachelor's degree", "ethnicity": "Not Hispanic", "color_depth": 24, "distracted": "No", "wrote-notes": "No", "strat-other": "", "screen_width": 1536, "avail_screen_width": 1536, "avail_screen_height": 824, "strat-image": "63", "language": "english", "gender": "Female", "age": "71", "gender_other": "", "race": ["White"], "strat-categorize": "50", "pixel_depth": 24, "strat-spatial": "41", "strat-story": "30", "race_other": "", "screen_height": 864}, "bonus": 0, "hitId": "31KPKEKW4AK3D7QSHCRRRSK4FRQB0T", "counterbalance": 1941, "useragent": "Mozilla/5.0 (Windows NT 10.0; Win64; x64) AppleWebKit/537.36 (KHTML, like Gecko) Chrome/63.0.3239.132 Safari/537.36", "eventdata": [{"eventtype": "initialized", "interval": 0, "value": null, "timestamp": 1516667283464}, {"eventtype": "window_resize", "interval": 0, "value": [1540, 816], "timestamp": 1516667283464}, {"eventtype": "focus", "interval": 47553, "value": "off", "timestamp": 1516667331017}, {"eventtype": "focus", "interval": 4399, "value": "on", "timestamp": 1516667335416}, {"eventtype": "focus", "interval": 4623, "value": "off", "timestamp": 1516667340039}, {"eventtype": "focus", "interval": 1209, "value": "on", "timestamp": 1516667341248}, {"eventtype": "focus", "interval": 10202, "value": "off", "timestamp": 1516667351450}, {"eventtype": "focus", "interval": 1497, "value": "on", "timestamp": 1516667352947}, {"eventtype": "focus", "interval": 47889, "value": "off", "timestamp": 1516667400836}, {"eventtype": "focus", "interval": 6327, "value": "on", "timestamp": 1516667407163}, {"eventtype": "focus", "interval": 28275, "value": "off", "timestamp": 1516667435438}, {"eventtype": "focus", "interval": 101, "value": "on", "timestamp": 1516667435539}, {"eventtype": "focus", "interval": 4961, "value": "off", "timestamp": 1516667440500}, {"eventtype": "focus", "interval": 2250, "value": "on", "timestamp": 1516667442750}, {"eventtype": "focus", "interval": 82360, "value": "off", "timestamp": 1516667525110}, {"eventtype": "focus", "interval": 4207, "value": "on", "timestamp": 1516667529317}, {"eventtype": "focus", "interval": 2347697, "value": "off", "timestamp": 1516669877014}, {"eventtype": "focus", "interval": 173, "value": "on", "timestamp": 1516669877187}], "data": [{"current_trial": 0, "trialdata": {"rt": 3498, "trial_type": "text", "internal_node_id": "0.0-0.0", "time_elapsed": 3501, "key_press": 83, "type": "INSTRUCTIONS", "trial_index": 0}, "uniqueid": "MTK2061:35GMH2SV3FOOABSPJQ0U7LIRYA4EO2", "dateTime": 1516667301606}, {"current_trial": 1, "trialdata": {"rt": 23400, "trial_type": "text", "internal_node_id": "0.0-1.0", "time_elapsed": 26905, "key_press": 83, "type": "INSTRUCTIONS", "trial_index": 1}, "uniqueid": "MTK2061:35GMH2SV3FOOABSPJQ0U7LIRYA4EO2", "dateTime": 1516667325010}, {"current_trial": 2, "trialdata": {"rt": [32225], "trial_type": "audio-test", "responses": ["ocean"], "internal_node_id": "0.0-2.0", "time_elapsed": 59176, "type": "AUDIO_TEST", "trial_index": 2}, "uniqueid": "MTK2061:35GMH2SV3FOOABSPJQ0U7LIRYA4EO2", "dateTime": 1516667357281}, {"current_trial": 3, "trialdata": {"rt": [16466], "trial_type": "audio-test", "responses": ["crystal"], "internal_node_id": "0.0-3.0", "time_elapsed": 75654, "type": "AUDIO_TEST", "trial_index": 3}, "uniqueid": "MTK2061:35GMH2SV3FOOABSPJQ0U7LIRYA4EO2", "dateTime": 1516667373758}, {"current_trial": 4, "trialdata": {"rt": [17712], "trial_type": "audio-test", "responses": ["spice"], "internal_node_id": "0.0-4.0", "time_elapsed": 93376, "type": "AUDIO_TEST", "trial_index": 4}, "uniqueid": "MTK2061:35GMH2SV3FOOABSPJQ0U7LIRYA4EO2", "dateTime": 1516667391481}, {"current_trial": 5, "trialdata": {"rt": 40273, "trial_type": "survey-text", "responses": "{\"Q0\":\"11 pm\",\"Q1\":\"5 am\",\"Q2\":\"4\"}", "internal_node_id": "0.0-5.0", "time_elapsed": 134402, "type": "SLEEP_SURVEY", "trial_index": 5}, "uniqueid": "MTK2061:35GMH2SV3FOOABSPJQ0U7LIRYA4EO2", "dateTime": 1516667432506}, {"current_trial": 6, "trialdata": {"rt": 50523, "trial_type": "text", "internal_node_id": "0.0-6.0", "time_elapsed": 185927, "key_press": 68, "type": "INSTRUCTIONS", "trial_index": 6}, "uniqueid": "MTK2061:35GMH2SV3FOOABSPJQ0U7LIRYA4EO2", "dateTime": 1516667484031}, {"current_trial": 7, "trialdata": {"rt": 19757, "trial_type": "text", "internal_node_id": "0.0-7.0", "time_elapsed": 206186, "key_press": 68, "type": "INSTRUCTIONS", "trial_index": 7}, "uniqueid": "MTK2061:35GMH2SV3FOOABSPJQ0U7LIRYA4EO2", "dateTime": 1516667504290}, {"current_trial": 8, "trialdata": {"rt": 14447, "trial_type": "text", "internal_node_id": "0.0-8.0", "time_elapsed": 221134, "key_press": 32, "type": "INSTRUCTIONS", "trial_index": 8}, "uniqueid": "MTK2061:35GMH2SV3FOOABSPJQ0U7LIRYA4EO2", "dateTime": 1516667519239}, {"current_trial": 9, "trialdata": {"rt": [13021], "trial_type": "math-distractor", "key_times": [10306, 10866, 13021], "responses": ["12"], "num2": [3, 4], "num3": [6, 9], "conditions": [18, 1200, "a", 18000], "internal_node_id": "0.0-9.0", "key_presses": [49, 50, 13], "trial": 0, "time_elapsed": 240143, "type": "DISTRACTOR", "trial_index": 9, "num1": [3, 4]}, "uniqueid": "MTK2061:35GMH2SV3FOOABSPJQ0U7LIRYA4EO2", "dateTime": 1516667538248}, {"current_trial": 10, "trialdata": {"rt": -1, "trial_type": "single-stim", "stimulus": "<p id=\"stim\">10</p>", "internal_node_id": "0.0-10.0-0.0", "time_elapsed": 243148, "key_press": -1, "trial_index": 10}, "uniqueid": "MTK2061:35GMH2SV3FOOABSPJQ0U7LIRYA4EO2", "dateTime": 1516667541252}, {"current_trial": 11, "trialdata": {"rt": -1, "trial_type": "single-stim", "stimulus": "<p id=\"stim\">9</p>", "internal_node_id": "0.0-10.0-1.0", "time_elapsed": 244150, "key_press": -1, "trial_index": 11}, "uniqueid": "MTK2061:35GMH2SV3FOOABSPJQ0U7LIRYA4EO2", "dateTime": 1516667542254}, {"current_trial": 12, "trialdata": {"rt": -1, "trial_type": "single-stim", "stimulus": "<p id=\"stim\">8</p>", "internal_node_id": "0.0-10.0-2.0", "time_elapsed": 245151, "key_press": -1, "trial_index": 12}, "uniqueid": "MTK2061:35GMH2SV3FOOABSPJQ0U7LIRYA4EO2", "dateTime": 1516667543255}, {"current_trial": 13, "trialdata": {"rt": -1, "trial_type": "single-stim", "stimulus": "<p id=\"stim\">7</p>", "internal_node_id": "0.0-10.0-3.0", "time_elapsed": 246153, "key_press": -1, "trial_index": 13}, "uniqueid": "MTK2061:35GMH2SV3FOOABSPJQ0U7LIRYA4EO2", "dateTime": 1516667544257}, {"current_trial": 14, "trialdata": {"rt": -1, "trial_type": "single-stim", "stimulus": "<p id=\"stim\">6</p>", "internal_node_id": "0.0-10.0-4.0", "time_elapsed": 247155, "key_press": -1, "trial_index": 14}, "uniqueid": "MTK2061:35GMH2SV3FOOABSPJQ0U7LIRYA4EO2", "dateTime": 1516667545259}, {"current_trial": 15, "trialdata": {"rt": -1, "trial_type": "single-stim", "stimulus": "<p id=\"stim\">5</p>", "internal_node_id": "0.0-10.0-5.0", "time_elapsed": 248157, "key_press": -1, "trial_index": 15}, "uniqueid": "MTK2061:35GMH2SV3FOOABSPJQ0U7LIRYA4EO2", "dateTime": 1516667546261}, {"current_trial": 16, "trialdata": {"rt": -1, "trial_type": "single-stim", "stimulus": "<p id=\"stim\">4</p>", "internal_node_id": "0.0-10.0-6.0", "time_elapsed": 249159, "key_press": -1, "trial_index": 16}, "uniqueid": "MTK2061:35GMH2SV3FOOABSPJQ0U7LIRYA4EO2", "dateTime": 1516667547263}, {"current_trial": 17, "trialdata": {"rt": -1, "trial_type": "single-stim", "stimulus": "<p id=\"stim\">3</p>", "internal_node_id": "0.0-10.0-7.0", "time_elapsed": 250161, "key_press": -1, "trial_index": 17}, "uniqueid": "MTK2061:35GMH2SV3FOOABSPJQ0U7LIRYA4EO2", "dateTime": 1516667548265}, {"current_trial": 18, "trialdata": {"rt": -1, "trial_type": "single-stim", "stimulus": "<p id=\"stim\">2</p>", "internal_node_id": "0.0-10.0-8.0", "time_elapsed": 251163, "key_press": -1, "trial_index": 18}, "uniqueid": "MTK2061:35GMH2SV3FOOABSPJQ0U7LIRYA4EO2", "dateTime": 1516667549268}, {"current_trial": 19, "trialdata": {"rt": -1, "trial_type": "single-stim", "stimulus": "<p id=\"stim\">1</p>", "internal_node_id": "0.0-10.0-9.0", "time_elapsed": 252165, "key_press": -1, "trial_index": 19}, "uniqueid": "MTK2061:35GMH2SV3FOOABSPJQ0U7LIRYA4EO2", "dateTime": 1516667550269}, {"current_trial": 20, "trialdata": {"rt": -1, "trial_type": "single-stim", "stimulus": "<p id=\"stim\">+</p>", "internal_node_id": "0.0-11.0-0.0", "time_elapsed": 253667, "key_press": -1, "type": "FIXATION", "trial_index": 20}, "uniqueid": "MTK2061:35GMH2SV3FOOABSPJQ0U7LIRYA4EO2", "dateTime": 1516667551772}, {"current_trial": 21, "trialdata": {"rt": -1000, "trial_type": "single-audio", "word": "shelf", "stimulus": "/static/audio/wordpool/SHELF.wav", "conditions": [18, 1200, "a", 18000], "internal_node_id": "0.0-12.0", "trial": 0, "time_elapsed": 255747, "serialpos": 0, "key_press": -1, "wordID": 1279, "type": "PRES_AUD", "trial_index": 21}, "uniqueid": "MTK2061:35GMH2SV3FOOABSPJQ0U7LIRYA4EO2", "dateTime": 1516667553852}, {"current_trial": 22, "trialdata": {"rt": -1000, "trial_type": "single-audio", "word": "bug", "stimulus": "/static/audio/wordpool/BUG.wav", "conditions": [18, 1200, "a", 18000], "internal_node_id": "0.0-13.0", "trial": 0, "time_elapsed": 258088, "serialpos": 1, "key_press": -1, "wordID": 186, "type": "PRES_AUD", "trial_index": 22}, "uniqueid": "MTK2061:35GMH2SV3FOOABSPJQ0U7LIRYA4EO2", "dateTime": 1516667556192}, {"current_trial": 23, "trialdata": {"rt": -1000, "trial_type": "single-audio", "word": "transplant", "stimulus": "/static/audio/wordpool/TRANSPLANT.wav", "conditions": [18, 1200, "a", 18000], "internal_node_id": "0.0-14.0", "trial": 0, "time_elapsed": 260154, "serialpos": 2, "key_press": -1, "wordID": 1495, "type": "PRES_AUD", "trial_index": 23}, "uniqueid": "MTK2061:35GMH2SV3FOOABSPJQ0U7LIRYA4EO2", "dateTime": 1516667558259}, {"current_trial": 24, "trialdata": {"rt": -1000, "trial_type": "single-audio", "word": "chapel", "stimulus": "/static/audio/wordpool/CHAPEL.wav", "conditions": [18, 1200, "a", 18000], "internal_node_id": "0.0-15.0", "trial": 0, "time_elapsed": 262433, "serialpos": 3, "key_press": -1, "wordID": 279, "type": "PRES_AUD", "trial_index": 24}, "uniqueid": "MTK2061:35GMH2SV3FOOABSPJQ0U7LIRYA4EO2", "dateTime": 1516667560537}, {"current_trial": 25, "trialdata": {"rt": -1000, "trial_type": "single-audio", "word": "bunny", "stimulus": "/static/audio/wordpool/BUNNY.wav", "conditions": [18, 1200, "a", 18000], "internal_node_id": "0.0-16.0", "trial": 0, "time_elapsed": 264441, "serialpos": 4, "key_press": -1, "wordID": 197, "type": "PRES_AUD", "trial_index": 25}, "uniqueid": "MTK2061:35GMH2SV3FOOABSPJQ0U7LIRYA4EO2", "dateTime": 1516667562545}, {"current_trial": 26, "trialdata": {"rt": -1000, "trial_type": "single-audio", "word": "cellar", "stimulus": "/static/audio/wordpool/CELLAR.wav", "conditions": [18, 1200, "a", 18000], "internal_node_id": "0.0-17.0", "trial": 0, "time_elapsed": 266781, "serialpos": 5, "key_press": -1, "wordID": 266, "type": "PRES_AUD", "trial_index": 26}, "uniqueid": "MTK2061:35GMH2SV3FOOABSPJQ0U7LIRYA4EO2", "dateTime": 1516667564885}, {"current_trial": 27, "trialdata": {"rt": -1000, "trial_type": "single-audio", "word": "daisy", "stimulus": "/static/audio/wordpool/DAISY.wav", "conditions": [18, 1200, "a", 18000], "internal_node_id": "0.0-18.0", "trial": 0, "time_elapsed": 269102, "serialpos": 6, "key_press": -1, "wordID": 434, "type": "PRES_AUD", "trial_index": 27}, "uniqueid": "MTK2061:35GMH2SV3FOOABSPJQ0U7LIRYA4EO2", "dateTime": 1516667567206}, {"current_trial": 28, "trialdata": {"rt": -1000, "trial_type": "single-audio", "word": "lion", "stimulus": "/static/audio/wordpool/LION.wav", "conditions": [18, 1200, "a", 18000], "internal_node_id": "0.0-19.0", "trial": 0, "time_elapsed": 271179, "serialpos": 7, "key_press": -1, "wordID": 826, "type": "PRES_AUD", "trial_index": 28}, "uniqueid": "MTK2061:35GMH2SV3FOOABSPJQ0U7LIRYA4EO2", "dateTime": 1516667569283}, {"current_trial": 29, "trialdata": {"rt": -1000, "trial_type": "single-audio", "word": "cloud", "stimulus": "/static/audio/wordpool/CLOUD.wav", "conditions": [18, 1200, "a", 18000], "internal_node_id": "0.0-20.0", "trial": 0, "time_elapsed": 273392, "serialpos": 8, "key_press": -1, "wordID": 327, "type": "PRES_AUD", "trial_index": 29}, "uniqueid": "MTK2061:35GMH2SV3FOOABSPJQ0U7LIRYA4EO2", "dateTime": 1516667571497}, {"current_trial": 30, "trialdata": {"rt": -1000, "trial_type": "single-audio", "word": "custard", "stimulus": "/static/audio/wordpool/CUSTARD.wav", "conditions": [18, 1200, "a", 18000], "internal_node_id": "0.0-21.0", "trial": 0, "time_elapsed": 275586, "serialpos": 9, "key_press": -1, "wordID": 428, "type": "PRES_AUD", "trial_index": 30}, "uniqueid": "MTK2061:35GMH2SV3FOOABSPJQ0U7LIRYA4EO2", "dateTime": 1516667573690}, {"current_trial": 31, "trialdata": {"rt": -1000, "trial_type": "single-audio", "word": "actress", "stimulus": "/static/audio/wordpool/ACTRESS.wav", "conditions": [18, 1200, "a", 18000], "internal_node_id": "0.0-22.0", "trial": 0, "time_elapsed": 277781, "serialpos": 10, "key_press": -1, "wordID": 5, "type": "PRES_AUD", "trial_index": 31}, "uniqueid": "MTK2061:35GMH2SV3FOOABSPJQ0U7LIRYA4EO2", "dateTime": 1516667575885}, {"current_trial": 32, "trialdata": {"rt": -1000, "trial_type": "single-audio", "word": "piston", "stimulus": "/static/audio/wordpool/PISTON.wav", "conditions": [18, 1200, "a", 18000], "internal_node_id": "0.0-23.0", "trial": 0, "time_elapsed": 280003, "serialpos": 11, "key_press": -1, "wordID": 1075, "type": "PRES_AUD", "trial_index": 32}, "uniqueid": "MTK2061:35GMH2SV3FOOABSPJQ0U7LIRYA4EO2", "dateTime": 1516667578107}, {"current_trial": 33, "trialdata": {"rt": -1000, "trial_type": "single-audio", "word": "keeper", "stimulus": "/static/audio/wordpool/KEEPER.wav", "conditions": [18, 1200, "a", 18000], "internal_node_id": "0.0-24.0", "trial": 0, "time_elapsed": 282087, "serialpos": 12, "key_press": -1, "wordID": 768, "type": "PRES_AUD", "trial_index": 33}, "uniqueid": "MTK2061:35GMH2SV3FOOABSPJQ0U7LIRYA4EO2", "dateTime": 1516667580192}, {"current_trial": 34, "trialdata": {"rt": -1000, "trial_type": "single-audio", "word": "mask", "stimulus": "/static/audio/wordpool/MASK.wav", "conditions": [18, 1200, "a", 18000], "internal_node_id": "0.0-25.0", "trial": 0, "time_elapsed": 284122, "serialpos": 13, "key_press": -1, "wordID": 875, "type": "PRES_AUD", "trial_index": 34}, "uniqueid": "MTK2061:35GMH2SV3FOOABSPJQ0U7LIRYA4EO2", "dateTime": 1516667582226}, {"current_trial": 35, "trialdata": {"rt": -1000, "trial_type": "single-audio", "word": "clock", "stimulus": "/static/audio/wordpool/CLOCK.wav", "conditions": [18, 1200, "a", 18000], "internal_node_id": "0.0-26.0", "trial": 0, "time_elapsed": 286253, "serialpos": 14, "key_press": -1, "wordID": 324, "type": "PRES_AUD", "trial_index": 35}, "uniqueid": "MTK2061:35GMH2SV3FOOABSPJQ0U7LIRYA4EO2", "dateTime": 1516667584358}, {"current_trial": 36, "trialdata": {"rt": -1000, "trial_type": "single-audio", "word": "butcher", "stimulus": "/static/audio/wordpool/BUTCHER.wav", "conditions": [18, 1200, "a", 18000], "internal_node_id": "0.0-27.0", "trial": 0, "time_elapsed": 288530, "serialpos": 15, "key_press": -1, "wordID": 202, "type": "PRES_AUD", "trial_index": 36}, "uniqueid": "MTK2061:35GMH2SV3FOOABSPJQ0U7LIRYA4EO2", "dateTime": 1516667586634}, {"current_trial": 37, "trialdata": {"rt": -1000, "trial_type": "single-audio", "word": "temple", "stimulus": "/static/audio/wordpool/TEMPLE.wav", "conditions": [18, 1200, "a", 18000], "internal_node_id": "0.0-28.0", "trial": 0, "time_elapsed": 290871, "serialpos": 16, "key_press": -1, "wordID": 1447, "type": "PRES_AUD", "trial_index": 37}, "uniqueid": "MTK2061:35GMH2SV3FOOABSPJQ0U7LIRYA4EO2", "dateTime": 1516667588975}, {"current_trial": 38, "trialdata": {"rt": -1000, "trial_type": "single-audio", "word": "fiddle", "stimulus": "/static/audio/wordpool/FIDDLE.wav", "conditions": [18, 1200, "a", 18000], "internal_node_id": "0.0-29.0", "trial": 0, "time_elapsed": 293007, "serialpos": 17, "key_press": -1, "wordID": 560, "type": "PRES_AUD", "trial_index": 38}, "uniqueid": "MTK2061:35GMH2SV3FOOABSPJQ0U7LIRYA4EO2", "dateTime": 1516667591111}, {"current_trial": 39, "trialdata": {"rt": -1, "trial_type": "single-stim", "stimulus": "", "internal_node_id": "0.0-30.0-0.0", "time_elapsed": 294391, "key_press": -1, "type": "PRE_RECALL_DELAY", "trial_index": 39}, "uniqueid": "MTK2061:35GMH2SV3FOOABSPJQ0U7LIRYA4EO2", "dateTime": 1516667592496}, {"current_trial": 40, "trialdata": {"rt": -1000, "trial_type": "single-audio", "stimulus": "/static/audio/400Hz.wav", "internal_node_id": "0.0-31.0", "time_elapsed": 294893, "key_press": -1, "type": "PRE_RECALL_ALERT", "trial_index": 40}, "uniqueid": "MTK2061:35GMH2SV3FOOABSPJQ0U7LIRYA4EO2", "dateTime": 1516667592997}, {"current_trial": 41, "trialdata": {"rt": [11633, 17032, 21982, 28351], "recwords": ["actress ", "clock", "fiddle", "temple"], "key_times": [3750, 5089, 5936, 7918, 9285, 9287, 9288, 9288, 11633, 12963, 14166, 14757, 15542, 16344, 17032, 17882, 18476, 19116, 19358, 20156, 21215, 21982, 23441, 24242, 25059, 25821, 26382, 27502, 28351], "trial_type": "free-recall", "conditions": [18, 1200, "a", 18000], "internal_node_id": "0.0-32.0-0.0", "key_presses": [65, 67, 84, 82, 231, 231, 231, 231, 13, 67, 76, 79, 67, 75, 13, 70, 73, 68, 68, 76, 69, 13, 84, 69, 77, 80, 76, 69, 13], "trial": 0, "time_elapsed": 354898, "type": "FREE_RECALL", "trial_index": 41}, "uniqueid": "MTK2061:35GMH2SV3FOOABSPJQ0U7LIRYA4EO2", "dateTime": 1516667653007}, {"current_trial": 42, "trialdata": {"rt": 3003, "trial_type": "text", "internal_node_id": "0.0-33.0", "time_elapsed": 359908, "key_press": 32, "type": "INSTRUCTIONS", "trial_index": 42}, "uniqueid": "MTK2061:35GMH2SV3FOOABSPJQ0U7LIRYA4EO2", "dateTime": 1516667658012}, {"current_trial": 43, "trialdata": {"rt": [7072, 16154], "trial_type": "math-distractor", "key_times": [5401, 6315, 7072, 12052, 13527, 16154], "responses": ["19", "18"], "num2": [9, 9, 3], "num3": [1, 3, 9], "conditions": [18, 1200, "a", 18000], "internal_node_id": "0.0-34.0", "key_presses": [49, 57, 13, 49, 56, 13], "trial": 1, "time_elapsed": 379912, "type": "DISTRACTOR", "trial_index": 43, "num1": [9, 6, 9]}, "uniqueid": "MTK2061:35GMH2SV3FOOABSPJQ0U7LIRYA4EO2", "dateTime": 1516667678016}, {"current_trial": 44, "trialdata": {"rt": -1, "trial_type": "single-stim", "stimulus": "<p id=\"stim\">10</p>", "internal_node_id": "0.0-35.0-0.0", "time_elapsed": 382914, "key_press": -1, "trial_index": 44}, "uniqueid": "MTK2061:35GMH2SV3FOOABSPJQ0U7LIRYA4EO2", "dateTime": 1516667681018}, {"current_trial": 45, "trialdata": {"rt": -1, "trial_type": "single-stim", "stimulus": "<p id=\"stim\">9</p>", "internal_node_id": "0.0-35.0-1.0", "time_elapsed": 383917, "key_press": -1, "trial_index": 45}, "uniqueid": "MTK2061:35GMH2SV3FOOABSPJQ0U7LIRYA4EO2", "dateTime": 1516667682021}, {"current_trial": 46, "trialdata": {"rt": -1, "trial_type": "single-stim", "stimulus": "<p id=\"stim\">8</p>", "internal_node_id": "0.0-35.0-2.0", "time_elapsed": 384919, "key_press": -1, "trial_index": 46}, "uniqueid": "MTK2061:35GMH2SV3FOOABSPJQ0U7LIRYA4EO2", "dateTime": 1516667683023}, {"current_trial": 47, "trialdata": {"rt": -1, "trial_type": "single-stim", "stimulus": "<p id=\"stim\">7</p>", "internal_node_id": "0.0-35.0-3.0", "time_elapsed": 385921, "key_press": -1, "trial_index": 47}, "uniqueid": "MTK2061:35GMH2SV3FOOABSPJQ0U7LIRYA4EO2", "dateTime": 1516667684025}, {"current_trial": 48, "trialdata": {"rt": -1, "trial_type": "single-stim", "stimulus": "<p id=\"stim\">6</p>", "internal_node_id": "0.0-35.0-4.0", "time_elapsed": 386922, "key_press": -1, "trial_index": 48}, "uniqueid": "MTK2061:35GMH2SV3FOOABSPJQ0U7LIRYA4EO2", "dateTime": 1516667685027}, {"current_trial": 49, "trialdata": {"rt": -1, "trial_type": "single-stim", "stimulus": "<p id=\"stim\">5</p>", "internal_node_id": "0.0-35.0-5.0", "time_elapsed": 387924, "key_press": -1, "trial_index": 49}, "uniqueid": "MTK2061:35GMH2SV3FOOABSPJQ0U7LIRYA4EO2", "dateTime": 1516667686028}, {"current_trial": 50, "trialdata": {"rt": -1, "trial_type": "single-stim", "stimulus": "<p id=\"stim\">4</p>", "internal_node_id": "0.0-35.0-6.0", "time_elapsed": 388926, "key_press": -1, "trial_index": 50}, "uniqueid": "MTK2061:35GMH2SV3FOOABSPJQ0U7LIRYA4EO2", "dateTime": 1516667687030}, {"current_trial": 51, "trialdata": {"rt": -1, "trial_type": "single-stim", "stimulus": "<p id=\"stim\">3</p>", "internal_node_id": "0.0-35.0-7.0", "time_elapsed": 389928, "key_press": -1, "trial_index": 51}, "uniqueid": "MTK2061:35GMH2SV3FOOABSPJQ0U7LIRYA4EO2", "dateTime": 1516667688032}, {"current_trial": 52, "trialdata": {"rt": -1, "trial_type": "single-stim", "stimulus": "<p id=\"stim\">2</p>", "internal_node_id": "0.0-35.0-8.0", "time_elapsed": 390930, "key_press": -1, "trial_index": 52}, "uniqueid": "MTK2061:35GMH2SV3FOOABSPJQ0U7LIRYA4EO2", "dateTime": 1516667689034}, {"current_trial": 53, "trialdata": {"rt": -1, "trial_type": "single-stim", "stimulus": "<p id=\"stim\">1</p>", "internal_node_id": "0.0-35.0-9.0", "time_elapsed": 391932, "key_press": -1, "trial_index": 53}, "uniqueid": "MTK2061:35GMH2SV3FOOABSPJQ0U7LIRYA4EO2", "dateTime": 1516667690036}, {"current_trial": 54, "trialdata": {"rt": -1, "trial_type": "single-stim", "stimulus": "<p id=\"stim\">+</p>", "internal_node_id": "0.0-36.0-0.0", "time_elapsed": 393436, "key_press": -1, "type": "FIXATION", "trial_index": 54}, "uniqueid": "MTK2061:35GMH2SV3FOOABSPJQ0U7LIRYA4EO2", "dateTime": 1516667691540}, {"current_trial": 55, "trialdata": {"rt": -1000, "trial_type": "single-audio", "word": "driver", "stimulus": "/static/audio/wordpool/DRIVER.wav", "conditions": [18, 1200, "a", 18000], "internal_node_id": "0.0-37.0", "trial": 1, "time_elapsed": 395442, "serialpos": 0, "key_press": -1, "wordID": 498, "type": "PRES_AUD", "trial_index": 55}, "uniqueid": "MTK2061:35GMH2SV3FOOABSPJQ0U7LIRYA4EO2", "dateTime": 1516667693546}, {"current_trial": 56, "trialdata": {"rt": -1000, "trial_type": "single-audio", "word": "expert", "stimulus": "/static/audio/wordpool/EXPERT.wav", "conditions": [18, 1200, "a", 18000], "internal_node_id": "0.0-38.0", "trial": 1, "time_elapsed": 397489, "serialpos": 1, "key_press": -1, "wordID": 542, "type": "PRES_AUD", "trial_index": 56}, "uniqueid": "MTK2061:35GMH2SV3FOOABSPJQ0U7LIRYA4EO2", "dateTime": 1516667695593}, {"current_trial": 57, "trialdata": {"rt": -1000, "trial_type": "single-audio", "word": "poison", "stimulus": "/static/audio/wordpool/POISON.wav", "conditions": [18, 1200, "a", 18000], "internal_node_id": "0.0-39.0", "trial": 1, "time_elapsed": 399621, "serialpos": 2, "key_press": -1, "wordID": 1095, "type": "PRES_AUD", "trial_index": 57}, "uniqueid": "MTK2061:35GMH2SV3FOOABSPJQ0U7LIRYA4EO2", "dateTime": 1516667697725}, {"current_trial": 58, "trialdata": {"rt": -1000, "trial_type": "single-audio", "word": "flashlight", "stimulus": "/static/audio/wordpool/FLASHLIGHT.wav", "conditions": [18, 1200, "a", 18000], "internal_node_id": "0.0-40.0", "trial": 1, "time_elapsed": 401986, "serialpos": 3, "key_press": -1, "wordID": 574, "type": "PRES_AUD", "trial_index": 58}, "uniqueid": "MTK2061:35GMH2SV3FOOABSPJQ0U7LIRYA4EO2", "dateTime": 1516667700090}, {"current_trial": 59, "trialdata": {"rt": -1000, "trial_type": "single-audio", "word": "pistol", "stimulus": "/static/audio/wordpool/PISTOL.wav", "conditions": [18, 1200, "a", 18000], "internal_node_id": "0.0-41.0", "trial": 1, "time_elapsed": 404236, "serialpos": 4, "key_press": -1, "wordID": 1074, "type": "PRES_AUD", "trial_index": 59}, "uniqueid": "MTK2061:35GMH2SV3FOOABSPJQ0U7LIRYA4EO2", "dateTime": 1516667702340}, {"current_trial": 60, "trialdata": {"rt": -1000, "trial_type": "single-audio", "word": "dolphin", "stimulus": "/static/audio/wordpool/DOLPHIN.wav", "conditions": [18, 1200, "a", 18000], "internal_node_id": "0.0-42.0", "trial": 1, "time_elapsed": 406541, "serialpos": 5, "key_press": -1, "wordID": 482, "type": "PRES_AUD", "trial_index": 60}, "uniqueid": "MTK2061:35GMH2SV3FOOABSPJQ0U7LIRYA4EO2", "dateTime": 1516667704645}, {"current_trial": 61, "trialdata": {"rt": -1000, "trial_type": "single-audio", "word": "patient", "stimulus": "/static/audio/wordpool/PATIENT.wav", "conditions": [18, 1200, "a", 18000], "internal_node_id": "0.0-43.0", "trial": 1, "time_elapsed": 408782, "serialpos": 6, "key_press": -1, "wordID": 1023, "type": "PRES_AUD", "trial_index": 61}, "uniqueid": "MTK2061:35GMH2SV3FOOABSPJQ0U7LIRYA4EO2", "dateTime": 1516667706886}, {"current_trial": 62, "trialdata": {"rt": -1000, "trial_type": "single-audio", "word": "balloon", "stimulus": "/static/audio/wordpool/BALLOON.wav", "conditions": [18, 1200, "a", 18000], "internal_node_id": "0.0-44.0", "trial": 1, "time_elapsed": 410953, "serialpos": 7, "key_press": -1, "wordID": 74, "type": "PRES_AUD", "trial_index": 62}, "uniqueid": "MTK2061:35GMH2SV3FOOABSPJQ0U7LIRYA4EO2", "dateTime": 1516667709057}, {"current_trial": 63, "trialdata": {"rt": -1000, "trial_type": "single-audio", "word": "zipper", "stimulus": "/static/audio/wordpool/ZIPPER.wav", "conditions": [18, 1200, "a", 18000], "internal_node_id": "0.0-45.0", "trial": 1, "time_elapsed": 413146, "serialpos": 8, "key_press": -1, "wordID": 1635, "type": "PRES_AUD", "trial_index": 63}, "uniqueid": "MTK2061:35GMH2SV3FOOABSPJQ0U7LIRYA4EO2", "dateTime": 1516667711251}, {"current_trial": 64, "trialdata": {"rt": -1000, "trial_type": "single-audio", "word": "sponge", "stimulus": "/static/audio/wordpool/SPONGE.wav", "conditions": [18, 1200, "a", 18000], "internal_node_id": "0.0-46.0", "trial": 1, "time_elapsed": 415534, "serialpos": 9, "key_press": -1, "wordID": 1354, "type": "PRES_AUD", "trial_index": 64}, "uniqueid": "MTK2061:35GMH2SV3FOOABSPJQ0U7LIRYA4EO2", "dateTime": 1516667713639}, {"current_trial": 65, "trialdata": {"rt": -1000, "trial_type": "single-audio", "word": "tribe", "stimulus": "/static/audio/wordpool/TRIBE.wav", "conditions": [18, 1200, "a", 18000], "internal_node_id": "0.0-47.0", "trial": 1, "time_elapsed": 417576, "serialpos": 10, "key_press": -1, "wordID": 1504, "type": "PRES_AUD", "trial_index": 65}, "uniqueid": "MTK2061:35GMH2SV3FOOABSPJQ0U7LIRYA4EO2", "dateTime": 1516667715680}, {"current_trial": 66, "trialdata": {"rt": -1000, "trial_type": "single-audio", "word": "turtle", "stimulus": "/static/audio/wordpool/TURTLE.wav", "conditions": [18, 1200, "a", 18000], "internal_node_id": "0.0-48.0", "trial": 1, "time_elapsed": 419965, "serialpos": 11, "key_press": -1, "wordID": 1521, "type": "PRES_AUD", "trial_index": 66}, "uniqueid": "MTK2061:35GMH2SV3FOOABSPJQ0U7LIRYA4EO2", "dateTime": 1516667718069}, {"current_trial": 67, "trialdata": {"rt": -1000, "trial_type": "single-audio", "word": "outdoors", "stimulus": "/static/audio/wordpool/OUTDOORS.wav", "conditions": [18, 1200, "a", 18000], "internal_node_id": "0.0-49.0", "trial": 1, "time_elapsed": 422326, "serialpos": 12, "key_press": -1, "wordID": 986, "type": "PRES_AUD", "trial_index": 67}, "uniqueid": "MTK2061:35GMH2SV3FOOABSPJQ0U7LIRYA4EO2", "dateTime": 1516667720431}, {"current_trial": 68, "trialdata": {"rt": -1000, "trial_type": "single-audio", "word": "student", "stimulus": "/static/audio/wordpool/STUDENT.wav", "conditions": [18, 1200, "a", 18000], "internal_node_id": "0.0-50.0", "trial": 1, "time_elapsed": 424686, "serialpos": 13, "key_press": -1, "wordID": 1394, "type": "PRES_AUD", "trial_index": 68}, "uniqueid": "MTK2061:35GMH2SV3FOOABSPJQ0U7LIRYA4EO2", "dateTime": 1516667722793}, {"current_trial": 69, "trialdata": {"rt": -1000, "trial_type": "single-audio", "word": "dashboard", "stimulus": "/static/audio/wordpool/DASHBOARD.wav", "conditions": [18, 1200, "a", 18000], "internal_node_id": "0.0-51.0", "trial": 1, "time_elapsed": 427082, "serialpos": 14, "key_press": -1, "wordID": 440, "type": "PRES_AUD", "trial_index": 69}, "uniqueid": "MTK2061:35GMH2SV3FOOABSPJQ0U7LIRYA4EO2", "dateTime": 1516667725186}, {"current_trial": 70, "trialdata": {"rt": -1000, "trial_type": "single-audio", "word": "uncle", "stimulus": "/static/audio/wordpool/UNCLE.wav", "conditions": [18, 1200, "a", 18000], "internal_node_id": "0.0-52.0", "trial": 1, "time_elapsed": 429417, "serialpos": 15, "key_press": -1, "wordID": 1535, "type": "PRES_AUD", "trial_index": 70}, "uniqueid": "MTK2061:35GMH2SV3FOOABSPJQ0U7LIRYA4EO2", "dateTime": 1516667727521}, {"current_trial": 71, "trialdata": {"rt": -1000, "trial_type": "single-audio", "word": "partner", "stimulus": "/static/audio/wordpool/PARTNER.wav", "conditions": [18, 1200, "a", 18000], "internal_node_id": "0.0-53.0", "trial": 1, "time_elapsed": 431479, "serialpos": 16, "key_press": -1, "wordID": 1016, "type": "PRES_AUD", "trial_index": 71}, "uniqueid": "MTK2061:35GMH2SV3FOOABSPJQ0U7LIRYA4EO2", "dateTime": 1516667729583}, {"current_trial": 72, "trialdata": {"rt": -1000, "trial_type": "single-audio", "word": "arm", "stimulus": "/static/audio/wordpool/ARM.wav", "conditions": [18, 1200, "a", 18000], "internal_node_id": "0.0-54.0", "trial": 1, "time_elapsed": 433556, "serialpos": 17, "key_press": -1, "wordID": 37, "type": "PRES_AUD", "trial_index": 72}, "uniqueid": "MTK2061:35GMH2SV3FOOABSPJQ0U7LIRYA4EO2", "dateTime": 1516667731660}, {"current_trial": 73, "trialdata": {"rt": -1, "trial_type": "single-stim", "stimulus": "", "internal_node_id": "0.0-55.0-0.0", "time_elapsed": 434813, "key_press": -1, "type": "PRE_RECALL_DELAY", "trial_index": 73}, "uniqueid": "MTK2061:35GMH2SV3FOOABSPJQ0U7LIRYA4EO2", "dateTime": 1516667732917}, {"current_trial": 74, "trialdata": {"rt": -1000, "trial_type": "single-audio", "stimulus": "/static/audio/400Hz.wav", "internal_node_id": "0.0-56.0", "time_elapsed": 435321, "key_press": -1, "type": "PRE_RECALL_ALERT", "trial_index": 74}, "uniqueid": "MTK2061:35GMH2SV3FOOABSPJQ0U7LIRYA4EO2", "dateTime": 1516667733425}, {"current_trial": 75, "trialdata": {"rt": [10083, 16726, 27949, 39662, 48517], "recwords": ["dashboard ", "uncle ", "partner ", "student ", "outdoors"], "key_times": [2539, 3209, 3819, 5165, 5869, 8376, 8378, 8380, 8381, 8381, 10083, 11013, 11797, 12631, 15617, 15618, 15619, 16726, 17670, 18501, 19449, 21219, 22838, 23365, 27099, 27100, 27101, 27102, 27949, 32504, 33335, 34007, 34856, 35499, 36732, 38539, 38540, 39662, 43039, 43726, 44413, 45040, 45953, 46240, 46932, 47508, 48517], "trial_type": "free-recall", "conditions": [18, 1200, "a", 18000], "internal_node_id": "0.0-57.0-0.0", "key_presses": [68, 65, 83, 72, 66, 231, 231, 231, 231, 231, 13, 85, 78, 67, 231, 231, 231, 13, 80, 65, 69, 8, 82, 84, 231, 231, 231, 231, 13, 83, 84, 85, 68, 69, 78, 231, 231, 13, 79, 85, 84, 68, 79, 79, 82, 83, 13], "trial": 1, "time_elapsed": 495325, "type": "FREE_RECALL", "trial_index": 75}, "uniqueid": "MTK2061:35GMH2SV3FOOABSPJQ0U7LIRYA4EO2", "dateTime": 1516667793432}, {"current_trial": 76, "trialdata": {"rt": 17000, "trial_type": "text", "internal_node_id": "0.0-58.0", "time_elapsed": 514330, "key_press": 32, "type": "INSTRUCTIONS", "trial_index": 76}, "uniqueid": "MTK2061:35GMH2SV3FOOABSPJQ0U7LIRYA4EO2", "dateTime": 1516667812434}, {"current_trial": 77, "trialdata": {"rt": [5590, 10862], "trial_type": "math-distractor", "key_times": [3636, 4662, 5590, 8588, 10159, 10862], "responses": ["13", "10"], "num2": [7, 1, 8], "num3": [2, 2, 5], "conditions": [12, 800, "a", 12000], "internal_node_id": "0.0-59.0", "key_presses": [49, 51, 13, 49, 48, 13], "trial": 2, "time_elapsed": 527335, "type": "DISTRACTOR", "trial_index": 77, "num1": [4, 7, 9]}, "uniqueid": "MTK2061:35GMH2SV3FOOABSPJQ0U7LIRYA4EO2", "dateTime": 1516667825439}, {"current_trial": 78, "trialdata": {"rt": -1, "trial_type": "single-stim", "stimulus": "<p id=\"stim\">10</p>", "internal_node_id": "0.0-60.0-0.0", "time_elapsed": 530338, "key_press": -1, "trial_index": 78}, "uniqueid": "MTK2061:35GMH2SV3FOOABSPJQ0U7LIRYA4EO2", "dateTime": 1516667828442}, {"current_trial": 79, "trialdata": {"rt": -1, "trial_type": "single-stim", "stimulus": "<p id=\"stim\">9</p>", "internal_node_id": "0.0-60.0-1.0", "time_elapsed": 531340, "key_press": -1, "trial_index": 79}, "uniqueid": "MTK2061:35GMH2SV3FOOABSPJQ0U7LIRYA4EO2", "dateTime": 1516667829444}, {"current_trial": 80, "trialdata": {"rt": -1, "trial_type": "single-stim", "stimulus": "<p id=\"stim\">8</p>", "internal_node_id": "0.0-60.0-2.0", "time_elapsed": 532341, "key_press": -1, "trial_index": 80}, "uniqueid": "MTK2061:35GMH2SV3FOOABSPJQ0U7LIRYA4EO2", "dateTime": 1516667830445}, {"current_trial": 81, "trialdata": {"rt": -1, "trial_type": "single-stim", "stimulus": "<p id=\"stim\">7</p>", "internal_node_id": "0.0-60.0-3.0", "time_elapsed": 533345, "key_press": -1, "trial_index": 81}, "uniqueid": "MTK2061:35GMH2SV3FOOABSPJQ0U7LIRYA4EO2", "dateTime": 1516667831450}, {"current_trial": 82, "trialdata": {"rt": -1, "trial_type": "single-stim", "stimulus": "<p id=\"stim\">6</p>", "internal_node_id": "0.0-60.0-4.0", "time_elapsed": 534348, "key_press": -1, "trial_index": 82}, "uniqueid": "MTK2061:35GMH2SV3FOOABSPJQ0U7LIRYA4EO2", "dateTime": 1516667832452}, {"current_trial": 83, "trialdata": {"rt": -1, "trial_type": "single-stim", "stimulus": "<p id=\"stim\">5</p>", "internal_node_id": "0.0-60.0-5.0", "time_elapsed": 535350, "key_press": -1, "trial_index": 83}, "uniqueid": "MTK2061:35GMH2SV3FOOABSPJQ0U7LIRYA4EO2", "dateTime": 1516667833454}, {"current_trial": 84, "trialdata": {"rt": -1, "trial_type": "single-stim", "stimulus": "<p id=\"stim\">4</p>", "internal_node_id": "0.0-60.0-6.0", "time_elapsed": 536353, "key_press": -1, "trial_index": 84}, "uniqueid": "MTK2061:35GMH2SV3FOOABSPJQ0U7LIRYA4EO2", "dateTime": 1516667834457}, {"current_trial": 85, "trialdata": {"rt": -1, "trial_type": "single-stim", "stimulus": "<p id=\"stim\">3</p>", "internal_node_id": "0.0-60.0-7.0", "time_elapsed": 537355, "key_press": -1, "trial_index": 85}, "uniqueid": "MTK2061:35GMH2SV3FOOABSPJQ0U7LIRYA4EO2", "dateTime": 1516667835459}, {"current_trial": 86, "trialdata": {"rt": -1, "trial_type": "single-stim", "stimulus": "<p id=\"stim\">2</p>", "internal_node_id": "0.0-60.0-8.0", "time_elapsed": 538357, "key_press": -1, "trial_index": 86}, "uniqueid": "MTK2061:35GMH2SV3FOOABSPJQ0U7LIRYA4EO2", "dateTime": 1516667836461}, {"current_trial": 87, "trialdata": {"rt": -1, "trial_type": "single-stim", "stimulus": "<p id=\"stim\">1</p>", "internal_node_id": "0.0-60.0-9.0", "time_elapsed": 539359, "key_press": -1, "trial_index": 87}, "uniqueid": "MTK2061:35GMH2SV3FOOABSPJQ0U7LIRYA4EO2", "dateTime": 1516667837463}, {"current_trial": 88, "trialdata": {"rt": -1, "trial_type": "single-stim", "stimulus": "<p id=\"stim\">+</p>", "internal_node_id": "0.0-61.0-0.0", "time_elapsed": 540861, "key_press": -1, "type": "FIXATION", "trial_index": 88}, "uniqueid": "MTK2061:35GMH2SV3FOOABSPJQ0U7LIRYA4EO2", "dateTime": 1516667838965}, {"current_trial": 89, "trialdata": {"rt": -1000, "trial_type": "single-audio", "word": "bathtub", "stimulus": "/static/audio/wordpool/BATHTUB.wav", "conditions": [12, 800, "a", 12000], "internal_node_id": "0.0-62.0", "trial": 2, "time_elapsed": 542627, "serialpos": 0, "key_press": -1, "wordID": 99, "type": "PRES_AUD", "trial_index": 89}, "uniqueid": "MTK2061:35GMH2SV3FOOABSPJQ0U7LIRYA4EO2", "dateTime": 1516667840732}, {"current_trial": 90, "trialdata": {"rt": -1000, "trial_type": "single-audio", "word": "police", "stimulus": "/static/audio/wordpool/POLICE.wav", "conditions": [12, 800, "a", 12000], "internal_node_id": "0.0-63.0", "trial": 2, "time_elapsed": 544444, "serialpos": 1, "key_press": -1, "wordID": 1097, "type": "PRES_AUD", "trial_index": 90}, "uniqueid": "MTK2061:35GMH2SV3FOOABSPJQ0U7LIRYA4EO2", "dateTime": 1516667842548}, {"current_trial": 91, "trialdata": {"rt": -1000, "trial_type": "single-audio", "word": "necklace", "stimulus": "/static/audio/wordpool/NECKLACE.wav", "conditions": [12, 800, "a", 12000], "internal_node_id": "0.0-64.0", "trial": 2, "time_elapsed": 546368, "serialpos": 2, "key_press": -1, "wordID": 939, "type": "PRES_AUD", "trial_index": 91}, "uniqueid": "MTK2061:35GMH2SV3FOOABSPJQ0U7LIRYA4EO2", "dateTime": 1516667844472}, {"current_trial": 92, "trialdata": {"rt": -1000, "trial_type": "single-audio", "word": "cobra", "stimulus": "/static/audio/wordpool/COBRA.wav", "conditions": [12, 800, "a", 12000], "internal_node_id": "0.0-65.0", "trial": 2, "time_elapsed": 548242, "serialpos": 3, "key_press": -1, "wordID": 335, "type": "PRES_AUD", "trial_index": 92}, "uniqueid": "MTK2061:35GMH2SV3FOOABSPJQ0U7LIRYA4EO2", "dateTime": 1516667846347}, {"current_trial": 93, "trialdata": {"rt": -1000, "trial_type": "single-audio", "word": "nightgown", "stimulus": "/static/audio/wordpool/NIGHTGOWN.wav", "conditions": [12, 800, "a", 12000], "internal_node_id": "0.0-66.0", "trial": 2, "time_elapsed": 549926, "serialpos": 4, "key_press": -1, "wordID": 952, "type": "PRES_AUD", "trial_index": 93}, "uniqueid": "MTK2061:35GMH2SV3FOOABSPJQ0U7LIRYA4EO2", "dateTime": 1516667848030}, {"current_trial": 94, "trialdata": {"rt": -1000, "trial_type": "single-audio", "word": "patrol", "stimulus": "/static/audio/wordpool/PATROL.wav", "conditions": [12, 800, "a", 12000], "internal_node_id": "0.0-67.0", "trial": 2, "time_elapsed": 551557, "serialpos": 5, "key_press": -1, "wordID": 1026, "type": "PRES_AUD", "trial_index": 94}, "uniqueid": "MTK2061:35GMH2SV3FOOABSPJQ0U7LIRYA4EO2", "dateTime": 1516667849661}, {"current_trial": 95, "trialdata": {"rt": -1000, "trial_type": "single-audio", "word": "hornet", "stimulus": "/static/audio/wordpool/HORNET.wav", "conditions": [12, 800, "a", 12000], "internal_node_id": "0.0-68.0", "trial": 2, "time_elapsed": 553195, "serialpos": 6, "key_press": -1, "wordID": 717, "type": "PRES_AUD", "trial_index": 95}, "uniqueid": "MTK2061:35GMH2SV3FOOABSPJQ0U7LIRYA4EO2", "dateTime": 1516667851299}, {"current_trial": 96, "trialdata": {"rt": -1000, "trial_type": "single-audio", "word": "couch", "stimulus": "/static/audio/wordpool/COUCH.wav", "conditions": [12, 800, "a", 12000], "internal_node_id": "0.0-69.0", "trial": 2, "time_elapsed": 554840, "serialpos": 7, "key_press": -1, "wordID": 385, "type": "PRES_AUD", "trial_index": 96}, "uniqueid": "MTK2061:35GMH2SV3FOOABSPJQ0U7LIRYA4EO2", "dateTime": 1516667852944}, {"current_trial": 97, "trialdata": {"rt": -1000, "trial_type": "single-audio", "word": "victim", "stimulus": "/static/audio/wordpool/VICTIM.wav", "conditions": [12, 800, "a", 12000], "internal_node_id": "0.0-70.0", "trial": 2, "time_elapsed": 556807, "serialpos": 8, "key_press": -1, "wordID": 1561, "type": "PRES_AUD", "trial_index": 97}, "uniqueid": "MTK2061:35GMH2SV3FOOABSPJQ0U7LIRYA4EO2", "dateTime": 1516667854911}, {"current_trial": 98, "trialdata": {"rt": -1000, "trial_type": "single-audio", "word": "thief", "stimulus": "/static/audio/wordpool/THIEF.wav", "conditions": [12, 800, "a", 12000], "internal_node_id": "0.0-71.0", "trial": 2, "time_elapsed": 558430, "serialpos": 9, "key_press": -1, "wordID": 1455, "type": "PRES_AUD", "trial_index": 98}, "uniqueid": "MTK2061:35GMH2SV3FOOABSPJQ0U7LIRYA4EO2", "dateTime": 1516667856534}, {"current_trial": 99, "trialdata": {"rt": -1000, "trial_type": "single-audio", "word": "robber", "stimulus": "/static/audio/wordpool/ROBBER.wav", "conditions": [12, 800, "a", 12000], "internal_node_id": "0.0-72.0", "trial": 2, "time_elapsed": 560196, "serialpos": 10, "key_press": -1, "wordID": 1196, "type": "PRES_AUD", "trial_index": 99}, "uniqueid": "MTK2061:35GMH2SV3FOOABSPJQ0U7LIRYA4EO2", "dateTime": 1516667858300}, {"current_trial": 100, "trialdata": {"rt": -1000, "trial_type": "single-audio", "word": "paddle", "stimulus": "/static/audio/wordpool/PADDLE.wav", "conditions": [12, 800, "a", 12000], "internal_node_id": "0.0-73.0", "trial": 2, "time_elapsed": 562049, "serialpos": 11, "key_press": -1, "wordID": 999, "type": "PRES_AUD", "trial_index": 100}, "uniqueid": "MTK2061:35GMH2SV3FOOABSPJQ0U7LIRYA4EO2", "dateTime": 1516667860153}, {"current_trial": 101, "trialdata": {"rt": -1, "trial_type": "single-stim", "stimulus": "", "internal_node_id": "0.0-74.0-0.0", "time_elapsed": 563320, "key_press": -1, "type": "PRE_RECALL_DELAY", "trial_index": 101}, "uniqueid": "MTK2061:35GMH2SV3FOOABSPJQ0U7LIRYA4EO2", "dateTime": 1516667861424}, {"current_trial": 102, "trialdata": {"rt": -1000, "trial_type": "single-audio", "stimulus": "/static/audio/400Hz.wav", "internal_node_id": "0.0-75.0", "time_elapsed": 563826, "key_press": -1, "type": "PRE_RECALL_ALERT", "trial_index": 102}, "uniqueid": "MTK2061:35GMH2SV3FOOABSPJQ0U7LIRYA4EO2", "dateTime": 1516667861930}, {"current_trial": 103, "trialdata": {"rt": [6727, 11500, 16869, 26585, 35896], "recwords": ["paddle ", "robber", "thief", "nightgown", "bathtub "], "key_times": [2151, 3084, 3642, 3882, 5708, 5710, 5711, 6727, 7592, 8424, 9210, 9434, 10236, 10734, 11500, 12527, 13184, 13768, 15268, 15970, 16869, 17927, 18778, 19985, 20820, 22001, 22499, 23364, 24534, 25537, 26585, 28348, 29968, 30863, 31745, 34981, 34982, 34983, 34984, 35896], "trial_type": "free-recall", "conditions": [12, 800, "a", 12000], "internal_node_id": "0.0-76.0-0.0", "key_presses": [80, 65, 68, 68, 231, 231, 231, 13, 82, 79, 66, 66, 69, 82, 13, 84, 72, 73, 69, 70, 13, 78, 73, 71, 72, 84, 71, 79, 87, 78, 13, 66, 65, 84, 72, 231, 231, 231, 231, 13], "trial": 2, "time_elapsed": 623830, "type": "FREE_RECALL", "trial_index": 103}, "uniqueid": "MTK2061:35GMH2SV3FOOABSPJQ0U7LIRYA4EO2", "dateTime": 1516667921937}, {"current_trial": 104, "trialdata": {"rt": 3339, "trial_type": "text", "internal_node_id": "0.0-77.0", "time_elapsed": 629173, "key_press": 32, "type": "INSTRUCTIONS", "trial_index": 104}, "uniqueid": "MTK2061:35GMH2SV3FOOABSPJQ0U7LIRYA4EO2", "dateTime": 1516667927277}, {"current_trial": 105, "trialdata": {"rt": [4128, 8834], "trial_type": "math-distractor", "key_times": [2398, 3167, 4128, 7070, 7726, 8834], "responses": ["16", "12"], "num2": [8, 9, 5], "num3": [5, 1, 2], "conditions": [12, 1600, "a", 12000], "internal_node_id": "0.0-78.0", "key_presses": [49, 54, 13, 49, 50, 13], "trial": 3, "time_elapsed": 643177, "type": "DISTRACTOR", "trial_index": 105, "num1": [3, 2, 1]}, "uniqueid": "MTK2061:35GMH2SV3FOOABSPJQ0U7LIRYA4EO2", "dateTime": 1516667941281}, {"current_trial": 106, "trialdata": {"rt": -1, "trial_type": "single-stim", "stimulus": "<p id=\"stim\">10</p>", "internal_node_id": "0.0-79.0-0.0", "time_elapsed": 646179, "key_press": -1, "trial_index": 106}, "uniqueid": "MTK2061:35GMH2SV3FOOABSPJQ0U7LIRYA4EO2", "dateTime": 1516667944283}, {"current_trial": 107, "trialdata": {"rt": -1, "trial_type": "single-stim", "stimulus": "<p id=\"stim\">9</p>", "internal_node_id": "0.0-79.0-1.0", "time_elapsed": 647181, "key_press": -1, "trial_index": 107}, "uniqueid": "MTK2061:35GMH2SV3FOOABSPJQ0U7LIRYA4EO2", "dateTime": 1516667945285}, {"current_trial": 108, "trialdata": {"rt": -1, "trial_type": "single-stim", "stimulus": "<p id=\"stim\">8</p>", "internal_node_id": "0.0-79.0-2.0", "time_elapsed": 648182, "key_press": -1, "trial_index": 108}, "uniqueid": "MTK2061:35GMH2SV3FOOABSPJQ0U7LIRYA4EO2", "dateTime": 1516667946286}, {"current_trial": 109, "trialdata": {"rt": -1, "trial_type": "single-stim", "stimulus": "<p id=\"stim\">7</p>", "internal_node_id": "0.0-79.0-3.0", "time_elapsed": 649184, "key_press": -1, "trial_index": 109}, "uniqueid": "MTK2061:35GMH2SV3FOOABSPJQ0U7LIRYA4EO2", "dateTime": 1516667947288}, {"current_trial": 110, "trialdata": {"rt": -1, "trial_type": "single-stim", "stimulus": "<p id=\"stim\">6</p>", "internal_node_id": "0.0-79.0-4.0", "time_elapsed": 650186, "key_press": -1, "trial_index": 110}, "uniqueid": "MTK2061:35GMH2SV3FOOABSPJQ0U7LIRYA4EO2", "dateTime": 1516667948290}, {"current_trial": 111, "trialdata": {"rt": -1, "trial_type": "single-stim", "stimulus": "<p id=\"stim\">5</p>", "internal_node_id": "0.0-79.0-5.0", "time_elapsed": 651188, "key_press": -1, "trial_index": 111}, "uniqueid": "MTK2061:35GMH2SV3FOOABSPJQ0U7LIRYA4EO2", "dateTime": 1516667949292}, {"current_trial": 112, "trialdata": {"rt": -1, "trial_type": "single-stim", "stimulus": "<p id=\"stim\">4</p>", "internal_node_id": "0.0-79.0-6.0", "time_elapsed": 652189, "key_press": -1, "trial_index": 112}, "uniqueid": "MTK2061:35GMH2SV3FOOABSPJQ0U7LIRYA4EO2", "dateTime": 1516667950293}, {"current_trial": 113, "trialdata": {"rt": -1, "trial_type": "single-stim", "stimulus": "<p id=\"stim\">3</p>", "internal_node_id": "0.0-79.0-7.0", "time_elapsed": 653191, "key_press": -1, "trial_index": 113}, "uniqueid": "MTK2061:35GMH2SV3FOOABSPJQ0U7LIRYA4EO2", "dateTime": 1516667951295}, {"current_trial": 114, "trialdata": {"rt": -1, "trial_type": "single-stim", "stimulus": "<p id=\"stim\">2</p>", "internal_node_id": "0.0-79.0-8.0", "time_elapsed": 654193, "key_press": -1, "trial_index": 114}, "uniqueid": "MTK2061:35GMH2SV3FOOABSPJQ0U7LIRYA4EO2", "dateTime": 1516667952297}, {"current_trial": 115, "trialdata": {"rt": -1, "trial_type": "single-stim", "stimulus": "<p id=\"stim\">1</p>", "internal_node_id": "0.0-79.0-9.0", "time_elapsed": 655195, "key_press": -1, "trial_index": 115}, "uniqueid": "MTK2061:35GMH2SV3FOOABSPJQ0U7LIRYA4EO2", "dateTime": 1516667953299}, {"current_trial": 116, "trialdata": {"rt": -1, "trial_type": "single-stim", "stimulus": "<p id=\"stim\">+</p>", "internal_node_id": "0.0-80.0-0.0", "time_elapsed": 656697, "key_press": -1, "type": "FIXATION", "trial_index": 116}, "uniqueid": "MTK2061:35GMH2SV3FOOABSPJQ0U7LIRYA4EO2", "dateTime": 1516667954801}, {"current_trial": 117, "trialdata": {"rt": -1000, "trial_type": "single-audio", "word": "actor", "stimulus": "/static/audio/wordpool/ACTOR.wav", "conditions": [12, 1600, "a", 12000], "internal_node_id": "0.0-81.0", "trial": 3, "time_elapsed": 659486, "serialpos": 0, "key_press": -1, "wordID": 4, "type": "PRES_AUD", "trial_index": 117}, "uniqueid": "MTK2061:35GMH2SV3FOOABSPJQ0U7LIRYA4EO2", "dateTime": 1516667957591}, {"current_trial": 118, "trialdata": {"rt": -1000, "trial_type": "single-audio", "word": "ketchup", "stimulus": "/static/audio/wordpool/KETCHUP.wav", "conditions": [12, 1600, "a", 12000], "internal_node_id": "0.0-82.0", "trial": 3, "time_elapsed": 661902, "serialpos": 1, "key_press": -1, "wordID": 770, "type": "PRES_AUD", "trial_index": 118}, "uniqueid": "MTK2061:35GMH2SV3FOOABSPJQ0U7LIRYA4EO2", "dateTime": 1516667960006}, {"current_trial": 119, "trialdata": {"rt": -1000, "trial_type": "single-audio", "word": "catcher", "stimulus": "/static/audio/wordpool/CATCHER.wav", "conditions": [12, 1600, "a", 12000], "internal_node_id": "0.0-83.0", "trial": 3, "time_elapsed": 664443, "serialpos": 2, "key_press": -1, "wordID": 257, "type": "PRES_AUD", "trial_index": 119}, "uniqueid": "MTK2061:35GMH2SV3FOOABSPJQ0U7LIRYA4EO2", "dateTime": 1516667962547}, {"current_trial": 120, "trialdata": {"rt": -1000, "trial_type": "single-audio", "word": "film", "stimulus": "/static/audio/wordpool/FILM.wav", "conditions": [12, 1600, "a", 12000], "internal_node_id": "0.0-84.0", "trial": 3, "time_elapsed": 667146, "serialpos": 3, "key_press": -1, "wordID": 564, "type": "PRES_AUD", "trial_index": 120}, "uniqueid": "MTK2061:35GMH2SV3FOOABSPJQ0U7LIRYA4EO2", "dateTime": 1516667965250}, {"current_trial": 121, "trialdata": {"rt": -1000, "trial_type": "single-audio", "word": "blackboard", "stimulus": "/static/audio/wordpool/BLACKBOARD.wav", "conditions": [12, 1600, "a", 12000], "internal_node_id": "0.0-85.0", "trial": 3, "time_elapsed": 669632, "serialpos": 4, "key_press": -1, "wordID": 132, "type": "PRES_AUD", "trial_index": 121}, "uniqueid": "MTK2061:35GMH2SV3FOOABSPJQ0U7LIRYA4EO2", "dateTime": 1516667967736}, {"current_trial": 122, "trialdata": {"rt": -1000, "trial_type": "single-audio", "word": "valley", "stimulus": "/static/audio/wordpool/VALLEY.wav", "conditions": [12, 1600, "a", 12000], "internal_node_id": "0.0-86.0", "trial": 3, "time_elapsed": 672350, "serialpos": 5, "key_press": -1, "wordID": 1544, "type": "PRES_AUD", "trial_index": 122}, "uniqueid": "MTK2061:35GMH2SV3FOOABSPJQ0U7LIRYA4EO2", "dateTime": 1516667970454}, {"current_trial": 123, "trialdata": {"rt": -1000, "trial_type": "single-audio", "word": "canyon", "stimulus": "/static/audio/wordpool/CANYON.wav", "conditions": [12, 1600, "a", 12000], "internal_node_id": "0.0-87.0", "trial": 3, "time_elapsed": 674945, "serialpos": 6, "key_press": -1, "wordID": 234, "type": "PRES_AUD", "trial_index": 123}, "uniqueid": "MTK2061:35GMH2SV3FOOABSPJQ0U7LIRYA4EO2", "dateTime": 1516667973049}, {"current_trial": 124, "trialdata": {"rt": -1000, "trial_type": "single-audio", "word": "juggler", "stimulus": "/static/audio/wordpool/JUGGLER.wav", "conditions": [12, 1600, "a", 12000], "internal_node_id": "0.0-88.0", "trial": 3, "time_elapsed": 677656, "serialpos": 7, "key_press": -1, "wordID": 762, "type": "PRES_AUD", "trial_index": 124}, "uniqueid": "MTK2061:35GMH2SV3FOOABSPJQ0U7LIRYA4EO2", "dateTime": 1516667975760}, {"current_trial": 125, "trialdata": {"rt": -1000, "trial_type": "single-audio", "word": "guitar", "stimulus": "/static/audio/wordpool/GUITAR.wav", "conditions": [12, 1600, "a", 12000], "internal_node_id": "0.0-89.0", "trial": 3, "time_elapsed": 680349, "serialpos": 8, "key_press": -1, "wordID": 669, "type": "PRES_AUD", "trial_index": 125}, "uniqueid": "MTK2061:35GMH2SV3FOOABSPJQ0U7LIRYA4EO2", "dateTime": 1516667978453}, {"current_trial": 126, "trialdata": {"rt": -1000, "trial_type": "single-audio", "word": "forehead", "stimulus": "/static/audio/wordpool/FOREHEAD.wav", "conditions": [12, 1600, "a", 12000], "internal_node_id": "0.0-90.0", "trial": 3, "time_elapsed": 682816, "serialpos": 9, "key_press": -1, "wordID": 591, "type": "PRES_AUD", "trial_index": 126}, "uniqueid": "MTK2061:35GMH2SV3FOOABSPJQ0U7LIRYA4EO2", "dateTime": 1516667980920}, {"current_trial": 127, "trialdata": {"rt": -1000, "trial_type": "single-audio", "word": "tablet", "stimulus": "/static/audio/wordpool/TABLET.wav", "conditions": [12, 1600, "a", 12000], "internal_node_id": "0.0-91.0", "trial": 3, "time_elapsed": 685278, "serialpos": 10, "key_press": -1, "wordID": 1426, "type": "PRES_AUD", "trial_index": 127}, "uniqueid": "MTK2061:35GMH2SV3FOOABSPJQ0U7LIRYA4EO2", "dateTime": 1516667983382}, {"current_trial": 128, "trialdata": {"rt": -1000, "trial_type": "single-audio", "word": "swamp", "stimulus": "/static/audio/wordpool/SWAMP.wav", "conditions": [12, 1600, "a", 12000], "internal_node_id": "0.0-92.0", "trial": 3, "time_elapsed": 687939, "serialpos": 11, "key_press": -1, "wordID": 1415, "type": "PRES_AUD", "trial_index": 128}, "uniqueid": "MTK2061:35GMH2SV3FOOABSPJQ0U7LIRYA4EO2", "dateTime": 1516667986044}, {"current_trial": 129, "trialdata": {"rt": -1, "trial_type": "single-stim", "stimulus": "", "internal_node_id": "0.0-93.0-0.0", "time_elapsed": 689318, "key_press": -1, "type": "PRE_RECALL_DELAY", "trial_index": 129}, "uniqueid": "MTK2061:35GMH2SV3FOOABSPJQ0U7LIRYA4EO2", "dateTime": 1516667987422}, {"current_trial": 130, "trialdata": {"rt": -1000, "trial_type": "single-audio", "stimulus": "/static/audio/400Hz.wav", "internal_node_id": "0.0-94.0", "time_elapsed": 689820, "key_press": -1, "type": "PRE_RECALL_ALERT", "trial_index": 130}, "uniqueid": "MTK2061:35GMH2SV3FOOABSPJQ0U7LIRYA4EO2", "dateTime": 1516667987924}, {"current_trial": 131, "trialdata": {"rt": [5788, 11185, 25220, 44075, 57072], "recwords": ["swamp", "guitar", "actor", "hoarhead", "valley"], "key_times": [2182, 2823, 3400, 4506, 5177, 5788, 6699, 7470, 8091, 8831, 9712, 10322, 11185, 21157, 21892, 22535, 23229, 24368, 25220, 35713, 36802, 37986, 38724, 39700, 40374, 41128, 41881, 42505, 43019, 44075, 52000, 52802, 53785, 54123, 54876, 55750, 57072], "trial_type": "free-recall", "conditions": [12, 1600, "a", 12000], "internal_node_id": "0.0-95.0-0.0", "key_presses": [83, 87, 65, 77, 80, 13, 71, 85, 73, 84, 65, 82, 13, 65, 67, 84, 79, 82, 13, 72, 73, 8, 79, 65, 82, 72, 69, 65, 68, 13, 86, 65, 76, 76, 69, 89, 13], "trial": 3, "time_elapsed": 749823, "type": "FREE_RECALL", "trial_index": 131}, "uniqueid": "MTK2061:35GMH2SV3FOOABSPJQ0U7LIRYA4EO2", "dateTime": 1516668047931}, {"current_trial": 132, "trialdata": {"rt": 2403, "trial_type": "text", "internal_node_id": "0.0-96.0", "time_elapsed": 754231, "key_press": 32, "type": "INSTRUCTIONS", "trial_index": 132}, "uniqueid": "MTK2061:35GMH2SV3FOOABSPJQ0U7LIRYA4EO2", "dateTime": 1516668052335}, {"current_trial": 133, "trialdata": {"rt": [6948, 10857], "trial_type": "math-distractor", "key_times": [4881, 6146, 6948, 9073, 10090, 10857], "responses": ["24", "19"], "num2": [9, 9, 4], "num3": [9, 1, 1], "conditions": [24, 800, "a", 12000], "internal_node_id": "0.0-97.0", "key_presses": [50, 52, 13, 49, 57, 13], "trial": 4, "time_elapsed": 768236, "type": "DISTRACTOR", "trial_index": 133, "num1": [6, 9, 9]}, "uniqueid": "MTK2061:35GMH2SV3FOOABSPJQ0U7LIRYA4EO2", "dateTime": 1516668066340}, {"current_trial": 134, "trialdata": {"rt": -1, "trial_type": "single-stim", "stimulus": "<p id=\"stim\">10</p>", "internal_node_id": "0.0-98.0-0.0", "time_elapsed": 771238, "key_press": -1, "trial_index": 134}, "uniqueid": "MTK2061:35GMH2SV3FOOABSPJQ0U7LIRYA4EO2", "dateTime": 1516668069343}, {"current_trial": 135, "trialdata": {"rt": -1, "trial_type": "single-stim", "stimulus": "<p id=\"stim\">9</p>", "internal_node_id": "0.0-98.0-1.0", "time_elapsed": 772241, "key_press": -1, "trial_index": 135}, "uniqueid": "MTK2061:35GMH2SV3FOOABSPJQ0U7LIRYA4EO2", "dateTime": 1516668070345}, {"current_trial": 136, "trialdata": {"rt": -1, "trial_type": "single-stim", "stimulus": "<p id=\"stim\">8</p>", "internal_node_id": "0.0-98.0-2.0", "time_elapsed": 773242, "key_press": -1, "trial_index": 136}, "uniqueid": "MTK2061:35GMH2SV3FOOABSPJQ0U7LIRYA4EO2", "dateTime": 1516668071347}, {"current_trial": 137, "trialdata": {"rt": -1, "trial_type": "single-stim", "stimulus": "<p id=\"stim\">7</p>", "internal_node_id": "0.0-98.0-3.0", "time_elapsed": 774245, "key_press": -1, "trial_index": 137}, "uniqueid": "MTK2061:35GMH2SV3FOOABSPJQ0U7LIRYA4EO2", "dateTime": 1516668072349}, {"current_trial": 138, "trialdata": {"rt": -1, "trial_type": "single-stim", "stimulus": "<p id=\"stim\">6</p>", "internal_node_id": "0.0-98.0-4.0", "time_elapsed": 775247, "key_press": -1, "trial_index": 138}, "uniqueid": "MTK2061:35GMH2SV3FOOABSPJQ0U7LIRYA4EO2", "dateTime": 1516668073351}, {"current_trial": 139, "trialdata": {"rt": -1, "trial_type": "single-stim", "stimulus": "<p id=\"stim\">5</p>", "internal_node_id": "0.0-98.0-5.0", "time_elapsed": 776249, "key_press": -1, "trial_index": 139}, "uniqueid": "MTK2061:35GMH2SV3FOOABSPJQ0U7LIRYA4EO2", "dateTime": 1516668074353}, {"current_trial": 140, "trialdata": {"rt": -1, "trial_type": "single-stim", "stimulus": "<p id=\"stim\">4</p>", "internal_node_id": "0.0-98.0-6.0", "time_elapsed": 777250, "key_press": -1, "trial_index": 140}, "uniqueid": "MTK2061:35GMH2SV3FOOABSPJQ0U7LIRYA4EO2", "dateTime": 1516668075354}, {"current_trial": 141, "trialdata": {"rt": -1, "trial_type": "single-stim", "stimulus": "<p id=\"stim\">3</p>", "internal_node_id": "0.0-98.0-7.0", "time_elapsed": 778252, "key_press": -1, "trial_index": 141}, "uniqueid": "MTK2061:35GMH2SV3FOOABSPJQ0U7LIRYA4EO2", "dateTime": 1516668076356}, {"current_trial": 142, "trialdata": {"rt": -1, "trial_type": "single-stim", "stimulus": "<p id=\"stim\">2</p>", "internal_node_id": "0.0-98.0-8.0", "time_elapsed": 779253, "key_press": -1, "trial_index": 142}, "uniqueid": "MTK2061:35GMH2SV3FOOABSPJQ0U7LIRYA4EO2", "dateTime": 1516668077358}, {"current_trial": 143, "trialdata": {"rt": -1, "trial_type": "single-stim", "stimulus": "<p id=\"stim\">1</p>", "internal_node_id": "0.0-98.0-9.0", "time_elapsed": 780255, "key_press": -1, "trial_index": 143}, "uniqueid": "MTK2061:35GMH2SV3FOOABSPJQ0U7LIRYA4EO2", "dateTime": 1516668078359}, {"current_trial": 144, "trialdata": {"rt": -1, "trial_type": "single-stim", "stimulus": "<p id=\"stim\">+</p>", "internal_node_id": "0.0-99.0-0.0", "time_elapsed": 781757, "key_press": -1, "type": "FIXATION", "trial_index": 144}, "uniqueid": "MTK2061:35GMH2SV3FOOABSPJQ0U7LIRYA4EO2", "dateTime": 1516668079861}, {"current_trial": 145, "trialdata": {"rt": -1000, "trial_type": "single-audio", "word": "creature", "stimulus": "/static/audio/wordpool/CREATURE.wav", "conditions": [24, 800, "a", 12000], "internal_node_id": "0.0-100.0", "trial": 4, "time_elapsed": 783504, "serialpos": 0, "key_press": -1, "wordID": 402, "type": "PRES_AUD", "trial_index": 145}, "uniqueid": "MTK2061:35GMH2SV3FOOABSPJQ0U7LIRYA4EO2", "dateTime": 1516668081608}, {"current_trial": 146, "trialdata": {"rt": -1000, "trial_type": "single-audio", "word": "poet", "stimulus": "/static/audio/wordpool/POET.wav", "conditions": [24, 800, "a", 12000], "internal_node_id": "0.0-101.0", "trial": 4, "time_elapsed": 785142, "serialpos": 1, "key_press": -1, "wordID": 1094, "type": "PRES_AUD", "trial_index": 146}, "uniqueid": "MTK2061:35GMH2SV3FOOABSPJQ0U7LIRYA4EO2", "dateTime": 1516668083246}, {"current_trial": 147, "trialdata": {"rt": -1000, "trial_type": "single-audio", "word": "piano", "stimulus": "/static/audio/wordpool/PIANO.wav", "conditions": [24, 800, "a", 12000], "internal_node_id": "0.0-102.0", "trial": 4, "time_elapsed": 786889, "serialpos": 2, "key_press": -1, "wordID": 1056, "type": "PRES_AUD", "trial_index": 147}, "uniqueid": "MTK2061:35GMH2SV3FOOABSPJQ0U7LIRYA4EO2", "dateTime": 1516668084993}, {"current_trial": 148, "trialdata": {"rt": -1000, "trial_type": "single-audio", "word": "radish", "stimulus": "/static/audio/wordpool/RADISH.wav", "conditions": [24, 800, "a", 12000], "internal_node_id": "0.0-103.0", "trial": 4, "time_elapsed": 788530, "serialpos": 3, "key_press": -1, "wordID": 1157, "type": "PRES_AUD", "trial_index": 148}, "uniqueid": "MTK2061:35GMH2SV3FOOABSPJQ0U7LIRYA4EO2", "dateTime": 1516668086634}, {"current_trial": 149, "trialdata": {"rt": -1000, "trial_type": "single-audio", "word": "turnip", "stimulus": "/static/audio/wordpool/TURNIP.wav", "conditions": [24, 800, "a", 12000], "internal_node_id": "0.0-104.0", "trial": 4, "time_elapsed": 790348, "serialpos": 4, "key_press": -1, "wordID": 1520, "type": "PRES_AUD", "trial_index": 149}, "uniqueid": "MTK2061:35GMH2SV3FOOABSPJQ0U7LIRYA4EO2", "dateTime": 1516668088452}, {"current_trial": 150, "trialdata": {"rt": -1000, "trial_type": "single-audio", "word": "sister", "stimulus": "/static/audio/wordpool/SISTER.wav", "conditions": [24, 800, "a", 12000], "internal_node_id": "0.0-105.0", "trial": 4, "time_elapsed": 792138, "serialpos": 5, "key_press": -1, "wordID": 1311, "type": "PRES_AUD", "trial_index": 150}, "uniqueid": "MTK2061:35GMH2SV3FOOABSPJQ0U7LIRYA4EO2", "dateTime": 1516668090242}, {"current_trial": 151, "trialdata": {"rt": -1000, "trial_type": "single-audio", "word": "kidney", "stimulus": "/static/audio/wordpool/KIDNEY.wav", "conditions": [24, 800, "a", 12000], "internal_node_id": "0.0-106.0", "trial": 4, "time_elapsed": 794006, "serialpos": 6, "key_press": -1, "wordID": 775, "type": "PRES_AUD", "trial_index": 151}, "uniqueid": "MTK2061:35GMH2SV3FOOABSPJQ0U7LIRYA4EO2", "dateTime": 1516668092111}, {"current_trial": 152, "trialdata": {"rt": -1000, "trial_type": "single-audio", "word": "sculpture", "stimulus": "/static/audio/wordpool/SCULPTURE.wav", "conditions": [24, 800, "a", 12000], "internal_node_id": "0.0-107.0", "trial": 4, "time_elapsed": 795704, "serialpos": 7, "key_press": -1, "wordID": 1257, "type": "PRES_AUD", "trial_index": 152}, "uniqueid": "MTK2061:35GMH2SV3FOOABSPJQ0U7LIRYA4EO2", "dateTime": 1516668093808}, {"current_trial": 153, "trialdata": {"rt": -1000, "trial_type": "single-audio", "word": "mammal", "stimulus": "/static/audio/wordpool/MAMMAL.wav", "conditions": [24, 800, "a", 12000], "internal_node_id": "0.0-108.0", "trial": 4, "time_elapsed": 797432, "serialpos": 8, "key_press": -1, "wordID": 860, "type": "PRES_AUD", "trial_index": 153}, "uniqueid": "MTK2061:35GMH2SV3FOOABSPJQ0U7LIRYA4EO2", "dateTime": 1516668095536}, {"current_trial": 154, "trialdata": {"rt": -1000, "trial_type": "single-audio", "word": "quail", "stimulus": "/static/audio/wordpool/QUAIL.wav", "conditions": [24, 800, "a", 12000], "internal_node_id": "0.0-109.0", "trial": 4, "time_elapsed": 799331, "serialpos": 9, "key_press": -1, "wordID": 1146, "type": "PRES_AUD", "trial_index": 154}, "uniqueid": "MTK2061:35GMH2SV3FOOABSPJQ0U7LIRYA4EO2", "dateTime": 1516668097435}, {"current_trial": 155, "trialdata": {"rt": -1000, "trial_type": "single-audio", "word": "blouse", "stimulus": "/static/audio/wordpool/BLOUSE.wav", "conditions": [24, 800, "a", 12000], "internal_node_id": "0.0-110.0", "trial": 4, "time_elapsed": 801197, "serialpos": 10, "key_press": -1, "wordID": 138, "type": "PRES_AUD", "trial_index": 155}, "uniqueid": "MTK2061:35GMH2SV3FOOABSPJQ0U7LIRYA4EO2", "dateTime": 1516668099301}, {"current_trial": 156, "trialdata": {"rt": -1000, "trial_type": "single-audio", "word": "survey", "stimulus": "/static/audio/wordpool/SURVEY.wav", "conditions": [24, 800, "a", 12000], "internal_node_id": "0.0-111.0", "trial": 4, "time_elapsed": 802813, "serialpos": 11, "key_press": -1, "wordID": 1413, "type": "PRES_AUD", "trial_index": 156}, "uniqueid": "MTK2061:35GMH2SV3FOOABSPJQ0U7LIRYA4EO2", "dateTime": 1516668100918}, {"current_trial": 157, "trialdata": {"rt": -1000, "trial_type": "single-audio", "word": "asia", "stimulus": "/static/audio/wordpool/ASIA.wav", "conditions": [24, 800, "a", 12000], "internal_node_id": "0.0-112.0", "trial": 4, "time_elapsed": 804718, "serialpos": 12, "key_press": -1, "wordID": 45, "type": "PRES_AUD", "trial_index": 157}, "uniqueid": "MTK2061:35GMH2SV3FOOABSPJQ0U7LIRYA4EO2", "dateTime": 1516668102822}, {"current_trial": 158, "trialdata": {"rt": -1000, "trial_type": "single-audio", "word": "pastry", "stimulus": "/static/audio/wordpool/PASTRY.wav", "conditions": [24, 800, "a", 12000], "internal_node_id": "0.0-113.0", "trial": 4, "time_elapsed": 806717, "serialpos": 13, "key_press": -1, "wordID": 1021, "type": "PRES_AUD", "trial_index": 158}, "uniqueid": "MTK2061:35GMH2SV3FOOABSPJQ0U7LIRYA4EO2", "dateTime": 1516668104821}, {"current_trial": 159, "trialdata": {"rt": -1000, "trial_type": "single-audio", "word": "mister", "stimulus": "/static/audio/wordpool/MISTER.wav", "conditions": [24, 800, "a", 12000], "internal_node_id": "0.0-114.0", "trial": 4, "time_elapsed": 808537, "serialpos": 14, "key_press": -1, "wordID": 900, "type": "PRES_AUD", "trial_index": 159}, "uniqueid": "MTK2061:35GMH2SV3FOOABSPJQ0U7LIRYA4EO2", "dateTime": 1516668106641}, {"current_trial": 160, "trialdata": {"rt": -1000, "trial_type": "single-audio", "word": "servant", "stimulus": "/static/audio/wordpool/SERVANT.wav", "conditions": [24, 800, "a", 12000], "internal_node_id": "0.0-115.0", "trial": 4, "time_elapsed": 810423, "serialpos": 15, "key_press": -1, "wordID": 1270, "type": "PRES_AUD", "trial_index": 160}, "uniqueid": "MTK2061:35GMH2SV3FOOABSPJQ0U7LIRYA4EO2", "dateTime": 1516668108527}, {"current_trial": 161, "trialdata": {"rt": -1000, "trial_type": "single-audio", "word": "pluto", "stimulus": "/static/audio/wordpool/PLUTO.wav", "conditions": [24, 800, "a", 12000], "internal_node_id": "0.0-116.0", "trial": 4, "time_elapsed": 812113, "serialpos": 16, "key_press": -1, "wordID": 1091, "type": "PRES_AUD", "trial_index": 161}, "uniqueid": "MTK2061:35GMH2SV3FOOABSPJQ0U7LIRYA4EO2", "dateTime": 1516668110217}, {"current_trial": 162, "trialdata": {"rt": -1000, "trial_type": "single-audio", "word": "salad", "stimulus": "/static/audio/wordpool/SALAD.wav", "conditions": [24, 800, "a", 12000], "internal_node_id": "0.0-117.0", "trial": 4, "time_elapsed": 813763, "serialpos": 17, "key_press": -1, "wordID": 1223, "type": "PRES_AUD", "trial_index": 162}, "uniqueid": "MTK2061:35GMH2SV3FOOABSPJQ0U7LIRYA4EO2", "dateTime": 1516668111867}, {"current_trial": 163, "trialdata": {"rt": -1000, "trial_type": "single-audio", "word": "snack", "stimulus": "/static/audio/wordpool/SNACK.wav", "conditions": [24, 800, "a", 12000], "internal_node_id": "0.0-118.0", "trial": 4, "time_elapsed": 815421, "serialpos": 18, "key_press": -1, "wordID": 1330, "type": "PRES_AUD", "trial_index": 163}, "uniqueid": "MTK2061:35GMH2SV3FOOABSPJQ0U7LIRYA4EO2", "dateTime": 1516668113525}, {"current_trial": 164, "trialdata": {"rt": -1000, "trial_type": "single-audio", "word": "lunch", "stimulus": "/static/audio/wordpool/LUNCH.wav", "conditions": [24, 800, "a", 12000], "internal_node_id": "0.0-119.0", "trial": 4, "time_elapsed": 817062, "serialpos": 19, "key_press": -1, "wordID": 848, "type": "PRES_AUD", "trial_index": 164}, "uniqueid": "MTK2061:35GMH2SV3FOOABSPJQ0U7LIRYA4EO2", "dateTime": 1516668115166}, {"current_trial": 165, "trialdata": {"rt": -1000, "trial_type": "single-audio", "word": "marsh", "stimulus": "/static/audio/wordpool/MARSH.wav", "conditions": [24, 800, "a", 12000], "internal_node_id": "0.0-120.0", "trial": 4, "time_elapsed": 818840, "serialpos": 20, "key_press": -1, "wordID": 873, "type": "PRES_AUD", "trial_index": 165}, "uniqueid": "MTK2061:35GMH2SV3FOOABSPJQ0U7LIRYA4EO2", "dateTime": 1516668116944}, {"current_trial": 166, "trialdata": {"rt": -1000, "trial_type": "single-audio", "word": "stove", "stimulus": "/static/audio/wordpool/STOVE.wav", "conditions": [24, 800, "a", 12000], "internal_node_id": "0.0-121.0", "trial": 4, "time_elapsed": 820687, "serialpos": 21, "key_press": -1, "wordID": 1387, "type": "PRES_AUD", "trial_index": 166}, "uniqueid": "MTK2061:35GMH2SV3FOOABSPJQ0U7LIRYA4EO2", "dateTime": 1516668118791}, {"current_trial": 167, "trialdata": {"rt": -1000, "trial_type": "single-audio", "word": "omelet", "stimulus": "/static/audio/wordpool/OMELET.wav", "conditions": [24, 800, "a", 12000], "internal_node_id": "0.0-122.0", "trial": 4, "time_elapsed": 822702, "serialpos": 22, "key_press": -1, "wordID": 975, "type": "PRES_AUD", "trial_index": 167}, "uniqueid": "MTK2061:35GMH2SV3FOOABSPJQ0U7LIRYA4EO2", "dateTime": 1516668120806}, {"current_trial": 168, "trialdata": {"rt": -1000, "trial_type": "single-audio", "word": "freckle", "stimulus": "/static/audio/wordpool/FRECKLE.wav", "conditions": [24, 800, "a", 12000], "internal_node_id": "0.0-123.0", "trial": 4, "time_elapsed": 824674, "serialpos": 23, "key_press": -1, "wordID": 601, "type": "PRES_AUD", "trial_index": 168}, "uniqueid": "MTK2061:35GMH2SV3FOOABSPJQ0U7LIRYA4EO2", "dateTime": 1516668122779}, {"current_trial": 169, "trialdata": {"rt": -1, "trial_type": "single-stim", "stimulus": "", "internal_node_id": "0.0-124.0-0.0", "time_elapsed": 825893, "key_press": -1, "type": "PRE_RECALL_DELAY", "trial_index": 169}, "uniqueid": "MTK2061:35GMH2SV3FOOABSPJQ0U7LIRYA4EO2", "dateTime": 1516668123997}, {"current_trial": 170, "trialdata": {"rt": -1000, "trial_type": "single-audio", "stimulus": "/static/audio/400Hz.wav", "internal_node_id": "0.0-125.0", "time_elapsed": 826402, "key_press": -1, "type": "PRE_RECALL_ALERT", "trial_index": 170}, "uniqueid": "MTK2061:35GMH2SV3FOOABSPJQ0U7LIRYA4EO2", "dateTime": 1516668124506}, {"current_trial": 171, "trialdata": {"rt": [9157, 14604, 21269, 26397, 36461, 47366], "recwords": ["freckles ", "omlet", "stove", "marsh", "radish", "lunch"], "key_times": [2756, 3252, 4887, 5783, 7680, 7681, 7682, 7683, 7684, 9157, 10358, 11048, 11783, 12907, 13707, 14604, 17086, 17823, 18962, 19729, 20405, 21269, 22214, 23245, 23984, 24704, 25658, 26397, 31712, 32369, 33024, 33987, 34835, 35621, 36461, 43234, 44371, 45093, 45748, 46584, 47366], "trial_type": "free-recall", "conditions": [24, 800, "a", 12000], "internal_node_id": "0.0-126.0-0.0", "key_presses": [70, 82, 69, 67, 231, 231, 231, 231, 231, 13, 79, 77, 76, 69, 84, 13, 83, 84, 79, 86, 69, 13, 77, 65, 82, 83, 72, 13, 82, 65, 68, 73, 83, 72, 13, 76, 85, 78, 67, 72, 13], "trial": 4, "time_elapsed": 886406, "type": "FREE_RECALL", "trial_index": 171}, "uniqueid": "MTK2061:35GMH2SV3FOOABSPJQ0U7LIRYA4EO2", "dateTime": 1516668184515}, {"current_trial": 172, "trialdata": {"rt": 1300, "trial_type": "text", "internal_node_id": "0.0-127.0", "time_elapsed": 889713, "key_press": 32, "type": "INSTRUCTIONS", "trial_index": 172}, "uniqueid": "MTK2061:35GMH2SV3FOOABSPJQ0U7LIRYA4EO2", "dateTime": 1516668187817}, {"current_trial": 173, "trialdata": {"rt": [7812], "trial_type": "math-distractor", "key_times": [6722, 6946, 7812, 10169], "responses": ["22"], "num2": [6, 8], "num3": [9, 7], "conditions": [24, 800, "a", 12000], "internal_node_id": "0.0-128.0", "key_presses": [50, 50, 13, 49], "trial": 5, "time_elapsed": 903716, "type": "DISTRACTOR", "trial_index": 173, "num1": [7, 3]}, "uniqueid": "MTK2061:35GMH2SV3FOOABSPJQ0U7LIRYA4EO2", "dateTime": 1516668201821}, {"current_trial": 174, "trialdata": {"rt": -1, "trial_type": "single-stim", "stimulus": "<p id=\"stim\">10</p>", "internal_node_id": "0.0-129.0-0.0", "time_elapsed": 906720, "key_press": -1, "trial_index": 174}, "uniqueid": "MTK2061:35GMH2SV3FOOABSPJQ0U7LIRYA4EO2", "dateTime": 1516668204824}, {"current_trial": 175, "trialdata": {"rt": -1, "trial_type": "single-stim", "stimulus": "<p id=\"stim\">9</p>", "internal_node_id": "0.0-129.0-1.0", "time_elapsed": 907721, "key_press": -1, "trial_index": 175}, "uniqueid": "MTK2061:35GMH2SV3FOOABSPJQ0U7LIRYA4EO2", "dateTime": 1516668205825}, {"current_trial": 176, "trialdata": {"rt": -1, "trial_type": "single-stim", "stimulus": "<p id=\"stim\">8</p>", "internal_node_id": "0.0-129.0-2.0", "time_elapsed": 908724, "key_press": -1, "trial_index": 176}, "uniqueid": "MTK2061:35GMH2SV3FOOABSPJQ0U7LIRYA4EO2", "dateTime": 1516668206828}, {"current_trial": 177, "trialdata": {"rt": -1, "trial_type": "single-stim", "stimulus": "<p id=\"stim\">7</p>", "internal_node_id": "0.0-129.0-3.0", "time_elapsed": 909726, "key_press": -1, "trial_index": 177}, "uniqueid": "MTK2061:35GMH2SV3FOOABSPJQ0U7LIRYA4EO2", "dateTime": 1516668207830}, {"current_trial": 178, "trialdata": {"rt": -1, "trial_type": "single-stim", "stimulus": "<p id=\"stim\">6</p>", "internal_node_id": "0.0-129.0-4.0", "time_elapsed": 910728, "key_press": -1, "trial_index": 178}, "uniqueid": "MTK2061:35GMH2SV3FOOABSPJQ0U7LIRYA4EO2", "dateTime": 1516668208832}, {"current_trial": 179, "trialdata": {"rt": -1, "trial_type": "single-stim", "stimulus": "<p id=\"stim\">5</p>", "internal_node_id": "0.0-129.0-5.0", "time_elapsed": 911729, "key_press": -1, "trial_index": 179}, "uniqueid": "MTK2061:35GMH2SV3FOOABSPJQ0U7LIRYA4EO2", "dateTime": 1516668209834}, {"current_trial": 180, "trialdata": {"rt": -1, "trial_type": "single-stim", "stimulus": "<p id=\"stim\">4</p>", "internal_node_id": "0.0-129.0-6.0", "time_elapsed": 912731, "key_press": -1, "trial_index": 180}, "uniqueid": "MTK2061:35GMH2SV3FOOABSPJQ0U7LIRYA4EO2", "dateTime": 1516668210835}, {"current_trial": 181, "trialdata": {"rt": -1, "trial_type": "single-stim", "stimulus": "<p id=\"stim\">3</p>", "internal_node_id": "0.0-129.0-7.0", "time_elapsed": 913733, "key_press": -1, "trial_index": 181}, "uniqueid": "MTK2061:35GMH2SV3FOOABSPJQ0U7LIRYA4EO2", "dateTime": 1516668211838}, {"current_trial": 182, "trialdata": {"rt": -1, "trial_type": "single-stim", "stimulus": "<p id=\"stim\">2</p>", "internal_node_id": "0.0-129.0-8.0", "time_elapsed": 914736, "key_press": -1, "trial_index": 182}, "uniqueid": "MTK2061:35GMH2SV3FOOABSPJQ0U7LIRYA4EO2", "dateTime": 1516668212840}, {"current_trial": 183, "trialdata": {"rt": -1, "trial_type": "single-stim", "stimulus": "<p id=\"stim\">1</p>", "internal_node_id": "0.0-129.0-9.0", "time_elapsed": 915738, "key_press": -1, "trial_index": 183}, "uniqueid": "MTK2061:35GMH2SV3FOOABSPJQ0U7LIRYA4EO2", "dateTime": 1516668213842}, {"current_trial": 184, "trialdata": {"rt": -1, "trial_type": "single-stim", "stimulus": "<p id=\"stim\">+</p>", "internal_node_id": "0.0-130.0-0.0", "time_elapsed": 917240, "key_press": -1, "type": "FIXATION", "trial_index": 184}, "uniqueid": "MTK2061:35GMH2SV3FOOABSPJQ0U7LIRYA4EO2", "dateTime": 1516668215344}, {"current_trial": 185, "trialdata": {"rt": -1000, "trial_type": "single-audio", "word": "cocoon", "stimulus": "/static/audio/wordpool/COCOON.wav", "conditions": [24, 800, "a", 12000], "internal_node_id": "0.0-131.0", "trial": 5, "time_elapsed": 919030, "serialpos": 0, "key_press": -1, "wordID": 338, "type": "PRES_AUD", "trial_index": 185}, "uniqueid": "MTK2061:35GMH2SV3FOOABSPJQ0U7LIRYA4EO2", "dateTime": 1516668217134}, {"current_trial": 186, "trialdata": {"rt": -1000, "trial_type": "single-audio", "word": "cafe", "stimulus": "/static/audio/wordpool/CAFE.wav", "conditions": [24, 800, "a", 12000], "internal_node_id": "0.0-132.0", "trial": 5, "time_elapsed": 920957, "serialpos": 1, "key_press": -1, "wordID": 215, "type": "PRES_AUD", "trial_index": 186}, "uniqueid": "MTK2061:35GMH2SV3FOOABSPJQ0U7LIRYA4EO2", "dateTime": 1516668219061}, {"current_trial": 187, "trialdata": {"rt": -1000, "trial_type": "single-audio", "word": "wagon", "stimulus": "/static/audio/wordpool/WAGON.wav", "conditions": [24, 800, "a", 12000], "internal_node_id": "0.0-133.0", "trial": 5, "time_elapsed": 922874, "serialpos": 2, "key_press": -1, "wordID": 1577, "type": "PRES_AUD", "trial_index": 187}, "uniqueid": "MTK2061:35GMH2SV3FOOABSPJQ0U7LIRYA4EO2", "dateTime": 1516668220978}, {"current_trial": 188, "trialdata": {"rt": -1000, "trial_type": "single-audio", "word": "child", "stimulus": "/static/audio/wordpool/CHILD.wav", "conditions": [24, 800, "a", 12000], "internal_node_id": "0.0-134.0", "trial": 5, "time_elapsed": 924702, "serialpos": 3, "key_press": -1, "wordID": 298, "type": "PRES_AUD", "trial_index": 188}, "uniqueid": "MTK2061:35GMH2SV3FOOABSPJQ0U7LIRYA4EO2", "dateTime": 1516668222806}, {"current_trial": 189, "trialdata": {"rt": -1000, "trial_type": "single-audio", "word": "mildew", "stimulus": "/static/audio/wordpool/MILDEW.wav", "conditions": [24, 800, "a", 12000], "internal_node_id": "0.0-135.0", "trial": 5, "time_elapsed": 926630, "serialpos": 4, "key_press": -1, "wordID": 892, "type": "PRES_AUD", "trial_index": 189}, "uniqueid": "MTK2061:35GMH2SV3FOOABSPJQ0U7LIRYA4EO2", "dateTime": 1516668224734}, {"current_trial": 190, "trialdata": {"rt": -1000, "trial_type": "single-audio", "word": "fungus", "stimulus": "/static/audio/wordpool/FUNGUS.wav", "conditions": [24, 800, "a", 12000], "internal_node_id": "0.0-136.0", "trial": 5, "time_elapsed": 928523, "serialpos": 5, "key_press": -1, "wordID": 613, "type": "PRES_AUD", "trial_index": 190}, "uniqueid": "MTK2061:35GMH2SV3FOOABSPJQ0U7LIRYA4EO2", "dateTime": 1516668226628}, {"current_trial": 191, "trialdata": {"rt": -1000, "trial_type": "single-audio", "word": "infant", "stimulus": "/static/audio/wordpool/INFANT.wav", "conditions": [24, 800, "a", 12000], "internal_node_id": "0.0-137.0", "trial": 5, "time_elapsed": 930248, "serialpos": 6, "key_press": -1, "wordID": 736, "type": "PRES_AUD", "trial_index": 191}, "uniqueid": "MTK2061:35GMH2SV3FOOABSPJQ0U7LIRYA4EO2", "dateTime": 1516668228353}, {"current_trial": 192, "trialdata": {"rt": -1000, "trial_type": "single-audio", "word": "blender", "stimulus": "/static/audio/wordpool/BLENDER.wav", "conditions": [24, 800, "a", 12000], "internal_node_id": "0.0-138.0", "trial": 5, "time_elapsed": 932007, "serialpos": 7, "key_press": -1, "wordID": 135, "type": "PRES_AUD", "trial_index": 192}, "uniqueid": "MTK2061:35GMH2SV3FOOABSPJQ0U7LIRYA4EO2", "dateTime": 1516668230112}, {"current_trial": 193, "trialdata": {"rt": -1000, "trial_type": "single-audio", "word": "raft", "stimulus": "/static/audio/wordpool/RAFT.wav", "conditions": [24, 800, "a", 12000], "internal_node_id": "0.0-139.0", "trial": 5, "time_elapsed": 933609, "serialpos": 8, "key_press": -1, "wordID": 1158, "type": "PRES_AUD", "trial_index": 193}, "uniqueid": "MTK2061:35GMH2SV3FOOABSPJQ0U7LIRYA4EO2", "dateTime": 1516668231714}, {"current_trial": 194, "trialdata": {"rt": -1000, "trial_type": "single-audio", "word": "lagoon", "stimulus": "/static/audio/wordpool/LAGOON.wav", "conditions": [24, 800, "a", 12000], "internal_node_id": "0.0-140.0", "trial": 5, "time_elapsed": 935620, "serialpos": 9, "key_press": -1, "wordID": 794, "type": "PRES_AUD", "trial_index": 194}, "uniqueid": "MTK2061:35GMH2SV3FOOABSPJQ0U7LIRYA4EO2", "dateTime": 1516668233724}, {"current_trial": 195, "trialdata": {"rt": -1000, "trial_type": "single-audio", "word": "glass", "stimulus": "/static/audio/wordpool/GLASS.wav", "conditions": [24, 800, "a", 12000], "internal_node_id": "0.0-141.0", "trial": 5, "time_elapsed": 937494, "serialpos": 10, "key_press": -1, "wordID": 638, "type": "PRES_AUD", "trial_index": 195}, "uniqueid": "MTK2061:35GMH2SV3FOOABSPJQ0U7LIRYA4EO2", "dateTime": 1516668235598}, {"current_trial": 196, "trialdata": {"rt": -1000, "trial_type": "single-audio", "word": "washer", "stimulus": "/static/audio/wordpool/WASHER.wav", "conditions": [24, 800, "a", 12000], "internal_node_id": "0.0-142.0", "trial": 5, "time_elapsed": 939274, "serialpos": 11, "key_press": -1, "wordID": 1591, "type": "PRES_AUD", "trial_index": 196}, "uniqueid": "MTK2061:35GMH2SV3FOOABSPJQ0U7LIRYA4EO2", "dateTime": 1516668237378}, {"current_trial": 197, "trialdata": {"rt": -1000, "trial_type": "single-audio", "word": "shelter", "stimulus": "/static/audio/wordpool/SHELTER.wav", "conditions": [24, 800, "a", 12000], "internal_node_id": "0.0-143.0", "trial": 5, "time_elapsed": 941172, "serialpos": 12, "key_press": -1, "wordID": 1281, "type": "PRES_AUD", "trial_index": 197}, "uniqueid": "MTK2061:35GMH2SV3FOOABSPJQ0U7LIRYA4EO2", "dateTime": 1516668239277}, {"current_trial": 198, "trialdata": {"rt": -1000, "trial_type": "single-audio", "word": "antler", "stimulus": "/static/audio/wordpool/ANTLER.wav", "conditions": [24, 800, "a", 12000], "internal_node_id": "0.0-144.0", "trial": 5, "time_elapsed": 943092, "serialpos": 13, "key_press": -1, "wordID": 28, "type": "PRES_AUD", "trial_index": 198}, "uniqueid": "MTK2061:35GMH2SV3FOOABSPJQ0U7LIRYA4EO2", "dateTime": 1516668241196}, {"current_trial": 199, "trialdata": {"rt": -1000, "trial_type": "single-audio", "word": "sword", "stimulus": "/static/audio/wordpool/SWORD.wav", "conditions": [24, 800, "a", 12000], "internal_node_id": "0.0-145.0", "trial": 5, "time_elapsed": 944904, "serialpos": 14, "key_press": -1, "wordID": 1422, "type": "PRES_AUD", "trial_index": 199}, "uniqueid": "MTK2061:35GMH2SV3FOOABSPJQ0U7LIRYA4EO2", "dateTime": 1516668243008}, {"current_trial": 200, "trialdata": {"rt": -1000, "trial_type": "single-audio", "word": "lover", "stimulus": "/static/audio/wordpool/LOVER.wav", "conditions": [24, 800, "a", 12000], "internal_node_id": "0.0-146.0", "trial": 5, "time_elapsed": 946737, "serialpos": 15, "key_press": -1, "wordID": 845, "type": "PRES_AUD", "trial_index": 200}, "uniqueid": "MTK2061:35GMH2SV3FOOABSPJQ0U7LIRYA4EO2", "dateTime": 1516668244841}, {"current_trial": 201, "trialdata": {"rt": -1000, "trial_type": "single-audio", "word": "peanut", "stimulus": "/static/audio/wordpool/PEANUT.wav", "conditions": [24, 800, "a", 12000], "internal_node_id": "0.0-147.0", "trial": 5, "time_elapsed": 948606, "serialpos": 16, "key_press": -1, "wordID": 1031, "type": "PRES_AUD", "trial_index": 201}, "uniqueid": "MTK2061:35GMH2SV3FOOABSPJQ0U7LIRYA4EO2", "dateTime": 1516668246710}, {"current_trial": 202, "trialdata": {"rt": -1000, "trial_type": "single-audio", "word": "girl", "stimulus": "/static/audio/wordpool/GIRL.wav", "conditions": [24, 800, "a", 12000], "internal_node_id": "0.0-148.0", "trial": 5, "time_elapsed": 950603, "serialpos": 17, "key_press": -1, "wordID": 636, "type": "PRES_AUD", "trial_index": 202}, "uniqueid": "MTK2061:35GMH2SV3FOOABSPJQ0U7LIRYA4EO2", "dateTime": 1516668248707}, {"current_trial": 203, "trialdata": {"rt": -1000, "trial_type": "single-audio", "word": "sausage", "stimulus": "/static/audio/wordpool/SAUSAGE.wav", "conditions": [24, 800, "a", 12000], "internal_node_id": "0.0-149.0", "trial": 5, "time_elapsed": 952417, "serialpos": 18, "key_press": -1, "wordID": 1237, "type": "PRES_AUD", "trial_index": 203}, "uniqueid": "MTK2061:35GMH2SV3FOOABSPJQ0U7LIRYA4EO2", "dateTime": 1516668250521}, {"current_trial": 204, "trialdata": {"rt": -1000, "trial_type": "single-audio", "word": "crater", "stimulus": "/static/audio/wordpool/CRATER.wav", "conditions": [24, 800, "a", 12000], "internal_node_id": "0.0-150.0", "trial": 5, "time_elapsed": 954234, "serialpos": 19, "key_press": -1, "wordID": 399, "type": "PRES_AUD", "trial_index": 204}, "uniqueid": "MTK2061:35GMH2SV3FOOABSPJQ0U7LIRYA4EO2", "dateTime": 1516668252339}, {"current_trial": 205, "trialdata": {"rt": -1000, "trial_type": "single-audio", "word": "lava", "stimulus": "/static/audio/wordpool/LAVA.wav", "conditions": [24, 800, "a", 12000], "internal_node_id": "0.0-151.0", "trial": 5, "time_elapsed": 956127, "serialpos": 20, "key_press": -1, "wordID": 803, "type": "PRES_AUD", "trial_index": 205}, "uniqueid": "MTK2061:35GMH2SV3FOOABSPJQ0U7LIRYA4EO2", "dateTime": 1516668254232}, {"current_trial": 206, "trialdata": {"rt": -1000, "trial_type": "single-audio", "word": "bacon", "stimulus": "/static/audio/wordpool/BACON.wav", "conditions": [24, 800, "a", 12000], "internal_node_id": "0.0-152.0", "trial": 5, "time_elapsed": 958076, "serialpos": 21, "key_press": -1, "wordID": 66, "type": "PRES_AUD", "trial_index": 206}, "uniqueid": "MTK2061:35GMH2SV3FOOABSPJQ0U7LIRYA4EO2", "dateTime": 1516668256180}, {"current_trial": 207, "trialdata": {"rt": -1000, "trial_type": "single-audio", "word": "leg", "stimulus": "/static/audio/wordpool/LEG.wav", "conditions": [24, 800, "a", 12000], "internal_node_id": "0.0-153.0", "trial": 5, "time_elapsed": 959733, "serialpos": 22, "key_press": -1, "wordID": 808, "type": "PRES_AUD", "trial_index": 207}, "uniqueid": "MTK2061:35GMH2SV3FOOABSPJQ0U7LIRYA4EO2", "dateTime": 1516668257837}, {"current_trial": 208, "trialdata": {"rt": -1000, "trial_type": "single-audio", "word": "world", "stimulus": "/static/audio/wordpool/WORLD.wav", "conditions": [24, 800, "a", 12000], "internal_node_id": "0.0-154.0", "trial": 5, "time_elapsed": 961373, "serialpos": 23, "key_press": -1, "wordID": 1621, "type": "PRES_AUD", "trial_index": 208}, "uniqueid": "MTK2061:35GMH2SV3FOOABSPJQ0U7LIRYA4EO2", "dateTime": 1516668259477}, {"current_trial": 209, "trialdata": {"rt": -1, "trial_type": "single-stim", "stimulus": "", "internal_node_id": "0.0-155.0-0.0", "time_elapsed": 962605, "key_press": -1, "type": "PRE_RECALL_DELAY", "trial_index": 209}, "uniqueid": "MTK2061:35GMH2SV3FOOABSPJQ0U7LIRYA4EO2", "dateTime": 1516668260709}, {"current_trial": 210, "trialdata": {"rt": -1000, "trial_type": "single-audio", "stimulus": "/static/audio/400Hz.wav", "internal_node_id": "0.0-156.0", "time_elapsed": 963107, "key_press": -1, "type": "PRE_RECALL_ALERT", "trial_index": 210}, "uniqueid": "MTK2061:35GMH2SV3FOOABSPJQ0U7LIRYA4EO2", "dateTime": 1516668261211}, {"current_trial": 211, "trialdata": {"rt": [7845, 11757, 16729, 23964, 31694, 37951, 42765], "recwords": ["world", "girl", "lover", "sausage", "creature", "mildew", "fungus"], "key_times": [2831, 3536, 4417, 5570, 7058, 7845, 8646, 9318, 10087, 11034, 11757, 12600, 13179, 14340, 15190, 15671, 16729, 17835, 18524, 19582, 20382, 21111, 21984, 22673, 23964, 26439, 27064, 27576, 28200, 28825, 29657, 30380, 30851, 31694, 33568, 34143, 34980, 36148, 36660, 37212, 37951, 38640, 39305, 39912, 40539, 41066, 41933, 42765], "trial_type": "free-recall", "conditions": [24, 800, "a", 12000], "internal_node_id": "0.0-157.0-0.0", "key_presses": [87, 79, 82, 76, 68, 13, 71, 73, 82, 76, 13, 76, 79, 86, 69, 82, 13, 83, 65, 85, 83, 65, 71, 69, 13, 67, 82, 69, 65, 84, 85, 82, 69, 13, 77, 73, 76, 68, 69, 87, 13, 70, 85, 78, 71, 85, 83, 13], "trial": 5, "time_elapsed": 1023112, "type": "FREE_RECALL", "trial_index": 211}, "uniqueid": "MTK2061:35GMH2SV3FOOABSPJQ0U7LIRYA4EO2", "dateTime": 1516668321221}, {"current_trial": 212, "trialdata": {"rt": 1446, "trial_type": "text", "internal_node_id": "0.0-158.0", "time_elapsed": 1026565, "key_press": 32, "type": "INSTRUCTIONS", "trial_index": 212}, "uniqueid": "MTK2061:35GMH2SV3FOOABSPJQ0U7LIRYA4EO2", "dateTime": 1516668324669}, {"current_trial": 213, "trialdata": {"rt": [4568, 9207, 14431, 18116, 22427], "trial_type": "math-distractor", "key_times": [2861, 3936, 4568, 7781, 8599, 9207, 12821, 13647, 14431, 16675, 17462, 18116, 20554, 21547, 22427], "responses": ["20", "20", "16", "14", "15"], "num2": [6, 5, 2, 8, 6, 2], "num3": [5, 9, 8, 1, 6, 8], "conditions": [12, 800, "a", 24000], "internal_node_id": "0.0-159.0", "key_presses": [50, 48, 13, 50, 48, 13, 49, 54, 13, 49, 52, 13, 49, 53, 13], "trial": 6, "time_elapsed": 1052570, "type": "DISTRACTOR", "trial_index": 213, "num1": [9, 6, 6, 5, 3, 6]}, "uniqueid": "MTK2061:35GMH2SV3FOOABSPJQ0U7LIRYA4EO2", "dateTime": 1516668350675}, {"current_trial": 214, "trialdata": {"rt": -1, "trial_type": "single-stim", "stimulus": "<p id=\"stim\">10</p>", "internal_node_id": "0.0-160.0-0.0", "time_elapsed": 1055574, "key_press": -1, "trial_index": 214}, "uniqueid": "MTK2061:35GMH2SV3FOOABSPJQ0U7LIRYA4EO2", "dateTime": 1516668353678}, {"current_trial": 215, "trialdata": {"rt": -1, "trial_type": "single-stim", "stimulus": "<p id=\"stim\">9</p>", "internal_node_id": "0.0-160.0-1.0", "time_elapsed": 1056576, "key_press": -1, "trial_index": 215}, "uniqueid": "MTK2061:35GMH2SV3FOOABSPJQ0U7LIRYA4EO2", "dateTime": 1516668354680}, {"current_trial": 216, "trialdata": {"rt": -1, "trial_type": "single-stim", "stimulus": "<p id=\"stim\">8</p>", "internal_node_id": "0.0-160.0-2.0", "time_elapsed": 1057578, "key_press": -1, "trial_index": 216}, "uniqueid": "MTK2061:35GMH2SV3FOOABSPJQ0U7LIRYA4EO2", "dateTime": 1516668355682}, {"current_trial": 217, "trialdata": {"rt": -1, "trial_type": "single-stim", "stimulus": "<p id=\"stim\">7</p>", "internal_node_id": "0.0-160.0-3.0", "time_elapsed": 1058580, "key_press": -1, "trial_index": 217}, "uniqueid": "MTK2061:35GMH2SV3FOOABSPJQ0U7LIRYA4EO2", "dateTime": 1516668356684}, {"current_trial": 218, "trialdata": {"rt": -1, "trial_type": "single-stim", "stimulus": "<p id=\"stim\">6</p>", "internal_node_id": "0.0-160.0-4.0", "time_elapsed": 1059581, "key_press": -1, "trial_index": 218}, "uniqueid": "MTK2061:35GMH2SV3FOOABSPJQ0U7LIRYA4EO2", "dateTime": 1516668357686}, {"current_trial": 219, "trialdata": {"rt": -1, "trial_type": "single-stim", "stimulus": "<p id=\"stim\">5</p>", "internal_node_id": "0.0-160.0-5.0", "time_elapsed": 1060583, "key_press": -1, "trial_index": 219}, "uniqueid": "MTK2061:35GMH2SV3FOOABSPJQ0U7LIRYA4EO2", "dateTime": 1516668358687}, {"current_trial": 220, "trialdata": {"rt": -1, "trial_type": "single-stim", "stimulus": "<p id=\"stim\">4</p>", "internal_node_id": "0.0-160.0-6.0", "time_elapsed": 1061585, "key_press": -1, "trial_index": 220}, "uniqueid": "MTK2061:35GMH2SV3FOOABSPJQ0U7LIRYA4EO2", "dateTime": 1516668359689}, {"current_trial": 221, "trialdata": {"rt": -1, "trial_type": "single-stim", "stimulus": "<p id=\"stim\">3</p>", "internal_node_id": "0.0-160.0-7.0", "time_elapsed": 1062587, "key_press": -1, "trial_index": 221}, "uniqueid": "MTK2061:35GMH2SV3FOOABSPJQ0U7LIRYA4EO2", "dateTime": 1516668360691}, {"current_trial": 222, "trialdata": {"rt": -1, "trial_type": "single-stim", "stimulus": "<p id=\"stim\">2</p>", "internal_node_id": "0.0-160.0-8.0", "time_elapsed": 1063588, "key_press": -1, "trial_index": 222}, "uniqueid": "MTK2061:35GMH2SV3FOOABSPJQ0U7LIRYA4EO2", "dateTime": 1516668361693}, {"current_trial": 223, "trialdata": {"rt": -1, "trial_type": "single-stim", "stimulus": "<p id=\"stim\">1</p>", "internal_node_id": "0.0-160.0-9.0", "time_elapsed": 1064591, "key_press": -1, "trial_index": 223}, "uniqueid": "MTK2061:35GMH2SV3FOOABSPJQ0U7LIRYA4EO2", "dateTime": 1516668362695}, {"current_trial": 224, "trialdata": {"rt": -1, "trial_type": "single-stim", "stimulus": "<p id=\"stim\">+</p>", "internal_node_id": "0.0-161.0-0.0", "time_elapsed": 1066092, "key_press": -1, "type": "FIXATION", "trial_index": 224}, "uniqueid": "MTK2061:35GMH2SV3FOOABSPJQ0U7LIRYA4EO2", "dateTime": 1516668364197}, {"current_trial": 225, "trialdata": {"rt": -1000, "trial_type": "single-audio", "word": "climber", "stimulus": "/static/audio/wordpool/CLIMBER.wav", "conditions": [12, 800, "a", 24000], "internal_node_id": "0.0-162.0", "trial": 6, "time_elapsed": 1067718, "serialpos": 0, "key_press": -1, "wordID": 322, "type": "PRES_AUD", "trial_index": 225}, "uniqueid": "MTK2061:35GMH2SV3FOOABSPJQ0U7LIRYA4EO2", "dateTime": 1516668365822}, {"current_trial": 226, "trialdata": {"rt": -1000, "trial_type": "single-audio", "word": "rattle", "stimulus": "/static/audio/wordpool/RATTLE.wav", "conditions": [12, 800, "a", 24000], "internal_node_id": "0.0-163.0", "trial": 6, "time_elapsed": 1069717, "serialpos": 1, "key_press": -1, "wordID": 1169, "type": "PRES_AUD", "trial_index": 226}, "uniqueid": "MTK2061:35GMH2SV3FOOABSPJQ0U7LIRYA4EO2", "dateTime": 1516668367821}, {"current_trial": 227, "trialdata": {"rt": -1000, "trial_type": "single-audio", "word": "spider", "stimulus": "/static/audio/wordpool/SPIDER.wav", "conditions": [12, 800, "a", 24000], "internal_node_id": "0.0-164.0", "trial": 6, "time_elapsed": 1071338, "serialpos": 2, "key_press": -1, "wordID": 1350, "type": "PRES_AUD", "trial_index": 227}, "uniqueid": "MTK2061:35GMH2SV3FOOABSPJQ0U7LIRYA4EO2", "dateTime": 1516668369442}, {"current_trial": 228, "trialdata": {"rt": -1000, "trial_type": "single-audio", "word": "belly", "stimulus": "/static/audio/wordpool/BELLY.wav", "conditions": [12, 800, "a", 24000], "internal_node_id": "0.0-165.0", "trial": 6, "time_elapsed": 1073259, "serialpos": 3, "key_press": -1, "wordID": 118, "type": "PRES_AUD", "trial_index": 228}, "uniqueid": "MTK2061:35GMH2SV3FOOABSPJQ0U7LIRYA4EO2", "dateTime": 1516668371364}, {"current_trial": 229, "trialdata": {"rt": -1000, "trial_type": "single-audio", "word": "coffee", "stimulus": "/static/audio/wordpool/COFFEE.wav", "conditions": [12, 800, "a", 24000], "internal_node_id": "0.0-166.0", "trial": 6, "time_elapsed": 1075110, "serialpos": 4, "key_press": -1, "wordID": 340, "type": "PRES_AUD", "trial_index": 229}, "uniqueid": "MTK2061:35GMH2SV3FOOABSPJQ0U7LIRYA4EO2", "dateTime": 1516668373214}, {"current_trial": 230, "trialdata": {"rt": -1000, "trial_type": "single-audio", "word": "hiker", "stimulus": "/static/audio/wordpool/HIKER.wav", "conditions": [12, 800, "a", 24000], "internal_node_id": "0.0-167.0", "trial": 6, "time_elapsed": 1077042, "serialpos": 5, "key_press": -1, "wordID": 707, "type": "PRES_AUD", "trial_index": 230}, "uniqueid": "MTK2061:35GMH2SV3FOOABSPJQ0U7LIRYA4EO2", "dateTime": 1516668375147}, {"current_trial": 231, "trialdata": {"rt": -1000, "trial_type": "single-audio", "word": "wardrobe", "stimulus": "/static/audio/wordpool/WARDROBE.wav", "conditions": [12, 800, "a", 24000], "internal_node_id": "0.0-168.0", "trial": 6, "time_elapsed": 1078783, "serialpos": 6, "key_press": -1, "wordID": 1586, "type": "PRES_AUD", "trial_index": 231}, "uniqueid": "MTK2061:35GMH2SV3FOOABSPJQ0U7LIRYA4EO2", "dateTime": 1516668376887}, {"current_trial": 232, "trialdata": {"rt": -1000, "trial_type": "single-audio", "word": "clothes", "stimulus": "/static/audio/wordpool/CLOTHES.wav", "conditions": [12, 800, "a", 24000], "internal_node_id": "0.0-169.0", "trial": 6, "time_elapsed": 1080434, "serialpos": 7, "key_press": -1, "wordID": 326, "type": "PRES_AUD", "trial_index": 232}, "uniqueid": "MTK2061:35GMH2SV3FOOABSPJQ0U7LIRYA4EO2", "dateTime": 1516668378538}, {"current_trial": 233, "trialdata": {"rt": -1000, "trial_type": "single-audio", "word": "skirt", "stimulus": "/static/audio/wordpool/SKIRT.wav", "conditions": [12, 800, "a", 24000], "internal_node_id": "0.0-170.0", "trial": 6, "time_elapsed": 1082419, "serialpos": 8, "key_press": -1, "wordID": 1318, "type": "PRES_AUD", "trial_index": 233}, "uniqueid": "MTK2061:35GMH2SV3FOOABSPJQ0U7LIRYA4EO2", "dateTime": 1516668380523}, {"current_trial": 234, "trialdata": {"rt": -1000, "trial_type": "single-audio", "word": "table", "stimulus": "/static/audio/wordpool/TABLE.wav", "conditions": [12, 800, "a", 24000], "internal_node_id": "0.0-171.0", "trial": 6, "time_elapsed": 1084413, "serialpos": 9, "key_press": -1, "wordID": 1425, "type": "PRES_AUD", "trial_index": 234}, "uniqueid": "MTK2061:35GMH2SV3FOOABSPJQ0U7LIRYA4EO2", "dateTime": 1516668382517}, {"current_trial": 235, "trialdata": {"rt": -1000, "trial_type": "single-audio", "word": "plaza", "stimulus": "/static/audio/wordpool/PLAZA.wav", "conditions": [12, 800, "a", 24000], "internal_node_id": "0.0-172.0", "trial": 6, "time_elapsed": 1086289, "serialpos": 10, "key_press": -1, "wordID": 1087, "type": "PRES_AUD", "trial_index": 235}, "uniqueid": "MTK2061:35GMH2SV3FOOABSPJQ0U7LIRYA4EO2", "dateTime": 1516668384393}, {"current_trial": 236, "trialdata": {"rt": -1000, "trial_type": "single-audio", "word": "soda", "stimulus": "/static/audio/wordpool/SODA.wav", "conditions": [12, 800, "a", 24000], "internal_node_id": "0.0-173.0", "trial": 6, "time_elapsed": 1088004, "serialpos": 11, "key_press": -1, "wordID": 1340, "type": "PRES_AUD", "trial_index": 236}, "uniqueid": "MTK2061:35GMH2SV3FOOABSPJQ0U7LIRYA4EO2", "dateTime": 1516668386108}, {"current_trial": 237, "trialdata": {"rt": -1, "trial_type": "single-stim", "stimulus": "", "internal_node_id": "0.0-174.0-0.0", "time_elapsed": 1089344, "key_press": -1, "type": "PRE_RECALL_DELAY", "trial_index": 237}, "uniqueid": "MTK2061:35GMH2SV3FOOABSPJQ0U7LIRYA4EO2", "dateTime": 1516668387448}, {"current_trial": 238, "trialdata": {"rt": -1000, "trial_type": "single-audio", "stimulus": "/static/audio/400Hz.wav", "internal_node_id": "0.0-175.0", "time_elapsed": 1089846, "key_press": -1, "type": "PRE_RECALL_ALERT", "trial_index": 238}, "uniqueid": "MTK2061:35GMH2SV3FOOABSPJQ0U7LIRYA4EO2", "dateTime": 1516668387950}, {"current_trial": 239, "trialdata": {"rt": [5276, 9723, 16236, 22475, 27556], "recwords": ["soda", "plaza", "wardrobe", "clothes", "skirt"], "key_times": [2024, 3036, 3898, 4396, 5276, 6038, 6517, 7800, 8328, 8826, 9723, 10604, 11100, 11740, 12462, 13167, 13856, 14640, 15316, 16236, 17445, 18150, 18774, 19575, 20201, 21050, 21564, 22475, 23548, 24446, 25007, 26160, 26720, 27556], "trial_type": "free-recall", "conditions": [12, 800, "a", 24000], "internal_node_id": "0.0-176.0-0.0", "key_presses": [83, 79, 68, 65, 13, 80, 76, 65, 90, 65, 13, 87, 65, 82, 68, 82, 79, 66, 69, 13, 67, 76, 79, 84, 72, 69, 83, 13, 83, 75, 73, 82, 84, 13], "trial": 6, "time_elapsed": 1149849, "type": "FREE_RECALL", "trial_index": 239}, "uniqueid": "MTK2061:35GMH2SV3FOOABSPJQ0U7LIRYA4EO2", "dateTime": 1516668447959}, {"current_trial": 240, "trialdata": {"rt": 851, "trial_type": "text", "internal_node_id": "0.0-177.0", "time_elapsed": 1152709, "key_press": 32, "type": "INSTRUCTIONS", "trial_index": 240}, "uniqueid": "MTK2061:35GMH2SV3FOOABSPJQ0U7LIRYA4EO2", "dateTime": 1516668450813}, {"current_trial": 241, "trialdata": {"rt": [3689, 7229, 10524, 14056, 17227, 20682], "trial_type": "math-distractor", "key_times": [2535, 2806, 3689, 6333, 7229, 8971, 9641, 10524, 12551, 13351, 14056, 15756, 16316, 17227, 19275, 19942, 20682], "responses": ["11", "6", "13", "15", "12", "14"], "num2": [5, 1, 8, 4, 3, 8, 6], "num3": [5, 2, 1, 3, 5, 5, 8], "conditions": [24, 800, "a", 24000], "internal_node_id": "0.0-178.0", "key_presses": [49, 49, 13, 54, 13, 49, 51, 13, 49, 53, 13, 49, 50, 13, 49, 52, 13], "trial": 7, "time_elapsed": 1178714, "type": "DISTRACTOR", "trial_index": 241, "num1": [1, 3, 4, 8, 4, 1, 7]}, "uniqueid": "MTK2061:35GMH2SV3FOOABSPJQ0U7LIRYA4EO2", "dateTime": 1516668476818}, {"current_trial": 242, "trialdata": {"rt": -1, "trial_type": "single-stim", "stimulus": "<p id=\"stim\">10</p>", "internal_node_id": "0.0-179.0-0.0", "time_elapsed": 1181716, "key_press": -1, "trial_index": 242}, "uniqueid": "MTK2061:35GMH2SV3FOOABSPJQ0U7LIRYA4EO2", "dateTime": 1516668479821}, {"current_trial": 243, "trialdata": {"rt": -1, "trial_type": "single-stim", "stimulus": "<p id=\"stim\">9</p>", "internal_node_id": "0.0-179.0-1.0", "time_elapsed": 1182719, "key_press": -1, "trial_index": 243}, "uniqueid": "MTK2061:35GMH2SV3FOOABSPJQ0U7LIRYA4EO2", "dateTime": 1516668480823}, {"current_trial": 244, "trialdata": {"rt": -1, "trial_type": "single-stim", "stimulus": "<p id=\"stim\">8</p>", "internal_node_id": "0.0-179.0-2.0", "time_elapsed": 1183720, "key_press": -1, "trial_index": 244}, "uniqueid": "MTK2061:35GMH2SV3FOOABSPJQ0U7LIRYA4EO2", "dateTime": 1516668481825}, {"current_trial": 245, "trialdata": {"rt": -1, "trial_type": "single-stim", "stimulus": "<p id=\"stim\">7</p>", "internal_node_id": "0.0-179.0-3.0", "time_elapsed": 1184722, "key_press": -1, "trial_index": 245}, "uniqueid": "MTK2061:35GMH2SV3FOOABSPJQ0U7LIRYA4EO2", "dateTime": 1516668482827}, {"current_trial": 246, "trialdata": {"rt": -1, "trial_type": "single-stim", "stimulus": "<p id=\"stim\">6</p>", "internal_node_id": "0.0-179.0-4.0", "time_elapsed": 1185724, "key_press": -1, "trial_index": 246}, "uniqueid": "MTK2061:35GMH2SV3FOOABSPJQ0U7LIRYA4EO2", "dateTime": 1516668483828}, {"current_trial": 247, "trialdata": {"rt": -1, "trial_type": "single-stim", "stimulus": "<p id=\"stim\">5</p>", "internal_node_id": "0.0-179.0-5.0", "time_elapsed": 1186726, "key_press": -1, "trial_index": 247}, "uniqueid": "MTK2061:35GMH2SV3FOOABSPJQ0U7LIRYA4EO2", "dateTime": 1516668484830}, {"current_trial": 248, "trialdata": {"rt": -1, "trial_type": "single-stim", "stimulus": "<p id=\"stim\">4</p>", "internal_node_id": "0.0-179.0-6.0", "time_elapsed": 1187728, "key_press": -1, "trial_index": 248}, "uniqueid": "MTK2061:35GMH2SV3FOOABSPJQ0U7LIRYA4EO2", "dateTime": 1516668485832}, {"current_trial": 249, "trialdata": {"rt": -1, "trial_type": "single-stim", "stimulus": "<p id=\"stim\">3</p>", "internal_node_id": "0.0-179.0-7.0", "time_elapsed": 1188730, "key_press": -1, "trial_index": 249}, "uniqueid": "MTK2061:35GMH2SV3FOOABSPJQ0U7LIRYA4EO2", "dateTime": 1516668486834}, {"current_trial": 250, "trialdata": {"rt": -1, "trial_type": "single-stim", "stimulus": "<p id=\"stim\">2</p>", "internal_node_id": "0.0-179.0-8.0", "time_elapsed": 1189732, "key_press": -1, "trial_index": 250}, "uniqueid": "MTK2061:35GMH2SV3FOOABSPJQ0U7LIRYA4EO2", "dateTime": 1516668487837}, {"current_trial": 251, "trialdata": {"rt": -1, "trial_type": "single-stim", "stimulus": "<p id=\"stim\">1</p>", "internal_node_id": "0.0-179.0-9.0", "time_elapsed": 1190735, "key_press": -1, "trial_index": 251}, "uniqueid": "MTK2061:35GMH2SV3FOOABSPJQ0U7LIRYA4EO2", "dateTime": 1516668488839}, {"current_trial": 252, "trialdata": {"rt": -1, "trial_type": "single-stim", "stimulus": "<p id=\"stim\">+</p>", "internal_node_id": "0.0-180.0-0.0", "time_elapsed": 1192237, "key_press": -1, "type": "FIXATION", "trial_index": 252}, "uniqueid": "MTK2061:35GMH2SV3FOOABSPJQ0U7LIRYA4EO2", "dateTime": 1516668490341}, {"current_trial": 253, "trialdata": {"rt": -1000, "trial_type": "single-audio", "word": "apple", "stimulus": "/static/audio/wordpool/APPLE.wav", "conditions": [24, 800, "a", 24000], "internal_node_id": "0.0-181.0", "trial": 7, "time_elapsed": 1193956, "serialpos": 0, "key_press": -1, "wordID": 32, "type": "PRES_AUD", "trial_index": 253}, "uniqueid": "MTK2061:35GMH2SV3FOOABSPJQ0U7LIRYA4EO2", "dateTime": 1516668492060}, {"current_trial": 254, "trialdata": {"rt": -1000, "trial_type": "single-audio", "word": "grape", "stimulus": "/static/audio/wordpool/GRAPE.wav", "conditions": [24, 800, "a", 24000], "internal_node_id": "0.0-182.0", "trial": 7, "time_elapsed": 1195892, "serialpos": 1, "key_press": -1, "wordID": 653, "type": "PRES_AUD", "trial_index": 254}, "uniqueid": "MTK2061:35GMH2SV3FOOABSPJQ0U7LIRYA4EO2", "dateTime": 1516668493996}, {"current_trial": 255, "trialdata": {"rt": -1000, "trial_type": "single-audio", "word": "salmon", "stimulus": "/static/audio/wordpool/SALMON.wav", "conditions": [24, 800, "a", 24000], "internal_node_id": "0.0-183.0", "trial": 7, "time_elapsed": 1197581, "serialpos": 2, "key_press": -1, "wordID": 1226, "type": "PRES_AUD", "trial_index": 255}, "uniqueid": "MTK2061:35GMH2SV3FOOABSPJQ0U7LIRYA4EO2", "dateTime": 1516668495685}, {"current_trial": 256, "trialdata": {"rt": -1000, "trial_type": "single-audio", "word": "robin", "stimulus": "/static/audio/wordpool/ROBIN.wav", "conditions": [24, 800, "a", 24000], "internal_node_id": "0.0-184.0", "trial": 7, "time_elapsed": 1199486, "serialpos": 3, "key_press": -1, "wordID": 1198, "type": "PRES_AUD", "trial_index": 256}, "uniqueid": "MTK2061:35GMH2SV3FOOABSPJQ0U7LIRYA4EO2", "dateTime": 1516668497590}, {"current_trial": 257, "trialdata": {"rt