{"assignmentId": "30OG32W0SVI6SQSDIB0HSWIMAEMEN4", "workerId": "MTK2669", "questiondata": {"origin": "United States", "strat-rehearsal": "0", "marital": "Single", "education": "Bachelor's degree", "ethnicity": "Not Hispanic", "color_depth": 24, "distracted": "No", "wrote-notes": "No", "strat-other": "", "screen_width": 1536, "avail_screen_width": 1536, "avail_screen_height": 834, "strat-image": "100", "language": "English", "gender": "Female", "age": "24", "gender_other": "", "race": ["White"], "strat-categorize": "40", "pixel_depth": 24, "strat-spatial": "70", "strat-story": "35", "race_other": "", "screen_height": 864}, "bonus": 0, "hitId": "33QQ60S6ASPI96ZYH38MWICS422U0E", "counterbalance": 1927, "useragent": "Mozilla/5.0 (Windows NT 10.0; Win64; x64) AppleWebKit/537.36 (KHTML, like Gecko) Chrome/64.0.3282.167 Safari/537.36", "eventdata": [{"eventtype": "initialized", "interval": 0, "value": null, "timestamp": 1519228978455}, {"eventtype": "window_resize", "interval": 0, "value": [1536, 783], "timestamp": 1519228978455}, {"eventtype": "focus", "interval": 8134, "value": "off", "timestamp": 1519228986589}, {"eventtype": "focus", "interval": 3675, "value": "on", "timestamp": 1519228990264}, {"eventtype": "focus", "interval": 23875, "value": "off", "timestamp": 1519229014139}, {"eventtype": "focus", "interval": 13917, "value": "on", "timestamp": 1519229028056}, {"eventtype": "focus", "interval": 203525, "value": "off", "timestamp": 1519229231581}, {"eventtype": "focus", "interval": 17014, "value": "on", "timestamp": 1519229248595}, {"eventtype": "focus", "interval": 307782, "value": "off", "timestamp": 1519229556377}, {"eventtype": "focus", "interval": 5196, "value": "on", "timestamp": 1519229561573}], "data": [{"current_trial": 0, "trialdata": {"rt": 7557, "trial_type": "text", "internal_node_id": "0.0-0.0", "time_elapsed": 7560, "key_press": 74, "type": "INSTRUCTIONS", "trial_index": 0}, "uniqueid": "MTK2669:30OG32W0SVI6SQSDIB0HSWIMAEMEN4", "dateTime": 1519228993201}, {"current_trial": 1, "trialdata": {"rt": 2385, "trial_type": "text", "internal_node_id": "0.0-1.0", "time_elapsed": 9947, "key_press": 175, "type": "INSTRUCTIONS", "trial_index": 1}, "uniqueid": "MTK2669:30OG32W0SVI6SQSDIB0HSWIMAEMEN4", "dateTime": 1519228995587}, {"current_trial": 2, "trialdata": {"rt": [15123], "trial_type": "audio-test", "responses": ["ocean"], "internal_node_id": "0.0-2.0", "time_elapsed": 25086, "type": "AUDIO_TEST", "trial_index": 2}, "uniqueid": "MTK2669:30OG32W0SVI6SQSDIB0HSWIMAEMEN4", "dateTime": 1519229010726}, {"current_trial": 3, "trialdata": {"rt": [23448], "trial_type": "audio-test", "responses": ["crystal"], "internal_node_id": "0.0-3.0", "time_elapsed": 48539, "type": "AUDIO_TEST", "trial_index": 3}, "uniqueid": "MTK2669:30OG32W0SVI6SQSDIB0HSWIMAEMEN4", "dateTime": 1519229034180}, {"current_trial": 4, "trialdata": {"rt": [3882], "trial_type": "audio-test", "responses": ["spice"], "internal_node_id": "0.0-4.0", "time_elapsed": 52426, "type": "AUDIO_TEST", "trial_index": 4}, "uniqueid": "MTK2669:30OG32W0SVI6SQSDIB0HSWIMAEMEN4", "dateTime": 1519229038066}, {"current_trial": 5, "trialdata": {"rt": 20853, "trial_type": "survey-text", "responses": "{\"Q0\":\"12:00AM\",\"Q1\":\"7:30AM\",\"Q2\":\"5\"}", "internal_node_id": "0.0-5.0", "time_elapsed": 74033, "type": "SLEEP_SURVEY", "trial_index": 5}, "uniqueid": "MTK2669:30OG32W0SVI6SQSDIB0HSWIMAEMEN4", "dateTime": 1519229059673}, {"current_trial": 6, "trialdata": {"rt": 23724, "trial_type": "text", "internal_node_id": "0.0-6.0", "time_elapsed": 98760, "key_press": 32, "type": "INSTRUCTIONS", "trial_index": 6}, "uniqueid": "MTK2669:30OG32W0SVI6SQSDIB0HSWIMAEMEN4", "dateTime": 1519229084400}, {"current_trial": 7, "trialdata": {"rt": 6675, "trial_type": "text", "internal_node_id": "0.0-7.0", "time_elapsed": 105936, "key_press": 32, "type": "INSTRUCTIONS", "trial_index": 7}, "uniqueid": "MTK2669:30OG32W0SVI6SQSDIB0HSWIMAEMEN4", "dateTime": 1519229091576}, {"current_trial": 8, "trialdata": {"rt": 3693, "trial_type": "text", "internal_node_id": "0.0-8.0", "time_elapsed": 110135, "key_press": 32, "type": "INSTRUCTIONS", "trial_index": 8}, "uniqueid": "MTK2669:30OG32W0SVI6SQSDIB0HSWIMAEMEN4", "dateTime": 1519229095775}, {"current_trial": 9, "trialdata": {"rt": [5167, 7496, 9790, 11904, 14449, 16929], "trial_type": "math-distractor", "key_times": [4364, 4906, 5167, 7054, 7385, 7496, 9426, 9571, 9790, 11454, 11798, 11904, 13930, 14127, 14449, 16585, 16815, 16929], "responses": ["17", "16", "19", "16", "17", "16"], "num2": [5, 9, 7, 2, 5, 8, 3], "num3": [9, 1, 9, 6, 3, 3, 4], "conditions": [18, 1200, "a", 18000], "internal_node_id": "0.0-9.0", "key_presses": [49, 55, 13, 49, 54, 13, 49, 57, 13, 49, 54, 13, 49, 55, 13, 49, 54, 13], "trial": 0, "time_elapsed": 129149, "type": "DISTRACTOR", "trial_index": 9, "num1": [3, 6, 3, 8, 9, 5, 4]}, "uniqueid": "MTK2669:30OG32W0SVI6SQSDIB0HSWIMAEMEN4", "dateTime": 1519229114789}, {"current_trial": 10, "trialdata": {"rt": -1, "trial_type": "single-stim", "stimulus": "<p id=\"stim\">10</p>", "internal_node_id": "0.0-10.0-0.0", "time_elapsed": 132157, "key_press": -1, "trial_index": 10}, "uniqueid": "MTK2669:30OG32W0SVI6SQSDIB0HSWIMAEMEN4", "dateTime": 1519229117797}, {"current_trial": 11, "trialdata": {"rt": -1, "trial_type": "single-stim", "stimulus": "<p id=\"stim\">9</p>", "internal_node_id": "0.0-10.0-1.0", "time_elapsed": 133163, "key_press": -1, "trial_index": 11}, "uniqueid": "MTK2669:30OG32W0SVI6SQSDIB0HSWIMAEMEN4", "dateTime": 1519229118803}, {"current_trial": 12, "trialdata": {"rt": -1, "trial_type": "single-stim", "stimulus": "<p id=\"stim\">8</p>", "internal_node_id": "0.0-10.0-2.0", "time_elapsed": 134167, "key_press": -1, "trial_index": 12}, "uniqueid": "MTK2669:30OG32W0SVI6SQSDIB0HSWIMAEMEN4", "dateTime": 1519229119807}, {"current_trial": 13, "trialdata": {"rt": -1, "trial_type": "single-stim", "stimulus": "<p id=\"stim\">7</p>", "internal_node_id": "0.0-10.0-3.0", "time_elapsed": 135172, "key_press": -1, "trial_index": 13}, "uniqueid": "MTK2669:30OG32W0SVI6SQSDIB0HSWIMAEMEN4", "dateTime": 1519229120812}, {"current_trial": 14, "trialdata": {"rt": -1, "trial_type": "single-stim", "stimulus": "<p id=\"stim\">6</p>", "internal_node_id": "0.0-10.0-4.0", "time_elapsed": 136176, "key_press": -1, "trial_index": 14}, "uniqueid": "MTK2669:30OG32W0SVI6SQSDIB0HSWIMAEMEN4", "dateTime": 1519229121817}, {"current_trial": 15, "trialdata": {"rt": -1, "trial_type": "single-stim", "stimulus": "<p id=\"stim\">5</p>", "internal_node_id": "0.0-10.0-5.0", "time_elapsed": 137181, "key_press": -1, "trial_index": 15}, "uniqueid": "MTK2669:30OG32W0SVI6SQSDIB0HSWIMAEMEN4", "dateTime": 1519229122821}, {"current_trial": 16, "trialdata": {"rt": -1, "trial_type": "single-stim", "stimulus": "<p id=\"stim\">4</p>", "internal_node_id": "0.0-10.0-6.0", "time_elapsed": 138183, "key_press": -1, "trial_index": 16}, "uniqueid": "MTK2669:30OG32W0SVI6SQSDIB0HSWIMAEMEN4", "dateTime": 1519229123823}, {"current_trial": 17, "trialdata": {"rt": -1, "trial_type": "single-stim", "stimulus": "<p id=\"stim\">3</p>", "internal_node_id": "0.0-10.0-7.0", "time_elapsed": 139185, "key_press": -1, "trial_index": 17}, "uniqueid": "MTK2669:30OG32W0SVI6SQSDIB0HSWIMAEMEN4", "dateTime": 1519229124825}, {"current_trial": 18, "trialdata": {"rt": -1, "trial_type": "single-stim", "stimulus": "<p id=\"stim\">2</p>", "internal_node_id": "0.0-10.0-8.0", "time_elapsed": 140190, "key_press": -1, "trial_index": 18}, "uniqueid": "MTK2669:30OG32W0SVI6SQSDIB0HSWIMAEMEN4", "dateTime": 1519229125830}, {"current_trial": 19, "trialdata": {"rt": -1, "trial_type": "single-stim", "stimulus": "<p id=\"stim\">1</p>", "internal_node_id": "0.0-10.0-9.0", "time_elapsed": 141192, "key_press": -1, "trial_index": 19}, "uniqueid": "MTK2669:30OG32W0SVI6SQSDIB0HSWIMAEMEN4", "dateTime": 1519229126832}, {"current_trial": 20, "trialdata": {"rt": -1, "trial_type": "single-stim", "stimulus": "<p id=\"stim\">+</p>", "internal_node_id": "0.0-11.0-0.0", "time_elapsed": 142696, "key_press": -1, "type": "FIXATION", "trial_index": 20}, "uniqueid": "MTK2669:30OG32W0SVI6SQSDIB0HSWIMAEMEN4", "dateTime": 1519229128336}, {"current_trial": 21, "trialdata": {"rt": -1000, "trial_type": "single-audio", "word": "convict", "stimulus": "/static/audio/wordpool/CONVICT.wav", "conditions": [18, 1200, "a", 18000], "internal_node_id": "0.0-12.0", "trial": 0, "time_elapsed": 144929, "serialpos": 0, "key_press": -1, "wordID": 370, "type": "PRES_AUD", "trial_index": 21}, "uniqueid": "MTK2669:30OG32W0SVI6SQSDIB0HSWIMAEMEN4", "dateTime": 1519229130570}, {"current_trial": 22, "trialdata": {"rt": -1000, "trial_type": "single-audio", "word": "puddle", "stimulus": "/static/audio/wordpool/PUDDLE.wav", "conditions": [18, 1200, "a", 18000], "internal_node_id": "0.0-13.0", "trial": 0, "time_elapsed": 147006, "serialpos": 1, "key_press": -1, "wordID": 1139, "type": "PRES_AUD", "trial_index": 22}, "uniqueid": "MTK2669:30OG32W0SVI6SQSDIB0HSWIMAEMEN4", "dateTime": 1519229132646}, {"current_trial": 23, "trialdata": {"rt": -1000, "trial_type": "single-audio", "word": "temple", "stimulus": "/static/audio/wordpool/TEMPLE.wav", "conditions": [18, 1200, "a", 18000], "internal_node_id": "0.0-14.0", "trial": 0, "time_elapsed": 149064, "serialpos": 2, "key_press": -1, "wordID": 1447, "type": "PRES_AUD", "trial_index": 23}, "uniqueid": "MTK2669:30OG32W0SVI6SQSDIB0HSWIMAEMEN4", "dateTime": 1519229134704}, {"current_trial": 24, "trialdata": {"rt": -1000, "trial_type": "single-audio", "word": "antler", "stimulus": "/static/audio/wordpool/ANTLER.wav", "conditions": [18, 1200, "a", 18000], "internal_node_id": "0.0-15.0", "trial": 0, "time_elapsed": 151351, "serialpos": 3, "key_press": -1, "wordID": 28, "type": "PRES_AUD", "trial_index": 24}, "uniqueid": "MTK2669:30OG32W0SVI6SQSDIB0HSWIMAEMEN4", "dateTime": 1519229136992}, {"current_trial": 25, "trialdata": {"rt": -1000, "trial_type": "single-audio", "word": "cricket", "stimulus": "/static/audio/wordpool/CRICKET.wav", "conditions": [18, 1200, "a", 18000], "internal_node_id": "0.0-16.0", "trial": 0, "time_elapsed": 153516, "serialpos": 4, "key_press": -1, "wordID": 407, "type": "PRES_AUD", "trial_index": 25}, "uniqueid": "MTK2669:30OG32W0SVI6SQSDIB0HSWIMAEMEN4", "dateTime": 1519229139156}, {"current_trial": 26, "trialdata": {"rt": -1000, "trial_type": "single-audio", "word": "peanut", "stimulus": "/static/audio/wordpool/PEANUT.wav", "conditions": [18, 1200, "a", 18000], "internal_node_id": "0.0-17.0", "trial": 0, "time_elapsed": 155768, "serialpos": 5, "key_press": -1, "wordID": 1031, "type": "PRES_AUD", "trial_index": 26}, "uniqueid": "MTK2669:30OG32W0SVI6SQSDIB0HSWIMAEMEN4", "dateTime": 1519229141408}, {"current_trial": 27, "trialdata": {"rt": -1000, "trial_type": "single-audio", "word": "outdoors", "stimulus": "/static/audio/wordpool/OUTDOORS.wav", "conditions": [18, 1200, "a", 18000], "internal_node_id": "0.0-18.0", "trial": 0, "time_elapsed": 157794, "serialpos": 6, "key_press": -1, "wordID": 986, "type": "PRES_AUD", "trial_index": 27}, "uniqueid": "MTK2669:30OG32W0SVI6SQSDIB0HSWIMAEMEN4", "dateTime": 1519229143434}, {"current_trial": 28, "trialdata": {"rt": -1000, "trial_type": "single-audio", "word": "summit", "stimulus": "/static/audio/wordpool/SUMMIT.wav", "conditions": [18, 1200, "a", 18000], "internal_node_id": "0.0-19.0", "trial": 0, "time_elapsed": 160092, "serialpos": 7, "key_press": -1, "wordID": 1404, "type": "PRES_AUD", "trial_index": 28}, "uniqueid": "MTK2669:30OG32W0SVI6SQSDIB0HSWIMAEMEN4", "dateTime": 1519229145732}, {"current_trial": 29, "trialdata": {"rt": -1000, "trial_type": "single-audio", "word": "wrench", "stimulus": "/static/audio/wordpool/WRENCH.wav", "conditions": [18, 1200, "a", 18000], "internal_node_id": "0.0-20.0", "trial": 0, "time_elapsed": 162164, "serialpos": 8, "key_press": -1, "wordID": 1624, "type": "PRES_AUD", "trial_index": 29}, "uniqueid": "MTK2669:30OG32W0SVI6SQSDIB0HSWIMAEMEN4", "dateTime": 1519229147804}, {"current_trial": 30, "trialdata": {"rt": -1000, "trial_type": "single-audio", "word": "ozone", "stimulus": "/static/audio/wordpool/OZONE.wav", "conditions": [18, 1200, "a", 18000], "internal_node_id": "0.0-21.0", "trial": 0, "time_elapsed": 164416, "serialpos": 9, "key_press": -1, "wordID": 995, "type": "PRES_AUD", "trial_index": 30}, "uniqueid": "MTK2669:30OG32W0SVI6SQSDIB0HSWIMAEMEN4", "dateTime": 1519229150056}, {"current_trial": 31, "trialdata": {"rt": -1000, "trial_type": "single-audio", "word": "body", "stimulus": "/static/audio/wordpool/BODY.wav", "conditions": [18, 1200, "a", 18000], "internal_node_id": "0.0-22.0", "trial": 0, "time_elapsed": 166778, "serialpos": 10, "key_press": -1, "wordID": 144, "type": "PRES_AUD", "trial_index": 31}, "uniqueid": "MTK2669:30OG32W0SVI6SQSDIB0HSWIMAEMEN4", "dateTime": 1519229152418}, {"current_trial": 32, "trialdata": {"rt": -1000, "trial_type": "single-audio", "word": "award", "stimulus": "/static/audio/wordpool/AWARD.wav", "conditions": [18, 1200, "a", 18000], "internal_node_id": "0.0-23.0", "trial": 0, "time_elapsed": 169102, "serialpos": 11, "key_press": -1, "wordID": 62, "type": "PRES_AUD", "trial_index": 32}, "uniqueid": "MTK2669:30OG32W0SVI6SQSDIB0HSWIMAEMEN4", "dateTime": 1519229154742}, {"current_trial": 33, "trialdata": {"rt": -1000, "trial_type": "single-audio", "word": "transplant", "stimulus": "/static/audio/wordpool/TRANSPLANT.wav", "conditions": [18, 1200, "a", 18000], "internal_node_id": "0.0-24.0", "trial": 0, "time_elapsed": 171416, "serialpos": 12, "key_press": -1, "wordID": 1495, "type": "PRES_AUD", "trial_index": 33}, "uniqueid": "MTK2669:30OG32W0SVI6SQSDIB0HSWIMAEMEN4", "dateTime": 1519229157056}, {"current_trial": 34, "trialdata": {"rt": -1000, "trial_type": "single-audio", "word": "army", "stimulus": "/static/audio/wordpool/ARMY.wav", "conditions": [18, 1200, "a", 18000], "internal_node_id": "0.0-25.0", "trial": 0, "time_elapsed": 173480, "serialpos": 13, "key_press": -1, "wordID": 38, "type": "PRES_AUD", "trial_index": 34}, "uniqueid": "MTK2669:30OG32W0SVI6SQSDIB0HSWIMAEMEN4", "dateTime": 1519229159120}, {"current_trial": 35, "trialdata": {"rt": -1000, "trial_type": "single-audio", "word": "globe", "stimulus": "/static/audio/wordpool/GLOBE.wav", "conditions": [18, 1200, "a", 18000], "internal_node_id": "0.0-26.0", "trial": 0, "time_elapsed": 175684, "serialpos": 14, "key_press": -1, "wordID": 640, "type": "PRES_AUD", "trial_index": 35}, "uniqueid": "MTK2669:30OG32W0SVI6SQSDIB0HSWIMAEMEN4", "dateTime": 1519229161324}, {"current_trial": 36, "trialdata": {"rt": -1000, "trial_type": "single-audio", "word": "viking", "stimulus": "/static/audio/wordpool/VIKING.wav", "conditions": [18, 1200, "a", 18000], "internal_node_id": "0.0-27.0", "trial": 0, "time_elapsed": 177792, "serialpos": 15, "key_press": -1, "wordID": 1564, "type": "PRES_AUD", "trial_index": 36}, "uniqueid": "MTK2669:30OG32W0SVI6SQSDIB0HSWIMAEMEN4", "dateTime": 1519229163432}, {"current_trial": 37, "trialdata": {"rt": -1000, "trial_type": "single-audio", "word": "pastry", "stimulus": "/static/audio/wordpool/PASTRY.wav", "conditions": [18, 1200, "a", 18000], "internal_node_id": "0.0-28.0", "trial": 0, "time_elapsed": 179869, "serialpos": 16, "key_press": -1, "wordID": 1021, "type": "PRES_AUD", "trial_index": 37}, "uniqueid": "MTK2669:30OG32W0SVI6SQSDIB0HSWIMAEMEN4", "dateTime": 1519229165509}, {"current_trial": 38, "trialdata": {"rt": -1000, "trial_type": "single-audio", "word": "scissors", "stimulus": "/static/audio/wordpool/SCISSORS.wav", "conditions": [18, 1200, "a", 18000], "internal_node_id": "0.0-29.0", "trial": 0, "time_elapsed": 182242, "serialpos": 17, "key_press": -1, "wordID": 1249, "type": "PRES_AUD", "trial_index": 38}, "uniqueid": "MTK2669:30OG32W0SVI6SQSDIB0HSWIMAEMEN4", "dateTime": 1519229167882}, {"current_trial": 39, "trialdata": {"rt": -1, "trial_type": "single-stim", "stimulus": "", "internal_node_id": "0.0-30.0-0.0", "time_elapsed": 183585, "key_press": -1, "type": "PRE_RECALL_DELAY", "trial_index": 39}, "uniqueid": "MTK2669:30OG32W0SVI6SQSDIB0HSWIMAEMEN4", "dateTime": 1519229169226}, {"current_trial": 40, "trialdata": {"rt": -1000, "trial_type": "single-audio", "stimulus": "/static/audio/400Hz.wav", "internal_node_id": "0.0-31.0", "time_elapsed": 184090, "key_press": -1, "type": "PRE_RECALL_ALERT", "trial_index": 40}, "uniqueid": "MTK2669:30OG32W0SVI6SQSDIB0HSWIMAEMEN4", "dateTime": 1519229169730}, {"current_trial": 41, "trialdata": {"rt": [4308, 5813, 7871, 9693, 10946, 13851, 14787, 16342, 21965, 23402, 33477], "recwords": ["convict", "puddle", "temple", "cricket", "peanut", "viking", "globe", "summit", "scissors", "pastry", "outdoors"], "key_times": [2325, 2398, 2603, 2893, 3065, 3470, 3688, 4308, 4882, 5089, 5254, 5373, 5483, 5602, 5813, 7072, 7168, 7218, 7450, 7640, 7722, 7871, 8837, 9003, 9058, 9222, 9288, 9438, 9595, 9693, 10147, 10292, 10410, 10535, 10703, 10808, 10946, 12746, 12931, 13170, 13365, 13531, 13659, 13851, 14188, 14257, 14414, 14557, 14653, 14787, 15534, 15634, 15805, 15924, 16093, 16223, 16342, 20924, 21092, 21186, 21336, 21465, 21570, 21697, 21841, 21965, 22356, 22498, 22589, 22850, 23095, 23309, 23402, 31754, 31968, 32118, 32854, 32959, 33085, 33172, 33371, 33477], "trial_type": "free-recall", "conditions": [18, 1200, "a", 18000], "internal_node_id": "0.0-32.0-0.0", "key_presses": [67, 79, 78, 86, 73, 67, 84, 13, 80, 85, 68, 68, 76, 69, 13, 84, 69, 77, 80, 76, 69, 13, 67, 82, 73, 67, 75, 69, 84, 13, 80, 69, 65, 78, 85, 84, 13, 86, 73, 75, 73, 78, 71, 13, 71, 76, 79, 66, 69, 13, 83, 85, 77, 77, 73, 84, 13, 83, 67, 73, 83, 83, 79, 82, 83, 13, 80, 65, 83, 84, 82, 89, 13, 79, 85, 84, 68, 79, 79, 82, 83, 13], "trial": 0, "time_elapsed": 244097, "type": "FREE_RECALL", "trial_index": 41}, "uniqueid": "MTK2669:30OG32W0SVI6SQSDIB0HSWIMAEMEN4", "dateTime": 1519229229739}, {"current_trial": 42, "trialdata": {"rt": 19476, "trial_type": "text", "internal_node_id": "0.0-33.0", "time_elapsed": 265580, "key_press": 74, "type": "INSTRUCTIONS", "trial_index": 42}, "uniqueid": "MTK2669:30OG32W0SVI6SQSDIB0HSWIMAEMEN4", "dateTime": 1519229251220}, {"current_trial": 43, "trialdata": {"rt": [2322, 6376, 8720, 11913, 15262], "trial_type": "math-distractor", "key_times": [1419, 2201, 2322, 6020, 6125, 6376, 8448, 8571, 8720, 11263, 11802, 11913, 14891, 15042, 15262, 17270], "responses": ["14", "10", "11", "13", "19"], "num2": [2, 1, 3, 6, 7, 5], "num3": [4, 3, 4, 1, 5, 8], "conditions": [18, 1200, "a", 18000], "internal_node_id": "0.0-34.0", "key_presses": [49, 52, 13, 49, 48, 13, 49, 49, 13, 49, 51, 13, 49, 57, 13, 49], "trial": 1, "time_elapsed": 285590, "type": "DISTRACTOR", "trial_index": 43, "num1": [8, 6, 4, 7, 7, 1]}, "uniqueid": "MTK2669:30OG32W0SVI6SQSDIB0HSWIMAEMEN4", "dateTime": 1519229271230}, {"current_trial": 44, "trialdata": {"rt": -1, "trial_type": "single-stim", "stimulus": "<p id=\"stim\">10</p>", "internal_node_id": "0.0-35.0-0.0", "time_elapsed": 288599, "key_press": -1, "trial_index": 44}, "uniqueid": "MTK2669:30OG32W0SVI6SQSDIB0HSWIMAEMEN4", "dateTime": 1519229274239}, {"current_trial": 45, "trialdata": {"rt": -1, "trial_type": "single-stim", "stimulus": "<p id=\"stim\">9</p>", "internal_node_id": "0.0-35.0-1.0", "time_elapsed": 289605, "key_press": -1, "trial_index": 45}, "uniqueid": "MTK2669:30OG32W0SVI6SQSDIB0HSWIMAEMEN4", "dateTime": 1519229275245}, {"current_trial": 46, "trialdata": {"rt": -1, "trial_type": "single-stim", "stimulus": "<p id=\"stim\">8</p>", "internal_node_id": "0.0-35.0-2.0", "time_elapsed": 290607, "key_press": -1, "trial_index": 46}, "uniqueid": "MTK2669:30OG32W0SVI6SQSDIB0HSWIMAEMEN4", "dateTime": 1519229276247}, {"current_trial": 47, "trialdata": {"rt": -1, "trial_type": "single-stim", "stimulus": "<p id=\"stim\">7</p>", "internal_node_id": "0.0-35.0-3.0", "time_elapsed": 291609, "key_press": -1, "trial_index": 47}, "uniqueid": "MTK2669:30OG32W0SVI6SQSDIB0HSWIMAEMEN4", "dateTime": 1519229277249}, {"current_trial": 48, "trialdata": {"rt": -1, "trial_type": "single-stim", "stimulus": "<p id=\"stim\">6</p>", "internal_node_id": "0.0-35.0-4.0", "time_elapsed": 292615, "key_press": -1, "trial_index": 48}, "uniqueid": "MTK2669:30OG32W0SVI6SQSDIB0HSWIMAEMEN4", "dateTime": 1519229278255}, {"current_trial": 49, "trialdata": {"rt": -1, "trial_type": "single-stim", "stimulus": "<p id=\"stim\">5</p>", "internal_node_id": "0.0-35.0-5.0", "time_elapsed": 293618, "key_press": -1, "trial_index": 49}, "uniqueid": "MTK2669:30OG32W0SVI6SQSDIB0HSWIMAEMEN4", "dateTime": 1519229279259}, {"current_trial": 50, "trialdata": {"rt": -1, "trial_type": "single-stim", "stimulus": "<p id=\"stim\">4</p>", "internal_node_id": "0.0-35.0-6.0", "time_elapsed": 294622, "key_press": -1, "trial_index": 50}, "uniqueid": "MTK2669:30OG32W0SVI6SQSDIB0HSWIMAEMEN4", "dateTime": 1519229280262}, {"current_trial": 51, "trialdata": {"rt": -1, "trial_type": "single-stim", "stimulus": "<p id=\"stim\">3</p>", "internal_node_id": "0.0-35.0-7.0", "time_elapsed": 295625, "key_press": -1, "trial_index": 51}, "uniqueid": "MTK2669:30OG32W0SVI6SQSDIB0HSWIMAEMEN4", "dateTime": 1519229281265}, {"current_trial": 52, "trialdata": {"rt": -1, "trial_type": "single-stim", "stimulus": "<p id=\"stim\">2</p>", "internal_node_id": "0.0-35.0-8.0", "time_elapsed": 296628, "key_press": -1, "trial_index": 52}, "uniqueid": "MTK2669:30OG32W0SVI6SQSDIB0HSWIMAEMEN4", "dateTime": 1519229282270}, {"current_trial": 53, "trialdata": {"rt": -1, "trial_type": "single-stim", "stimulus": "<p id=\"stim\">1</p>", "internal_node_id": "0.0-35.0-9.0", "time_elapsed": 297633, "key_press": -1, "trial_index": 53}, "uniqueid": "MTK2669:30OG32W0SVI6SQSDIB0HSWIMAEMEN4", "dateTime": 1519229283273}, {"current_trial": 54, "trialdata": {"rt": -1, "trial_type": "single-stim", "stimulus": "<p id=\"stim\">+</p>", "internal_node_id": "0.0-36.0-0.0", "time_elapsed": 299137, "key_press": -1, "type": "FIXATION", "trial_index": 54}, "uniqueid": "MTK2669:30OG32W0SVI6SQSDIB0HSWIMAEMEN4", "dateTime": 1519229284777}, {"current_trial": 55, "trialdata": {"rt": -1000, "trial_type": "single-audio", "word": "racket", "stimulus": "/static/audio/wordpool/RACKET.wav", "conditions": [18, 1200, "a", 18000], "internal_node_id": "0.0-37.0", "trial": 1, "time_elapsed": 301400, "serialpos": 0, "key_press": -1, "wordID": 1154, "type": "PRES_AUD", "trial_index": 55}, "uniqueid": "MTK2669:30OG32W0SVI6SQSDIB0HSWIMAEMEN4", "dateTime": 1519229287040}, {"current_trial": 56, "trialdata": {"rt": -1000, "trial_type": "single-audio", "word": "valve", "stimulus": "/static/audio/wordpool/VALVE.wav", "conditions": [18, 1200, "a", 18000], "internal_node_id": "0.0-38.0", "trial": 1, "time_elapsed": 303708, "serialpos": 1, "key_press": -1, "wordID": 1545, "type": "PRES_AUD", "trial_index": 56}, "uniqueid": "MTK2669:30OG32W0SVI6SQSDIB0HSWIMAEMEN4", "dateTime": 1519229289348}, {"current_trial": 57, "trialdata": {"rt": -1000, "trial_type": "single-audio", "word": "icing", "stimulus": "/static/audio/wordpool/ICING.wav", "conditions": [18, 1200, "a", 18000], "internal_node_id": "0.0-39.0", "trial": 1, "time_elapsed": 305776, "serialpos": 2, "key_press": -1, "wordID": 731, "type": "PRES_AUD", "trial_index": 57}, "uniqueid": "MTK2669:30OG32W0SVI6SQSDIB0HSWIMAEMEN4", "dateTime": 1519229291416}, {"current_trial": 58, "trialdata": {"rt": -1000, "trial_type": "single-audio", "word": "rooster", "stimulus": "/static/audio/wordpool/ROOSTER.wav", "conditions": [18, 1200, "a", 18000], "internal_node_id": "0.0-40.0", "trial": 1, "time_elapsed": 308130, "serialpos": 3, "key_press": -1, "wordID": 1208, "type": "PRES_AUD", "trial_index": 58}, "uniqueid": "MTK2669:30OG32W0SVI6SQSDIB0HSWIMAEMEN4", "dateTime": 1519229293770}, {"current_trial": 59, "trialdata": {"rt": -1000, "trial_type": "single-audio", "word": "cattle", "stimulus": "/static/audio/wordpool/CATTLE.wav", "conditions": [18, 1200, "a", 18000], "internal_node_id": "0.0-41.0", "trial": 1, "time_elapsed": 310285, "serialpos": 4, "key_press": -1, "wordID": 260, "type": "PRES_AUD", "trial_index": 59}, "uniqueid": "MTK2669:30OG32W0SVI6SQSDIB0HSWIMAEMEN4", "dateTime": 1519229295925}, {"current_trial": 60, "trialdata": {"rt": -1000, "trial_type": "single-audio", "word": "seagull", "stimulus": "/static/audio/wordpool/SEAGULL.wav", "conditions": [18, 1200, "a", 18000], "internal_node_id": "0.0-42.0", "trial": 1, "time_elapsed": 312593, "serialpos": 5, "key_press": -1, "wordID": 1260, "type": "PRES_AUD", "trial_index": 60}, "uniqueid": "MTK2669:30OG32W0SVI6SQSDIB0HSWIMAEMEN4", "dateTime": 1519229298233}, {"current_trial": 61, "trialdata": {"rt": -1000, "trial_type": "single-audio", "word": "flesh", "stimulus": "/static/audio/wordpool/FLESH.wav", "conditions": [18, 1200, "a", 18000], "internal_node_id": "0.0-43.0", "trial": 1, "time_elapsed": 314818, "serialpos": 6, "key_press": -1, "wordID": 578, "type": "PRES_AUD", "trial_index": 61}, "uniqueid": "MTK2669:30OG32W0SVI6SQSDIB0HSWIMAEMEN4", "dateTime": 1519229300458}, {"current_trial": 62, "trialdata": {"rt": -1000, "trial_type": "single-audio", "word": "tutu", "stimulus": "/static/audio/wordpool/TUTU.wav", "conditions": [18, 1200, "a", 18000], "internal_node_id": "0.0-44.0", "trial": 1, "time_elapsed": 317055, "serialpos": 7, "key_press": -1, "wordID": 1523, "type": "PRES_AUD", "trial_index": 62}, "uniqueid": "MTK2669:30OG32W0SVI6SQSDIB0HSWIMAEMEN4", "dateTime": 1519229302695}, {"current_trial": 63, "trialdata": {"rt": -1000, "trial_type": "single-audio", "word": "patrol", "stimulus": "/static/audio/wordpool/PATROL.wav", "conditions": [18, 1200, "a", 18000], "internal_node_id": "0.0-45.0", "trial": 1, "time_elapsed": 319414, "serialpos": 8, "key_press": -1, "wordID": 1026, "type": "PRES_AUD", "trial_index": 63}, "uniqueid": "MTK2669:30OG32W0SVI6SQSDIB0HSWIMAEMEN4", "dateTime": 1519229305054}, {"current_trial": 64, "trialdata": {"rt": -1000, "trial_type": "single-audio", "word": "hound", "stimulus": "/static/audio/wordpool/HOUND.wav", "conditions": [18, 1200, "a", 18000], "internal_node_id": "0.0-46.0", "trial": 1, "time_elapsed": 321711, "serialpos": 9, "key_press": -1, "wordID": 723, "type": "PRES_AUD", "trial_index": 64}, "uniqueid": "MTK2669:30OG32W0SVI6SQSDIB0HSWIMAEMEN4", "dateTime": 1519229307352}, {"current_trial": 65, "trialdata": {"rt": -1000, "trial_type": "single-audio", "word": "dustpan", "stimulus": "/static/audio/wordpool/DUSTPAN.wav", "conditions": [18, 1200, "a", 18000], "internal_node_id": "0.0-47.0", "trial": 1, "time_elapsed": 323867, "serialpos": 10, "key_press": -1, "wordID": 508, "type": "PRES_AUD", "trial_index": 65}, "uniqueid": "MTK2669:30OG32W0SVI6SQSDIB0HSWIMAEMEN4", "dateTime": 1519229309507}, {"current_trial": 66, "trialdata": {"rt": -1000, "trial_type": "single-audio", "word": "compass", "stimulus": "/static/audio/wordpool/COMPASS.wav", "conditions": [18, 1200, "a", 18000], "internal_node_id": "0.0-48.0", "trial": 1, "time_elapsed": 326032, "serialpos": 11, "key_press": -1, "wordID": 357, "type": "PRES_AUD", "trial_index": 66}, "uniqueid": "MTK2669:30OG32W0SVI6SQSDIB0HSWIMAEMEN4", "dateTime": 1519229311672}, {"current_trial": 67, "trialdata": {"rt": -1000, "trial_type": "single-audio", "word": "tile", "stimulus": "/static/audio/wordpool/TILE.wav", "conditions": [18, 1200, "a", 18000], "internal_node_id": "0.0-49.0", "trial": 1, "time_elapsed": 328216, "serialpos": 12, "key_press": -1, "wordID": 1467, "type": "PRES_AUD", "trial_index": 67}, "uniqueid": "MTK2669:30OG32W0SVI6SQSDIB0HSWIMAEMEN4", "dateTime": 1519229313856}, {"current_trial": 68, "trialdata": {"rt": -1000, "trial_type": "single-audio", "word": "marrow", "stimulus": "/static/audio/wordpool/MARROW.wav", "conditions": [18, 1200, "a", 18000], "internal_node_id": "0.0-50.0", "trial": 1, "time_elapsed": 330395, "serialpos": 13, "key_press": -1, "wordID": 871, "type": "PRES_AUD", "trial_index": 68}, "uniqueid": "MTK2669:30OG32W0SVI6SQSDIB0HSWIMAEMEN4", "dateTime": 1519229316036}, {"current_trial": 69, "trialdata": {"rt": -1000, "trial_type": "single-audio", "word": "fireman", "stimulus": "/static/audio/wordpool/FIREMAN.wav", "conditions": [18, 1200, "a", 18000], "internal_node_id": "0.0-51.0", "trial": 1, "time_elapsed": 332674, "serialpos": 14, "key_press": -1, "wordID": 568, "type": "PRES_AUD", "trial_index": 69}, "uniqueid": "MTK2669:30OG32W0SVI6SQSDIB0HSWIMAEMEN4", "dateTime": 1519229318314}, {"current_trial": 70, "trialdata": {"rt": -1000, "trial_type": "single-audio", "word": "scarf", "stimulus": "/static/audio/wordpool/SCARF.wav", "conditions": [18, 1200, "a", 18000], "internal_node_id": "0.0-52.0", "trial": 1, "time_elapsed": 335034, "serialpos": 15, "key_press": -1, "wordID": 1245, "type": "PRES_AUD", "trial_index": 70}, "uniqueid": "MTK2669:30OG32W0SVI6SQSDIB0HSWIMAEMEN4", "dateTime": 1519229320674}, {"current_trial": 71, "trialdata": {"rt": -1000, "trial_type": "single-audio", "word": "lava", "stimulus": "/static/audio/wordpool/LAVA.wav", "conditions": [18, 1200, "a", 18000], "internal_node_id": "0.0-53.0", "trial": 1, "time_elapsed": 337264, "serialpos": 16, "key_press": -1, "wordID": 803, "type": "PRES_AUD", "trial_index": 71}, "uniqueid": "MTK2669:30OG32W0SVI6SQSDIB0HSWIMAEMEN4", "dateTime": 1519229322904}, {"current_trial": 72, "trialdata": {"rt": -1000, "trial_type": "single-audio", "word": "flipper", "stimulus": "/static/audio/wordpool/FLIPPER.wav", "conditions": [18, 1200, "a", 18000], "internal_node_id": "0.0-54.0", "trial": 1, "time_elapsed": 339675, "serialpos": 17, "key_press": -1, "wordID": 579, "type": "PRES_AUD", "trial_index": 72}, "uniqueid": "MTK2669:30OG32W0SVI6SQSDIB0HSWIMAEMEN4", "dateTime": 1519229325315}, {"current_trial": 73, "trialdata": {"rt": -1, "trial_type": "single-stim", "stimulus": "", "internal_node_id": "0.0-55.0-0.0", "time_elapsed": 340888, "key_press": -1, "type": "PRE_RECALL_DELAY", "trial_index": 73}, "uniqueid": "MTK2669:30OG32W0SVI6SQSDIB0HSWIMAEMEN4", "dateTime": 1519229326528}, {"current_trial": 74, "trialdata": {"rt": -1000, "trial_type": "single-audio", "stimulus": "/static/audio/400Hz.wav", "internal_node_id": "0.0-56.0", "time_elapsed": 341391, "key_press": -1, "type": "PRE_RECALL_ALERT", "trial_index": 74}, "uniqueid": "MTK2669:30OG32W0SVI6SQSDIB0HSWIMAEMEN4", "dateTime": 1519229327031}, {"current_trial": 75, "trialdata": {"rt": [6944, 10326, 11972, 13349, 15013, 19348, 21679, 24747, 26172, 29131, 30446, 35817, 43346], "recwords": ["rooster", "hound", "cattle", "flesh", "icing", "seagull", "marrow", "patrol", "hound", "fireman", "lava", "flipper", "wrench"], "key_times": [6081, 6161, 6300, 6396, 6620, 6742, 6833, 6944, 9704, 9778, 9951, 10109, 10213, 10326, 11094, 11263, 11482, 11625, 11734, 11839, 11972, 12743, 12833, 12936, 13100, 13145, 13349, 13644, 13842, 14116, 14263, 14400, 14751, 14908, 15013, 16611, 16966, 17270, 17406, 18162, 18352, 18459, 18684, 18771, 18973, 19094, 19348, 20947, 21037, 21234, 21372, 21440, 21591, 21679, 23138, 23266, 23448, 23622, 23875, 24167, 24404, 24589, 24747, 25375, 25563, 25756, 25929, 26019, 26172, 28201, 28286, 28411, 28540, 28702, 28843, 28932, 29131, 29729, 29846, 30077, 30244, 30446, 32754, 32845, 33015, 33195, 33340, 33428, 33585, 35817, 42430, 42650, 42787, 42903, 43038, 43121, 43346], "trial_type": "free-recall", "conditions": [18, 1200, "a", 18000], "internal_node_id": "0.0-57.0-0.0", "key_presses": [82, 79, 79, 83, 84, 69, 82, 13, 72, 79, 85, 78, 68, 13, 67, 65, 84, 84, 76, 69, 13, 70, 76, 69, 83, 72, 13, 73, 86, 8, 67, 73, 78, 71, 13, 83, 67, 8, 8, 83, 69, 65, 71, 85, 76, 76, 13, 77, 65, 82, 82, 79, 87, 13, 80, 65, 84, 82, 76, 8, 79, 76, 13, 72, 79, 85, 78, 68, 13, 70, 73, 82, 69, 77, 65, 78, 13, 76, 65, 86, 65, 13, 70, 76, 73, 80, 80, 69, 82, 13, 87, 82, 69, 78, 67, 72, 13], "trial": 1, "time_elapsed": 401396, "type": "FREE_RECALL", "trial_index": 75}, "uniqueid": "MTK2669:30OG32W0SVI6SQSDIB0HSWIMAEMEN4", "dateTime": 1519229387040}, {"current_trial": 76, "trialdata": {"rt": 2592, "trial_type": "text", "internal_node_id": "0.0-58.0", "time_elapsed": 405997, "key_press": 74, "type": "INSTRUCTIONS", "trial_index": 76}, "uniqueid": "MTK2669:30OG32W0SVI6SQSDIB0HSWIMAEMEN4", "dateTime": 1519229391637}, {"current_trial": 77, "trialdata": {"rt": [3939, 7021, 9203, 10968, 12575, 15163, 20591], "trial_type": "math-distractor", "key_times": [3628, 3716, 3939, 6347, 6934, 7021, 8974, 9099, 9203, 10732, 10803, 10968, 12361, 12464, 12575, 14675, 15056, 15163, 19941, 20390, 20591, 23949], "responses": ["21", "13", "11", "10", "12", "15", "17"], "num2": [4, 6, 4, 4, 8, 9, 9, 5], "num3": [9, 7, 1, 1, 2, 2, 1, 2], "conditions": [24, 800, "a", 24000], "internal_node_id": "0.0-59.0", "key_presses": [50, 49, 13, 49, 51, 13, 49, 49, 13, 49, 48, 13, 49, 50, 13, 49, 53, 13, 49, 55, 13, 57], "trial": 2, "time_elapsed": 431005, "type": "DISTRACTOR", "trial_index": 77, "num1": [8, 2, 6, 5, 2, 4, 7, 2]}, "uniqueid": "MTK2669:30OG32W0SVI6SQSDIB0HSWIMAEMEN4", "dateTime": 1519229416645}, {"current_trial": 78, "trialdata": {"rt": -1, "trial_type": "single-stim", "stimulus": "<p id=\"stim\">10</p>", "internal_node_id": "0.0-60.0-0.0", "time_elapsed": 434010, "key_press": -1, "trial_index": 78}, "uniqueid": "MTK2669:30OG32W0SVI6SQSDIB0HSWIMAEMEN4", "dateTime": 1519229419650}, {"current_trial": 79, "trialdata": {"rt": -1, "trial_type": "single-stim", "stimulus": "<p id=\"stim\">9</p>", "internal_node_id": "0.0-60.0-1.0", "time_elapsed": 435013, "key_press": -1, "trial_index": 79}, "uniqueid": "MTK2669:30OG32W0SVI6SQSDIB0HSWIMAEMEN4", "dateTime": 1519229420653}, {"current_trial": 80, "trialdata": {"rt": -1, "trial_type": "single-stim", "stimulus": "<p id=\"stim\">8</p>", "internal_node_id": "0.0-60.0-2.0", "time_elapsed": 436017, "key_press": -1, "trial_index": 80}, "uniqueid": "MTK2669:30OG32W0SVI6SQSDIB0HSWIMAEMEN4", "dateTime": 1519229421657}, {"current_trial": 81, "trialdata": {"rt": -1, "trial_type": "single-stim", "stimulus": "<p id=\"stim\">7</p>", "internal_node_id": "0.0-60.0-3.0", "time_elapsed": 437022, "key_press": -1, "trial_index": 81}, "uniqueid": "MTK2669:30OG32W0SVI6SQSDIB0HSWIMAEMEN4", "dateTime": 1519229422662}, {"current_trial": 82, "trialdata": {"rt": -1, "trial_type": "single-stim", "stimulus": "<p id=\"stim\">6</p>", "internal_node_id": "0.0-60.0-4.0", "time_elapsed": 438028, "key_press": -1, "trial_index": 82}, "uniqueid": "MTK2669:30OG32W0SVI6SQSDIB0HSWIMAEMEN4", "dateTime": 1519229423668}, {"current_trial": 83, "trialdata": {"rt": -1, "trial_type": "single-stim", "stimulus": "<p id=\"stim\">5</p>", "internal_node_id": "0.0-60.0-5.0", "time_elapsed": 439034, "key_press": -1, "trial_index": 83}, "uniqueid": "MTK2669:30OG32W0SVI6SQSDIB0HSWIMAEMEN4", "dateTime": 1519229424674}, {"current_trial": 84, "trialdata": {"rt": -1, "trial_type": "single-stim", "stimulus": "<p id=\"stim\">4</p>", "internal_node_id": "0.0-60.0-6.0", "time_elapsed": 440036, "key_press": -1, "trial_index": 84}, "uniqueid": "MTK2669:30OG32W0SVI6SQSDIB0HSWIMAEMEN4", "dateTime": 1519229425676}, {"current_trial": 85, "trialdata": {"rt": -1, "trial_type": "single-stim", "stimulus": "<p id=\"stim\">3</p>", "internal_node_id": "0.0-60.0-7.0", "time_elapsed": 441040, "key_press": -1, "trial_index": 85}, "uniqueid": "MTK2669:30OG32W0SVI6SQSDIB0HSWIMAEMEN4", "dateTime": 1519229426680}, {"current_trial": 86, "trialdata": {"rt": -1, "trial_type": "single-stim", "stimulus": "<p id=\"stim\">2</p>", "internal_node_id": "0.0-60.0-8.0", "time_elapsed": 442042, "key_press": -1, "trial_index": 86}, "uniqueid": "MTK2669:30OG32W0SVI6SQSDIB0HSWIMAEMEN4", "dateTime": 1519229427682}, {"current_trial": 87, "trialdata": {"rt": -1, "trial_type": "single-stim", "stimulus": "<p id=\"stim\">1</p>", "internal_node_id": "0.0-60.0-9.0", "time_elapsed": 443048, "key_press": -1, "trial_index": 87}, "uniqueid": "MTK2669:30OG32W0SVI6SQSDIB0HSWIMAEMEN4", "dateTime": 1519229428688}, {"current_trial": 88, "trialdata": {"rt": 793, "trial_type": "single-stim", "stimulus": "<p id=\"stim\">+</p>", "internal_node_id": "0.0-61.0-0.0", "time_elapsed": 444550, "key_press": 175, "type": "FIXATION", "trial_index": 88}, "uniqueid": "MTK2669:30OG32W0SVI6SQSDIB0HSWIMAEMEN4", "dateTime": 1519229430190}, {"current_trial": 89, "trialdata": {"rt": -78.66666666666333, "trial_type": "single-audio", "word": "blueprint", "stimulus": "/static/audio/wordpool/BLUEPRINT.wav", "conditions": [24, 800, "a", 24000], "internal_node_id": "0.0-62.0", "trial": 2, "time_elapsed": 446436, "serialpos": 0, "key_press": 175, "wordID": 141, "type": "PRES_AUD", "trial_index": 89}, "uniqueid": "MTK2669:30OG32W0SVI6SQSDIB0HSWIMAEMEN4", "dateTime": 1519229432077}, {"current_trial": 90, "trialdata": {"rt": -1000, "trial_type": "single-audio", "word": "sunset", "stimulus": "/static/audio/wordpool/SUNSET.wav", "conditions": [24, 800, "a", 24000], "internal_node_id": "0.0-63.0", "trial": 2, "time_elapsed": 448110, "serialpos": 1, "key_press": -1, "wordID": 1407, "type": "PRES_AUD", "trial_index": 90}, "uniqueid": "MTK2669:30OG32W0SVI6SQSDIB0HSWIMAEMEN4", "dateTime": 1519229433750}, {"current_trial": 91, "trialdata": {"rt": -1000, "trial_type": "single-audio", "word": "braces", "stimulus": "/static/audio/wordpool/BRACES.wav", "conditions": [24, 800, "a", 24000], "internal_node_id": "0.0-64.0", "trial": 2, "time_elapsed": 449783, "serialpos": 2, "key_press": -1, "wordID": 163, "type": "PRES_AUD", "trial_index": 91}, "uniqueid": "MTK2669:30OG32W0SVI6SQSDIB0HSWIMAEMEN4", "dateTime": 1519229435423}, {"current_trial": 92, "trialdata": {"rt": -1000, "trial_type": "single-audio", "word": "arm", "stimulus": "/static/audio/wordpool/ARM.wav", "conditions": [24, 800, "a", 24000], "internal_node_id": "0.0-65.0", "trial": 2, "time_elapsed": 451674, "serialpos": 3, "key_press": -1, "wordID": 37, "type": "PRES_AUD", "trial_index": 92}, "uniqueid": "MTK2669:30OG32W0SVI6SQSDIB0HSWIMAEMEN4", "dateTime": 1519229437314}, {"current_trial": 93, "trialdata": {"rt": -1000, "trial_type": "single-audio", "word": "kidney", "stimulus": "/static/audio/wordpool/KIDNEY.wav", "conditions": [24, 800, "a", 24000], "internal_node_id": "0.0-66.0", "trial": 2, "time_elapsed": 453519, "serialpos": 4, "key_press": -1, "wordID": 775, "type": "PRES_AUD", "trial_index": 93}, "uniqueid": "MTK2669:30OG32W0SVI6SQSDIB0HSWIMAEMEN4", "dateTime": 1519229439159}, {"current_trial": 94, "trialdata": {"rt": -1000, "trial_type": "single-audio", "word": "dolphin", "stimulus": "/static/audio/wordpool/DOLPHIN.wav", "conditions": [24, 800, "a", 24000], "internal_node_id": "0.0-67.0", "trial": 2, "time_elapsed": 455294, "serialpos": 5, "key_press": -1, "wordID": 482, "type": "PRES_AUD", "trial_index": 94}, "uniqueid": "MTK2669:30OG32W0SVI6SQSDIB0HSWIMAEMEN4", "dateTime": 1519229440934}, {"current_trial": 95, "trialdata": {"rt": -1000, "trial_type": "single-audio", "word": "foot", "stimulus": "/static/audio/wordpool/FOOT.wav", "conditions": [24, 800, "a", 24000], "internal_node_id": "0.0-68.0", "trial": 2, "time_elapsed": 457199, "serialpos": 6, "key_press": -1, "wordID": 589, "type": "PRES_AUD", "trial_index": 95}, "uniqueid": "MTK2669:30OG32W0SVI6SQSDIB0HSWIMAEMEN4", "dateTime": 1519229442839}, {"current_trial": 96, "trialdata": {"rt": -1000, "trial_type": "single-audio", "word": "zipper", "stimulus": "/static/audio/wordpool/ZIPPER.wav", "conditions": [24, 800, "a", 24000], "internal_node_id": "0.0-69.0", "trial": 2, "time_elapsed": 459063, "serialpos": 7, "key_press": -1, "wordID": 1635, "type": "PRES_AUD", "trial_index": 96}, "uniqueid": "MTK2669:30OG32W0SVI6SQSDIB0HSWIMAEMEN4", "dateTime": 1519229444703}, {"current_trial": 97, "trialdata": {"rt": -1000, "trial_type": "single-audio", "word": "pigeon", "stimulus": "/static/audio/wordpool/PIGEON.wav", "conditions": [24, 800, "a", 24000], "internal_node_id": "0.0-70.0", "trial": 2, "time_elapsed": 460721, "serialpos": 8, "key_press": -1, "wordID": 1064, "type": "PRES_AUD", "trial_index": 97}, "uniqueid": "MTK2669:30OG32W0SVI6SQSDIB0HSWIMAEMEN4", "dateTime": 1519229446361}, {"current_trial": 98, "trialdata": {"rt": -1000, "trial_type": "single-audio", "word": "rabbit", "stimulus": "/static/audio/wordpool/RABBIT.wav", "conditions": [24, 800, "a", 24000], "internal_node_id": "0.0-71.0", "trial": 2, "time_elapsed": 462659, "serialpos": 9, "key_press": -1, "wordID": 1151, "type": "PRES_AUD", "trial_index": 98}, "uniqueid": "MTK2669:30OG32W0SVI6SQSDIB0HSWIMAEMEN4", "dateTime": 1519229448299}, {"current_trial": 99, "trialdata": {"rt": -1000, "trial_type": "single-audio", "word": "drug", "stimulus": "/static/audio/wordpool/DRUG.wav", "conditions": [24, 800, "a", 24000], "internal_node_id": "0.0-72.0", "trial": 2, "time_elapsed": 464378, "serialpos": 10, "key_press": -1, "wordID": 500, "type": "PRES_AUD", "trial_index": 99}, "uniqueid": "MTK2669:30OG32W0SVI6SQSDIB0HSWIMAEMEN4", "dateTime": 1519229450018}, {"current_trial": 100, "trialdata": {"rt": -1000, "trial_type": "single-audio", "word": "sunrise", "stimulus": "/static/audio/wordpool/SUNRISE.wav", "conditions": [24, 800, "a", 24000], "internal_node_id": "0.0-73.0", "trial": 2, "time_elapsed": 466120, "serialpos": 11, "key_press": -1, "wordID": 1406, "type": "PRES_AUD", "trial_index": 100}, "uniqueid": "MTK2669:30OG32W0SVI6SQSDIB0HSWIMAEMEN4", "dateTime": 1519229451760}, {"current_trial": 101, "trialdata": {"rt": -1000, "trial_type": "single-audio", "word": "lace", "stimulus": "/static/audio/wordpool/LACE.wav", "conditions": [24, 800, "a", 24000], "internal_node_id": "0.0-74.0", "trial": 2, "time_elapsed": 467921, "serialpos": 12, "key_press": -1, "wordID": 791, "type": "PRES_AUD", "trial_index": 101}, "uniqueid": "MTK2669:30OG32W0SVI6SQSDIB0HSWIMAEMEN4", "dateTime": 1519229453561}, {"current_trial": 102, "trialdata": {"rt": -1000, "trial_type": "single-audio", "word": "drink", "stimulus": "/static/audio/wordpool/DRINK.wav", "conditions": [24, 800, "a", 24000], "internal_node_id": "0.0-75.0", "trial": 2, "time_elapsed": 469738, "serialpos": 13, "key_press": -1, "wordID": 497, "type": "PRES_AUD", "trial_index": 102}, "uniqueid": "MTK2669:30OG32W0SVI6SQSDIB0HSWIMAEMEN4", "dateTime": 1519229455378}, {"current_trial": 103, "trialdata": {"rt": -1000, "trial_type": "single-audio", "word": "parsley", "stimulus": "/static/audio/wordpool/PARSLEY.wav", "conditions": [24, 800, "a", 24000], "internal_node_id": "0.0-76.0", "trial": 2, "time_elapsed": 471590, "serialpos": 14, "key_press": -1, "wordID": 1015, "type": "PRES_AUD", "trial_index": 103}, "uniqueid": "MTK2669:30OG32W0SVI6SQSDIB0HSWIMAEMEN4", "dateTime": 1519229457230}, {"current_trial": 104, "trialdata": {"rt": -1000, "trial_type": "single-audio", "word": "plaid", "stimulus": "/static/audio/wordpool/PLAID.wav", "conditions": [24, 800, "a", 24000], "internal_node_id": "0.0-77.0", "trial": 2, "time_elapsed": 473600, "serialpos": 15, "key_press": -1, "wordID": 1079, "type": "PRES_AUD", "trial_index": 104}, "uniqueid": "MTK2669:30OG32W0SVI6SQSDIB0HSWIMAEMEN4", "dateTime": 1519229459240}, {"current_trial": 105, "trialdata": {"rt": -1000, "trial_type": "single-audio", "word": "perch", "stimulus": "/static/audio/wordpool/PERCH.wav", "conditions": [24, 800, "a", 24000], "internal_node_id": "0.0-78.0", "trial": 2, "time_elapsed": 475347, "serialpos": 16, "key_press": -1, "wordID": 1047, "type": "PRES_AUD", "trial_index": 105}, "uniqueid": "MTK2669:30OG32W0SVI6SQSDIB0HSWIMAEMEN4", "dateTime": 1519229460987}, {"current_trial": 106, "trialdata": {"rt": -1000, "trial_type": "single-audio", "word": "velvet", "stimulus": "/static/audio/wordpool/VELVET.wav", "conditions": [24, 800, "a", 24000], "internal_node_id": "0.0-79.0", "trial": 2, "time_elapsed": 477066, "serialpos": 17, "key_press": -1, "wordID": 1554, "type": "PRES_AUD", "trial_index": 106}, "uniqueid": "MTK2669:30OG32W0SVI6SQSDIB0HSWIMAEMEN4", "dateTime": 1519229462706}, {"current_trial": 107, "trialdata": {"rt": -1000, "trial_type": "single-audio", "word": "snail", "stimulus": "/static/audio/wordpool/SNAIL.wav", "conditions": [24, 800, "a", 24000], "internal_node_id": "0.0-80.0", "trial": 2, "time_elapsed": 478762, "serialpos": 18, "key_press": -1, "wordID": 1331, "type": "PRES_AUD", "trial_index": 107}, "uniqueid": "MTK2669:30OG32W0SVI6SQSDIB0HSWIMAEMEN4", "dateTime": 1519229464402}, {"current_trial": 108, "trialdata": {"rt": -1000, "trial_type": "single-audio", "word": "dorm", "stimulus": "/static/audio/wordpool/DORM.wav", "conditions": [24, 800, "a", 24000], "internal_node_id": "0.0-81.0", "trial": 2, "time_elapsed": 480747, "serialpos": 19, "key_press": -1, "wordID": 487, "type": "PRES_AUD", "trial_index": 108}, "uniqueid": "MTK2669:30OG32W0SVI6SQSDIB0HSWIMAEMEN4", "dateTime": 1519229466387}, {"current_trial": 109, "trialdata": {"rt": -1000, "trial_type": "single-audio", "word": "tortoise", "stimulus": "/static/audio/wordpool/TORTOISE.wav", "conditions": [24, 800, "a", 24000], "internal_node_id": "0.0-82.0", "trial": 2, "time_elapsed": 482478, "serialpos": 20, "key_press": -1, "wordID": 1485, "type": "PRES_AUD", "trial_index": 109}, "uniqueid": "MTK2669:30OG32W0SVI6SQSDIB0HSWIMAEMEN4", "dateTime": 1519229468118}, {"current_trial": 110, "trialdata": {"rt": -1000, "trial_type": "single-audio", "word": "snake", "stimulus": "/static/audio/wordpool/SNAKE.wav", "conditions": [24, 800, "a", 24000], "internal_node_id": "0.0-83.0", "trial": 2, "time_elapsed": 484451, "serialpos": 21, "key_press": -1, "wordID": 1332, "type": "PRES_AUD", "trial_index": 110}, "uniqueid": "MTK2669:30OG32W0SVI6SQSDIB0HSWIMAEMEN4", "dateTime": 1519229470091}, {"current_trial": 111, "trialdata": {"rt": -1000, "trial_type": "single-audio", "word": "cobra", "stimulus": "/static/audio/wordpool/COBRA.wav", "conditions": [24, 800, "a", 24000], "internal_node_id": "0.0-84.0", "trial": 2, "time_elapsed": 486413, "serialpos": 22, "key_press": -1, "wordID": 335, "type": "PRES_AUD", "trial_index": 111}, "uniqueid": "MTK2669:30OG32W0SVI6SQSDIB0HSWIMAEMEN4", "dateTime": 1519229472054}, {"current_trial": 112, "trialdata": {"rt": -1000, "trial_type": "single-audio", "word": "chipmunk", "stimulus": "/static/audio/wordpool/CHIPMUNK.wav", "conditions": [24, 800, "a", 24000], "internal_node_id": "0.0-85.0", "trial": 2, "time_elapsed": 488381, "serialpos": 23, "key_press": -1, "wordID": 303, "type": "PRES_AUD", "trial_index": 112}, "uniqueid": "MTK2669:30OG32W0SVI6SQSDIB0HSWIMAEMEN4", "dateTime": 1519229474021}, {"current_trial": 113, "trialdata": {"rt": -1, "trial_type": "single-stim", "stimulus": "", "internal_node_id": "0.0-86.0-0.0", "time_elapsed": 489732, "key_press": -1, "type": "PRE_RECALL_DELAY", "trial_index": 113}, "uniqueid": "MTK2669:30OG32W0SVI6SQSDIB0HSWIMAEMEN4", "dateTime": 1519229475372}, {"current_trial": 114, "trialdata": {"rt": -1000, "trial_type": "single-audio", "stimulus": "/static/audio/400Hz.wav", "internal_node_id": "0.0-87.0", "time_elapsed": 490235, "key_press": -1, "type": "PRE_RECALL_ALERT", "trial_index": 114}, "uniqueid": "MTK2669:30OG32W0SVI6SQSDIB0HSWIMAEMEN4", "dateTime": 1519229475875}, {"current_trial": 115, "trialdata": {"rt": [5632, 8320, 14795, 16526, 19005, 20089, 20835, 22352], "recwords": ["arm", "dolphin", "foot", "drug", "velvet", "snail", "snake", "cobra"], "key_times": [4753, 4927, 5052, 5632, 7279, 7371, 7547, 7697, 7882, 7979, 8163, 8320, 13656, 13932, 14098, 14203, 14334, 14694, 14795, 15533, 15694, 15768, 16096, 16321, 16446, 16526, 17578, 17675, 17779, 17892, 18006, 18876, 19005, 19501, 19576, 19703, 19794, 19945, 20089, 20367, 20447, 20565, 20645, 20757, 20835, 21488, 21564, 21960, 22174, 22248, 22352], "trial_type": "free-recall", "conditions": [24, 800, "a", 24000], "internal_node_id": "0.0-88.0-0.0", "key_presses": [65, 82, 77, 13, 68, 79, 76, 80, 72, 73, 78, 13, 71, 8, 70, 79, 79, 84, 13, 68, 82, 73, 8, 85, 71, 13, 86, 69, 76, 86, 69, 84, 13, 83, 78, 65, 73, 76, 13, 83, 78, 65, 75, 69, 13, 67, 79, 66, 82, 65, 13], "trial": 2, "time_elapsed": 550240, "type": "FREE_RECALL", "trial_index": 115}, "uniqueid": "MTK2669:30OG32W0SVI6SQSDIB0HSWIMAEMEN4", "dateTime": 1519229535882}, {"current_trial": 116, "trialdata": {"rt": 17616, "trial_type": "text", "internal_node_id": "0.0-89.0", "time_elapsed": 569862, "key_press": 38, "type": "INSTRUCTIONS", "trial_index": 116}, "uniqueid": "MTK2669:30OG32W0SVI6SQSDIB0HSWIMAEMEN4", "dateTime": 1519229555503}, {"current_trial": 117, "trialdata": {"rt": [6166, 9432, 11818, 13801, 16329, 21061], "trial_type": "math-distractor", "key_times": [5996, 6166, 9065, 9340, 9432, 11387, 11753, 11818, 13317, 13726, 13801, 16171, 16245, 16329, 20656, 21002, 21061, 24001], "responses": ["9", "14", "17", "17", "13", "16"], "num2": [4, 7, 9, 3, 3, 4, 7], "num3": [2, 1, 1, 7, 5, 3, 4], "conditions": [12, 800, "a", 24000], "internal_node_id": "0.0-90.0", "key_presses": [57, 13, 49, 52, 13, 49, 55, 13, 49, 55, 13, 49, 51, 13, 49, 54, 13, 49], "trial": 3, "time_elapsed": 595874, "type": "DISTRACTOR", "trial_index": 117, "num1": [3, 6, 7, 7, 5, 9, 4]}, "uniqueid": "MTK2669:30OG32W0SVI6SQSDIB0HSWIMAEMEN4", "dateTime": 1519229581514}, {"current_trial": 118, "trialdata": {"rt": -1, "trial_type": "single-stim", "stimulus": "<p id=\"stim\">10</p>", "internal_node_id": "0.0-91.0-0.0", "time_elapsed": 598880, "key_press": -1, "trial_index": 118}, "uniqueid": "MTK2669:30OG32W0SVI6SQSDIB0HSWIMAEMEN4", "dateTime": 1519229584520}, {"current_trial": 119, "trialdata": {"rt": -1, "trial_type": "single-stim", "stimulus": "<p id=\"stim\">9</p>", "internal_node_id": "0.0-91.0-1.0", "time_elapsed": 599883, "key_press": -1, "trial_index": 119}, "uniqueid": "MTK2669:30OG32W0SVI6SQSDIB0HSWIMAEMEN4", "dateTime": 1519229585523}, {"current_trial": 120, "trialdata": {"rt": -1, "trial_type": "single-stim", "stimulus": "<p id=\"stim\">8</p>", "internal_node_id": "0.0-91.0-2.0", "time_elapsed": 600885, "key_press": -1, "trial_index": 120}, "uniqueid": "MTK2669:30OG32W0SVI6SQSDIB0HSWIMAEMEN4", "dateTime": 1519229586525}, {"current_trial": 121, "trialdata": {"rt": -1, "trial_type": "single-stim", "stimulus": "<p id=\"stim\">7</p>", "internal_node_id": "0.0-91.0-3.0", "time_elapsed": 601891, "key_press": -1, "trial_index": 121}, "uniqueid": "MTK2669:30OG32W0SVI6SQSDIB0HSWIMAEMEN4", "dateTime": 1519229587531}, {"current_trial": 122, "trialdata": {"rt": -1, "trial_type": "single-stim", "stimulus": "<p id=\"stim\">6</p>", "internal_node_id": "0.0-91.0-4.0", "time_elapsed": 602892, "key_press": -1, "trial_index": 122}, "uniqueid": "MTK2669:30OG32W0SVI6SQSDIB0HSWIMAEMEN4", "dateTime": 1519229588532}, {"current_trial": 123, "trialdata": {"rt": -1, "trial_type": "single-stim", "stimulus": "<p id=\"stim\">5</p>", "internal_node_id": "0.0-91.0-5.0", "time_elapsed": 603895, "key_press": -1, "trial_index": 123}, "uniqueid": "MTK2669:30OG32W0SVI6SQSDIB0HSWIMAEMEN4", "dateTime": 1519229589535}, {"current_trial": 124, "trialdata": {"rt": -1, "trial_type": "single-stim", "stimulus": "<p id=\"stim\">4</p>", "internal_node_id": "0.0-91.0-6.0", "time_elapsed": 604899, "key_press": -1, "trial_index": 124}, "uniqueid": "MTK2669:30OG32W0SVI6SQSDIB0HSWIMAEMEN4", "dateTime": 1519229590539}, {"current_trial": 125, "trialdata": {"rt": -1, "trial_type": "single-stim", "stimulus": "<p id=\"stim\">3</p>", "internal_node_id": "0.0-91.0-7.0", "time_elapsed": 605901, "key_press": -1, "trial_index": 125}, "uniqueid": "MTK2669:30OG32W0SVI6SQSDIB0HSWIMAEMEN4", "dateTime": 1519229591542}, {"current_trial": 126, "trialdata": {"rt": -1, "trial_type": "single-stim", "stimulus": "<p id=\"stim\">2</p>", "internal_node_id": "0.0-91.0-8.0", "time_elapsed": 606905, "key_press": -1, "trial_index": 126}, "uniqueid": "MTK2669:30OG32W0SVI6SQSDIB0HSWIMAEMEN4", "dateTime": 1519229592545}, {"current_trial": 127, "trialdata": {"rt": -1, "trial_type": "single-stim", "stimulus": "<p id=\"stim\">1</p>", "internal_node_id": "0.0-91.0-9.0", "time_elapsed": 607910, "key_press": -1, "trial_index": 127}, "uniqueid": "MTK2669:30OG32W0SVI6SQSDIB0HSWIMAEMEN4", "dateTime": 1519229593550}, {"current_trial": 128, "trialdata": {"rt": -1, "trial_type": "single-stim", "stimulus": "<p id=\"stim\">+</p>", "internal_node_id": "0.0-92.0-0.0", "time_elapsed": 609414, "key_press": -1, "type": "FIXATION", "trial_index": 128}, "uniqueid": "MTK2669:30OG32W0SVI6SQSDIB0HSWIMAEMEN4", "dateTime": 1519229595054}, {"current_trial": 129, "trialdata": {"rt": -1000, "trial_type": "single-audio", "word": "supper", "stimulus": "/static/audio/wordpool/SUPPER.wav", "conditions": [12, 800, "a", 24000], "internal_node_id": "0.0-93.0", "trial": 3, "time_elapsed": 611223, "serialpos": 0, "key_press": -1, "wordID": 1410, "type": "PRES_AUD", "trial_index": 129}, "uniqueid": "MTK2669:30OG32W0SVI6SQSDIB0HSWIMAEMEN4", "dateTime": 1519229596863}, {"current_trial": 130, "trialdata": {"rt": -1000, "trial_type": "single-audio", "word": "novel", "stimulus": "/static/audio/wordpool/NOVEL.wav", "conditions": [12, 800, "a", 24000], "internal_node_id": "0.0-94.0", "trial": 3, "time_elapsed": 613207, "serialpos": 1, "key_press": -1, "wordID": 959, "type": "PRES_AUD", "trial_index": 130}, "uniqueid": "MTK2669:30OG32W0SVI6SQSDIB0HSWIMAEMEN4", "dateTime": 1519229598847}, {"current_trial": 131, "trialdata": {"rt": -1000, "trial_type": "single-audio", "word": "victim", "stimulus": "/static/audio/wordpool/VICTIM.wav", "conditions": [12, 800, "a", 24000], "internal_node_id": "0.0-95.0", "trial": 3, "time_elapsed": 614997, "serialpos": 2, "key_press": -1, "wordID": 1561, "type": "PRES_AUD", "trial_index": 131}, "uniqueid": "MTK2669:30OG32W0SVI6SQSDIB0HSWIMAEMEN4", "dateTime": 1519229600637}, {"current_trial": 132, "trialdata": {"rt": -1000, "trial_type": "single-audio", "word": "survey", "stimulus": "/static/audio/wordpool/SURVEY.wav", "conditions": [12, 800, "a", 24000], "internal_node_id": "0.0-96.0", "trial": 3, "time_elapsed": 616986, "serialpos": 3, "key_press": -1, "wordID": 1413, "type": "PRES_AUD", "trial_index": 132}, "uniqueid": "MTK2669:30OG32W0SVI6SQSDIB0HSWIMAEMEN4", "dateTime": 1519229602626}, {"current_trial": 133, "trialdata": {"rt": -1000, "trial_type": "single-audio", "word": "journal", "stimulus": "/static/audio/wordpool/JOURNAL.wav", "conditions": [12, 800, "a", 24000], "internal_node_id": "0.0-97.0", "trial": 3, "time_elapsed": 618799, "serialpos": 4, "key_press": -1, "wordID": 759, "type": "PRES_AUD", "trial_index": 133}, "uniqueid": "MTK2669:30OG32W0SVI6SQSDIB0HSWIMAEMEN4", "dateTime": 1519229604439}, {"current_trial": 134, "trialdata": {"rt": -1000, "trial_type": "single-audio", "word": "lapel", "stimulus": "/static/audio/wordpool/LAPEL.wav", "conditions": [12, 800, "a", 24000], "internal_node_id": "0.0-98.0", "trial": 3, "time_elapsed": 620474, "serialpos": 5, "key_press": -1, "wordID": 799, "type": "PRES_AUD", "trial_index": 134}, "uniqueid": "MTK2669:30OG32W0SVI6SQSDIB0HSWIMAEMEN4", "dateTime": 1519229606114}, {"current_trial": 135, "trialdata": {"rt": -1000, "trial_type": "single-audio", "word": "freckle", "stimulus": "/static/audio/wordpool/FRECKLE.wav", "conditions": [12, 800, "a", 24000], "internal_node_id": "0.0-99.0", "trial": 3, "time_elapsed": 622399, "serialpos": 6, "key_press": -1, "wordID": 601, "type": "PRES_AUD", "trial_index": 135}, "uniqueid": "MTK2669:30OG32W0SVI6SQSDIB0HSWIMAEMEN4", "dateTime": 1519229608039}, {"current_trial": 136, "trialdata": {"rt": -1000, "trial_type": "single-audio", "word": "pimple", "stimulus": "/static/audio/wordpool/PIMPLE.wav", "conditions": [12, 800, "a", 24000], "internal_node_id": "0.0-100.0", "trial": 3, "time_elapsed": 624235, "serialpos": 7, "key_press": -1, "wordID": 1070, "type": "PRES_AUD", "trial_index": 136}, "uniqueid": "MTK2669:30OG32W0SVI6SQSDIB0HSWIMAEMEN4", "dateTime": 1519229609875}, {"current_trial": 137, "trialdata": {"rt": -1000, "trial_type": "single-audio", "word": "cupboard", "stimulus": "/static/audio/wordpool/CUPBOARD.wav", "conditions": [12, 800, "a", 24000], "internal_node_id": "0.0-101.0", "trial": 3, "time_elapsed": 626006, "serialpos": 8, "key_press": -1, "wordID": 424, "type": "PRES_AUD", "trial_index": 137}, "uniqueid": "MTK2669:30OG32W0SVI6SQSDIB0HSWIMAEMEN4", "dateTime": 1519229611647}, {"current_trial": 138, "trialdata": {"rt": -1000, "trial_type": "single-audio", "word": "suspect", "stimulus": "/static/audio/wordpool/SUSPECT.wav", "conditions": [12, 800, "a", 24000], "internal_node_id": "0.0-102.0", "trial": 3, "time_elapsed": 627639, "serialpos": 9, "key_press": -1, "wordID": 1414, "type": "PRES_AUD", "trial_index": 138}, "uniqueid": "MTK2669:30OG32W0SVI6SQSDIB0HSWIMAEMEN4", "dateTime": 1519229613279}, {"current_trial": 139, "trialdata": {"rt": -1000, "trial_type": "single-audio", "word": "cabbage", "stimulus": "/static/audio/wordpool/CABBAGE.wav", "conditions": [12, 800, "a", 24000], "internal_node_id": "0.0-103.0", "trial": 3, "time_elapsed": 629416, "serialpos": 10, "key_press": -1, "wordID": 209, "type": "PRES_AUD", "trial_index": 139}, "uniqueid": "MTK2669:30OG32W0SVI6SQSDIB0HSWIMAEMEN4", "dateTime": 1519229615057}, {"current_trial": 140, "trialdata": {"rt": -1000, "trial_type": "single-audio", "word": "match", "stimulus": "/static/audio/wordpool/MATCH.wav", "conditions": [12, 800, "a", 24000], "internal_node_id": "0.0-104.0", "trial": 3, "time_elapsed": 631108, "serialpos": 11, "key_press": -1, "wordID": 877, "type": "PRES_AUD", "trial_index": 140}, "uniqueid": "MTK2669:30OG32W0SVI6SQSDIB0HSWIMAEMEN4", "dateTime": 1519229616748}, {"current_trial": 141, "trialdata": {"rt": -1, "trial_type": "single-stim", "stimulus": "", "internal_node_id": "0.0-105.0-0.0", "time_elapsed": 632409, "key_press": -1, "type": "PRE_RECALL_DELAY", "trial_index": 141}, "uniqueid": "MTK2669:30OG32W0SVI6SQSDIB0HSWIMAEMEN4", "dateTime": 1519229618049}, {"current_trial": 142, "trialdata": {"rt": -1000, "trial_type": "single-audio", "stimulus": "/static/audio/400Hz.wav", "internal_node_id": "0.0-106.0", "time_elapsed": 632911, "key_press": -1, "type": "PRE_RECALL_ALERT", "trial_index": 142}, "uniqueid": "MTK2669:30OG32W0SVI6SQSDIB0HSWIMAEMEN4", "dateTime": 1519229618551}, {"current_trial": 143, "trialdata": {"rt": [4164, 7531, 9223, 11845, 13504, 15110, 16992, 18888, 20116, 50887, 55634], "recwords": ["novel", "victim", "supper", "cupboard", "freckle", "pimple", "cabbage", "suspect", "match", "", ""], "key_times": [3001, 3066, 3284, 3355, 3644, 4164, 6426, 6590, 6809, 7025, 7094, 7301, 7531, 8164, 8203, 8397, 8515, 8596, 8739, 8953, 9106, 9223, 10635, 10657, 10874, 11217, 11312, 11434, 11605, 11775, 11845, 12351, 12493, 12698, 12917, 12994, 13241, 13400, 13504, 14149, 14354, 14530, 14721, 14882, 14995, 15110, 15430, 15552, 15683, 15804, 15943, 16175, 16677, 16803, 16887, 16992, 17768, 17875, 18026, 18203, 18331, 18520, 18734, 18888, 19381, 19437, 19635, 19837, 19932, 20116, 50887, 52145, 52664, 52945, 53139, 55634], "trial_type": "free-recall", "conditions": [12, 800, "a", 24000], "internal_node_id": "0.0-107.0-0.0", "key_presses": [78, 79, 86, 69, 76, 13, 86, 73, 67, 84, 73, 77, 13, 83, 85, 80, 80, 69, 84, 8, 82, 13, 67, 85, 80, 66, 79, 65, 82, 68, 13, 70, 82, 69, 67, 75, 76, 69, 13, 80, 73, 77, 80, 76, 69, 13, 67, 65, 66, 66, 65, 69, 8, 71, 69, 13, 83, 85, 83, 80, 69, 67, 84, 13, 77, 65, 84, 67, 72, 13, 32, 40, 39, 37, 38, 13], "trial": 3, "time_elapsed": 692916, "type": "FREE_RECALL", "trial_index": 143}, "uniqueid": "MTK2669:30OG32W0SVI6SQSDIB0HSWIMAEMEN4", "dateTime": 1519229678558}, {"current_trial": 144, "trialdata": {"rt": 881, "trial_type": "text", "internal_node_id": "0.0-108.0", "time_elapsed": 695804, "key_press": 186, "type": "INSTRUCTIONS", "trial_index": 144}, "uniqueid": "MTK2669:30OG32W0SVI6SQSDIB0HSWIMAEMEN4", "dateTime": 1519229681444}, {"current_trial": 145, "trialdata": {"rt": [3194, 6621, 8970, 10411], "trial_type": "math-distractor", "key_times": [2689, 3079, 3194, 5775, 6181, 6375, 6496, 6621, 8781, 8970, 10176, 10310, 10411], "responses": ["17", "22", "9", "11"], "num2": [8, 8, 1, 4, 1], "num3": [5, 5, 5, 1, 8], "conditions": [24, 1600, "a", 12000], "internal_node_id": "0.0-109.0", "key_presses": [49, 55, 13, 49, 8, 50, 50, 13, 57, 13, 49, 49, 13], "trial": 4, "time_elapsed": 709809, "type": "DISTRACTOR", "trial_index": 145, "num1": [4, 9, 3, 6, 7]}, "uniqueid": "MTK2669:30OG32W0SVI6SQSDIB0HSWIMAEMEN4", "dateTime": 1519229695449}, {"current_trial": 146, "trialdata": {"rt": -1, "trial_type": "single-stim", "stimulus": "<p id=\"stim\">10</p>", "internal_node_id": "0.0-110.0-0.0", "time_elapsed": 712815, "key_press": -1, "trial_index": 146}, "uniqueid": "MTK2669:30OG32W0SVI6SQSDIB0HSWIMAEMEN4", "dateTime": 1519229698455}, {"current_trial": 147, "trialdata": {"rt": -1, "trial_type": "single-stim", "stimulus": "<p id=\"stim\">9</p>", "internal_node_id": "0.0-110.0-1.0", "time_elapsed": 713820, "key_press": -1, "trial_index": 147}, "uniqueid": "MTK2669:30OG32W0SVI6SQSDIB0HSWIMAEMEN4", "dateTime": 1519229699460}, {"current_trial": 148, "trialdata": {"rt": 351, "trial_type": "single-stim", "stimulus": "<p id=\"stim\">8</p>", "internal_node_id": "0.0-110.0-2.0", "time_elapsed": 714824, "key_press": 175, "trial_index": 148}, "uniqueid": "MTK2669:30OG32W0SVI6SQSDIB0HSWIMAEMEN4", "dateTime": 1519229700464}, {"current_trial": 149, "trialdata": {"rt": -1, "trial_type": "single-stim", "stimulus": "<p id=\"stim\">7</p>", "internal_node_id": "0.0-110.0-3.0", "time_elapsed": 715829, "key_press": -1, "trial_index": 149}, "uniqueid": "MTK2669:30OG32W0SVI6SQSDIB0HSWIMAEMEN4", "dateTime": 1519229701469}, {"current_trial": 150, "trialdata": {"rt": -1, "trial_type": "single-stim", "stimulus": "<p id=\"stim\">6</p>", "internal_node_id": "0.0-110.0-4.0", "time_elapsed": 716832, "key_press": -1, "trial_index": 150}, "uniqueid": "MTK2669:30OG32W0SVI6SQSDIB0HSWIMAEMEN4", "dateTime": 1519229702472}, {"current_trial": 151, "trialdata": {"rt": -1, "trial_type": "single-stim", "stimulus": "<p id=\"stim\">5</p>", "internal_node_id": "0.0-110.0-5.0", "time_elapsed": 717836, "key_press": -1, "trial_index": 151}, "uniqueid": "MTK2669:30OG32W0SVI6SQSDIB0HSWIMAEMEN4", "dateTime": 1519229703477}, {"current_trial": 152, "trialdata": {"rt": -1, "trial_type": "single-stim", "stimulus": "<p id=\"stim\">4</p>", "internal_node_id": "0.0-110.0-6.0", "time_elapsed": 718841, "key_press": -1, "trial_index": 152}, "uniqueid": "MTK2669:30OG32W0SVI6SQSDIB0HSWIMAEMEN4", "dateTime": 1519229704481}, {"current_trial": 153, "trialdata": {"rt": -1, "trial_type": "single-stim", "stimulus": "<p id=\"stim\">3</p>", "internal_node_id": "0.0-110.0-7.0", "time_elapsed": 719845, "key_press": -1, "trial_index": 153}, "uniqueid": "MTK2669:30OG32W0SVI6SQSDIB0HSWIMAEMEN4", "dateTime": 1519229705485}, {"current_trial": 154, "trialdata": {"rt": -1, "trial_type": "single-stim", "stimulus": "<p id=\"stim\">2</p>", "internal_node_id": "0.0-110.0-8.0", "time_elapsed": 720851, "key_press": -1, "trial_index": 154}, "uniqueid": "MTK2669:30OG32W0SVI6SQSDIB0HSWIMAEMEN4", "dateTime": 1519229706491}, {"current_trial": 155, "trialdata": {"rt": -1, "trial_type": "single-stim", "stimulus": "<p id=\"stim\">1</p>", "internal_node_id": "0.0-110.0-9.0", "time_elapsed": 721854, "key_press": -1, "trial_index": 155}, "uniqueid": "MTK2669:30OG32W0SVI6SQSDIB0HSWIMAEMEN4", "dateTime": 1519229707494}, {"current_trial": 156, "trialdata": {"rt": -1, "trial_type": "single-stim", "stimulus": "<p id=\"stim\">+</p>", "internal_node_id": "0.0-111.0-0.0", "time_elapsed": 723359, "key_press": -1, "type": "FIXATION", "trial_index": 156}, "uniqueid": "MTK2669:30OG32W0SVI6SQSDIB0HSWIMAEMEN4", "dateTime": 1519229708999}, {"current_trial": 157, "trialdata": {"rt": -1000, "trial_type": "single-audio", "word": "lady", "stimulus": "/static/audio/wordpool/LADY.wav", "conditions": [24, 1600, "a", 12000], "internal_node_id": "0.0-112.0", "trial": 4, "time_elapsed": 726055, "serialpos": 0, "key_press": -1, "wordID": 793, "type": "PRES_AUD", "trial_index": 157}, "uniqueid": "MTK2669:30OG32W0SVI6SQSDIB0HSWIMAEMEN4", "dateTime": 1519229711695}, {"current_trial": 158, "trialdata": {"rt": -1000, "trial_type": "single-audio", "word": "muffin", "stimulus": "/static/audio/wordpool/MUFFIN.wav", "conditions": [24, 1600, "a", 12000], "internal_node_id": "0.0-113.0", "trial": 4, "time_elapsed": 728569, "serialpos": 1, "key_press": -1, "wordID": 928, "type": "PRES_AUD", "trial_index": 158}, "uniqueid": "MTK2669:30OG32W0SVI6SQSDIB0HSWIMAEMEN4", "dateTime": 1519229714209}, {"current_trial": 159, "trialdata": {"rt": -1000, "trial_type": "single-audio", "word": "fireplace", "stimulus": "/static/audio/wordpool/FIREPLACE.wav", "conditions": [24, 1600, "a", 12000], "internal_node_id": "0.0-114.0", "trial": 4, "time_elapsed": 731118, "serialpos": 2, "key_press": -1, "wordID": 569, "type": "PRES_AUD", "trial_index": 159}, "uniqueid": "MTK2669:30OG32W0SVI6SQSDIB0HSWIMAEMEN4", "dateTime": 1519229716758}, {"current_trial": 160, "trialdata": {"rt": -1000, "trial_type": "single-audio", "word": "japan", "stimulus": "/static/audio/wordpool/JAPAN.wav", "conditions": [24, 1600, "a", 12000], "internal_node_id": "0.0-115.0", "trial": 4, "time_elapsed": 733698, "serialpos": 3, "key_press": -1, "wordID": 748, "type": "PRES_AUD", "trial_index": 160}, "uniqueid": "MTK2669:30OG32W0SVI6SQSDIB0HSWIMAEMEN4", "dateTime": 1519229719338}, {"current_trial": 161, "trialdata": {"rt": -1000, "trial_type": "single-audio", "word": "ox", "stimulus": "/static/audio/wordpool/OX.wav", "conditions": [24, 1600, "a", 12000], "internal_node_id": "0.0-116.0", "trial": 4, "time_elapsed": 736453, "serialpos": 4, "key_press": -1, "wordID": 993, "type": "PRES_AUD", "trial_index": 161}, "uniqueid": "MTK2669:30OG32W0SVI6SQSDIB0HSWIMAEMEN4", "dateTime": 1519229722093}, {"current_trial": 162, "trialdata": {"rt": -1000, "trial_type": "single-audio", "word": "mattress", "stimulus": "/static/audio/wordpool/MATTRESS.wav", "conditions": [24, 1600, "a", 12000], "internal_node_id": "0.0-117.0", "trial": 4, "time_elapsed": 738991, "serialpos": 5, "key_press": -1, "wordID": 878, "type": "PRES_AUD", "trial_index": 162}, "uniqueid": "MTK2669:30OG32W0SVI6SQSDIB0HSWIMAEMEN4", "dateTime": 1519229724631}, {"current_trial": 163, "trialdata": {"rt": -1000, "trial_type": "single-audio", "word": "preacher", "stimulus": "/static/audio/wordpool/PREACHER.wav", "conditions": [24, 1600, "a", 12000], "internal_node_id": "0.0-118.0", "trial": 4, "time_elapsed": 741672, "serialpos": 6, "key_press": -1, "wordID": 1118, "type": "PRES_AUD", "trial_index": 163}, "uniqueid": "MTK2669:30OG32W0SVI6SQSDIB0HSWIMAEMEN4", "dateTime": 1519229727312}, {"current_trial": 164, "trialdata": {"rt": -1000, "trial_type": "single-audio", "word": "bank", "stimulus": "/static/audio/wordpool/BANK.wav", "conditions": [24, 1600, "a", 12000], "internal_node_id": "0.0-119.0", "trial": 4, "time_elapsed": 744443, "serialpos": 7, "key_press": -1, "wordID": 82, "type": "PRES_AUD", "trial_index": 164}, "uniqueid": "MTK2669:30OG32W0SVI6SQSDIB0HSWIMAEMEN4", "dateTime": 1519229730084}, {"current_trial": 165, "trialdata": {"rt": -1000, "trial_type": "single-audio", "word": "banker", "stimulus": "/static/audio/wordpool/BANKER.wav", "conditions": [24, 1600, "a", 12000], "internal_node_id": "0.0-120.0", "trial": 4, "time_elapsed": 747068, "serialpos": 8, "key_press": -1, "wordID": 83, "type": "PRES_AUD", "trial_index": 165}, "uniqueid": "MTK2669:30OG32W0SVI6SQSDIB0HSWIMAEMEN4", "dateTime": 1519229732708}, {"current_trial": 166, "trialdata": {"rt": -1000, "trial_type": "single-audio", "word": "lodge", "stimulus": "/static/audio/wordpool/LODGE.wav", "conditions": [24, 1600, "a", 12000], "internal_node_id": "0.0-121.0", "trial": 4, "time_elapsed": 749572, "serialpos": 9, "key_press": -1, "wordID": 838, "type": "PRES_AUD", "trial_index": 166}, "uniqueid": "MTK2669:30OG32W0SVI6SQSDIB0HSWIMAEMEN4", "dateTime": 1519229735212}, {"current_trial": 167, "trialdata": {"rt": -1000, "trial_type": "single-audio", "word": "cookbook", "stimulus": "/static/audio/wordpool/COOKBOOK.wav", "conditions": [24, 1600, "a", 12000], "internal_node_id": "0.0-122.0", "trial": 4, "time_elapsed": 752244, "serialpos": 10, "key_press": -1, "wordID": 372, "type": "PRES_AUD", "trial_index": 167}, "uniqueid": "MTK2669:30OG32W0SVI6SQSDIB0HSWIMAEMEN4", "dateTime": 1519229737884}, {"current_trial": 168, "trialdata": {"rt": -1000, "trial_type": "single-audio", "word": "crib", "stimulus": "/static/audio/wordpool/CRIB.wav", "conditions": [24, 1600, "a", 12000], "internal_node_id": "0.0-123.0", "trial": 4, "time_elapsed": 754659, "serialpos": 11, "key_press": -1, "wordID": 406, "type": "PRES_AUD", "trial_index": 168}, "uniqueid": "MTK2669:30OG32W0SVI6SQSDIB0HSWIMAEMEN4", "dateTime": 1519229740299}, {"current_trial": 169, "trialdata": {"rt": -1000, "trial_type": "single-audio", "word": "beaker", "stimulus": "/static/audio/wordpool/BEAKER.wav", "conditions": [24, 1600, "a", 12000], "internal_node_id": "0.0-124.0", "trial": 4, "time_elapsed": 757273, "serialpos": 12, "key_press": -1, "wordID": 103, "type": "PRES_AUD", "trial_index": 169}, "uniqueid": "MTK2669:30OG32W0SVI6SQSDIB0HSWIMAEMEN4", "dateTime": 1519229742913}, {"current_trial": 170, "trialdata": {"rt": -1000, "trial_type": "single-audio", "word": "lagoon", "stimulus": "/static/audio/wordpool/LAGOON.wav", "conditions": [24, 1600, "a", 12000], "internal_node_id": "0.0-125.0", "trial": 4, "time_elapsed": 759693, "serialpos": 13, "key_press": -1, "wordID": 794, "type": "PRES_AUD", "trial_index": 170}, "uniqueid": "MTK2669:30OG32W0SVI6SQSDIB0HSWIMAEMEN4", "dateTime": 1519229745333}, {"current_trial": 171, "trialdata": {"rt": -1000, "trial_type": "single-audio", "word": "rocket", "stimulus": "/static/audio/wordpool/ROCKET.wav", "conditions": [24, 1600, "a", 12000], "internal_node_id": "0.0-126.0", "trial": 4, "time_elapsed": 762354, "serialpos": 14, "key_press": -1, "wordID": 1201, "type": "PRES_AUD", "trial_index": 171}, "uniqueid": "MTK2669:30OG32W0SVI6SQSDIB0HSWIMAEMEN4", "dateTime": 1519229747994}, {"current_trial": 172, "trialdata": {"rt": -1000, "trial_type": "single-audio", "word": "shortcake", "stimulus": "/static/audio/wordpool/SHORTCAKE.wav", "conditions": [24, 1600, "a", 12000], "internal_node_id": "0.0-127.0", "trial": 4, "time_elapsed": 764766, "serialpos": 15, "key_press": -1, "wordID": 1291, "type": "PRES_AUD", "trial_index": 172}, "uniqueid": "MTK2669:30OG32W0SVI6SQSDIB0HSWIMAEMEN4", "dateTime": 1519229750406}, {"current_trial": 173, "trialdata": {"rt": -1000, "trial_type": "single-audio", "word": "mustard", "stimulus": "/static/audio/wordpool/MUSTARD.wav", "conditions": [24, 1600, "a", 12000], "internal_node_id": "0.0-128.0", "trial": 4, "time_elapsed": 767474, "serialpos": 16, "key_press": -1, "wordID": 934, "type": "PRES_AUD", "trial_index": 173}, "uniqueid": "MTK2669:30OG32W0SVI6SQSDIB0HSWIMAEMEN4", "dateTime": 1519229753115}, {"current_trial": 174, "trialdata": {"rt": -1000, "trial_type": "single-audio", "word": "badge", "stimulus": "/static/audio/wordpool/BADGE.wav", "conditions": [24, 1600, "a", 12000], "internal_node_id": "0.0-129.0", "trial": 4, "time_elapsed": 769922, "serialpos": 17, "key_press": -1, "wordID": 67, "type": "PRES_AUD", "trial_index": 174}, "uniqueid": "MTK2669:30OG32W0SVI6SQSDIB0HSWIMAEMEN4", "dateTime": 1519229755562}, {"current_trial": 175, "trialdata": {"rt": -1000, "trial_type": "single-audio", "word": "sticker", "stimulus": "/static/audio/wordpool/STICKER.wav", "conditions": [24, 1600, "a", 12000], "internal_node_id": "0.0-130.0", "trial": 4, "time_elapsed": 772483, "serialpos": 18, "key_press": -1, "wordID": 1381, "type": "PRES_AUD", "trial_index": 175}, "uniqueid": "MTK2669:30OG32W0SVI6SQSDIB0HSWIMAEMEN4", "dateTime": 1519229758123}, {"current_trial": 176, "trialdata": {"rt": -1000, "trial_type": "single-audio", "word": "partner", "stimulus": "/static/audio/wordpool/PARTNER.wav", "conditions": [24, 1600, "a", 12000], "internal_node_id": "0.0-131.0", "trial": 4, "time_elapsed": 775002, "serialpos": 19, "key_press": -1, "wordID": 1016, "type": "PRES_AUD", "trial_index": 176}, "uniqueid": "MTK2669:30OG32W0SVI6SQSDIB0HSWIMAEMEN4", "dateTime": 1519229760642}, {"current_trial": 177, "trialdata": {"rt": -1000, "trial_type": "single-audio", "word": "glove", "stimulus": "/static/audio/wordpool/GLOVE.wav", "conditions": [24, 1600, "a", 12000], "internal_node_id": "0.0-132.0", "trial": 4, "time_elapsed": 777485, "serialpos": 20, "key_press": -1, "wordID": 641, "type": "PRES_AUD", "trial_index": 177}, "uniqueid": "MTK2669:30OG32W0SVI6SQSDIB0HSWIMAEMEN4", "dateTime": 1519229763125}, {"current_trial": 178, "trialdata": {"rt": -1000, "trial_type": "single-audio", "word": "donor", "stimulus": "/static/audio/wordpool/DONOR.wav", "conditions": [24, 1600, "a", 12000], "internal_node_id": "0.0-133.0", "trial": 4, "time_elapsed": 780191, "serialpos": 21, "key_press": -1, "wordID": 484, "type": "PRES_AUD", "trial_index": 178}, "uniqueid": "MTK2669:30OG32W0SVI6SQSDIB0HSWIMAEMEN4", "dateTime": 1519229765831}, {"current_trial": 179, "trialdata": {"rt": -1000, "trial_type": "single-audio", "word": "canal", "stimulus": "/static/audio/wordpool/CANAL.wav", "conditions": [24, 1600, "a", 12000], "internal_node_id": "0.0-134.0", "trial": 4, "time_elapsed": 782777, "serialpos": 22, "key_press": -1, "wordID": 225, "type": "PRES_AUD", "trial_index": 179}, "uniqueid": "MTK2669:30OG32W0SVI6SQSDIB0HSWIMAEMEN4", "dateTime": 1519229768417}, {"current_trial": 180, "trialdata": {"rt": -1000, "trial_type": "single-audio", "word": "hand", "stimulus": "/static/audio/wordpool/HAND.wav", "conditions": [24, 1600, "a", 12000], "internal_node_id": "0.0-135.0", "trial": 4, "time_elapsed": 785195, "serialpos": 23, "key_press": -1, "wordID": 682, "type": "PRES_AUD", "trial_index": 180}, "uniqueid": "MTK2669:30OG32W0SVI6SQSDIB0HSWIMAEMEN4", "dateTime": 1519229770835}, {"current_trial": 181, "trialdata": {"rt": -1, "trial_type": "single-stim", "stimulus": "", "internal_node_id": "0.0-136.0-0.0", "time_elapsed": 786453, "key_press": -1, "type": "PRE_RECALL_DELAY", "trial_index": 181}, "uniqueid": "MTK2669:30OG32W0SVI6SQSDIB0HSWIMAEMEN4", "dateTime": 1519229772094}, {"current_trial": 182, "trialdata": {"rt": -1000, "trial_type": "single-audio", "stimulus": "/static/audio/400Hz.wav", "internal_node_id": "0.0-137.0", "time_elapsed": 786956, "key_press": -1, "type": "PRE_RECALL_ALERT", "trial_index": 182}, "uniqueid": "MTK2669:30OG32W0SVI6SQSDIB0HSWIMAEMEN4", "dateTime": 1519229772596}, {"current_trial": 183, "trialdata": {"rt": [2464, 3787, 5329, 7281, 14805, 17871, 19221, 23614, 25070, 26213, 28527, 31492, 37639, 42648, 44280, 45894, 48148, 50730, 54830], "recwords": ["woman", "japan", "muffin", "fireplace", "preacher", "mattress", "ox", "crib", "bank", "banker", "sticker", "seal", "beaker", "shortcake", "mustard", "cookbook", "lagoon", "canal", "cottage"], "key_times": [1488, 1585, 1781, 1940, 2029, 2464, 2876, 2986, 3112, 3250, 3536, 3787, 4433, 4672, 4766, 4889, 4972, 5137, 5329, 5607, 5690, 5837, 5902, 6210, 6378, 6480, 7078, 7205, 7281, 13471, 13598, 13962, 14160, 14298, 14392, 14580, 14648, 14805, 16255, 16327, 16557, 16981, 17225, 17459, 17638, 17769, 17871, 18175, 18600, 19221, 23040, 23248, 23350, 23500, 23614, 24183, 24369, 24455, 24638, 25070, 25317, 25585, 25690, 25859, 25961, 26097, 26213, 27478, 27750, 27836, 28003, 28106, 28258, 28387, 28527, 30326, 30561, 30757, 31248, 31492, 36782, 36878, 37053, 37140, 37413, 37523, 37639, 40864, 40930, 41129, 41549, 41724, 42192, 42239, 42379, 42549, 42648, 43154, 43362, 43471, 43677, 43834, 43984, 44178, 44280, 44548, 44641, 44782, 44966, 45279, 45359, 45518, 45727, 45894, 46738, 46813, 47018, 47166, 47383, 47625, 47762, 47969, 48148, 49990, 50140, 50245, 50364, 50523, 50730, 53011, 53089, 53257, 53267, 53399, 53628, 53770, 53921, 54014, 54200, 54378, 54610, 54685, 54830], "trial_type": "free-recall", "conditions": [24, 1600, "a", 12000], "internal_node_id": "0.0-138.0-0.0", "key_presses": [87, 79, 77, 65, 78, 13, 74, 65, 80, 65, 78, 13, 77, 85, 70, 70, 73, 78, 13, 70, 73, 82, 69, 80, 76, 65, 67, 69, 13, 80, 82, 69, 65, 67, 72, 69, 82, 13, 77, 65, 84, 84, 82, 69, 83, 83, 13, 79, 88, 13, 67, 82, 73, 66, 13, 66, 65, 78, 75, 13, 66, 65, 78, 75, 69, 82, 13, 83, 84, 73, 67, 75, 69, 82, 13, 83, 69, 65, 76, 13, 66, 69, 65, 75, 69, 82, 13, 83, 72, 79, 82, 84, 67, 65, 75, 69, 13, 77, 85, 83, 84, 65, 82, 68, 13, 67, 79, 79, 75, 66, 79, 79, 75, 13, 76, 65, 71, 71, 8, 79, 79, 78, 13, 67, 65, 78, 65, 76, 13, 67, 79, 82, 84, 84, 8, 8, 8, 84, 84, 65, 71, 69, 13], "trial": 4, "time_elapsed": 846962, "type": "FREE_RECALL", "trial_index": 183}, "uniqueid": "MTK2669:30OG32W0SVI6SQSDIB0HSWIMAEMEN4", "dateTime": 1519229832604}, {"current_trial": 184, "trialdata": {"rt": 1293, "trial_type": "text", "internal_node_id": "0.0-139.0", "time_elapsed": 850263, "key_press": 74, "type": "INSTRUCTIONS", "trial_index": 184}, "uniqueid": "MTK2669:30OG32W0SVI6SQSDIB0HSWIMAEMEN4", "dateTime": 1519229835903}, {"current_trial": 185, "trialdata": {"rt": [1624, 4731, 8693, 11279], "trial_type": "math-distractor", "key_times": [1285, 1534, 1624, 3914, 4045, 4349, 4539, 4731, 8459, 8531, 8693, 10710, 11155, 11279], "responses": ["14", "10", "20", "14"], "num2": [5, 1, 9, 1, 7], "num3": [4, 4, 7, 6, 6], "conditions": [12, 800, "a", 12000], "internal_node_id": "0.0-140.0", "key_presses": [49, 52, 13, 49, 189, 8, 48, 13, 50, 48, 13, 49, 52, 13], "trial": 5, "time_elapsed": 864271, "type": "DISTRACTOR", "trial_index": 185, "num1": [5, 5, 4, 7, 1]}, "uniqueid": "MTK2669:30OG32W0SVI6SQSDIB0HSWIMAEMEN4", "dateTime": 1519229849911}, {"current_trial": 186, "trialdata": {"rt": -1, "trial_type": "single-stim", "stimulus": "<p id=\"stim\">10</p>", "internal_node_id": "0.0-141.0-0.0", "time_elapsed": 867277, "key_press": -1, "trial_index": 186}, "uniqueid": "MTK2669:30OG32W0SVI6SQSDIB0HSWIMAEMEN4", "dateTime": 1519229852917}, {"current_trial": 187, "trialdata": {"rt": -1, "trial_type": "single-stim", "stimulus": "<p id=\"stim\">9</p>", "internal_node_id": "0.0-141.0-1.0", "time_elapsed": 868278, "key_press": -1, "trial_index": 187}, "uniqueid": "MTK2669:30OG32W0SVI6SQSDIB0HSWIMAEMEN4", "dateTime": 1519229853919}, {"current_trial": 188, "trialdata": {"rt": -1, "trial_type": "single-stim", "stimulus": "<p id=\"stim\">8</p>", "internal_node_id": "0.0-141.0-2.0", "time_elapsed": 869283, "key_press": -1, "trial_index": 188}, "uniqueid": "MTK2669:30OG32W0SVI6SQSDIB0HSWIMAEMEN4", "dateTime": 1519229854923}, {"current_trial": 189, "trialdata": {"rt": -1, "trial_type": "single-stim", "stimulus": "<p id=\"stim\">7</p>", "internal_node_id": "0.0-141.0-3.0", "time_elapsed": 870286, "key_press": -1, "trial_index": 189}, "uniqueid": "MTK2669:30OG32W0SVI6SQSDIB0HSWIMAEMEN4", "dateTime": 1519229855926}, {"current_trial": 190, "trialdata": {"rt": -1, "trial_type": "single-stim", "stimulus": "<p id=\"stim\">6</p>", "internal_node_id": "0.0-141.0-4.0", "time_elapsed": 871288, "key_press": -1, "trial_index": 190}, "uniqueid": "MTK2669:30OG32W0SVI6SQSDIB0HSWIMAEMEN4", "dateTime": 1519229856928}, {"current_trial": 191, "trialdata": {"rt": -1, "trial_type": "single-stim", "stimulus": "<p id=\"stim\">5</p>", "internal_node_id": "0.0-141.0-5.0", "time_elapsed": 872291, "key_press": -1, "trial_index": 191}, "uniqueid": "MTK2669:30OG32W0SVI6SQSDIB0HSWIMAEMEN4", "dateTime": 1519229857931}, {"current_trial": 192, "trialdata": {"rt": -1, "trial_type": "single-stim", "stimulus": "<p id=\"stim\">4</p>", "internal_node_id": "0.0-141.0-6.0", "time_elapsed": 873294, "key_press": -1, "trial_index": 192}, "uniqueid": "MTK2669:30OG32W0SVI6SQSDIB0HSWIMAEMEN4", "dateTime": 1519229858934}, {"current_trial": 193, "trialdata": {"rt": -1, "trial_type": "single-stim", "stimulus": "<p id=\"stim\">3</p>", "internal_node_id": "0.0-141.0-7.0", "time_elapsed": 874299, "key_press": -1, "trial_index": 193}, "uniqueid": "MTK2669:30OG32W0SVI6SQSDIB0HSWIMAEMEN4", "dateTime": 1519229859939}, {"current_trial": 194, "trialdata": {"rt": -1, "trial_type": "single-stim", "stimulus": "<p id=\"stim\">2</p>", "internal_node_id": "0.0-141.0-8.0", "time_elapsed": 875304, "key_press": -1, "trial_index": 194}, "uniqueid": "MTK2669:30OG32W0SVI6SQSDIB0HSWIMAEMEN4", "dateTime": 1519229860944}, {"current_trial": 195, "trialdata": {"rt": -1, "trial_type": "single-stim", "stimulus": "<p id=\"stim\">1</p>", "internal_node_id": "0.0-141.0-9.0", "time_elapsed": 876307, "key_press": -1, "trial_index": 195}, "uniqueid": "MTK2669:30OG32W0SVI6SQSDIB0HSWIMAEMEN4", "dateTime": 1519229861947}, {"current_trial": 196, "trialdata": {"rt": -1, "trial_type": "single-stim", "stimulus": "<p id=\"stim\">+</p>", "internal_node_id": "0.0-142.0-0.0", "time_elapsed": 877810, "key_press": -1, "type": "FIXATION", "trial_index": 196}, "uniqueid": "MTK2669:30OG32W0SVI6SQSDIB0HSWIMAEMEN4", "dateTime": 1519229863450}, {"current_trial": 197, "trialdata": {"rt": -1000, "trial_type": "single-audio", "word": "shoulder", "stimulus": "/static/audio/wordpool/SHOULDER.wav", "conditions": [12, 800, "a", 12000], "internal_node_id": "0.0-143.0", "trial": 5, "time_elapsed": 879563, "serialpos": 0, "key_press": -1, "wordID": 1293, "type": "PRES_AUD", "trial_index": 197}, "uniqueid": "MTK2669:30OG32W0SVI6SQSDIB0HSWIMAEMEN4", "dateTime": 1519229865203}, {"current_trial": 198, "trialdata": {"rt": -1000, "trial_type": "single-audio", "word": "orange", "stimulus": "/static/audio/wordpool/ORANGE.wav", "conditions": [12, 800, "a", 12000], "internal_node_id": "0.0-144.0", "trial": 5, "time_elapsed": 881414, "serialpos": 1, "key_press": -1, "wordID": 979, "type": "PRES_AUD", "trial_index": 198}, "uniqueid": "MTK2669:30OG32W0SVI6SQSDIB0HSWIMAEMEN4", "dateTime": 1519229867054}, {"current_trial": 199, "trialdata": {"rt": -1000, "trial_type": "single-audio", "word": "swimmer", "stimulus": "/static/audio/wordpool/SWIMMER.wav", "conditions": [12, 800, "a", 12000], "internal_node_id": "0.0-145.0", "trial": 5, "time_elapsed": 883089, "serialpos": 2, "key_press": -1, "wordID": 1419, "type": "PRES_AUD", "trial_index": 199}, "uniqueid": "MTK2669:30OG32W0SVI6SQSDIB0HSWIMAEMEN4", "dateTime": 1519229868730}, {"current_trial": 200, "trialdata": {"rt": -1000, "trial_type": "single-audio", "word": "flower", "stimulus": "/static/audio/wordpool/FLOWER.wav", "conditions": [12, 800, "a", 12000], "internal_node_id": "0.0-146.0", "trial": 5, "time_elapsed": 884875, "serialpos": 3, "key_press": -1, "wordID": 583, "type": "PRES_AUD", "trial_index": 200}, "uniqueid": "MTK2669:30OG32W0SVI6SQSDIB0HSWIMAEMEN4", "dateTime": 1519229870515}, {"current_trial": 201, "trialdata": {"rt": -1000, "trial_type": "single-audio", "word": "captive", "stimulus": "/static/audio/wordpool/CAPTIVE.wav", "conditions": [12, 800, "a", 12000], "internal_node_id": "0.0-147.0", "trial": 5, "time_elapsed": 886866, "serialpos": 4, "key_press": -1, "wordID": 239, "type": "PRES_AUD", "trial_index": 201}, "uniqueid": "MTK2669:30OG32W0SVI6SQSDIB0HSWIMAEMEN4", "dateTime": 1519229872506}, {"current_trial": 202, "trialdata": {"rt": -1000, "trial_type": "single-audio", "word": "college", "stimulus": "/static/audio/wordpool/COLLEGE.wav", "conditions": [12, 800, "a", 12000], "internal_node_id": "0.0-148.0", "trial": 5, "time_elapsed": 888865, "serialpos": 5, "key_press": -1, "wordID": 345, "type": "PRES_AUD", "trial_index": 202}, "uniqueid": "MTK2669:30OG32W0SVI6SQSDIB0HSWIMAEMEN4", "dateTime": 1519229874505}, {"current_trial": 203, "trialdata": {"rt": -1000, "trial_type": "single-audio", "word": "tuba", "stimulus": "/static/audio/wordpool/TUBA.wav", "conditions": [12, 800, "a", 12000], "internal_node_id": "0.0-149.0", "trial": 5, "time_elapsed": 890480, "serialpos": 6, "key_press": -1, "wordID": 1514, "type": "PRES_AUD", "trial_index": 203}, "uniqueid": "MTK2669:30OG32W0SVI6SQSDIB0HSWIMAEMEN4", "dateTime": 1519229876120}, {"current_trial": 204, "trialdata": {"rt": -1000, "trial_type": "single-audio", "word": "diver", "stimulus": "/static/audio/wordpool/DIVER.wav", "conditions": [12, 800, "a", 12000], "internal_node_id": "0.0-150.0", "trial": 5, "time_elapsed": 892421, "serialpos": 7, "key_press": -1, "wordID": 475, "type": "PRES_AUD", "trial_index": 204}, "uniqueid": "MTK2669:30OG32W0SVI6SQSDIB0HSWIMAEMEN4", "dateTime": 1519229878061}, {"current_trial": 205, "trialdata": {"rt": -1000, "trial_type": "single-audio", "word": "passage", "stimulus": "/static/audio/wordpool/PASSAGE.wav", "conditions": [12, 800, "a", 12000], "internal_node_id": "0.0-151.0", "trial": 5, "time_elapsed": 894396, "serialpos": 8, "key_press": -1, "wordID": 1018, "type": "PRES_AUD", "trial_index": 205}, "uniqueid": "MTK2669:30OG32W0SVI6SQSDIB0HSWIMAEMEN4", "dateTime": 1519229880037}, {"current_trial": 206, "trialdata": {"rt": -1000, "trial_type": "single-audio", "word": "slope", "stimulus": "/static/audio/wordpool/SLOPE.wav", "conditions": [12, 800, "a", 12000], "internal_node_id": "0.0-152.0", "trial": 5, "time_elapsed": 896168, "serialpos": 9, "key_press": -1, "wordID": 1327, "type": "PRES_AUD", "trial_index": 206}, "uniqueid": "MTK2669:30OG32W0SVI6SQSDIB0HSWIMAEMEN4", "dateTime": 1519229881808}, {"current_trial": 207, "trialdata": {"rt": -1000, "trial_type": "single-audio", "word": "daisy", "stimulus": "/static/audio/wordpool/DAISY.wav", "conditions": [12, 800, "a", 12000], "internal_node_id": "0.0-153.0", "trial": 5, "time_elapsed": 898071, "serialpos": 10, "key_press": -1, "wordID": 434, "type": "PRES_AUD", "trial_index": 207}, "uniqueid": "MTK2669:30OG32W0SVI6SQSDIB0HSWIMAEMEN4", "dateTime": 1519229883711}, {"current_trial": 208, "trialdata": {"rt": -1000, "trial_type": "single-audio", "word": "lily", "stimulus": "/static/audio/wordpool/LILY.wav", "conditions": [12, 800, "a", 12000], "internal_node_id": "0.0-154.0", "trial": 5, "time_elapsed": 899828, "serialpos": 11, "key_press": -1, "wordID": 820, "type": "PRES_AUD", "trial_index": 208}, "uniqueid": "MTK2669:30OG32W0SVI6SQSDIB0HSWIMAEMEN4", "dateTime": 1519229885468}, {"current_trial": 209, "trialdata": {"rt": -1, "trial_type": "single-stim", "stimulus": "", "internal_node_id": "0.0-155.0-0.0", "time_elapsed": 901157, "key_press": -1, "type": "PRE_RECALL_DELAY", "trial_index": 209}, "uniqueid": "MTK2669:30OG32W0SVI6SQSDIB0HSWIMAEMEN4", "dateTime": 1519229886798}, {"current_trial": 210, "trialdata": {"rt": -1000, "trial_type": "single-audio", "stimulus": "/static/audio/400Hz.wav", "internal_node_id": "0.0-156.0", "time_elapsed": 901660, "key_press": -1, "type": "PRE_RECALL_ALERT", "trial_index": 210}, "uniqueid": "MTK2669:30OG32W0SVI6SQSDIB0HSWIMAEMEN4", "dateTime": 1519229887300}, {"current_trial": 211, "trialdata": {"rt": [1910, 3574, 4926, 6059, 13067, 14802, 16621, 19606, 21441, 25343, 27270, 36364, 42728], "recwords": ["swimmer", "orange", "shoulder", "flower", "prison", "passage", "diver", "lily", "daisy", "college", "slope", "shoulder", "passage"], "key_times": [1023, 1202, 1255, 1443, 1557, 1688, 1746, 1910, 2705, 2811, 2951, 3244, 3415, 3463, 3574, 3872, 3917, 4126, 4288, 4461, 4591, 4772, 4853, 4926, 5402, 5480, 5630, 5710, 5812, 5976, 6059, 8204, 8313, 8997, 9128, 9260, 10347, 10472, 10743, 11194, 11353, 11494, 12143, 12421, 12494, 12650, 12726, 12901, 13067, 13500, 13621, 13833, 14001, 14293, 14589, 14653, 14802, 15948, 16069, 16294, 16412, 16504, 16621, 17893, 18079, 18262, 18373, 18475, 18923, 19298, 19437, 19606, 20574, 20715, 20778, 21006, 21255, 21441, 24590, 24674, 24845, 24959, 25064, 25151, 25258, 25343, 26629, 26728, 26903, 27059, 27174, 27270, 35160, 35416, 35579, 35760, 35946, 36066, 36224, 36305, 36364, 40903, 41446, 41663, 41791, 42010, 42146, 42296, 42548, 42636, 42728], "trial_type": "free-recall", "conditions": [12, 800, "a", 12000], "internal_node_id": "0.0-157.0-0.0", "key_presses": [83, 87, 73, 77, 77, 69, 82, 13, 79, 82, 65, 78, 71, 69, 13, 83, 72, 79, 85, 76, 68, 69, 82, 13, 70, 76, 79, 87, 69, 82, 13, 80, 65, 8, 8, 8, 80, 82, 73, 8, 8, 8, 80, 82, 73, 83, 79, 78, 13, 80, 65, 83, 83, 65, 71, 69, 13, 68, 73, 86, 69, 82, 13, 76, 73, 76, 76, 89, 8, 8, 89, 13, 68, 65, 73, 83, 89, 13, 67, 79, 76, 76, 69, 71, 69, 13, 83, 76, 79, 80, 69, 13, 83, 72, 79, 85, 76, 68, 69, 82, 13, 80, 83, 8, 65, 83, 83, 65, 71, 69, 13], "trial": 5, "time_elapsed": 961667, "type": "FREE_RECALL", "trial_index": 211}, "uniqueid": "MTK2669:30OG32W0SVI6SQSDIB0HSWIMAEMEN4", "dateTime": 1519229947313}, {"current_trial": 212, "trialdata": {"rt": 334, "trial_type": "text", "internal_node_id": "0.0-158.0", "time_elapsed": 964010, "key_press": 74, "type": "INSTRUCTIONS", "trial_index": 212}, "uniqueid": "MTK2669:30OG32W0SVI6SQSDIB0HSWIMAEMEN4", "dateTime": 1519229949650}, {"current_trial": 213, "trialdata": {"rt": [2648, 4441, 7056, 8982, 10609], "trial_type": "math-distractor", "key_times": [2391, 2577, 2648, 3980, 4304, 4441, 6727, 6953, 7056, 8664, 8882, 8982, 10273, 10529, 10609], "responses": ["13", "14", "14", "13", "14"], "num2": [2, 8, 5, 6, 7, 7], "num3": [4, 2, 6, 3, 4, 4], "conditions": [24, 800, "a", 12000], "internal_node_id": "0.0-159.0", "key_presses": [49, 51, 13, 49, 52, 13, 49, 52, 13, 49, 51, 13, 49, 52, 13], "trial": 6, "time_elapsed": 978017, "type": "DISTRACTOR", "trial_index": 213, "num1": [7, 4, 3, 4, 3, 8]}, "uniqueid": "MTK2669:30OG32W0SVI6SQSDIB0HSWIMAEMEN4", "dateTime": 1519229963657}, {"current_trial": 214, "trialdata": {"rt": -1, "trial_type": "single-stim", "stimulus": "<p id=\"stim\">10</p>", "internal_node_id": "0.0-160.0-0.0", "time_elapsed": 981023, "key_press": -1, "trial_index": 214}, "uniqueid": "MTK2669:30OG32W0SVI6SQSDIB0HSWIMAEMEN4", "dateTime": 1519229966663}, {"current_trial": 215, "trialdata": {"rt": -1, "trial_type": "single-stim", "stimulus": "<p id=\"stim\">9</p>", "internal_node_id": "0.0-160.0-1.0", "time_elapsed": 982027, "key_press": -1, "trial_index": 215}, "uniqueid": "MTK2669:30OG32W0SVI6SQSDIB0HSWIMAEMEN4", "dateTime": 1519229967667}, {"current_trial": 216, "trialdata": {"rt": -1, "trial_type": "single-stim", "stimulus": "<p id=\"stim\">8</p>", "internal_node_id": "0.0-160.0-2.0", "time_elapsed": 983033, "key_press": -1, "trial_index": 216}, "uniqueid": "MTK2669:30OG32W0SVI6SQSDIB0HSWIMAEMEN4", "dateTime": 1519229968673}, {"current_trial": 217, "trialdata": {"rt": -1, "trial_type": "single-stim", "stimulus": "<p id=\"stim\">7</p>", "internal_node_id": "0.0-160.0-3.0", "time_elapsed": 984036, "key_press": -1, "trial_index": 217}, "uniqueid": "MTK2669:30OG32W0SVI6SQSDIB0HSWIMAEMEN4", "dateTime": 1519229969676}, {"current_trial": 218, "trialdata": {"rt": -1, "trial_type": "single-stim", "stimulus": "<p id=\"stim\">6</p>", "internal_node_id": "0.0-160.0-4.0", "time_elapsed": 985038, "key_press": -1, "trial_index": 218}, "uniqueid": "MTK2669:30OG32W0SVI6SQSDIB0HSWIMAEMEN4", "dateTime": 1519229970678}, {"current_trial": 219, "trialdata": {"rt": -1, "trial_type": "single-stim", "stimulus": "<p id=\"stim\">5</p>", "internal_node_id": "0.0-160.0-5.0", "time_elapsed": 986040, "key_press": -1, "trial_index": 219}, "uniqueid": "MTK2669:30OG32W0SVI6SQSDIB0HSWIMAEMEN4", "dateTime": 1519229971680}, {"current_trial": 220, "trialdata": {"rt": -1, "trial_type": "single-stim", "stimulus": "<p id=\"stim\">4</p>", "internal_node_id": "0.0-160.0-6.0", "time_elapsed": 987042, "key_press": -1, "trial_index": 220}, "uniqueid": "MTK2669:30OG32W0SVI6SQSDIB0HSWIMAEMEN4", "dateTime": 1519229972683}, {"current_trial": 221, "trialdata": {"rt": -1, "trial_type": "single-stim", "stimulus": "<p id=\"stim\">3</p>", "internal_node_id": "0.0-160.0-7.0", "time_elapsed": 988047, "key_press": -1, "trial_index": 221}, "uniqueid": "MTK2669:30OG32W0SVI6SQSDIB0HSWIMAEMEN4", "dateTime": 1519229973687}, {"current_trial": 222, "trialdata": {"rt": -1, "trial_type": "single-stim", "stimulus": "<p id=\"stim\">2</p>", "internal_node_id": "0.0-160.0-8.0", "time_elapsed": 989050, "key_press": -1, "trial_index": 222}, "uniqueid": "MTK2669:30OG32W0SVI6SQSDIB0HSWIMAEMEN4", "dateTime": 1519229974690}, {"current_trial": 223, "trialdata": {"rt": -1, "trial_type": "single-stim", "stimulus": "<p id=\"stim\">1</p>", "internal_node_id": "0.0-160.0-9.0", "time_elapsed": 990055, "key_press": -1, "trial_index": 223}, "uniqueid": "MTK2669:30OG32W0SVI6SQSDIB0HSWIMAEMEN4", "dateTime": 1519229975695}, {"current_trial": 224, "trialdata": {"rt": -1, "trial_type": "single-stim", "stimulus": "<p id=\"stim\">+</p>", "internal_node_id": "0.0-161.0-0.0", "time_elapsed": 991560, "key_press": -1, "type": "FIXATION", "trial_index": 224}, "uniqueid": "MTK2669:30OG32W0SVI6SQSDIB0HSWIMAEMEN4", "dateTime": 1519229977201}, {"current_trial": 225, "trialdata": {"rt": -1000, "trial_type": "single-audio", "word": "flute", "stimulus": "/static/audio/wordpool/FLUTE.wav", "conditions": [24, 800, "a", 12000], "internal_node_id": "0.0-162.0", "trial": 6, "time_elapsed": 993298, "serialpos": 0, "key_press": -1, "wordID": 584, "type": "PRES_AUD", "trial_index": 225}, "uniqueid": "MTK2669:30OG32W0SVI6SQSDIB0HSWIMAEMEN4", "dateTime": 1519229978938}, {"current_trial": 226, "trialdata": {"rt": -1000, "trial_type": "single-audio", "word": "receipt", "stimulus": "/static/audio/wordpool/RECEIPT.wav", "conditions": [24, 800, "a", 12000], "internal_node_id": "0.0-163.0", "trial": 6, "time_elapsed": 994931, "serialpos": 1, "key_press": -1, "wordID": 1172, "type": "PRES_AUD", "trial_index": 226}, "uniqueid": "MTK2669:30OG32W0SVI6SQSDIB0HSWIMAEMEN4", "dateTime": 1519229980571}, {"current_trial": 227, "trialdata": {"rt": -1000, "trial_type": "single-audio", "word": "gazelle", "stimulus": "/static/audio/wordpool/GAZELLE.wav", "conditions": [24, 800, "a", 12000], "internal_node_id": "0.0-164.0", "trial": 6, "time_elapsed": 996855, "serialpos": 2, "key_press": -1, "wordID": 627, "type": "PRES_AUD", "trial_index": 227}, "uniqueid": "MTK2669:30OG32W0SVI6SQSDIB0HSWIMAEMEN4", "dateTime": 1519229982496}, {"current_trial": 228, "trialdata": {"rt": -1000, "trial_type": "single-audio", "word": "piano", "stimulus": "/static/audio/wordpool/PIANO.wav", "conditions": [24, 800, "a", 12000], "internal_node_id": "0.0-165.0", "trial": 6, "time_elapsed": 998769, "serialpos": 3, "key_press": -1, "wordID": 1056, "type": "PRES_AUD", "trial_index": 228}, "uniqueid": "MTK2669:30OG32W0SVI6SQSDIB0HSWIMAEMEN4", "dateTime": 1519229984409}, {"current_trial": 229, "trialdata": {"rt": -1000, "trial_type": "single-audio", "word": "flag", "stimulus": "/static/audio/wordpool/FLAG.wav", "conditions": [24, 800, "a", 12000], "internal_node_id": "0.0-166.0", "trial": 6, "time_elapsed": 1000590, "serialpos": 4, "key_press": -1, "wordID": 572, "type": "PRES_AUD", "trial_index": 229}, "uniqueid": "MTK2669:30OG32W0SVI6SQSDIB0HSWIMAEMEN4", "dateTime": 1519229986230}, {"current_trial": 230, "trialdata": {"rt": -1000, "trial_type": "single-audio", "word": "picture", "stimulus": "/static/audio/wordpool/PICTURE.wav", "conditions": [24, 800, "a", 12000], "internal_node_id": "0.0-167.0", "trial": 6, "time_elapsed": 1002304, "serialpos": 5, "key_press": -1, "wordID": 1060, "type": "PRES_AUD", "trial_index": 230}, "uniqueid": "MTK2669:30OG32W0SVI6SQSDIB0HSWIMAEMEN4", "dateTime": 1519229987944}, {"current_trial": 231, "trialdata": {"rt": -1000, "trial_type": "single-audio", "word": "clam", "stimulus": "/static/audio/wordpool/CLAM.wav", "conditions": [24, 800, "a", 12000], "internal_node_id": "0.0-168.0", "trial": 6, "time_elapsed": 1004186, "serialpos": 6, "key_press": -1, "wordID": 314, "type": "PRES_AUD", "trial_index": 231}, "uniqueid": "MTK2669:30OG32W0SVI6SQSDIB0HSWIMAEMEN4", "dateTime": 1519229989826}, {"current_trial": 232, "trialdata": {"rt": -1000, "trial_type": "single-audio", "word": "football", "stimulus": "/static/audio/wordpool/FOOTBALL.wav", "conditions": [24, 800, "a", 12000], "internal_node_id": "0.0-169.0", "trial": 6, "time_elapsed": 1006080, "serialpos": 7, "key_press": -1, "wordID": 590, "type": "PRES_AUD", "trial_index": 232}, "uniqueid": "MTK2669:30OG32W0SVI6SQSDIB0HSWIMAEMEN4", "dateTime": 1519229991720}, {"current_trial": 233, "trialdata": {"rt": -1000, "trial_type": "single-audio", "word": "suitcase", "stimulus": "/static/audio/wordpool/SUITCASE.wav", "conditions": [24, 800, "a", 12000], "internal_node_id": "0.0-170.0", "trial": 6, "time_elapsed": 1007908, "serialpos": 8, "key_press": -1, "wordID": 1402, "type": "PRES_AUD", "trial_index": 233}, "uniqueid": "MTK2669:30OG32W0SVI6SQSDIB0HSWIMAEMEN4", "dateTime": 1519229993548}, {"current_trial": 234, "trialdata": {"rt": -1000, "trial_type": "single-audio", "word": "handbag", "stimulus": "/static/audio/wordpool/HANDBAG.wav", "conditions": [24, 800, "a", 12000], "internal_node_id": "0.0-171.0", "trial": 6, "time_elapsed": 1009799, "serialpos": 9, "key_press": -1, "wordID": 683, "type": "PRES_AUD", "trial_index": 234}, "uniqueid": "MTK2669:30OG32W0SVI6SQSDIB0HSWIMAEMEN4", "dateTime": 1519229995439}, {"current_trial": 235, "trialdata": {"rt": -1000, "trial_type": "single-audio", "word": "report", "stimulus": "/static/audio/wordpool/REPORT.wav", "conditions": [24, 800, "a", 12000], "internal_node_id": "0.0-172.0", "trial": 6, "time_elapsed": 1011659, "serialpos": 10, "key_press": -1, "wordID": 1183, "type": "PRES_AUD", "trial_index": 235}, "uniqueid": "MTK2669:30OG32W0SVI6SQSDIB0HSWIMAEMEN4", "dateTime": 1519229997299}, {"current_trial": 236, "trialdata": {"rt": -1000, "trial_type": "single-audio", "word": "sausage", "stimulus": "/static/audio/wordpool/SAUSAGE.wav", "conditions": [24, 800, "a", 12000], "internal_node_id": "0.0-173.0", "trial": 6, "time_elapsed": 1013540, "serialpos": 11, "key_press": -1, "wordID": 1237, "type": "PRES_AUD", "trial_index": 236}, "uniqueid": "MTK2669:30OG32W0SVI6SQSDIB0HSWIMAEMEN4", "dateTime": 1519229999180}, {"current_trial": 237, "trialdata": {"rt": -1000, "trial_type": "single-audio", "word": "perfume", "stimulus": "/static/audio/wordpool/PERFUME.wav", "conditions": [24, 800, "a", 12000], "internal_node_id": "0.0-174.0", "trial": 6, "time_elapsed": 1015426, "serialpos": 12, "key_press": -1, "wordID": 1048, "type": "PRES_AUD", "trial_index": 237}, "uniqueid": "MTK2669:30OG32W0SVI6SQSDIB0HSWIMAEMEN4", "dateTime": 1519230001066}, {"current_trial": 238, "trialdata": {"rt": -1000, "trial_type": "single-audio", "word": "fragrance", "stimulus": "/static/audio/wordpool/FRAGRANCE.wav", "conditions": [24, 800, "a", 12000], "internal_node_id": "0.0-175.0", "trial": 6, "time_elapsed": 1017051, "serialpos": 13, "key_press": -1, "wordID": 598, "type": "PRES_AUD", "trial_index": 238}, "uniqueid": "MTK2669:30OG32W0SVI6SQSDIB0HSWIMAEMEN4", "dateTime": 1519230002691}, {"current_trial": 239, "trialdata": {"rt": -1000, "trial_type": "single-audio", "word": "apple", "stimulus": "/static/audio/wordpool/APPLE.wav", "conditions": [24, 800, "a", 12000], "internal_node_id": "0.0-176.0", "trial": 6, "time_elapsed": 1018988, "serialpos": 14, "key_press": -1, "wordID": 32, "type": "PRES_AUD", "trial_index": 239}, "uniqueid": "MTK2669:30OG32W0SVI6SQSDIB0HSWIMAEMEN4", "dateTime": 1519230004628}, {"current_trial": 240, "trialdata": {"rt": -1000, "trial_type": "single-audio", "word": "sword", "stimulus": "/static/audio/wordpool/SWORD.wav", "conditions": [24, 800, "a", 12000], "internal_node_id": "0.0-177.0", "trial": 6, "time_elapsed": 1020954, "serialpos": 15, "key_press": -1, "wordID": 1422, "type": "PRES_AUD", "trial_index": 240}, "uniqueid": "MTK2669:30OG32W0SVI6SQSDIB0HSWIMAEMEN4", "dateTime": 1519230006594}, {"current_trial": 241, "trialdata": {"rt": -1000, "trial_type": "single-audio", "word": "dresser", "stimulus": "/static/audio/wordpool/DRESSER.wav", "conditions": [24, 800, "a", 12000], "internal_node_id": "0.0-178.0", "trial": 6, "time_elapsed": 1022679, "serialpos": 16, "key_press": -1, "wordID": 495, "type": "PRES_AUD", "trial_index": 241}, "uniqueid": "MTK2669:30OG32W0SVI6SQSDIB0HSWIMAEMEN4", "dateTime": 1519230008320}, {"current_trial": 242, "trialdata": {"rt": -1000, "trial_type": "single-audio", "word": "loft", "stimulus": "/static/audio/wordpool/LOFT.wav", "conditions": [24, 800, "a", 12000], "internal_node_id": "0.0-179.0", "trial": 6, "time_elapsed": 1024449, "serialpos": 17, "key_press": -1, "wordID": 839, "type": "PRES_AUD", "trial_index": 242}, "uniqueid": "MTK2669:30OG32W0SVI6SQSDIB0HSWIMAEMEN4", "dateTime": 1519230010089}, {"current_trial": 243, "trialdata": {"rt": -1000, "trial_type": "single-audio", "word": "missile", "stimulus": "/static/audio/wordpool/MISSILE.wav", "conditions": [24, 800, "a", 12000], "internal_node_id": "0.0-180.0", "trial": 6, "t