{"assignmentId": "3I7DHKZYGO7U8FM39MO1GX30UAX5FE", "workerId": "MTK2452", "questiondata": {"origin": "United States", "strat-rehearsal": "68", "marital": "Married/Domestic Partnership", "education": "Master's degree", "ethnicity": "Not Hispanic", "color_depth": 24, "distracted": "No", "wrote-notes": "Yes", "strat-other": "n/a", "screen_width": 1366, "avail_screen_width": 1366, "avail_screen_height": 728, "strat-image": "66", "language": "English", "gender": "Female", "age": "32", "gender_other": "", "race": ["White"], "strat-categorize": "84", "pixel_depth": 24, "strat-spatial": "64", "strat-story": "64", "race_other": "", "screen_height": 768}, "bonus": 0, "hitId": "3ZTE0JGGCEZ7QTAHXXPXSDM4VQNOC6", "counterbalance": 865, "useragent": "Mozilla/5.0 (Windows NT 10.0; Win64; x64) AppleWebKit/537.36 (KHTML, like Gecko) Chrome/63.0.3239.132 Safari/537.36", "eventdata": [{"eventtype": "initialized", "interval": 0, "value": null, "timestamp": 1517256886023}, {"eventtype": "window_resize", "interval": 0, "value": [1362, 713], "timestamp": 1517256886023}, {"eventtype": "focus", "interval": 526609, "value": "off", "timestamp": 1517257412632}, {"eventtype": "focus", "interval": 42186, "value": "on", "timestamp": 1517257454818}, {"eventtype": "focus", "interval": 236235, "value": "off", "timestamp": 1517257691053}, {"eventtype": "focus", "interval": 14056, "value": "on", "timestamp": 1517257705109}, {"eventtype": "focus", "interval": 1321444, "value": "off", "timestamp": 1517259026553}, {"eventtype": "focus", "interval": 45947, "value": "on", "timestamp": 1517259072500}, {"eventtype": "focus", "interval": 355154, "value": "off", "timestamp": 1517259427654}, {"eventtype": "focus", "interval": 17970, "value": "on", "timestamp": 1517259445624}, {"eventtype": "focus", "interval": 2387, "value": "off", "timestamp": 1517259448011}, {"eventtype": "focus", "interval": 3844, "value": "on", "timestamp": 1517259451855}, {"eventtype": "window_resize", "interval": 1209022, "value": [1366, 677], "timestamp": 1517260660877}], "data": [{"current_trial": 0, "trialdata": {"rt": 2204, "trial_type": "text", "internal_node_id": "0.0-0.0", "time_elapsed": 2210, "key_press": 13, "type": "INSTRUCTIONS", "trial_index": 0}, "uniqueid": "MTK2452:3I7DHKZYGO7U8FM39MO1GX30UAX5FE", "dateTime": 1517256899656}, {"current_trial": 1, "trialdata": {"rt": 27061, "trial_type": "text", "internal_node_id": "0.0-1.0", "time_elapsed": 29277, "key_press": 32, "type": "INSTRUCTIONS", "trial_index": 1}, "uniqueid": "MTK2452:3I7DHKZYGO7U8FM39MO1GX30UAX5FE", "dateTime": 1517256926722}, {"current_trial": 2, "trialdata": {"rt": [15771], "trial_type": "audio-test", "responses": ["ocean"], "internal_node_id": "0.0-2.0", "time_elapsed": 45127, "type": "AUDIO_TEST", "trial_index": 2}, "uniqueid": "MTK2452:3I7DHKZYGO7U8FM39MO1GX30UAX5FE", "dateTime": 1517256942572}, {"current_trial": 3, "trialdata": {"rt": [48950], "trial_type": "audio-test", "responses": ["crystal"], "internal_node_id": "0.0-3.0", "time_elapsed": 94086, "type": "AUDIO_TEST", "trial_index": 3}, "uniqueid": "MTK2452:3I7DHKZYGO7U8FM39MO1GX30UAX5FE", "dateTime": 1517256991531}, {"current_trial": 4, "trialdata": {"rt": [4406], "trial_type": "audio-test", "responses": ["spice"], "internal_node_id": "0.0-4.0", "time_elapsed": 98501, "type": "AUDIO_TEST", "trial_index": 4}, "uniqueid": "MTK2452:3I7DHKZYGO7U8FM39MO1GX30UAX5FE", "dateTime": 1517256995946}, {"current_trial": 5, "trialdata": {"rt": 208377, "trial_type": "survey-text", "responses": "{\"Q0\":\"9:00\",\"Q1\":\"6:00\",\"Q2\":\"4\"}", "internal_node_id": "0.0-5.0", "time_elapsed": 307631, "type": "SLEEP_SURVEY", "trial_index": 5}, "uniqueid": "MTK2452:3I7DHKZYGO7U8FM39MO1GX30UAX5FE", "dateTime": 1517257205076}, {"current_trial": 6, "trialdata": {"rt": 157329, "trial_type": "text", "internal_node_id": "0.0-6.0", "time_elapsed": 465968, "key_press": 13, "type": "INSTRUCTIONS", "trial_index": 6}, "uniqueid": "MTK2452:3I7DHKZYGO7U8FM39MO1GX30UAX5FE", "dateTime": 1517257363413}, {"current_trial": 7, "trialdata": {"rt": 9188, "trial_type": "text", "internal_node_id": "0.0-7.0", "time_elapsed": 475660, "key_press": 13, "type": "INSTRUCTIONS", "trial_index": 7}, "uniqueid": "MTK2452:3I7DHKZYGO7U8FM39MO1GX30UAX5FE", "dateTime": 1517257373105}, {"current_trial": 8, "trialdata": {"rt": 1408, "trial_type": "text", "internal_node_id": "0.0-8.0", "time_elapsed": 477568, "key_press": 13, "type": "INSTRUCTIONS", "trial_index": 8}, "uniqueid": "MTK2452:3I7DHKZYGO7U8FM39MO1GX30UAX5FE", "dateTime": 1517257375013}, {"current_trial": 9, "trialdata": {"rt": [3680, 5988, 8324, 11040, 12908, 16504], "trial_type": "math-distractor", "key_times": [2676, 2904, 3680, 5632, 5816, 5988, 8044, 8324, 10692, 10864, 11040, 12548, 12724, 12908, 16064, 16280, 16504], "responses": ["16", "13", "7", "20", "10", "18"], "num2": [5, 1, 1, 7, 1, 6, 6], "num3": [3, 5, 2, 6, 1, 8, 7], "conditions": [18, 1200, "a", 18000], "internal_node_id": "0.0-9.0", "key_presses": [97, 102, 13, 97, 99, 13, 103, 13, 98, 96, 13, 97, 96, 13, 97, 104, 13], "trial": 0, "time_elapsed": 496640, "type": "DISTRACTOR", "trial_index": 9, "num1": [8, 7, 4, 7, 8, 4, 8]}, "uniqueid": "MTK2452:3I7DHKZYGO7U8FM39MO1GX30UAX5FE", "dateTime": 1517257394085}, {"current_trial": 10, "trialdata": {"rt": -1, "trial_type": "single-stim", "stimulus": "<p id=\"stim\">10</p>", "internal_node_id": "0.0-10.0-0.0", "time_elapsed": 499640, "key_press": -1, "trial_index": 10}, "uniqueid": "MTK2452:3I7DHKZYGO7U8FM39MO1GX30UAX5FE", "dateTime": 1517257397085}, {"current_trial": 11, "trialdata": {"rt": -1, "trial_type": "single-stim", "stimulus": "<p id=\"stim\">9</p>", "internal_node_id": "0.0-10.0-1.0", "time_elapsed": 500644, "key_press": -1, "trial_index": 11}, "uniqueid": "MTK2452:3I7DHKZYGO7U8FM39MO1GX30UAX5FE", "dateTime": 1517257398089}, {"current_trial": 12, "trialdata": {"rt": -1, "trial_type": "single-stim", "stimulus": "<p id=\"stim\">8</p>", "internal_node_id": "0.0-10.0-2.0", "time_elapsed": 501644, "key_press": -1, "trial_index": 12}, "uniqueid": "MTK2452:3I7DHKZYGO7U8FM39MO1GX30UAX5FE", "dateTime": 1517257399089}, {"current_trial": 13, "trialdata": {"rt": -1, "trial_type": "single-stim", "stimulus": "<p id=\"stim\">7</p>", "internal_node_id": "0.0-10.0-3.0", "time_elapsed": 502644, "key_press": -1, "trial_index": 13}, "uniqueid": "MTK2452:3I7DHKZYGO7U8FM39MO1GX30UAX5FE", "dateTime": 1517257400089}, {"current_trial": 14, "trialdata": {"rt": -1, "trial_type": "single-stim", "stimulus": "<p id=\"stim\">6</p>", "internal_node_id": "0.0-10.0-4.0", "time_elapsed": 503648, "key_press": -1, "trial_index": 14}, "uniqueid": "MTK2452:3I7DHKZYGO7U8FM39MO1GX30UAX5FE", "dateTime": 1517257401093}, {"current_trial": 15, "trialdata": {"rt": -1, "trial_type": "single-stim", "stimulus": "<p id=\"stim\">5</p>", "internal_node_id": "0.0-10.0-5.0", "time_elapsed": 504652, "key_press": -1, "trial_index": 15}, "uniqueid": "MTK2452:3I7DHKZYGO7U8FM39MO1GX30UAX5FE", "dateTime": 1517257402097}, {"current_trial": 16, "trialdata": {"rt": -1, "trial_type": "single-stim", "stimulus": "<p id=\"stim\">4</p>", "internal_node_id": "0.0-10.0-6.0", "time_elapsed": 505656, "key_press": -1, "trial_index": 16}, "uniqueid": "MTK2452:3I7DHKZYGO7U8FM39MO1GX30UAX5FE", "dateTime": 1517257403101}, {"current_trial": 17, "trialdata": {"rt": -1, "trial_type": "single-stim", "stimulus": "<p id=\"stim\">3</p>", "internal_node_id": "0.0-10.0-7.0", "time_elapsed": 506668, "key_press": -1, "trial_index": 17}, "uniqueid": "MTK2452:3I7DHKZYGO7U8FM39MO1GX30UAX5FE", "dateTime": 1517257404113}, {"current_trial": 18, "trialdata": {"rt": -1, "trial_type": "single-stim", "stimulus": "<p id=\"stim\">2</p>", "internal_node_id": "0.0-10.0-8.0", "time_elapsed": 507668, "key_press": -1, "trial_index": 18}, "uniqueid": "MTK2452:3I7DHKZYGO7U8FM39MO1GX30UAX5FE", "dateTime": 1517257405113}, {"current_trial": 19, "trialdata": {"rt": -1, "trial_type": "single-stim", "stimulus": "<p id=\"stim\">1</p>", "internal_node_id": "0.0-10.0-9.0", "time_elapsed": 508668, "key_press": -1, "trial_index": 19}, "uniqueid": "MTK2452:3I7DHKZYGO7U8FM39MO1GX30UAX5FE", "dateTime": 1517257406113}, {"current_trial": 20, "trialdata": {"rt": -1, "trial_type": "single-stim", "stimulus": "<p id=\"stim\">+</p>", "internal_node_id": "0.0-11.0-0.0", "time_elapsed": 510168, "key_press": -1, "type": "FIXATION", "trial_index": 20}, "uniqueid": "MTK2452:3I7DHKZYGO7U8FM39MO1GX30UAX5FE", "dateTime": 1517257407613}, {"current_trial": 21, "trialdata": {"rt": -1000, "trial_type": "single-audio", "word": "lake", "stimulus": "/static/audio/wordpool/LAKE.wav", "conditions": [18, 1200, "a", 18000], "internal_node_id": "0.0-12.0", "trial": 0, "time_elapsed": 512338, "serialpos": 0, "key_press": -1, "wordID": 795, "type": "PRES_AUD", "trial_index": 21}, "uniqueid": "MTK2452:3I7DHKZYGO7U8FM39MO1GX30UAX5FE", "dateTime": 1517257409783}, {"current_trial": 22, "trialdata": {"rt": -1000, "trial_type": "single-audio", "word": "rod", "stimulus": "/static/audio/wordpool/ROD.wav", "conditions": [18, 1200, "a", 18000], "internal_node_id": "0.0-13.0", "trial": 0, "time_elapsed": 514515, "serialpos": 1, "key_press": -1, "wordID": 1202, "type": "PRES_AUD", "trial_index": 22}, "uniqueid": "MTK2452:3I7DHKZYGO7U8FM39MO1GX30UAX5FE", "dateTime": 1517257411961}, {"current_trial": 23, "trialdata": {"rt": -1000, "trial_type": "single-audio", "word": "swamp", "stimulus": "/static/audio/wordpool/SWAMP.wav", "conditions": [18, 1200, "a", 18000], "internal_node_id": "0.0-14.0", "trial": 0, "time_elapsed": 516630, "serialpos": 2, "key_press": -1, "wordID": 1415, "type": "PRES_AUD", "trial_index": 23}, "uniqueid": "MTK2452:3I7DHKZYGO7U8FM39MO1GX30UAX5FE", "dateTime": 1517257414075}, {"current_trial": 24, "trialdata": {"rt": -1000, "trial_type": "single-audio", "word": "cobra", "stimulus": "/static/audio/wordpool/COBRA.wav", "conditions": [18, 1200, "a", 18000], "internal_node_id": "0.0-15.0", "trial": 0, "time_elapsed": 518793, "serialpos": 3, "key_press": -1, "wordID": 335, "type": "PRES_AUD", "trial_index": 24}, "uniqueid": "MTK2452:3I7DHKZYGO7U8FM39MO1GX30UAX5FE", "dateTime": 1517257416238}, {"current_trial": 25, "trialdata": {"rt": -1000, "trial_type": "single-audio", "word": "maple", "stimulus": "/static/audio/wordpool/MAPLE.wav", "conditions": [18, 1200, "a", 18000], "internal_node_id": "0.0-16.0", "trial": 0, "time_elapsed": 520845, "serialpos": 4, "key_press": -1, "wordID": 865, "type": "PRES_AUD", "trial_index": 25}, "uniqueid": "MTK2452:3I7DHKZYGO7U8FM39MO1GX30UAX5FE", "dateTime": 1517257418291}, {"current_trial": 26, "trialdata": {"rt": -1000, "trial_type": "single-audio", "word": "bullet", "stimulus": "/static/audio/wordpool/BULLET.wav", "conditions": [18, 1200, "a", 18000], "internal_node_id": "0.0-17.0", "trial": 0, "time_elapsed": 523000, "serialpos": 5, "key_press": -1, "wordID": 193, "type": "PRES_AUD", "trial_index": 26}, "uniqueid": "MTK2452:3I7DHKZYGO7U8FM39MO1GX30UAX5FE", "dateTime": 1517257420446}, {"current_trial": 27, "trialdata": {"rt": -1000, "trial_type": "single-audio", "word": "hatchet", "stimulus": "/static/audio/wordpool/HATCHET.wav", "conditions": [18, 1200, "a", 18000], "internal_node_id": "0.0-18.0", "trial": 0, "time_elapsed": 525138, "serialpos": 6, "key_press": -1, "wordID": 690, "type": "PRES_AUD", "trial_index": 27}, "uniqueid": "MTK2452:3I7DHKZYGO7U8FM39MO1GX30UAX5FE", "dateTime": 1517257422583}, {"current_trial": 28, "trialdata": {"rt": -1000, "trial_type": "single-audio", "word": "mildew", "stimulus": "/static/audio/wordpool/MILDEW.wav", "conditions": [18, 1200, "a", 18000], "internal_node_id": "0.0-19.0", "trial": 0, "time_elapsed": 527218, "serialpos": 7, "key_press": -1, "wordID": 892, "type": "PRES_AUD", "trial_index": 28}, "uniqueid": "MTK2452:3I7DHKZYGO7U8FM39MO1GX30UAX5FE", "dateTime": 1517257424663}, {"current_trial": 29, "trialdata": {"rt": -1000, "trial_type": "single-audio", "word": "lumber", "stimulus": "/static/audio/wordpool/LUMBER.wav", "conditions": [18, 1200, "a", 18000], "internal_node_id": "0.0-20.0", "trial": 0, "time_elapsed": 529259, "serialpos": 8, "key_press": -1, "wordID": 847, "type": "PRES_AUD", "trial_index": 29}, "uniqueid": "MTK2452:3I7DHKZYGO7U8FM39MO1GX30UAX5FE", "dateTime": 1517257426704}, {"current_trial": 30, "trialdata": {"rt": -1000, "trial_type": "single-audio", "word": "marsh", "stimulus": "/static/audio/wordpool/MARSH.wav", "conditions": [18, 1200, "a", 18000], "internal_node_id": "0.0-21.0", "trial": 0, "time_elapsed": 531429, "serialpos": 9, "key_press": -1, "wordID": 873, "type": "PRES_AUD", "trial_index": 30}, "uniqueid": "MTK2452:3I7DHKZYGO7U8FM39MO1GX30UAX5FE", "dateTime": 1517257428874}, {"current_trial": 31, "trialdata": {"rt": -1000, "trial_type": "single-audio", "word": "fleet", "stimulus": "/static/audio/wordpool/FLEET.wav", "conditions": [18, 1200, "a", 18000], "internal_node_id": "0.0-22.0", "trial": 0, "time_elapsed": 533629, "serialpos": 10, "key_press": -1, "wordID": 577, "type": "PRES_AUD", "trial_index": 31}, "uniqueid": "MTK2452:3I7DHKZYGO7U8FM39MO1GX30UAX5FE", "dateTime": 1517257431074}, {"current_trial": 32, "trialdata": {"rt": -1000, "trial_type": "single-audio", "word": "rug", "stimulus": "/static/audio/wordpool/RUG.wav", "conditions": [18, 1200, "a", 18000], "internal_node_id": "0.0-23.0", "trial": 0, "time_elapsed": 535986, "serialpos": 11, "key_press": -1, "wordID": 1214, "type": "PRES_AUD", "trial_index": 32}, "uniqueid": "MTK2452:3I7DHKZYGO7U8FM39MO1GX30UAX5FE", "dateTime": 1517257433431}, {"current_trial": 33, "trialdata": {"rt": -1000, "trial_type": "single-audio", "word": "japan", "stimulus": "/static/audio/wordpool/JAPAN.wav", "conditions": [18, 1200, "a", 18000], "internal_node_id": "0.0-24.0", "trial": 0, "time_elapsed": 538103, "serialpos": 12, "key_press": -1, "wordID": 748, "type": "PRES_AUD", "trial_index": 33}, "uniqueid": "MTK2452:3I7DHKZYGO7U8FM39MO1GX30UAX5FE", "dateTime": 1517257435549}, {"current_trial": 34, "trialdata": {"rt": -1000, "trial_type": "single-audio", "word": "hedge", "stimulus": "/static/audio/wordpool/HEDGE.wav", "conditions": [18, 1200, "a", 18000], "internal_node_id": "0.0-25.0", "trial": 0, "time_elapsed": 540502, "serialpos": 13, "key_press": -1, "wordID": 698, "type": "PRES_AUD", "trial_index": 34}, "uniqueid": "MTK2452:3I7DHKZYGO7U8FM39MO1GX30UAX5FE", "dateTime": 1517257437947}, {"current_trial": 35, "trialdata": {"rt": -1000, "trial_type": "single-audio", "word": "pimple", "stimulus": "/static/audio/wordpool/PIMPLE.wav", "conditions": [18, 1200, "a", 18000], "internal_node_id": "0.0-26.0", "trial": 0, "time_elapsed": 542670, "serialpos": 14, "key_press": -1, "wordID": 1070, "type": "PRES_AUD", "trial_index": 35}, "uniqueid": "MTK2452:3I7DHKZYGO7U8FM39MO1GX30UAX5FE", "dateTime": 1517257440115}, {"current_trial": 36, "trialdata": {"rt": -1000, "trial_type": "single-audio", "word": "arm", "stimulus": "/static/audio/wordpool/ARM.wav", "conditions": [18, 1200, "a", 18000], "internal_node_id": "0.0-27.0", "trial": 0, "time_elapsed": 544893, "serialpos": 15, "key_press": -1, "wordID": 37, "type": "PRES_AUD", "trial_index": 36}, "uniqueid": "MTK2452:3I7DHKZYGO7U8FM39MO1GX30UAX5FE", "dateTime": 1517257442338}, {"current_trial": 37, "trialdata": {"rt": -1000, "trial_type": "single-audio", "word": "bureau", "stimulus": "/static/audio/wordpool/BUREAU.wav", "conditions": [18, 1200, "a", 18000], "internal_node_id": "0.0-28.0", "trial": 0, "time_elapsed": 547108, "serialpos": 16, "key_press": -1, "wordID": 198, "type": "PRES_AUD", "trial_index": 37}, "uniqueid": "MTK2452:3I7DHKZYGO7U8FM39MO1GX30UAX5FE", "dateTime": 1517257444553}, {"current_trial": 38, "trialdata": {"rt": -1000, "trial_type": "single-audio", "word": "scissors", "stimulus": "/static/audio/wordpool/SCISSORS.wav", "conditions": [18, 1200, "a", 18000], "internal_node_id": "0.0-29.0", "trial": 0, "time_elapsed": 549190, "serialpos": 17, "key_press": -1, "wordID": 1249, "type": "PRES_AUD", "trial_index": 38}, "uniqueid": "MTK2452:3I7DHKZYGO7U8FM39MO1GX30UAX5FE", "dateTime": 1517257446635}, {"current_trial": 39, "trialdata": {"rt": -1, "trial_type": "single-stim", "stimulus": "", "internal_node_id": "0.0-30.0-0.0", "time_elapsed": 550504, "key_press": -1, "type": "PRE_RECALL_DELAY", "trial_index": 39}, "uniqueid": "MTK2452:3I7DHKZYGO7U8FM39MO1GX30UAX5FE", "dateTime": 1517257447949}, {"current_trial": 40, "trialdata": {"rt": -1000, "trial_type": "single-audio", "stimulus": "/static/audio/400Hz.wav", "internal_node_id": "0.0-31.0", "time_elapsed": 551005, "key_press": -1, "type": "PRE_RECALL_ALERT", "trial_index": 40}, "uniqueid": "MTK2452:3I7DHKZYGO7U8FM39MO1GX30UAX5FE", "dateTime": 1517257448450}, {"current_trial": 41, "trialdata": {"rt": [7824, 9040, 10425, 12044, 13361, 59618], "recwords": ["maple", "japan", "bullet", "hatchet", "orange", ""], "key_times": [7152, 7284, 7377, 7548, 7672, 7824, 8223, 8375, 8525, 8639, 8790, 9040, 9594, 9727, 9891, 10049, 10185, 10317, 10425, 10976, 11118, 11270, 11506, 11597, 11731, 11900, 12044, 12516, 12641, 12794, 12898, 13030, 13192, 13361, 59618], "trial_type": "free-recall", "conditions": [18, 1200, "a", 18000], "internal_node_id": "0.0-32.0-0.0", "key_presses": [77, 65, 80, 76, 69, 13, 74, 65, 80, 65, 78, 13, 66, 85, 76, 76, 69, 84, 13, 72, 65, 84, 67, 72, 69, 84, 13, 79, 82, 65, 78, 71, 69, 13, 13], "trial": 0, "time_elapsed": 611009, "type": "FREE_RECALL", "trial_index": 41}, "uniqueid": "MTK2452:3I7DHKZYGO7U8FM39MO1GX30UAX5FE", "dateTime": 1517257508458}, {"current_trial": 42, "trialdata": {"rt": 1928, "trial_type": "text", "internal_node_id": "0.0-33.0", "time_elapsed": 614941, "key_press": 13, "type": "INSTRUCTIONS", "trial_index": 42}, "uniqueid": "MTK2452:3I7DHKZYGO7U8FM39MO1GX30UAX5FE", "dateTime": 1517257512386}, {"current_trial": 43, "trialdata": {"rt": [2768, 6352, 10240, 12949, 15317], "trial_type": "math-distractor", "key_times": [2384, 2560, 2768, 5488, 5740, 6352, 9833, 10016, 10240, 12541, 12741, 12949, 14973, 15129, 15317], "responses": ["16", "17", "13", "16", "12"], "num2": [4, 3, 7, 9, 4, 7], "num3": [6, 6, 1, 3, 6, 9], "conditions": [18, 1200, "a", 18000], "internal_node_id": "0.0-34.0", "key_presses": [97, 102, 13, 97, 103, 13, 97, 99, 13, 97, 102, 13, 97, 98, 13], "trial": 1, "time_elapsed": 634942, "type": "DISTRACTOR", "trial_index": 43, "num1": [6, 8, 5, 4, 2, 8]}, "uniqueid": "MTK2452:3I7DHKZYGO7U8FM39MO1GX30UAX5FE", "dateTime": 1517257532387}, {"current_trial": 44, "trialdata": {"rt": -1, "trial_type": "single-stim", "stimulus": "<p id=\"stim\">10</p>", "internal_node_id": "0.0-35.0-0.0", "time_elapsed": 637946, "key_press": -1, "trial_index": 44}, "uniqueid": "MTK2452:3I7DHKZYGO7U8FM39MO1GX30UAX5FE", "dateTime": 1517257535391}, {"current_trial": 45, "trialdata": {"rt": -1, "trial_type": "single-stim", "stimulus": "<p id=\"stim\">9</p>", "internal_node_id": "0.0-35.0-1.0", "time_elapsed": 638950, "key_press": -1, "trial_index": 45}, "uniqueid": "MTK2452:3I7DHKZYGO7U8FM39MO1GX30UAX5FE", "dateTime": 1517257536395}, {"current_trial": 46, "trialdata": {"rt": -1, "trial_type": "single-stim", "stimulus": "<p id=\"stim\">8</p>", "internal_node_id": "0.0-35.0-2.0", "time_elapsed": 639950, "key_press": -1, "trial_index": 46}, "uniqueid": "MTK2452:3I7DHKZYGO7U8FM39MO1GX30UAX5FE", "dateTime": 1517257537395}, {"current_trial": 47, "trialdata": {"rt": -1, "trial_type": "single-stim", "stimulus": "<p id=\"stim\">7</p>", "internal_node_id": "0.0-35.0-3.0", "time_elapsed": 640950, "key_press": -1, "trial_index": 47}, "uniqueid": "MTK2452:3I7DHKZYGO7U8FM39MO1GX30UAX5FE", "dateTime": 1517257538395}, {"current_trial": 48, "trialdata": {"rt": -1, "trial_type": "single-stim", "stimulus": "<p id=\"stim\">6</p>", "internal_node_id": "0.0-35.0-4.0", "time_elapsed": 641950, "key_press": -1, "trial_index": 48}, "uniqueid": "MTK2452:3I7DHKZYGO7U8FM39MO1GX30UAX5FE", "dateTime": 1517257539395}, {"current_trial": 49, "trialdata": {"rt": -1, "trial_type": "single-stim", "stimulus": "<p id=\"stim\">5</p>", "internal_node_id": "0.0-35.0-5.0", "time_elapsed": 642954, "key_press": -1, "trial_index": 49}, "uniqueid": "MTK2452:3I7DHKZYGO7U8FM39MO1GX30UAX5FE", "dateTime": 1517257540399}, {"current_trial": 50, "trialdata": {"rt": 684, "trial_type": "single-stim", "stimulus": "<p id=\"stim\">4</p>", "internal_node_id": "0.0-35.0-6.0", "time_elapsed": 643958, "key_press": 13, "trial_index": 50}, "uniqueid": "MTK2452:3I7DHKZYGO7U8FM39MO1GX30UAX5FE", "dateTime": 1517257541403}, {"current_trial": 51, "trialdata": {"rt": -1, "trial_type": "single-stim", "stimulus": "<p id=\"stim\">3</p>", "internal_node_id": "0.0-35.0-7.0", "time_elapsed": 644958, "key_press": -1, "trial_index": 51}, "uniqueid": "MTK2452:3I7DHKZYGO7U8FM39MO1GX30UAX5FE", "dateTime": 1517257542403}, {"current_trial": 52, "trialdata": {"rt": -1, "trial_type": "single-stim", "stimulus": "<p id=\"stim\">2</p>", "internal_node_id": "0.0-35.0-8.0", "time_elapsed": 645958, "key_press": -1, "trial_index": 52}, "uniqueid": "MTK2452:3I7DHKZYGO7U8FM39MO1GX30UAX5FE", "dateTime": 1517257543403}, {"current_trial": 53, "trialdata": {"rt": -1, "trial_type": "single-stim", "stimulus": "<p id=\"stim\">1</p>", "internal_node_id": "0.0-35.0-9.0", "time_elapsed": 646958, "key_press": -1, "trial_index": 53}, "uniqueid": "MTK2452:3I7DHKZYGO7U8FM39MO1GX30UAX5FE", "dateTime": 1517257544403}, {"current_trial": 54, "trialdata": {"rt": -1, "trial_type": "single-stim", "stimulus": "<p id=\"stim\">+</p>", "internal_node_id": "0.0-36.0-0.0", "time_elapsed": 648458, "key_press": -1, "type": "FIXATION", "trial_index": 54}, "uniqueid": "MTK2452:3I7DHKZYGO7U8FM39MO1GX30UAX5FE", "dateTime": 1517257545903}, {"current_trial": 55, "trialdata": {"rt": -1000, "trial_type": "single-audio", "word": "puppy", "stimulus": "/static/audio/wordpool/PUPPY.wav", "conditions": [18, 1200, "a", 18000], "internal_node_id": "0.0-37.0", "trial": 1, "time_elapsed": 650826, "serialpos": 0, "key_press": -1, "wordID": 1143, "type": "PRES_AUD", "trial_index": 55}, "uniqueid": "MTK2452:3I7DHKZYGO7U8FM39MO1GX30UAX5FE", "dateTime": 1517257548272}, {"current_trial": 56, "trialdata": {"rt": -1000, "trial_type": "single-audio", "word": "county", "stimulus": "/static/audio/wordpool/COUNTY.wav", "conditions": [18, 1200, "a", 18000], "internal_node_id": "0.0-38.0", "trial": 1, "time_elapsed": 652891, "serialpos": 1, "key_press": -1, "wordID": 388, "type": "PRES_AUD", "trial_index": 56}, "uniqueid": "MTK2452:3I7DHKZYGO7U8FM39MO1GX30UAX5FE", "dateTime": 1517257550337}, {"current_trial": 57, "trialdata": {"rt": -1000, "trial_type": "single-audio", "word": "victim", "stimulus": "/static/audio/wordpool/VICTIM.wav", "conditions": [18, 1200, "a", 18000], "internal_node_id": "0.0-39.0", "trial": 1, "time_elapsed": 654920, "serialpos": 2, "key_press": -1, "wordID": 1561, "type": "PRES_AUD", "trial_index": 57}, "uniqueid": "MTK2452:3I7DHKZYGO7U8FM39MO1GX30UAX5FE", "dateTime": 1517257552365}, {"current_trial": 58, "trialdata": {"rt": -1000, "trial_type": "single-audio", "word": "seafood", "stimulus": "/static/audio/wordpool/SEAFOOD.wav", "conditions": [18, 1200, "a", 18000], "internal_node_id": "0.0-40.0", "trial": 1, "time_elapsed": 657254, "serialpos": 3, "key_press": -1, "wordID": 1259, "type": "PRES_AUD", "trial_index": 58}, "uniqueid": "MTK2452:3I7DHKZYGO7U8FM39MO1GX30UAX5FE", "dateTime": 1517257554700}, {"current_trial": 59, "trialdata": {"rt": -1000, "trial_type": "single-audio", "word": "skillet", "stimulus": "/static/audio/wordpool/SKILLET.wav", "conditions": [18, 1200, "a", 18000], "internal_node_id": "0.0-41.0", "trial": 1, "time_elapsed": 659532, "serialpos": 4, "key_press": -1, "wordID": 1316, "type": "PRES_AUD", "trial_index": 59}, "uniqueid": "MTK2452:3I7DHKZYGO7U8FM39MO1GX30UAX5FE", "dateTime": 1517257556977}, {"current_trial": 60, "trialdata": {"rt": -1000, "trial_type": "single-audio", "word": "football", "stimulus": "/static/audio/wordpool/FOOTBALL.wav", "conditions": [18, 1200, "a", 18000], "internal_node_id": "0.0-42.0", "trial": 1, "time_elapsed": 661549, "serialpos": 5, "key_press": -1, "wordID": 590, "type": "PRES_AUD", "trial_index": 60}, "uniqueid": "MTK2452:3I7DHKZYGO7U8FM39MO1GX30UAX5FE", "dateTime": 1517257558994}, {"current_trial": 61, "trialdata": {"rt": -1000, "trial_type": "single-audio", "word": "ghetto", "stimulus": "/static/audio/wordpool/GHETTO.wav", "conditions": [18, 1200, "a", 18000], "internal_node_id": "0.0-43.0", "trial": 1, "time_elapsed": 663625, "serialpos": 6, "key_press": -1, "wordID": 632, "type": "PRES_AUD", "trial_index": 61}, "uniqueid": "MTK2452:3I7DHKZYGO7U8FM39MO1GX30UAX5FE", "dateTime": 1517257561071}, {"current_trial": 62, "trialdata": {"rt": -1000, "trial_type": "single-audio", "word": "hood", "stimulus": "/static/audio/wordpool/HOOD.wav", "conditions": [18, 1200, "a", 18000], "internal_node_id": "0.0-44.0", "trial": 1, "time_elapsed": 665748, "serialpos": 7, "key_press": -1, "wordID": 713, "type": "PRES_AUD", "trial_index": 62}, "uniqueid": "MTK2452:3I7DHKZYGO7U8FM39MO1GX30UAX5FE", "dateTime": 1517257563193}, {"current_trial": 63, "trialdata": {"rt": -1000, "trial_type": "single-audio", "word": "lava", "stimulus": "/static/audio/wordpool/LAVA.wav", "conditions": [18, 1200, "a", 18000], "internal_node_id": "0.0-45.0", "trial": 1, "time_elapsed": 667968, "serialpos": 8, "key_press": -1, "wordID": 803, "type": "PRES_AUD", "trial_index": 63}, "uniqueid": "MTK2452:3I7DHKZYGO7U8FM39MO1GX30UAX5FE", "dateTime": 1517257565413}, {"current_trial": 64, "trialdata": {"rt": -1000, "trial_type": "single-audio", "word": "blueprint", "stimulus": "/static/audio/wordpool/BLUEPRINT.wav", "conditions": [18, 1200, "a", 18000], "internal_node_id": "0.0-46.0", "trial": 1, "time_elapsed": 670375, "serialpos": 9, "key_press": -1, "wordID": 141, "type": "PRES_AUD", "trial_index": 64}, "uniqueid": "MTK2452:3I7DHKZYGO7U8FM39MO1GX30UAX5FE", "dateTime": 1517257567820}, {"current_trial": 65, "trialdata": {"rt": -1000, "trial_type": "single-audio", "word": "panther", "stimulus": "/static/audio/wordpool/PANTHER.wav", "conditions": [18, 1200, "a", 18000], "internal_node_id": "0.0-47.0", "trial": 1, "time_elapsed": 672424, "serialpos": 10, "key_press": -1, "wordID": 1008, "type": "PRES_AUD", "trial_index": 65}, "uniqueid": "MTK2452:3I7DHKZYGO7U8FM39MO1GX30UAX5FE", "dateTime": 1517257569870}, {"current_trial": 66, "trialdata": {"rt": -1000, "trial_type": "single-audio", "word": "taxi", "stimulus": "/static/audio/wordpool/TAXI.wav", "conditions": [18, 1200, "a", 18000], "internal_node_id": "0.0-48.0", "trial": 1, "time_elapsed": 674471, "serialpos": 11, "key_press": -1, "wordID": 1437, "type": "PRES_AUD", "trial_index": 66}, "uniqueid": "MTK2452:3I7DHKZYGO7U8FM39MO1GX30UAX5FE", "dateTime": 1517257571916}, {"current_trial": 67, "trialdata": {"rt": -1000, "trial_type": "single-audio", "word": "juggler", "stimulus": "/static/audio/wordpool/JUGGLER.wav", "conditions": [18, 1200, "a", 18000], "internal_node_id": "0.0-49.0", "trial": 1, "time_elapsed": 676546, "serialpos": 12, "key_press": -1, "wordID": 762, "type": "PRES_AUD", "trial_index": 67}, "uniqueid": "MTK2452:3I7DHKZYGO7U8FM39MO1GX30UAX5FE", "dateTime": 1517257573991}, {"current_trial": 68, "trialdata": {"rt": -1000, "trial_type": "single-audio", "word": "whiskers", "stimulus": "/static/audio/wordpool/WHISKERS.wav", "conditions": [18, 1200, "a", 18000], "internal_node_id": "0.0-50.0", "trial": 1, "time_elapsed": 678672, "serialpos": 13, "key_press": -1, "wordID": 1604, "type": "PRES_AUD", "trial_index": 68}, "uniqueid": "MTK2452:3I7DHKZYGO7U8FM39MO1GX30UAX5FE", "dateTime": 1517257576120}, {"current_trial": 69, "trialdata": {"rt": -1000, "trial_type": "single-audio", "word": "sponge", "stimulus": "/static/audio/wordpool/SPONGE.wav", "conditions": [18, 1200, "a", 18000], "internal_node_id": "0.0-51.0", "trial": 1, "time_elapsed": 681076, "serialpos": 14, "key_press": -1, "wordID": 1354, "type": "PRES_AUD", "trial_index": 69}, "uniqueid": "MTK2452:3I7DHKZYGO7U8FM39MO1GX30UAX5FE", "dateTime": 1517257578521}, {"current_trial": 70, "trialdata": {"rt": -1000, "trial_type": "single-audio", "word": "chipmunk", "stimulus": "/static/audio/wordpool/CHIPMUNK.wav", "conditions": [18, 1200, "a", 18000], "internal_node_id": "0.0-52.0", "trial": 1, "time_elapsed": 683106, "serialpos": 15, "key_press": -1, "wordID": 303, "type": "PRES_AUD", "trial_index": 70}, "uniqueid": "MTK2452:3I7DHKZYGO7U8FM39MO1GX30UAX5FE", "dateTime": 1517257580551}, {"current_trial": 71, "trialdata": {"rt": -1000, "trial_type": "single-audio", "word": "tart", "stimulus": "/static/audio/wordpool/TART.wav", "conditions": [18, 1200, "a", 18000], "internal_node_id": "0.0-53.0", "trial": 1, "time_elapsed": 685410, "serialpos": 16, "key_press": -1, "wordID": 1435, "type": "PRES_AUD", "trial_index": 71}, "uniqueid": "MTK2452:3I7DHKZYGO7U8FM39MO1GX30UAX5FE", "dateTime": 1517257582856}, {"current_trial": 72, "trialdata": {"rt": -1000, "trial_type": "single-audio", "word": "suitcase", "stimulus": "/static/audio/wordpool/SUITCASE.wav", "conditions": [18, 1200, "a", 18000], "internal_node_id": "0.0-54.0", "trial": 1, "time_elapsed": 687518, "serialpos": 17, "key_press": -1, "wordID": 1402, "type": "PRES_AUD", "trial_index": 72}, "uniqueid": "MTK2452:3I7DHKZYGO7U8FM39MO1GX30UAX5FE", "dateTime": 1517257584963}, {"current_trial": 73, "trialdata": {"rt": -1, "trial_type": "single-stim", "stimulus": "", "internal_node_id": "0.0-55.0-0.0", "time_elapsed": 688899, "key_press": -1, "type": "PRE_RECALL_DELAY", "trial_index": 73}, "uniqueid": "MTK2452:3I7DHKZYGO7U8FM39MO1GX30UAX5FE", "dateTime": 1517257586344}, {"current_trial": 74, "trialdata": {"rt": -1000, "trial_type": "single-audio", "stimulus": "/static/audio/400Hz.wav", "internal_node_id": "0.0-56.0", "time_elapsed": 689406, "key_press": -1, "type": "PRE_RECALL_ALERT", "trial_index": 74}, "uniqueid": "MTK2452:3I7DHKZYGO7U8FM39MO1GX30UAX5FE", "dateTime": 1517257586851}, {"current_trial": 75, "trialdata": {"rt": [10522, 12942, 14332, 16669, 18088, 19166], "recwords": ["puppy", "county", "victim", "hood", "ghetto", "tart"], "key_times": [9578, 9766, 9973, 10103, 10264, 10522, 10880, 11061, 11144, 11353, 11368, 11928, 12094, 12384, 12579, 12690, 12942, 13298, 13483, 13608, 13867, 13954, 14036, 14332, 15930, 16207, 16341, 16490, 16669, 17041, 17286, 17419, 17577, 17747, 17816, 18088, 18463, 18586, 18728, 18912, 19166], "trial_type": "free-recall", "conditions": [18, 1200, "a", 18000], "internal_node_id": "0.0-57.0-0.0", "key_presses": [80, 85, 80, 80, 89, 13, 67, 79, 85, 84, 78, 8, 8, 78, 84, 89, 13, 86, 73, 67, 84, 73, 77, 13, 72, 79, 79, 68, 13, 71, 72, 69, 84, 84, 79, 13, 84, 65, 82, 84, 13], "trial": 1, "time_elapsed": 749409, "type": "FREE_RECALL", "trial_index": 75}, "uniqueid": "MTK2452:3I7DHKZYGO7U8FM39MO1GX30UAX5FE", "dateTime": 1517257646857}, {"current_trial": 76, "trialdata": {"rt": 3198, "trial_type": "text", "internal_node_id": "0.0-58.0", "time_elapsed": 754612, "key_press": 13, "type": "INSTRUCTIONS", "trial_index": 76}, "uniqueid": "MTK2452:3I7DHKZYGO7U8FM39MO1GX30UAX5FE", "dateTime": 1517257652057}, {"current_trial": 77, "trialdata": {"rt": [2402, 4805, 6543, 8704, 10738], "trial_type": "math-distractor", "key_times": [2008, 2155, 2402, 4358, 4547, 4805, 6255, 6543, 8310, 8487, 8704, 10396, 10738], "responses": ["22", "15", "5", "12", "8"], "num2": [9, 9, 2, 5, 3, 7], "num3": [9, 4, 1, 6, 2, 6], "conditions": [12, 800, "a", 12000], "internal_node_id": "0.0-59.0", "key_presses": [98, 98, 13, 97, 101, 13, 101, 13, 97, 98, 13, 104, 13], "trial": 2, "time_elapsed": 767617, "type": "DISTRACTOR", "trial_index": 77, "num1": [4, 2, 2, 1, 3, 4]}, "uniqueid": "MTK2452:3I7DHKZYGO7U8FM39MO1GX30UAX5FE", "dateTime": 1517257665062}, {"current_trial": 78, "trialdata": {"rt": -1, "trial_type": "single-stim", "stimulus": "<p id=\"stim\">10</p>", "internal_node_id": "0.0-60.0-0.0", "time_elapsed": 770618, "key_press": -1, "trial_index": 78}, "uniqueid": "MTK2452:3I7DHKZYGO7U8FM39MO1GX30UAX5FE", "dateTime": 1517257668063}, {"current_trial": 79, "trialdata": {"rt": -1, "trial_type": "single-stim", "stimulus": "<p id=\"stim\">9</p>", "internal_node_id": "0.0-60.0-1.0", "time_elapsed": 771620, "key_press": -1, "trial_index": 79}, "uniqueid": "MTK2452:3I7DHKZYGO7U8FM39MO1GX30UAX5FE", "dateTime": 1517257669065}, {"current_trial": 80, "trialdata": {"rt": -1, "trial_type": "single-stim", "stimulus": "<p id=\"stim\">8</p>", "internal_node_id": "0.0-60.0-2.0", "time_elapsed": 772621, "key_press": -1, "trial_index": 80}, "uniqueid": "MTK2452:3I7DHKZYGO7U8FM39MO1GX30UAX5FE", "dateTime": 1517257670066}, {"current_trial": 81, "trialdata": {"rt": -1, "trial_type": "single-stim", "stimulus": "<p id=\"stim\">7</p>", "internal_node_id": "0.0-60.0-3.0", "time_elapsed": 773622, "key_press": -1, "trial_index": 81}, "uniqueid": "MTK2452:3I7DHKZYGO7U8FM39MO1GX30UAX5FE", "dateTime": 1517257671067}, {"current_trial": 82, "trialdata": {"rt": -1, "trial_type": "single-stim", "stimulus": "<p id=\"stim\">6</p>", "internal_node_id": "0.0-60.0-4.0", "time_elapsed": 774623, "key_press": -1, "trial_index": 82}, "uniqueid": "MTK2452:3I7DHKZYGO7U8FM39MO1GX30UAX5FE", "dateTime": 1517257672068}, {"current_trial": 83, "trialdata": {"rt": -1, "trial_type": "single-stim", "stimulus": "<p id=\"stim\">5</p>", "internal_node_id": "0.0-60.0-5.0", "time_elapsed": 775624, "key_press": -1, "trial_index": 83}, "uniqueid": "MTK2452:3I7DHKZYGO7U8FM39MO1GX30UAX5FE", "dateTime": 1517257673069}, {"current_trial": 84, "trialdata": {"rt": -1, "trial_type": "single-stim", "stimulus": "<p id=\"stim\">4</p>", "internal_node_id": "0.0-60.0-6.0", "time_elapsed": 776625, "key_press": -1, "trial_index": 84}, "uniqueid": "MTK2452:3I7DHKZYGO7U8FM39MO1GX30UAX5FE", "dateTime": 1517257674070}, {"current_trial": 85, "trialdata": {"rt": -1, "trial_type": "single-stim", "stimulus": "<p id=\"stim\">3</p>", "internal_node_id": "0.0-60.0-7.0", "time_elapsed": 777626, "key_press": -1, "trial_index": 85}, "uniqueid": "MTK2452:3I7DHKZYGO7U8FM39MO1GX30UAX5FE", "dateTime": 1517257675071}, {"current_trial": 86, "trialdata": {"rt": -1, "trial_type": "single-stim", "stimulus": "<p id=\"stim\">2</p>", "internal_node_id": "0.0-60.0-8.0", "time_elapsed": 778627, "key_press": -1, "trial_index": 86}, "uniqueid": "MTK2452:3I7DHKZYGO7U8FM39MO1GX30UAX5FE", "dateTime": 1517257676072}, {"current_trial": 87, "trialdata": {"rt": -1, "trial_type": "single-stim", "stimulus": "<p id=\"stim\">1</p>", "internal_node_id": "0.0-60.0-9.0", "time_elapsed": 779628, "key_press": -1, "trial_index": 87}, "uniqueid": "MTK2452:3I7DHKZYGO7U8FM39MO1GX30UAX5FE", "dateTime": 1517257677073}, {"current_trial": 88, "trialdata": {"rt": -1, "trial_type": "single-stim", "stimulus": "<p id=\"stim\">+</p>", "internal_node_id": "0.0-61.0-0.0", "time_elapsed": 781130, "key_press": -1, "type": "FIXATION", "trial_index": 88}, "uniqueid": "MTK2452:3I7DHKZYGO7U8FM39MO1GX30UAX5FE", "dateTime": 1517257678575}, {"current_trial": 89, "trialdata": {"rt": -1000, "trial_type": "single-audio", "word": "nomad", "stimulus": "/static/audio/wordpool/NOMAD.wav", "conditions": [12, 800, "a", 12000], "internal_node_id": "0.0-62.0", "trial": 2, "time_elapsed": 782779, "serialpos": 0, "key_press": -1, "wordID": 954, "type": "PRES_AUD", "trial_index": 89}, "uniqueid": "MTK2452:3I7DHKZYGO7U8FM39MO1GX30UAX5FE", "dateTime": 1517257680225}, {"current_trial": 90, "trialdata": {"rt": -1000, "trial_type": "single-audio", "word": "teacher", "stimulus": "/static/audio/wordpool/TEACHER.wav", "conditions": [12, 800, "a", 12000], "internal_node_id": "0.0-63.0", "trial": 2, "time_elapsed": 784635, "serialpos": 1, "key_press": -1, "wordID": 1439, "type": "PRES_AUD", "trial_index": 90}, "uniqueid": "MTK2452:3I7DHKZYGO7U8FM39MO1GX30UAX5FE", "dateTime": 1517257682080}, {"current_trial": 91, "trialdata": {"rt": -1000, "trial_type": "single-audio", "word": "marker", "stimulus": "/static/audio/wordpool/MARKER.wav", "conditions": [12, 800, "a", 12000], "internal_node_id": "0.0-64.0", "trial": 2, "time_elapsed": 786584, "serialpos": 2, "key_press": -1, "wordID": 869, "type": "PRES_AUD", "trial_index": 91}, "uniqueid": "MTK2452:3I7DHKZYGO7U8FM39MO1GX30UAX5FE", "dateTime": 1517257684030}, {"current_trial": 92, "trialdata": {"rt": -1000, "trial_type": "single-audio", "word": "nurse", "stimulus": "/static/audio/wordpool/NURSE.wav", "conditions": [12, 800, "a", 12000], "internal_node_id": "0.0-65.0", "trial": 2, "time_elapsed": 788463, "serialpos": 3, "key_press": -1, "wordID": 962, "type": "PRES_AUD", "trial_index": 92}, "uniqueid": "MTK2452:3I7DHKZYGO7U8FM39MO1GX30UAX5FE", "dateTime": 1517257685908}, {"current_trial": 93, "trialdata": {"rt": -1000, "trial_type": "single-audio", "word": "blouse", "stimulus": "/static/audio/wordpool/BLOUSE.wav", "conditions": [12, 800, "a", 12000], "internal_node_id": "0.0-66.0", "trial": 2, "time_elapsed": 790403, "serialpos": 4, "key_press": -1, "wordID": 138, "type": "PRES_AUD", "trial_index": 93}, "uniqueid": "MTK2452:3I7DHKZYGO7U8FM39MO1GX30UAX5FE", "dateTime": 1517257687848}, {"current_trial": 94, "trialdata": {"rt": -1000, "trial_type": "single-audio", "word": "viking", "stimulus": "/static/audio/wordpool/VIKING.wav", "conditions": [12, 800, "a", 12000], "internal_node_id": "0.0-67.0", "trial": 2, "time_elapsed": 792107, "serialpos": 5, "key_press": -1, "wordID": 1564, "type": "PRES_AUD", "trial_index": 94}, "uniqueid": "MTK2452:3I7DHKZYGO7U8FM39MO1GX30UAX5FE", "dateTime": 1517257689552}, {"current_trial": 95, "trialdata": {"rt": -1000, "trial_type": "single-audio", "word": "bank", "stimulus": "/static/audio/wordpool/BANK.wav", "conditions": [12, 800, "a", 12000], "internal_node_id": "0.0-68.0", "trial": 2, "time_elapsed": 793861, "serialpos": 6, "key_press": -1, "wordID": 82, "type": "PRES_AUD", "trial_index": 95}, "uniqueid": "MTK2452:3I7DHKZYGO7U8FM39MO1GX30UAX5FE", "dateTime": 1517257691306}, {"current_trial": 96, "trialdata": {"rt": -1000, "trial_type": "single-audio", "word": "woman", "stimulus": "/static/audio/wordpool/WOMAN.wav", "conditions": [12, 800, "a", 12000], "internal_node_id": "0.0-69.0", "trial": 2, "time_elapsed": 795512, "serialpos": 7, "key_press": -1, "wordID": 1619, "type": "PRES_AUD", "trial_index": 96}, "uniqueid": "MTK2452:3I7DHKZYGO7U8FM39MO1GX30UAX5FE", "dateTime": 1517257692957}, {"current_trial": 97, "trialdata": {"rt": -1000, "trial_type": "single-audio", "word": "nightgown", "stimulus": "/static/audio/wordpool/NIGHTGOWN.wav", "conditions": [12, 800, "a", 12000], "internal_node_id": "0.0-70.0", "trial": 2, "time_elapsed": 797206, "serialpos": 8, "key_press": -1, "wordID": 952, "type": "PRES_AUD", "trial_index": 97}, "uniqueid": "MTK2452:3I7DHKZYGO7U8FM39MO1GX30UAX5FE", "dateTime": 1517257694652}, {"current_trial": 98, "trialdata": {"rt": -1000, "trial_type": "single-audio", "word": "bacon", "stimulus": "/static/audio/wordpool/BACON.wav", "conditions": [12, 800, "a", 12000], "internal_node_id": "0.0-71.0", "trial": 2, "time_elapsed": 799088, "serialpos": 9, "key_press": -1, "wordID": 66, "type": "PRES_AUD", "trial_index": 98}, "uniqueid": "MTK2452:3I7DHKZYGO7U8FM39MO1GX30UAX5FE", "dateTime": 1517257696533}, {"current_trial": 99, "trialdata": {"rt": -1000, "trial_type": "single-audio", "word": "peach", "stimulus": "/static/audio/wordpool/PEACH.wav", "conditions": [12, 800, "a", 12000], "internal_node_id": "0.0-72.0", "trial": 2, "time_elapsed": 800866, "serialpos": 10, "key_press": -1, "wordID": 1030, "type": "PRES_AUD", "trial_index": 99}, "uniqueid": "MTK2452:3I7DHKZYGO7U8FM39MO1GX30UAX5FE", "dateTime": 1517257698311}, {"current_trial": 100, "trialdata": {"rt": -1000, "trial_type": "single-audio", "word": "apple", "stimulus": "/static/audio/wordpool/APPLE.wav", "conditions": [12, 800, "a", 12000], "internal_node_id": "0.0-73.0", "trial": 2, "time_elapsed": 802531, "serialpos": 11, "key_press": -1, "wordID": 32, "type": "PRES_AUD", "trial_index": 100}, "uniqueid": "MTK2452:3I7DHKZYGO7U8FM39MO1GX30UAX5FE", "dateTime": 1517257699976}, {"current_trial": 101, "trialdata": {"rt": -1, "trial_type": "single-stim", "stimulus": "", "internal_node_id": "0.0-74.0-0.0", "time_elapsed": 803740, "key_press": -1, "type": "PRE_RECALL_DELAY", "trial_index": 101}, "uniqueid": "MTK2452:3I7DHKZYGO7U8FM39MO1GX30UAX5FE", "dateTime": 1517257701185}, {"current_trial": 102, "trialdata": {"rt": -1000, "trial_type": "single-audio", "stimulus": "/static/audio/400Hz.wav", "internal_node_id": "0.0-75.0", "time_elapsed": 804241, "key_press": -1, "type": "PRE_RECALL_ALERT", "trial_index": 102}, "uniqueid": "MTK2452:3I7DHKZYGO7U8FM39MO1GX30UAX5FE", "dateTime": 1517257701686}, {"current_trial": 103, "trialdata": {"rt": [5596, 8214, 9437, 11086, 17245, 20589], "recwords": ["peach", "apple", "nomad", "teacher", "viking", "icecream"], "key_times": [4871, 5055, 5142, 5325, 5409, 5596, 5975, 6113, 6482, 6879, 7362, 7899, 8079, 8214, 8528, 8646, 8855, 8980, 9177, 9437, 10181, 10290, 10393, 10557, 10685, 10818, 10902, 11086, 16377, 16514, 16709, 16893, 16939, 17036, 17245, 18130, 18329, 18516, 19789, 20070, 20125, 20230, 20340, 20589], "trial_type": "free-recall", "conditions": [12, 800, "a", 12000], "internal_node_id": "0.0-76.0-0.0", "key_presses": [80, 69, 65, 67, 72, 13, 65, 80, 80, 69, 8, 76, 69, 13, 78, 79, 77, 65, 68, 13, 84, 69, 65, 67, 72, 69, 82, 13, 86, 73, 75, 73, 78, 71, 13, 73, 67, 69, 67, 82, 69, 65, 77, 13], "trial": 2, "time_elapsed": 864244, "type": "FREE_RECALL", "trial_index": 103}, "uniqueid": "MTK2452:3I7DHKZYGO7U8FM39MO1GX30UAX5FE", "dateTime": 1517257761692}, {"current_trial": 104, "trialdata": {"rt": 3717, "trial_type": "text", "internal_node_id": "0.0-77.0", "time_elapsed": 869965, "key_press": 13, "type": "INSTRUCTIONS", "trial_index": 104}, "uniqueid": "MTK2452:3I7DHKZYGO7U8FM39MO1GX30UAX5FE", "dateTime": 1517257767410}, {"current_trial": 105, "trialdata": {"rt": [2843, 6034, 8847, 10747], "trial_type": "math-distractor", "key_times": [2418, 2626, 2843, 5582, 5797, 6034, 8291, 8492, 8847, 10313, 10490, 10747], "responses": ["13", "15", "22", "21"], "num2": [7, 5, 4, 7, 2], "num3": [5, 4, 9, 7, 2], "conditions": [12, 800, "a", 12000], "internal_node_id": "0.0-78.0", "key_presses": [97, 99, 13, 97, 101, 13, 98, 98, 13, 98, 97, 13], "trial": 3, "time_elapsed": 883969, "type": "DISTRACTOR", "trial_index": 105, "num1": [1, 6, 9, 7, 4]}, "uniqueid": "MTK2452:3I7DHKZYGO7U8FM39MO1GX30UAX5FE", "dateTime": 1517257781414}, {"current_trial": 106, "trialdata": {"rt": -1, "trial_type": "single-stim", "stimulus": "<p id=\"stim\">10</p>", "internal_node_id": "0.0-79.0-0.0", "time_elapsed": 886970, "key_press": -1, "trial_index": 106}, "uniqueid": "MTK2452:3I7DHKZYGO7U8FM39MO1GX30UAX5FE", "dateTime": 1517257784415}, {"current_trial": 107, "trialdata": {"rt": -1, "trial_type": "single-stim", "stimulus": "<p id=\"stim\">9</p>", "internal_node_id": "0.0-79.0-1.0", "time_elapsed": 887970, "key_press": -1, "trial_index": 107}, "uniqueid": "MTK2452:3I7DHKZYGO7U8FM39MO1GX30UAX5FE", "dateTime": 1517257785416}, {"current_trial": 108, "trialdata": {"rt": -1, "trial_type": "single-stim", "stimulus": "<p id=\"stim\">8</p>", "internal_node_id": "0.0-79.0-2.0", "time_elapsed": 888971, "key_press": -1, "trial_index": 108}, "uniqueid": "MTK2452:3I7DHKZYGO7U8FM39MO1GX30UAX5FE", "dateTime": 1517257786417}, {"current_trial": 109, "trialdata": {"rt": -1, "trial_type": "single-stim", "stimulus": "<p id=\"stim\">7</p>", "internal_node_id": "0.0-79.0-3.0", "time_elapsed": 889972, "key_press": -1, "trial_index": 109}, "uniqueid": "MTK2452:3I7DHKZYGO7U8FM39MO1GX30UAX5FE", "dateTime": 1517257787418}, {"current_trial": 110, "trialdata": {"rt": -1, "trial_type": "single-stim", "stimulus": "<p id=\"stim\">6</p>", "internal_node_id": "0.0-79.0-4.0", "time_elapsed": 890973, "key_press": -1, "trial_index": 110}, "uniqueid": "MTK2452:3I7DHKZYGO7U8FM39MO1GX30UAX5FE", "dateTime": 1517257788419}, {"current_trial": 111, "trialdata": {"rt": -1, "trial_type": "single-stim", "stimulus": "<p id=\"stim\">5</p>", "internal_node_id": "0.0-79.0-5.0", "time_elapsed": 891978, "key_press": -1, "trial_index": 111}, "uniqueid": "MTK2452:3I7DHKZYGO7U8FM39MO1GX30UAX5FE", "dateTime": 1517257789423}, {"current_trial": 112, "trialdata": {"rt": -1, "trial_type": "single-stim", "stimulus": "<p id=\"stim\">4</p>", "internal_node_id": "0.0-79.0-6.0", "time_elapsed": 892979, "key_press": -1, "trial_index": 112}, "uniqueid": "MTK2452:3I7DHKZYGO7U8FM39MO1GX30UAX5FE", "dateTime": 1517257790425}, {"current_trial": 113, "trialdata": {"rt": -1, "trial_type": "single-stim", "stimulus": "<p id=\"stim\">3</p>", "internal_node_id": "0.0-79.0-7.0", "time_elapsed": 893981, "key_press": -1, "trial_index": 113}, "uniqueid": "MTK2452:3I7DHKZYGO7U8FM39MO1GX30UAX5FE", "dateTime": 1517257791426}, {"current_trial": 114, "trialdata": {"rt": -1, "trial_type": "single-stim", "stimulus": "<p id=\"stim\">2</p>", "internal_node_id": "0.0-79.0-8.0", "time_elapsed": 894982, "key_press": -1, "trial_index": 114}, "uniqueid": "MTK2452:3I7DHKZYGO7U8FM39MO1GX30UAX5FE", "dateTime": 1517257792427}, {"current_trial": 115, "trialdata": {"rt": -1, "trial_type": "single-stim", "stimulus": "<p id=\"stim\">1</p>", "internal_node_id": "0.0-79.0-9.0", "time_elapsed": 895982, "key_press": -1, "trial_index": 115}, "uniqueid": "MTK2452:3I7DHKZYGO7U8FM39MO1GX30UAX5FE", "dateTime": 1517257793428}, {"current_trial": 116, "trialdata": {"rt": -1, "trial_type": "single-stim", "stimulus": "<p id=\"stim\">+</p>", "internal_node_id": "0.0-80.0-0.0", "time_elapsed": 897483, "key_press": -1, "type": "FIXATION", "trial_index": 116}, "uniqueid": "MTK2452:3I7DHKZYGO7U8FM39MO1GX30UAX5FE", "dateTime": 1517257794929}, {"current_trial": 117, "trialdata": {"rt": -1000, "trial_type": "single-audio", "word": "carrot", "stimulus": "/static/audio/wordpool/CARROT.wav", "conditions": [12, 800, "a", 12000], "internal_node_id": "0.0-81.0", "trial": 3, "time_elapsed": 899428, "serialpos": 0, "key_press": -1, "wordID": 248, "type": "PRES_AUD", "trial_index": 117}, "uniqueid": "MTK2452:3I7DHKZYGO7U8FM39MO1GX30UAX5FE", "dateTime": 1517257796873}, {"current_trial": 118, "trialdata": {"rt": -1000, "trial_type": "single-audio", "word": "actress", "stimulus": "/static/audio/wordpool/ACTRESS.wav", "conditions": [12, 800, "a", 12000], "internal_node_id": "0.0-82.0", "trial": 3, "time_elapsed": 901146, "serialpos": 1, "key_press": -1, "wordID": 5, "type": "PRES_AUD", "trial_index": 118}, "uniqueid": "MTK2452:3I7DHKZYGO7U8FM39MO1GX30UAX5FE", "dateTime": 1517257798591}, {"current_trial": 119, "trialdata": {"rt": -1000, "trial_type": "single-audio", "word": "pocket", "stimulus": "/static/audio/wordpool/POCKET.wav", "conditions": [12, 800, "a", 12000], "internal_node_id": "0.0-83.0", "trial": 3, "time_elapsed": 903083, "serialpos": 2, "key_press": -1, "wordID": 1092, "type": "PRES_AUD", "trial_index": 119}, "uniqueid": "MTK2452:3I7DHKZYGO7U8FM39MO1GX30UAX5FE", "dateTime": 1517257800528}, {"current_trial": 120, "trialdata": {"rt": -1000, "trial_type": "single-audio", "word": "leg", "stimulus": "/static/audio/wordpool/LEG.wav", "conditions": [12, 800, "a", 12000], "internal_node_id": "0.0-84.0", "trial": 3, "time_elapsed": 904826, "serialpos": 3, "key_press": -1, "wordID": 808, "type": "PRES_AUD", "trial_index": 120}, "uniqueid": "MTK2452:3I7DHKZYGO7U8FM39MO1GX30UAX5FE", "dateTime": 1517257802271}, {"current_trial": 121, "trialdata": {"rt": -1000, "trial_type": "single-audio", "word": "dancer", "stimulus": "/static/audio/wordpool/DANCER.wav", "conditions": [12, 800, "a", 12000], "internal_node_id": "0.0-85.0", "trial": 3, "time_elapsed": 906476, "serialpos": 4, "key_press": -1, "wordID": 436, "type": "PRES_AUD", "trial_index": 121}, "uniqueid": "MTK2452:3I7DHKZYGO7U8FM39MO1GX30UAX5FE", "dateTime": 1517257803921}, {"current_trial": 122, "trialdata": {"rt": -1000, "trial_type": "single-audio", "word": "driver", "stimulus": "/static/audio/wordpool/DRIVER.wav", "conditions": [12, 800, "a", 12000], "internal_node_id": "0.0-86.0", "trial": 3, "time_elapsed": 908429, "serialpos": 5, "key_press": -1, "wordID": 498, "type": "PRES_AUD", "trial_index": 122}, "uniqueid": "MTK2452:3I7DHKZYGO7U8FM39MO1GX30UAX5FE", "dateTime": 1517257805874}, {"current_trial": 123, "trialdata": {"rt": -1000, "trial_type": "single-audio", "word": "shoulder", "stimulus": "/static/audio/wordpool/SHOULDER.wav", "conditions": [12, 800, "a", 12000], "internal_node_id": "0.0-87.0", "trial": 3, "time_elapsed": 910415, "serialpos": 6, "key_press": -1, "wordID": 1293, "type": "PRES_AUD", "trial_index": 123}, "uniqueid": "MTK2452:3I7DHKZYGO7U8FM39MO1GX30UAX5FE", "dateTime": 1517257807860}, {"current_trial": 124, "trialdata": {"rt": -1000, "trial_type": "single-audio", "word": "concert", "stimulus": "/static/audio/wordpool/CONCERT.wav", "conditions": [12, 800, "a", 12000], "internal_node_id": "0.0-88.0", "trial": 3, "time_elapsed": 912414, "serialpos": 7, "key_press": -1, "wordID": 359, "type": "PRES_AUD", "trial_index": 124}, "uniqueid": "MTK2452:3I7DHKZYGO7U8FM39MO1GX30UAX5FE", "dateTime": 1517257809859}, {"current_trial": 125, "trialdata": {"rt": -1000, "trial_type": "single-audio", "word": "pastry", "stimulus": "/static/audio/wordpool/PASTRY.wav", "conditions": [12, 800, "a", 12000], "internal_node_id": "0.0-89.0", "trial": 3, "time_elapsed": 914215, "serialpos": 8, "key_press": -1, "wordID": 1021, "type": "PRES_AUD", "trial_index": 125}, "uniqueid": "MTK2452:3I7DHKZYGO7U8FM39MO1GX30UAX5FE", "dateTime": 1517257811660}, {"current_trial": 126, "trialdata": {"rt": -1000, "trial_type": "single-audio", "word": "toaster", "stimulus": "/static/audio/wordpool/TOASTER.wav", "conditions": [12, 800, "a", 12000], "internal_node_id": "0.0-90.0", "trial": 3, "time_elapsed": 916129, "serialpos": 9, "key_press": -1, "wordID": 1471, "type": "PRES_AUD", "trial_index": 126}, "uniqueid": "MTK2452:3I7DHKZYGO7U8FM39MO1GX30UAX5FE", "dateTime": 1517257813574}, {"current_trial": 127, "trialdata": {"rt": -1000, "trial_type": "single-audio", "word": "stove", "stimulus": "/static/audio/wordpool/STOVE.wav", "conditions": [12, 800, "a", 12000], "internal_node_id": "0.0-91.0", "trial": 3, "time_elapsed": 917875, "serialpos": 10, "key_press": -1, "wordID": 1387, "type": "PRES_AUD", "trial_index": 127}, "uniqueid": "MTK2452:3I7DHKZYGO7U8FM39MO1GX30UAX5FE", "dateTime": 1517257815320}, {"current_trial": 128, "trialdata": {"rt": -1000, "trial_type": "single-audio", "word": "eagle", "stimulus": "/static/audio/wordpool/EAGLE.wav", "conditions": [12, 800, "a", 12000], "internal_node_id": "0.0-92.0", "trial": 3, "time_elapsed": 919829, "serialpos": 11, "key_press": -1, "wordID": 511, "type": "PRES_AUD", "trial_index": 128}, "uniqueid": "MTK2452:3I7DHKZYGO7U8FM39MO1GX30UAX5FE", "dateTime": 1517257817275}, {"current_trial": 129, "trialdata": {"rt": -1, "trial_type": "single-stim", "stimulus": "", "internal_node_id": "0.0-93.0-0.0", "time_elapsed": 921086, "key_press": -1, "type": "PRE_RECALL_DELAY", "trial_index": 129}, "uniqueid": "MTK2452:3I7DHKZYGO7U8FM39MO1GX30UAX5FE", "dateTime": 1517257818531}, {"current_trial": 130, "trialdata": {"rt": -1000, "trial_type": "single-audio", "stimulus": "/static/audio/400Hz.wav", "internal_node_id": "0.0-94.0", "time_elapsed": 921588, "key_press": -1, "type": "PRE_RECALL_ALERT", "trial_index": 130}, "uniqueid": "MTK2452:3I7DHKZYGO7U8FM39MO1GX30UAX5FE", "dateTime": 1517257819033}, {"current_trial": 131, "trialdata": {"rt": [2729, 4603, 7204, 8755, 10244, 11984, 18350], "recwords": ["eagle", "stove", "pastry", "toaster", "driver", "actress", "driver"], "key_times": [1916, 2008, 2218, 2374, 2516, 2729, 3608, 3826, 3961, 4237, 4455, 4603, 5421, 5539, 5796, 5955, 6144, 6622, 6776, 6926, 7204, 7618, 7786, 7990, 8184, 8344, 8520, 8617, 8755, 9332, 9562, 9685, 9814, 9982, 10097, 10244, 10491, 10642, 11108, 11314, 11428, 11645, 11828, 11984, 17429, 17651, 17771, 17885, 18081, 18145, 18350], "trial_type": "free-recall", "conditions": [12, 800, "a", 12000], "internal_node_id": "0.0-95.0-0.0", "key_presses": [69, 65, 71, 76, 69, 32, 83, 84, 79, 86, 69, 13, 80, 65, 83, 84, 89, 8, 82, 89, 13, 84, 79, 65, 83, 84, 69, 82, 13, 68, 82, 73, 86, 69, 82, 13, 65, 67, 84, 82, 69, 83, 83, 13, 68, 82, 73, 86, 69, 82, 13], "trial": 3, "time_elapsed": 981590, "type": "FREE_RECALL", "trial_index": 131}, "uniqueid": "MTK2452:3I7DHKZYGO7U8FM39MO1GX30UAX5FE", "dateTime": 1517257879039}, {"current_trial": 132, "trialdata": {"rt": 14028, "trial_type": "text", "internal_node_id": "0.0-96.0", "time_elapsed": 997623, "key_press": 13, "type": "INSTRUCTIONS", "trial_index": 132}, "uniqueid": "MTK2452:3I7DHKZYGO7U8FM39MO1GX30UAX5FE", "dateTime": 1517257895068}, {"current_trial": 133, "trialdata": {"rt": [4239, 7911, 11703], "trial_type": "math-distractor", "key_times": [3899, 4045, 4239, 7586, 7911, 7919, 9454, 11078, 11420, 11703], "responses": ["22", "1", "18"], "num2": [5, 4, 4, 5], "num3": [9, 4, 7, 6], "conditions": [24, 800, "a", 12000], "internal_node_id": "0.0-97.0", "key_presses": [98, 98, 13, 97, 13, 99, 8, 97, 104, 13], "trial": 4, "time_elapsed": 1011627, "type": "DISTRACTOR", "trial_index": 133, "num1": [8, 5, 7, 9]}, "uniqueid": "MTK2452:3I7DHKZYGO7U8FM39MO1GX30UAX5FE", "dateTime": 1517257909072}, {"current_trial": 134, "trialdata": {"rt": -1, "trial_type": "single-stim", "stimulus": "<p id=\"stim\">10</p>", "internal_node_id": "0.0-98.0-0.0", "time_elapsed": 1014628, "key_press": -1, "trial_index": 134}, "uniqueid": "MTK2452:3I7DHKZYGO7U8FM39MO1GX30UAX5FE", "dateTime": 1517257912073}, {"current_trial": 135, "trialdata": {"rt": -1, "trial_type": "single-stim", "stimulus": "<p id=\"stim\">9</p>", "internal_node_id": "0.0-98.0-1.0", "time_elapsed": 1015629, "key_press": -1, "trial_index": 135}, "uniqueid": "MTK2452:3I7DHKZYGO7U8FM39MO1GX30UAX5FE", "dateTime": 1517257913074}, {"current_trial": 136, "trialdata": {"rt": -1, "trial_type": "single-stim", "stimulus": "<p id=\"stim\">8</p>", "internal_node_id": "0.0-98.0-2.0", "time_elapsed": 1016630, "key_press": -1, "trial_index": 136}, "uniqueid": "MTK2452:3I7DHKZYGO7U8FM39MO1GX30UAX5FE", "dateTime": 1517257914075}, {"current_trial": 137, "trialdata": {"rt": -1, "trial_type": "single-stim", "stimulus": "<p id=\"stim\">7</p>", "internal_node_id": "0.0-98.0-3.0", "time_elapsed": 1017631, "key_press": -1, "trial_index": 137}, "uniqueid": "MTK2452:3I7DHKZYGO7U8FM39MO1GX30UAX5FE", "dateTime": 1517257915076}, {"current_trial": 138, "trialdata": {"rt": -1, "trial_type": "single-stim", "stimulus": "<p id=\"stim\">6</p>", "internal_node_id": "0.0-98.0-4.0", "time_elapsed": 1018633, "key_press": -1, "trial_index": 138}, "uniqueid": "MTK2452:3I7DHKZYGO7U8FM39MO1GX30UAX5FE", "dateTime": 1517257916078}, {"current_trial": 139, "trialdata": {"rt": -1, "trial_type": "single-stim", "stimulus": "<p id=\"stim\">5</p>", "internal_node_id": "0.0-98.0-5.0", "time_elapsed": 1019634, "key_press": -1, "trial_index": 139}, "uniqueid": "MTK2452:3I7DHKZYGO7U8FM39MO1GX30UAX5FE", "dateTime": 1517257917079}, {"current_trial": 140, "trialdata": {"rt": -1, "trial_type": "single-stim", "stimulus": "<p id=\"stim\">4</p>", "internal_node_id": "0.0-98.0-6.0", "time_elapsed": 1020635, "key_press": -1, "trial_index": 140}, "uniqueid": "MTK2452:3I7DHKZYGO7U8FM39MO1GX30UAX5FE", "dateTime": 1517257918080}, {"current_trial": 141, "trialdata": {"rt": -1, "trial_type": "single-stim", "stimulus": "<p id=\"stim\">3</p>", "internal_node_id": "0.0-98.0-7.0", "time_elapsed": 1021636, "key_press": -1, "trial_index": 141}, "uniqueid": "MTK2452:3I7DHKZYGO7U8FM39MO1GX30UAX5FE", "dateTime": 1517257919081}, {"current_trial": 142, "trialdata": {"rt": -1, "trial_type": "single-stim", "stimulus": "<p id=\"stim\">2</p>", "internal_node_id": "0.0-98.0-8.0", "time_elapsed": 1022637, "key_press": -1, "trial_index": 142}, "uniqueid": "MTK2452:3I7DHKZYGO7U8FM39MO1GX30UAX5FE", "dateTime": 1517257920082}, {"current_trial": 143, "trialdata": {"rt": -1, "trial_type": "single-stim", "stimulus": "<p id=\"stim\">1</p>", "internal_node_id": "0.0-98.0-9.0", "time_elapsed": 1023638, "key_press": -1, "trial_index": 143}, "uniqueid": "MTK2452:3I7DHKZYGO7U8FM39MO1GX30UAX5FE", "dateTime": 1517257921083}, {"current_trial": 144, "trialdata": {"rt": -1, "trial_type": "single-stim", "stimulus": "<p id=\"stim\">+</p>", "internal_node_id": "0.0-99.0-0.0", "time_elapsed": 1025138, "key_press": -1, "type": "FIXATION", "trial_index": 144}, "uniqueid": "MTK2452:3I7DHKZYGO7U8FM39MO1GX30UAX5FE", "dateTime": 1517257922584}, {"current_trial": 145, "trialdata": {"rt": -1000, "trial_type": "single-audio", "word": "zebra", "stimulus": "/static/audio/wordpool/ZEBRA.wav", "conditions": [24, 800, "a", 12000], "internal_node_id": "0.0-100.0", "trial": 4, "time_elapsed": 1026861, "serialpos": 0, "key_press": -1, "wordID": 1634, "type": "PRES_AUD", "trial_index": 145}, "uniqueid": "MTK2452:3I7DHKZYGO7U8FM39MO1GX30UAX5FE", "dateTime": 1517257924306}, {"current_trial": 146, "trialdata": {"rt": -1000, "trial_type": "single-audio", "word": "fox", "stimulus": "/static/audio/wordpool/FOX.wav", "conditions": [24, 800, "a", 12000], "internal_node_id": "0.0-101.0", "trial": 4, "time_elapsed": 1028484, "serialpos": 1, "key_press": -1, "wordID": 597, "type": "PRES_AUD", "trial_index": 146}, "uniqueid": "MTK2452:3I7DHKZYGO7U8FM39MO1GX30UAX5FE", "dateTime": 1517257925929}, {"current_trial": 147, "trialdata": {"rt": -1000, "trial_type": "single-audio", "word": "mister", "stimulus": "/static/audio/wordpool/MISTER.wav", "conditions": [24, 800, "a", 12000], "internal_node_id": "0.0-102.0", "trial": 4, "time_elapsed": 1030499, "serialpos": 2, "key_press": -1, "wordID": 900, "type": "PRES_AUD", "trial_index": 147}, "uniqueid": "MTK2452:3I7DHKZYGO7U8FM39MO1GX30UAX5FE", "dateTime": 1517257927944}, {"current_trial": 148, "trialdata": {"rt": -1000, "trial_type": "single-audio", "word": "jury", "stimulus": "/static/audio/wordpool/JURY.wav", "conditions": [24, 800, "a", 12000], "internal_node_id": "0.0-103.0", "trial": 4, "time_elapsed": 1032118, "serialpos": 3, "key_press": -1, "wordID": 765, "type": "PRES_AUD", "trial_index": 148}, "uniqueid": "MTK2452:3I7DHKZYGO7U8FM39MO1GX30UAX5FE", "dateTime": 1517257929564}, {"current_trial": 149, "trialdata": {"rt": -1000, "trial_type": "single-audio", "word": "dress", "stimulus": "/static/audio/wordpool/DRESS.wav", "conditions": [24, 800, "a", 12000], "internal_node_id": "0.0-104.0", "trial": 4, "time_elapsed": 1033964, "serialpos": 4, "key_press": -1, "wordID": 494, "type": "PRES_AUD", "trial_index": 149}, "uniqueid": "MTK2452:3I7DHKZYGO7U8FM39MO1GX30UAX5FE", "dateTime": 1517257931409}, {"current_trial": 150, "trialdata": {"rt": -1000, "trial_type": "single-audio", "word": "briefcase", "stimulus": "/static/audio/wordpool/BRIEFCASE.wav", "conditions": [24, 800, "a", 12000], "internal_node_id": "0.0-105.0", "trial": 4, "time_elapsed": 1035932, "serialpos": 5, "key_press": -1, "wordID": 174, "type": "PRES_AUD", "trial_index": 150}, "uniqueid": "MTK2452:3I7DHKZYGO7U8FM39MO1GX30UAX5FE", "dateTime": 1517257933377}, {"current_trial": 151, "trialdata": {"rt": -1000, "trial_type": "single-audio", "word": "knapsack", "stimulus": "/static/audio/wordpool/KNAPSACK.wav", "conditions": [24, 800, "a", 12000], "internal_node_id": "0.0-106.0", "trial": 4, "time_elapsed": 1037656, "serialpos": 6, "key_press": -1, "wordID": 782, "type": "PRES_AUD", "trial_index": 151}, "uniqueid": "MTK2452:3I7DHKZYGO7U8FM39MO1GX30UAX5FE", "dateTime": 1517257935101}, {"current_trial": 152, "trialdata": {"rt": -1000, "trial_type": "single-audio", "word": "judge", "stimulus": "/static/audio/wordpool/JUDGE.wav", "conditions": [24, 800, "a", 12000], "internal_node_id": "0.0-107.0", "trial": 4, "time_elapsed": 1039595, "serialpos": 7, "key_press": -1, "wordID": 760, "type": "PRES_AUD", "trial_index": 152}, "uniqueid": "MTK2452:3I7DHKZYGO7U8FM39MO1GX30UAX5FE", "dateTime": 1517257937041}, {"current_trial": 153, "trialdata": {"rt": -1000, "trial_type": "single-audio", "word": "robin", "stimulus": "/static/audio/wordpool/ROBIN.wav", "conditions": [24, 800, "a", 12000], "internal_node_id": "0.0-108.0", "trial": 4, "time_elapsed": 1041439, "serialpos": 8, "key_press": -1, "wordID": 1198, "type": "PRES_AUD", "trial_index": 153}, "uniqueid": "MTK2452:3I7DHKZYGO7U8FM39MO1GX30UAX5FE", "dateTime": 1517257938884}, {"current_trial": 154, "trialdata": {"rt": -1000, "trial_type": "single-audio", "word": "beaver", "stimulus": "/static/audio/wordpool/BEAVER.wav", "conditions": [24, 800, "a", 12000], "internal_node_id": "0.0-109.0", "trial": 4, "time_elapsed": 1043440, "serialpos": 9, "key_press": -1, "wordID": 108, "type": "PRES_AUD", "trial_index": 154}, "uniqueid": "MTK2452:3I7DHKZYGO7U8FM39MO1GX30UAX5FE", "dateTime": 1517257940885}, {"current_trial": 155, "trialdata": {"rt": -1000, "trial_type": "single-audio", "word": "marrow", "stimulus": "/static/audio/wordpool/MARROW.wav", "conditions": [24, 800, "a", 12000], "internal_node_id": "0.0-110.0", "trial": 4, "time_elapsed": 1045061, "serialpos": 10, "key_press": -1, "wordID": 871, "type": "PRES_AUD", "trial_index": 155}, "uniqueid": "MTK2452:3I7DHKZYGO7U8FM39MO1GX30UAX5FE", "dateTime": 1517257942506}, {"current_trial": 156, "trialdata": {"rt": -1000, "trial_type": "single-audio", "word": "soda", "stimulus": "/static/audio/wordpool/SODA.wav", "conditions": [24, 800, "a", 12000], "internal_node_id": "0.0-111.0", "trial": 4, "time_elapsed": 1046830, "serialpos": 11, "key_press": -1, "wordID": 1340, "type": "PRES_AUD", "trial_index": 156}, "uniqueid": "MTK2452:3I7DHKZYGO7U8FM39MO1GX30UAX5FE", "dateTime": 1517257944275}, {"current_trial": 157, "trialdata": {"rt": -1000, "trial_type": "single-audio", "word": "slope", "stimulus": "/static/audio/wordpool/SLOPE.wav", "conditions": [24, 800, "a", 12000], "internal_node_id": "0.0-112.0", "trial": 4, "time_elapsed": 1048580, "serialpos": 12, "key_press": -1, "wordID": 1327, "type": "PRES_AUD", "trial_index": 157}, "uniqueid": "MTK2452:3I7DHKZYGO7U8FM39MO1GX30UAX5FE", "dateTime": 1517257946025}, {"current_trial": 158, "trialdata": {"rt": -1000, "trial_type": "single-audio", "word": "bubble", "stimulus": "/static/audio/wordpool/BUBBLE.wav", "conditions": [24, 800, "a", 12000], "internal_node_id": "0.0-113.0", "trial": 4, "time_elapsed": 1050363, "serialpos": 13, "key_press": -1, "wordID": 182, "type": "PRES_AUD", "trial_index": 158}, "uniqueid": "MTK2452:3I7DHKZYGO7U8FM39MO1GX30UAX5FE", "dateTime": 1517257947808}, {"current_trial": 159, "trialdata": {"rt": -1000, "trial_type": "single-audio", "word": "sheriff", "stimulus": "/static/audio/wordpool/SHERIFF.wav", "conditions": [24, 800, "a", 12000], "internal_node_id": "0.0-114.0", "trial": 4, "time_elapsed": 1052025, "serialpos": 14, "key_press": -1, "wordID": 1283, "type": "PRES_AUD", "trial_index": 159}, "uniqueid": "MTK2452:3I7DHKZYGO7U8FM39MO1GX30UAX5FE", "dateTime": 1517257949470}, {"current_trial": 160, "trialdata": {"rt": -1000, "trial_type": "single-audio", "word": "shortcake", "stimulus": "/static/audio/wordpool/SHORTCAKE.wav", "conditions": [24, 800, "a", 12000], "internal_node_id": "0.0-115.0", "trial": 4, "time_elapsed": 1053949, "serialpos": 15, "key_press": -1, "wordID": 1291, "type": "PRES_AUD", "trial_index": 160}, "uniqueid": "MTK2452:3I7DHKZYGO7U8FM39MO1GX30UAX5FE", "dateTime": 1517257951394}, {"current_trial": 161, "trialdata": {"rt": -1000, "trial_type": "single-audio", "word": "sunrise", "stimulus": "/static/audio/wordpool/SUNRISE.wav", "conditions": [24, 800, "a", 12000], "internal_node_id": "0.0-116.0", "trial": 4, "time_elapsed": 1055829, "serialpos": 16, "key_press": -1, "wordID": 1406, "type": "PRES_AUD", "trial_index": 161}, "uniqueid": "MTK2452:3I7DHKZYGO7U8FM39MO1GX30UAX5FE", "dateTime": 1517257953274}, {"current_trial": 162, "trialdata": {"rt": -1000, "trial_type": "single-audio", "word": "robber", "stimulus": "/static/audio/wordpool/ROBBER.wav", "conditions": [24, 800, "a", 12000], "internal_node_id": "0.0-117.0", "trial": 4, "time_elapsed": 1057778, "serialpos": 17, "key_press": -1, "wordID": 1196, "type": "PRES_AUD", "trial_index": 162}, "uniqueid": "MTK2452:3I7DHKZYGO7U8FM39MO1GX30UAX5FE", "dateTime": 1517257955223}, {"current_trial": 163, "trialdata": {"rt": -1000, "trial_type": "single-audio", "word": "widow", "stimulus": "/static/audio/wordpool/WIDOW.wav", "conditions": [24, 800, "a", 12000], "internal_node_id": "0.0-118.0", "trial": 4, "time_elapsed": 1059684, "serialpos": 18, "key_press": -1, "wordID": 1607, "type": "PRES_AUD", "trial_index": 163}, "uniqueid": "MTK2452:3I7DHKZYGO7U8FM39MO1GX30UAX5FE", "dateTime": 1517257957129}, {"current_trial": 164, "trialdata": {"rt": -1000, "trial_type": "single-audio", "word": "dentist", "stimulus": "/static/audio/wordpool/DENTIST.wav", "conditions": [24, 800, "a", 12000], "internal_node_id": "0.0-119.0", "trial": 4, "time_elapsed": 1061402, "serialpos": 19, "key_press": -1, "wordID": 446, "type": "PRES_AUD", "trial_index": 164}, "uniqueid": "MTK2452:3I7DHKZYGO7U8FM39MO1GX30UAX5FE", "dateTime": 1517257958847}, {"current_trial": 165, "trialdata": {"rt": -1000, "trial_type": "single-audio", "word": "sunset", "stimulus": "/static/audio/wordpool/SUNSET.wav", "conditions": [24, 800, "a", 12000], "internal_node_id": "0.0-120.0", "trial": 4, "time_elapsed": 1063010, "serialpos": 20, "key_press": -1, "wordID": 1407, "type": "PRES_AUD", "trial_index": 165}, "uniqueid": "MTK2452:3I7DHKZYGO7U8FM39MO1GX30UAX5FE", "dateTime": 1517257960455}, {"current_trial": 166, "trialdata": {"rt": -1000, "trial_type": "single-audio", "word": "tutu", "stimulus": "/static/audio/wordpool/TUTU.wav", "conditions": [24, 800, "a", 12000], "internal_node_id": "0.0-121.0", "trial": 4, "time_elapsed": 1064979, "serialpos": 21, "key_press": -1, "wordID": 1523, "type": "PRES_AUD", "trial_index": 166}, "uniqueid": "MTK2452:3I7DHKZYGO7U8FM39MO1GX30UAX5FE", "dateTime": 1517257962424}, {"current_trial": 167, "trialdata": {"rt": -1000, "trial_type": "single-audio", "word": "costume", "stimulus": "/static/audio/wordpool/COSTUME.wav", "conditions": [24, 800, "a", 12000], "internal_node_id": "0.0-122.0", "trial": 4, "time_elapsed": 1066886, "serialpos": 22, "key_press": -1, "wordID": 382, "type": "PRES_AUD", "trial_index": 167}, "uniqueid": "MTK2452:3I7DHKZYGO7U8FM39MO1GX30UAX5FE", "dateTime": 1517257964332}, {"current_trial": 168, "trialdata": {"rt": -1000, "trial_type": "single-audio", "word": "novel", "stimulus": "/static/audio/wordpool/NOVEL.wav", "conditions": [24, 800, "a", 12000], "internal_node_id": "0.0-123.0", "trial": 4, "time_elapsed": 1068608, "serialpos": 23, "key_press": -1, "wordID": 959, "type": "PRES_AUD", "trial_index": 168}, "uniqueid": "MTK2452:3I7DHKZYGO7U8FM39MO1GX30UAX5FE", "dateTime": 1517257966053}, {"current_trial": 169, "trialdata": {"rt": -1, "trial_type": "single-stim", "stimulus": "", "internal_node_id": "0.0-124.0-0.0", "time_elapsed": 1069994, "key_press": -1, "type": "PRE_RECALL_DELAY", "trial_index": 169}, "uniqueid": "MTK2452:3I7DHKZYGO7U8FM39MO1GX30UAX5FE", "dateTime": 1517257967439}, {"current_trial": 170, "trialdata": {"rt": -1000, "trial_type": "single-audio", "stimulus": "/static/audio/400Hz.wav", "internal_node_id": "0.0-125.0", "time_elapsed": 1070495, "key_press": -1, "type": "PRE_RECALL_ALERT", "trial_index": 170}, "uniqueid": "MTK2452:3I7DHKZYGO7U8FM39MO1GX30UAX5FE", "dateTime": 1517257967940}, {"current_trial": 171, "trialdata": {"rt": [4424, 5700, 7862, 9189, 10424, 11764, 14351, 15588, 22632], "recwords": ["costume", "novel", "terrace", "costume", "judge", "jury", "briefcase", "dress", "robin"], "key_times": [3405, 3569, 3718, 3832, 3942, 4134, 4221, 4424, 4839, 4963, 5108, 5310, 5426, 5700, 6708, 6929, 7062, 7265, 7367, 7559, 7728, 7862, 8170, 8276, 8447, 8570, 8690, 8907, 9002, 9189, 9514, 9701, 9825, 10030, 10195, 10424, 10900, 11208, 11337, 11442, 11764, 12818, 13072, 13177, 13302, 13483, 13730, 13877, 14023, 14171, 14351, 14686, 14910, 15020, 15187, 15343, 15588, 21992, 22075, 22219, 22317, 22424, 22632], "trial_type": "free-recall", "conditions": [24, 800, "a", 12000], "internal_node_id": "0.0-126.0-0.0", "key_presses": [67, 79, 83, 84, 85, 77, 69, 13, 78, 79, 86, 69, 76, 13, 84, 69, 82, 82, 65, 67, 69, 13, 67, 79, 83, 84, 85, 77, 69, 13, 74, 85, 68, 71, 69, 13, 74, 85, 82, 89, 13, 66, 82, 73, 69, 70, 67, 65, 83, 69, 13, 68, 82, 69, 83, 83, 13, 82, 79, 66, 73, 78, 13], "trial": 4, "time_elapsed": 1130499, "type": "FREE_RECALL", "trial_index": 171}, "uniqueid": "MTK2452:3I7DHKZYGO7U8FM39MO1GX30UAX5FE", "dateTime": 1517258027949}, {"current_trial": 172, "trialdata": {"rt": 26004, "trial_type": "text", "internal_node_id": "0.0-127.0", "time_elapsed": 1158509, "key_press": 13, "type": "INSTRUCTIONS", "trial_index": 172}, "uniqueid": "MTK2452:3I7DHKZYGO7U8FM39MO1GX30UAX5FE", "dateTime": 1517258055954}, {"current_trial": 173, "trialdata": {"rt": [2145, 4079, 7657, 9788, 11802, 14690, 17549, 19352], "trial_type": "math-distractor", "key_times": [1804, 1941, 2145, 3665, 3859, 4079, 7042, 7369, 7657, 9383, 9530, 9788, 11295, 11550, 11802, 14163, 14443, 14690, 16932, 17249, 17549, 19099, 19352], "responses": ["22", "10", "19", "11", "24", "16", "17", "8"], "num2": [9, 2, 9, 7, 8, 3, 7, 5, 4], "num3": [9, 2, 6, 3, 8, 5, 1, 2, 7], "conditions": [24, 1600, "a", 24000], "internal_node_id": "0.0-128.0", "key_presses": [98, 98, 13, 97, 96, 13, 97, 105, 13, 97, 97, 13, 98, 100, 13, 97, 102, 13, 97, 103, 13, 104, 13], "trial": 5, "time_elapsed": 1184512, "type": "DISTRACTOR", "trial_index": 173, "num1": [4, 6, 4, 1, 8, 8, 9, 1, 9]}, "uniqueid": "MTK2452:3I7DHKZYGO7U8FM39MO1GX30UAX5FE", "dateTime": 1517258081957}, {"current_trial": 174, "trialdata": {"rt": -1, "trial_type": "single-stim", "stimulus": "<p id=\"stim\">10</p>", "internal_node_id": "0.0-129.0-0.0", "time_elapsed": 1187513, "key_press": -1, "trial_index": 174}, "uniqueid": "MTK2452:3I7DHKZYGO7U8FM39MO1GX30UAX5FE", "dateTime": 1517258084958}, {"current_trial": 175, "trialdata": {"rt": -1, "trial_type": "single-stim", "stimulus": "<p id=\"stim\">9</p>", "internal_node_id": "0.0-129.0-1.0", "time_elapsed": 1188514, "key_press": -1, "trial_index": 175}, "uniqueid": "MTK2452:3I7DHKZYGO7U8FM39MO1GX30UAX5FE", "dateTime": 1517258085959}, {"current_trial": 176, "trialdata": {"rt": -1, "trial_type": "single-stim", "stimulus": "<p id=\"stim\">8</p>", "internal_node_id": "0.0-129.0-2.0", "time_elapsed": 1189515, "key_press": -1, "trial_index": 176}, "uniqueid": "MTK2452:3I7DHKZYGO7U8FM39MO1GX30UAX5FE", "dateTime": 1517258086960}, {"current_trial": 177, "trialdata": {"rt": -1, "trial_type": "single-stim", "stimulus": "<p id=\"stim\">7</p>", "internal_node_id": "0.0-129.0-3.0", "time_elapsed": 1190516, "key_press": -1, "trial_index": 177}, "uniqueid": "MTK2452:3I7DHKZYGO7U8FM39MO1GX30UAX5FE", "dateTime": 1517258087961}, {"current_trial": 178, "trialdata": {"rt": -1, "trial_type": "single-stim", "stimulus": "<p id=\"stim\">6</p>", "internal_node_id": "0.0-129.0-4.0", "time_elapsed": 1191517, "key_press": -1, "trial_index": 178}, "uniqueid": "MTK2452:3I7DHKZYGO7U8FM39MO1GX30UAX5FE", "dateTime": 1517258088962}, {"current_trial": 179, "trialdata": {"rt": -1, "trial_type": "single-stim", "stimulus": "<p id=\"stim\">5</p>", "internal_node_id": "0.0-129.0-5.0", "time_elapsed": 1192519, "key_press": -1, "trial_index": 179}, "uniqueid": "MTK2452:3I7DHKZYGO7U8FM39MO1GX30UAX5FE", "dateTime": 1517258089964}, {"current_trial": 180, "trialdata": {"rt": -1, "trial_type": "single-stim", "stimulus": "<p id=\"stim\">4</p>", "internal_node_id": "0.0-129.0-6.0", "time_elapsed": 1193520, "key_press": -1, "trial_index": 180}, "uniqueid": "MTK2452:3I7DHKZYGO7U8FM39MO1GX30UAX5FE", "dateTime": 1517258090965}, {"current_trial": 181, "trialdata": {"rt": -1, "trial_type": "single-stim", "stimulus": "<p id=\"stim\">3</p>", "internal_node_id": "0.0-129.0-7.0", "time_elapsed": 1194521, "key_press": -1, "trial_index": 181}, "uniqueid": "MTK2452:3I7DHKZYGO7U8FM39MO1GX30UAX5FE", "dateTime": 1517258091966}, {"current_trial": 182, "trialdata": {"rt": -1, "trial_type": "single-stim", "stimulus": "<p id=\"stim\">2</p>", "internal_node_id": "0.0-129.0-8.0", "time_elapsed": 1195523, "key_press": -1, "trial_index": 182}, "uniqueid": "MTK2452:3I7DHKZYGO7U8FM39MO1GX30UAX5FE", "dateTime": 1517258092968}, {"current_trial": 183, "trialdata": {"rt": -1, "trial_type": "single-stim", "stimulus": "<p id=\"stim\">1</p>", "internal_node_id": "0.0-129.0-9.0", "time_elapsed": 1196524, "key_press": -1, "trial_index": 183}, "uniqueid": "MTK2452:3I7DHKZYGO7U8FM39MO1GX30UAX5FE", "dateTime": 1517258093969}, {"current_trial": 184, "trialdata": {"rt": -1, "trial_type": "single-stim", "stimulus": "<p id=\"stim\">+</p>", "internal_node_id": "0.0-130.0-0.0", "time_elapsed": 1198024, "key_press": -1, "type": "FIXATION", "trial_index": 184}, "uniqueid": "MTK2452:3I7DHKZYGO7U8FM39MO1GX30UAX5FE", "dateTime": 1517258095470}, {"current_trial": 185, "trialdata": {"rt": -1000, "trial_type": "single-audio", "word": "jello", "stimulus": "/static/audio/wordpool/JELLO.wav", "conditions": [24, 1600, "a", 24000], "internal_node_id": "0.0-131.0", "trial": 5, "time_elapsed": 1200621, "serialpos": 0, "key_press": -1, "wordID": 753, "type": "PRES_AUD", "trial_index": 185}, "uniqueid": "MTK2452:3I7DHKZYGO7U8FM39MO1GX30UAX5FE", "dateTime": 1517258098066}, {"current_trial": 186, "trialdata": {"rt": -1000, "trial_type": "single-audio", "word": "cafe", "stimulus": "/static/audio/wordpool/CAFE.wav", "conditions": [24, 1600, "a", 24000], "internal_node_id": "0.0-132.0", "trial": 5, "time_elapsed": 1203071, "serialpos": 1, "key_press": -1, "wordID": 215, "type": "PRES_AUD", "trial_index": 186}, "uniqueid": "MTK2452:3I7DHKZYGO7U8FM39MO1GX30UAX5FE", "dateTime": 1517258100516}, {"current_trial": 187, "trialdata": {"rt": -1000, "trial_type": "single-audio", "word": "bison", "stimulus": "/static/audio/wordpool/BISON.wav", "conditions": [24, 1600, "a", 24000], "internal_node_id": "0.0-133.0", "trial": 5, "time_elapsed": 1205813, "serialpos": 2, "key_press": -1, "wordID": 130, "type": "PRES_AUD", "trial_index": 187}, "uniqueid": "MTK2452:3I7DHKZYGO7U8FM39MO1GX30UAX5FE", "dateTime": 1517258103258}, {"current_trial": 188, "trialdata": {"rt": -1000, "trial_type": "single-audio", "word": "grape", "stimulus": "/static/audio/wordpool/GRAPE.wav", "conditions": [24, 1600, "a", 24000], "internal_node_id": "0.0-134.0", "trial": 5, "time_elapsed": 1208215, "serialpos": 3, "key_press": -1, "wordID": 653, "type": "PRES_AUD", "trial_index": 188}, "uniqueid": "MTK2452:3I7DHKZYGO7U8FM39MO1GX30UAX5FE", "dateTime": 1517258105661}, {"current_trial": 189, "trialdata": {"rt": -1000, "trial_type": "single-audio", "word": "citrus", "stimulus": "/static/audio/wordpool/CITRUS.wav", "conditions": [24, 1600, "a", 24000], "internal_node_id": "0.0-135.0", "trial": 5, "time_elapsed": 1210907, "serialpos": 4, "key_press": -1, "wordID": 312, "type": "PRES_AUD", "trial_index": 189}, "uniqueid": "MTK2452:3I7DHKZYGO7U8FM39MO1GX30UAX5FE", "dateTime": 1517258108352}, {"current_trial": 190, "trialdata": {"rt": -1000, "trial_type": "single-audio", "word": "diner", "stimulus": "/static/audio/wordpool/DINER.wav", "conditions": [24, 1600, "a", 24000], "internal_node_id": "0.0-136.0", "trial": 5, "time_elapsed": 1213496, "serialpos": 5, "key_press": -1, "wordID": 466, "type": "PRES_AUD", "trial_index": 190}, "uniqueid": "MTK2452:3I7DHKZYGO7U8FM39MO1GX30UAX5FE", "dateTime": 1517258110941}, {"current_trial": 191, "trialdata": {"rt": -1000, "trial_type": "single-audio", "word": "butcher", "stimulus": "/static/audio/wordpool/BUTCHER.wav", "conditions": [24, 1600, "a", 24000], "internal_node_id": "0.0-137.0", "trial": 5, "time_elapsed": 1215953, "serialpos": 6, "key_press": -1, "wordID": 202, "type": "PRES_AUD", "trial_index": 191}, "uniqueid": "MTK2452:3I7DHKZYGO7U8FM39MO1GX30UAX5FE", "dateTime": 1517258113399}, {"current_trial": 192, "trialdata": {"rt": -1000, "trial_type": "single-audio", "word": "dime", "stimulus": "/static/audio/wordpool/DIME.wav", "conditions": [24, 1600, "a", 24000], "internal_node_id": "0.0-138.0", "trial": 5, "time_elapsed": 1218541, "serialpos": 7, "key_press": -1, "wordID": 465, "type": "PRES_AUD", "trial_index": 192}, "uniqueid": "MTK2452:3I7DHKZYGO7U8FM39MO1GX30UAX5FE", "dateTime": 1517258115987}, {"current_trial": 193, "trialdata": {"rt": -1000, "trial_type": "single-audio", "word": "venus", "stimulus": "/static/audio/wordpool/VENUS.wav", "conditions": [24, 1600, "a", 24000], "internal_node_id": "0.0-139.0", "trial": 5, "time_elapsed": 1221278, "serialpos": 8, "key_press": -1, "wordID": 1556, "type": "PRES_AUD", "trial_index": 193}, "uniqueid": "MTK2452:3I7DHKZYGO7U8FM39MO1GX30UAX5FE", "dateTime": 1517258118723}, {"current_trial": 194, "trialdata": {"rt": -1000, "trial_type": "single-audio", "word": "lace", "stimulus": "/static/audio/wordpool/LACE.wav", "conditions": [24, 1600, "a", 24000], "internal_node_id": "0.0-140.0", "trial": 5, "time_elapsed": 1223685, "serialpos": 9, "key_press": -1, "wordID": 791, "type": "PRES_AUD", "trial_index": 194}, "uniqueid": "MTK2452:3I7DHKZYGO7U8FM39MO1GX30UAX5FE", "dateTime": 1517258121130}, {"current_trial": 195, "trialdata": {"rt": -1000, "trial_type": "single-audio", "word": "salad", "stimulus": "/static/audio/wordpool/SALAD.wav", "conditions": [24, 1600, "a", 24000], "internal_node_id": "0.0-141.0", "trial": 5, "time_elapsed": 1226370, "serialpos": 10, "key_press": -1, "wordID": 1223, "type": "PRES_AUD", "trial_index": 195}, "uniqueid": "MTK2452:3I7DHKZYGO7U8FM39MO1GX30UAX5FE", "dateTime": 1517258123816}, {"current_trial": 196, "trialdata": {"rt": -1000, "trial_type": "single-audio", "word": "supper", "stimulus": "/static/audio/wordpool/SUPPER.wav", "conditions": [24, 1600, "a", 24000], "internal_node_id": "0.0-142.0", "trial": 5, "time_elapsed": 1229139, "serialpos": 11, "key_press": -1, "wordID": 1410, "type": "PRES_AUD", "trial_index": 196}, "uniqueid": "MTK2452:3I7DHKZYGO7U8FM39MO1GX30UAX5FE", "dateTime": 1517258126585}, {"current_trial": 197, "trialdata": {"rt": -1000, "trial_type": "single-audio", "word": "child", "stimulus": "/static/audio/wordpool/CHILD.wav", "conditions": [24, 1600, "a", 24000], "internal_node_id": "0.0-143.0", "trial": 5, "time_elapsed": 1231793, "serialpos": 12, "key_press": -1, "wordID": 298, "type": "PRES_AUD", "trial_index": 197}, "uniqueid": "MTK2452:3I7DHKZYGO7U8FM39MO1GX30UAX5FE", "dateTime": 1517258129238}, {"current_trial": 198, "trialdata": {"rt": -1000, "trial_type": "single-audio", "word": "cook", "stimulus": "/static/audio/wordpool/COOK.wav", "conditions": [24, 1600, "a", 24000], "internal_node_id": "0.0-144.0", "trial": 5, "time_elapsed": 1234510, "serialpos": 13, "key_press": -1, "wordID": 371, "type": "PRES_AUD", "trial_index": 198}, "uniqueid": "MTK2452:3I7DHKZYGO7U8FM39MO1GX30UAX5FE", "dateTime": 1517258131955}, {"current_trial": 199, "trialdata": {"rt": -1000, "trial_type": "single-audio", "word": "kitchen", "stimulus": "/static/audio/wordpool/KITCHEN.wav", "conditions": [24, 1600, "a", 24000], "internal_node_id": "0.0-145.0", "trial": 5, "time_elapsed": 1237262, "serialpos": 14, "key_press": -1, "wordID": 777, "type": "PRES_AUD", "trial_index": 199}, "uniqueid": "MTK2452:3I7DHKZYGO7U8FM39MO1GX30UAX5FE", "dateTime": 1517258134707}, {"current_trial": 200, "trialdata": {"rt": -1000, "trial_type": "single-audio", "word": "spouse", "stimulus": "/static/audio/wordpool/SPOUSE.wav", "conditions": [24, 1600, "a", 24000], "internal_node_id": "0.0-146.0", "trial": 5, "time_elapsed": 1239884, "serialpos": 15, "key_press": -1, "wordID": 1357, "type": "PRES_AUD", "trial_index": 200}, "uniqueid": "MTK2452:3I7DHKZYGO7U8FM39MO1GX30UAX5FE", "dateTime": 1517258137329}, {"current_trial": 201, "trialdata": {"rt": -1000, "trial_type": "single-audio", "word": "camel", "stimulus": "/static/audio/wordpool/CAMEL.wav", "conditions": [24, 1600, "a", 24000], "internal_node_id": "0.0-147.0", "trial": 5, "time_elapsed": 1242649, "serialpos": 16, "key_press": -1, "wordID": 222, "type": "PRES_AUD", "trial_index": 201}, "uniqueid": "MTK2452:3I7DHKZYGO7U8FM39MO1GX30UAX5FE", "dateTime": 1517258140094}, {"current_trial": 202, "trialdata": {"rt": -1000, "trial_type": "single-audio", "word": "outfit", "stimulus": "/static/audio/wordpool/OUTFIT.wav", "conditions": [24, 1600, "a", 24000], "internal_node_id": "0.0-148.0", "trial": 5, "time_elapsed": 1245277, "serialpos": 17, "key_press": -1, "wordID": 987, "type": "PRES_AUD", "trial_index": 202}, "uniqueid": "MTK2452:3I7DHKZYGO7U8FM39MO1GX30UAX5FE", "dateTime": 1517258142723}, {"current_trial": 203, "trialdata": {"rt": -1000, "trial_type": "single-audio", "word": "window", "stimulus": "/static/audio/wordpool/WINDOW.wav", "conditions": [24, 1600, "a", 24000], "internal_node_id": "0.0-149.0", "trial": 5, "time_elapsed": 1247707, "serialpos": 18, "key_press": -1, "wordID": 1610, "type": "PRES_AUD", "trial_index": 203}, "uniqueid": "MTK2452:3I7DHKZYGO7U8FM39MO1GX30UAX5FE", "dateTime": 1517258145152}, {"current_trial": 204, "trialdata": {"rt": -1000, "trial_type": "single-audio", "word": "daughter", "stimulus": "/static/audio/wordpool/DAUGHTER.wav", "conditions": [24, 1600, "a", 24000], "internal_node_id": "0.0-150.0", "trial": 5, "time_elapsed": 1250463, "serialpos": 19, "key_press": -1, "wordID": 441, "type": "PRES_AUD", "trial_index": 204}, "uniqueid": "MTK2452:3I7DHKZYGO7U8FM39MO1GX30UAX5FE", "dateTime": 1517258147908}, {"current_trial": 205, "trialdata": {"rt": -1000, "trial_type": "single-audio", "word": "college", "stimulus": "/static/audio/wordpool/COLLEGE.wav", "conditions": [24, 1600, "a", 24000], "internal_node_id": "0.0-151.0", "trial": 5, "time_elapsed": 1252984, "serialpos": 20, "key_press": -1, "wordID": 345, "type": "PRES_AUD", "trial_index": 205}, "uniqueid": "MTK2452:3I7DHKZYGO7U8FM39MO1GX30UAX5FE", "dateTime": 1517258150429}, {"current_trial": 206, "trialdata": {"rt": -1000, "trial_type": "single-audio", "word": "softball", "stimulus": "/static/audio/wordpool/SOFTBALL.wav", "conditions": [24, 1600, "a", 24000], "internal_node_id": "0.0-152.0", "trial": 5, "time_elapsed": 1255783, "serialpos": 21, "key_press": -1, "wordID": 1342, "type": "PRES_AUD", "trial_index": 206}, "uniqueid": "MTK2452:3I7DHKZYGO7U8FM39MO1GX30UAX5FE", "dateTime": 1517258153228}, {"current_trial": 207, "trialdata": {"rt": -1000, "trial_type": "single-audio", "word": "puddle", "stimulus": "/static/audio/wordpool/PUDDLE.wav", "conditions": [24, 1600, "a", 24000], "internal_node_id": "0.0-153.0", "trial": 5, "time_elapsed": 1258524, "serialpos": 22, "key_press": -1, "wordID": 1139, "type": "PRES_AUD", "trial_index": 207}, "uniqueid": "MTK2452:3I7DHKZYGO7U8FM39MO1GX30UAX5FE", "dateTime": 1517258155969}, {"current_trial": 208, "trialdata": {"rt": -1000, "trial_type": "single-audio", "word": "piston", "stimulus": "/static/audio/wordpool/PISTON.wav", "conditions": [24, 1600, "a", 24000], "internal_node_id": "0.0-154.0", "trial": 5, "time_elapsed": 1261198, "serialpos": 23, "key_press": -1, "wordID": 1075, "type": "PRES_AUD", "trial_index": 208}, "uniqueid": "MTK2452:3I7DHKZYGO7U8FM39MO1GX30UAX5FE", "dateTime": 1517258158643}, {"current_trial": 209, "trialdata": {"rt": -1, "trial_type": "single-stim", "stimulus": "", "internal_node_id": "0.0-155.0-0.0", "time_elapsed": 1262508, "key_press": -1, "type": "PRE_RECALL_DELAY", "trial_index": 209}, "uniqueid": "MTK2452:3I7DHKZYGO7U8FM39MO1GX30UAX5FE", "dateTime": 1517258159953}, {"current_trial": 210, "trialdata": {"rt": -1000, "trial_type": "single-audio", "stimulus": "/static/audio/400Hz.wav", "internal_node_id": "0.0-156.0", "time_elapsed": 1263011, "key_press": -1, "type": "PRE_RECALL_ALERT", "trial_index": 210}, "uniqueid": "MTK2452:3I7DHKZYGO7U8FM39MO1GX30UAX5FE", "dateTime": 1517258160457}, {"current_trial": 211, "trialdata": {"rt": [5354, 6991, 9043, 10669, 12109, 18194], "recwords": ["piston", "college", "softball", "cuddle", "window", "child"], "key_times": [4576, 4735, 4890, 5035, 5102, 5171, 5354, 5798, 5908, 6201, 6398, 6503, 6681, 6856, 6991, 7393, 7521, 7719, 8018, 8426, 8576, 8668, 8828, 9043, 9880, 9960, 10122, 10282, 10382, 10507, 10669, 11239, 11360, 11469, 11592, 11726, 11874, 12109, 17479, 17623, 17708, 17862, 17969, 18194], "trial_type": "free-recall", "conditions": [24, 1600, "a", 24000], "internal_node_id": "0.0-157.0-0.0", "key_presses": [80, 73, 83, 84, 79, 78, 13, 67, 79, 76, 76, 69, 71, 69, 13, 83, 79, 70, 84, 66, 65, 76, 76, 13, 67, 85, 68, 68, 76, 69, 13, 87, 73, 78, 68, 79, 87, 13, 67, 72, 73, 76, 68, 13], "trial": 5, "time_elapsed": 1323014, "type": "FREE_RECALL", "trial_index": 211}, "uniqueid": "MTK2452:3I7DHKZYGO7U8FM39MO1GX30UAX5FE", "dateTime": 1517258220466}, {"current_trial": 212, "trialdata": {"rt": 6422, "trial_type": "text", "internal_node_id": "0.0-158.0", "time_elapsed": 1331444, "key_press": 13, "type": "INSTRUCTIONS", "trial_index": 212}, "uniqueid": "MTK2452:3I7DHKZYGO7U8FM39MO1GX30UAX5FE", "dateTime": 1517258228890}, {"current_trial": 213, "trialdata": {"rt": [2804, 6401, 9105, 11724], "trial_type": "math-distractor", "key_times": [2262, 2521, 2804, 5811, 6146, 6401, 8562, 8852, 9105, 11176, 11436, 11724], "responses": ["16", "19", "14", "13"], "num2": [8, 5, 5, 2, 1], "num3": [4, 7, 6, 6, 7], "conditions": [12, 1600, "a", 12000], "internal_node_id": "0.0-159.0", "key_presses": [97, 102, 13, 97, 105, 13, 97, 100, 13, 97, 99, 13], "trial": 6, "time_elapsed": 1345448, "type": "DISTRACTOR", "trial_index": 213, "num1": [4, 8, 3, 5, 1]}, "uniqueid": "MTK2452:3I7DHKZYGO7U8FM39MO1GX30UAX5FE", "dateTime": 1517258242893}, {"current_trial": 214, "trialdata": {"rt": -1, "trial_type": "single-stim", "stimulus": "<p id=\"stim\">10</p>", "internal_node_id": "0.0-160.0-0.0", "time_elapsed": 1348450, "key_press": -1, "trial_index": 214}, "uniqueid": "MTK2452:3I7DHKZYGO7U8FM39MO1GX30UAX5FE", "dateTime": 1517258245896}, {"current_trial": 215, "trialdata": {"rt": -1, "trial_type": "single-stim", "stimulus": "<p id=\"stim\">9</p>", "internal_node_id": "0.0-160.0-1.0", "time_elapsed": 1349452, "key_press": -1, "trial_index": 215}, "uniqueid": "MTK2452:3I7DHKZYGO7U8FM39MO1GX30UAX5FE", "dateTime": 1517258246897}, {"current_trial": 216, "trialdata": {"rt": -1, "trial_type": "single-stim", "stimulus": "<p id=\"stim\">8</p>", "internal_node_id": "0.0-160.0-2.0", "time_elapsed": 1350454, "key_press": -1, "trial_index": 216}, "uniqueid": "MTK2452:3I7DHKZYGO7U8FM39MO1GX30UAX5FE", "dateTime": 1517258247899}, {"current_trial": 217, "trialdata": {"rt": -1, "trial_type": "single-stim", "stimulus": "<p id=\"stim\">7</p>", "internal_node_id": "0.0-160.0-3.0", "time_elapsed": 1351457, "key_press": -1, "trial_index": 217}, "uniqueid": "MTK2452:3I7DHKZYGO7U8FM39MO1GX30UAX5FE", "dateTime": 1517258248902}, {"current_trial": 218, "trialdata": {"rt": -1, "trial_type": "single-stim", "stimulus": "<p id=\"stim\">6</p>", "internal_node_id": "0.0-160.0-4.0", "time_elapsed": 1352459, "key_press": -1, "trial_index": 218}, "uniqueid": "MTK2452:3I7DHKZYGO7U8FM39MO1GX30UAX5FE", "dateTime": 1517258249904}, {"current_trial": 219, "trialdata": {"rt": -1, "trial_type": "single-stim", "stimulus": "<p id=\"stim\">5</p>", "internal_node_id": "0.0-160.0-5.0", "time_elapsed": 1353460, "key_press": -1, "trial_index": 219}, "uniqueid": "MTK2452:3I7DHKZYGO7U8FM39MO1GX30UAX5FE", "dateTime": 1517258250905}, {"current_trial": 220, "trialdata": {"rt": -1, "trial_type": "single-stim", "stimulus": "<p id=\"stim\">4</p>", "internal_node_id": "0.0-160.0-6.0", "time_elapsed": 1354461, "key_press": -1, "trial_index": 220}, "uniqueid": "MTK2452:3I7DHKZYGO7U8FM39MO1GX30UAX5FE", "dateTime": 1517258251906}, {"current_trial": 221, "trialdata": {"rt": -1, "trial_type": "single-stim", "stimulus": "<p id=\"stim\">3</p>", "internal_node_id": "0.0-160.0-7.0", "time_elapsed": 1355463, "key_press": -1, "trial_index": 221}, "uniqueid": "MTK2452:3I7DHKZYGO7U8FM39MO1GX30UAX5FE", "dateTime": 1517258252908}, {"current_trial": 222, "trialdata": {"rt": -1, "trial_type": "single-stim", "stimulus": "<p id=\"stim\">2</p>", "internal_node_id": "0.0-160.0-8.0", "time_elapsed": 1356465, "key_press": -1, "trial_index": 222}, "uniqueid": "MTK2452:3I7DHKZYGO7U8FM39MO1GX30UAX5FE", "dateTime": 1517258253910}, {"current_trial": 223, "trialdata": {"rt": -1, "trial_type": "single-stim", "stimulus": "<p id=\"stim\">1</p>", "internal_node_id": "0.0-160.0-9.0", "time_elapsed": 1357466, "key_press": -1, "trial_index": 223}, "uniqueid": "MTK2452:3I7DHKZYGO7U8FM39MO1GX30UAX5FE", "dateTime": 1517258254911}, {"current_trial": 224, "trialdata": {"rt": -1, "trial_type": "single-stim", "stimulus": "<p id=\"stim\">+</p>", "internal_node_id": "0.0-161.0-0.0", "time_elapsed": 1358967, "key_press": -1, "type": "FIXATION", "trial_index": 224}, "uniqueid": "MTK2452:3I7DHKZYGO7U8FM39MO1GX30UAX5FE", "dateTime": 1517258256412}, {"current_trial": 225, "trialdata": {"rt": -1000, "trial_type": "single-audio", "word": "chest", "stimulus": "/static/audio/wordpool/CHEST.wav", "conditions": [12, 1600, "a", 12000], "internal_node_id": "0.0-162.0", "trial": 6, "time_elapsed": 1361645, "serialpos": 0, "key_press": -1, "wordID": 294, "type": "PRES_AUD", "trial_index": 225}, "uniqueid": "MTK2452:3I7DHKZYGO7U8FM39MO1GX30UAX5FE", "dateTime": 1517258259090}, {"current_trial": 226, "trialdata": {"rt": -1000, "trial_type": "single-audio", "word": "banjo", "stimulus": "/static/audio/wordpool/BANJO.wav", "conditions": [12, 1600, "a", 12000], "internal_node_id": "0.0-163.0", "trial": 6, "time_elapsed": 1364321, "serialpos": 1, "key_press": -1, "wordID": 81, "type": "PRES_AUD", "trial_index": 226}, "uniqueid": "MTK2452:3I7DHKZYGO7U8FM39MO1GX30UAX5FE", "dateTime": 1517258261766}, {"current_trial": 227, "trialdata": {"rt": -1000, "trial_type": "single-audio", "word": "harp", "stimulus": "/static/audio/wordpool/HARP.wav", "conditions": [12, 1600, "a", 12000], "internal_node_id": "0.0-164.0", "trial": 6, "time_elapsed": 1366966, "serialpos": 2, "key_press": -1, "wordID": 688, "type": "PRES_AUD", "trial_index": 227}, "uniqueid": "MTK2452:3I7DHKZYGO7U8FM39MO1GX30UAX5FE", "dateTime": 1517258264411}, {"current_trial": 228, "trialdata": {"rt": -1000, "trial_type": "single-audio", "word": "seal", "stimulus": "/static/audio/wordpool/SEAL.wav", "conditions": [12, 1600, "a", 12000], "internal_node_id": "0.0-165.0", "trial": 6, "time_elapsed": 1369552, "serialpos": 3, "key_press": -1, "wordID": 1261, "type": "PRES_AUD", "trial_index": 228}, "uniqueid": "MTK2452:3I7DHKZYGO7U8FM39MO1GX30UAX5FE", "dateTime": 1517258266997}, {"current_trial": 229, "trialdata": {"rt": -1000, "trial_type": "single-audio", "word": "liver", "stimulus": "/static/audio/wordpool/LIVER.wav", "conditions": [12, 1600, "a", 12000], "internal_node_id": "0.0-166.0", "trial": 6, "time_elapsed": 1372179, "serialpos": 4, "key_press": -1, "wordID": 832, "type": "PRES_AUD", "trial_index": 229}, "uniqueid": "MTK2452:3I7DHKZYGO7U8FM39MO1GX30UAX5FE", "dateTime": 1517258269625}, {"current_trial": 230, "trialdata": {"rt": -1000, "trial_type": "single-audio", "word": "champagne", "stimulus": "/static/audio/wordpool/CHAMPAGNE.wav", "conditions": [12, 1600, "a", 12000], "internal_node_id": "0.0-167.0", "trial": 6, "time_elapsed": 1374798, "serialpos": 5, "key_press": -1, "wordID": 277, "type": "PRES_AUD", "trial_index": 230}, "uniqueid": "MTK2452:3I7DHKZYGO7U8FM39MO1GX30UAX5FE", "dateTime": 1517258272243}, {"current_trial": 231, "trialdata": {"rt": -1000, "trial_type": "single-audio", "word": "actor", "stimulus": "/static/audio/wordpool/ACTOR.wav", "conditions": [12, 1600, "a", 12000], "internal_node_id": "0.0-168.0", "trial": 6, "time_elapsed": 1377398, "serialpos": 6, "key_press": -1, "wordID": 4, "type": "PRES_AUD", "trial_index": 231}, "uniqueid": "MTK2452:3I7DHKZYGO7U8FM39MO1GX30UAX5FE", "dateTime": 1517258274843}, {"current_trial": 232, "trialdata": {"rt": -1000, "trial_type": "single-audio", "word": "office", "stimulus": "/static/audio/wordpool/OFFICE.wav", "conditions": [12, 1600, "a", 12000], "internal_node_id": "0.0-169.0", "trial": 6, "time_elapsed": 1380077, "serialpos": 7, "key_press": -1, "wordID": 971, "type": "PRES_AUD", "trial_index": 232}, "uniqueid": "MTK2452:3I7DHKZYGO7U8FM39MO1GX30UAX5FE", "dateTime": 1517258277522}, {"current_trial": 233, "trialdata": {"rt": -1000, "trial_type": "single-audio", "word": "cross", "stimulus": "/static/audio/wordpool/CROSS.wav", "conditions": [12, 1600, "a", 12000], "internal_node_id": "0.0-170.0", "trial": 6, "time_elapsed": 1382551, "serialpos": 8, "key_press": -1, "wordID": 412, "type": "PRES_AUD", "trial_index": 233}, "uniqueid": "MTK2452:3I7DHKZYGO7U8FM39MO1GX30UAX5FE", "dateTime": 1517258279997}, {"current_trial": 234, "trialdata": {"rt": -1000, "trial_type": "single-audio", "word": "kidney", "stimulus": "/static/audio/wordpool/KIDNEY.wav", "conditions": [12, 1600, "a", 12000], "internal_node_id": "0.0-171.0", "trial": 6, "time_elapsed": 1384953, "serialpos": 9, "key_press": -1, "wordID": 775, "type": "PRES_AUD", "trial_index": 234}, "uniqueid": "MTK2452:3I7DHKZYGO7U8FM39MO1GX30UAX5FE", "dateTime": 1517258282398}, {"current_trial": 235, "trialdata": {"rt": -1000, "trial_type": "single-audio", "word": "slide", "stimulus": "/static/audio/wordpool/SLIDE.wav", "conditions": [12, 1600, "a", 12000], "internal_node_id": "0.0-172.0", "trial": 6, "time_elapsed": 1387380, "serialpos": 10, "key_press": -1, "wordID": 1325, "type": "PRES_AUD", "trial_index": 235}, "uniqueid": "MTK2452:3I7DHKZYGO7U8FM39MO1GX30UAX5FE", "dateTime": 1517258284825}, {"current_trial": 236, "trialdata": {"rt": -1000, "trial_type": "single-audio", "word": "snake", "stimulus": "/static/audio/wordpool/SNAKE.wav", "conditions": [12, 1600, "a", 12000], "internal_node_id": "0.0-173.0", "trial": 6, "time_elapsed": 1390091, "serialpos": 11, "key_press": -1, "wordID": 1332, "type": "PRES_AUD", "trial_index": 236}, "uniqueid": "MTK2452:3I7DHKZYGO7U8FM39MO1GX30UAX5FE", "dateTime": 1517258287536}, {"current_trial": 237, "trialdata": {"rt": -1, "trial_type": "single-stim", "stimulus": "", "internal_node_id": "0.0-174.0-0.0", "time_elapsed": 1391490, "key_press": -1, "type": "PRE_RECALL_DELAY", "trial_index": 237}, "uniqueid": "MTK2452:3I7DHKZYGO7U8FM39MO1GX30UAX5FE", "dateTime": 1517258288935}, {"current_trial": 238, "trialdata": {"rt": -1000, "trial_type": "single-audio", "stimulus": "/static/audio/400Hz.wav", "internal_node_id": "0.0-175.0", "time_elapsed": 1391999, "key_press": -1, "type": "PRE_RECALL_ALERT", "trial_index": 238}, "uniqueid": "MTK2452:3I7DHKZYGO7U8FM39MO1GX30UAX5FE", "dateTime": 1517258289444}, {"current_trial": 239, "trialdata": {"rt": [7189, 10050, 12083, 14600, 17174, 20546, 22880], "recwords": ["liver", "kidney", "cross", "slime", "snake", "harp", "cross"], "key_times": [1598, 1912, 2289, 2620, 2797, 2824, 3937, 4095, 4702, 7189, 7714, 7919, 8360, 8870, 9243, 9598, 10050, 10518, 10803, 11188, 11518, 11659, 12083, 12741, 13234, 13463, 13751, 14136, 14600, 15072, 15603, 15999, 16430, 16749, 17174, 18784, 19171, 19382, 19787, 20546, 21206, 21400, 21874, 22273, 22406, 22880], "trial_type": "free-recall", "conditions": [12, 1600, "a", 12000], "internal_node_id": "0.0-176.0-0.0", "key_presses": [76, 73, 86, 69, 69, 82, 8, 8, 82, 13, 75, 73, 68, 78, 69, 89, 13, 67, 82, 79, 83, 83, 13, 83, 76, 73, 77, 69, 13, 83, 78, 65, 75, 69, 13, 72, 65, 82, 80, 13, 67, 82, 79, 83, 83, 13], "trial": 6, "time_elapsed": 1452002, "type": "FREE_RECALL", "trial_index": 239}, "uniqueid": "MTK2452:3I7DHKZYGO7U8FM39MO1GX30UAX5FE", "dateTime": 1517258349452}, {"current_trial": 240, "trialdata": {"rt": 4501, "trial_type": "text", "internal_node_id": "0.0-177.0", "time_elapsed": 1458509, "key_press": 13, "type": "INSTRUCTIONS", "trial_index": 240}, "uniqueid": "MTK2452:3I7DHKZYGO7U8FM39MO1GX30UAX5FE", "dateTime": 1517258355954}, {"current_trial": 241, "trialdata": {"rt": [2487, 5530, 8474, 10988], "trial_type": "math-distractor", "key_times": [2046, 2189, 2487, 5124, 5277, 5530, 7907, 8151, 8474, 10537, 10697, 10988], "responses": ["11", "22", "17", "11"], "num2": [5, 5, 9, 3, 3], "num3": [4, 8, 3, 1, 6], "conditions": [24, 1600, "a", 12000], "internal_node_id": "0.0-178.0", "key_presses": [97, 97, 13, 98, 98, 13, 97, 103, 13, 97, 97, 13], "trial": 7, "time_elapsed": 1472512, "type": "DISTRACTOR", "trial_index": 241, "num1": [2, 9, 5, 7, 9]}, "uniqueid": "MTK2452:3I7DHKZYGO7U8FM39MO1GX30UAX5FE", "dateTime": 1517258369957}, {"current_trial": 242, "trialdata": {"rt": -1, "trial_type": "single-stim", "stimulus": "<p id=\"stim\">10</p>", "internal_node_id": "0.0-179.0-0.0", "time_elapsed": 1475513, "key_press": -1, "trial_index": 242}, "uniqueid": "MTK2452:3I7DHKZYGO7U8FM39MO1GX30UAX5FE", "dateTime": 1517258372958}, {"current_trial": 243, "trialdata": {"rt": -1, "trial_type": "single-stim", "stimulus": "<p id=\"stim\">9</p>", "internal_node_id": "0.0-179.0-1.0", "time_elapsed": 1476514, "key_press": -1, "trial_index": 243}, "uniqueid": "MTK2452:3I7DHKZYGO7U8FM39MO1GX30UAX5FE", "dateTime": 1517258373959}, {"current_trial": 244, "trialdata": {"rt": -1, "trial_type": "single-stim", "stimulus": "<p id=\"stim\">8</p>", "internal_node_id": "0.0-179.0-2.0", "time_elapsed": 1477519, "key_press": -1, "trial_index": 244}, "uniqueid": "MTK2452:3I7DHKZYGO7U8FM39MO1GX30UAX5FE", "dateTime": 1517258374964}, {"current_trial": 245, "trialdata": {"rt": -1, "trial_type": "single-stim", "stimulus": "<p id=\"stim\">7</p>", "internal_node_id": "0.0-179.0-3.0", "time_elapsed": 1478522, "key_press": -1, "trial_index": 245}, "uniqueid": "MTK2452:3I7DHKZYGO7U8FM39MO1GX30UAX5FE", "dateTime": 1517258375967}, {"current_trial": 246, "trialdata": {"rt": -1, "trial_type": "single-stim", "stimulus": "<p id=\"stim\">6</p>", "internal_node_id": "0.0-179.0-4.0", "time_elapsed": 1479523, "key_press": -1, "trial_index": 246}, "uniqueid": "MTK2452:3I7DHKZYGO7U8FM39MO1GX30UAX5FE", "dateTime": 1517258376968}, {"current_trial": 247, "trialdata": {"rt": -1, "trial_type": "single-stim", "stimulus": "<p id=\"stim\">5</p>", "internal_node_id": "0.0-179.0-5.0", "time_elapsed": 1480524, "key_press": -1, "trial_index": 247}, "uniqueid": "MTK2452:3I7DHKZYGO7U8FM39MO1GX30UAX5FE", "dateTime": 1517258377969}, {"current_trial": 248, "trialdata": {"rt": -1, "trial_type": "single-stim", "stimulus": "<p id=\"stim\">4</p>", "internal_node_id": "0.0-179.0-6.0", "time_elapsed": 1481525, "key_press": -1, "trial_index": 248}, "uniqueid": "MTK2452:3I7DHKZYGO7U8FM39MO1GX30UAX5FE", "dateTime": 1517258378971}, {"current_trial": 249, "trialdata": {"rt": -1, "trial_type": "single-stim", "stimulus": "<p id=\"stim\">3</p>", "internal_node_id": "0.0-179.0-7.0", "time_elapsed": 1482527, "key_press": -1, "trial_index": 249}, "uniqueid": "MTK2452:3I7DHKZYGO7U8FM39MO1GX30UAX5FE", "dateTime": 1517258379972}, {"current_trial": 250, "trialdata": {"rt": -1, "trial_type": "single-stim", "stimulus": "<p id=\"stim\">2</p>", "internal_node_id": "0.0-179.0-8.0", "time_elapsed": 1483528, "key_press": -1, "trial_index": 250}, "uniqueid": "MTK2452:3I7DHKZYGO7U8FM39MO1GX30UAX5FE", "dateTime": 1517258380973}, {"current_trial": 251, "trialdata": {"rt": -1, "trial_type": "single-stim", "stimulus": "<p id=\"stim\">1</p>", "internal_node_id": "0.0-179.0-9.0", "time_elapsed": 1484530, "key_press": -1, "trial_index": 251}, "uniqueid": "MTK2452:3I7DHKZYGO7U8FM39MO1GX30UAX5FE", "dateTime": 1517258381975}, {"current_trial": 252, "trialdata": {"rt": -1, "trial_type": "single-stim", "stimulus": "<p id=\"stim\">+</p>", "internal_node_id": "0.0-180.0-0.0", "time_elapsed": 1486032, "key_press": -1, "type": "FIXATION", "trial_index": 252}, "uniqueid": "MTK2452:3I7DHKZYGO7U8FM39MO1GX30UAX5FE", "dateTime": 1517258383477}, {"current_trial": 253, "trialdata": {"rt": -1000, "trial_type": "single-audio", "word": "sticker", "stimulus": "/static/audio/wordpool/STICKER.wav", "conditions": [24, 1600, "a", 12000], "internal_node_id": "0.0-181.0", "trial": 7, "time_elapsed": 1488813, "serialpos": 0, "key_press": -1, "wordID": 1381, "type": "PRES_AUD", "trial_index": 253}, "uniqueid": "MTK2452:3I7DHKZYGO7U8FM39MO1GX30UAX5FE", "dateTime": 1517258386258}, {"current_trial": 254, "trialdata": {"rt": -1000, "trial_type": "single-audio", "word": "pistol", "stimulus": "/static/audio/wordpool/PISTOL.wav", "conditions": [24, 1