{"assignmentId": "3URFVVM166PHYB3IBZQGR1BY6FMZUJ", "workerId": "MTK2654", "questiondata": {"origin": "United States", "strat-rehearsal": "0", "marital": "Single", "education": "Bachelor's degree", "ethnicity": "Not Hispanic", "color_depth": 24, "distracted": "No", "wrote-notes": "Yes", "strat-other": "", "screen_width": 1334, "avail_screen_width": 1334, "avail_screen_height": 849, "strat-image": "10", "language": "English", "gender": "Female", "age": "22", "gender_other": "", "race": ["American Indian/Alaskan Native"], "strat-categorize": "79", "pixel_depth": 24, "strat-spatial": "13", "strat-story": "1", "race_other": "", "screen_height": 889}, "bonus": 0, "hitId": "3W9XHF7WGK25MJRDLRSUA65ZZMOTKF", "counterbalance": 641, "useragent": "Mozilla/5.0 (Windows NT 10.0; Win64; x64) AppleWebKit/537.36 (KHTML, like Gecko) Chrome/63.0.3239.132 Safari/537.36", "eventdata": [{"eventtype": "initialized", "interval": 0, "value": null, "timestamp": 1519192420221}, {"eventtype": "window_resize", "interval": 0, "value": [1336, 840], "timestamp": 1519192420221}, {"eventtype": "focus", "interval": 3177, "value": "off", "timestamp": 1519192423398}, {"eventtype": "focus", "interval": 286684, "value": "on", "timestamp": 1519192710082}, {"eventtype": "focus", "interval": 1591325, "value": "off", "timestamp": 1519194301407}, {"eventtype": "focus", "interval": 7115, "value": "on", "timestamp": 1519194308522}, {"eventtype": "focus", "interval": 855619, "value": "off", "timestamp": 1519195164141}, {"eventtype": "focus", "interval": 2142, "value": "on", "timestamp": 1519195166283}], "data": [{"current_trial": 0, "trialdata": {"rt": 290252, "trial_type": "text", "internal_node_id": "0.0-0.0", "time_elapsed": 290259, "key_press": 32, "type": "INSTRUCTIONS", "trial_index": 0}, "uniqueid": "MTK2654:3URFVVM166PHYB3IBZQGR1BY6FMZUJ", "dateTime": 1519192711462}, {"current_trial": 1, "trialdata": {"rt": 11103, "trial_type": "text", "internal_node_id": "0.0-1.0", "time_elapsed": 301367, "key_press": 32, "type": "INSTRUCTIONS", "trial_index": 1}, "uniqueid": "MTK2654:3URFVVM166PHYB3IBZQGR1BY6FMZUJ", "dateTime": 1519192722569}, {"current_trial": 2, "trialdata": {"rt": [6988], "trial_type": "audio-test", "responses": ["ocean"], "internal_node_id": "0.0-2.0", "time_elapsed": 308384, "type": "AUDIO_TEST", "trial_index": 2}, "uniqueid": "MTK2654:3URFVVM166PHYB3IBZQGR1BY6FMZUJ", "dateTime": 1519192729585}, {"current_trial": 3, "trialdata": {"rt": [7556], "trial_type": "audio-test", "responses": ["crystal"], "internal_node_id": "0.0-3.0", "time_elapsed": 315945, "type": "AUDIO_TEST", "trial_index": 3}, "uniqueid": "MTK2654:3URFVVM166PHYB3IBZQGR1BY6FMZUJ", "dateTime": 1519192737146}, {"current_trial": 4, "trialdata": {"rt": [4426], "trial_type": "audio-test", "responses": ["spice"], "internal_node_id": "0.0-4.0", "time_elapsed": 320374, "type": "AUDIO_TEST", "trial_index": 4}, "uniqueid": "MTK2654:3URFVVM166PHYB3IBZQGR1BY6FMZUJ", "dateTime": 1519192741575}, {"current_trial": 5, "trialdata": {"rt": 25415, "trial_type": "survey-text", "responses": "{\"Q0\":\"12 AM\",\"Q1\":\"8 AM\",\"Q2\":\"4\"}", "internal_node_id": "0.0-5.0", "time_elapsed": 346542, "type": "SLEEP_SURVEY", "trial_index": 5}, "uniqueid": "MTK2654:3URFVVM166PHYB3IBZQGR1BY6FMZUJ", "dateTime": 1519192767743}, {"current_trial": 6, "trialdata": {"rt": 32375, "trial_type": "text", "internal_node_id": "0.0-6.0", "time_elapsed": 379919, "key_press": 32, "type": "INSTRUCTIONS", "trial_index": 6}, "uniqueid": "MTK2654:3URFVVM166PHYB3IBZQGR1BY6FMZUJ", "dateTime": 1519192801120}, {"current_trial": 7, "trialdata": {"rt": 8044, "trial_type": "text", "internal_node_id": "0.0-7.0", "time_elapsed": 388465, "key_press": 32, "type": "INSTRUCTIONS", "trial_index": 7}, "uniqueid": "MTK2654:3URFVVM166PHYB3IBZQGR1BY6FMZUJ", "dateTime": 1519192809666}, {"current_trial": 8, "trialdata": {"rt": 7877, "trial_type": "text", "internal_node_id": "0.0-8.0", "time_elapsed": 396844, "key_press": 32, "type": "INSTRUCTIONS", "trial_index": 8}, "uniqueid": "MTK2654:3URFVVM166PHYB3IBZQGR1BY6FMZUJ", "dateTime": 1519192818045}, {"current_trial": 9, "trialdata": {"rt": [3401, 5871, 9022, 13671], "trial_type": "math-distractor", "key_times": [2843, 2993, 3401, 5323, 5573, 5871, 8385, 8635, 9022, 11411, 11753, 12293, 12993, 13671], "responses": ["11", "19", "18", "16"], "num2": [4, 7, 9, 1, 6], "num3": [1, 9, 6, 7, 9], "conditions": [18, 1200, "v", 18000], "internal_node_id": "0.0-9.0", "key_presses": [49, 49, 13, 49, 57, 13, 49, 56, 13, 49, 55, 8, 54, 13], "trial": 0, "time_elapsed": 415856, "type": "DISTRACTOR", "trial_index": 9, "num1": [6, 3, 3, 8, 1]}, "uniqueid": "MTK2654:3URFVVM166PHYB3IBZQGR1BY6FMZUJ", "dateTime": 1519192837057}, {"current_trial": 10, "trialdata": {"rt": 914, "trial_type": "single-stim", "stimulus": "<p id=\"stim\">10</p>", "internal_node_id": "0.0-10.0-0.0", "time_elapsed": 418859, "key_press": 173, "trial_index": 10}, "uniqueid": "MTK2654:3URFVVM166PHYB3IBZQGR1BY6FMZUJ", "dateTime": 1519192840061}, {"current_trial": 11, "trialdata": {"rt": 959, "trial_type": "single-stim", "stimulus": "<p id=\"stim\">9</p>", "internal_node_id": "0.0-10.0-1.0", "time_elapsed": 419861, "key_press": 173, "trial_index": 11}, "uniqueid": "MTK2654:3URFVVM166PHYB3IBZQGR1BY6FMZUJ", "dateTime": 1519192841062}, {"current_trial": 12, "trialdata": {"rt": 838, "trial_type": "single-stim", "stimulus": "<p id=\"stim\">8</p>", "internal_node_id": "0.0-10.0-2.0", "time_elapsed": 420863, "key_press": 179, "trial_index": 12}, "uniqueid": "MTK2654:3URFVVM166PHYB3IBZQGR1BY6FMZUJ", "dateTime": 1519192842064}, {"current_trial": 13, "trialdata": {"rt": -1, "trial_type": "single-stim", "stimulus": "<p id=\"stim\">7</p>", "internal_node_id": "0.0-10.0-3.0", "time_elapsed": 421866, "key_press": -1, "trial_index": 13}, "uniqueid": "MTK2654:3URFVVM166PHYB3IBZQGR1BY6FMZUJ", "dateTime": 1519192843067}, {"current_trial": 14, "trialdata": {"rt": -1, "trial_type": "single-stim", "stimulus": "<p id=\"stim\">6</p>", "internal_node_id": "0.0-10.0-4.0", "time_elapsed": 422868, "key_press": -1, "trial_index": 14}, "uniqueid": "MTK2654:3URFVVM166PHYB3IBZQGR1BY6FMZUJ", "dateTime": 1519192844070}, {"current_trial": 15, "trialdata": {"rt": -1, "trial_type": "single-stim", "stimulus": "<p id=\"stim\">5</p>", "internal_node_id": "0.0-10.0-5.0", "time_elapsed": 423874, "key_press": -1, "trial_index": 15}, "uniqueid": "MTK2654:3URFVVM166PHYB3IBZQGR1BY6FMZUJ", "dateTime": 1519192845075}, {"current_trial": 16, "trialdata": {"rt": -1, "trial_type": "single-stim", "stimulus": "<p id=\"stim\">4</p>", "internal_node_id": "0.0-10.0-6.0", "time_elapsed": 424876, "key_press": -1, "trial_index": 16}, "uniqueid": "MTK2654:3URFVVM166PHYB3IBZQGR1BY6FMZUJ", "dateTime": 1519192846077}, {"current_trial": 17, "trialdata": {"rt": -1, "trial_type": "single-stim", "stimulus": "<p id=\"stim\">3</p>", "internal_node_id": "0.0-10.0-7.0", "time_elapsed": 425877, "key_press": -1, "trial_index": 17}, "uniqueid": "MTK2654:3URFVVM166PHYB3IBZQGR1BY6FMZUJ", "dateTime": 1519192847078}, {"current_trial": 18, "trialdata": {"rt": -1, "trial_type": "single-stim", "stimulus": "<p id=\"stim\">2</p>", "internal_node_id": "0.0-10.0-8.0", "time_elapsed": 426879, "key_press": -1, "trial_index": 18}, "uniqueid": "MTK2654:3URFVVM166PHYB3IBZQGR1BY6FMZUJ", "dateTime": 1519192848080}, {"current_trial": 19, "trialdata": {"rt": -1, "trial_type": "single-stim", "stimulus": "<p id=\"stim\">1</p>", "internal_node_id": "0.0-10.0-9.0", "time_elapsed": 427881, "key_press": -1, "trial_index": 19}, "uniqueid": "MTK2654:3URFVVM166PHYB3IBZQGR1BY6FMZUJ", "dateTime": 1519192849083}, {"current_trial": 20, "trialdata": {"rt": -1, "trial_type": "single-stim", "stimulus": "<p id=\"stim\">+</p>", "internal_node_id": "0.0-11.0-0.0", "time_elapsed": 429384, "key_press": -1, "type": "FIXATION", "trial_index": 20}, "uniqueid": "MTK2654:3URFVVM166PHYB3IBZQGR1BY6FMZUJ", "dateTime": 1519192850585}, {"current_trial": 21, "trialdata": {"rt": -1, "trial_type": "single-stim", "word": "sunrise", "stimulus": "<p id=\"stim\">SUNRISE</p>", "conditions": [18, 1200, "v", 18000], "internal_node_id": "0.0-12.0", "trial": 0, "time_elapsed": 430586, "serialpos": 0, "key_press": -1, "wordID": 1406, "type": "PRES_VIS", "trial_index": 21}, "uniqueid": "MTK2654:3URFVVM166PHYB3IBZQGR1BY6FMZUJ", "dateTime": 1519192851788}, {"current_trial": 22, "trialdata": {"rt": -1, "trial_type": "single-stim", "word": "wasp", "stimulus": "<p id=\"stim\">WASP</p>", "conditions": [18, 1200, "v", 18000], "internal_node_id": "0.0-13.0", "trial": 0, "time_elapsed": 432592, "serialpos": 1, "key_press": -1, "wordID": 1592, "type": "PRES_VIS", "trial_index": 22}, "uniqueid": "MTK2654:3URFVVM166PHYB3IBZQGR1BY6FMZUJ", "dateTime": 1519192853793}, {"current_trial": 23, "trialdata": {"rt": -1, "trial_type": "single-stim", "word": "cigar", "stimulus": "<p id=\"stim\">CIGAR</p>", "conditions": [18, 1200, "v", 18000], "internal_node_id": "0.0-14.0", "trial": 0, "time_elapsed": 434767, "serialpos": 2, "key_press": -1, "wordID": 307, "type": "PRES_VIS", "trial_index": 23}, "uniqueid": "MTK2654:3URFVVM166PHYB3IBZQGR1BY6FMZUJ", "dateTime": 1519192855969}, {"current_trial": 24, "trialdata": {"rt": -1, "trial_type": "single-stim", "word": "eyelash", "stimulus": "<p id=\"stim\">EYELASH</p>", "conditions": [18, 1200, "v", 18000], "internal_node_id": "0.0-15.0", "trial": 0, "time_elapsed": 436981, "serialpos": 3, "key_press": -1, "wordID": 545, "type": "PRES_VIS", "trial_index": 24}, "uniqueid": "MTK2654:3URFVVM166PHYB3IBZQGR1BY6FMZUJ", "dateTime": 1519192858182}, {"current_trial": 25, "trialdata": {"rt": -1, "trial_type": "single-stim", "word": "lettuce", "stimulus": "<p id=\"stim\">LETTUCE</p>", "conditions": [18, 1200, "v", 18000], "internal_node_id": "0.0-16.0", "trial": 0, "time_elapsed": 439340, "serialpos": 4, "key_press": -1, "wordID": 813, "type": "PRES_VIS", "trial_index": 25}, "uniqueid": "MTK2654:3URFVVM166PHYB3IBZQGR1BY6FMZUJ", "dateTime": 1519192860541}, {"current_trial": 26, "trialdata": {"rt": -1, "trial_type": "single-stim", "word": "panther", "stimulus": "<p id=\"stim\">PANTHER</p>", "conditions": [18, 1200, "v", 18000], "internal_node_id": "0.0-17.0", "trial": 0, "time_elapsed": 441365, "serialpos": 5, "key_press": -1, "wordID": 1008, "type": "PRES_VIS", "trial_index": 26}, "uniqueid": "MTK2654:3URFVVM166PHYB3IBZQGR1BY6FMZUJ", "dateTime": 1519192862566}, {"current_trial": 27, "trialdata": {"rt": -1, "trial_type": "single-stim", "word": "briefcase", "stimulus": "<p id=\"stim\">BRIEFCASE</p>", "conditions": [18, 1200, "v", 18000], "internal_node_id": "0.0-18.0", "trial": 0, "time_elapsed": 443400, "serialpos": 6, "key_press": -1, "wordID": 174, "type": "PRES_VIS", "trial_index": 27}, "uniqueid": "MTK2654:3URFVVM166PHYB3IBZQGR1BY6FMZUJ", "dateTime": 1519192864601}, {"current_trial": 28, "trialdata": {"rt": -1, "trial_type": "single-stim", "word": "marker", "stimulus": "<p id=\"stim\">MARKER</p>", "conditions": [18, 1200, "v", 18000], "internal_node_id": "0.0-19.0", "trial": 0, "time_elapsed": 445429, "serialpos": 7, "key_press": -1, "wordID": 869, "type": "PRES_VIS", "trial_index": 28}, "uniqueid": "MTK2654:3URFVVM166PHYB3IBZQGR1BY6FMZUJ", "dateTime": 1519192866631}, {"current_trial": 29, "trialdata": {"rt": -1, "trial_type": "single-stim", "word": "permit", "stimulus": "<p id=\"stim\">PERMIT</p>", "conditions": [18, 1200, "v", 18000], "internal_node_id": "0.0-20.0", "trial": 0, "time_elapsed": 447468, "serialpos": 8, "key_press": -1, "wordID": 1050, "type": "PRES_VIS", "trial_index": 29}, "uniqueid": "MTK2654:3URFVVM166PHYB3IBZQGR1BY6FMZUJ", "dateTime": 1519192868669}, {"current_trial": 30, "trialdata": {"rt": -1, "trial_type": "single-stim", "word": "college", "stimulus": "<p id=\"stim\">COLLEGE</p>", "conditions": [18, 1200, "v", 18000], "internal_node_id": "0.0-21.0", "trial": 0, "time_elapsed": 449641, "serialpos": 9, "key_press": -1, "wordID": 345, "type": "PRES_VIS", "trial_index": 30}, "uniqueid": "MTK2654:3URFVVM166PHYB3IBZQGR1BY6FMZUJ", "dateTime": 1519192870843}, {"current_trial": 31, "trialdata": {"rt": -1, "trial_type": "single-stim", "word": "turnip", "stimulus": "<p id=\"stim\">TURNIP</p>", "conditions": [18, 1200, "v", 18000], "internal_node_id": "0.0-22.0", "trial": 0, "time_elapsed": 451889, "serialpos": 10, "key_press": -1, "wordID": 1520, "type": "PRES_VIS", "trial_index": 31}, "uniqueid": "MTK2654:3URFVVM166PHYB3IBZQGR1BY6FMZUJ", "dateTime": 1519192873091}, {"current_trial": 32, "trialdata": {"rt": -1, "trial_type": "single-stim", "word": "pocket", "stimulus": "<p id=\"stim\">POCKET</p>", "conditions": [18, 1200, "v", 18000], "internal_node_id": "0.0-23.0", "trial": 0, "time_elapsed": 453923, "serialpos": 11, "key_press": -1, "wordID": 1092, "type": "PRES_VIS", "trial_index": 32}, "uniqueid": "MTK2654:3URFVVM166PHYB3IBZQGR1BY6FMZUJ", "dateTime": 1519192875125}, {"current_trial": 33, "trialdata": {"rt": -1, "trial_type": "single-stim", "word": "machine", "stimulus": "<p id=\"stim\">MACHINE</p>", "conditions": [18, 1200, "v", 18000], "internal_node_id": "0.0-24.0", "trial": 0, "time_elapsed": 456256, "serialpos": 12, "key_press": -1, "wordID": 851, "type": "PRES_VIS", "trial_index": 33}, "uniqueid": "MTK2654:3URFVVM166PHYB3IBZQGR1BY6FMZUJ", "dateTime": 1519192877457}, {"current_trial": 34, "trialdata": {"rt": -1, "trial_type": "single-stim", "word": "lion", "stimulus": "<p id=\"stim\">LION</p>", "conditions": [18, 1200, "v", 18000], "internal_node_id": "0.0-25.0", "trial": 0, "time_elapsed": 458546, "serialpos": 13, "key_press": -1, "wordID": 826, "type": "PRES_VIS", "trial_index": 34}, "uniqueid": "MTK2654:3URFVVM166PHYB3IBZQGR1BY6FMZUJ", "dateTime": 1519192879748}, {"current_trial": 35, "trialdata": {"rt": -1, "trial_type": "single-stim", "word": "banjo", "stimulus": "<p id=\"stim\">BANJO</p>", "conditions": [18, 1200, "v", 18000], "internal_node_id": "0.0-26.0", "trial": 0, "time_elapsed": 460640, "serialpos": 14, "key_press": -1, "wordID": 81, "type": "PRES_VIS", "trial_index": 35}, "uniqueid": "MTK2654:3URFVVM166PHYB3IBZQGR1BY6FMZUJ", "dateTime": 1519192881841}, {"current_trial": 36, "trialdata": {"rt": -1, "trial_type": "single-stim", "word": "country", "stimulus": "<p id=\"stim\">COUNTRY</p>", "conditions": [18, 1200, "v", 18000], "internal_node_id": "0.0-27.0", "trial": 0, "time_elapsed": 462902, "serialpos": 15, "key_press": -1, "wordID": 387, "type": "PRES_VIS", "trial_index": 36}, "uniqueid": "MTK2654:3URFVVM166PHYB3IBZQGR1BY6FMZUJ", "dateTime": 1519192884103}, {"current_trial": 37, "trialdata": {"rt": -1, "trial_type": "single-stim", "word": "wardrobe", "stimulus": "<p id=\"stim\">WARDROBE</p>", "conditions": [18, 1200, "v", 18000], "internal_node_id": "0.0-28.0", "trial": 0, "time_elapsed": 465137, "serialpos": 16, "key_press": -1, "wordID": 1586, "type": "PRES_VIS", "trial_index": 37}, "uniqueid": "MTK2654:3URFVVM166PHYB3IBZQGR1BY6FMZUJ", "dateTime": 1519192886339}, {"current_trial": 38, "trialdata": {"rt": -1, "trial_type": "single-stim", "word": "outlaw", "stimulus": "<p id=\"stim\">OUTLAW</p>", "conditions": [18, 1200, "v", 18000], "internal_node_id": "0.0-29.0", "trial": 0, "time_elapsed": 467457, "serialpos": 17, "key_press": -1, "wordID": 988, "type": "PRES_VIS", "trial_index": 38}, "uniqueid": "MTK2654:3URFVVM166PHYB3IBZQGR1BY6FMZUJ", "dateTime": 1519192888658}, {"current_trial": 39, "trialdata": {"rt": -1, "trial_type": "single-stim", "stimulus": "", "internal_node_id": "0.0-30.0-0.0", "time_elapsed": 469553, "key_press": -1, "type": "PRE_RECALL_DELAY", "trial_index": 39}, "uniqueid": "MTK2654:3URFVVM166PHYB3IBZQGR1BY6FMZUJ", "dateTime": 1519192890755}, {"current_trial": 40, "trialdata": {"rt": -1000, "trial_type": "single-audio", "stimulus": "/static/audio/400Hz.wav", "internal_node_id": "0.0-31.0", "time_elapsed": 470065, "key_press": -1, "type": "PRE_RECALL_ALERT", "trial_index": 40}, "uniqueid": "MTK2654:3URFVVM166PHYB3IBZQGR1BY6FMZUJ", "dateTime": 1519192891266}, {"current_trial": 41, "trialdata": {"rt": [4544, 8234, 12987, 16955, 19744, 44484, 58743], "recwords": ["sunrise", "outlaw", "eyelash", "washer", "lion", "panther", "briefcase"], "key_times": [1416, 1497, 1657, 1776, 2166, 2356, 2546, 3336, 3456, 3727, 4544, 4906, 5114, 5437, 5569, 5877, 6065, 6224, 8234, 11195, 11356, 11507, 11666, 11817, 11917, 12007, 12205, 12987, 14056, 14224, 14498, 14584, 14747, 14937, 15084, 16955, 17296, 18026, 18534, 18557, 18602, 18634, 18657, 18684, 18947, 19113, 19256, 19744, 31547, 32047, 32079, 32112, 32145, 32176, 32209, 32243, 32277, 32310, 32343, 32377, 32409, 32443, 32475, 32508, 32541, 32577, 32607, 32640, 32673, 32706, 32739, 32772, 32806, 32836, 32869, 32905, 32938, 32969, 33004, 33037, 33069, 33102, 33138, 33166, 33199, 33233, 33265, 33298, 33331, 33364, 33397, 33431, 33463, 33496, 33530, 33563, 33597, 33630, 33664, 33696, 33730, 33763, 33795, 33828, 33860, 33893, 33927, 33961, 33994, 34027, 34060, 34092, 34127, 34158, 34189, 34222, 34256, 34290, 34324, 34356, 34389, 34422, 34457, 34488, 34521, 34553, 34588, 34620, 34653, 43234, 43366, 43566, 43717, 43846, 44045, 44175, 44297, 44484, 57172, 57332, 57533, 57663, 57793, 57893, 58106, 58214, 58336, 58567, 58743], "trial_type": "free-recall", "conditions": [18, 1200, "v", 18000], "internal_node_id": "0.0-32.0-0.0", "key_presses": [16, 83, 85, 78, 82, 73, 69, 8, 83, 69, 13, 16, 79, 85, 84, 76, 65, 87, 13, 16, 69, 89, 69, 76, 65, 83, 72, 13, 16, 87, 65, 83, 72, 69, 82, 13, 16, 16, 16, 16, 16, 16, 16, 76, 73, 79, 78, 13, 16, 16, 16, 16, 16, 16, 16, 16, 16, 16, 16, 16, 16, 16, 16, 16, 16, 16, 16, 16, 16, 16, 16, 16, 16, 16, 16, 16, 16, 16, 16, 16, 16, 16, 16, 16, 16, 16, 16, 16, 16, 16, 16, 16, 16, 16, 16, 16, 16, 16, 16, 16, 16, 16, 16, 16, 16, 16, 16, 16, 16, 16, 16, 16, 16, 16, 16, 16, 16, 16, 16, 16, 16, 16, 16, 16, 16, 16, 16, 16, 16, 16, 80, 65, 78, 84, 72, 69, 82, 13, 16, 66, 82, 73, 69, 70, 67, 65, 83, 69, 13], "trial": 0, "time_elapsed": 530072, "type": "FREE_RECALL", "trial_index": 41}, "uniqueid": "MTK2654:3URFVVM166PHYB3IBZQGR1BY6FMZUJ", "dateTime": 1519192951278}, {"current_trial": 42, "trialdata": {"rt": 5697, "trial_type": "text", "internal_node_id": "0.0-33.0", "time_elapsed": 537775, "key_press": 32, "type": "INSTRUCTIONS", "trial_index": 42}, "uniqueid": "MTK2654:3URFVVM166PHYB3IBZQGR1BY6FMZUJ", "dateTime": 1519192958977}, {"current_trial": 43, "trialdata": {"rt": [6163, 9962, 12253, 16673], "trial_type": "math-distractor", "key_times": [4705, 4844, 6163, 9216, 9355, 9962, 11853, 11933, 12253, 15915, 16355, 16673], "responses": ["19", "18", "20", "23"], "num2": [5, 4, 7, 8, 1], "num3": [8, 6, 6, 7, 4], "conditions": [18, 1200, "v", 18000], "internal_node_id": "0.0-34.0", "key_presses": [49, 57, 13, 49, 56, 13, 50, 48, 13, 50, 51, 13], "trial": 1, "time_elapsed": 557781, "type": "DISTRACTOR", "trial_index": 43, "num1": [6, 8, 7, 8, 6]}, "uniqueid": "MTK2654:3URFVVM166PHYB3IBZQGR1BY6FMZUJ", "dateTime": 1519192978982}, {"current_trial": 44, "trialdata": {"rt": -1, "trial_type": "single-stim", "stimulus": "<p id=\"stim\">10</p>", "internal_node_id": "0.0-35.0-0.0", "time_elapsed": 560785, "key_press": -1, "trial_index": 44}, "uniqueid": "MTK2654:3URFVVM166PHYB3IBZQGR1BY6FMZUJ", "dateTime": 1519192981986}, {"current_trial": 45, "trialdata": {"rt": -1, "trial_type": "single-stim", "stimulus": "<p id=\"stim\">9</p>", "internal_node_id": "0.0-35.0-1.0", "time_elapsed": 561787, "key_press": -1, "trial_index": 45}, "uniqueid": "MTK2654:3URFVVM166PHYB3IBZQGR1BY6FMZUJ", "dateTime": 1519192982988}, {"current_trial": 46, "trialdata": {"rt": -1, "trial_type": "single-stim", "stimulus": "<p id=\"stim\">8</p>", "internal_node_id": "0.0-35.0-2.0", "time_elapsed": 562789, "key_press": -1, "trial_index": 46}, "uniqueid": "MTK2654:3URFVVM166PHYB3IBZQGR1BY6FMZUJ", "dateTime": 1519192983990}, {"current_trial": 47, "trialdata": {"rt": -1, "trial_type": "single-stim", "stimulus": "<p id=\"stim\">7</p>", "internal_node_id": "0.0-35.0-3.0", "time_elapsed": 563792, "key_press": -1, "trial_index": 47}, "uniqueid": "MTK2654:3URFVVM166PHYB3IBZQGR1BY6FMZUJ", "dateTime": 1519192984994}, {"current_trial": 48, "trialdata": {"rt": -1, "trial_type": "single-stim", "stimulus": "<p id=\"stim\">6</p>", "internal_node_id": "0.0-35.0-4.0", "time_elapsed": 564795, "key_press": -1, "trial_index": 48}, "uniqueid": "MTK2654:3URFVVM166PHYB3IBZQGR1BY6FMZUJ", "dateTime": 1519192985996}, {"current_trial": 49, "trialdata": {"rt": -1, "trial_type": "single-stim", "stimulus": "<p id=\"stim\">5</p>", "internal_node_id": "0.0-35.0-5.0", "time_elapsed": 565797, "key_press": -1, "trial_index": 49}, "uniqueid": "MTK2654:3URFVVM166PHYB3IBZQGR1BY6FMZUJ", "dateTime": 1519192986998}, {"current_trial": 50, "trialdata": {"rt": -1, "trial_type": "single-stim", "stimulus": "<p id=\"stim\">4</p>", "internal_node_id": "0.0-35.0-6.0", "time_elapsed": 566799, "key_press": -1, "trial_index": 50}, "uniqueid": "MTK2654:3URFVVM166PHYB3IBZQGR1BY6FMZUJ", "dateTime": 1519192988000}, {"current_trial": 51, "trialdata": {"rt": -1, "trial_type": "single-stim", "stimulus": "<p id=\"stim\">3</p>", "internal_node_id": "0.0-35.0-7.0", "time_elapsed": 567802, "key_press": -1, "trial_index": 51}, "uniqueid": "MTK2654:3URFVVM166PHYB3IBZQGR1BY6FMZUJ", "dateTime": 1519192989003}, {"current_trial": 52, "trialdata": {"rt": -1, "trial_type": "single-stim", "stimulus": "<p id=\"stim\">2</p>", "internal_node_id": "0.0-35.0-8.0", "time_elapsed": 568804, "key_press": -1, "trial_index": 52}, "uniqueid": "MTK2654:3URFVVM166PHYB3IBZQGR1BY6FMZUJ", "dateTime": 1519192990005}, {"current_trial": 53, "trialdata": {"rt": -1, "trial_type": "single-stim", "stimulus": "<p id=\"stim\">1</p>", "internal_node_id": "0.0-35.0-9.0", "time_elapsed": 569806, "key_press": -1, "trial_index": 53}, "uniqueid": "MTK2654:3URFVVM166PHYB3IBZQGR1BY6FMZUJ", "dateTime": 1519192991008}, {"current_trial": 54, "trialdata": {"rt": -1, "trial_type": "single-stim", "stimulus": "<p id=\"stim\">+</p>", "internal_node_id": "0.0-36.0-0.0", "time_elapsed": 571309, "key_press": -1, "type": "FIXATION", "trial_index": 54}, "uniqueid": "MTK2654:3URFVVM166PHYB3IBZQGR1BY6FMZUJ", "dateTime": 1519192992510}, {"current_trial": 55, "trialdata": {"rt": -1, "trial_type": "single-stim", "word": "costume", "stimulus": "<p id=\"stim\">COSTUME</p>", "conditions": [18, 1200, "v", 18000], "internal_node_id": "0.0-37.0", "trial": 1, "time_elapsed": 572510, "serialpos": 0, "key_press": -1, "wordID": 382, "type": "PRES_VIS", "trial_index": 55}, "uniqueid": "MTK2654:3URFVVM166PHYB3IBZQGR1BY6FMZUJ", "dateTime": 1519192993712}, {"current_trial": 56, "trialdata": {"rt": -1, "trial_type": "single-stim", "word": "cellar", "stimulus": "<p id=\"stim\">CELLAR</p>", "conditions": [18, 1200, "v", 18000], "internal_node_id": "0.0-38.0", "trial": 1, "time_elapsed": 574860, "serialpos": 1, "key_press": -1, "wordID": 266, "type": "PRES_VIS", "trial_index": 56}, "uniqueid": "MTK2654:3URFVVM166PHYB3IBZQGR1BY6FMZUJ", "dateTime": 1519192996062}, {"current_trial": 57, "trialdata": {"rt": -1, "trial_type": "single-stim", "word": "cashew", "stimulus": "<p id=\"stim\">CASHEW</p>", "conditions": [18, 1200, "v", 18000], "internal_node_id": "0.0-39.0", "trial": 1, "time_elapsed": 576885, "serialpos": 2, "key_press": -1, "wordID": 252, "type": "PRES_VIS", "trial_index": 57}, "uniqueid": "MTK2654:3URFVVM166PHYB3IBZQGR1BY6FMZUJ", "dateTime": 1519192998087}, {"current_trial": 58, "trialdata": {"rt": -1, "trial_type": "single-stim", "word": "necklace", "stimulus": "<p id=\"stim\">NECKLACE</p>", "conditions": [18, 1200, "v", 18000], "internal_node_id": "0.0-40.0", "trial": 1, "time_elapsed": 579057, "serialpos": 3, "key_press": -1, "wordID": 939, "type": "PRES_VIS", "trial_index": 58}, "uniqueid": "MTK2654:3URFVVM166PHYB3IBZQGR1BY6FMZUJ", "dateTime": 1519193000259}, {"current_trial": 59, "trialdata": {"rt": -1, "trial_type": "single-stim", "word": "antler", "stimulus": "<p id=\"stim\">ANTLER</p>", "conditions": [18, 1200, "v", 18000], "internal_node_id": "0.0-41.0", "trial": 1, "time_elapsed": 581286, "serialpos": 4, "key_press": -1, "wordID": 28, "type": "PRES_VIS", "trial_index": 59}, "uniqueid": "MTK2654:3URFVVM166PHYB3IBZQGR1BY6FMZUJ", "dateTime": 1519193002487}, {"current_trial": 60, "trialdata": {"rt": -1, "trial_type": "single-stim", "word": "rifle", "stimulus": "<p id=\"stim\">RIFLE</p>", "conditions": [18, 1200, "v", 18000], "internal_node_id": "0.0-42.0", "trial": 1, "time_elapsed": 583307, "serialpos": 5, "key_press": -1, "wordID": 1191, "type": "PRES_VIS", "trial_index": 60}, "uniqueid": "MTK2654:3URFVVM166PHYB3IBZQGR1BY6FMZUJ", "dateTime": 1519193004508}, {"current_trial": 61, "trialdata": {"rt": -1, "trial_type": "single-stim", "word": "picture", "stimulus": "<p id=\"stim\">PICTURE</p>", "conditions": [18, 1200, "v", 18000], "internal_node_id": "0.0-43.0", "trial": 1, "time_elapsed": 585387, "serialpos": 6, "key_press": -1, "wordID": 1060, "type": "PRES_VIS", "trial_index": 61}, "uniqueid": "MTK2654:3URFVVM166PHYB3IBZQGR1BY6FMZUJ", "dateTime": 1519193006589}, {"current_trial": 62, "trialdata": {"rt": -1, "trial_type": "single-stim", "word": "tweezers", "stimulus": "<p id=\"stim\">TWEEZERS</p>", "conditions": [18, 1200, "v", 18000], "internal_node_id": "0.0-44.0", "trial": 1, "time_elapsed": 587469, "serialpos": 7, "key_press": -1, "wordID": 1525, "type": "PRES_VIS", "trial_index": 62}, "uniqueid": "MTK2654:3URFVVM166PHYB3IBZQGR1BY6FMZUJ", "dateTime": 1519193008671}, {"current_trial": 63, "trialdata": {"rt": -1, "trial_type": "single-stim", "word": "catcher", "stimulus": "<p id=\"stim\">CATCHER</p>", "conditions": [18, 1200, "v", 18000], "internal_node_id": "0.0-45.0", "trial": 1, "time_elapsed": 589671, "serialpos": 8, "key_press": -1, "wordID": 257, "type": "PRES_VIS", "trial_index": 63}, "uniqueid": "MTK2654:3URFVVM166PHYB3IBZQGR1BY6FMZUJ", "dateTime": 1519193010873}, {"current_trial": 64, "trialdata": {"rt": -1, "trial_type": "single-stim", "word": "thief", "stimulus": "<p id=\"stim\">THIEF</p>", "conditions": [18, 1200, "v", 18000], "internal_node_id": "0.0-46.0", "trial": 1, "time_elapsed": 592025, "serialpos": 9, "key_press": -1, "wordID": 1455, "type": "PRES_VIS", "trial_index": 64}, "uniqueid": "MTK2654:3URFVVM166PHYB3IBZQGR1BY6FMZUJ", "dateTime": 1519193013226}, {"current_trial": 65, "trialdata": {"rt": -1, "trial_type": "single-stim", "word": "turtle", "stimulus": "<p id=\"stim\">TURTLE</p>", "conditions": [18, 1200, "v", 18000], "internal_node_id": "0.0-47.0", "trial": 1, "time_elapsed": 594304, "serialpos": 10, "key_press": -1, "wordID": 1521, "type": "PRES_VIS", "trial_index": 65}, "uniqueid": "MTK2654:3URFVVM166PHYB3IBZQGR1BY6FMZUJ", "dateTime": 1519193015505}, {"current_trial": 66, "trialdata": {"rt": -1, "trial_type": "single-stim", "word": "piston", "stimulus": "<p id=\"stim\">PISTON</p>", "conditions": [18, 1200, "v", 18000], "internal_node_id": "0.0-48.0", "trial": 1, "time_elapsed": 596378, "serialpos": 11, "key_press": -1, "wordID": 1075, "type": "PRES_VIS", "trial_index": 66}, "uniqueid": "MTK2654:3URFVVM166PHYB3IBZQGR1BY6FMZUJ", "dateTime": 1519193017580}, {"current_trial": 67, "trialdata": {"rt": -1, "trial_type": "single-stim", "word": "bouquet", "stimulus": "<p id=\"stim\">BOUQUET</p>", "conditions": [18, 1200, "v", 18000], "internal_node_id": "0.0-49.0", "trial": 1, "time_elapsed": 598626, "serialpos": 12, "key_press": -1, "wordID": 156, "type": "PRES_VIS", "trial_index": 67}, "uniqueid": "MTK2654:3URFVVM166PHYB3IBZQGR1BY6FMZUJ", "dateTime": 1519193019827}, {"current_trial": 68, "trialdata": {"rt": -1, "trial_type": "single-stim", "word": "arm", "stimulus": "<p id=\"stim\">ARM</p>", "conditions": [18, 1200, "v", 18000], "internal_node_id": "0.0-50.0", "trial": 1, "time_elapsed": 600976, "serialpos": 13, "key_press": -1, "wordID": 37, "type": "PRES_VIS", "trial_index": 68}, "uniqueid": "MTK2654:3URFVVM166PHYB3IBZQGR1BY6FMZUJ", "dateTime": 1519193022181}, {"current_trial": 69, "trialdata": {"rt": -1, "trial_type": "single-stim", "word": "mask", "stimulus": "<p id=\"stim\">MASK</p>", "conditions": [18, 1200, "v", 18000], "internal_node_id": "0.0-51.0", "trial": 1, "time_elapsed": 603297, "serialpos": 14, "key_press": -1, "wordID": 875, "type": "PRES_VIS", "trial_index": 69}, "uniqueid": "MTK2654:3URFVVM166PHYB3IBZQGR1BY6FMZUJ", "dateTime": 1519193024498}, {"current_trial": 70, "trialdata": {"rt": -1, "trial_type": "single-stim", "word": "football", "stimulus": "<p id=\"stim\">FOOTBALL</p>", "conditions": [18, 1200, "v", 18000], "internal_node_id": "0.0-52.0", "trial": 1, "time_elapsed": 605361, "serialpos": 15, "key_press": -1, "wordID": 590, "type": "PRES_VIS", "trial_index": 70}, "uniqueid": "MTK2654:3URFVVM166PHYB3IBZQGR1BY6FMZUJ", "dateTime": 1519193026563}, {"current_trial": 71, "trialdata": {"rt": -1, "trial_type": "single-stim", "word": "tunnel", "stimulus": "<p id=\"stim\">TUNNEL</p>", "conditions": [18, 1200, "v", 18000], "internal_node_id": "0.0-53.0", "trial": 1, "time_elapsed": 607527, "serialpos": 16, "key_press": -1, "wordID": 1518, "type": "PRES_VIS", "trial_index": 71}, "uniqueid": "MTK2654:3URFVVM166PHYB3IBZQGR1BY6FMZUJ", "dateTime": 1519193028728}, {"current_trial": 72, "trialdata": {"rt": -1, "trial_type": "single-stim", "word": "binder", "stimulus": "<p id=\"stim\">BINDER</p>", "conditions": [18, 1200, "v", 18000], "internal_node_id": "0.0-54.0", "trial": 1, "time_elapsed": 609884, "serialpos": 17, "key_press": -1, "wordID": 126, "type": "PRES_VIS", "trial_index": 72}, "uniqueid": "MTK2654:3URFVVM166PHYB3IBZQGR1BY6FMZUJ", "dateTime": 1519193031085}, {"current_trial": 73, "trialdata": {"rt": -1, "trial_type": "single-stim", "stimulus": "", "internal_node_id": "0.0-55.0-0.0", "time_elapsed": 612368, "key_press": -1, "type": "PRE_RECALL_DELAY", "trial_index": 73}, "uniqueid": "MTK2654:3URFVVM166PHYB3IBZQGR1BY6FMZUJ", "dateTime": 1519193033569}, {"current_trial": 74, "trialdata": {"rt": -1000, "trial_type": "single-audio", "stimulus": "/static/audio/400Hz.wav", "internal_node_id": "0.0-56.0", "time_elapsed": 612872, "key_press": -1, "type": "PRE_RECALL_ALERT", "trial_index": 74}, "uniqueid": "MTK2654:3URFVVM166PHYB3IBZQGR1BY6FMZUJ", "dateTime": 1519193034073}, {"current_trial": 75, "trialdata": {"rt": [2238, 4418, 6969, 8988, 13258, 29168, 38937], "recwords": ["binder", "football", "mask", "tunnel", "arm", "shotgun", "picture"], "key_times": [1051, 1070, 1319, 1478, 1599, 1828, 1960, 2238, 2588, 2720, 2882, 3019, 3109, 3309, 3408, 3560, 3702, 4418, 4968, 5181, 5428, 5680, 6101, 6190, 6381, 6969, 7170, 7340, 7469, 7698, 7840, 7961, 8121, 8988, 12102, 12331, 12630, 12801, 13258, 23418, 23652, 23922, 24091, 25108, 25341, 25921, 26253, 26388, 26662, 26781, 26910, 27121, 27229, 27360, 29168, 37129, 37310, 37520, 37837, 38160, 38360, 38510, 38639, 38937, 40759, 40819, 41040, 41153, 41331, 41520, 41689, 41910, 42829, 43327, 43361, 43394, 43427, 43460, 43493, 43524, 43559, 43591, 43625, 43658, 43690], "trial_type": "free-recall", "conditions": [18, 1200, "v", 18000], "internal_node_id": "0.0-57.0-0.0", "key_presses": [16, 66, 73, 78, 68, 69, 82, 13, 16, 70, 79, 79, 84, 66, 65, 76, 76, 13, 16, 77, 65, 75, 8, 83, 75, 13, 16, 84, 85, 78, 78, 69, 76, 13, 16, 65, 82, 77, 13, 16, 82, 73, 70, 8, 8, 8, 16, 83, 72, 79, 84, 71, 85, 78, 13, 16, 80, 73, 67, 84, 85, 82, 69, 13, 16, 66, 79, 85, 81, 85, 69, 84, 8, 8, 8, 8, 8, 8, 8, 8, 8, 8, 8, 8, 8], "trial": 1, "time_elapsed": 672876, "type": "FREE_RECALL", "trial_index": 75}, "uniqueid": "MTK2654:3URFVVM166PHYB3IBZQGR1BY6FMZUJ", "dateTime": 1519193094081}, {"current_trial": 76, "trialdata": {"rt": 1973, "trial_type": "text", "internal_node_id": "0.0-58.0", "time_elapsed": 676855, "key_press": 32, "type": "INSTRUCTIONS", "trial_index": 76}, "uniqueid": "MTK2654:3URFVVM166PHYB3IBZQGR1BY6FMZUJ", "dateTime": 1519193098056}, {"current_trial": 77, "trialdata": {"rt": [3612, 6602, 9423], "trial_type": "math-distractor", "key_times": [3125, 3334, 3612, 5366, 5683, 6226, 6316, 6602, 8783, 8955, 9423, 11835], "responses": ["21", "16", "17"], "num2": [9, 6, 9, 6], "num3": [6, 6, 4, 5], "conditions": [24, 800, "v", 12000], "internal_node_id": "0.0-59.0", "key_presses": [50, 49, 13, 49, 53, 8, 54, 13, 49, 55, 13, 49], "trial": 2, "time_elapsed": 689860, "type": "DISTRACTOR", "trial_index": 77, "num1": [6, 4, 4, 2]}, "uniqueid": "MTK2654:3URFVVM166PHYB3IBZQGR1BY6FMZUJ", "dateTime": 1519193111061}, {"current_trial": 78, "trialdata": {"rt": -1, "trial_type": "single-stim", "stimulus": "<p id=\"stim\">10</p>", "internal_node_id": "0.0-60.0-0.0", "time_elapsed": 692863, "key_press": -1, "trial_index": 78}, "uniqueid": "MTK2654:3URFVVM166PHYB3IBZQGR1BY6FMZUJ", "dateTime": 1519193114064}, {"current_trial": 79, "trialdata": {"rt": -1, "trial_type": "single-stim", "stimulus": "<p id=\"stim\">9</p>", "internal_node_id": "0.0-60.0-1.0", "time_elapsed": 693864, "key_press": -1, "trial_index": 79}, "uniqueid": "MTK2654:3URFVVM166PHYB3IBZQGR1BY6FMZUJ", "dateTime": 1519193115065}, {"current_trial": 80, "trialdata": {"rt": -1, "trial_type": "single-stim", "stimulus": "<p id=\"stim\">8</p>", "internal_node_id": "0.0-60.0-2.0", "time_elapsed": 694866, "key_press": -1, "trial_index": 80}, "uniqueid": "MTK2654:3URFVVM166PHYB3IBZQGR1BY6FMZUJ", "dateTime": 1519193116068}, {"current_trial": 81, "trialdata": {"rt": -1, "trial_type": "single-stim", "stimulus": "<p id=\"stim\">7</p>", "internal_node_id": "0.0-60.0-3.0", "time_elapsed": 695868, "key_press": -1, "trial_index": 81}, "uniqueid": "MTK2654:3URFVVM166PHYB3IBZQGR1BY6FMZUJ", "dateTime": 1519193117069}, {"current_trial": 82, "trialdata": {"rt": -1, "trial_type": "single-stim", "stimulus": "<p id=\"stim\">6</p>", "internal_node_id": "0.0-60.0-4.0", "time_elapsed": 696869, "key_press": -1, "trial_index": 82}, "uniqueid": "MTK2654:3URFVVM166PHYB3IBZQGR1BY6FMZUJ", "dateTime": 1519193118071}, {"current_trial": 83, "trialdata": {"rt": -1, "trial_type": "single-stim", "stimulus": "<p id=\"stim\">5</p>", "internal_node_id": "0.0-60.0-5.0", "time_elapsed": 697872, "key_press": -1, "trial_index": 83}, "uniqueid": "MTK2654:3URFVVM166PHYB3IBZQGR1BY6FMZUJ", "dateTime": 1519193119073}, {"current_trial": 84, "trialdata": {"rt": -1, "trial_type": "single-stim", "stimulus": "<p id=\"stim\">4</p>", "internal_node_id": "0.0-60.0-6.0", "time_elapsed": 698875, "key_press": -1, "trial_index": 84}, "uniqueid": "MTK2654:3URFVVM166PHYB3IBZQGR1BY6FMZUJ", "dateTime": 1519193120076}, {"current_trial": 85, "trialdata": {"rt": -1, "trial_type": "single-stim", "stimulus": "<p id=\"stim\">3</p>", "internal_node_id": "0.0-60.0-7.0", "time_elapsed": 699877, "key_press": -1, "trial_index": 85}, "uniqueid": "MTK2654:3URFVVM166PHYB3IBZQGR1BY6FMZUJ", "dateTime": 1519193121078}, {"current_trial": 86, "trialdata": {"rt": -1, "trial_type": "single-stim", "stimulus": "<p id=\"stim\">2</p>", "internal_node_id": "0.0-60.0-8.0", "time_elapsed": 700878, "key_press": -1, "trial_index": 86}, "uniqueid": "MTK2654:3URFVVM166PHYB3IBZQGR1BY6FMZUJ", "dateTime": 1519193122080}, {"current_trial": 87, "trialdata": {"rt": -1, "trial_type": "single-stim", "stimulus": "<p id=\"stim\">1</p>", "internal_node_id": "0.0-60.0-9.0", "time_elapsed": 701881, "key_press": -1, "trial_index": 87}, "uniqueid": "MTK2654:3URFVVM166PHYB3IBZQGR1BY6FMZUJ", "dateTime": 1519193123082}, {"current_trial": 88, "trialdata": {"rt": -1, "trial_type": "single-stim", "stimulus": "<p id=\"stim\">+</p>", "internal_node_id": "0.0-61.0-0.0", "time_elapsed": 703383, "key_press": -1, "type": "FIXATION", "trial_index": 88}, "uniqueid": "MTK2654:3URFVVM166PHYB3IBZQGR1BY6FMZUJ", "dateTime": 1519193124584}, {"current_trial": 89, "trialdata": {"rt": -1, "trial_type": "single-stim", "word": "cashier", "stimulus": "<p id=\"stim\">CASHIER</p>", "conditions": [24, 800, "v", 12000], "internal_node_id": "0.0-62.0", "trial": 2, "time_elapsed": 704185, "serialpos": 0, "key_press": -1, "wordID": 253, "type": "PRES_VIS", "trial_index": 89}, "uniqueid": "MTK2654:3URFVVM166PHYB3IBZQGR1BY6FMZUJ", "dateTime": 1519193125386}, {"current_trial": 90, "trialdata": {"rt": -1, "trial_type": "single-stim", "word": "novel", "stimulus": "<p id=\"stim\">NOVEL</p>", "conditions": [24, 800, "v", 12000], "internal_node_id": "0.0-63.0", "trial": 2, "time_elapsed": 705889, "serialpos": 1, "key_press": -1, "wordID": 959, "type": "PRES_VIS", "trial_index": 90}, "uniqueid": "MTK2654:3URFVVM166PHYB3IBZQGR1BY6FMZUJ", "dateTime": 1519193127090}, {"current_trial": 91, "trialdata": {"rt": -1, "trial_type": "single-stim", "word": "beast", "stimulus": "<p id=\"stim\">BEAST</p>", "conditions": [24, 800, "v", 12000], "internal_node_id": "0.0-64.0", "trial": 2, "time_elapsed": 707858, "serialpos": 2, "key_press": -1, "wordID": 107, "type": "PRES_VIS", "trial_index": 91}, "uniqueid": "MTK2654:3URFVVM166PHYB3IBZQGR1BY6FMZUJ", "dateTime": 1519193129059}, {"current_trial": 92, "trialdata": {"rt": -1, "trial_type": "single-stim", "word": "waiter", "stimulus": "<p id=\"stim\">WAITER</p>", "conditions": [24, 800, "v", 12000], "internal_node_id": "0.0-65.0", "trial": 2, "time_elapsed": 709569, "serialpos": 3, "key_press": -1, "wordID": 1579, "type": "PRES_VIS", "trial_index": 92}, "uniqueid": "MTK2654:3URFVVM166PHYB3IBZQGR1BY6FMZUJ", "dateTime": 1519193130770}, {"current_trial": 93, "trialdata": {"rt": -1, "trial_type": "single-stim", "word": "child", "stimulus": "<p id=\"stim\">CHILD</p>", "conditions": [24, 800, "v", 12000], "internal_node_id": "0.0-66.0", "trial": 2, "time_elapsed": 711465, "serialpos": 4, "key_press": -1, "wordID": 298, "type": "PRES_VIS", "trial_index": 93}, "uniqueid": "MTK2654:3URFVVM166PHYB3IBZQGR1BY6FMZUJ", "dateTime": 1519193132666}, {"current_trial": 94, "trialdata": {"rt": -1, "trial_type": "single-stim", "word": "shelter", "stimulus": "<p id=\"stim\">SHELTER</p>", "conditions": [24, 800, "v", 12000], "internal_node_id": "0.0-67.0", "trial": 2, "time_elapsed": 713072, "serialpos": 5, "key_press": -1, "wordID": 1281, "type": "PRES_VIS", "trial_index": 94}, "uniqueid": "MTK2654:3URFVVM166PHYB3IBZQGR1BY6FMZUJ", "dateTime": 1519193134273}, {"current_trial": 95, "trialdata": {"rt": -1, "trial_type": "single-stim", "word": "twig", "stimulus": "<p id=\"stim\">TWIG</p>", "conditions": [24, 800, "v", 12000], "internal_node_id": "0.0-68.0", "trial": 2, "time_elapsed": 714818, "serialpos": 6, "key_press": -1, "wordID": 1526, "type": "PRES_VIS", "trial_index": 95}, "uniqueid": "MTK2654:3URFVVM166PHYB3IBZQGR1BY6FMZUJ", "dateTime": 1519193136019}, {"current_trial": 96, "trialdata": {"rt": -1, "trial_type": "single-stim", "word": "europe", "stimulus": "<p id=\"stim\">EUROPE</p>", "conditions": [24, 800, "v", 12000], "internal_node_id": "0.0-69.0", "trial": 2, "time_elapsed": 716726, "serialpos": 7, "key_press": -1, "wordID": 540, "type": "PRES_VIS", "trial_index": 96}, "uniqueid": "MTK2654:3URFVVM166PHYB3IBZQGR1BY6FMZUJ", "dateTime": 1519193137927}, {"current_trial": 97, "trialdata": {"rt": -1, "trial_type": "single-stim", "word": "forehead", "stimulus": "<p id=\"stim\">FOREHEAD</p>", "conditions": [24, 800, "v", 12000], "internal_node_id": "0.0-70.0", "trial": 2, "time_elapsed": 718402, "serialpos": 8, "key_press": -1, "wordID": 591, "type": "PRES_VIS", "trial_index": 97}, "uniqueid": "MTK2654:3URFVVM166PHYB3IBZQGR1BY6FMZUJ", "dateTime": 1519193139603}, {"current_trial": 98, "trialdata": {"rt": -1, "trial_type": "single-stim", "word": "chest", "stimulus": "<p id=\"stim\">CHEST</p>", "conditions": [24, 800, "v", 12000], "internal_node_id": "0.0-71.0", "trial": 2, "time_elapsed": 720242, "serialpos": 9, "key_press": -1, "wordID": 294, "type": "PRES_VIS", "trial_index": 98}, "uniqueid": "MTK2654:3URFVVM166PHYB3IBZQGR1BY6FMZUJ", "dateTime": 1519193141443}, {"current_trial": 99, "trialdata": {"rt": -1, "trial_type": "single-stim", "word": "slug", "stimulus": "<p id=\"stim\">SLUG</p>", "conditions": [24, 800, "v", 12000], "internal_node_id": "0.0-72.0", "trial": 2, "time_elapsed": 722038, "serialpos": 10, "key_press": -1, "wordID": 1328, "type": "PRES_VIS", "trial_index": 99}, "uniqueid": "MTK2654:3URFVVM166PHYB3IBZQGR1BY6FMZUJ", "dateTime": 1519193143239}, {"current_trial": 100, "trialdata": {"rt": -1, "trial_type": "single-stim", "word": "cobra", "stimulus": "<p id=\"stim\">COBRA</p>", "conditions": [24, 800, "v", 12000], "internal_node_id": "0.0-73.0", "trial": 2, "time_elapsed": 723996, "serialpos": 11, "key_press": -1, "wordID": 335, "type": "PRES_VIS", "trial_index": 100}, "uniqueid": "MTK2654:3URFVVM166PHYB3IBZQGR1BY6FMZUJ", "dateTime": 1519193145197}, {"current_trial": 101, "trialdata": {"rt": -1, "trial_type": "single-stim", "word": "teacher", "stimulus": "<p id=\"stim\">TEACHER</p>", "conditions": [24, 800, "v", 12000], "internal_node_id": "0.0-74.0", "trial": 2, "time_elapsed": 725674, "serialpos": 12, "key_press": -1, "wordID": 1439, "type": "PRES_VIS", "trial_index": 101}, "uniqueid": "MTK2654:3URFVVM166PHYB3IBZQGR1BY6FMZUJ", "dateTime": 1519193146875}, {"current_trial": 102, "trialdata": {"rt": -1, "trial_type": "single-stim", "word": "couch", "stimulus": "<p id=\"stim\">COUCH</p>", "conditions": [24, 800, "v", 12000], "internal_node_id": "0.0-75.0", "trial": 2, "time_elapsed": 727535, "serialpos": 13, "key_press": -1, "wordID": 385, "type": "PRES_VIS", "trial_index": 102}, "uniqueid": "MTK2654:3URFVVM166PHYB3IBZQGR1BY6FMZUJ", "dateTime": 1519193148736}, {"current_trial": 103, "trialdata": {"rt": -1, "trial_type": "single-stim", "word": "fireplace", "stimulus": "<p id=\"stim\">FIREPLACE</p>", "conditions": [24, 800, "v", 12000], "internal_node_id": "0.0-76.0", "trial": 2, "time_elapsed": 729265, "serialpos": 14, "key_press": -1, "wordID": 569, "type": "PRES_VIS", "trial_index": 103}, "uniqueid": "MTK2654:3URFVVM166PHYB3IBZQGR1BY6FMZUJ", "dateTime": 1519193150467}, {"current_trial": 104, "trialdata": {"rt": -1, "trial_type": "single-stim", "word": "princess", "stimulus": "<p id=\"stim\">PRINCESS</p>", "conditions": [24, 800, "v", 12000], "internal_node_id": "0.0-77.0", "trial": 2, "time_elapsed": 730872, "serialpos": 15, "key_press": -1, "wordID": 1124, "type": "PRES_VIS", "trial_index": 104}, "uniqueid": "MTK2654:3URFVVM166PHYB3IBZQGR1BY6FMZUJ", "dateTime": 1519193152073}, {"current_trial": 105, "trialdata": {"rt": -1, "trial_type": "single-stim", "word": "queen", "stimulus": "<p id=\"stim\">QUEEN</p>", "conditions": [24, 800, "v", 12000], "internal_node_id": "0.0-78.0", "trial": 2, "time_elapsed": 732586, "serialpos": 16, "key_press": -1, "wordID": 1148, "type": "PRES_VIS", "trial_index": 105}, "uniqueid": "MTK2654:3URFVVM166PHYB3IBZQGR1BY6FMZUJ", "dateTime": 1519193153787}, {"current_trial": 106, "trialdata": {"rt": -1, "trial_type": "single-stim", "word": "dashboard", "stimulus": "<p id=\"stim\">DASHBOARD</p>", "conditions": [24, 800, "v", 12000], "internal_node_id": "0.0-79.0", "trial": 2, "time_elapsed": 734236, "serialpos": 17, "key_press": -1, "wordID": 440, "type": "PRES_VIS", "trial_index": 106}, "uniqueid": "MTK2654:3URFVVM166PHYB3IBZQGR1BY6FMZUJ", "dateTime": 1519193155437}, {"current_trial": 107, "trialdata": {"rt": -1, "trial_type": "single-stim", "word": "dentist", "stimulus": "<p id=\"stim\">DENTIST</p>", "conditions": [24, 800, "v", 12000], "internal_node_id": "0.0-80.0", "trial": 2, "time_elapsed": 736091, "serialpos": 18, "key_press": -1, "wordID": 446, "type": "PRES_VIS", "trial_index": 107}, "uniqueid": "MTK2654:3URFVVM166PHYB3IBZQGR1BY6FMZUJ", "dateTime": 1519193157293}, {"current_trial": 108, "trialdata": {"rt": -1, "trial_type": "single-stim", "word": "kitchen", "stimulus": "<p id=\"stim\">KITCHEN</p>", "conditions": [24, 800, "v", 12000], "internal_node_id": "0.0-81.0", "trial": 2, "time_elapsed": 738000, "serialpos": 19, "key_press": -1, "wordID": 777, "type": "PRES_VIS", "trial_index": 108}, "uniqueid": "MTK2654:3URFVVM166PHYB3IBZQGR1BY6FMZUJ", "dateTime": 1519193159201}, {"current_trial": 109, "trialdata": {"rt": -1, "trial_type": "single-stim", "word": "leader", "stimulus": "<p id=\"stim\">LEADER</p>", "conditions": [24, 800, "v", 12000], "internal_node_id": "0.0-82.0", "trial": 2, "time_elapsed": 739993, "serialpos": 20, "key_press": -1, "wordID": 806, "type": "PRES_VIS", "trial_index": 109}, "uniqueid": "MTK2654:3URFVVM166PHYB3IBZQGR1BY6FMZUJ", "dateTime": 1519193161194}, {"current_trial": 110, "trialdata": {"rt": -1, "trial_type": "single-stim", "word": "star", "stimulus": "<p id=\"stim\">STAR</p>", "conditions": [24, 800, "v", 12000], "internal_node_id": "0.0-83.0", "trial": 2, "time_elapsed": 741832, "serialpos": 21, "key_press": -1, "wordID": 1372, "type": "PRES_VIS", "trial_index": 110}, "uniqueid": "MTK2654:3URFVVM166PHYB3IBZQGR1BY6FMZUJ", "dateTime": 1519193163034}, {"current_trial": 111, "trialdata": {"rt": -1, "trial_type": "single-stim", "word": "popcorn", "stimulus": "<p id=\"stim\">POPCORN</p>", "conditions": [24, 800, "v", 12000], "internal_node_id": "0.0-84.0", "trial": 2, "time_elapsed": 743581, "serialpos": 22, "key_press": -1, "wordID": 1103, "type": "PRES_VIS", "trial_index": 111}, "uniqueid": "MTK2654:3URFVVM166PHYB3IBZQGR1BY6FMZUJ", "dateTime": 1519193164782}, {"current_trial": 112, "trialdata": {"rt": -1, "trial_type": "single-stim", "word": "braces", "stimulus": "<p id=\"stim\">BRACES</p>", "conditions": [24, 800, "v", 12000], "internal_node_id": "0.0-85.0", "trial": 2, "time_elapsed": 745442, "serialpos": 23, "key_press": -1, "wordID": 163, "type": "PRES_VIS", "trial_index": 112}, "uniqueid": "MTK2654:3URFVVM166PHYB3IBZQGR1BY6FMZUJ", "dateTime": 1519193166643}, {"current_trial": 113, "trialdata": {"rt": -1, "trial_type": "single-stim", "stimulus": "", "internal_node_id": "0.0-86.0-0.0", "time_elapsed": 747946, "key_press": -1, "type": "PRE_RECALL_DELAY", "trial_index": 113}, "uniqueid": "MTK2654:3URFVVM166PHYB3IBZQGR1BY6FMZUJ", "dateTime": 1519193169148}, {"current_trial": 114, "trialdata": {"rt": -1000, "trial_type": "single-audio", "stimulus": "/static/audio/400Hz.wav", "internal_node_id": "0.0-87.0", "time_elapsed": 748450, "key_press": -1, "type": "PRE_RECALL_ALERT", "trial_index": 114}, "uniqueid": "MTK2654:3URFVVM166PHYB3IBZQGR1BY6FMZUJ", "dateTime": 1519193169651}, {"current_trial": 115, "trialdata": {"rt": [2740, 4990, 6340, 8141, 9960, 11241, 26710], "recwords": ["braces", "popcorn", "star", "princess", "queen", "cashier", "forehead"], "key_times": [1237, 1400, 1682, 1942, 2122, 2272, 2532, 2740, 2972, 3131, 3391, 3532, 3743, 3913, 4034, 4176, 4602, 4990, 5140, 5353, 5612, 5910, 6130, 6340, 6752, 6830, 7070, 7210, 7332, 7431, 7552, 7802, 7951, 8141, 8373, 8530, 8850, 9038, 9211, 9416, 9960, 10090, 10244, 10459, 10529, 10670, 10779, 10893, 11024, 11241, 24395, 24650, 24794, 24971, 25110, 25313, 25454, 25577, 25650, 26710], "trial_type": "free-recall", "conditions": [24, 800, "v", 12000], "internal_node_id": "0.0-88.0-0.0", "key_presses": [16, 66, 82, 65, 67, 69, 83, 13, 16, 80, 79, 80, 67, 79, 82, 78, 16, 13, 16, 83, 84, 65, 82, 13, 16, 80, 82, 73, 78, 67, 69, 83, 83, 13, 16, 81, 85, 69, 69, 78, 13, 16, 67, 65, 83, 72, 73, 69, 82, 13, 16, 70, 79, 82, 69, 72, 69, 65, 68, 13], "trial": 2, "time_elapsed": 808452, "type": "FREE_RECALL", "trial_index": 115}, "uniqueid": "MTK2654:3URFVVM166PHYB3IBZQGR1BY6FMZUJ", "dateTime": 1519193229657}, {"current_trial": 116, "trialdata": {"rt": 3165, "trial_type": "text", "internal_node_id": "0.0-89.0", "time_elapsed": 813623, "key_press": 32, "type": "INSTRUCTIONS", "trial_index": 116}, "uniqueid": "MTK2654:3URFVVM166PHYB3IBZQGR1BY6FMZUJ", "dateTime": 1519193234824}, {"current_trial": 117, "trialdata": {"rt": [2598, 7388, 11298, 13036, 16597, 20157], "trial_type": "math-distractor", "key_times": [2046, 2598, 7010, 7239, 7388, 10488, 10809, 11298, 12528, 12739, 13036, 16339, 16450, 16597, 19801, 20036, 20157, 23149, 23657], "responses": ["7", "23", "17", "13", "12", "23"], "num2": [2, 5, 4, 7, 1, 9, 9], "num3": [2, 9, 6, 3, 3, 7, 8], "conditions": [12, 800, "v", 24000], "internal_node_id": "0.0-90.0", "key_presses": [55, 13, 50, 51, 13, 49, 55, 13, 49, 51, 13, 49, 50, 13, 50, 51, 13, 50, 52], "trial": 3, "time_elapsed": 839626, "type": "DISTRACTOR", "trial_index": 117, "num1": [3, 9, 7, 3, 8, 7, 5]}, "uniqueid": "MTK2654:3URFVVM166PHYB3IBZQGR1BY6FMZUJ", "dateTime": 1519193260827}, {"current_trial": 118, "trialdata": {"rt": -1, "trial_type": "single-stim", "stimulus": "<p id=\"stim\">10</p>", "internal_node_id": "0.0-91.0-0.0", "time_elapsed": 842629, "key_press": -1, "trial_index": 118}, "uniqueid": "MTK2654:3URFVVM166PHYB3IBZQGR1BY6FMZUJ", "dateTime": 1519193263830}, {"current_trial": 119, "trialdata": {"rt": -1, "trial_type": "single-stim", "stimulus": "<p id=\"stim\">9</p>", "internal_node_id": "0.0-91.0-1.0", "time_elapsed": 843632, "key_press": -1, "trial_index": 119}, "uniqueid": "MTK2654:3URFVVM166PHYB3IBZQGR1BY6FMZUJ", "dateTime": 1519193264833}, {"current_trial": 120, "trialdata": {"rt": -1, "trial_type": "single-stim", "stimulus": "<p id=\"stim\">8</p>", "internal_node_id": "0.0-91.0-2.0", "time_elapsed": 844633, "key_press": -1, "trial_index": 120}, "uniqueid": "MTK2654:3URFVVM166PHYB3IBZQGR1BY6FMZUJ", "dateTime": 1519193265835}, {"current_trial": 121, "trialdata": {"rt": -1, "trial_type": "single-stim", "stimulus": "<p id=\"stim\">7</p>", "internal_node_id": "0.0-91.0-3.0", "time_elapsed": 845636, "key_press": -1, "trial_index": 121}, "uniqueid": "MTK2654:3URFVVM166PHYB3IBZQGR1BY6FMZUJ", "dateTime": 1519193266837}, {"current_trial": 122, "trialdata": {"rt": -1, "trial_type": "single-stim", "stimulus": "<p id=\"stim\">6</p>", "internal_node_id": "0.0-91.0-4.0", "time_elapsed": 846637, "key_press": -1, "trial_index": 122}, "uniqueid": "MTK2654:3URFVVM166PHYB3IBZQGR1BY6FMZUJ", "dateTime": 1519193267838}, {"current_trial": 123, "trialdata": {"rt": -1, "trial_type": "single-stim", "stimulus": "<p id=\"stim\">5</p>", "internal_node_id": "0.0-91.0-5.0", "time_elapsed": 847638, "key_press": -1, "trial_index": 123}, "uniqueid": "MTK2654:3URFVVM166PHYB3IBZQGR1BY6FMZUJ", "dateTime": 1519193268839}, {"current_trial": 124, "trialdata": {"rt": -1, "trial_type": "single-stim", "stimulus": "<p id=\"stim\">4</p>", "internal_node_id": "0.0-91.0-6.0", "time_elapsed": 848640, "key_press": -1, "trial_index": 124}, "uniqueid": "MTK2654:3URFVVM166PHYB3IBZQGR1BY6FMZUJ", "dateTime": 1519193269841}, {"current_trial": 125, "trialdata": {"rt": -1, "trial_type": "single-stim", "stimulus": "<p id=\"stim\">3</p>", "internal_node_id": "0.0-91.0-7.0", "time_elapsed": 849641, "key_press": -1, "trial_index": 125}, "uniqueid": "MTK2654:3URFVVM166PHYB3IBZQGR1BY6FMZUJ", "dateTime": 1519193270842}, {"current_trial": 126, "trialdata": {"rt": -1, "trial_type": "single-stim", "stimulus": "<p id=\"stim\">2</p>", "internal_node_id": "0.0-91.0-8.0", "time_elapsed": 850642, "key_press": -1, "trial_index": 126}, "uniqueid": "MTK2654:3URFVVM166PHYB3IBZQGR1BY6FMZUJ", "dateTime": 1519193271843}, {"current_trial": 127, "trialdata": {"rt": -1, "trial_type": "single-stim", "stimulus": "<p id=\"stim\">1</p>", "internal_node_id": "0.0-91.0-9.0", "time_elapsed": 851644, "key_press": -1, "trial_index": 127}, "uniqueid": "MTK2654:3URFVVM166PHYB3IBZQGR1BY6FMZUJ", "dateTime": 1519193272845}, {"current_trial": 128, "trialdata": {"rt": -1, "trial_type": "single-stim", "stimulus": "<p id=\"stim\">+</p>", "internal_node_id": "0.0-92.0-0.0", "time_elapsed": 853146, "key_press": -1, "type": "FIXATION", "trial_index": 128}, "uniqueid": "MTK2654:3URFVVM166PHYB3IBZQGR1BY6FMZUJ", "dateTime": 1519193274347}, {"current_trial": 129, "trialdata": {"rt": -1, "trial_type": "single-stim", "word": "pasta", "stimulus": "<p id=\"stim\">PASTA</p>", "conditions": [12, 800, "v", 24000], "internal_node_id": "0.0-93.0", "trial": 3, "time_elapsed": 853948, "serialpos": 0, "key_press": -1, "wordID": 1020, "type": "PRES_VIS", "trial_index": 129}, "uniqueid": "MTK2654:3URFVVM166PHYB3IBZQGR1BY6FMZUJ", "dateTime": 1519193275149}, {"current_trial": 130, "trialdata": {"rt": -1, "trial_type": "single-stim", "word": "sausage", "stimulus": "<p id=\"stim\">SAUSAGE</p>", "conditions": [12, 800, "v", 24000], "internal_node_id": "0.0-94.0", "trial": 3, "time_elapsed": 855616, "serialpos": 1, "key_press": -1, "wordID": 1237, "type": "PRES_VIS", "trial_index": 130}, "uniqueid": "MTK2654:3URFVVM166PHYB3IBZQGR1BY6FMZUJ", "dateTime": 1519193276817}, {"current_trial": 131, "trialdata": {"rt": -1, "trial_type": "single-stim", "word": "muffin", "stimulus": "<p id=\"stim\">MUFFIN</p>", "conditions": [12, 800, "v", 24000], "internal_node_id": "0.0-95.0", "trial": 3, "time_elapsed": 857554, "serialpos": 2, "key_press": -1, "wordID": 928, "type": "PRES_VIS", "trial_index": 131}, "uniqueid": "MTK2654:3URFVVM166PHYB3IBZQGR1BY6FMZUJ", "dateTime": 1519193278755}, {"current_trial": 132, "trialdata": {"rt": -1, "trial_type": "single-stim", "word": "twister", "stimulus": "<p id=\"stim\">TWISTER</p>", "conditions": [12, 800, "v", 24000], "internal_node_id": "0.0-96.0", "trial": 3, "time_elapsed": 859364, "serialpos": 3, "key_press": -1, "wordID": 1529, "type": "PRES_VIS", "trial_index": 132}, "uniqueid": "MTK2654:3URFVVM166PHYB3IBZQGR1BY6FMZUJ", "dateTime": 1519193280565}, {"current_trial": 133, "trialdata": {"rt": -1, "trial_type": "single-stim", "word": "coffee", "stimulus": "<p id=\"stim\">COFFEE</p>", "conditions": [12, 800, "v", 24000], "internal_node_id": "0.0-97.0", "trial": 3, "time_elapsed": 861309, "serialpos": 4, "key_press": -1, "wordID": 340, "type": "PRES_VIS", "trial_index": 133}, "uniqueid": "MTK2654:3URFVVM166PHYB3IBZQGR1BY6FMZUJ", "dateTime": 1519193282511}, {"current_trial": 134, "trialdata": {"rt": -1, "trial_type": "single-stim", "word": "balloon", "stimulus": "<p id=\"stim\">BALLOON</p>", "conditions": [12, 800, "v", 24000], "internal_node_id": "0.0-98.0", "trial": 3, "time_elapsed": 863297, "serialpos": 5, "key_press": -1, "wordID": 74, "type": "PRES_VIS", "trial_index": 134}, "uniqueid": "MTK2654:3URFVVM166PHYB3IBZQGR1BY6FMZUJ", "dateTime": 1519193284498}, {"current_trial": 135, "trialdata": {"rt": -1, "trial_type": "single-stim", "word": "wife", "stimulus": "<p id=\"stim\">WIFE</p>", "conditions": [12, 800, "v", 24000], "internal_node_id": "0.0-99.0", "trial": 3, "time_elapsed": 865193, "serialpos": 6, "key_press": -1, "wordID": 1608, "type": "PRES_VIS", "trial_index": 135}, "uniqueid": "MTK2654:3URFVVM166PHYB3IBZQGR1BY6FMZUJ", "dateTime": 1519193286395}, {"current_trial": 136, "trialdata": {"rt": -1, "trial_type": "single-stim", "word": "parrot", "stimulus": "<p id=\"stim\">PARROT</p>", "conditions": [12, 800, "v", 24000], "internal_node_id": "0.0-100.0", "trial": 3, "time_elapsed": 867104, "serialpos": 7, "key_press": -1, "wordID": 1014, "type": "PRES_VIS", "trial_index": 136}, "uniqueid": "MTK2654:3URFVVM166PHYB3IBZQGR1BY6FMZUJ", "dateTime": 1519193288305}, {"current_trial": 137, "trialdata": {"rt": -1, "trial_type": "single-stim", "word": "tortoise", "stimulus": "<p id=\"stim\">TORTOISE</p>", "conditions": [12, 800, "v", 24000], "internal_node_id": "0.0-101.0", "trial": 3, "time_elapsed": 869083, "serialpos": 8, "key_press": -1, "wordID": 1485, "type": "PRES_VIS", "trial_index": 137}, "uniqueid": "MTK2654:3URFVVM166PHYB3IBZQGR1BY6FMZUJ", "dateTime": 1519193290284}, {"current_trial": 138, "trialdata": {"rt": -1, "trial_type": "single-stim", "word": "beef", "stimulus": "<p id=\"stim\">BEEF</p>", "conditions": [12, 800, "v", 24000], "internal_node_id": "0.0-102.0", "trial": 3, "time_elapsed": 870954, "serialpos": 9, "key_press": -1, "wordID": 112, "type": "PRES_VIS", "trial_index": 138}, "uniqueid": "MTK2654:3URFVVM166PHYB3IBZQGR1BY6FMZUJ", "dateTime": 1519193292155}, {"current_trial": 139, "trialdata": {"rt": -1, "trial_type": "single-stim", "word": "citrus", "stimulus": "<p id=\"stim\">CITRUS</p>", "conditions": [12, 800, "v", 24000], "internal_node_id": "0.0-103.0", "trial": 3, "time_elapsed": 872713, "serialpos": 10, "key_press": -1, "wordID": 312, "type": "PRES_VIS", "trial_index": 139}, "uniqueid": "MTK2654:3URFVVM166PHYB3IBZQGR1BY6FMZUJ", "dateTime": 1519193293914}, {"current_trial": 140, "trialdata": {"rt": -1, "trial_type": "single-stim", "word": "spouse", "stimulus": "<p id=\"stim\">SPOUSE</p>", "conditions": [12, 800, "v", 24000], "internal_node_id": "0.0-104.0", "trial": 3, "time_elapsed": 874510, "serialpos": 11, "key_press": -1, "wordID": 1357, "type": "PRES_VIS", "trial_index": 140}, "uniqueid": "MTK2654:3URFVVM166PHYB3IBZQGR1BY6FMZUJ", "dateTime": 1519193295712}, {"current_trial": 141, "trialdata": {"rt": -1, "trial_type": "single-stim", "stimulus": "", "internal_node_id": "0.0-105.0-0.0", "time_elapsed": 876707, "key_press": -1, "type": "PRE_RECALL_DELAY", "trial_index": 141}, "uniqueid": "MTK2654:3URFVVM166PHYB3IBZQGR1BY6FMZUJ", "dateTime": 1519193297908}, {"current_trial": 142, "trialdata": {"rt": -1000, "trial_type": "single-audio", "stimulus": "/static/audio/400Hz.wav", "internal_node_id": "0.0-106.0", "time_elapsed": 877214, "key_press": -1, "type": "PRE_RECALL_ALERT", "trial_index": 142}, "uniqueid": "MTK2654:3URFVVM166PHYB3IBZQGR1BY6FMZUJ", "dateTime": 1519193298415}, {"current_trial": 143, "trialdata": {"rt": [3791, 5561, 7761, 11401, 23630, 35110], "recwords": ["pasta", "wife", "spouse", "sausage", "twister", "citrus"], "key_times": [1390, 1430, 1691, 1892, 2212, 2501, 3791, 4753, 4913, 5060, 5226, 5354, 5561, 5781, 5874, 6063, 6903, 7036, 7252, 7503, 7761, 7984, 8142, 8384, 8591, 8854, 9080, 9454, 9592, 11401, 21182, 21444, 21693, 21913, 22349, 22592, 22692, 22963, 23294, 23423, 23630, 33263, 33401, 33619, 33923, 34034, 34222, 34452, 35110], "trial_type": "free-recall", "conditions": [12, 800, "v", 24000], "internal_node_id": "0.0-107.0-0.0", "key_presses": [16, 80, 65, 83, 84, 65, 13, 16, 87, 73, 70, 69, 13, 16, 83, 80, 79, 85, 83, 69, 13, 16, 83, 65, 85, 83, 65, 71, 69, 13, 16, 84, 87, 83, 8, 73, 83, 84, 69, 82, 13, 16, 67, 73, 84, 82, 85, 83, 13], "trial": 3, "time_elapsed": 937217, "type": "FREE_RECALL", "trial_index": 143}, "uniqueid": "MTK2654:3URFVVM166PHYB3IBZQGR1BY6FMZUJ", "dateTime": 1519193358422}, {"current_trial": 144, "trialdata": {"rt": 1135, "trial_type": "text", "internal_node_id": "0.0-108.0", "time_elapsed": 940357, "key_press": 32, "type": "INSTRUCTIONS", "trial_index": 144}, "uniqueid": "MTK2654:3URFVVM166PHYB3IBZQGR1BY6FMZUJ", "dateTime": 1519193361559}, {"current_trial": 145, "trialdata": {"rt": [3051, 5131, 7401, 9250, 12081, 15721, 18261, 20540, 22381], "trial_type": "math-distractor", "key_times": [2292, 2585, 3051, 4442, 4724, 5131, 6703, 6982, 7401, 8571, 8844, 9250, 10990, 11582, 12081, 14744, 15444, 15721, 17511, 17803, 18261, 20156, 20250, 20540, 21803, 21981, 22381], "responses": ["16", "18", "14", "17", "14", "19", "18", "20", "17"], "num2": [3, 7, 6, 3, 2, 5, 8, 6, 9, 3], "num3": [6, 4, 3, 7, 5, 7, 9, 8, 7, 8], "conditions": [24, 1600, "v", 24000], "internal_node_id": "0.0-109.0", "key_presses": [49, 54, 13, 49, 56, 13, 49, 52, 13, 49, 55, 13, 49, 52, 13, 49, 57, 13, 49, 56, 13, 50, 48, 13, 49, 55, 13], "trial": 4, "time_elapsed": 966365, "type": "DISTRACTOR", "trial_index": 145, "num1": [7, 7, 5, 7, 7, 7, 1, 6, 1, 2]}, "uniqueid": "MTK2654:3URFVVM166PHYB3IBZQGR1BY6FMZUJ", "dateTime": 1519193387566}, {"current_trial": 146, "trialdata": {"rt": -1, "trial_type": "single-stim", "stimulus": "<p id=\"stim\">10</p>", "internal_node_id": "0.0-110.0-0.0", "time_elapsed": 969368, "key_press": -1, "trial_index": 146}, "uniqueid": "MTK2654:3URFVVM166PHYB3IBZQGR1BY6FMZUJ", "dateTime": 1519193390569}, {"current_trial": 147, "trialdata": {"rt": -1, "trial_type": "single-stim", "stimulus": "<p id=\"stim\">9</p>", "internal_node_id": "0.0-110.0-1.0", "time_elapsed": 970371, "key_press": -1, "trial_index": 147}, "uniqueid": "MTK2654:3URFVVM166PHYB3IBZQGR1BY6FMZUJ", "dateTime": 1519193391572}, {"current_trial": 148, "trialdata": {"rt": -1, "trial_type": "single-stim", "stimulus": "<p id=\"stim\">8</p>", "internal_node_id": "0.0-110.0-2.0", "time_elapsed": 971374, "key_press": -1, "trial_index": 148}, "uniqueid": "MTK2654:3URFVVM166PHYB3IBZQGR1BY6FMZUJ", "dateTime": 1519193392576}, {"current_trial": 149, "trialdata": {"rt": -1, "trial_type": "single-stim", "stimulus": "<p id=\"stim\">7</p>", "internal_node_id": "0.0-110.0-3.0", "time_elapsed": 972376, "key_press": -1, "trial_index": 149}, "uniqueid": "MTK2654:3URFVVM166PHYB3IBZQGR1BY6FMZUJ", "dateTime": 1519193393577}, {"current_trial": 150, "trialdata": {"rt": -1, "trial_type": "single-stim", "stimulus": "<p id=\"stim\">6</p>", "internal_node_id": "0.0-110.0-4.0", "time_elapsed": 973379, "key_press": -1, "trial_index": 150}, "uniqueid": "MTK2654:3URFVVM166PHYB3IBZQGR1BY6FMZUJ", "dateTime": 1519193394580}, {"current_trial": 151, "trialdata": {"rt": -1, "trial_type": "single-stim", "stimulus": "<p id=\"stim\">5</p>", "internal_node_id": "0.0-110.0-5.0", "time_elapsed": 974381, "key_press": -1, "trial_index": 151}, "uniqueid": "MTK2654:3URFVVM166PHYB3IBZQGR1BY6FMZUJ", "dateTime": 1519193395582}, {"current_trial": 152, "trialdata": {"rt": -1, "trial_type": "single-stim", "stimulus": "<p id=\"stim\">4</p>", "internal_node_id": "0.0-110.0-6.0", "time_elapsed": 975383, "key_press": -1, "trial_index": 152}, "uniqueid": "MTK2654:3URFVVM166PHYB3IBZQGR1BY6FMZUJ", "dateTime": 1519193396584}, {"current_trial": 153, "trialdata": {"rt": -1, "trial_type": "single-stim", "stimulus": "<p id=\"stim\">3</p>", "internal_node_id": "0.0-110.0-7.0", "time_elapsed": 976385, "key_press": -1, "trial_index": 153}, "uniqueid": "MTK2654:3URFVVM166PHYB3IBZQGR1BY6FMZUJ", "dateTime": 1519193397586}, {"current_trial": 154, "trialdata": {"rt": -1, "trial_type": "single-stim", "stimulus": "<p id=\"stim\">2</p>", "internal_node_id": "0.0-110.0-8.0", "time_elapsed": 977387, "key_press": -1, "trial_index": 154}, "uniqueid": "MTK2654:3URFVVM166PHYB3IBZQGR1BY6FMZUJ", "dateTime": 1519193398589}, {"current_trial": 155, "trialdata": {"rt": -1, "trial_type": "single-stim", "stimulus": "<p id=\"stim\">1</p>", "internal_node_id": "0.0-110.0-9.0", "time_elapsed": 978390, "key_press": -1, "trial_index": 155}, "uniqueid": "MTK2654:3URFVVM166PHYB3IBZQGR1BY6FMZUJ", "dateTime": 1519193399591}, {"current_trial": 156, "trialdata": {"rt": -1, "trial_type": "single-stim", "stimulus": "<p id=\"stim\">+</p>", "internal_node_id": "0.0-111.0-0.0", "time_elapsed": 979892, "key_press": -1, "type": "FIXATION", "trial_index": 156}, "uniqueid": "MTK2654:3URFVVM166PHYB3IBZQGR1BY6FMZUJ", "dateTime": 1519193401093}, {"current_trial": 157, "trialdata": {"rt": -1, "trial_type": "single-stim", "word": "denim", "stimulus": "<p id=\"stim\">DENIM</p>", "conditions": [24, 1600, "v", 24000], "internal_node_id": "0.0-112.0", "trial": 4, "time_elapsed": 981495, "serialpos": 0, "key_press": -1, "wordID": 445, "type": "PRES_VIS", "trial_index": 157}, "uniqueid": "MTK2654:3URFVVM166PHYB3IBZQGR1BY6FMZUJ", "dateTime": 1519193402696}, {"current_trial": 158, "trialdata": {"rt": -1, "trial_type": "single-stim", "word": "marrow", "stimulus": "<p id=\"stim\">MARROW</p>", "conditions": [24, 1600, "v", 24000], "internal_node_id": "0.0-113.0", "trial": 4, "time_elapsed": 984092, "serialpos": 1, "key_press": -1, "wordID": 871, "type": "PRES_VIS", "trial_index": 158}, "uniqueid": "MTK2654:3URFVVM166PHYB3IBZQGR1BY6FMZUJ", "dateTime": 1519193405293}, {"current_trial": 159, "trialdata": {"rt": -1, "trial_type": "single-stim", "word": "valley", "stimulus": "<p id=\"stim\">VALLEY</p>", "conditions": [24, 1600, "v", 24000], "internal_node_id": "0.0-114.0", "trial": 4, "time_elapsed": 986779, "serialpos": 2, "key_press": -1, "wordID": 1544, "type": "PRES_VIS", "trial_index": 159}, "uniqueid": "MTK2654:3URFVVM166PHYB3IBZQGR1BY6FMZUJ", "dateTime": 1519193407980}, {"current_trial": 160, "trialdata": {"rt": -1, "trial_type": "single-stim", "word": "shorts", "stimulus": "<p id=\"stim\">SHORTS</p>", "conditions": [24, 1600, "v", 24000], "internal_node_id": "0.0-115.0", "trial": 4, "time_elapsed": 989304, "serialpos": 3, "key_press": -1, "wordID": 1292, "type": "PRES_VIS", "trial_index": 160}, "uniqueid": "MTK2654:3URFVVM166PHYB3IBZQGR1BY6FMZUJ", "dateTime": 1519193410505}, {"current_trial": 161, "trialdata": {"rt": -1, "trial_type": "single-stim", "word": "cloud", "stimulus": "<p id=\"stim\">CLOUD</p>", "conditions": [24, 1600, "v", 24000], "internal_node_id": "0.0-116.0", "trial": 4, "time_elapsed": 991754, "serialpos": 4, "key_press": -1, "wordID": 327, "type": "PRES_VIS", "trial_index": 161}, "uniqueid": "MTK2654:3URFVVM166PHYB3IBZQGR1BY6FMZUJ", "dateTime": 1519193412955}, {"current_trial": 162, "trialdata": {"rt": -1, "trial_type": "single-stim", "word": "diver", "stimulus": "<p id=\"stim\">DIVER</p>", "conditions": [24, 1600, "v", 24000], "internal_node_id": "0.0-117.0", "trial": 4, "time_elapsed": 994403, "serialpos": 5, "key_press": -1, "wordID": 475, "type": "PRES_VIS", "trial_index": 162}, "uniqueid": "MTK2654:3URFVVM166PHYB3IBZQGR1BY6FMZUJ", "dateTime": 1519193415604}, {"current_trial": 163, "trialdata": {"rt": -1, "trial_type": "single-stim", "word": "highway", "stimulus": "<p id=\"stim\">HIGHWAY</p>", "conditions": [24, 1600, "v", 24000], "internal_node_id": "0.0-118.0", "trial": 4, "time_elapsed": 996914, "serialpos": 6, "key_press": -1, "wordID": 706, "type": "PRES_VIS", "trial_index": 163}, "uniqueid": "MTK2654:3URFVVM166PHYB3IBZQGR1BY6FMZUJ", "dateTime": 1519193418115}, {"current_trial": 164, "trialdata": {"rt": -1, "trial_type": "single-stim", "word": "piano", "stimulus": "<p id=\"stim\">PIANO</p>", "conditions": [24, 1600, "v", 24000], "internal_node_id": "0.0-119.0", "trial": 4, "time_elapsed": 999683, "serialpos": 7, "key_press": -1, "wordID": 1056, "type": "PRES_VIS", "trial_index": 164}, "uniqueid": "MTK2654:3URFVVM166PHYB3IBZQGR1BY6FMZUJ", "dateTime": 1519193420884}, {"current_trial": 165, "trialdata": {"rt": -1, "trial_type": "single-stim", "word": "guitar", "stimulus": "<p id=\"stim\">GUITAR</p>", "conditions": [24, 1600, "v", 24000], "internal_node_id": "0.0-120.0", "trial": 4, "time_elapsed": 1002219, "serialpos": 8, "key_press": -1, "wordID": 669, "type": "PRES_VIS", "trial_index": 165}, "uniqueid": "MTK2654:3URFVVM166PHYB3IBZQGR1BY6FMZUJ", "dateTime": 1519193423420}, {"current_trial": 166, "trialdata": {"rt": -1, "trial_type": "single-stim", "word": "foot", "stimulus": "<p id=\"stim\">FOOT</p>", "conditions": [24, 1600, "v", 24000], "internal_node_id": "0.0-121.0", "trial": 4, "time_elapsed": 1004704, "serialpos": 9, "key_press": -1, "wordID": 589, "type": "PRES_VIS", "trial_index": 166}, "uniqueid": "MTK2654:3URFVVM166PHYB3IBZQGR1BY6FMZUJ", "dateTime": 1519193425905}, {"current_trial": 167, "trialdata": {"rt": -1, "trial_type": "single-stim", "word": "guard", "stimulus": "<p id=\"stim\">GUARD</p>", "conditions": [24, 1600, "v", 24000], "internal_node_id": "0.0-122.0", "trial": 4, "time_elapsed": 1007466, "serialpos": 10, "key_press": -1, "wordID": 666, "type": "PRES_VIS", "trial_index": 167}, "uniqueid": "MTK2654:3URFVVM166PHYB3IBZQGR1BY6FMZUJ", "dateTime": 1519193428668}, {"current_trial": 168, "trialdata": {"rt": -1, "trial_type": "single-stim", "word": "canyon", "stimulus": "<p id=\"stim\">CANYON</p>", "conditions": [24, 1600, "v", 24000], "internal_node_id": "0.0-123.0", "trial": 4, "time_elapsed": 1010205, "serialpos": 11, "key_press": -1, "wordID": 234, "type": "PRES_VIS", "trial_index": 168}, "uniqueid": "MTK2654:3URFVVM166PHYB3IBZQGR1BY6FMZUJ", "dateTime": 1519193431406}, {"current_trial": 169, "trialdata": {"rt": -1, "trial_type": "single-stim", "word": "sword", "stimulus": "<p id=\"stim\">SWORD</p>", "conditions": [24, 1600, "v", 24000], "internal_node_id": "0.0-124.0", "trial": 4, "time_elapsed": 1012942, "serialpos": 12, "key_press": -1, "wordID": 1422, "type": "PRES_VIS", "trial_index": 169}, "uniqueid": "MTK2654:3URFVVM166PHYB3IBZQGR1BY6FMZUJ", "dateTime": 1519193434143}, {"current_trial": 170, "trialdata": {"rt": -1, "trial_type": "single-stim", "word": "scarf", "stimulus": "<p id=\"stim\">SCARF</p>", "conditions": [24, 1600, "v", 24000], "internal_node_id": "0.0-125.0", "trial": 4, "time_elapsed": 1015694, "serialpos": 13, "key_press": -1, "wordID": 1245, "type": "PRES_VIS", "trial_index": 170}, "uniqueid": "MTK2654:3URFVVM166PHYB3IBZQGR1BY6FMZUJ", "dateTime": 1519193436895}, {"current_trial": 171, "trialdata": {"rt": -1, "trial_type": "single-stim", "word": "daughter", "stimulus": "<p id=\"stim\">DAUGHTER</p>", "conditions": [24, 1600, "v", 24000], "internal_node_id": "0.0-126.0", "trial": 4, "time_elapsed": 1018170, "serialpos": 14, "key_press": -1, "wordID": 441, "type": "PRES_VIS", "trial_index": 171}, "uniqueid": "MTK2654:3URFVVM166PHYB3IBZQGR1BY6FMZUJ", "dateTime": 1519193439372}, {"current_trial": 172, "trialdata": {"rt": -1, "trial_type": "single-stim", "word": "cross", "stimulus": "<p id=\"stim\">CROSS</p>", "conditions": [24, 1600, "v", 24000], "internal_node_id": "0.0-127.0", "trial": 4, "time_elapsed": 1020879, "serialpos": 15, "key_press": -1, "wordID": 412, "type": "PRES_VIS", "trial_index": 172}, "uniqueid": "MTK2654:3URFVVM166PHYB3IBZQGR1BY6FMZUJ", "dateTime": 1519193442080}, {"current_trial": 173, "trialdata": {"rt": -1, "trial_type": "single-stim", "word": "pastry", "stimulus": "<p id=\"stim\">PASTRY</p>", "conditions": [24, 1600, "v", 24000], "internal_node_id": "0.0-128.0", "trial": 4, "time_elapsed": 1023672, "serialpos": 16, "key_press": -1, "wordID": 1021, "type": "PRES_VIS", "trial_index": 173}, "uniqueid": "MTK2654:3URFVVM166PHYB3IBZQGR1BY6FMZUJ", "dateTime": 1519193444873}, {"current_trial": 174, "trialdata": {"rt": -1, "trial_type": "single-stim", "word": "cowboy", "stimulus": "<p id=\"stim\">COWBOY</p>", "conditions": [24, 1600, "v", 24000], "internal_node_id": "0.0-129.0", "trial": 4, "time_elapsed": 1026179, "serialpos": 17, "key_press": -1, "wordID": 394, "type": "PRES_VIS", "trial_index": 174}, "uniqueid": "MTK2654:3URFVVM166PHYB3IBZQGR1BY6FMZUJ", "dateTime": 1519193447380}, {"current_trial": 175, "trialdata": {"rt": -1, "trial_type": "single-stim", "word": "army", "stimulus": "<p id=\"stim\">ARMY</p>", "conditions": [24, 1600, "v", 24000], "internal_node_id": "0.0-130.0", "trial": 4, "time_elapsed": 1028667, "serialpos": 18, "key_press": -1, "wordID": 38, "type": "PRES_VIS", "trial_index": 175}, "uniqueid": "MTK2654:3URFVVM166PHYB3IBZQGR1BY6FMZUJ", "dateTime": 1519193449868}, {"current_trial": 176, "trialdata": {"rt": -1, "trial_type": "single-stim", "word": "canal", "stimulus": "<p id=\"stim\">CANAL</p>", "conditions": [24, 1600, "v", 24000], "internal_node_id": "0.0-131.0", "trial": 4, "time_elapsed": 1031367, "serialpos": 19, "key_press": -1, "wordID": 225, "type": "PRES_VIS", "trial_index": 176}, "uniqueid": "MTK2654:3URFVVM166PHYB3IBZQGR1BY6FMZUJ", "dateTime": 1519193452568}, {"current_trial": 177, "trialdata": {"rt": -1, "trial_type": "single-stim", "word": "lagoon", "stimulus": "<p id=\"stim\">LAGOON</p>", "conditions": [24, 1600, "v", 24000], "internal_node_id": "0.0-132.0", "trial": 4, "time_elapsed": 1034116, "serialpos": 20, "key_press": -1, "wordID": 794, "type": "PRES_VIS", "trial_index": 177}, "uniqueid": "MTK2654:3URFVVM166PHYB3IBZQGR1BY6FMZUJ", "dateTime": 1519193455317}, {"current_trial": 178, "trialdata": {"rt": -1, "trial_type": "single-stim", "word": "whiskers", "stimulus": "<p id=\"stim\">WHISKERS</p>", "conditions": [24, 1600, "v", 24000], "internal_node_id": "0.0-133.0", "trial": 4, "time_elapsed": 1036781, "serialpos": 21, "key_press": -1, "wordID": 1604, "type": "PRES_VIS", "trial_index": 178}, "uniqueid": "MTK2654:3URFVVM166PHYB3IBZQGR1BY6FMZUJ", "dateTime": 1519193457982}, {"current_trial": 179, "trialdata": {"rt": -1, "trial_type": "single-stim", "word": "widow", "stimulus": "<p id=\"stim\">WIDOW</p>", "conditions": [24, 1600, "v", 24000], "internal_node_id": "0.0-134.0", "trial": 4, "time_elapsed": 1039551, "serialpos": 22, "key_press": -1, "wordID": 1607, "type": "PRES_VIS", "trial_index": 179}, "uniqueid": "MTK2654:3URFVVM166PHYB3IBZQGR1BY6FMZUJ", "dateTime": 1519193460752}, {"current_trial": 180, "trialdata": {"rt": -1, "trial_type": "single-stim", "word": "preacher", "stimulus": "<p id=\"stim\">PREACHER</p>", "conditions": [24, 1600, "v", 24000], "internal_node_id": "0.0-135.0", "trial": 4, "time_elapsed": 1042347, "serialpos": 23, "key_press": -1, "wordID": 1118, "type": "PRES_VIS", "trial_index": 180}, "uniqueid": "MTK2654:3URFVVM166PHYB3IBZQGR1BY6FMZUJ", "dateTime": 1519193463548}, {"current_trial": 181, "trialdata": {"rt": -1, "trial_type": "single-stim", "stimulus": "", "internal_node_id": "0.0-136.0-0.0", "time_elapsed": 1044655, "key_press": -1, "type": "PRE_RECALL_DELAY", "trial_index": 181}, "uniqueid": "MTK2654:3URFVVM166PHYB3IBZQGR1BY6FMZUJ", "dateTime": 1519193465856}, {"current_trial": 182, "trialdata": {"rt": -1000, "trial_type": "single-audio", "stimulus": "/static/audio/400Hz.wav", "internal_node_id": "0.0-137.0", "time_elapsed": 1045168, "key_press": -1, "type": "PRE_RECALL_ALERT", "trial_index": 182}, "uniqueid": "MTK2654:3URFVVM166PHYB3IBZQGR1BY6FMZUJ", "dateTime": 1519193466369}, {"current_trial": 183, "trialdata": {"rt": [2869, 5029, 7778, 10038, 12568, 16720, 19009, 23689, 33050, 55008], "recwords": ["widow", "preacher", "whiskers", "cowboy", "daughter", "foot", "guard", "widow", "pastry", "canyon"], "key_times": [1106, 1458, 1779, 2020, 2221, 2441, 2869, 3061, 3261, 3480, 3613, 3770, 3931, 4440, 4689, 4819, 5029, 5203, 5353, 5512, 5652, 5748, 6108, 6459, 6779, 6809, 7282, 7522, 7778, 7912, 8090, 8245, 8352, 8530, 8750, 9032, 10038, 11168, 11351, 11541, 11662, 11791, 11929, 12072, 12233, 12342, 12568, 14511, 14621, 14812, 14961, 15090, 16720, 16858, 16989, 17139, 17260, 17408, 17633, 19009, 21683, 21878, 22099, 22272, 22760, 22949, 23689, 31571, 31722, 31918, 32082, 32432, 32500, 32643, 33050, 52899, 53089, 53410, 53738, 53840, 53978, 54250, 54360, 54680, 55008], "trial_type": "free-recall", "conditions": [24, 1600, "v", 24000], "internal_node_id": "0.0-138.0-0.0", "key_presses": [16, 87, 73, 68, 79, 87, 13, 16, 80, 82, 69, 65, 67, 72, 69, 82, 13, 16, 87, 72, 73, 83, 69, 8, 75, 69, 82, 83, 13, 16, 67, 79, 87, 66, 79, 89, 13, 16, 68, 65, 85, 71, 72, 84, 69, 82, 13, 16, 70, 79, 79, 84, 13, 16, 71, 85, 65, 82, 68, 13, 16, 87, 73, 68, 79, 87, 13, 16, 80, 65, 83, 84, 82, 89, 13, 16, 67, 78, 8, 65, 78, 89, 79, 78, 13], "trial": 4, "time_elapsed": 1105172, "type": "FREE_RECALL", "trial_index": 183}, "uniqueid": "MTK2654:3URFVVM166PHYB3IBZQGR1BY6FMZUJ", "dateTime": 1519193526380}, {"current_trial": 184, "trialdata": {"rt": 759, "trial_type": "text", "internal_node_id": "0.0-139.0", "time_elapsed": 1107940, "key_press": 32, "type": "INSTRUCTIONS", "trial_index": 184}, "uniqueid": "MTK2654:3URFVVM166PHYB3IBZQGR1BY6FMZUJ", "dateTime": 1519193529141}, {"current_trial": 185, "trialdata": {"rt": [2663, 5925, 8254, 11534], "trial_type": "math-distractor", "key_times": [2184, 2663, 4756, 5286, 5587, 5925, 7835, 8254, 11085, 11375, 11534], "responses": ["6", "9", "9", "21"], "num2": [1, 3, 1, 8, 5], "num3": [3, 4, 6, 8, 5], "conditions": [12, 1600, "v", 12000], "internal_node_id": "0.0-140.0", "key_presses": [54, 13, 48, 8, 57, 13, 57, 13, 50, 49, 13], "trial": 5, "time_elapsed": 1121947, "type": "DISTRACTOR", "trial_index": 185, "num1": [2, 2, 2, 5, 8]}, "uniqueid": "MTK2654:3URFVVM166PHYB3IBZQGR1BY6FMZUJ", "dateTime": 1519193543148}, {"current_trial": 186, "trialdata": {"rt": -1, "trial_type": "single-stim", "stimulus": "<p id=\"stim\">10</p>", "internal_node_id": "0.0-141.0-0.0", "time_elapsed": 1124949, "key_press": -1, "trial_index": 186}, "uniqueid": "MTK2654:3URFVVM166PHYB3IBZQGR1BY6FMZUJ", "dateTime": 1519193546150}, {"current_trial": 187, "trialdata": {"rt": -1, "trial_type": "single-stim", "stimulus": "<p id=\"stim\">9</p>", "internal_node_id": "0.0-141.0-1.0", "time_elapsed": 1125951, "key_press": -1, "trial_index": 187}, "uniqueid": "MTK2654:3URFVVM166PHYB3IBZQGR1BY6FMZUJ", "dateTime": 1519193547152}, {"current_trial": 188, "trialdata": {"rt": -1, "trial_type": "single-stim", "stimulus": "<p id=\"stim\">8</p>", "internal_node_id": "0.0-141.0-2.0", "time_elapsed": 1126953, "key_press": -1, "trial_index": 188}, "uniqueid": "MTK2654:3URFVVM166PHYB3IBZQGR1BY6FMZUJ", "dateTime": 1519193548154}, {"current_trial": 189, "trialdata": {"rt": -1, "trial_type": "single-stim", "stimulus": "<p id=\"stim\">7</p>", "internal_node_id": "0.0-141.0-3.0", "time_elapsed": 1127954, "key_press": -1, "trial_index": 189}, "uniqueid": "MTK2654:3URFVVM166PHYB3IBZQGR1BY6FMZUJ", "dateTime": 1519193549155}, {"current_trial": 190, "trialdata": {"rt": -1, "trial_type": "single-stim", "stimulus": "<p id=\"stim\">6</p>", "internal_node_id": "0.0-141.0-4.0", "time_elapsed": 1128956, "key_press": -1, "trial_index": 190}, "uniqueid": "MTK2654:3URFVVM166PHYB3IBZQGR1BY6FMZUJ", "dateTime": 1519193550158}, {"current_trial": 191, "trialdata": {"rt": -1, "trial_type": "single-stim", "stimulus": "<p id=\"stim\">5</p>", "internal_node_id": "0.0-141.0-5.0", "time_elapsed": 1129959, "key_press": -1, "trial_index": 191}, "uniqueid": "MTK2654:3URFVVM166PHYB3IBZQGR1BY6FMZUJ", "dateTime": 1519193551160}, {"current_trial": 192, "trialdata": {"rt": -1, "trial_type": "single-stim", "stimulus": "<p id=\"stim\">4</p>", "internal_node_id": "0.0-141.0-6.0", "time_elapsed": 1130960, "key_press": -1, "trial_index": 192}, "uniqueid": "MTK2654:3URFVVM166PHYB3IBZQGR1BY6FMZUJ", "dateTime": 1519193552161}, {"current_trial": 193, "trialdata": {"rt": -1, "trial_type": "single-stim", "stimulus": "<p id=\"stim\">3</p>", "internal_node_id": "0.0-141.0-7.0", "time_elapsed": 1131962, "key_press": -1, "trial_index": 193}, "uniqueid": "MTK2654:3URFVVM166PHYB3IBZQGR1BY6FMZUJ", "dateTime": 1519193553163}, {"current_trial": 194, "trialdata": {"rt": -1, "trial_type": "single-stim", "stimulus": "<p id=\"stim\">2</p>", "internal_node_id": "0.0-141.0-8.0", "time_elapsed": 1132964, "key_press": -1, "trial_index": 194}, "uniqueid": "MTK2654:3URFVVM166PHYB3IBZQGR1BY6FMZUJ", "dateTime": 1519193554165}, {"current_trial": 195, "trialdata": {"rt": -1, "trial_type": "single-stim", "stimulus": "<p id=\"stim\">1</p>", "internal_node_id": "0.0-141.0-9.0", "time_elapsed": 1133968, "key_press": -1, "trial_index": 195}, "uniqueid": "MTK2654:3URFVVM166PHYB3IBZQGR1BY6FMZUJ", "dateTime": 1519193555169}, {"current_trial": 196, "trialdata": {"rt": -1, "trial_type": "single-stim", "stimulus": "<p id=\"stim\">+</p>", "internal_node_id": "0.0-142.0-0.0", "time_elapsed": 1135469, "key_press": -1, "type": "FIXATION", "trial_index": 196}, "uniqueid": "MTK2654:3URFVVM166PHYB3IBZQGR1BY6FMZUJ", "dateTime": 1519193556670}, {"current_trial": 197, "trialdata": {"rt": -1, "trial_type": "single-stim", "word": "fungus", "stimulus": "<p id=\"stim\">FUNGUS</p>", "conditions": [12, 1600, "v", 12000], "internal_node_id": "0.0-143.0", "trial": 5, "time_elapsed": 1137071, "serialpos": 0, "key_press": -1, "wordID": 613, "type": "PRES_VIS", "trial_index": 197}, "uniqueid": "MTK2654:3URFVVM166PHYB3IBZQGR1BY6FMZUJ", "dateTime": 1519193558272}, {"current_trial": 198, "trialdata": {"rt": -1, "trial_type": "single-stim", "word": "witness", "stimulus": "<p id=\"stim\">WITNESS</p>", "conditions": [12, 1600, "v", 12000], "internal_node_id": "0.0-144.0", "trial": 5, "time_elapsed": 1139620, "serialpos": 1, "key_press": -1, "wordID": 1617, "type": "PRES_VIS", "trial_index": 198}, "uniqueid": "MTK2654:3URFVVM166PHYB3IBZQGR1BY6FMZUJ", "dateTime": 1519193560821}, {"current_trial": 199, "trialdata": {"rt": -1, "trial_type": "single-stim", "word": "sister", "stimulus": "<p id=\"stim\">SISTER</p>", "conditions": [12, 1600, "v", 12000], "internal_node_id": "0.0-145.0", "trial": 5, "time_elapsed": 1142232, "serialpos": 2, "key_press": -1, "wordID": 1311, "type": "PRES_VIS", "trial_index": 199}, "uniqueid": "MTK2654:3URFVVM166PHYB3IBZQGR1BY6FMZUJ", "dateTime": 1519193563433}, {"current_trial": 200, "trialdata": {"rt": -1, "trial_type": "single-stim", "word": "scallop", "stimulus": "<p id=\"stim\">SCALLOP</p>", "conditions": [12, 1600, "v", 12000], "internal_node_id": "0.0-146.0", "trial": 5, "time_elapsed": 1144970, "serialpos": 3, "key_press": -1, "wordID": 1241, "type": "PRES_VIS", "trial_index": 200}, "uniqueid": "MTK2654:3URFVVM166PHYB3IBZQGR1BY6FMZUJ", "dateTime": 1519193566171}, {"current_trial": 201, "trialdata": {"rt": -1, "trial_type": "single-stim", "word": "monster", "stimulus": "<p id=\"stim\">MONSTER</p>", "conditions": [12, 1600, "v", 12000], "internal_node_id": "0.0-147.0", "trial": 5, "time_elapsed": 1147671, "serialpos": 4, "key_press": -1, "wordID": 911, "type": "PRES_VIS", "trial_index": 201}, "uniqueid": "MTK2654:3URFVVM166PHYB3IBZQGR1BY6FMZUJ", "dateTime": 1519193568872}, {"current_trial": 202, "trialdata": {"rt": -1, "trial_type": "single-stim", "word": "marsh", "stimulus": "<p id=\"stim\">MARSH</p>", "conditions": [12, 1600, "v", 12000], "internal_node_id": "0.0-148.0", "trial": 5, "time_elapsed": 1150357, "serialpos": 5, "key_press": -1, "wordID": 873, "type": "PRES_VIS", "trial_index": 202}, "uniqueid": "MTK2654:3URFVVM166PHYB3IBZQGR1BY6FMZUJ", "dateTime": 1519193571558}, {"current_trial": 203, "trialdata": {"rt": -1, "trial_type": "single-stim", "word": "inmate", "stimulus": "<p id=\"stim\">INMATE</p>", "conditions": [12, 1600, "v", 12000], "internal_node_id": "0.0-149.0", "trial": 5, "time_elapsed": 1153072, "serialpos": 6, "key_press": -1, "wordID": 737, "type": "PRES_VIS", "trial_index": 203}, "uniqueid": "MTK2654:3URFVVM166PHYB3IBZQGR1BY6FMZUJ", "dateTime": 1519193574273}, {"current_trial": 204, "trialdata": {"rt": -1, "trial_type": "single-stim", "word": "nurse", "stimulus": "<p id=\"stim\">NURSE</p>", "conditions": [12, 1600, "v", 12000], "internal_node_id": "0.0-150.0", "trial": 5, "time_elapsed": 1155488, "serialpos": 7, "key_press": -1, "wordID": 962, "type": "PRES_VIS", "trial_index": 204}, "uniqueid": "MTK2654:3URFVVM166PHYB3IBZQGR1BY6FMZUJ", "dateTime": 1519193576690}, {"current_trial": 205, "trialdata": {"rt": -1, "trial_type": "single-stim", "word": "blouse", "stimulus": "<p id=\"stim\">BLOUSE</p>", "conditions": [12, 1600, "v", 12000], "internal_node_id": "0.0-151.0", "trial": 5, "time_elapsed": 1158138, "serialpos": 8, "key_press": -1, "wordID": 138, "type": "PRES_VIS", "trial_index": 205}, "uniqueid": "MTK2654:3URFVVM166PHYB3IBZQGR1BY6FMZUJ", "dateTime": 1519193579339}, {"current_trial": 206, "trialdata": {"rt": -1, "trial_type": "single-stim", "word": "termite", "stimulus": "<p id=\"stim\">TERMITE</p>", "conditions": [12, 1600, "v", 12000], "internal_node_id": "0.0-152.0", "trial": 5, "time_elapsed": 1160649, "serialpos": 9, "key_press": -1, "wordID": 1450, "type": "PRES_VIS", "trial_index": 206}, "uniqueid": "MTK2654:3URFVVM166PHYB3IBZQGR1BY6FMZUJ", "dateTime": 1519193581850}, {"current_trial": 207, "trialdata": {"rt": -1, "trial_type": "single-stim", "word": "chapel", "stimulus": "<p id=\"stim\">CHAPEL</p>", "conditions": [12, 1600, "v", 12000], "internal_node_id": "0.0-153.0", "trial": 5, "time_elapsed": 1163230, "serialpos": 10, "key_press": -1, "wordID": 279, "type": "PRES_VIS", "trial_index": 207}, "uniqueid": "MTK2654:3URFVVM166PHYB3IBZQGR1BY6FMZUJ", "dateTime": 1519193584431}, {"current_trial": 208, "trialdata": {"rt": -1, "trial_type": "single-stim", "word": "church", "stimulus": "<p id=\"stim\">CHURCH</p>", "conditions": [12, 1600, "v", 12000], "internal_node_id": "0.0-154.0", "trial": 5, "time_elapsed": 1165796, "serialpos": 11, "key_press": -1, "wordID": 306, "type": "PRES_VIS", "trial_index": 208}, "uniqueid": "MTK2654:3URFVVM166PHYB3IBZQGR1BY6FMZUJ", "dateTime": 1519193586997}, {"current_trial": 209, "trialdata": {"rt": -1, "trial_type": "single-stim", "stimulus": "", "internal_node_id": "0.0-155.0-0.0", "time_elapsed": 1168108, "key_press": -1, "type": "PRE_RECALL_DELAY", "trial_index": 209}, "uniqueid": "MTK2654:3URFVVM166PHYB3IBZQGR1BY6FMZUJ", "dateTime": 1519193589309}, {"current_trial": 210, "trialdata": {"rt": -1000, "trial_type": "single-audio", "stimulus": "/static/audio/400Hz.wav", "internal_node_id": "0.0-156.0", "time_elapsed": 1168622, "key_press": -1, "type": "PRE_RECALL_ALERT", "trial_index": 210}, "uniqueid": "MTK2654:3URFVVM166PHYB3IBZQGR1BY6FMZUJ", "dateTime": 1519193589823}, {"current_trial": 211, "trialdata": {"rt": [3351, 4641, 7041, 9531, 16541, 27320, 30900, 39731], "recwords": ["chapel", "church", "termite", "sister", "fungus", "chapel", "church", "blouse"], "key_times": [1051, 1141, 1452, 1993, 2323, 2454, 2593, 2763, 2953, 3351, 3482, 3671, 3844, 3951, 4041, 4165, 4303, 4641, 4783, 4934, 5133, 5243, 5423, 5702, 6015, 6174, 7041, 7804, 8024, 8195, 8372, 8672, 8854, 8984, 9531, 14344, 14551, 14793, 14943, 15194, 15342, 15591, 16541, 25254, 25766, 25797, 25827, 25858, 25898, 25929, 25961, 25991, 26021, 26056, 26099, 26115, 26120, 26273, 26397, 26522, 26670, 26814, 27320, 27941, 28402, 28670, 28784, 28861, 28994, 29165, 30900, 36803, 37202, 37743, 37853, 37982, 38222, 38463, 38582, 38701, 38922, 39731], "trial_type": "free-recall", "conditions": [12, 1600, "v", 12000], "internal_node_id": "0.0-157.0-0.0", "key_presses": [16, 67, 72, 80, 8, 65, 80, 69, 76, 13, 16, 67, 72, 85, 82, 67, 72, 13, 16, 84, 69, 82, 77, 73, 84, 69, 13, 16, 83, 73, 83, 84, 69, 82, 13, 16, 70, 85, 78, 71, 85, 83, 13, 16, 16, 16, 16, 16, 16, 16, 16, 16, 16, 16, 16, 16, 67, 72, 65, 80, 69, 76, 13, 16, 67, 72, 85, 82, 67, 72, 13, 16, 66, 8, 16, 66, 76, 79, 85, 83, 69, 13], "trial": 5, "time_elapsed": 1228628, "type": "FREE_RECALL", "trial_index": 211}, "uniqueid": "MTK2654:3URFVVM166PHYB3IBZQGR1BY6FMZUJ", "dateTime": 1519193649834}, {"current_trial": 212, "trialdata": {"rt": 842, "trial_type": "text", "internal_node_id": "0.0-158.0", "time_elapsed": 1231476, "key_press": 32, "type": "INSTRUCTIONS", "trial_index": 212}, "uniqueid": "MTK2654:3URFVVM166PHYB3IBZQGR1BY6FMZUJ", "dateTime": 1519193652677}, {"current_trial": 213, "trialdata": {"rt": [3698, 5727, 8336, 10276], "trial_type": "math-distractor", "key_times": [3158, 3309, 3698, 5438, 5727, 7658, 7978, 8336, 9806, 9999, 10276, 11986], "responses": ["19", "9", "17", "13"], "num2": [5, 5, 4, 5, 1], "num3": [6, 3, 9, 4, 3], "conditions": [12, 800, "v", 12000], "internal_node_id": "0.0-159.0", "key_presses": [49, 57, 13, 57, 13, 49, 55, 13, 49, 51, 13, 57], "trial": 6, "time_elapsed": 1245481, "type": "DISTRACTOR", "trial_index": 213, "num1": [8, 1, 4, 4, 5]}, "uniqueid": "MTK2654:3URFVVM166PHYB3IBZQGR1BY6FMZUJ", "dateTime": 1519193666682}, {"current_trial": 214, "trialdata": {"rt": -1, "trial_type": "single-stim", "stimulus": "<p id=\"stim\">10</p>", "internal_node_id": "0.0-160.0-0.0", "time_elapsed": 1248485, "key_press": -1, "trial_index": 214}, "uniqueid": "MTK2654:3URFVVM166PHYB3IBZQGR1BY6FMZUJ", "dateTime": 1519193669686}, {"current_trial": 215, "trialdata": {"rt": -1, "trial_type": "single-stim", "stimulus": "<p id=\"stim\">9</p>", "internal_node_id": "0.0-160.0-1.0", "time_elapsed": 1249487, "key_press": -1, "trial_index": 215}, "uniqueid": "MTK2654:3URFVVM166PHYB3IBZQGR1BY6FMZUJ", "dateTime": 1519193670688}, {"current_trial": 216, "trialdata": {"rt": -1, "trial_type": "single-stim", "stimulus": "<p id=\"stim\">8</p>", "internal_node_id": "0.0-160.0-2.0", "time_elapsed": 1250490, "key_press": -1, "trial_index": 216}, "uniqueid": "MTK2654:3URFVVM166PHYB3IBZQGR1BY6FMZUJ", "dateTime": 1519193671691}, {"current_trial": 217, "trialdata": {"rt": -1, "trial_type": "single-stim", "stimulus": "<p id=\"stim\">7</p>", "internal_node_id": "0.0-160.0-3.0", "time_elapsed": 1251491, "key_press": -1, "trial_index": 217}, "uniqueid": "MTK2654:3URFVVM166PHYB3IBZQGR1BY6FMZUJ", "dateTime": 1519193672693}, {"current_trial": 218, "trialdata": {"rt": -1, "trial_type": "single-stim", "stimulus": "<p id=\"stim\">6</p>", "internal_node_id": "0.0-160.0-4.0", "time_elapsed": 1252494, "key_press": -1, "trial_index": 218}, "uniqueid": "MTK2654:3URFVVM166PHYB3IBZQGR1BY6FMZUJ", "dateTime": 1519193673695}, {"current_trial": 219, "trialdata": {"rt": -1, "trial_type": "single-stim", "stimulus": "<p id=\"stim\">5</p>", "internal_node_id": "0.0-160.0-5.0", "time_elapsed": 1253497, "key_press": -1, "trial_index": 219}, "uniqueid": "MTK2654:3URFVVM166PHYB3IBZQGR1BY6FMZUJ", "dateTime": 1519193674698}, {"current_trial": 220, "trialdata": {"rt": -1, "trial_type": "single-stim", "stimulus": "<p id=\"stim\">4</p>", "internal_node_id": "0.0-160.0-6.0", "time_elapsed": 1254501, "key_press": -1, "trial_index": 220}, "uniqueid": "MTK2654:3URFVVM166PHYB3IBZQGR1BY6FMZUJ", "dateTime": 1519193675702}, {"current_trial": 221, "trialdata": {"rt": -1, "trial_type": "single-stim", "stimulus": "<p id=\"stim\">3</p>", "internal_node_id": "0.0-160.0-7.0", "time_elapsed": 1255502, "key_press": -1, "trial_index": 221}, "uniqueid": "MTK2654:3URFVVM166PHYB3IBZQGR1BY6FMZUJ", "dateTime": 1519193676703}, {"current_trial": 222, "trialdata": {"rt": -1, "trial_type": "single-stim", "stimulus": "<p id=\"stim\">2</p>", "internal_node_id": "0.0-160.0-8.0", "time_elapsed": 1256504, "key_press": -1, "trial_index": 222}, "uniqueid": "MTK2654:3URFVVM166PHYB3IBZQGR1BY6FMZUJ", "dateTime": 1519193677706}, {"current_trial": 223, "trialdata": {"rt": -1, "trial_type": "single-stim", "stimulus": "<p id=\"stim\">1</p>", "internal_node_id": "0.0-160.0-9.0", "time_elapsed": 1257507, "key_press": -1, "trial_index": 223}, "uniqueid": "MTK2654:3URFVVM166PHYB3IBZQGR1BY6FMZUJ", "dateTime": 1519193678709}, {"current_trial": 224, "trialdata": {"rt": -1, "trial_type": "single-stim", "stimulus": "<p id=\"stim\">+</p>", "internal_node_id": "0.0-161.0-0.0", "time_elapsed": 1259009, "key_press": -1, "type": "FIXATION", "trial_index": 224}, "uniqueid": "MTK2654:3URFVVM166PHYB3IBZQGR1BY6FMZUJ", "dateTime": 1519193680210}, {"current_trial": 225, "trialdata": {"rt": -1, "trial_type": "single-stim", "word": "quail", "stimulus": "<p id=\"stim\">QUAIL</p>", "conditions": [12, 800, "v", 12000], "internal_node_id": "0.0-162.0", "trial": 6, "time_elapsed": 1259811, "serialpos": 0, "key_press": -1, "wordID": 1146, "type": "PRES_VIS", "trial_index": 225}, "uniqueid": "MTK2654:3URFVVM166PHYB3IBZQGR1BY6FMZUJ", "dateTime": 1519193681012}, {"current_trial": 226, "trialdata": {"rt": -1, "trial_type": "single-stim", "word": "friend", "stimulus": "<p id=\"stim\">FRIEND</p>", "conditions": [12, 800, "v", 12000], "internal_node_id": "0.0-163.0", "trial": 6, "time_elapsed": 1261623, "serialpos": 1, "key_press": -1, "wordID": 605, "type": "PRES_VIS", "trial_index": 226}, "uniqueid": "MTK2654:3URFVVM166PHYB3IBZQGR1BY6FMZUJ", "dateTime": 1519193682825}, {"current_trial": 227, "trialdata": {"rt": -1, "trial_type": "single-stim", "word": "rocket", "stimulus": "<p id=\"stim\">ROCKET</p>", "conditions": [12, 800, "v", 12000], "internal_node_id": "0.0-164.0", "trial": 6, "time_elapsed": 1263511, "serialpos": 2, "key_press": -1, "wordID": 1201, "type": "PRES_VIS", "trial_index": 227}, "uniqueid": "MTK2654:3URFVVM166PHYB3IBZQGR1BY6FMZUJ", "dateTime": 1519193684715}, {"current_trial": 228, "trialdata": {"rt": -1, "trial_type": "single-stim", "word": "zebra", "stimulus": "<p id=\"stim\">ZEBRA</p>", "conditions": [12, 800, "v", 12000], "internal_node_id": "0.0-165.0", "trial": 6, "time_elapsed": 1265450, "serialpos": 3, "key_press": -1, "wordID": 1634, "type": "PRES_VIS", "trial_index": 228}, "uniqueid": "MTK2654:3URFVVM166PHYB3IBZQGR1BY6FMZUJ", "dateTime": 1519193686651}, {"current_trial": 229, "trialdata": {"rt": -1, "trial_type": "single-stim", "word": "brook", "stimulus": "<p id=\"stim\">BROOK</p>", "conditions": [12, 800, "v", 12000], "internal_node_id": "0.0-166.0", "trial": 6, "time_elapsed": 1267243, "serialpos": 4, "key_press": -1, "wordID": 176, "type": "PRES_VIS", "trial_index": 229}, "uniqueid": "MTK2654:3URFVVM166PHYB3IBZQGR1BY6FMZUJ", "dateTime": 1519193688444}, {"current_trial": 230, "trialdata": {"rt": -1, "trial_type": "single-stim", "word": "casket", "stimulus": "<p id=\"stim\">CASKET</p>", "conditions": [12, 800, "v", 12000], "internal_node_id": "0.0-167.0", "trial": 6, "time_elapsed": 1268893, "serialpos": 5, "key_press": -1, "wordID": 254, "type": "PRES_VIS", "trial_index": 230}, "uniqueid": "MTK2654:3URFVVM166PHYB3IBZQGR1BY6FMZUJ", "dateTime": 1519193690094}, {"current_trial": 231, "trialdata": {"rt": -1, "trial_type": "single-stim", "word": "tombstone", "stimulus": "<p id=\"stim\">TOMBSTONE</p>", "conditions": [12, 800, "v", 12000], "internal_node_id": "0.0-168.0", "trial": 6, "time_elapsed": 1270677, "serialpos": 6, "key_press": -1, "wordID": 1477, "type": "PRES_VIS", "trial_index": 231}, "uniqueid": "MTK2654:3URFVVM166PHYB3IBZQGR1BY6FMZUJ", "dateTime": 1519193691879}, {"current_trial": 232, "trialdata": {"rt": -1, "trial_type": "single-stim", "word": "shortcake", "stimulus": "<p id=\"stim\">SHORTCAKE</p>", "conditions": [12, 800, "v", 12000], "internal_node_id": "0.0-169.0", "trial": 6, "time_elapsed": 1272326, "serialpos": 7, "key_press": -1, "wordID": 1291, "type": "PRES_VIS", "trial_index": 232}, "uniqueid": "MTK2654:3URFVVM166PHYB3IBZQGR1BY6FMZUJ", "dateTime": 1519193693528}, {"current_trial": 233, "trialdata": {"rt": -1, "trial_type": "single-stim", "word": "river", "stimulus": "<p id=\"stim\">RIVER</p>", "conditions": [12, 800, "v", 12000], "internal_node_id": "0.0-170.0", "trial": 6, "time_elapsed": 1274312, "serialpos": 8, "key_press": -1, "wordID": 1193, "type": "PRES_VIS", "trial_index": 233}, "uniqueid": "MTK2654:3URFVVM166PHYB3IBZQGR1BY6FMZUJ", "dateTime": 1519193695513}, {"current_trial": 234, "trialdata": {"rt": -1, "trial_type": "single-stim", "word": "missile", "stimulus": "<p id=\"stim\">MISSILE</p>", "conditions": [12, 800, "v", 12000], "internal_node_id": "0.0-171.0", "trial": 6, "time_elapsed": 1276261, "serialpos": 9, "key_press": -1, "wordID": 899, "type": "PRES_VIS", "trial_index": 234}, "uniqueid": "MTK2654:3URFVVM166PHYB3IBZQGR1BY6FMZUJ", "dateTime": 1519193697462}, {"current_trial": 235, "trialdata": {"rt": -1, "trial_type": "single-stim", "word": "paddle", "stimulus": "<p id=\"stim\">PADDLE</p>", "conditions": [12, 800, "v", 12000], "internal_node_id": "0.0-172.0", "trial": 6, "time_elapsed": 1278076, "serialpos": 10, "key_press": -1, "wordID": 999, "type": "PRES_VIS", "trial_index": 235}, "uniqueid": "MTK2654:3URFVVM166PHYB3IBZQGR1BY6FMZUJ", "dateTime": 1519193699277}, {"current_trial": 236, "trialdata": {"rt": -1, "trial_type": "single-stim", "word": "tutu", "stimulus": "<p id=\"stim\">TUTU</p>", "conditions": [12, 800, "v", 12000], "internal_node_id": "0.0-173.0", "trial": 6, "time_elapsed": 1279782, "serialpos": 11, "key_press": -1, "wordID": 1523, "type": "PRES_VIS", "trial_index": 236}, "uniqueid": "MTK2654:3URFVVM166PHYB3IBZQGR1BY6FMZUJ", "dateTime": 1519193700984}, {"current_trial": 237, "trialdata": {"rt": -1, "trial_type": "single-stim", "stimulus": "", "internal_node_id": "0.0-174.0-0.0", "time_elapsed": 1281914, "key_press": -1, "type": "PRE_RECALL_DELAY", "trial_index": 237}, "uniqueid": "MTK2654:3URFVVM166PHYB3IBZQGR1BY6FMZUJ", "dateTime": 1519193703116}, {"current_trial": 238, "trialdata": {"rt": -1000, "trial_type": "single-audio", "stimulus": "/static/audio/400Hz.wav", "internal_node_id": "0.0-175.0", "time_elapsed": 1282430, "key_press": -1, "type": "PRE_RECALL_ALERT", "trial_index": 238}, "uniqueid": "MTK2654:3URFVVM166PHYB3IBZQGR1BY6FMZUJ", "dateTime": 1519193703631}, {"current_trial": 239, "trialdata": {"rt": [2974, 5334, 6874, 8024, 32453, 37133], "recwords": ["paddle", "tutu", "missile", "casket", "tombstone", "quail"], "key_times": [1564, 1566, 1794, 1937, 2086, 2238, 2385, 2974, 3204, 3425, 3578, 3766, 3885, 5334, 5575, 5727, 5974, 6087, 6247, 6335, 6446, 6624, 6874, 6994, 7144, 7303, 7403, 7545, 7728, 7854, 8024, 30393, 30663, 30894, 31033, 31375, 31622, 31903, 32014, 32103, 32249, 32453, 35923, 36135, 36326, 36497, 36675, 36783, 37133], "trial_type": "free-recall", "conditions": [12, 800, "v", 12000], "internal_node_id": "0.0-176.0-0.0", "key_presses": [16, 80, 65, 68, 68, 76, 69, 13, 16, 84, 85, 84, 85, 13, 16, 77, 73, 83, 83, 73, 76, 69, 13, 16, 67, 65, 83, 75, 69, 84, 13, 16, 84, 79, 77, 66, 83, 84, 79, 78, 69, 13, 16, 81, 85, 65, 73, 76, 13], "trial": 6, "time_elapsed": 1342435, "type": "FREE_RECALL", "trial_index": 239}, "uniqueid": "MTK2654:3URFVVM166PHYB3IBZQGR1BY6FMZUJ", "dateTime": 1519193763644}, {"current_trial": 240, "trialdata": {"rt": 765, "trial_type": "text", "internal_node_id": "0.0-177.0", "time_elapsed": 1345209, "key_press": 32, "type": "INSTRUCTIONS", "trial_index": 240}, "uniqueid": "MTK2654:3URFVVM166PHYB3IBZQGR1BY6FMZUJ", "dateTime": 1519193766410}, {"current_trial": 241, "trialdata": {"rt": [2413, 5681, 9122, 10952, 13251, 15912, 17630, 20592, 23041], "trial_type": "math-distractor", "key_times": [1394, 1587, 1654, 2183, 2413, 5213, 5341, 5681, 8831, 9003, 9122, 10664, 10952, 12775, 12973, 13251, 15163, 15643, 15733, 15912, 17210, 17630, 20233, 20340, 20592, 22593, 22833, 23041], "responses": ["12", "20", "11", "5", "11", "4", "8", "20", "15"], "num2": [3, 9, 6, 2, 5, 1, 3, 8, 3, 4], "num3": [2, 4, 2, 1, 2, 1, 1, 8, 4, 9], "conditions": [12, 1600, "v", 24000], "internal_node_id": "0.0-178.0", "key_presses": [49, 50, 16, 16, 13, 50, 48, 13, 49, 49, 13, 53, 13, 49, 49, 13, 51, 8, 52, 13, 56, 13, 50, 48, 13, 49, 53, 13], "trial": 7, "time_elapsed": 1371215, "type": "DISTRACTOR", "trial_index": 241, "num1": [7, 7, 3, 2, 4, 2, 4, 4, 8, 3]}, "uniqueid": "MTK2654:3URFVVM166PHYB3IBZQGR1BY6FMZUJ", "dateTime": 1519193792417}, {"current_trial": 242, "trialdata": {"rt": -1, "trial_type": "single-stim", "stimulus": "<p id=\"stim\">10</p>", "internal_node_id": "0.0-179.0-0.0", "time_elapsed": 1374218, "key_press": -1, "trial_index": 242}, "uniqueid": "MTK2654:3URFVVM166PHYB3IBZQGR1BY6FMZUJ", "dateTime": 1519193795420}, {"current_trial": 243, "trialdata": {"rt": -1, "trial_type": "single-stim", "stimulus": "<p id=\"stim\">9</p>", "internal_node_id": "0.0-179.0-1.0", "time_elapsed": 1375220, "key_press": -1, "trial_index": 243}, "uniqueid": "MTK2654:3URFVVM166PHYB3IBZQGR1BY6FMZUJ", "dateTime": 1519193796421}, {"current_trial": 244, "trialdata": {"rt": -1, "trial_type": "single-stim", "stimulus": "<p id=\"stim\">8</p>", "internal_node_id": "0.0-179.0-2.0", "time_elapsed": 1376222, "key_press": -1, "trial_index": 244}, "uniqueid": "MTK2654:3URFVVM166PHYB3IBZQGR1BY6FMZUJ", "dateTime": 1519193797423}, {"current_trial": 245, "trialdata": {"rt": -1, "trial_type": "single-stim", "stimulus": "<p id=\"stim\">7</p>", "internal_node_id": "0.0-179.0-3.0", "time_elapsed": 1377224, "key_press": -1, "trial_index": 245}, "uniqueid": "MTK2654:3URFVVM166PHYB3IBZQGR1BY6FMZUJ", "dateTime": 1519193798426}, {"current_trial": 246, "trialdata": {"rt": -1, "trial_type": "single-stim", "stimulus": "<p id=\"stim\">6</p>", "internal_node_id": "0.0-179.0-4.0", "time_elapsed": 1378227, "key_press": -1, "trial_index": 246}, "uniqueid": "MTK2654:3URFVVM166PHYB3IBZQGR1BY6FMZUJ", "dateTime": 1519193799428}, {"current_trial": 247, "trialdata": {"rt": -1, "trial_type": "single-stim", "stimulus": "<p id=\"stim\">5</p>", "internal_node_id": "0.0-179.0-5.0", "time_elapsed": 1379228, "key_press": -1, "trial_index": 247}, "uniqueid": "MTK2654:3URFVVM166PHYB3IBZQGR1BY6FMZUJ", "dateTime": 1519193800429}, {"current_trial": 248, "trialdata": {"rt": -1, "trial_type": "single-stim", "stimulus": "<p id=\"stim\">4</p>", "internal_node_id": "0.0-179.0-6.0", "time_elapsed": 1380230, "key_press": -1, "trial_index": 248}, "uniqueid": "MTK2654:3URFVVM166PHYB3IBZQGR1BY6FMZUJ", "dateTime": 1519193801431}, {"current_trial": 249, "trialdata": {"rt": -1, "trial_type": "single-stim", "stimulus": "<p id=\"stim\">3</p>", "internal_node_id": "0.0-179.0-7.0", "time_elapsed": 1381233, "key_press": -1, "trial_index": 249}, "uniqueid": "MTK2654:3URFVVM166PHYB3IBZQGR1BY6FMZUJ", "dateTime": 1519193802435}, {"current_trial": 250, "trialdata": {"rt": -1, "trial_type": "single-stim", "stimulus": "<p id=\"stim\">2</p>", "internal_node_id": "0.0-179.0-8.0", "time_elapsed": 1382235, "key_press": -1, "trial_index": 250}, "uniqueid": "MTK2654:3URFVVM166PHYB3IBZQGR1BY6FMZUJ", "dateTime": 1519193803436}, {"current_trial": 251, "trialdata": {"rt": -1, "trial_type": "single-stim", "stimulus": "<p id=\"stim\">1</p>", "internal_node_id": "0.0-179.0-9.0", "ti