{"assignmentId": "3MYYFCXHJ4EIQWEY61B9TQXYVK04GN", "workerId": "MTK2364", "questiondata": {"avail_screen_height": 760, "color_depth": 24, "screen_width": 1280, "pixel_depth": 24, "avail_screen_width": 1280, "screen_height": 800}, "bonus": 0, "hitId": "3EFNPKWBMSVYACMF2JCL99MSR8T30S", "counterbalance": 1719, "useragent": "Mozilla/5.0 (Windows NT 6.1; Win64; x64) AppleWebKit/537.36 (KHTML, like Gecko) Chrome/63.0.3239.132 Safari/537.36", "eventdata": [{"eventtype": "initialized", "interval": 0, "value": null, "timestamp": 1516995531632}, {"eventtype": "window_resize", "interval": 0, "value": [1280, 754], "timestamp": 1516995531632}], "data": [{"current_trial": 0, "trialdata": {"rt": 8794, "trial_type": "text", "internal_node_id": "0.0-0.0", "time_elapsed": 8808, "key_press": 77, "type": "INSTRUCTIONS", "trial_index": 0}, "uniqueid": "MTK2364:3MYYFCXHJ4EIQWEY61B9TQXYVK04GN", "dateTime": 1516995541446}, {"current_trial": 1, "trialdata": {"rt": 26084, "trial_type": "text", "internal_node_id": "0.0-1.0", "time_elapsed": 34897, "key_press": 77, "type": "INSTRUCTIONS", "trial_index": 1}, "uniqueid": "MTK2364:3MYYFCXHJ4EIQWEY61B9TQXYVK04GN", "dateTime": 1516995567533}, {"current_trial": 2, "trialdata": {"rt": [30776], "trial_type": "audio-test", "responses": ["ocean"], "internal_node_id": "0.0-2.0", "time_elapsed": 65699, "type": "AUDIO_TEST", "trial_index": 2}, "uniqueid": "MTK2364:3MYYFCXHJ4EIQWEY61B9TQXYVK04GN", "dateTime": 1516995598335}, {"current_trial": 3, "trialdata": {"rt": [15056], "trial_type": "audio-test", "responses": ["crystal"], "internal_node_id": "0.0-3.0", "time_elapsed": 80769, "type": "AUDIO_TEST", "trial_index": 3}, "uniqueid": "MTK2364:3MYYFCXHJ4EIQWEY61B9TQXYVK04GN", "dateTime": 1516995613405}, {"current_trial": 4, "trialdata": {"rt": [12121], "trial_type": "audio-test", "responses": ["spice"], "internal_node_id": "0.0-4.0", "time_elapsed": 92902, "type": "AUDIO_TEST", "trial_index": 4}, "uniqueid": "MTK2364:3MYYFCXHJ4EIQWEY61B9TQXYVK04GN", "dateTime": 1516995625538}, {"current_trial": 5, "trialdata": {"rt": 44003, "trial_type": "survey-text", "responses": "{\"Q0\":\"11:00\",\"Q1\":\"7:00\",\"Q2\":\"5\"}", "internal_node_id": "0.0-5.0", "time_elapsed": 137660, "type": "SLEEP_SURVEY", "trial_index": 5}, "uniqueid": "MTK2364:3MYYFCXHJ4EIQWEY61B9TQXYVK04GN", "dateTime": 1516995670296}, {"current_trial": 6, "trialdata": {"rt": 67710, "trial_type": "text", "internal_node_id": "0.0-6.0", "time_elapsed": 206372, "key_press": 40, "type": "INSTRUCTIONS", "trial_index": 6}, "uniqueid": "MTK2364:3MYYFCXHJ4EIQWEY61B9TQXYVK04GN", "dateTime": 1516995739008}, {"current_trial": 7, "trialdata": {"rt": 23534, "trial_type": "text", "internal_node_id": "0.0-7.0", "time_elapsed": 230407, "key_press": 32, "type": "INSTRUCTIONS", "trial_index": 7}, "uniqueid": "MTK2364:3MYYFCXHJ4EIQWEY61B9TQXYVK04GN", "dateTime": 1516995763043}, {"current_trial": 8, "trialdata": {"rt": 11918, "trial_type": "text", "internal_node_id": "0.0-8.0", "time_elapsed": 242826, "key_press": 32, "type": "INSTRUCTIONS", "trial_index": 8}, "uniqueid": "MTK2364:3MYYFCXHJ4EIQWEY61B9TQXYVK04GN", "dateTime": 1516995775462}, {"current_trial": 9, "trialdata": {"rt": [7519, 10304, 12534, 14992, 17174], "trial_type": "math-distractor", "key_times": [2990, 3407, 4556, 6116, 7519, 9421, 9986, 10304, 11808, 12299, 12534, 14072, 14781, 14992, 16224, 16936, 17174], "responses": ["18", "18", "24", "14", "19"], "num2": [5, 7, 8, 4, 6, 3], "num3": [9, 3, 8, 3, 7, 3], "conditions": [18, 1200, "v", 18000], "internal_node_id": "0.0-9.0", "key_presses": [49, 56, 32, 8, 13, 49, 56, 13, 50, 52, 13, 49, 52, 13, 49, 57, 13], "trial": 0, "time_elapsed": 261837, "type": "DISTRACTOR", "trial_index": 9, "num1": [4, 8, 8, 7, 6, 6]}, "uniqueid": "MTK2364:3MYYFCXHJ4EIQWEY61B9TQXYVK04GN", "dateTime": 1516995794474}, {"current_trial": 10, "trialdata": {"rt": -1, "trial_type": "single-stim", "stimulus": "<p id=\"stim\">10</p>", "internal_node_id": "0.0-10.0-0.0", "time_elapsed": 264841, "key_press": -1, "trial_index": 10}, "uniqueid": "MTK2364:3MYYFCXHJ4EIQWEY61B9TQXYVK04GN", "dateTime": 1516995797477}, {"current_trial": 11, "trialdata": {"rt": -1, "trial_type": "single-stim", "stimulus": "<p id=\"stim\">9</p>", "internal_node_id": "0.0-10.0-1.0", "time_elapsed": 265843, "key_press": -1, "trial_index": 11}, "uniqueid": "MTK2364:3MYYFCXHJ4EIQWEY61B9TQXYVK04GN", "dateTime": 1516995798479}, {"current_trial": 12, "trialdata": {"rt": -1, "trial_type": "single-stim", "stimulus": "<p id=\"stim\">8</p>", "internal_node_id": "0.0-10.0-2.0", "time_elapsed": 266845, "key_press": -1, "trial_index": 12}, "uniqueid": "MTK2364:3MYYFCXHJ4EIQWEY61B9TQXYVK04GN", "dateTime": 1516995799481}, {"current_trial": 13, "trialdata": {"rt": -1, "trial_type": "single-stim", "stimulus": "<p id=\"stim\">7</p>", "internal_node_id": "0.0-10.0-3.0", "time_elapsed": 267847, "key_press": -1, "trial_index": 13}, "uniqueid": "MTK2364:3MYYFCXHJ4EIQWEY61B9TQXYVK04GN", "dateTime": 1516995800483}, {"current_trial": 14, "trialdata": {"rt": -1, "trial_type": "single-stim", "stimulus": "<p id=\"stim\">6</p>", "internal_node_id": "0.0-10.0-4.0", "time_elapsed": 268849, "key_press": -1, "trial_index": 14}, "uniqueid": "MTK2364:3MYYFCXHJ4EIQWEY61B9TQXYVK04GN", "dateTime": 1516995801485}, {"current_trial": 15, "trialdata": {"rt": -1, "trial_type": "single-stim", "stimulus": "<p id=\"stim\">5</p>", "internal_node_id": "0.0-10.0-5.0", "time_elapsed": 269851, "key_press": -1, "trial_index": 15}, "uniqueid": "MTK2364:3MYYFCXHJ4EIQWEY61B9TQXYVK04GN", "dateTime": 1516995802487}, {"current_trial": 16, "trialdata": {"rt": -1, "trial_type": "single-stim", "stimulus": "<p id=\"stim\">4</p>", "internal_node_id": "0.0-10.0-6.0", "time_elapsed": 270853, "key_press": -1, "trial_index": 16}, "uniqueid": "MTK2364:3MYYFCXHJ4EIQWEY61B9TQXYVK04GN", "dateTime": 1516995803489}, {"current_trial": 17, "trialdata": {"rt": -1, "trial_type": "single-stim", "stimulus": "<p id=\"stim\">3</p>", "internal_node_id": "0.0-10.0-7.0", "time_elapsed": 271857, "key_press": -1, "trial_index": 17}, "uniqueid": "MTK2364:3MYYFCXHJ4EIQWEY61B9TQXYVK04GN", "dateTime": 1516995804493}, {"current_trial": 18, "trialdata": {"rt": -1, "trial_type": "single-stim", "stimulus": "<p id=\"stim\">2</p>", "internal_node_id": "0.0-10.0-8.0", "time_elapsed": 272859, "key_press": -1, "trial_index": 18}, "uniqueid": "MTK2364:3MYYFCXHJ4EIQWEY61B9TQXYVK04GN", "dateTime": 1516995805495}, {"current_trial": 19, "trialdata": {"rt": -1, "trial_type": "single-stim", "stimulus": "<p id=\"stim\">1</p>", "internal_node_id": "0.0-10.0-9.0", "time_elapsed": 273860, "key_press": -1, "trial_index": 19}, "uniqueid": "MTK2364:3MYYFCXHJ4EIQWEY61B9TQXYVK04GN", "dateTime": 1516995806496}, {"current_trial": 20, "trialdata": {"rt": -1, "trial_type": "single-stim", "stimulus": "<p id=\"stim\">+</p>", "internal_node_id": "0.0-11.0-0.0", "time_elapsed": 275362, "key_press": -1, "type": "FIXATION", "trial_index": 20}, "uniqueid": "MTK2364:3MYYFCXHJ4EIQWEY61B9TQXYVK04GN", "dateTime": 1516995807998}, {"current_trial": 21, "trialdata": {"rt": -1, "trial_type": "single-stim", "word": "tutu", "stimulus": "<p id=\"stim\">TUTU</p>", "conditions": [18, 1200, "v", 18000], "internal_node_id": "0.0-12.0", "trial": 0, "time_elapsed": 276564, "serialpos": 0, "key_press": -1, "wordID": 1523, "type": "PRES_VIS", "trial_index": 21}, "uniqueid": "MTK2364:3MYYFCXHJ4EIQWEY61B9TQXYVK04GN", "dateTime": 1516995809200}, {"current_trial": 22, "trialdata": {"rt": -1, "trial_type": "single-stim", "word": "loft", "stimulus": "<p id=\"stim\">LOFT</p>", "conditions": [18, 1200, "v", 18000], "internal_node_id": "0.0-13.0", "trial": 0, "time_elapsed": 278881, "serialpos": 1, "key_press": -1, "wordID": 839, "type": "PRES_VIS", "trial_index": 22}, "uniqueid": "MTK2364:3MYYFCXHJ4EIQWEY61B9TQXYVK04GN", "dateTime": 1516995811517}, {"current_trial": 23, "trialdata": {"rt": -1, "trial_type": "single-stim", "word": "patrol", "stimulus": "<p id=\"stim\">PATROL</p>", "conditions": [18, 1200, "v", 18000], "internal_node_id": "0.0-14.0", "trial": 0, "time_elapsed": 281141, "serialpos": 2, "key_press": -1, "wordID": 1026, "type": "PRES_VIS", "trial_index": 23}, "uniqueid": "MTK2364:3MYYFCXHJ4EIQWEY61B9TQXYVK04GN", "dateTime": 1516995813777}, {"current_trial": 24, "trialdata": {"rt": -1, "trial_type": "single-stim", "word": "inmate", "stimulus": "<p id=\"stim\">INMATE</p>", "conditions": [18, 1200, "v", 18000], "internal_node_id": "0.0-15.0", "trial": 0, "time_elapsed": 283315, "serialpos": 3, "key_press": -1, "wordID": 737, "type": "PRES_VIS", "trial_index": 24}, "uniqueid": "MTK2364:3MYYFCXHJ4EIQWEY61B9TQXYVK04GN", "dateTime": 1516995815951}, {"current_trial": 25, "trialdata": {"rt": -1, "trial_type": "single-stim", "word": "couch", "stimulus": "<p id=\"stim\">COUCH</p>", "conditions": [18, 1200, "v", 18000], "internal_node_id": "0.0-16.0", "trial": 0, "time_elapsed": 285566, "serialpos": 4, "key_press": -1, "wordID": 385, "type": "PRES_VIS", "trial_index": 25}, "uniqueid": "MTK2364:3MYYFCXHJ4EIQWEY61B9TQXYVK04GN", "dateTime": 1516995818202}, {"current_trial": 26, "trialdata": {"rt": -1, "trial_type": "single-stim", "word": "dress", "stimulus": "<p id=\"stim\">DRESS</p>", "conditions": [18, 1200, "v", 18000], "internal_node_id": "0.0-17.0", "trial": 0, "time_elapsed": 287897, "serialpos": 5, "key_press": -1, "wordID": 494, "type": "PRES_VIS", "trial_index": 26}, "uniqueid": "MTK2364:3MYYFCXHJ4EIQWEY61B9TQXYVK04GN", "dateTime": 1516995820533}, {"current_trial": 27, "trialdata": {"rt": -1, "trial_type": "single-stim", "word": "cross", "stimulus": "<p id=\"stim\">CROSS</p>", "conditions": [18, 1200, "v", 18000], "internal_node_id": "0.0-18.0", "trial": 0, "time_elapsed": 290250, "serialpos": 6, "key_press": -1, "wordID": 412, "type": "PRES_VIS", "trial_index": 27}, "uniqueid": "MTK2364:3MYYFCXHJ4EIQWEY61B9TQXYVK04GN", "dateTime": 1516995822886}, {"current_trial": 28, "trialdata": {"rt": -1, "trial_type": "single-stim", "word": "butcher", "stimulus": "<p id=\"stim\">BUTCHER</p>", "conditions": [18, 1200, "v", 18000], "internal_node_id": "0.0-19.0", "trial": 0, "time_elapsed": 292264, "serialpos": 7, "key_press": -1, "wordID": 202, "type": "PRES_VIS", "trial_index": 28}, "uniqueid": "MTK2364:3MYYFCXHJ4EIQWEY61B9TQXYVK04GN", "dateTime": 1516995824901}, {"current_trial": 29, "trialdata": {"rt": -1, "trial_type": "single-stim", "word": "mop", "stimulus": "<p id=\"stim\">MOP</p>", "conditions": [18, 1200, "v", 18000], "internal_node_id": "0.0-20.0", "trial": 0, "time_elapsed": 294349, "serialpos": 8, "key_press": -1, "wordID": 915, "type": "PRES_VIS", "trial_index": 29}, "uniqueid": "MTK2364:3MYYFCXHJ4EIQWEY61B9TQXYVK04GN", "dateTime": 1516995826985}, {"current_trial": 30, "trialdata": {"rt": -1, "trial_type": "single-stim", "word": "woman", "stimulus": "<p id=\"stim\">WOMAN</p>", "conditions": [18, 1200, "v", 18000], "internal_node_id": "0.0-21.0", "trial": 0, "time_elapsed": 296500, "serialpos": 9, "key_press": -1, "wordID": 1619, "type": "PRES_VIS", "trial_index": 30}, "uniqueid": "MTK2364:3MYYFCXHJ4EIQWEY61B9TQXYVK04GN", "dateTime": 1516995829136}, {"current_trial": 31, "trialdata": {"rt": -1, "trial_type": "single-stim", "word": "convict", "stimulus": "<p id=\"stim\">CONVICT</p>", "conditions": [18, 1200, "v", 18000], "internal_node_id": "0.0-22.0", "trial": 0, "time_elapsed": 298871, "serialpos": 10, "key_press": -1, "wordID": 370, "type": "PRES_VIS", "trial_index": 31}, "uniqueid": "MTK2364:3MYYFCXHJ4EIQWEY61B9TQXYVK04GN", "dateTime": 1516995831508}, {"current_trial": 32, "trialdata": {"rt": -1, "trial_type": "single-stim", "word": "money", "stimulus": "<p id=\"stim\">MONEY</p>", "conditions": [18, 1200, "v", 18000], "internal_node_id": "0.0-23.0", "trial": 0, "time_elapsed": 301271, "serialpos": 11, "key_press": -1, "wordID": 907, "type": "PRES_VIS", "trial_index": 32}, "uniqueid": "MTK2364:3MYYFCXHJ4EIQWEY61B9TQXYVK04GN", "dateTime": 1516995833907}, {"current_trial": 33, "trialdata": {"rt": -1, "trial_type": "single-stim", "word": "table", "stimulus": "<p id=\"stim\">TABLE</p>", "conditions": [18, 1200, "v", 18000], "internal_node_id": "0.0-24.0", "trial": 0, "time_elapsed": 303275, "serialpos": 12, "key_press": -1, "wordID": 1425, "type": "PRES_VIS", "trial_index": 33}, "uniqueid": "MTK2364:3MYYFCXHJ4EIQWEY61B9TQXYVK04GN", "dateTime": 1516995835911}, {"current_trial": 34, "trialdata": {"rt": -1, "trial_type": "single-stim", "word": "paddle", "stimulus": "<p id=\"stim\">PADDLE</p>", "conditions": [18, 1200, "v", 18000], "internal_node_id": "0.0-25.0", "trial": 0, "time_elapsed": 305426, "serialpos": 13, "key_press": -1, "wordID": 999, "type": "PRES_VIS", "trial_index": 34}, "uniqueid": "MTK2364:3MYYFCXHJ4EIQWEY61B9TQXYVK04GN", "dateTime": 1516995838062}, {"current_trial": 35, "trialdata": {"rt": -1, "trial_type": "single-stim", "word": "casket", "stimulus": "<p id=\"stim\">CASKET</p>", "conditions": [18, 1200, "v", 18000], "internal_node_id": "0.0-26.0", "trial": 0, "time_elapsed": 307510, "serialpos": 14, "key_press": -1, "wordID": 254, "type": "PRES_VIS", "trial_index": 35}, "uniqueid": "MTK2364:3MYYFCXHJ4EIQWEY61B9TQXYVK04GN", "dateTime": 1516995840146}, {"current_trial": 36, "trialdata": {"rt": -1, "trial_type": "single-stim", "word": "salt", "stimulus": "<p id=\"stim\">SALT</p>", "conditions": [18, 1200, "v", 18000], "internal_node_id": "0.0-27.0", "trial": 0, "time_elapsed": 309835, "serialpos": 15, "key_press": -1, "wordID": 1228, "type": "PRES_VIS", "trial_index": 36}, "uniqueid": "MTK2364:3MYYFCXHJ4EIQWEY61B9TQXYVK04GN", "dateTime": 1516995842471}, {"current_trial": 37, "trialdata": {"rt": -1, "trial_type": "single-stim", "word": "marker", "stimulus": "<p id=\"stim\">MARKER</p>", "conditions": [18, 1200, "v", 18000], "internal_node_id": "0.0-28.0", "trial": 0, "time_elapsed": 311851, "serialpos": 16, "key_press": -1, "wordID": 869, "type": "PRES_VIS", "trial_index": 37}, "uniqueid": "MTK2364:3MYYFCXHJ4EIQWEY61B9TQXYVK04GN", "dateTime": 1516995844487}, {"current_trial": 38, "trialdata": {"rt": -1, "trial_type": "single-stim", "word": "picnic", "stimulus": "<p id=\"stim\">PICNIC</p>", "conditions": [18, 1200, "v", 18000], "internal_node_id": "0.0-29.0", "trial": 0, "time_elapsed": 314209, "serialpos": 17, "key_press": -1, "wordID": 1059, "type": "PRES_VIS", "trial_index": 38}, "uniqueid": "MTK2364:3MYYFCXHJ4EIQWEY61B9TQXYVK04GN", "dateTime": 1516995846845}, {"current_trial": 39, "trialdata": {"rt": -1, "trial_type": "single-stim", "stimulus": "", "internal_node_id": "0.0-30.0-0.0", "time_elapsed": 316524, "key_press": -1, "type": "PRE_RECALL_DELAY", "trial_index": 39}, "uniqueid": "MTK2364:3MYYFCXHJ4EIQWEY61B9TQXYVK04GN", "dateTime": 1516995849160}, {"current_trial": 40, "trialdata": {"rt": -1000, "trial_type": "single-audio", "stimulus": "/static/audio/400Hz.wav", "internal_node_id": "0.0-31.0", "time_elapsed": 317028, "key_press": -1, "type": "PRE_RECALL_ALERT", "trial_index": 40}, "uniqueid": "MTK2364:3MYYFCXHJ4EIQWEY61B9TQXYVK04GN", "dateTime": 1516995849664}, {"current_trial": 41, "trialdata": {"rt": [5696, 10411, 16247, 21611, 25607], "recwords": ["woman", "inmate", "salt", "couch", "tutu"], "key_times": [2443, 2862, 3710, 3992, 4191, 5696, 6790, 7171, 7441, 7734, 8191, 8441, 10411, 12483, 12731, 12991, 13383, 16247, 18956, 19211, 19637, 19982, 20414, 21611, 23689, 23892, 24084, 24241, 25607], "trial_type": "free-recall", "conditions": [18, 1200, "v", 18000], "internal_node_id": "0.0-32.0-0.0", "key_presses": [87, 79, 77, 65, 78, 13, 73, 78, 77, 65, 84, 69, 13, 83, 65, 76, 84, 13, 67, 79, 85, 67, 72, 13, 84, 85, 84, 85, 13], "trial": 0, "time_elapsed": 377030, "type": "FREE_RECALL", "trial_index": 41}, "uniqueid": "MTK2364:3MYYFCXHJ4EIQWEY61B9TQXYVK04GN", "dateTime": 1516995909672}, {"current_trial": 42, "trialdata": {"rt": 2627, "trial_type": "text", "internal_node_id": "0.0-33.0", "time_elapsed": 381664, "key_press": 32, "type": "INSTRUCTIONS", "trial_index": 42}, "uniqueid": "MTK2364:3MYYFCXHJ4EIQWEY61B9TQXYVK04GN", "dateTime": 1516995914301}, {"current_trial": 43, "trialdata": {"rt": [4345, 7289, 9158, 12400, 14722, 16524], "trial_type": "math-distractor", "key_times": [2430, 3876, 4345, 6904, 7289, 8684, 8890, 9158, 10465, 11952, 12400, 13906, 14475, 14722, 16087, 16279, 16524, 17652, 17856], "responses": ["17", "8", "12", "17", "20", "11"], "num2": [9, 4, 5, 2, 9, 6, 5], "num3": [7, 2, 2, 6, 3, 3, 2], "conditions": [18, 1200, "v", 18000], "internal_node_id": "0.0-34.0", "key_presses": [49, 55, 13, 56, 13, 49, 50, 13, 49, 55, 13, 50, 48, 13, 49, 49, 13, 49, 50], "trial": 1, "time_elapsed": 401670, "type": "DISTRACTOR", "trial_index": 43, "num1": [1, 2, 5, 9, 8, 2, 5]}, "uniqueid": "MTK2364:3MYYFCXHJ4EIQWEY61B9TQXYVK04GN", "dateTime": 1516995934306}, {"current_trial": 44, "trialdata": {"rt": -1, "trial_type": "single-stim", "stimulus": "<p id=\"stim\">10</p>", "internal_node_id": "0.0-35.0-0.0", "time_elapsed": 404674, "key_press": -1, "trial_index": 44}, "uniqueid": "MTK2364:3MYYFCXHJ4EIQWEY61B9TQXYVK04GN", "dateTime": 1516995937310}, {"current_trial": 45, "trialdata": {"rt": -1, "trial_type": "single-stim", "stimulus": "<p id=\"stim\">9</p>", "internal_node_id": "0.0-35.0-1.0", "time_elapsed": 405676, "key_press": -1, "trial_index": 45}, "uniqueid": "MTK2364:3MYYFCXHJ4EIQWEY61B9TQXYVK04GN", "dateTime": 1516995938312}, {"current_trial": 46, "trialdata": {"rt": -1, "trial_type": "single-stim", "stimulus": "<p id=\"stim\">8</p>", "internal_node_id": "0.0-35.0-2.0", "time_elapsed": 406677, "key_press": -1, "trial_index": 46}, "uniqueid": "MTK2364:3MYYFCXHJ4EIQWEY61B9TQXYVK04GN", "dateTime": 1516995939313}, {"current_trial": 47, "trialdata": {"rt": -1, "trial_type": "single-stim", "stimulus": "<p id=\"stim\">7</p>", "internal_node_id": "0.0-35.0-3.0", "time_elapsed": 407678, "key_press": -1, "trial_index": 47}, "uniqueid": "MTK2364:3MYYFCXHJ4EIQWEY61B9TQXYVK04GN", "dateTime": 1516995940314}, {"current_trial": 48, "trialdata": {"rt": -1, "trial_type": "single-stim", "stimulus": "<p id=\"stim\">6</p>", "internal_node_id": "0.0-35.0-4.0", "time_elapsed": 408679, "key_press": -1, "trial_index": 48}, "uniqueid": "MTK2364:3MYYFCXHJ4EIQWEY61B9TQXYVK04GN", "dateTime": 1516995941315}, {"current_trial": 49, "trialdata": {"rt": -1, "trial_type": "single-stim", "stimulus": "<p id=\"stim\">5</p>", "internal_node_id": "0.0-35.0-5.0", "time_elapsed": 409681, "key_press": -1, "trial_index": 49}, "uniqueid": "MTK2364:3MYYFCXHJ4EIQWEY61B9TQXYVK04GN", "dateTime": 1516995942317}, {"current_trial": 50, "trialdata": {"rt": -1, "trial_type": "single-stim", "stimulus": "<p id=\"stim\">4</p>", "internal_node_id": "0.0-35.0-6.0", "time_elapsed": 410683, "key_press": -1, "trial_index": 50}, "uniqueid": "MTK2364:3MYYFCXHJ4EIQWEY61B9TQXYVK04GN", "dateTime": 1516995943319}, {"current_trial": 51, "trialdata": {"rt": -1, "trial_type": "single-stim", "stimulus": "<p id=\"stim\">3</p>", "internal_node_id": "0.0-35.0-7.0", "time_elapsed": 411685, "key_press": -1, "trial_index": 51}, "uniqueid": "MTK2364:3MYYFCXHJ4EIQWEY61B9TQXYVK04GN", "dateTime": 1516995944321}, {"current_trial": 52, "trialdata": {"rt": -1, "trial_type": "single-stim", "stimulus": "<p id=\"stim\">2</p>", "internal_node_id": "0.0-35.0-8.0", "time_elapsed": 412686, "key_press": -1, "trial_index": 52}, "uniqueid": "MTK2364:3MYYFCXHJ4EIQWEY61B9TQXYVK04GN", "dateTime": 1516995945322}, {"current_trial": 53, "trialdata": {"rt": -1, "trial_type": "single-stim", "stimulus": "<p id=\"stim\">1</p>", "internal_node_id": "0.0-35.0-9.0", "time_elapsed": 413688, "key_press": -1, "trial_index": 53}, "uniqueid": "MTK2364:3MYYFCXHJ4EIQWEY61B9TQXYVK04GN", "dateTime": 1516995946324}, {"current_trial": 54, "trialdata": {"rt": -1, "trial_type": "single-stim", "stimulus": "<p id=\"stim\">+</p>", "internal_node_id": "0.0-36.0-0.0", "time_elapsed": 415190, "key_press": -1, "type": "FIXATION", "trial_index": 54}, "uniqueid": "MTK2364:3MYYFCXHJ4EIQWEY61B9TQXYVK04GN", "dateTime": 1516995947826}, {"current_trial": 55, "trialdata": {"rt": -1, "trial_type": "single-stim", "word": "expert", "stimulus": "<p id=\"stim\">EXPERT</p>", "conditions": [18, 1200, "v", 18000], "internal_node_id": "0.0-37.0", "trial": 1, "time_elapsed": 416392, "serialpos": 0, "key_press": -1, "wordID": 542, "type": "PRES_VIS", "trial_index": 55}, "uniqueid": "MTK2364:3MYYFCXHJ4EIQWEY61B9TQXYVK04GN", "dateTime": 1516995949028}, {"current_trial": 56, "trialdata": {"rt": -1, "trial_type": "single-stim", "word": "candy", "stimulus": "<p id=\"stim\">CANDY</p>", "conditions": [18, 1200, "v", 18000], "internal_node_id": "0.0-38.0", "trial": 1, "time_elapsed": 418672, "serialpos": 1, "key_press": -1, "wordID": 229, "type": "PRES_VIS", "trial_index": 56}, "uniqueid": "MTK2364:3MYYFCXHJ4EIQWEY61B9TQXYVK04GN", "dateTime": 1516995951308}, {"current_trial": 57, "trialdata": {"rt": -1, "trial_type": "single-stim", "word": "suitcase", "stimulus": "<p id=\"stim\">SUITCASE</p>", "conditions": [18, 1200, "v", 18000], "internal_node_id": "0.0-39.0", "trial": 1, "time_elapsed": 420944, "serialpos": 2, "key_press": -1, "wordID": 1402, "type": "PRES_VIS", "trial_index": 57}, "uniqueid": "MTK2364:3MYYFCXHJ4EIQWEY61B9TQXYVK04GN", "dateTime": 1516995953580}, {"current_trial": 58, "trialdata": {"rt": -1, "trial_type": "single-stim", "word": "cellar", "stimulus": "<p id=\"stim\">CELLAR</p>", "conditions": [18, 1200, "v", 18000], "internal_node_id": "0.0-40.0", "trial": 1, "time_elapsed": 423225, "serialpos": 3, "key_press": -1, "wordID": 266, "type": "PRES_VIS", "trial_index": 58}, "uniqueid": "MTK2364:3MYYFCXHJ4EIQWEY61B9TQXYVK04GN", "dateTime": 1516995955861}, {"current_trial": 59, "trialdata": {"rt": -1, "trial_type": "single-stim", "word": "tombstone", "stimulus": "<p id=\"stim\">TOMBSTONE</p>", "conditions": [18, 1200, "v", 18000], "internal_node_id": "0.0-41.0", "trial": 1, "time_elapsed": 425405, "serialpos": 4, "key_press": -1, "wordID": 1477, "type": "PRES_VIS", "trial_index": 59}, "uniqueid": "MTK2364:3MYYFCXHJ4EIQWEY61B9TQXYVK04GN", "dateTime": 1516995958041}, {"current_trial": 60, "trialdata": {"rt": -1, "trial_type": "single-stim", "word": "snail", "stimulus": "<p id=\"stim\">SNAIL</p>", "conditions": [18, 1200, "v", 18000], "internal_node_id": "0.0-42.0", "trial": 1, "time_elapsed": 427801, "serialpos": 5, "key_press": -1, "wordID": 1331, "type": "PRES_VIS", "trial_index": 60}, "uniqueid": "MTK2364:3MYYFCXHJ4EIQWEY61B9TQXYVK04GN", "dateTime": 1516995960437}, {"current_trial": 61, "trialdata": {"rt": -1, "trial_type": "single-stim", "word": "human", "stimulus": "<p id=\"stim\">HUMAN</p>", "conditions": [18, 1200, "v", 18000], "internal_node_id": "0.0-43.0", "trial": 1, "time_elapsed": 429892, "serialpos": 6, "key_press": -1, "wordID": 725, "type": "PRES_VIS", "trial_index": 61}, "uniqueid": "MTK2364:3MYYFCXHJ4EIQWEY61B9TQXYVK04GN", "dateTime": 1516995962528}, {"current_trial": 62, "trialdata": {"rt": -1, "trial_type": "single-stim", "word": "mildew", "stimulus": "<p id=\"stim\">MILDEW</p>", "conditions": [18, 1200, "v", 18000], "internal_node_id": "0.0-44.0", "trial": 1, "time_elapsed": 432070, "serialpos": 7, "key_press": -1, "wordID": 892, "type": "PRES_VIS", "trial_index": 62}, "uniqueid": "MTK2364:3MYYFCXHJ4EIQWEY61B9TQXYVK04GN", "dateTime": 1516995964706}, {"current_trial": 63, "trialdata": {"rt": -1, "trial_type": "single-stim", "word": "shorts", "stimulus": "<p id=\"stim\">SHORTS</p>", "conditions": [18, 1200, "v", 18000], "internal_node_id": "0.0-45.0", "trial": 1, "time_elapsed": 434242, "serialpos": 8, "key_press": -1, "wordID": 1292, "type": "PRES_VIS", "trial_index": 63}, "uniqueid": "MTK2364:3MYYFCXHJ4EIQWEY61B9TQXYVK04GN", "dateTime": 1516995966878}, {"current_trial": 64, "trialdata": {"rt": -1, "trial_type": "single-stim", "word": "wardrobe", "stimulus": "<p id=\"stim\">WARDROBE</p>", "conditions": [18, 1200, "v", 18000], "internal_node_id": "0.0-46.0", "trial": 1, "time_elapsed": 436633, "serialpos": 9, "key_press": -1, "wordID": 1586, "type": "PRES_VIS", "trial_index": 64}, "uniqueid": "MTK2364:3MYYFCXHJ4EIQWEY61B9TQXYVK04GN", "dateTime": 1516995969269}, {"current_trial": 65, "trialdata": {"rt": -1, "trial_type": "single-stim", "word": "curtain", "stimulus": "<p id=\"stim\">CURTAIN</p>", "conditions": [18, 1200, "v", 18000], "internal_node_id": "0.0-47.0", "trial": 1, "time_elapsed": 438774, "serialpos": 10, "key_press": -1, "wordID": 426, "type": "PRES_VIS", "trial_index": 65}, "uniqueid": "MTK2364:3MYYFCXHJ4EIQWEY61B9TQXYVK04GN", "dateTime": 1516995971410}, {"current_trial": 66, "trialdata": {"rt": -1, "trial_type": "single-stim", "word": "plaza", "stimulus": "<p id=\"stim\">PLAZA</p>", "conditions": [18, 1200, "v", 18000], "internal_node_id": "0.0-48.0", "trial": 1, "time_elapsed": 440986, "serialpos": 11, "key_press": -1, "wordID": 1087, "type": "PRES_VIS", "trial_index": 66}, "uniqueid": "MTK2364:3MYYFCXHJ4EIQWEY61B9TQXYVK04GN", "dateTime": 1516995973622}, {"current_trial": 67, "trialdata": {"rt": -1, "trial_type": "single-stim", "word": "statue", "stimulus": "<p id=\"stim\">STATUE</p>", "conditions": [18, 1200, "v", 18000], "internal_node_id": "0.0-49.0", "trial": 1, "time_elapsed": 443145, "serialpos": 12, "key_press": -1, "wordID": 1373, "type": "PRES_VIS", "trial_index": 67}, "uniqueid": "MTK2364:3MYYFCXHJ4EIQWEY61B9TQXYVK04GN", "dateTime": 1516995975781}, {"current_trial": 68, "trialdata": {"rt": -1, "trial_type": "single-stim", "word": "actress", "stimulus": "<p id=\"stim\">ACTRESS</p>", "conditions": [18, 1200, "v", 18000], "internal_node_id": "0.0-50.0", "trial": 1, "time_elapsed": 445385, "serialpos": 13, "key_press": -1, "wordID": 5, "type": "PRES_VIS", "trial_index": 68}, "uniqueid": "MTK2364:3MYYFCXHJ4EIQWEY61B9TQXYVK04GN", "dateTime": 1516995978027}, {"current_trial": 69, "trialdata": {"rt": -1, "trial_type": "single-stim", "word": "sponge", "stimulus": "<p id=\"stim\">SPONGE</p>", "conditions": [18, 1200, "v", 18000], "internal_node_id": "0.0-51.0", "trial": 1, "time_elapsed": 447614, "serialpos": 14, "key_press": -1, "wordID": 1354, "type": "PRES_VIS", "trial_index": 69}, "uniqueid": "MTK2364:3MYYFCXHJ4EIQWEY61B9TQXYVK04GN", "dateTime": 1516995980251}, {"current_trial": 70, "trialdata": {"rt": -1, "trial_type": "single-stim", "word": "garlic", "stimulus": "<p id=\"stim\">GARLIC</p>", "conditions": [18, 1200, "v", 18000], "internal_node_id": "0.0-52.0", "trial": 1, "time_elapsed": 449653, "serialpos": 15, "key_press": -1, "wordID": 623, "type": "PRES_VIS", "trial_index": 70}, "uniqueid": "MTK2364:3MYYFCXHJ4EIQWEY61B9TQXYVK04GN", "dateTime": 1516995982289}, {"current_trial": 71, "trialdata": {"rt": -1, "trial_type": "single-stim", "word": "spouse", "stimulus": "<p id=\"stim\">SPOUSE</p>", "conditions": [18, 1200, "v", 18000], "internal_node_id": "0.0-53.0", "trial": 1, "time_elapsed": 451672, "serialpos": 16, "key_press": -1, "wordID": 1357, "type": "PRES_VIS", "trial_index": 71}, "uniqueid": "MTK2364:3MYYFCXHJ4EIQWEY61B9TQXYVK04GN", "dateTime": 1516995984308}, {"current_trial": 72, "trialdata": {"rt": -1, "trial_type": "single-stim", "word": "dancer", "stimulus": "<p id=\"stim\">DANCER</p>", "conditions": [18, 1200, "v", 18000], "internal_node_id": "0.0-54.0", "trial": 1, "time_elapsed": 453688, "serialpos": 17, "key_press": -1, "wordID": 436, "type": "PRES_VIS", "trial_index": 72}, "uniqueid": "MTK2364:3MYYFCXHJ4EIQWEY61B9TQXYVK04GN", "dateTime": 1516995986324}, {"current_trial": 73, "trialdata": {"rt": -1, "trial_type": "single-stim", "stimulus": "", "internal_node_id": "0.0-55.0-0.0", "time_elapsed": 455868, "key_press": -1, "type": "PRE_RECALL_DELAY", "trial_index": 73}, "uniqueid": "MTK2364:3MYYFCXHJ4EIQWEY61B9TQXYVK04GN", "dateTime": 1516995988504}, {"current_trial": 74, "trialdata": {"rt": -1000, "trial_type": "single-audio", "stimulus": "/static/audio/400Hz.wav", "internal_node_id": "0.0-56.0", "time_elapsed": 456374, "key_press": -1, "type": "PRE_RECALL_ALERT", "trial_index": 74}, "uniqueid": "MTK2364:3MYYFCXHJ4EIQWEY61B9TQXYVK04GN", "dateTime": 1516995989010}, {"current_trial": 75, "trialdata": {"rt": [5646, 10303, 14137, 18296, 23989, 29516, 32680, 37813, 56831], "recwords": ["actress", "sponge", "spouse", "dancer", "mildew", "human", "insect", "casket", "couch"], "key_times": [956, 1916, 2646, 2902, 3134, 3546, 3886, 5646, 6732, 7059, 7318, 7866, 8213, 8576, 10303, 11176, 11506, 11766, 12133, 12414, 12643, 14137, 15146, 15466, 15936, 16167, 16528, 16789, 18296, 19341, 19756, 20056, 20343, 20556, 21219, 23989, 27344, 27656, 28249, 28496, 28665, 29516, 30124, 30466, 30691, 30888, 31216, 31599, 32680, 34780, 35230, 35437, 36082, 36319, 36630, 37813, 54092, 54448, 54795, 55598, 55959, 56831], "trial_type": "free-recall", "conditions": [18, 1200, "v", 18000], "internal_node_id": "0.0-57.0-0.0", "key_presses": [65, 67, 84, 82, 69, 83, 83, 32, 83, 80, 79, 78, 71, 69, 13, 83, 80, 79, 85, 83, 69, 13, 68, 65, 78, 67, 69, 82, 13, 77, 73, 76, 68, 69, 87, 13, 72, 85, 77, 65, 78, 13, 73, 78, 83, 69, 67, 84, 13, 67, 65, 83, 75, 69, 84, 13, 67, 79, 85, 67, 72, 13], "trial": 1, "time_elapsed": 516374, "type": "FREE_RECALL", "trial_index": 75}, "uniqueid": "MTK2364:3MYYFCXHJ4EIQWEY61B9TQXYVK04GN", "dateTime": 1516996049012}, {"current_trial": 76, "trialdata": {"rt": 4348, "trial_type": "text", "internal_node_id": "0.0-58.0", "time_elapsed": 522725, "key_press": 32, "type": "INSTRUCTIONS", "trial_index": 76}, "uniqueid": "MTK2364:3MYYFCXHJ4EIQWEY61B9TQXYVK04GN", "dateTime": 1516996055361}, {"current_trial": 77, "trialdata": {"rt": [4366, 6041, 7922, 10527, 12906, 15412, 17577, 19467, 21517, 23355], "trial_type": "math-distractor", "key_times": [1384, 3215, 4366, 5434, 5756, 6041, 7452, 7735, 7922, 10142, 10527, 12068, 12573, 12906, 14401, 15069, 15412, 17200, 17417, 17577, 19273, 19467, 20766, 21322, 21517, 22902, 23116, 23355], "responses": ["15", "13", "13", "8", "15", "20", "12", "8", "18", "21"], "num2": [5, 5, 2, 4, 1, 8, 3, 3, 2, 6, 2], "num3": [5, 1, 6, 1, 7, 5, 6, 1, 7, 7, 6], "conditions": [12, 800, "v", 24000], "internal_node_id": "0.0-59.0", "key_presses": [49, 53, 13, 49, 51, 13, 49, 51, 13, 56, 13, 49, 53, 13, 50, 48, 13, 49, 50, 13, 56, 13, 49, 56, 13, 50, 49, 13], "trial": 2, "time_elapsed": 547729, "type": "DISTRACTOR", "trial_index": 77, "num1": [5, 7, 5, 3, 7, 7, 3, 4, 9, 8, 1]}, "uniqueid": "MTK2364:3MYYFCXHJ4EIQWEY61B9TQXYVK04GN", "dateTime": 1516996080365}, {"current_trial": 78, "trialdata": {"rt": -1, "trial_type": "single-stim", "stimulus": "<p id=\"stim\">10</p>", "internal_node_id": "0.0-60.0-0.0", "time_elapsed": 550730, "key_press": -1, "trial_index": 78}, "uniqueid": "MTK2364:3MYYFCXHJ4EIQWEY61B9TQXYVK04GN", "dateTime": 1516996083366}, {"current_trial": 79, "trialdata": {"rt": -1, "trial_type": "single-stim", "stimulus": "<p id=\"stim\">9</p>", "internal_node_id": "0.0-60.0-1.0", "time_elapsed": 551731, "key_press": -1, "trial_index": 79}, "uniqueid": "MTK2364:3MYYFCXHJ4EIQWEY61B9TQXYVK04GN", "dateTime": 1516996084367}, {"current_trial": 80, "trialdata": {"rt": -1, "trial_type": "single-stim", "stimulus": "<p id=\"stim\">8</p>", "internal_node_id": "0.0-60.0-2.0", "time_elapsed": 552732, "key_press": -1, "trial_index": 80}, "uniqueid": "MTK2364:3MYYFCXHJ4EIQWEY61B9TQXYVK04GN", "dateTime": 1516996085368}, {"current_trial": 81, "trialdata": {"rt": -1, "trial_type": "single-stim", "stimulus": "<p id=\"stim\">7</p>", "internal_node_id": "0.0-60.0-3.0", "time_elapsed": 553735, "key_press": -1, "trial_index": 81}, "uniqueid": "MTK2364:3MYYFCXHJ4EIQWEY61B9TQXYVK04GN", "dateTime": 1516996086371}, {"current_trial": 82, "trialdata": {"rt": -1, "trial_type": "single-stim", "stimulus": "<p id=\"stim\">6</p>", "internal_node_id": "0.0-60.0-4.0", "time_elapsed": 554737, "key_press": -1, "trial_index": 82}, "uniqueid": "MTK2364:3MYYFCXHJ4EIQWEY61B9TQXYVK04GN", "dateTime": 1516996087373}, {"current_trial": 83, "trialdata": {"rt": -1, "trial_type": "single-stim", "stimulus": "<p id=\"stim\">5</p>", "internal_node_id": "0.0-60.0-5.0", "time_elapsed": 555738, "key_press": -1, "trial_index": 83}, "uniqueid": "MTK2364:3MYYFCXHJ4EIQWEY61B9TQXYVK04GN", "dateTime": 1516996088374}, {"current_trial": 84, "trialdata": {"rt": -1, "trial_type": "single-stim", "stimulus": "<p id=\"stim\">4</p>", "internal_node_id": "0.0-60.0-6.0", "time_elapsed": 556739, "key_press": -1, "trial_index": 84}, "uniqueid": "MTK2364:3MYYFCXHJ4EIQWEY61B9TQXYVK04GN", "dateTime": 1516996089375}, {"current_trial": 85, "trialdata": {"rt": -1, "trial_type": "single-stim", "stimulus": "<p id=\"stim\">3</p>", "internal_node_id": "0.0-60.0-7.0", "time_elapsed": 557741, "key_press": -1, "trial_index": 85}, "uniqueid": "MTK2364:3MYYFCXHJ4EIQWEY61B9TQXYVK04GN", "dateTime": 1516996090377}, {"current_trial": 86, "trialdata": {"rt": -1, "trial_type": "single-stim", "stimulus": "<p id=\"stim\">2</p>", "internal_node_id": "0.0-60.0-8.0", "time_elapsed": 558743, "key_press": -1, "trial_index": 86}, "uniqueid": "MTK2364:3MYYFCXHJ4EIQWEY61B9TQXYVK04GN", "dateTime": 1516996091379}, {"current_trial": 87, "trialdata": {"rt": -1, "trial_type": "single-stim", "stimulus": "<p id=\"stim\">1</p>", "internal_node_id": "0.0-60.0-9.0", "time_elapsed": 559744, "key_press": -1, "trial_index": 87}, "uniqueid": "MTK2364:3MYYFCXHJ4EIQWEY61B9TQXYVK04GN", "dateTime": 1516996092380}, {"current_trial": 88, "trialdata": {"rt": -1, "trial_type": "single-stim", "stimulus": "<p id=\"stim\">+</p>", "internal_node_id": "0.0-61.0-0.0", "time_elapsed": 561246, "key_press": -1, "type": "FIXATION", "trial_index": 88}, "uniqueid": "MTK2364:3MYYFCXHJ4EIQWEY61B9TQXYVK04GN", "dateTime": 1516996093882}, {"current_trial": 89, "trialdata": {"rt": -1, "trial_type": "single-stim", "word": "wrist", "stimulus": "<p id=\"stim\">WRIST</p>", "conditions": [12, 800, "v", 24000], "internal_node_id": "0.0-62.0", "trial": 2, "time_elapsed": 562048, "serialpos": 0, "key_press": -1, "wordID": 1625, "type": "PRES_VIS", "trial_index": 89}, "uniqueid": "MTK2364:3MYYFCXHJ4EIQWEY61B9TQXYVK04GN", "dateTime": 1516996094684}, {"current_trial": 90, "trialdata": {"rt": -1, "trial_type": "single-stim", "word": "finger", "stimulus": "<p id=\"stim\">FINGER</p>", "conditions": [12, 800, "v", 24000], "internal_node_id": "0.0-63.0", "trial": 2, "time_elapsed": 564017, "serialpos": 1, "key_press": -1, "wordID": 566, "type": "PRES_VIS", "trial_index": 90}, "uniqueid": "MTK2364:3MYYFCXHJ4EIQWEY61B9TQXYVK04GN", "dateTime": 1516996096653}, {"current_trial": 91, "trialdata": {"rt": -1, "trial_type": "single-stim", "word": "cupboard", "stimulus": "<p id=\"stim\">CUPBOARD</p>", "conditions": [12, 800, "v", 24000], "internal_node_id": "0.0-64.0", "trial": 2, "time_elapsed": 565760, "serialpos": 2, "key_press": -1, "wordID": 424, "type": "PRES_VIS", "trial_index": 91}, "uniqueid": "MTK2364:3MYYFCXHJ4EIQWEY61B9TQXYVK04GN", "dateTime": 1516996098396}, {"current_trial": 92, "trialdata": {"rt": -1, "trial_type": "single-stim", "word": "contract", "stimulus": "<p id=\"stim\">CONTRACT</p>", "conditions": [12, 800, "v", 24000], "internal_node_id": "0.0-65.0", "trial": 2, "time_elapsed": 567719, "serialpos": 3, "key_press": -1, "wordID": 367, "type": "PRES_VIS", "trial_index": 92}, "uniqueid": "MTK2364:3MYYFCXHJ4EIQWEY61B9TQXYVK04GN", "dateTime": 1516996100355}, {"current_trial": 93, "trialdata": {"rt": -1, "trial_type": "single-stim", "word": "liver", "stimulus": "<p id=\"stim\">LIVER</p>", "conditions": [12, 800, "v", 24000], "internal_node_id": "0.0-66.0", "trial": 2, "time_elapsed": 569378, "serialpos": 4, "key_press": -1, "wordID": 832, "type": "PRES_VIS", "trial_index": 93}, "uniqueid": "MTK2364:3MYYFCXHJ4EIQWEY61B9TQXYVK04GN", "dateTime": 1516996102014}, {"current_trial": 94, "trialdata": {"rt": -1, "trial_type": "single-stim", "word": "custard", "stimulus": "<p id=\"stim\">CUSTARD</p>", "conditions": [12, 800, "v", 24000], "internal_node_id": "0.0-67.0", "trial": 2, "time_elapsed": 571285, "serialpos": 5, "key_press": -1, "wordID": 428, "type": "PRES_VIS", "trial_index": 94}, "uniqueid": "MTK2364:3MYYFCXHJ4EIQWEY61B9TQXYVK04GN", "dateTime": 1516996103921}, {"current_trial": 95, "trialdata": {"rt": -1, "trial_type": "single-stim", "word": "lover", "stimulus": "<p id=\"stim\">LOVER</p>", "conditions": [12, 800, "v", 24000], "internal_node_id": "0.0-68.0", "trial": 2, "time_elapsed": 573184, "serialpos": 6, "key_press": -1, "wordID": 845, "type": "PRES_VIS", "trial_index": 95}, "uniqueid": "MTK2364:3MYYFCXHJ4EIQWEY61B9TQXYVK04GN", "dateTime": 1516996105820}, {"current_trial": 96, "trialdata": {"rt": -1, "trial_type": "single-stim", "word": "kidney", "stimulus": "<p id=\"stim\">KIDNEY</p>", "conditions": [12, 800, "v", 24000], "internal_node_id": "0.0-69.0", "trial": 2, "time_elapsed": 575137, "serialpos": 7, "key_press": -1, "wordID": 775, "type": "PRES_VIS", "trial_index": 96}, "uniqueid": "MTK2364:3MYYFCXHJ4EIQWEY61B9TQXYVK04GN", "dateTime": 1516996107773}, {"current_trial": 97, "trialdata": {"rt": -1, "trial_type": "single-stim", "word": "headband", "stimulus": "<p id=\"stim\">HEADBAND</p>", "conditions": [12, 800, "v", 24000], "internal_node_id": "0.0-70.0", "trial": 2, "time_elapsed": 576889, "serialpos": 8, "key_press": -1, "wordID": 695, "type": "PRES_VIS", "trial_index": 97}, "uniqueid": "MTK2364:3MYYFCXHJ4EIQWEY61B9TQXYVK04GN", "dateTime": 1516996109525}, {"current_trial": 98, "trialdata": {"rt": -1, "trial_type": "single-stim", "word": "permit", "stimulus": "<p id=\"stim\">PERMIT</p>", "conditions": [12, 800, "v", 24000], "internal_node_id": "0.0-71.0", "trial": 2, "time_elapsed": 578822, "serialpos": 9, "key_press": -1, "wordID": 1050, "type": "PRES_VIS", "trial_index": 98}, "uniqueid": "MTK2364:3MYYFCXHJ4EIQWEY61B9TQXYVK04GN", "dateTime": 1516996111458}, {"current_trial": 99, "trialdata": {"rt": -1, "trial_type": "single-stim", "word": "waiter", "stimulus": "<p id=\"stim\">WAITER</p>", "conditions": [12, 800, "v", 24000], "internal_node_id": "0.0-72.0", "trial": 2, "time_elapsed": 580467, "serialpos": 10, "key_press": -1, "wordID": 1579, "type": "PRES_VIS", "trial_index": 99}, "uniqueid": "MTK2364:3MYYFCXHJ4EIQWEY61B9TQXYVK04GN", "dateTime": 1516996113103}, {"current_trial": 100, "trialdata": {"rt": -1, "trial_type": "single-stim", "word": "kitchen", "stimulus": "<p id=\"stim\">KITCHEN</p>", "conditions": [12, 800, "v", 24000], "internal_node_id": "0.0-73.0", "trial": 2, "time_elapsed": 582426, "serialpos": 11, "key_press": -1, "wordID": 777, "type": "PRES_VIS", "trial_index": 100}, "uniqueid": "MTK2364:3MYYFCXHJ4EIQWEY61B9TQXYVK04GN", "dateTime": 1516996115062}, {"current_trial": 101, "trialdata": {"rt": -1, "trial_type": "single-stim", "stimulus": "", "internal_node_id": "0.0-74.0-0.0", "time_elapsed": 584713, "key_press": -1, "type": "PRE_RECALL_DELAY", "trial_index": 101}, "uniqueid": "MTK2364:3MYYFCXHJ4EIQWEY61B9TQXYVK04GN", "dateTime": 1516996117349}, {"current_trial": 102, "trialdata": {"rt": -1000, "trial_type": "single-audio", "stimulus": "/static/audio/400Hz.wav", "internal_node_id": "0.0-75.0", "time_elapsed": 585219, "key_press": -1, "type": "PRE_RECALL_ALERT", "trial_index": 102}, "uniqueid": "MTK2364:3MYYFCXHJ4EIQWEY61B9TQXYVK04GN", "dateTime": 1516996117855}, {"current_trial": 103, "trialdata": {"rt": [6875, 10661, 17065, 27447, 31193, 34411, 38718, 41614, 46804, 54704], "recwords": ["kitchen", "waiter", "headband", "cupbord", "wrist", "finger", "contract", "liver", "kidney", "contract"], "key_times": [1380, 1883, 2300, 2851, 3115, 3423, 4387, 6875, 7611, 7847, 8317, 8711, 9099, 9287, 10661, 13096, 13336, 13641, 13929, 14409, 14681, 14999, 15416, 17065, 22286, 22876, 23547, 24236, 24592, 25200, 25891, 27447, 28501, 28851, 29224, 29476, 30351, 31193, 32012, 32296, 32702, 33123, 33366, 33579, 34411, 35298, 35547, 35974, 36225, 36421, 36929, 37227, 37551, 38718, 39483, 39826, 40300, 40525, 40744, 41614, 43454, 43813, 44142, 44455, 44729, 45158, 46804, 51625, 51969, 52398, 52656, 52878, 53386, 53686, 54015, 54704], "trial_type": "free-recall", "conditions": [12, 800, "v", 24000], "internal_node_id": "0.0-76.0-0.0", "key_presses": [75, 73, 84, 67, 72, 69, 78, 13, 87, 65, 73, 84, 69, 82, 13, 72, 69, 65, 68, 66, 65, 78, 68, 13, 67, 85, 80, 66, 79, 82, 68, 13, 87, 82, 73, 83, 84, 13, 70, 73, 78, 71, 69, 82, 13, 67, 79, 78, 84, 82, 65, 67, 84, 13, 76, 73, 86, 69, 82, 13, 75, 73, 68, 78, 69, 89, 13, 67, 79, 78, 84, 82, 65, 67, 84, 13], "trial": 2, "time_elapsed": 645221, "type": "FREE_RECALL", "trial_index": 103}, "uniqueid": "MTK2364:3MYYFCXHJ4EIQWEY61B9TQXYVK04GN", "dateTime": 1516996177862}, {"current_trial": 104, "trialdata": {"rt": 2435, "trial_type": "text", "internal_node_id": "0.0-77.0", "time_elapsed": 649662, "key_press": 32, "type": "INSTRUCTIONS", "trial_index": 104}, "uniqueid": "MTK2364:3MYYFCXHJ4EIQWEY61B9TQXYVK04GN", "dateTime": 1516996182298}, {"current_trial": 105, "trialdata": {"rt": [2555, 4656, 6998, 8698, 11651, 13706, 15686, 17846, 20609, 22832], "trial_type": "math-distractor", "key_times": [1565, 1850, 2555, 4482, 4656, 6314, 6810, 6998, 8032, 8495, 8698, 10175, 11413, 11651, 13304, 13534, 13706, 15479, 15686, 17025, 17613, 17846, 20194, 20609, 22112, 22616, 22832, 23963], "responses": ["19", "8", "18", "15", "11", "23", "8", "20", "7", "26"], "num2": [3, 5, 6, 5, 3, 8, 5, 7, 3, 9, 3], "num3": [8, 2, 4, 5, 1, 9, 2, 9, 2, 9, 9], "conditions": [12, 800, "v", 24000], "internal_node_id": "0.0-78.0", "key_presses": [49, 57, 13, 56, 13, 49, 56, 13, 49, 53, 13, 49, 49, 13, 50, 51, 13, 56, 13, 50, 48, 13, 55, 13, 50, 54, 13, 50], "trial": 3, "time_elapsed": 675666, "type": "DISTRACTOR", "trial_index": 105, "num1": [8, 1, 8, 5, 7, 6, 1, 4, 2, 8, 8]}, "uniqueid": "MTK2364:3MYYFCXHJ4EIQWEY61B9TQXYVK04GN", "dateTime": 1516996208303}, {"current_trial": 106, "trialdata": {"rt": -1, "trial_type": "single-stim", "stimulus": "<p id=\"stim\">10</p>", "internal_node_id": "0.0-79.0-0.0", "time_elapsed": 678668, "key_press": -1, "trial_index": 106}, "uniqueid": "MTK2364:3MYYFCXHJ4EIQWEY61B9TQXYVK04GN", "dateTime": 1516996211304}, {"current_trial": 107, "trialdata": {"rt": -1, "trial_type": "single-stim", "stimulus": "<p id=\"stim\">9</p>", "internal_node_id": "0.0-79.0-1.0", "time_elapsed": 679670, "key_press": -1, "trial_index": 107}, "uniqueid": "MTK2364:3MYYFCXHJ4EIQWEY61B9TQXYVK04GN", "dateTime": 1516996212306}, {"current_trial": 108, "trialdata": {"rt": -1, "trial_type": "single-stim", "stimulus": "<p id=\"stim\">8</p>", "internal_node_id": "0.0-79.0-2.0", "time_elapsed": 680671, "key_press": -1, "trial_index": 108}, "uniqueid": "MTK2364:3MYYFCXHJ4EIQWEY61B9TQXYVK04GN", "dateTime": 1516996213307}, {"current_trial": 109, "trialdata": {"rt": -1, "trial_type": "single-stim", "stimulus": "<p id=\"stim\">7</p>", "internal_node_id": "0.0-79.0-3.0", "time_elapsed": 681672, "key_press": -1, "trial_index": 109}, "uniqueid": "MTK2364:3MYYFCXHJ4EIQWEY61B9TQXYVK04GN", "dateTime": 1516996214308}, {"current_trial": 110, "trialdata": {"rt": -1, "trial_type": "single-stim", "stimulus": "<p id=\"stim\">6</p>", "internal_node_id": "0.0-79.0-4.0", "time_elapsed": 682673, "key_press": -1, "trial_index": 110}, "uniqueid": "MTK2364:3MYYFCXHJ4EIQWEY61B9TQXYVK04GN", "dateTime": 1516996215309}, {"current_trial": 111, "trialdata": {"rt": -1, "trial_type": "single-stim", "stimulus": "<p id=\"stim\">5</p>", "internal_node_id": "0.0-79.0-5.0", "time_elapsed": 683674, "key_press": -1, "trial_index": 111}, "uniqueid": "MTK2364:3MYYFCXHJ4EIQWEY61B9TQXYVK04GN", "dateTime": 1516996216310}, {"current_trial": 112, "trialdata": {"rt": -1, "trial_type": "single-stim", "stimulus": "<p id=\"stim\">4</p>", "internal_node_id": "0.0-79.0-6.0", "time_elapsed": 684675, "key_press": -1, "trial_index": 112}, "uniqueid": "MTK2364:3MYYFCXHJ4EIQWEY61B9TQXYVK04GN", "dateTime": 1516996217311}, {"current_trial": 113, "trialdata": {"rt": -1, "trial_type": "single-stim", "stimulus": "<p id=\"stim\">3</p>", "internal_node_id": "0.0-79.0-7.0", "time_elapsed": 685676, "key_press": -1, "trial_index": 113}, "uniqueid": "MTK2364:3MYYFCXHJ4EIQWEY61B9TQXYVK04GN", "dateTime": 1516996218312}, {"current_trial": 114, "trialdata": {"rt": -1, "trial_type": "single-stim", "stimulus": "<p id=\"stim\">2</p>", "internal_node_id": "0.0-79.0-8.0", "time_elapsed": 686677, "key_press": -1, "trial_index": 114}, "uniqueid": "MTK2364:3MYYFCXHJ4EIQWEY61B9TQXYVK04GN", "dateTime": 1516996219314}, {"current_trial": 115, "trialdata": {"rt": -1, "trial_type": "single-stim", "stimulus": "<p id=\"stim\">1</p>", "internal_node_id": "0.0-79.0-9.0", "time_elapsed": 687680, "key_press": -1, "trial_index": 115}, "uniqueid": "MTK2364:3MYYFCXHJ4EIQWEY61B9TQXYVK04GN", "dateTime": 1516996220316}, {"current_trial": 116, "trialdata": {"rt": -1, "trial_type": "single-stim", "stimulus": "<p id=\"stim\">+</p>", "internal_node_id": "0.0-80.0-0.0", "time_elapsed": 689182, "key_press": -1, "type": "FIXATION", "trial_index": 116}, "uniqueid": "MTK2364:3MYYFCXHJ4EIQWEY61B9TQXYVK04GN", "dateTime": 1516996221818}, {"current_trial": 117, "trialdata": {"rt": -1, "trial_type": "single-stim", "word": "climber", "stimulus": "<p id=\"stim\">CLIMBER</p>", "conditions": [12, 800, "v", 24000], "internal_node_id": "0.0-81.0", "trial": 3, "time_elapsed": 689984, "serialpos": 0, "key_press": -1, "wordID": 322, "type": "PRES_VIS", "trial_index": 117}, "uniqueid": "MTK2364:3MYYFCXHJ4EIQWEY61B9TQXYVK04GN", "dateTime": 1516996222620}, {"current_trial": 118, "trialdata": {"rt": -1, "trial_type": "single-stim", "word": "body", "stimulus": "<p id=\"stim\">BODY</p>", "conditions": [12, 800, "v", 24000], "internal_node_id": "0.0-82.0", "trial": 3, "time_elapsed": 691925, "serialpos": 1, "key_press": -1, "wordID": 144, "type": "PRES_VIS", "trial_index": 118}, "uniqueid": "MTK2364:3MYYFCXHJ4EIQWEY61B9TQXYVK04GN", "dateTime": 1516996224561}, {"current_trial": 119, "trialdata": {"rt": -1, "trial_type": "single-stim", "word": "switch", "stimulus": "<p id=\"stim\">SWITCH</p>", "conditions": [12, 800, "v", 24000], "internal_node_id": "0.0-83.0", "trial": 3, "time_elapsed": 693623, "serialpos": 2, "key_press": -1, "wordID": 1421, "type": "PRES_VIS", "trial_index": 119}, "uniqueid": "MTK2364:3MYYFCXHJ4EIQWEY61B9TQXYVK04GN", "dateTime": 1516996226259}, {"current_trial": 120, "trialdata": {"rt": -1, "trial_type": "single-stim", "word": "pebble", "stimulus": "<p id=\"stim\">PEBBLE</p>", "conditions": [12, 800, "v", 24000], "internal_node_id": "0.0-84.0", "trial": 3, "time_elapsed": 695604, "serialpos": 3, "key_press": -1, "wordID": 1034, "type": "PRES_VIS", "trial_index": 120}, "uniqueid": "MTK2364:3MYYFCXHJ4EIQWEY61B9TQXYVK04GN", "dateTime": 1516996228240}, {"current_trial": 121, "trialdata": {"rt": -1, "trial_type": "single-stim", "word": "camel", "stimulus": "<p id=\"stim\">CAMEL</p>", "conditions": [12, 800, "v", 24000], "internal_node_id": "0.0-85.0", "trial": 3, "time_elapsed": 697423, "serialpos": 4, "key_press": -1, "wordID": 222, "type": "PRES_VIS", "trial_index": 121}, "uniqueid": "MTK2364:3MYYFCXHJ4EIQWEY61B9TQXYVK04GN", "dateTime": 1516996230059}, {"current_trial": 122, "trialdata": {"rt": -1, "trial_type": "single-stim", "word": "scarf", "stimulus": "<p id=\"stim\">SCARF</p>", "conditions": [12, 800, "v", 24000], "internal_node_id": "0.0-86.0", "trial": 3, "time_elapsed": 699029, "serialpos": 5, "key_press": -1, "wordID": 1245, "type": "PRES_VIS", "trial_index": 122}, "uniqueid": "MTK2364:3MYYFCXHJ4EIQWEY61B9TQXYVK04GN", "dateTime": 1516996231665}, {"current_trial": 123, "trialdata": {"rt": -1, "trial_type": "single-stim", "word": "arm", "stimulus": "<p id=\"stim\">ARM</p>", "conditions": [12, 800, "v", 24000], "internal_node_id": "0.0-87.0", "trial": 3, "time_elapsed": 700791, "serialpos": 6, "key_press": -1, "wordID": 37, "type": "PRES_VIS", "trial_index": 123}, "uniqueid": "MTK2364:3MYYFCXHJ4EIQWEY61B9TQXYVK04GN", "dateTime": 1516996233427}, {"current_trial": 124, "trialdata": {"rt": -1, "trial_type": "single-stim", "word": "wasp", "stimulus": "<p id=\"stim\">WASP</p>", "conditions": [12, 800, "v", 24000], "internal_node_id": "0.0-88.0", "trial": 3, "time_elapsed": 702540, "serialpos": 7, "key_press": -1, "wordID": 1592, "type": "PRES_VIS", "trial_index": 124}, "uniqueid": "MTK2364:3MYYFCXHJ4EIQWEY61B9TQXYVK04GN", "dateTime": 1516996235176}, {"current_trial": 125, "trialdata": {"rt": -1, "trial_type": "single-stim", "word": "spider", "stimulus": "<p id=\"stim\">SPIDER</p>", "conditions": [12, 800, "v", 24000], "internal_node_id": "0.0-89.0", "trial": 3, "time_elapsed": 704256, "serialpos": 8, "key_press": -1, "wordID": 1350, "type": "PRES_VIS", "trial_index": 125}, "uniqueid": "MTK2364:3MYYFCXHJ4EIQWEY61B9TQXYVK04GN", "dateTime": 1516996236892}, {"current_trial": 126, "trialdata": {"rt": -1, "trial_type": "single-stim", "word": "donkey", "stimulus": "<p id=\"stim\">DONKEY</p>", "conditions": [12, 800, "v", 24000], "internal_node_id": "0.0-90.0", "trial": 3, "time_elapsed": 706248, "serialpos": 9, "key_press": -1, "wordID": 483, "type": "PRES_VIS", "trial_index": 126}, "uniqueid": "MTK2364:3MYYFCXHJ4EIQWEY61B9TQXYVK04GN", "dateTime": 1516996238884}, {"current_trial": 127, "trialdata": {"rt": -1, "trial_type": "single-stim", "word": "playground", "stimulus": "<p id=\"stim\">PLAYGROUND</p>", "conditions": [12, 800, "v", 24000], "internal_node_id": "0.0-91.0", "trial": 3, "time_elapsed": 708142, "serialpos": 10, "key_press": -1, "wordID": 1086, "type": "PRES_VIS", "trial_index": 127}, "uniqueid": "MTK2364:3MYYFCXHJ4EIQWEY61B9TQXYVK04GN", "dateTime": 1516996240778}, {"current_trial": 128, "trialdata": {"rt": -1, "trial_type": "single-stim", "word": "journal", "stimulus": "<p id=\"stim\">JOURNAL</p>", "conditions": [12, 800, "v", 24000], "internal_node_id": "0.0-92.0", "trial": 3, "time_elapsed": 710112, "serialpos": 11, "key_press": -1, "wordID": 759, "type": "PRES_VIS", "trial_index": 128}, "uniqueid": "MTK2364:3MYYFCXHJ4EIQWEY61B9TQXYVK04GN", "dateTime": 1516996242748}, {"current_trial": 129, "trialdata": {"rt": -1, "trial_type": "single-stim", "stimulus": "", "internal_node_id": "0.0-93.0-0.0", "time_elapsed": 712441, "key_press": -1, "type": "PRE_RECALL_DELAY", "trial_index": 129}, "uniqueid": "MTK2364:3MYYFCXHJ4EIQWEY61B9TQXYVK04GN", "dateTime": 1516996245077}, {"current_trial": 130, "trialdata": {"rt": -1000, "trial_type": "single-audio", "stimulus": "/static/audio/400Hz.wav", "internal_node_id": "0.0-94.0", "time_elapsed": 712950, "key_press": -1, "type": "PRE_RECALL_ALERT", "trial_index": 130}, "uniqueid": "MTK2364:3MYYFCXHJ4EIQWEY61B9TQXYVK04GN", "dateTime": 1516996245586}, {"current_trial": 131, "trialdata": {"rt": [6283, 10390, 14166, 16456, 21940, 26629], "recwords": ["playground", "journal", "camel", "wasp", "donkey", "arm"], "key_times": [783, 1100, 1818, 2331, 2938, 3284, 3695, 4080, 4442, 4786, 6283, 7280, 7790, 8142, 8414, 8778, 9052, 9371, 10390, 11653, 11950, 12350, 12680, 13000, 14166, 14480, 14706, 14930, 15303, 16456, 17018, 17271, 17852, 19299, 19582, 20090, 21940, 24702, 25120, 25676, 26629, 54711, 54990, 55247, 56622, 57292, 57676, 58157, 58581], "trial_type": "free-recall", "conditions": [12, 800, "v", 24000], "internal_node_id": "0.0-95.0-0.0", "key_presses": [80, 76, 65, 89, 71, 82, 79, 85, 78, 68, 13, 74, 79, 85, 82, 78, 65, 76, 13, 67, 65, 77, 69, 76, 13, 87, 65, 83, 80, 13, 68, 79, 78, 75, 69, 89, 13, 65, 82, 77, 13, 80, 76, 65, 89, 71, 82, 79, 85], "trial": 3, "time_elapsed": 772951, "type": "FREE_RECALL", "trial_index": 131}, "uniqueid": "MTK2364:3MYYFCXHJ4EIQWEY61B9TQXYVK04GN", "dateTime": 1516996305593}, {"current_trial": 132, "trialdata": {"rt": 2296, "trial_type": "text", "internal_node_id": "0.0-96.0", "time_elapsed": 777255, "key_press": 32, "type": "INSTRUCTIONS", "trial_index": 132}, "uniqueid": "MTK2364:3MYYFCXHJ4EIQWEY61B9TQXYVK04GN", "dateTime": 1516996309892}, {"current_trial": 133, "trialdata": {"rt": [5344, 7859, 10134, 12419, 15282, 17749, 20019, 21935], "trial_type": "math-distractor", "key_times": [3115, 3692, 5344, 6745, 7119, 7859, 9003, 9236, 10134, 11557, 12189, 12419, 14306, 14512, 15282, 16674, 17469, 17749, 19106, 19725, 20019, 21435, 21708, 21935, 23143, 23806], "responses": ["18", "18", "11", "18", "10", "15", "15", "12"], "num2": [6, 8, 6, 6, 3, 6, 7, 5, 1], "num3": [7, 2, 3, 7, 1, 4, 3, 4, 4], "conditions": [12, 1600, "v", 24000], "internal_node_id": "0.0-97.0", "key_presses": [49, 56, 13, 49, 56, 13, 49, 49, 13, 49, 56, 13, 49, 48, 13, 49, 53, 13, 49, 53, 13, 49, 50, 13, 49, 51], "trial": 4, "time_elapsed": 803260, "type": "DISTRACTOR", "trial_index": 133, "num1": [5, 8, 2, 5, 6, 5, 5, 3, 8]}, "uniqueid": "MTK2364:3MYYFCXHJ4EIQWEY61B9TQXYVK04GN", "dateTime": 1516996335896}, {"current_trial": 134, "trialdata": {"rt": -1, "trial_type": "single-stim", "stimulus": "<p id=\"stim\">10</p>", "internal_node_id": "0.0-98.0-0.0", "time_elapsed": 806261, "key_press": -1, "trial_index": 134}, "uniqueid": "MTK2364:3MYYFCXHJ4EIQWEY61B9TQXYVK04GN", "dateTime": 1516996338897}, {"current_trial": 135, "trialdata": {"rt": -1, "trial_type": "single-stim", "stimulus": "<p id=\"stim\">9</p>", "internal_node_id": "0.0-98.0-1.0", "time_elapsed": 807263, "key_press": -1, "trial_index": 135}, "uniqueid": "MTK2364:3MYYFCXHJ4EIQWEY61B9TQXYVK04GN", "dateTime": 1516996339899}, {"current_trial": 136, "trialdata": {"rt": -1, "trial_type": "single-stim", "stimulus": "<p id=\"stim\">8</p>", "internal_node_id": "0.0-98.0-2.0", "time_elapsed": 808265, "key_press": -1, "trial_index": 136}, "uniqueid": "MTK2364:3MYYFCXHJ4EIQWEY61B9TQXYVK04GN", "dateTime": 1516996340901}, {"current_trial": 137, "trialdata": {"rt": -1, "trial_type": "single-stim", "stimulus": "<p id=\"stim\">7</p>", "internal_node_id": "0.0-98.0-3.0", "time_elapsed": 809267, "key_press": -1, "trial_index": 137}, "uniqueid": "MTK2364:3MYYFCXHJ4EIQWEY61B9TQXYVK04GN", "dateTime": 1516996341903}, {"current_trial": 138, "trialdata": {"rt": -1, "trial_type": "single-stim", "stimulus": "<p id=\"stim\">6</p>", "internal_node_id": "0.0-98.0-4.0", "time_elapsed": 810268, "key_press": -1, "trial_index": 138}, "uniqueid": "MTK2364:3MYYFCXHJ4EIQWEY61B9TQXYVK04GN", "dateTime": 1516996342904}, {"current_trial": 139, "trialdata": {"rt": -1, "trial_type": "single-stim", "stimulus": "<p id=\"stim\">5</p>", "internal_node_id": "0.0-98.0-5.0", "time_elapsed": 811269, "key_press": -1, "trial_index": 139}, "uniqueid": "MTK2364:3MYYFCXHJ4EIQWEY61B9TQXYVK04GN", "dateTime": 1516996343905}, {"current_trial": 140, "trialdata": {"rt": -1, "trial_type": "single-stim", "stimulus": "<p id=\"stim\">4</p>", "internal_node_id": "0.0-98.0-6.0", "time_elapsed": 812270, "key_press": -1, "trial_index": 140}, "uniqueid": "MTK2364:3MYYFCXHJ4EIQWEY61B9TQXYVK04GN", "dateTime": 1516996344906}, {"current_trial": 141, "trialdata": {"rt": -1, "trial_type": "single-stim", "stimulus": "<p id=\"stim\">3</p>", "internal_node_id": "0.0-98.0-7.0", "time_elapsed": 813272, "key_press": -1, "trial_index": 141}, "uniqueid": "MTK2364:3MYYFCXHJ4EIQWEY61B9TQXYVK04GN", "dateTime": 1516996345908}, {"current_trial": 142, "trialdata": {"rt": -1, "trial_type": "single-stim", "stimulus": "<p id=\"stim\">2</p>", "internal_node_id": "0.0-98.0-8.0", "time_elapsed": 814274, "key_press": -1, "trial_index": 142}, "uniqueid": "MTK2364:3MYYFCXHJ4EIQWEY61B9TQXYVK04GN", "dateTime": 1516996346910}, {"current_trial": 143, "trialdata": {"rt": -1, "trial_type": "single-stim", "stimulus": "<p id=\"stim\">1</p>", "internal_node_id": "0.0-98.0-9.0", "time_elapsed": 815275, "key_press": -1, "trial_index": 143}, "uniqueid": "MTK2364:3MYYFCXHJ4EIQWEY61B9TQXYVK04GN", "dateTime": 1516996347911}, {"current_trial": 144, "trialdata": {"rt": -1, "trial_type": "single-stim", "stimulus": "<p id=\"stim\">+</p>", "internal_node_id": "0.0-99.0-0.0", "time_elapsed": 816777, "key_press": -1, "type": "FIXATION", "trial_index": 144}, "uniqueid": "MTK2364:3MYYFCXHJ4EIQWEY61B9TQXYVK04GN", "dateTime": 1516996349413}, {"current_trial": 145, "trialdata": {"rt": -1, "trial_type": "single-stim", "word": "popcorn", "stimulus": "<p id=\"stim\">POPCORN</p>", "conditions": [12, 1600, "v", 24000], "internal_node_id": "0.0-100.0", "trial": 4, "time_elapsed": 818379, "serialpos": 0, "key_press": -1, "wordID": 1103, "type": "PRES_VIS", "trial_index": 145}, "uniqueid": "MTK2364:3MYYFCXHJ4EIQWEY61B9TQXYVK04GN", "dateTime": 1516996351015}, {"current_trial": 146, "trialdata": {"rt": -1, "trial_type": "single-stim", "word": "bank", "stimulus": "<p id=\"stim\">BANK</p>", "conditions": [12, 1600, "v", 24000], "internal_node_id": "0.0-101.0", "trial": 4, "time_elapsed": 820902, "serialpos": 1, "key_press": -1, "wordID": 82, "type": "PRES_VIS", "trial_index": 146}, "uniqueid": "MTK2364:3MYYFCXHJ4EIQWEY61B9TQXYVK04GN", "dateTime": 1516996353538}, {"current_trial": 147, "trialdata": {"rt": -1, "trial_type": "single-stim", "word": "banker", "stimulus": "<p id=\"stim\">BANKER</p>", "conditions": [12, 1600, "v", 24000], "internal_node_id": "0.0-102.0", "trial": 4, "time_elapsed": 823391, "serialpos": 2, "key_press": -1, "wordID": 83, "type": "PRES_VIS", "trial_index": 147}, "uniqueid": "MTK2364:3MYYFCXHJ4EIQWEY61B9TQXYVK04GN", "dateTime": 1516996356027}, {"current_trial": 148, "trialdata": {"rt": -1, "trial_type": "single-stim", "word": "scalpel", "stimulus": "<p id=\"stim\">SCALPEL</p>", "conditions": [12, 1600, "v", 24000], "internal_node_id": "0.0-103.0", "trial": 4, "time_elapsed": 825987, "serialpos": 3, "key_press": -1, "wordID": 1242, "type": "PRES_VIS", "trial_index": 148}, "uniqueid": "MTK2364:3MYYFCXHJ4EIQWEY61B9TQXYVK04GN", "dateTime": 1516996358623}, {"current_trial": 149, "trialdata": {"rt": -1, "trial_type": "single-stim", "word": "stomach", "stimulus": "<p id=\"stim\">STOMACH</p>", "conditions": [12, 1600, "v", 24000], "internal_node_id": "0.0-104.0", "trial": 4, "time_elapsed": 828597, "serialpos": 4, "key_press": -1, "wordID": 1383, "type": "PRES_VIS", "trial_index": 149}, "uniqueid": "MTK2364:3MYYFCXHJ4EIQWEY61B9TQXYVK04GN", "dateTime": 1516996361233}, {"current_trial": 150, "trialdata": {"rt": -1, "trial_type": "single-stim", "word": "fox", "stimulus": "<p id=\"stim\">FOX</p>", "conditions": [12, 1600, "v", 24000], "internal_node_id": "0.0-105.0", "trial": 4, "time_elapsed": 831104, "serialpos": 5, "key_press": -1, "wordID": 597, "type": "PRES_VIS", "trial_index": 150}, "uniqueid": "MTK2364:3MYYFCXHJ4EIQWEY61B9TQXYVK04GN", "dateTime": 1516996363740}, {"current_trial": 151, "trialdata": {"rt": -1, "trial_type": "single-stim", "word": "briefcase", "stimulus": "<p id=\"stim\">BRIEFCASE</p>", "conditions": [12, 1600, "v", 24000], "internal_node_id": "0.0-106.0", "trial": 4, "time_elapsed": 833884, "serialpos": 6, "key_press": -1, "wordID": 174, "type": "PRES_VIS", "trial_index": 151}, "uniqueid": "MTK2364:3MYYFCXHJ4EIQWEY61B9TQXYVK04GN", "dateTime": 1516996366520}, {"current_trial": 152, "trialdata": {"rt": -1, "trial_type": "single-stim", "word": "shortcake", "stimulus": "<p id=\"stim\">SHORTCAKE</p>", "conditions": [12, 1600, "v", 24000], "internal_node_id": "0.0-107.0", "trial": 4, "time_elapsed": 836568, "serialpos": 7, "key_press": -1, "wordID": 1291, "type": "PRES_VIS", "trial_index": 152}, "uniqueid": "MTK2364:3MYYFCXHJ4EIQWEY61B9TQXYVK04GN", "dateTime": 1516996369204}, {"current_trial": 153, "trialdata": {"rt": -1, "trial_type": "single-stim", "word": "lunch", "stimulus": "<p id=\"stim\">LUNCH</p>", "conditions": [12, 1600, "v", 24000], "internal_node_id": "0.0-108.0", "trial": 4, "time_elapsed": 839284, "serialpos": 8, "key_press": -1, "wordID": 848, "type": "PRES_VIS", "trial_index": 153}, "uniqueid": "MTK2364:3MYYFCXHJ4EIQWEY61B9TQXYVK04GN", "dateTime": 1516996371920}, {"current_trial": 154, "trialdata": {"rt": -1, "trial_type": "single-stim", "word": "backbone", "stimulus": "<p id=\"stim\">BACKBONE</p>", "conditions": [12, 1600, "v", 24000], "internal_node_id": "0.0-109.0", "trial": 4, "time_elapsed": 841790, "serialpos": 9, "key_press": -1, "wordID": 65, "type": "PRES_VIS", "trial_index": 154}, "uniqueid": "MTK2364:3MYYFCXHJ4EIQWEY61B9TQXYVK04GN", "dateTime": 1516996374426}, {"current_trial": 155, "trialdata": {"rt": -1, "trial_type": "single-stim", "word": "knapsack", "stimulus": "<p id=\"stim\">KNAPSACK</p>", "conditions": [12, 1600, "v", 24000], "internal_node_id": "0.0-110.0", "trial": 4, "time_elapsed": 844433, "serialpos": 10, "key_press": -1, "wordID": 782, "type": "PRES_VIS", "trial_index": 155}, "uniqueid": "MTK2364:3MYYFCXHJ4EIQWEY61B9TQXYVK04GN", "dateTime": 1516996377069}, {"current_trial": 156, "trialdata": {"rt": -1, "trial_type": "single-stim", "word": "staple", "stimulus": "<p id=\"stim\">STAPLE</p>", "conditions": [12, 1600, "v", 24000], "internal_node_id": "0.0-111.0", "trial": 4, "time_elapsed": 847104, "serialpos": 11, "key_press": -1, "wordID": 1370, "type": "PRES_VIS", "trial_index": 156}, "uniqueid": "MTK2364:3MYYFCXHJ4EIQWEY61B9TQXYVK04GN", "dateTime": 1516996379740}, {"current_trial": 157, "trialdata": {"rt": -1, "trial_type": "single-stim", "stimulus": "", "internal_node_id": "0.0-112.0-0.0", "time_elapsed": 849254, "key_press": -1, "type": "PRE_RECALL_DELAY", "trial_index": 157}, "uniqueid": "MTK2364:3MYYFCXHJ4EIQWEY61B9TQXYVK04GN", "dateTime": 1516996381890}, {"current_trial": 158, "trialdata": {"rt": -1000, "trial_type": "single-audio", "stimulus": "/static/audio/400Hz.wav", "internal_node_id": "0.0-113.0", "time_elapsed": 849757, "key_press": -1, "type": "PRE_RECALL_ALERT", "trial_index": 158}, "uniqueid": "MTK2364:3MYYFCXHJ4EIQWEY61B9TQXYVK04GN", "dateTime": 1516996382393}, {"current_trial": 159, "trialdata": {"rt": [6007, 9813, 15242, 18802, 22141, 32223, 36122, 41643, 49609, 53853], "recwords": ["backpack", "napsack", "staple", "lunch", "fox", "bank", "banker", "briefcase", "stomach", "scalpel"], "key_times": [1802, 2122, 2708, 3132, 3647, 3969, 4443, 4817, 6007, 7016, 7339, 7656, 8062, 8286, 8627, 8959, 9813, 11161, 11473, 12335, 12928, 13131, 13516, 13749, 13951, 15242, 16241, 16625, 16934, 17211, 17964, 18802, 19585, 19845, 20658, 22141, 24545, 24937, 25541, 31366, 32223, 33309, 33719, 34123, 34691, 34959, 35151, 36122, 37038, 37380, 37811, 38217, 38504, 39113, 39367, 39585, 40587, 41643, 43520, 44254, 44543, 44902, 45192, 45358, 46342, 46665, 47456, 48004, 48711, 49609, 50491, 50766, 51216, 51642, 51911, 52367, 52693, 53853], "trial_type": "free-recall", "conditions": [12, 1600, "v", 24000], "internal_node_id": "0.0-114.0-0.0", "key_presses": [66, 65, 67, 75, 80, 65, 67, 75, 13, 78, 65, 80, 83, 65, 67, 75, 13, 83, 80, 8, 84, 65, 80, 76, 69, 13, 76, 85, 78, 67, 72, 13, 70, 79, 88, 13, 66, 65, 78, 75, 13, 66, 65, 78, 75, 69, 82, 13, 66, 82, 73, 69, 70, 67, 65, 83, 69, 13, 83, 84, 79, 77, 83, 83, 8, 8, 65, 67, 72, 13, 83, 67, 65, 76, 80, 69, 76, 13], "trial": 4, "time_elapsed": 909761, "type": "FREE_RECALL", "trial_index": 159}, "uniqueid": "MTK2364:3MYYFCXHJ4EIQWEY61B9TQXYVK04GN", "dateTime": 1516996442406}, {"current_trial": 160, "trialdata": {"rt": 1463, "trial_type": "text", "internal_node_id": "0.0-115.0", "time_elapsed": 913234, "key_press": 32, "type": "INSTRUCTIONS", "trial_index": 160}, "uniqueid": "MTK2364:3MYYFCXHJ4EIQWEY61B9TQXYVK04GN", "dateTime": 1516996445870}, {"current_trial": 161, "trialdata": {"rt": [2801, 5039, 7200, 9056, 11402], "trial_type": "math-distractor", "key_times": [1720, 2300, 2801, 4182, 4839, 5039, 6375, 6988, 7200, 8809, 9056, 10870, 11230, 11402], "responses": ["26", "18", "18", "8", "14"], "num2": [7, 6, 8, 5, 5, 4], "num3": [8, 9, 3, 1, 5, 5], "conditions": [24, 800, "v", 12000], "internal_node_id": "0.0-116.0", "key_presses": [50, 54, 13, 49, 56, 13, 49, 56, 13, 56, 13, 49, 52, 13], "trial": 5, "time_elapsed": 927238, "type": "DISTRACTOR", "trial_index": 161, "num1": [9, 3, 7, 2, 4, 5]}, "uniqueid": "MTK2364:3MYYFCXHJ4EIQWEY61B9TQXYVK04GN", "dateTime": 1516996459875}, {"current_trial": 162, "trialdata": {"rt": -1, "trial_type": "single-stim", "stimulus": "<p id=\"stim\">10</p>", "internal_node_id": "0.0-117.0-0.0", "time_elapsed": 930240, "key_press": -1, "trial_index": 162}, "uniqueid": "MTK2364:3MYYFCXHJ4EIQWEY61B9TQXYVK04GN", "dateTime": 1516996462876}, {"current_trial": 163, "trialdata": {"rt": -1, "trial_type": "single-stim", "stimulus": "<p id=\"stim\">9</p>", "internal_node_id": "0.0-117.0-1.0", "time_elapsed": 931241, "key_press": -1, "trial_index": 163}, "uniqueid": "MTK2364:3MYYFCXHJ4EIQWEY61B9TQXYVK04GN", "dateTime": 1516996463877}, {"current_trial": 164, "trialdata": {"rt": -1, "trial_type": "single-stim", "stimulus": "<p id=\"stim\">8</p>", "internal_node_id": "0.0-117.0-2.0", "time_elapsed": 932243, "key_press": -1, "trial_index": 164}, "uniqueid": "MTK2364:3MYYFCXHJ4EIQWEY61B9TQXYVK04GN", "dateTime": 1516996464879}, {"current_trial": 165, "trialdata": {"rt": -1, "trial_type": "single-stim", "stimulus": "<p id=\"stim\">7</p>", "internal_node_id": "0.0-117.0-3.0", "time_elapsed": 933245, "key_press": -1, "trial_index": 165}, "uniqueid": "MTK2364:3MYYFCXHJ4EIQWEY61B9TQXYVK04GN", "dateTime": 1516996465881}, {"current_trial": 166, "trialdata": {"rt": -1, "trial_type": "single-stim", "stimulus": "<p id=\"stim\">6</p>", "internal_node_id": "0.0-117.0-4.0", "time_elapsed": 934247, "key_press": -1, "trial_index": 166}, "uniqueid": "MTK2364:3MYYFCXHJ4EIQWEY61B9TQXYVK04GN", "dateTime": 1516996466883}, {"current_trial": 167, "trialdata": {"rt": -1, "trial_type": "single-stim", "stimulus": "<p id=\"stim\">5</p>", "internal_node_id": "0.0-117.0-5.0", "time_elapsed": 935248, "key_press": -1, "trial_index": 167}, "uniqueid": "MTK2364:3MYYFCXHJ4EIQWEY61B9TQXYVK04GN", "dateTime": 1516996467884}, {"current_trial": 168, "trialdata": {"rt": -1, "trial_type": "single-stim", "stimulus": "<p id=\"stim\">4</p>", "internal_node_id": "0.0-117.0-6.0", "time_elapsed": 936250, "key_press": -1, "trial_index": 168}, "uniqueid": "MTK2364:3MYYFCXHJ4EIQWEY61B9TQXYVK04GN", "dateTime": 1516996468886}, {"current_trial": 169, "trialdata": {"rt": -1, "trial_type": "single-stim", "stimulus": "<p id=\"stim\">3</p>", "internal_node_id": "0.0-117.0-7.0", "time_elapsed": 937252, "key_press": -1, "trial_index": 169}, "uniqueid": "MTK2364:3MYYFCXHJ4EIQWEY61B9TQXYVK04GN", "dateTime": 1516996469888}, {"current_trial": 170, "trialdata": {"rt": -1, "trial_type": "single-stim", "stimulus": "<p id=\"stim\">2</p>", "internal_node_id": "0.0-117.0-8.0", "time_elapsed": 938253, "key_press": -1, "trial_index": 170}, "uniqueid": "MTK2364:3MYYFCXHJ4EIQWEY61B9TQXYVK04GN", "dateTime": 1516996470889}, {"current_trial": 171, "trialdata": {"rt": -1, "trial_type": "single-stim", "stimulus": "<p id=\"stim\">1</p>", "internal_node_id": "0.0-117.0-9.0", "time_elapsed": 939255, "key_press": -1, "trial_index": 171}, "uniqueid": "MTK2364:3MYYFCXHJ4EIQWEY61B9TQXYVK04GN", "dateTime": 1516996471891}, {"current_trial": 172, "trialdata": {"rt": -1, "trial_type": "single-stim", "stimulus": "<p id=\"stim\">+</p>", "internal_node_id": "0.0-118.0-0.0", "time_elapsed": 940757, "key_press": -1, "type": "FIXATION", "trial_index": 172}, "uniqueid": "MTK2364:3MYYFCXHJ4EIQWEY61B9TQXYVK04GN", "dateTime": 1516996473393}, {"current_trial": 173, "trialdata": {"rt": -1, "trial_type": "single-stim", "word": "toaster", "stimulus": "<p id=\"stim\">TOASTER</p>", "conditions": [24, 800, "v", 12000], "internal_node_id": "0.0-119.0", "trial": 5, "time_elapsed": 941558, "serialpos": 0, "key_press": -1, "wordID": 1471, "type": "PRES_VIS", "trial_index": 173}, "uniqueid": "MTK2364:3MYYFCXHJ4EIQWEY61B9TQXYVK04GN", "dateTime": 1516996474194}, {"current_trial": 174, "trialdata": {"rt": -1, "trial_type": "single-stim", "word": "helmet", "stimulus": "<p id=\"stim\">HELMET</p>", "conditions": [24, 800, "v", 12000], "internal_node_id": "0.0-120.0", "trial": 5, "time_elapsed": 943345, "serialpos": 1, "key_press": -1, "wordID": 701, "type": "PRES_VIS", "trial_index": 174}, "uniqueid": "MTK2364:3MYYFCXHJ4EIQWEY61B9TQXYVK04GN", "dateTime": 1516996475981}, {"current_trial": 175, "trialdata": {"rt": -1, "trial_type": "single-stim", "word": "washer", "stimulus": "<p id=\"stim\">WASHER</p>", "conditions": [24, 800, "v", 12000], "internal_node_id": "0.0-121.0", "trial": 5, "time_elapsed": 945199, "serialpos": 2, "key_press": -1, "wordID": 1591, "type": "PRES_VIS", "trial_index": 175}, "uniqueid": "MTK2364:3MYYFCXHJ4EIQWEY61B9TQXYVK04GN", "dateTime": 1516996477835}, {"current_trial": 176, "trialdata": {"rt": -1, "trial_type": "single-stim", "word": "trout", "stimulus": "<p id=\"stim\">TROUT</p>", "conditions": [24, 800, "v", 12000], "internal_node_id": "0.0-122.0", "trial": 5, "time_elapsed": 947056, "serialpos": 3, "key_press": -1, "wordID": 1510, "type": "PRES_VIS", "trial_index": 176}, "uniqueid": "MTK2364:3MYYFCXHJ4EIQWEY61B9TQXYVK04GN", "dateTime": 1516996479692}, {"current_trial": 177, "trialdata": {"rt": -1, "trial_type": "single-stim", "word": "salmon", "stimulus": "<p id=\"stim\">SALMON</p>", "conditions": [24, 800, "v", 12000], "internal_node_id": "0.0-123.0", "trial": 5, "time_elapsed": 948782, "serialpos": 4, "key_press": -1, "wordID": 1226, "type": "PRES_VIS", "trial_index": 177}, "uniqueid": "MTK2364:3MYYFCXHJ4EIQWEY61B9TQXYVK04GN", "dateTime": 1516996481418}, {"current_trial": 178, "trialdata": {"rt": -1, "trial_type": "single-stim", "word": "asia", "stimulus": "<p id=\"stim\">ASIA</p>", "conditions": [24, 800, "v", 12000], "internal_node_id": "0.0-124.0", "trial": 5, "time_elapsed": 950630, "serialpos": 5, "key_press": -1, "wordID": 45, "type": "PRES_VIS", "trial_index": 178}, "uniqueid": "MTK2364:3MYYFCXHJ4EIQWEY61B9TQXYVK04GN", "dateTime": 1516996483266}, {"current_trial": 179, "trialdata": {"rt": -1, "trial_type": "single-stim", "word": "bison", "stimulus": "<p id=\"stim\">BISON</p>", "conditions": [24, 800, "v", 12000], "internal_node_id": "0.0-125.0", "trial": 5, "time_elapsed": 952595, "serialpos": 6, "key_press": -1, "wordID": 130, "type": "PRES_VIS", "trial_index": 179}, "uniqueid": "MTK2364:3MYYFCXHJ4EIQWEY61B9TQXYVK04GN", "dateTime": 1516996485231}, {"current_trial": 180, "trialdata": {"rt": -1, "trial_type": "single-stim", "word": "pizza", "stimulus": "<p id=\"stim\">PIZZA</p>", "conditions": [24, 800, "v", 12000], "internal_node_id": "0.0-126.0", "trial": 5, "time_elapsed": 954532, "serialpos": 7, "key_press": -1, "wordID": 1078, "type": "PRES_VIS", "trial_index": 180}, "uniqueid": "MTK2364:3MYYFCXHJ4EIQWEY61B9TQXYVK04GN", "dateTime": 1516996487168}, {"current_trial": 181, "trialdata": {"rt": -1, "trial_type": "single-stim", "word": "europe", "stimulus": "<p id=\"stim\">EUROPE</p>", "conditions": [24, 800, "v", 12000], "internal_node_id": "0.0-127.0", "trial": 5, "time_elapsed": 956266, "serialpos": 8, "key_press": -1, "wordID": 540, "type": "PRES_VIS", "trial_index": 181}, "uniqueid": "MTK2364:3MYYFCXHJ4EIQWEY61B9TQXYVK04GN", "dateTime": 1516996488902}, {"current_trial": 182, "trialdata": {"rt": -1, "trial_type": "single-stim", "word": "coin", "stimulus": "<p id=\"stim\">COIN</p>", "conditions": [24, 800, "v", 12000], "internal_node_id": "0.0-128.0", "trial": 5, "time_elapsed": 957973, "serialpos": 9, "key_press": -1, "wordID": 342, "type": "PRES_VIS", "trial_index": 182}, "uniqueid": "MTK2364:3MYYFCXHJ4EIQWEY61B9TQXYVK04GN", "dateTime": 1516996490609}, {"current_trial": 183, "trialdata": {"rt": -1, "trial_type": "single-stim", "word": "rug", "stimulus": "<p id=\"stim\">RUG</p>", "conditions": [24, 800, "v", 12000], "internal_node_id": "0.0-129.0", "trial": 5, "time_elapsed": 959738, "serialpos": 10, "key_press": -1, "wordID": 1214, "type": "PRES_VIS", "trial_index": 183}, "uniqueid": "MTK2364:3MYYFCXHJ4EIQWEY61B9TQXYVK04GN", "dateTime": 1516996492374}, {"current_trial": 184, "trialdata": {"rt": -1, "trial_type": "single-stim", "word": "onion", "stimulus": "<p id=\"stim\">ONION</p>", "conditions": [24, 800, "v", 12000], "internal_node_id": "0.0-130.0", "trial": 5, "time_elapsed": 961658, "serialpos": 11, "key_press": -1, "wordID": 976, "type": "PRES_VIS", "trial_index": 184}, "uniqueid": "MTK2364:3MYYFCXHJ4EIQWEY61B9TQXYVK04GN", "dateTime": 1516996494294}, {"current_trial": 185, "trialdata": {"rt": -1, "trial_type": "single-stim", "word": "stream", "stimulus": "<p id=\"stim\">STREAM</p>", "conditions": [24, 800, "v", 12000], "internal_node_id": "0.0-131.0", "trial": 5, "time_elapsed": 963582, "serialpos": 12, "key_press": -1, "wordID": 1391, "type": "PRES_VIS", "trial_index": 185}, "uniqueid": "MTK2364:3MYYFCXHJ4EIQWEY61B9TQXYVK04GN", "dateTime": 1516996496218}, {"current_trial": 186, "trialdata": {"rt": -1, "trial_type": "single-stim", "word": "canyon", "stimulus": "<p id=\"stim\">CANYON</p>", "conditions": [24, 800, "v", 12000], "internal_node_id": "0.0-132.0", "trial": 5, "time_elapsed": 965582, "serialpos": 13, "key_press": -1, "wordID": 234, "type": "PRES_VIS", "trial_index": 186}, "uniqueid": "MTK2364:3MYYFCXHJ4EIQWEY61B9TQXYVK04GN", "dateTime": 1516996498218}, {"current_trial": 187, "trialdata": {"rt": -1, "trial_type": "single-stim", "word": "blouse", "stimulus": "<p id=\"stim\">BLOUSE</p>", "conditions": [24, 800, "v", 12000], "internal_node_id": "0.0-133.0", "trial": 5, "time_elapsed": 967548, "serialpos": 14, "key_press": -1, "wordID": 138, "type": "PRES_VIS", "trial_index": 187}, "uniqueid": "MTK2364:3MYYFCXHJ4EIQWEY61B9TQXYVK04GN", "dateTime": 1516996500184}, {"current_trial": 188, "trialdata": {"rt": -1, "trial_type": "single-stim", "word": "sphinx", "stimulus": "<p id=\"stim\">SPHINX</p>", "conditions": [24, 800, "v", 12000], "internal_node_id": "0.0-134.0", "trial": 5, "time_elapsed": 969276, "serialpos": 15, "key_press": -1, "wordID": 1348, "type": "PRES_VIS", "trial_index": 188}, "uniqueid": "MTK2364:3MYYFCXHJ4EIQWEY61B9TQXYVK04GN", "dateTime": 1516996501912}, {"current_trial": 189, "trialdata": {"rt": -1, "trial_type": "single-stim", "word": "infant", "stimulus": "<p id=\"stim\">INFANT</p>", "conditions": [24, 800, "v", 12000], "internal_node_id": "0.0-135.0", "trial": 5, "time_elapsed": 971197, "serialpos": 16, "key_press": -1, "wordID": 736, "type": "PRES_VIS", "trial_index": 189}, "uniqueid": "MTK2364:3MYYFCXHJ4EIQWEY61B9TQXYVK04GN", "dateTime": 1516996503833}, {"current_trial": 190, "trialdata": {"rt": -1, "trial_type": "single-stim", "word": "banquet", "stimulus": "<p id=\"stim\">BANQUET</p>", "conditions": [24, 800, "v", 12000], "internal_node_id": "0.0-136.0", "trial": 5, "time_elapsed": 973023, "serialpos": 17, "key_press": -1, "wordID": 85, "type": "PRES_VIS", "trial_index": 190}, "uniqueid": "MTK2364:3MYYFCXHJ4EIQWEY61B9TQXYVK04GN", "dateTime": 1516996505659}, {"current_trial": 191, "trialdata": {"rt": -1, "trial_type": "single-stim", "word": "plaster", "stimulus": "<p id=\"stim\">PLASTER</p>", "conditions": [24, 800, "v", 12000], "internal_node_id": "0.0-137.0", "trial": 5, "time_elapsed": 974628, "serialpos": 18, "key_press": -1, "wordID": 1084, "type": "PRES_VIS", "trial_index": 191}, "uniqueid": "MTK2364:3MYYFCXHJ4EIQWEY61B9TQXYVK04GN", "dateTime": 1516996507264}, {"current_trial": 192, "trialdata": {"rt": -1, "trial_type": "single-stim", "word": "foot", "stimulus": "<p id=\"stim\">FOOT</p>", "conditions": [24, 800, "v", 12000], "internal_node_id": "0.0-138.0", "trial": 5, "time_elapsed": 976444, "serialpos": 19, "key_press": -1, "wordID": 589, "type": "PRES_VIS", "trial_index": 192}, "uniqueid": "MTK2364:3MYYFCXHJ4EIQWEY61B9TQXYVK04GN", "dateTime": 1516996509080}, {"current_trial": 193, "trialdata": {"rt": -1, "trial_type": "single-stim", "word": "nurse", "stimulus": "<p id=\"stim\">NURSE</p>", "conditions": [24, 800, "v", 12000], "internal_node_id": "0.0-139.0", "trial": 5, "time_elapsed": 978139, "serialpos": 20, "key_press": -1, "wordID": 962, "type": "PRES_VIS", "trial_index": 193}, "uniqueid": "MTK2364:3MYYFCXHJ4EIQWEY61B9TQXYVK04GN", "dateTime": 1516996510775}, {"current_trial": 194, "trialdata": {"rt": -1, "trial_type": "single-stim", "word": "supper", "stimulus": "<p id=\"stim\">SUPPER</p>", "conditions": [24, 800, "v", 12000], "internal_node_id": "0.0-140.0", "trial": 5, "time_elapsed": 979865, "serialpos": 21, "key_press": -1, "wordID": 1410, "type": "PRES_VIS", "trial_index": 194}, "uniqueid": "MTK2364:3MYYFCXHJ4EIQWEY61B9TQXYVK04GN", "dateTime": 1516996512501}, {"current_trial": 195, "trialdata": {"rt": -1, "trial_type": "single-stim", "word": "flute", "stimulus": "<p id=\"stim\">FLUTE</p>", "conditions": [24, 800, "v", 12000], "internal_node_id": "0.0-141.0", "trial": 5, "time_elapsed": 981814, "serialpos": 22, "key_press": -1, "wordID": 584, "type": "PRES_VIS", "trial_index": 195}, "uniqueid": "MTK2364:3MYYFCXHJ4EIQWEY61B9TQXYVK04GN", "dateTime": 1516996514450}, {"current_trial": 196, "trialdata": {"rt": -1, "trial_type": "single-stim", "word": "tuba", "stimulus": "<p id=\"stim\">TUBA</p>", "conditions": [24, 800, "v", 12000], "internal_node_id": "0.0-142.0", "trial": 5, "time_elapsed": 983427, "serialpos": 23, "key_press": -1, "wordID": 1514, "type": "PRES_VIS", "trial_index": 196}, "uniqueid": "MTK2364:3MYYFCXHJ4EIQWEY61B9TQXYVK04GN", "dateTime": 1516996516063}, {"current_trial": 197, "trialdata": {"rt": -1, "trial_type": "single-stim", "stimulus": "", "internal_node_id": "0.0-143.0-0.0", "time_elapsed": 985939, "key_press": -1, "type": "PRE_RECALL_DELAY", "trial_index": 197}, "uniqueid": "MTK2364:3MYYFCXHJ4EIQWEY61B9TQXYVK04GN", "dateTime": 1516996518575}, {"current_trial": 198, "trialdata": {"rt": -1000, "trial_type": "single-audio", "stimulus": "/static/audio/400Hz.wav", "internal_node_id": "0.0-144.0", "time_elapsed": 986442, "key_press": -1, "type": "PRE_RECALL_ALERT", "trial_index": 198}, "uniqueid": "MTK2364:3MYYFCXHJ4EIQWEY61B9TQXYVK04GN", "dateTime": 1516996519078}, {"current_trial": 199, "trialdata": {"rt": [7220, 11227, 15081, 18489, 22278, 27458, 31343, 33499, 37400, 42262], "recwords": ["banquet", "plasma", "nurse", "flute", "tuba", "asia", "europe", "coin", "pizza", "onion"], "key_times": [2856, 3757, 4237, 5147, 5468, 5717, 6084, 7220, 8578, 8824, 9024, 9248, 9598, 10578, 11227, 12518, 12973, 13285, 13887, 14243, 15081, 15993, 16262, 16639, 16883, 17150, 18489, 19362, 19966, 20468, 20773, 22278, 25796, 26046, 26378, 26619, 27458, 28498, 28876, 29305, 29609, 29846, 30078, 31343, 31820, 32105, 32364, 32691, 33499, 34234, 34620, 35916, 36142, 36789, 37400, 38218, 38676, 39017, 39318, 39807, 42262], "trial_type": "free-recall", "conditions": [24, 800, "v", 12000], "internal_node_id": "0.0-145.0-0.0", "key_presses": [66, 65, 78, 81, 85, 69, 84, 13, 80, 76, 65, 83, 77, 65, 13, 78, 85, 82, 83, 69, 13, 70, 76, 85, 84, 69, 13, 84, 85, 66, 65, 13, 65, 83, 73, 65, 13, 69, 85, 82, 79, 80, 69, 13, 67, 79, 73, 78, 13, 80, 73, 90, 90, 65, 13, 79, 78, 73, 79, 78, 13], "trial": 5, "time_elapsed": 1046444, "type": "FREE_RECALL", "trial_index": 199}, "uniqueid": "MTK2364:3MYYFCXHJ4EIQWEY61B9TQXYVK04GN", "dateTime": 1516996579088}, {"current_trial": 200, "trialdata": {"rt": 1964, "trial_type": "text", "internal_node_id": "0.0-146.0", "time_elapsed": 1050417, "key_press": 32, "type": "INSTRUCTIONS", "trial_index": 200}, "uniqueid": "MTK2364:3MYYFCXHJ4EIQWEY61B9TQXYVK04GN", "dateTime": 1516996583053}, {"current_trial": 201, "trialdata": {"rt": [3925, 5835, 8036, 9979], "trial_type": "math-distractor", "key_times": [2698, 3023, 3925, 5110, 5629, 5835, 7237, 7732, 8036, 9157, 9795, 9979, 11753, 11955], "responses": ["18", "19", "10", "16"], "num2": [7, 9, 2, 6, 7], "num3": [3, 5, 3, 4, 9], "conditions": [12, 1600, "v", 12000], "internal_node_id": "0.0-147.0", "key_presses": [49, 56, 13, 49, 57, 13, 49, 48, 13, 49, 54, 13, 50, 49], "trial": 6, "time_elapsed": 1064421, "type": "DISTRACTOR", "trial_index": 201, "num1": [8, 6, 5, 6, 5]}, "uniqueid": "MTK2364:3MYYFCXHJ4EIQWEY61B9TQXYVK04GN", "dateTime": 1516996597057}, {"current_trial": 202, "trialdata": {"rt": -1, "trial_type": "single-stim", "stimulus": "<p id=\"stim\">10</p>", "internal_node_id": "0.0-148.0-0.0", "time_elapsed": 1067422, "key_press": -1, "trial_index": 202}, "uniqueid": "MTK2364:3MYYFCXHJ4EIQWEY61B9TQXYVK04GN", "dateTime": 1516996600058}, {"current_trial": 203, "trialdata": {"rt": -1, "trial_type": "single-stim", "stimulus": "<p id=\"stim\">9</p>", "internal_node_id": "0.0-148.0-1.0", "time_elapsed": 1068424, "key_press": -1, "trial_index": 203}, "uniqueid": "MTK2364:3MYYFCXHJ4EIQWEY61B9TQXYVK04GN", "dateTime": 1516996601060}, {"current_trial": 204, "trialdata": {"rt": -1, "trial_type": "single-stim", "stimulus": "<p id=\"stim\">8</p>", "internal_node_id": "0.0-148.0-2.0", "time_elapsed": 1069426, "key_press": -1, "trial_index": 204}, "uniqueid": "MTK2364:3MYYFCXHJ4EIQWEY61B9TQXYVK04GN", "dateTime": 1516996602062}, {"current_trial": 205, "trialdata": {"rt": -1, "trial_type": "single-stim", "stimulus": "<p id=\"stim\">7</p>", "internal_node_id": "0.0-148.0-3.0", "time_elapsed": 1070428, "key_press": -1, "trial_index": 205}, "uniqueid": "MTK2364:3MYYFCXHJ4EIQWEY61B9TQXYVK04GN", "dateTime": 1516996603064}, {"current_trial": 206, "trialdata": {"rt": -1, "trial_type": "single-stim", "stimulus": "<p id=\"stim\">6</p>", "internal_node_id": "0.0-148.0-4.0", "time_elapsed": 1071430, "key_press": -1, "trial_index": 206}, "uniqueid": "MTK2364:3MYYFCXHJ4EIQWEY61B9TQXYVK04GN", "dateTime": 1516996604066}, {"current_trial": 207, "trialdata": {"rt": -1, "trial_type": "single-stim", "stimulus": "<p id=\"stim\">5</p>", "internal_node_id": "0.0-148.0-5.0", "time_elapsed": 1072432, "key_press": -1, "trial_index": 207}, "uniqueid": "MTK2364:3MYYFCXHJ4EIQWEY61B9TQXYVK04GN", "dateTime": 1516996605068}, {"current_trial": 208, "trialdata": {"rt": -1, "trial_type": "single-stim", "stimulus": "<p id=\"stim\">4</p>", "internal_node_id": "0.0-148.0-6.0", "time_elapsed": 1073434, "key_press": -1, "trial_index": 208}, "uniqueid": "MTK2364:3MYYFCXHJ4EIQWEY61B9TQXYVK04GN", "dateTime": 1516996606070}, {"current_trial": 209, "trialdata": {"rt": -1, "trial_type": "single-stim", "stimulus": "<p id=\"stim\">3</p>", "internal_node_id": "0.0-148.0-7.0", "time_elapsed": 1074436, "key_press": -1, "trial_index": 209}, "uniqueid": "MTK2364:3MYYFCXHJ4EIQWEY61B9TQXYVK04GN", "dateTime": 1516996607072}, {"current_trial": 210, "trialdata": {"rt": -1, "trial_type": "single-stim", "stimulus": "<p id=\"stim\">2</p>", "internal_node_id": "0.0-148.0-8.0", "time_elapsed": 1075438, "key_press": -1, "trial_index": 210}, "uniqueid": "MTK2364:3MYYFCXHJ4EIQWEY61B9TQXYVK04GN", "dateTime": 1516996608074}, {"current_trial": 211, "trialdata": {"rt": -1, "trial_type": "single-stim", "stimulus": "<p id=\"stim\">1</p>", "internal_node_id": "0.0-148.0-9.0", "time_elapsed": 1076440, "key_press": -1, "trial_index": 211}, "uniqueid": "MTK2364:3MYYFCXHJ4EIQWEY61B9TQXYVK04GN", "dateTime": 1516996609076}, {"current_trial": 212, "trialdata": {"rt": -1, "trial_type": "single-stim", "stimulus": "<p id=\"stim\">+</p>", "internal_node_id": "0.0-149.0-0.0", "time_elapsed": 1077942, "key_press": -1, "type": "FIXATION", "trial_index": 212}, "uniqueid": "MTK2364:3MYYFCXHJ4EIQWEY61B9TQXYVK04GN", "dateTime": 1516996610578}, {"current_trial": 213, "trialdata": {"rt": -1, "trial_type": "single-stim", "word": "fireplace", "stimulus": "<p id=\"stim\">FIREPLACE</p>", "conditions": [12, 1600, "v", 12000], "internal_node_id": "0.0-150.0", "trial": 6, "time_elapsed": 1079543, "serialpos": 0, "key_press": -1, "wordID": 569, "type": "PRES_VIS", "trial_index": 213}, "uniqueid": "MTK2364:3MYYFCXHJ4EIQWEY61B9TQXYVK04GN", "dateTime": 1516996612179}, {"current_trial": 214, "trialdata": {"rt": -1, "trial_type": "single-stim", "word": "island", "stimulus": "<p id=\"stim\">ISLAND</p>", "conditions": [12, 1600, "v", 12000], "internal_node_id": "0.0-151.0", "trial": 6, "time_elapsed": 1082214, "serialpos": 1, "key_press": -1, "wordID": 744, "type": "PRES_VIS", "trial_index": 214}, "uniqueid": "MTK2364:3MYYFCXHJ4EIQWEY61B9TQXYVK04GN", "dateTime": 1516996614850}, {"current_trial": 215, "trialdata": {"rt": -1, "trial_type": "single-stim", "word": "citrus", "stimulus": "<p id=\"stim\">CITRUS</p>", "conditions": [12, 1600, "v", 12000], "internal_node_id": "0.0-152.0", "trial": 6, "time_elapsed": 1084627, "serialpos": 2, "key_press": -1, "wordID": 312, "type": "PRES_VIS", "trial_index": 215}, "uniqueid": "MTK2364:3MYYFCXHJ4EIQWEY61B9TQXYVK04GN", "dateTime": 1516996617263}, {"current_trial": 216, "trialdata": {"rt": -1, "trial_type": "single-stim", "word": "braces", "stimulus": "<p id=\"stim\">BRACES</p>", "conditions": [12, 1600, "v", 12000], "internal_node_id": "0.0-153.0", "trial": 6, "time_elapsed": 1087353, "serialpos": 3, "key_press": -1, "wordID": 163, "type": "PRES_VIS", "trial_index": 216}, "uniqueid": "MTK2364:3MYYFCXHJ4EIQWEY61B9TQXYVK04GN", "dateTime": 1516996619989}, {"current_trial": 217, "trialdata": {"rt": -1, "trial_type": "single-stim", "word": "report", "stimulus": "<p id=\"stim\">REPORT</p>", "conditions": [12, 1600, "v", 12000], "internal_node_id": "0.0-154.0", "trial": 6, "time_elapsed": 1089862, "serialpos": 4, "key_press": -1, "wordID": 1183, "type": "PRES_VIS", "trial_index": 217}, "uniqueid": "MTK2364:3MYYFCXHJ4EIQWEY61B9TQXYVK04GN", "dateTime": 1516996622498}, {"current_trial": 218, "trialdata": {"rt": -1, "trial_type": "single-stim", "word": "daughter", "stimulus": "<p id=\"stim\">DAUGHTER</p>", "conditions": [12, 1600, "v", 12000], "internal_node_id": "0.0-155.0", "trial": 6, "time_elapsed": 1092633, "serialpos": 5, "key_press": -1, "wordID": 441, "type": "PRES_VIS", "trial_index": 218}, "uniqueid": "MTK2364:3MYYFCXHJ4EIQWEY61B9TQXYVK04GN", "dateTime": 1516996625269}, {"current_trial": 219, "trialdata": {"rt": -1, "trial_type": "single-stim", "word": "wife", "stimulus": "<p id=\"stim\">WIFE</p>", "conditions": [12, 1600, "v", 12000], "internal_node_id": "0.0-156.0", "trial": 6, "time_elapsed": 1095360, "serialpos": 6, "key_press": -1, "wordID": 1608, "type": "PRES_VIS", "trial_index": 219}, "uniqueid": "MTK2364:3MYYFCXHJ4EIQWEY61B9TQXYVK04GN", "dateTime": 1516996627996}, {"current_trial": 220, "trialdata": {"rt": -1, "trial_type": "single-stim", "word": "survey", "stimulus": "<p id=\"stim\">SURVEY</p>", "conditions": [12, 1600, "v", 12000], "internal_node_id": "0.0-157.0", "trial": 6, "time_elapsed": 1098040, "serialpos": 7, "key_press": -1, "wordID": 1413, "type": "PRES_VIS", "trial_index": 220}, "uniqueid": "MTK2364:3MYYFCXHJ4EIQWEY61B9TQXYVK04GN", "dateTime": 1516996630676}, {"current_trial": 221, "trialdata": {"rt": -1, "trial_type": "single-stim", "word": "dorm", "stimulus": "<p id=\"stim\">DORM</p>", "conditions": [12, 1600, "v", 12000], "internal_node_id": "0.0-158.0", "trial": 6, "time_elapsed": 1100505, "serialpos": 8, "key_press": -1, "wordID": 487, "type": "PRES_VIS", "trial_index": 221}, "uniqueid": "MTK2364:3MYYFCXHJ4EIQWEY61B9TQXYVK04GN", "dateTime": 1516996633141}, {"current_trial": 222, "trialdata": {"rt": -1, "trial_type": "single-stim", "word": "brick", "stimulus": "<p id=\"stim\">BRICK</p>", "conditions": [12, 1600, "v", 12000], "internal_node_id": "0.0-159.0", "trial": 6, "time_elapsed": 1103010, "serialpos": 9, "key_press": -1, "wordID": 171, "type": "PRES_VIS", "trial_index": 222}, "uniqueid": "MTK2364:3MYYFCXHJ4EIQWEY61B9TQXYVK04GN", "dateTime": 1516996635646}, {"current_trial": 223, "trialdata": {"rt": -1, "trial_type": "single-stim", "word": "mammal", "stimulus": "<p id=\"stim\">MAMMAL</p>", "conditions": [12, 1600, "v", 12000], "internal_node_id": "0.0-160.0", "trial": 6, "time_elapsed": 1105755, "serialpos": 10, "key_press": -1, "wordID": 860, "type": "PRES_VIS", "trial_index": 223}, "uniqueid": "MTK2364:3MYYFCXHJ4EIQWEY61B9TQXYVK04GN", "dateTime": 1516996638391}, {"current_trial": 224, "trialdata": {"rt": -1, "trial_type": "single-stim", "word": "sculpture", "stimulus": "<p id=\"stim\">SCULPTURE</p>", "conditions": [12, 1600, "v", 12000], "internal_node_id": "0.0-161.0", "trial": 6, "time_elapsed": 1108164, "serialpos": 11, "key_press": -1, "wordID": 1257, "type": "PRES_VIS", "trial_index": 224}, "uniqueid": "MTK2364:3MYYFCXHJ4EIQWEY61B9TQXYVK04GN", "dateTime": 1516996640800}, {"current_trial": 225, "trialdata": {"rt": -1, "trial_type": "single-stim", "stimulus": "", "internal_node_id": "0.0-162.0-0.0", "time_elapsed": 1110442, "key_press": -1, "type": "PRE_RECALL_DELAY", "trial_index": 225}, "uniqueid": "MTK2364:3MYYFCXHJ4EIQWEY61B9TQXYVK04GN", "dateTime": 1516996643078}, {"current_trial": 226, "trialdata": {"rt": -1000, "trial_type": "single-audio", "stimulus": "/static/audio/400Hz.wav", "internal_node_id": "0.0-163.0", "time_elapsed": 1110951, "key_press": -1, "type": "PRE_RECALL_ALERT", "trial_index": 226}, "uniqueid": "MTK2364:3MYYFCXHJ4EIQWEY61B9TQXYVK04GN", "dateTime": 1516996643587}, {"current_trial": 227, "trialdata": {"rt": [5774, 9132, 14430, 20060, 25697, 29990, 33798, 37957, 43188], "recwords": ["brick", "mammal", "sculpture", "wife", "daughter", "survey", "brick", "citrus", "fireplace"], "key_times": [1042, 1504, 2631, 3507, 3860, 4251, 4611, 5774, 6591, 6872, 7112, 7271, 7461, 8281, 9132, 10030, 10332, 10947, 11414, 12010, 12502, 12766, 12980, 13184, 14430, 16680, 16940, 17607, 17900, 18910, 19223, 20060, 21010, 21279, 21900, 23110, 23559, 23910, 24553, 24755, 25697, 26497, 27173, 27426, 27970, 28353, 28752, 29990, 31332, 31725, 32017, 32471, 32906, 33798, 34662, 35456, 35749, 36014, 36532, 37096, 37957, 38592, 38965, 39201, 39437, 40074, 40390, 40680, 41373, 41892, 43188], "trial_type": "free-recall", "conditions": [12, 1600, "v", 12000], "internal_node_id": "0.0-164.0-0.0", "key_presses": [66, 69, 8, 82, 73, 67, 75, 13, 77, 65, 77, 77, 65, 76, 13, 83, 67, 85, 76, 80, 84, 85, 82, 69, 13, 87, 73, 70, 87, 8, 69, 13, 68, 65, 85, 71, 72, 84, 69, 82, 13, 83, 85, 82, 86, 69, 89, 13, 66, 82, 73, 67, 75, 13, 67, 73, 84, 82, 85, 83, 13, 70, 73, 82, 69, 80, 76, 65, 67, 69, 13], "trial": 6, "time_elapsed": 1170952, "type": "FREE_RECALL", "trial_index": 227}, "uniqueid": "MTK2364:3MYYFCXHJ4EIQWEY61B9TQXYVK04GN", "dateTime": 1516996703597}, {"current_trial": 228, "trialdata": {"rt": 1872, "trial_type": "text", "internal_node_id": "0.0-165.0", "time_elapsed": 1174833, "key_press": 32, "type": "INSTRUCTIONS", "trial_index": 228}, "uniqueid": "MTK2364:3MYYFCXHJ4EIQWEY61B9TQXYVK04GN", "dateTime": 1516996707470}, {"current_trial": 229, "trialdata": {"rt": [2541, 4716, 6702, 8310, 10681], "trial_type": "math-distractor", "key_times": [1269, 1925, 2541, 3789, 4472, 4716, 5890, 6469, 6702, 7822, 8093, 8310, 9865, 10425, 10681], "responses": ["16", "18", "19", "12", "20"], "num2": [3, 3, 9, 6, 4, 1], "num3": [6, 6, 7, 2, 9, 2], "conditions": [24, 800, "v", 12000], "internal_node_id": "0.0-166.0", "key_presses": [49, 54, 13, 49, 56, 13, 49, 57, 13, 49, 50, 13, 50, 48, 13], "trial": 7, "time_elapsed": 1188838, "type": "DISTRACTOR", "trial_index": 229, "num1": [7, 9, 3, 4, 7, 6]}, "uniqueid": "MTK2364:3MYYFCXHJ4EIQWEY61B9TQXYVK04GN", "dateTime": 1516996721474}, {"current_trial": 230, "trialdata": {"rt": -1, "trial_type": "single-stim", "stimulus": "<p id=\"stim\">10</p>", "internal_node_id": "0.0-167.0-0.0", "time_elapsed": 1191839, "key_press": -1, "trial_index": 230}, "uniqueid": "MTK2364:3MYYFCXHJ4EIQWEY61B9TQXYVK04GN", "dateTime": 1516996724475}, {"current_trial": 231, "trialdata": {"rt": -1, "trial_type": "single-stim", "stimulus": "<p id=\"stim\">9</p>", "internal_node_id": "0.0-167.0-1.0", "time_elapsed": 1192841, "key_press": -1, "trial_index": 231}, "uniqueid": "MTK2364:3MYYFCXHJ4EIQWEY61B9TQXYVK04GN", "dateTime": 1516996725477}, {"current_trial": 232, "trialdata": {"rt": -1, "trial_type": "single-stim", "stimulus": "<p id=\"stim\">8</p>", "internal_node_id": "0.0-167.0-2.0", "time_elapsed": 1193843, "key_press": -1, "trial_index": 232}, "uniqueid": "MTK2364:3MYYFCXHJ4EIQWEY61B9TQXYVK04GN", "dateTime": 1516996726479}, {"current_trial": 233, "trialdata": {"rt": -1, "trial_type": "single-stim", "stimulus": "<p id=\"stim\">7</p>", "internal_node_id": "0.0-167.0-3.0", "time_elapsed": 1194844, "key_press": -1, "trial_index": 233}, "uniqueid": "MTK2364:3MYYFCXHJ4EIQWEY61B9TQXYVK04GN", "dateTime": 1516996727480}, {"current_trial": 234, "trialdata": {"rt": -1, "trial_type": "single-stim", "stimulus": "<p id=\"stim\">6</p>", "internal_node_id": "0.0-167.0-4.0", "time_elapsed": 1195845, "key_press": -1, "trial_index": 234}, "uniqueid": "MTK2364:3MYYFCXHJ4EIQWEY61B9TQXYVK04GN", "dateTime": 1516996728481}, {"current_trial": 235, "trialdata": {"rt": -1, "trial_type": "single-stim", "stimulus": "<p id=\"stim\">5</p>", "internal_node_id": "0.0-167.0-5.0", "time_elapsed": 1196846, "key_press": -1, "trial_index": 235}, "uniqueid": "MTK2364:3MYYFCXHJ4EIQWEY61B9TQXYVK04GN", "dateTime": 1516996729482}, {"current_trial": 236, "trialdata": {"rt": -1, "trial_type": "single-stim", "stimulus": "<p id=\"stim\">4</p>", "internal_node_id": "0.0-167.0-6.0", "time_elapsed": 1197848, "key_press": -1, "trial_index": 236}, "uniqueid": "MTK2364:3MYYFCXHJ4EIQWEY61B9TQXYVK04GN", "dateTime": 1516996730484}, {"current_trial": 237, "trialdata": {"rt": -1, "trial_type": "single-stim", "stimulus": "<p id=\"stim\">3</p>", "internal_node_id": "0.0-167.0-7.0", "time_elapsed": 1198849, "key_press": -1, "trial_index": 237}, "uniqueid": "MTK2364:3MYYFCXHJ4EIQWEY61B9TQXYVK04GN", "dateTime": 1516996731485}, {"current_trial": 238, "trialdata": {"rt": -1, "trial_type": "single-stim", "stimulus": "<p id=\"stim\">2</p>", "internal_node_id": "0.0-167.0-8.0", "time_elapsed": 1199851, "key_press": -1, "trial_index": 238}, "uniqueid": "MTK2364:3MYYFCXHJ4EIQWEY61B9TQXYVK04GN", "dateTime": 1516996732487}, {"current_trial": 239, "trialdata": {"rt": -1, "trial_type": "single-stim", "stimulus": "<p id=\"stim\">1</p>", "internal_node_id": "0.0-167.0-9.0", "time_elapsed": 1200853, "key_press": -1, "trial_index": 239}, "uniqueid": "MTK2364:3MYYFCXHJ4EIQWEY61B9TQXYVK04GN", "dateTime": 1516996733489}, {"current_trial": 240, "trialdata": {"rt": -1, "trial_type": "single-stim", "stimulus": "<p id=\"stim\">+</p>", "internal_node_id": "0.0-168.0-0.0", "time_elapsed": 1202354, "key_press": -1, "type": "FIXATION", "trial_index": 240}, "uniqueid": "MTK2364:3MYYFCXHJ4EIQWEY61B9TQXYVK04GN", "dateTime": 1516996734990}, {"current_trial": 241, "trialdata": {"rt": -1, "trial_type": "single-stim", "word": "barley", "stimulus": "<p id=\"stim\">BARLEY</p>", "conditions": [24, 800, "v", 12000], "internal_node_id": "0.0-169.0", "trial": 7, "time_elapsed": 1203156, "serialpos": 0, "key_press": -1, "wordID": 87, "type": "PRES_VIS", "trial_index": 241}, "uniqueid": "MTK2364:3MYYFCXHJ4EIQWEY61B9TQXYVK04GN", "dateTime": 1516996735792}, {"current_trial": 242, "trialdata": {"rt": -1, "trial_type": "single-stim", "word": "grape", "stimulus": "<p id=\"stim\">GRAPE</p>", "conditions": [24, 800, "v", 12000], "internal_node_id": "0.0-170.0", "trial": 7, "time_elapsed": 1204935, "serialpos": 1, "key_press": -1, "wordID": 653, "type": "PRES_VIS", "trial_index": 242}, "uniqueid": "MTK2364:3MYYFCXHJ4EIQWEY61B9TQXYVK04GN", "dateTime": 1516996737573}, {"current_trial": 243, "trialdata": {"rt": -1, "trial_type": "single-stim", "word": "rabbit", "stimulus": "<p id=\"stim\">RABBIT</p>", "conditions": [24, 800, "v", 12000], "internal_node_id": "0.0-171.0", "trial": 7, "time_elapsed": 1206871, "serialpos": 2, "key_press": -1, "wordID": 1151, "type": "PRES_VIS", "trial_index": 243}, "uniqueid": "MTK2364:3MYYFCXHJ4EIQWEY61B9TQXYVK04GN", "dateTime": 1516996739507}, {"current_trial": 244, "trialdata": {"rt": -1, "trial_type": "single-stim", "word": "poet", "stimulus": "<p id=\"stim\">POET</p>", "conditions": [24, 800, "v", 12000], "internal_node_id": "0.0-172.0", "trial": 7, "time_elapsed": 1208590, "serialpos": 3, "key_press": -1, "wordID": 1094, "type": "PRES_VIS", "trial_index": 244}, "uniqueid": "MTK2364:3MYYFCXHJ4EIQWEY61B9TQXYVK04GN", "dateTime": 1516996741226}, {"current_trial": 245, "trialdata": {"rt": -1, "trial_type": "single-stim", "word": "shirt", "stimulus": "<p id=\"stim\">SHIRT</p>", "conditions": [24, 800, "v", 12000], "internal_node_id": "0.0-173.0", "trial": 7, "time_elapsed": 1210229, "serialpos": 4, "key_press": -1, "wordID": 1286, "type": "PRES_VIS", "trial_index": 245}, "uniqueid": "MTK2364:3MYYFCXHJ4EIQWEY61B9TQXYVK04GN", "dateTime": 1516996742865}, {"current_trial": 246, "trialdata": {"rt": -1, "trial_type": "single-stim", "word": "jungle", "stimulus": "<p id=\"stim\">JUNGLE</p>", "conditions": [24, 800, "v", 12000], "internal_node_id": "0.0-174.0", "trial": 7, "time_elapsed": 1212126, "serialpos": 5, "key_press": -1, "wordID": 763, "type": "PRES_VIS", "trial_index": 246}, "uniqueid": "MTK2364:3MYYFCXHJ4EIQWEY61B9TQXYVK04GN", "dateTime": 1516996744762}, {"current_trial": 247, "trialdata": {"rt": -1, "trial_type": "single-stim", "word": "skillet", "stimulus": "<p id=\"stim\">SKILLET</p>", "conditions": [24, 800, "v", 12000], "internal_node_id": "0.0-175.0", "trial": 7, "time_elapsed": 1213778, "serialpos": 6, "key_press": -1, "wordID": 1316, "type": "PRES_VIS", "trial_index": 247}, "uniqueid": "MTK2364:3MYYFCXHJ4EIQWEY61B9TQXYVK04GN", "dateTime": 1516996746414}, {"current_trial": 248, "trialdata": {"rt": -1, "trial_type": "single-stim", "word": "tourist", "stimulus": "<p id=\"stim\">TOURIST</p>", "conditions": [24, 800, "v", 12000], "internal_node_id": "0.0-176.0", "trial": 7, "time_elapsed": 1215396, "serialpos": 7, "key_press": -1, "wordID": 1487, "type": "PRES_VIS", "trial_index": 248}, "uniqueid": "MTK2364:3MYYFCXHJ4EIQWEY61B9TQXYVK04GN", "dateTime": 1516996748032}, {"current_trial": 249, "trialdata": {"rt": -1, "trial_type": "single-stim", "word": "valve", "stimulus": "<p id=\"stim\">VALVE</p>", "conditions": [24, 800, "v", 12000], "internal_node_id": "0.0-177.0", "trial": 7, "time_elapsed": 1217053, "serialpos": 8, "key_press": -1, "wordID": 1545, "type": "PRES_VIS", "trial_index": 249}, "uniqueid": "MTK2364:3MYYFCXHJ4EIQWEY61B9TQXYVK04GN", "dateTime": 1516996749689}, {"current_trial": 250, "trialdata": {"rt": -1, "trial_type": "single-stim", "word": "flipper", "stimulus": "<p id=\"stim\">FLIPPER</p>", "conditions": [24, 800, "v", 12000], "internal_node_id": "0.0-178.0", "trial": 7, "time_elapsed": 1218775, "serialpos": 9, "key_press": -1, "wordID": 579, "type": "PRES_VIS", "trial_index": 250}, "uniqueid": "MTK2364:3MYYFCXHJ4EIQWEY61B9TQXYVK04GN", "dateTime": 1516996751411}, {"current_trial": 251, "trialdata": {"rt": -1, "trial_type": "single-stim", "word": "spoon", "stimulus": "<p id=\"stim\">SPOON</p>", "conditions": [24, 800, "v", 12000], "internal_node_id": "0.0-179.0", "trial": 7, "time_elapsed": 1220419, "serialpos": 10, "key_press": -1, "wordID": 1356, "type": "PRES_VIS", "trial_index": 251}, "uniqueid": "MTK2364:3MYYFCXHJ4EIQWEY61B9TQXYVK04GN", "dateTime": 1516996753055}, {"current_trial": 252, "trialdata": {"rt": -1, "trial_type": "single-stim", "word": "queen", "stimulus": "<p id=\"stim\">QUEEN</p>", "conditions": [24, 800, "v", 12000], "internal_node_id": "0.0-180.0", "trial": 7, "time_elapsed": 1222039, "serialpos": 11, "key_press": -1, "wordID": 1148, "type": "PRES_VIS", "trial_index": 252}, "uniqueid": "MTK2364:3MYYFCXHJ4EIQWEY61B9TQXYVK04GN", "dateTime": 1516996754675}, {"current_trial": 253, "trialdata": {"rt": -1, "trial_type": "single-stim", "word": "doughnut", "stimulus": "<p id=\"stim\">DOUGHNUT</p>", "conditions": [24, 800, "v", 12000], "internal_node_id": "0.0-181.0", "trial": 7, "time_elapsed": 1223889, "serialpos": 12, "key_press": -1, "wordID": 489, "type": "PRES_VIS", "trial_index": 253}, "uniqueid": "MTK2364:3MYYFCXHJ4EIQWEY61B9TQXYVK04GN", "dateTime": 1516996756525}, {"current_trial": 254, "trialdata": {"rt": -1, "trial_type": "single-stim", "word": "lily", "stimulus": "<p id=\"stim\">LILY</p>", "conditions": [24, 800, "v", 12000], "internal_node_id": "0.0-182.0", "trial": 7, "time_elapsed": 1225591, "serialpos": 13, "key_press": -1, "wordID": 820, "type": "PRES_VIS", "trial_index": 254}, "uniqueid": "MTK2364:3MYYFCXHJ4EIQWEY61B9TQXYVK04GN", "dateTime": 1516996758227}, {"current_trial": 255, "trialdata": {"rt": -1, "trial_type": "single-stim", "word": "swimmer", "stimulus": "<p id=\"stim\">SWIMMER</p>", "conditions": [24, 800, "v", 12000], "internal_node_id": "0.0-183.0", "trial": 7, "time_elapsed": 1227424, "serialpos": 14, "key_press": -1, "wordID": 1419, "type": "PRES_VIS", "trial_index": 255}, "uniqueid": "MTK2364:3MYYFCXHJ4EIQWEY61B9TQXYVK04GN", "dateTime": 1516996760060}, {"current_trial": 256, "trialdata": {"rt": -1,