{"assignmentId": "3LQ8PUHQFMZQYZ8OBWVV8RJIFXKIHB", "workerId": "MTK2271", "questiondata": {"origin": "United States", "strat-rehearsal": "91", "marital": "Single", "education": "Bachelor's degree", "ethnicity": "Not Hispanic", "color_depth": 24, "distracted": "No", "wrote-notes": "Yes", "strat-other": "Grouping was the easiest strategy for me. Also longer words tend to stand out in my mind.", "screen_width": 1280, "avail_screen_width": 1280, "avail_screen_height": 683, "strat-image": "89", "language": "English", "gender": "Female", "age": "28", "gender_other": "", "race": ["White"], "strat-categorize": "78", "pixel_depth": 24, "strat-spatial": "28", "strat-story": "86", "race_other": "", "screen_height": 720}, "bonus": 0, "hitId": "3KI0JD2ZU1PBP69H6KVSVR8Z9BO76L", "counterbalance": 2343, "useragent": "Mozilla/5.0 (Windows NT 6.3; Win64; x64) AppleWebKit/537.36 (KHTML, like Gecko) Chrome/63.0.3239.132 Safari/537.36", "eventdata": [{"eventtype": "initialized", "interval": 0, "value": null, "timestamp": 1516907760768}, {"eventtype": "window_resize", "interval": 0, "value": [1275, 664], "timestamp": 1516907760768}], "data": [{"current_trial": 0, "trialdata": {"rt": 2898, "trial_type": "text", "internal_node_id": "0.0-0.0", "time_elapsed": 2900, "key_press": 83, "type": "INSTRUCTIONS", "trial_index": 0}, "uniqueid": "MTK2271:3LQ8PUHQFMZQYZ8OBWVV8RJIFXKIHB", "dateTime": 1516907763923}, {"current_trial": 1, "trialdata": {"rt": 3105, "trial_type": "text", "internal_node_id": "0.0-1.0", "time_elapsed": 6007, "key_press": 175, "type": "INSTRUCTIONS", "trial_index": 1}, "uniqueid": "MTK2271:3LQ8PUHQFMZQYZ8OBWVV8RJIFXKIHB", "dateTime": 1516907767029}, {"current_trial": 2, "trialdata": {"rt": [8540], "trial_type": "audio-test", "responses": ["ocean"], "internal_node_id": "0.0-2.0", "time_elapsed": 14562, "type": "AUDIO_TEST", "trial_index": 2}, "uniqueid": "MTK2271:3LQ8PUHQFMZQYZ8OBWVV8RJIFXKIHB", "dateTime": 1516907775584}, {"current_trial": 3, "trialdata": {"rt": [8621], "trial_type": "audio-test", "responses": ["crystal"], "internal_node_id": "0.0-3.0", "time_elapsed": 23186, "type": "AUDIO_TEST", "trial_index": 3}, "uniqueid": "MTK2271:3LQ8PUHQFMZQYZ8OBWVV8RJIFXKIHB", "dateTime": 1516907784208}, {"current_trial": 4, "trialdata": {"rt": [4131], "trial_type": "audio-test", "responses": ["spice"], "internal_node_id": "0.0-4.0", "time_elapsed": 27321, "type": "AUDIO_TEST", "trial_index": 4}, "uniqueid": "MTK2271:3LQ8PUHQFMZQYZ8OBWVV8RJIFXKIHB", "dateTime": 1516907788343}, {"current_trial": 5, "trialdata": {"rt": 21717, "trial_type": "survey-text", "responses": "{\"Q0\":\"2:30\",\"Q1\":\"10:30\",\"Q2\":\"3\"}", "internal_node_id": "0.0-5.0", "time_elapsed": 49790, "type": "SLEEP_SURVEY", "trial_index": 5}, "uniqueid": "MTK2271:3LQ8PUHQFMZQYZ8OBWVV8RJIFXKIHB", "dateTime": 1516907810812}, {"current_trial": 6, "trialdata": {"rt": 123951, "trial_type": "text", "internal_node_id": "0.0-6.0", "time_elapsed": 174743, "key_press": 68, "type": "INSTRUCTIONS", "trial_index": 6}, "uniqueid": "MTK2271:3LQ8PUHQFMZQYZ8OBWVV8RJIFXKIHB", "dateTime": 1516907935765}, {"current_trial": 7, "trialdata": {"rt": 27922, "trial_type": "text", "internal_node_id": "0.0-7.0", "time_elapsed": 203167, "key_press": 83, "type": "INSTRUCTIONS", "trial_index": 7}, "uniqueid": "MTK2271:3LQ8PUHQFMZQYZ8OBWVV8RJIFXKIHB", "dateTime": 1516907964189}, {"current_trial": 8, "trialdata": {"rt": 10888, "trial_type": "text", "internal_node_id": "0.0-8.0", "time_elapsed": 214557, "key_press": 70, "type": "INSTRUCTIONS", "trial_index": 8}, "uniqueid": "MTK2271:3LQ8PUHQFMZQYZ8OBWVV8RJIFXKIHB", "dateTime": 1516907975579}, {"current_trial": 9, "trialdata": {"rt": [6879, 10168, 15127, 17735], "trial_type": "math-distractor", "key_times": [4742, 4839, 6879, 9123, 9362, 10168, 12859, 13379, 15127, 17496, 17735], "responses": ["21", "14", "17", "5"], "num2": [3, 3, 7, 2, 2], "num3": [9, 6, 6, 1, 1], "conditions": [18, 1200, "v", 18000], "internal_node_id": "0.0-9.0", "key_presses": [50, 49, 13, 49, 52, 13, 49, 55, 13, 53, 13], "trial": 0, "time_elapsed": 233561, "type": "DISTRACTOR", "trial_index": 9, "num1": [9, 5, 4, 3, 1]}, "uniqueid": "MTK2271:3LQ8PUHQFMZQYZ8OBWVV8RJIFXKIHB", "dateTime": 1516907994583}, {"current_trial": 10, "trialdata": {"rt": -1, "trial_type": "single-stim", "stimulus": "<p id=\"stim\">10</p>", "internal_node_id": "0.0-10.0-0.0", "time_elapsed": 236565, "key_press": -1, "trial_index": 10}, "uniqueid": "MTK2271:3LQ8PUHQFMZQYZ8OBWVV8RJIFXKIHB", "dateTime": 1516907997587}, {"current_trial": 11, "trialdata": {"rt": -1, "trial_type": "single-stim", "stimulus": "<p id=\"stim\">9</p>", "internal_node_id": "0.0-10.0-1.0", "time_elapsed": 237568, "key_press": -1, "trial_index": 11}, "uniqueid": "MTK2271:3LQ8PUHQFMZQYZ8OBWVV8RJIFXKIHB", "dateTime": 1516907998590}, {"current_trial": 12, "trialdata": {"rt": -1, "trial_type": "single-stim", "stimulus": "<p id=\"stim\">8</p>", "internal_node_id": "0.0-10.0-2.0", "time_elapsed": 238569, "key_press": -1, "trial_index": 12}, "uniqueid": "MTK2271:3LQ8PUHQFMZQYZ8OBWVV8RJIFXKIHB", "dateTime": 1516907999591}, {"current_trial": 13, "trialdata": {"rt": -1, "trial_type": "single-stim", "stimulus": "<p id=\"stim\">7</p>", "internal_node_id": "0.0-10.0-3.0", "time_elapsed": 239570, "key_press": -1, "trial_index": 13}, "uniqueid": "MTK2271:3LQ8PUHQFMZQYZ8OBWVV8RJIFXKIHB", "dateTime": 1516908000592}, {"current_trial": 14, "trialdata": {"rt": -1, "trial_type": "single-stim", "stimulus": "<p id=\"stim\">6</p>", "internal_node_id": "0.0-10.0-4.0", "time_elapsed": 240571, "key_press": -1, "trial_index": 14}, "uniqueid": "MTK2271:3LQ8PUHQFMZQYZ8OBWVV8RJIFXKIHB", "dateTime": 1516908001593}, {"current_trial": 15, "trialdata": {"rt": -1, "trial_type": "single-stim", "stimulus": "<p id=\"stim\">5</p>", "internal_node_id": "0.0-10.0-5.0", "time_elapsed": 241572, "key_press": -1, "trial_index": 15}, "uniqueid": "MTK2271:3LQ8PUHQFMZQYZ8OBWVV8RJIFXKIHB", "dateTime": 1516908002594}, {"current_trial": 16, "trialdata": {"rt": -1, "trial_type": "single-stim", "stimulus": "<p id=\"stim\">4</p>", "internal_node_id": "0.0-10.0-6.0", "time_elapsed": 242574, "key_press": -1, "trial_index": 16}, "uniqueid": "MTK2271:3LQ8PUHQFMZQYZ8OBWVV8RJIFXKIHB", "dateTime": 1516908003596}, {"current_trial": 17, "trialdata": {"rt": -1, "trial_type": "single-stim", "stimulus": "<p id=\"stim\">3</p>", "internal_node_id": "0.0-10.0-7.0", "time_elapsed": 243576, "key_press": -1, "trial_index": 17}, "uniqueid": "MTK2271:3LQ8PUHQFMZQYZ8OBWVV8RJIFXKIHB", "dateTime": 1516908004598}, {"current_trial": 18, "trialdata": {"rt": -1, "trial_type": "single-stim", "stimulus": "<p id=\"stim\">2</p>", "internal_node_id": "0.0-10.0-8.0", "time_elapsed": 244577, "key_press": -1, "trial_index": 18}, "uniqueid": "MTK2271:3LQ8PUHQFMZQYZ8OBWVV8RJIFXKIHB", "dateTime": 1516908005599}, {"current_trial": 19, "trialdata": {"rt": -1, "trial_type": "single-stim", "stimulus": "<p id=\"stim\">1</p>", "internal_node_id": "0.0-10.0-9.0", "time_elapsed": 245578, "key_press": -1, "trial_index": 19}, "uniqueid": "MTK2271:3LQ8PUHQFMZQYZ8OBWVV8RJIFXKIHB", "dateTime": 1516908006600}, {"current_trial": 20, "trialdata": {"rt": -1, "trial_type": "single-stim", "stimulus": "<p id=\"stim\">+</p>", "internal_node_id": "0.0-11.0-0.0", "time_elapsed": 247080, "key_press": -1, "type": "FIXATION", "trial_index": 20}, "uniqueid": "MTK2271:3LQ8PUHQFMZQYZ8OBWVV8RJIFXKIHB", "dateTime": 1516908008102}, {"current_trial": 21, "trialdata": {"rt": -1, "trial_type": "single-stim", "word": "temple", "stimulus": "<p id=\"stim\">TEMPLE</p>", "conditions": [18, 1200, "v", 18000], "internal_node_id": "0.0-12.0", "trial": 0, "time_elapsed": 248280, "serialpos": 0, "key_press": -1, "wordID": 1447, "type": "PRES_VIS", "trial_index": 21}, "uniqueid": "MTK2271:3LQ8PUHQFMZQYZ8OBWVV8RJIFXKIHB", "dateTime": 1516908009303}, {"current_trial": 22, "trialdata": {"rt": -1, "trial_type": "single-stim", "word": "bullet", "stimulus": "<p id=\"stim\">BULLET</p>", "conditions": [18, 1200, "v", 18000], "internal_node_id": "0.0-13.0", "trial": 0, "time_elapsed": 250513, "serialpos": 1, "key_press": -1, "wordID": 193, "type": "PRES_VIS", "trial_index": 22}, "uniqueid": "MTK2271:3LQ8PUHQFMZQYZ8OBWVV8RJIFXKIHB", "dateTime": 1516908011535}, {"current_trial": 23, "trialdata": {"rt": -1, "trial_type": "single-stim", "word": "europe", "stimulus": "<p id=\"stim\">EUROPE</p>", "conditions": [18, 1200, "v", 18000], "internal_node_id": "0.0-14.0", "trial": 0, "time_elapsed": 252588, "serialpos": 2, "key_press": -1, "wordID": 540, "type": "PRES_VIS", "trial_index": 23}, "uniqueid": "MTK2271:3LQ8PUHQFMZQYZ8OBWVV8RJIFXKIHB", "dateTime": 1516908013610}, {"current_trial": 24, "trialdata": {"rt": -1, "trial_type": "single-stim", "word": "taxi", "stimulus": "<p id=\"stim\">TAXI</p>", "conditions": [18, 1200, "v", 18000], "internal_node_id": "0.0-15.0", "trial": 0, "time_elapsed": 254921, "serialpos": 3, "key_press": -1, "wordID": 1437, "type": "PRES_VIS", "trial_index": 24}, "uniqueid": "MTK2271:3LQ8PUHQFMZQYZ8OBWVV8RJIFXKIHB", "dateTime": 1516908015943}, {"current_trial": 25, "trialdata": {"rt": -1, "trial_type": "single-stim", "word": "clothes", "stimulus": "<p id=\"stim\">CLOTHES</p>", "conditions": [18, 1200, "v", 18000], "internal_node_id": "0.0-16.0", "trial": 0, "time_elapsed": 256991, "serialpos": 4, "key_press": -1, "wordID": 326, "type": "PRES_VIS", "trial_index": 25}, "uniqueid": "MTK2271:3LQ8PUHQFMZQYZ8OBWVV8RJIFXKIHB", "dateTime": 1516908018013}, {"current_trial": 26, "trialdata": {"rt": -1, "trial_type": "single-stim", "word": "college", "stimulus": "<p id=\"stim\">COLLEGE</p>", "conditions": [18, 1200, "v", 18000], "internal_node_id": "0.0-17.0", "trial": 0, "time_elapsed": 259115, "serialpos": 5, "key_press": -1, "wordID": 345, "type": "PRES_VIS", "trial_index": 26}, "uniqueid": "MTK2271:3LQ8PUHQFMZQYZ8OBWVV8RJIFXKIHB", "dateTime": 1516908020137}, {"current_trial": 27, "trialdata": {"rt": -1, "trial_type": "single-stim", "word": "river", "stimulus": "<p id=\"stim\">RIVER</p>", "conditions": [18, 1200, "v", 18000], "internal_node_id": "0.0-18.0", "trial": 0, "time_elapsed": 261471, "serialpos": 6, "key_press": -1, "wordID": 1193, "type": "PRES_VIS", "trial_index": 27}, "uniqueid": "MTK2271:3LQ8PUHQFMZQYZ8OBWVV8RJIFXKIHB", "dateTime": 1516908022493}, {"current_trial": 28, "trialdata": {"rt": -1, "trial_type": "single-stim", "word": "princess", "stimulus": "<p id=\"stim\">PRINCESS</p>", "conditions": [18, 1200, "v", 18000], "internal_node_id": "0.0-19.0", "trial": 0, "time_elapsed": 263818, "serialpos": 7, "key_press": -1, "wordID": 1124, "type": "PRES_VIS", "trial_index": 28}, "uniqueid": "MTK2271:3LQ8PUHQFMZQYZ8OBWVV8RJIFXKIHB", "dateTime": 1516908024840}, {"current_trial": 29, "trialdata": {"rt": -1, "trial_type": "single-stim", "word": "sausage", "stimulus": "<p id=\"stim\">SAUSAGE</p>", "conditions": [18, 1200, "v", 18000], "internal_node_id": "0.0-20.0", "trial": 0, "time_elapsed": 265901, "serialpos": 8, "key_press": -1, "wordID": 1237, "type": "PRES_VIS", "trial_index": 29}, "uniqueid": "MTK2271:3LQ8PUHQFMZQYZ8OBWVV8RJIFXKIHB", "dateTime": 1516908026923}, {"current_trial": 30, "trialdata": {"rt": -1, "trial_type": "single-stim", "word": "blueprint", "stimulus": "<p id=\"stim\">BLUEPRINT</p>", "conditions": [18, 1200, "v", 18000], "internal_node_id": "0.0-21.0", "trial": 0, "time_elapsed": 267959, "serialpos": 9, "key_press": -1, "wordID": 141, "type": "PRES_VIS", "trial_index": 30}, "uniqueid": "MTK2271:3LQ8PUHQFMZQYZ8OBWVV8RJIFXKIHB", "dateTime": 1516908028981}, {"current_trial": 31, "trialdata": {"rt": -1, "trial_type": "single-stim", "word": "skillet", "stimulus": "<p id=\"stim\">SKILLET</p>", "conditions": [18, 1200, "v", 18000], "internal_node_id": "0.0-22.0", "trial": 0, "time_elapsed": 270135, "serialpos": 10, "key_press": -1, "wordID": 1316, "type": "PRES_VIS", "trial_index": 31}, "uniqueid": "MTK2271:3LQ8PUHQFMZQYZ8OBWVV8RJIFXKIHB", "dateTime": 1516908031157}, {"current_trial": 32, "trialdata": {"rt": -1, "trial_type": "single-stim", "word": "virus", "stimulus": "<p id=\"stim\">VIRUS</p>", "conditions": [18, 1200, "v", 18000], "internal_node_id": "0.0-23.0", "trial": 0, "time_elapsed": 272281, "serialpos": 11, "key_press": -1, "wordID": 1571, "type": "PRES_VIS", "trial_index": 32}, "uniqueid": "MTK2271:3LQ8PUHQFMZQYZ8OBWVV8RJIFXKIHB", "dateTime": 1516908033304}, {"current_trial": 33, "trialdata": {"rt": -1, "trial_type": "single-stim", "word": "sheriff", "stimulus": "<p id=\"stim\">SHERIFF</p>", "conditions": [18, 1200, "v", 18000], "internal_node_id": "0.0-24.0", "trial": 0, "time_elapsed": 274335, "serialpos": 12, "key_press": -1, "wordID": 1283, "type": "PRES_VIS", "trial_index": 33}, "uniqueid": "MTK2271:3LQ8PUHQFMZQYZ8OBWVV8RJIFXKIHB", "dateTime": 1516908035357}, {"current_trial": 34, "trialdata": {"rt": -1, "trial_type": "single-stim", "word": "cellar", "stimulus": "<p id=\"stim\">CELLAR</p>", "conditions": [18, 1200, "v", 18000], "internal_node_id": "0.0-25.0", "trial": 0, "time_elapsed": 276359, "serialpos": 13, "key_press": -1, "wordID": 266, "type": "PRES_VIS", "trial_index": 34}, "uniqueid": "MTK2271:3LQ8PUHQFMZQYZ8OBWVV8RJIFXKIHB", "dateTime": 1516908037381}, {"current_trial": 35, "trialdata": {"rt": -1, "trial_type": "single-stim", "word": "shelf", "stimulus": "<p id=\"stim\">SHELF</p>", "conditions": [18, 1200, "v", 18000], "internal_node_id": "0.0-26.0", "trial": 0, "time_elapsed": 278734, "serialpos": 14, "key_press": -1, "wordID": 1279, "type": "PRES_VIS", "trial_index": 35}, "uniqueid": "MTK2271:3LQ8PUHQFMZQYZ8OBWVV8RJIFXKIHB", "dateTime": 1516908039756}, {"current_trial": 36, "trialdata": {"rt": -1, "trial_type": "single-stim", "word": "plaster", "stimulus": "<p id=\"stim\">PLASTER</p>", "conditions": [18, 1200, "v", 18000], "internal_node_id": "0.0-27.0", "trial": 0, "time_elapsed": 280741, "serialpos": 15, "key_press": -1, "wordID": 1084, "type": "PRES_VIS", "trial_index": 36}, "uniqueid": "MTK2271:3LQ8PUHQFMZQYZ8OBWVV8RJIFXKIHB", "dateTime": 1516908041763}, {"current_trial": 37, "trialdata": {"rt": -1, "trial_type": "single-stim", "word": "blackboard", "stimulus": "<p id=\"stim\">BLACKBOARD</p>", "conditions": [18, 1200, "v", 18000], "internal_node_id": "0.0-28.0", "trial": 0, "time_elapsed": 282923, "serialpos": 16, "key_press": -1, "wordID": 132, "type": "PRES_VIS", "trial_index": 37}, "uniqueid": "MTK2271:3LQ8PUHQFMZQYZ8OBWVV8RJIFXKIHB", "dateTime": 1516908043945}, {"current_trial": 38, "trialdata": {"rt": -1, "trial_type": "single-stim", "word": "slug", "stimulus": "<p id=\"stim\">SLUG</p>", "conditions": [18, 1200, "v", 18000], "internal_node_id": "0.0-29.0", "trial": 0, "time_elapsed": 285244, "serialpos": 17, "key_press": -1, "wordID": 1328, "type": "PRES_VIS", "trial_index": 38}, "uniqueid": "MTK2271:3LQ8PUHQFMZQYZ8OBWVV8RJIFXKIHB", "dateTime": 1516908046266}, {"current_trial": 39, "trialdata": {"rt": -1, "trial_type": "single-stim", "stimulus": "", "internal_node_id": "0.0-30.0-0.0", "time_elapsed": 287628, "key_press": -1, "type": "PRE_RECALL_DELAY", "trial_index": 39}, "uniqueid": "MTK2271:3LQ8PUHQFMZQYZ8OBWVV8RJIFXKIHB", "dateTime": 1516908048650}, {"current_trial": 40, "trialdata": {"rt": -1000, "trial_type": "single-audio", "stimulus": "/static/audio/400Hz.wav", "internal_node_id": "0.0-31.0", "time_elapsed": 288130, "key_press": -1, "type": "PRE_RECALL_ALERT", "trial_index": 40}, "uniqueid": "MTK2271:3LQ8PUHQFMZQYZ8OBWVV8RJIFXKIHB", "dateTime": 1516908049153}, {"current_trial": 41, "trialdata": {"rt": [2532, 4508, 7262, 10441, 12985, 15795, 17737, 19416, 26132, 44288, 58812], "recwords": ["temple", "bullet", "sheriff", "cellar", "princess", "college", "river", "plaster", "clothes", "wall", ""], "key_times": [1496, 1580, 1785, 1884, 2104, 2293, 2335, 2532, 3019, 3270, 3564, 3813, 3958, 4023, 4227, 4508, 5456, 5553, 5812, 5905, 6046, 6274, 6369, 6554, 7262, 7811, 8131, 8655, 8921, 8951, 9197, 9434, 9601, 9694, 10169, 10441, 11540, 11674, 11846, 11956, 12154, 12248, 12455, 12673, 12842, 12985, 14093, 14158, 14378, 14572, 14710, 14763, 15002, 15188, 15795, 16113, 16172, 16438, 16543, 16766, 17549, 17737, 18072, 18216, 18428, 18537, 18630, 18899, 19097, 19146, 19416, 25073, 25137, 25298, 25481, 25578, 25691, 25828, 26009, 26132, 43600, 43671, 43860, 43952, 44103, 44288, 58812], "trial_type": "free-recall", "conditions": [18, 1200, "v", 18000], "internal_node_id": "0.0-32.0-0.0", "key_presses": [16, 84, 69, 77, 80, 76, 69, 13, 16, 66, 85, 76, 76, 69, 84, 13, 16, 83, 72, 69, 82, 73, 70, 70, 13, 16, 86, 8, 16, 67, 69, 76, 76, 65, 82, 13, 16, 80, 82, 73, 78, 67, 69, 83, 83, 13, 16, 67, 79, 76, 76, 69, 71, 69, 13, 16, 82, 73, 86, 69, 82, 13, 16, 80, 76, 65, 83, 84, 69, 82, 13, 16, 67, 76, 79, 84, 72, 69, 83, 13, 16, 87, 65, 76, 76, 13, 13], "trial": 0, "time_elapsed": 348133, "type": "FREE_RECALL", "trial_index": 41}, "uniqueid": "MTK2271:3LQ8PUHQFMZQYZ8OBWVV8RJIFXKIHB", "dateTime": 1516908109156}, {"current_trial": 42, "trialdata": {"rt": 1176, "trial_type": "text", "internal_node_id": "0.0-33.0", "time_elapsed": 351311, "key_press": 32, "type": "INSTRUCTIONS", "trial_index": 42}, "uniqueid": "MTK2271:3LQ8PUHQFMZQYZ8OBWVV8RJIFXKIHB", "dateTime": 1516908112333}, {"current_trial": 43, "trialdata": {"rt": [2277, 3824, 6267, 7993, 12581, 15438], "trial_type": "math-distractor", "key_times": [1950, 2039, 2277, 3733, 3824, 6012, 6166, 6267, 7891, 7993, 12148, 12482, 12581, 14994, 15325, 15438, 17662, 17999], "responses": ["10", "7", "11", "8", "26", "18"], "num2": [2, 5, 5, 1, 7, 9, 6], "num3": [2, 1, 4, 6, 9, 1, 7], "conditions": [18, 1200, "v", 18000], "internal_node_id": "0.0-34.0", "key_presses": [49, 48, 13, 55, 13, 49, 49, 13, 56, 13, 50, 54, 13, 49, 56, 13, 49, 54], "trial": 1, "time_elapsed": 371314, "type": "DISTRACTOR", "trial_index": 43, "num1": [6, 1, 2, 1, 9, 8, 3]}, "uniqueid": "MTK2271:3LQ8PUHQFMZQYZ8OBWVV8RJIFXKIHB", "dateTime": 1516908132336}, {"current_trial": 44, "trialdata": {"rt": -1, "trial_type": "single-stim", "stimulus": "<p id=\"stim\">10</p>", "internal_node_id": "0.0-35.0-0.0", "time_elapsed": 374316, "key_press": -1, "trial_index": 44}, "uniqueid": "MTK2271:3LQ8PUHQFMZQYZ8OBWVV8RJIFXKIHB", "dateTime": 1516908135338}, {"current_trial": 45, "trialdata": {"rt": -1, "trial_type": "single-stim", "stimulus": "<p id=\"stim\">9</p>", "internal_node_id": "0.0-35.0-1.0", "time_elapsed": 375318, "key_press": -1, "trial_index": 45}, "uniqueid": "MTK2271:3LQ8PUHQFMZQYZ8OBWVV8RJIFXKIHB", "dateTime": 1516908136340}, {"current_trial": 46, "trialdata": {"rt": -1, "trial_type": "single-stim", "stimulus": "<p id=\"stim\">8</p>", "internal_node_id": "0.0-35.0-2.0", "time_elapsed": 376319, "key_press": -1, "trial_index": 46}, "uniqueid": "MTK2271:3LQ8PUHQFMZQYZ8OBWVV8RJIFXKIHB", "dateTime": 1516908137341}, {"current_trial": 47, "trialdata": {"rt": -1, "trial_type": "single-stim", "stimulus": "<p id=\"stim\">7</p>", "internal_node_id": "0.0-35.0-3.0", "time_elapsed": 377320, "key_press": -1, "trial_index": 47}, "uniqueid": "MTK2271:3LQ8PUHQFMZQYZ8OBWVV8RJIFXKIHB", "dateTime": 1516908138342}, {"current_trial": 48, "trialdata": {"rt": -1, "trial_type": "single-stim", "stimulus": "<p id=\"stim\">6</p>", "internal_node_id": "0.0-35.0-4.0", "time_elapsed": 378321, "key_press": -1, "trial_index": 48}, "uniqueid": "MTK2271:3LQ8PUHQFMZQYZ8OBWVV8RJIFXKIHB", "dateTime": 1516908139343}, {"current_trial": 49, "trialdata": {"rt": -1, "trial_type": "single-stim", "stimulus": "<p id=\"stim\">5</p>", "internal_node_id": "0.0-35.0-5.0", "time_elapsed": 379323, "key_press": -1, "trial_index": 49}, "uniqueid": "MTK2271:3LQ8PUHQFMZQYZ8OBWVV8RJIFXKIHB", "dateTime": 1516908140345}, {"current_trial": 50, "trialdata": {"rt": -1, "trial_type": "single-stim", "stimulus": "<p id=\"stim\">4</p>", "internal_node_id": "0.0-35.0-6.0", "time_elapsed": 380324, "key_press": -1, "trial_index": 50}, "uniqueid": "MTK2271:3LQ8PUHQFMZQYZ8OBWVV8RJIFXKIHB", "dateTime": 1516908141347}, {"current_trial": 51, "trialdata": {"rt": -1, "trial_type": "single-stim", "stimulus": "<p id=\"stim\">3</p>", "internal_node_id": "0.0-35.0-7.0", "time_elapsed": 381325, "key_press": -1, "trial_index": 51}, "uniqueid": "MTK2271:3LQ8PUHQFMZQYZ8OBWVV8RJIFXKIHB", "dateTime": 1516908142348}, {"current_trial": 52, "trialdata": {"rt": -1, "trial_type": "single-stim", "stimulus": "<p id=\"stim\">2</p>", "internal_node_id": "0.0-35.0-8.0", "time_elapsed": 382327, "key_press": -1, "trial_index": 52}, "uniqueid": "MTK2271:3LQ8PUHQFMZQYZ8OBWVV8RJIFXKIHB", "dateTime": 1516908143349}, {"current_trial": 53, "trialdata": {"rt": -1, "trial_type": "single-stim", "stimulus": "<p id=\"stim\">1</p>", "internal_node_id": "0.0-35.0-9.0", "time_elapsed": 383328, "key_press": -1, "trial_index": 53}, "uniqueid": "MTK2271:3LQ8PUHQFMZQYZ8OBWVV8RJIFXKIHB", "dateTime": 1516908144350}, {"current_trial": 54, "trialdata": {"rt": -1, "trial_type": "single-stim", "stimulus": "<p id=\"stim\">+</p>", "internal_node_id": "0.0-36.0-0.0", "time_elapsed": 384829, "key_press": -1, "type": "FIXATION", "trial_index": 54}, "uniqueid": "MTK2271:3LQ8PUHQFMZQYZ8OBWVV8RJIFXKIHB", "dateTime": 1516908145851}, {"current_trial": 55, "trialdata": {"rt": -1, "trial_type": "single-stim", "word": "catcher", "stimulus": "<p id=\"stim\">CATCHER</p>", "conditions": [18, 1200, "v", 18000], "internal_node_id": "0.0-37.0", "trial": 1, "time_elapsed": 386030, "serialpos": 0, "key_press": -1, "wordID": 257, "type": "PRES_VIS", "trial_index": 55}, "uniqueid": "MTK2271:3LQ8PUHQFMZQYZ8OBWVV8RJIFXKIHB", "dateTime": 1516908147053}, {"current_trial": 56, "trialdata": {"rt": -1, "trial_type": "single-stim", "word": "bubble", "stimulus": "<p id=\"stim\">BUBBLE</p>", "conditions": [18, 1200, "v", 18000], "internal_node_id": "0.0-38.0", "trial": 1, "time_elapsed": 388114, "serialpos": 1, "key_press": -1, "wordID": 182, "type": "PRES_VIS", "trial_index": 56}, "uniqueid": "MTK2271:3LQ8PUHQFMZQYZ8OBWVV8RJIFXKIHB", "dateTime": 1516908149136}, {"current_trial": 57, "trialdata": {"rt": -1, "trial_type": "single-stim", "word": "lipstick", "stimulus": "<p id=\"stim\">LIPSTICK</p>", "conditions": [18, 1200, "v", 18000], "internal_node_id": "0.0-39.0", "trial": 1, "time_elapsed": 390357, "serialpos": 2, "key_press": -1, "wordID": 828, "type": "PRES_VIS", "trial_index": 57}, "uniqueid": "MTK2271:3LQ8PUHQFMZQYZ8OBWVV8RJIFXKIHB", "dateTime": 1516908151379}, {"current_trial": 58, "trialdata": {"rt": -1, "trial_type": "single-stim", "word": "seagull", "stimulus": "<p id=\"stim\">SEAGULL</p>", "conditions": [18, 1200, "v", 18000], "internal_node_id": "0.0-40.0", "trial": 1, "time_elapsed": 392729, "serialpos": 3, "key_press": -1, "wordID": 1260, "type": "PRES_VIS", "trial_index": 58}, "uniqueid": "MTK2271:3LQ8PUHQFMZQYZ8OBWVV8RJIFXKIHB", "dateTime": 1516908153751}, {"current_trial": 59, "trialdata": {"rt": -1, "trial_type": "single-stim", "word": "drill", "stimulus": "<p id=\"stim\">DRILL</p>", "conditions": [18, 1200, "v", 18000], "internal_node_id": "0.0-41.0", "trial": 1, "time_elapsed": 394924, "serialpos": 4, "key_press": -1, "wordID": 496, "type": "PRES_VIS", "trial_index": 59}, "uniqueid": "MTK2271:3LQ8PUHQFMZQYZ8OBWVV8RJIFXKIHB", "dateTime": 1516908155946}, {"current_trial": 60, "trialdata": {"rt": -1, "trial_type": "single-stim", "word": "witness", "stimulus": "<p id=\"stim\">WITNESS</p>", "conditions": [18, 1200, "v", 18000], "internal_node_id": "0.0-42.0", "trial": 1, "time_elapsed": 396978, "serialpos": 5, "key_press": -1, "wordID": 1617, "type": "PRES_VIS", "trial_index": 60}, "uniqueid": "MTK2271:3LQ8PUHQFMZQYZ8OBWVV8RJIFXKIHB", "dateTime": 1516908158000}, {"current_trial": 61, "trialdata": {"rt": -1, "trial_type": "single-stim", "word": "rebel", "stimulus": "<p id=\"stim\">REBEL</p>", "conditions": [18, 1200, "v", 18000], "internal_node_id": "0.0-43.0", "trial": 1, "time_elapsed": 399178, "serialpos": 6, "key_press": -1, "wordID": 1171, "type": "PRES_VIS", "trial_index": 61}, "uniqueid": "MTK2271:3LQ8PUHQFMZQYZ8OBWVV8RJIFXKIHB", "dateTime": 1516908160201}, {"current_trial": 62, "trialdata": {"rt": -1, "trial_type": "single-stim", "word": "swamp", "stimulus": "<p id=\"stim\">SWAMP</p>", "conditions": [18, 1200, "v", 18000], "internal_node_id": "0.0-44.0", "trial": 1, "time_elapsed": 401501, "serialpos": 7, "key_press": -1, "wordID": 1415, "type": "PRES_VIS", "trial_index": 62}, "uniqueid": "MTK2271:3LQ8PUHQFMZQYZ8OBWVV8RJIFXKIHB", "dateTime": 1516908162523}, {"current_trial": 63, "trialdata": {"rt": -1, "trial_type": "single-stim", "word": "puddle", "stimulus": "<p id=\"stim\">PUDDLE</p>", "conditions": [18, 1200, "v", 18000], "internal_node_id": "0.0-45.0", "trial": 1, "time_elapsed": 403828, "serialpos": 8, "key_press": -1, "wordID": 1139, "type": "PRES_VIS", "trial_index": 63}, "uniqueid": "MTK2271:3LQ8PUHQFMZQYZ8OBWVV8RJIFXKIHB", "dateTime": 1516908164850}, {"current_trial": 64, "trialdata": {"rt": -1, "trial_type": "single-stim", "word": "apple", "stimulus": "<p id=\"stim\">APPLE</p>", "conditions": [18, 1200, "v", 18000], "internal_node_id": "0.0-46.0", "trial": 1, "time_elapsed": 406201, "serialpos": 9, "key_press": -1, "wordID": 32, "type": "PRES_VIS", "trial_index": 64}, "uniqueid": "MTK2271:3LQ8PUHQFMZQYZ8OBWVV8RJIFXKIHB", "dateTime": 1516908167223}, {"current_trial": 65, "trialdata": {"rt": -1, "trial_type": "single-stim", "word": "brick", "stimulus": "<p id=\"stim\">BRICK</p>", "conditions": [18, 1200, "v", 18000], "internal_node_id": "0.0-47.0", "trial": 1, "time_elapsed": 408320, "serialpos": 10, "key_press": -1, "wordID": 171, "type": "PRES_VIS", "trial_index": 65}, "uniqueid": "MTK2271:3LQ8PUHQFMZQYZ8OBWVV8RJIFXKIHB", "dateTime": 1516908169342}, {"current_trial": 66, "trialdata": {"rt": -1, "trial_type": "single-stim", "word": "brook", "stimulus": "<p id=\"stim\">BROOK</p>", "conditions": [18, 1200, "v", 18000], "internal_node_id": "0.0-48.0", "trial": 1, "time_elapsed": 410501, "serialpos": 11, "key_press": -1, "wordID": 176, "type": "PRES_VIS", "trial_index": 66}, "uniqueid": "MTK2271:3LQ8PUHQFMZQYZ8OBWVV8RJIFXKIHB", "dateTime": 1516908171523}, {"current_trial": 67, "trialdata": {"rt": -1, "trial_type": "single-stim", "word": "hiker", "stimulus": "<p id=\"stim\">HIKER</p>", "conditions": [18, 1200, "v", 18000], "internal_node_id": "0.0-49.0", "trial": 1, "time_elapsed": 412788, "serialpos": 12, "key_press": -1, "wordID": 707, "type": "PRES_VIS", "trial_index": 67}, "uniqueid": "MTK2271:3LQ8PUHQFMZQYZ8OBWVV8RJIFXKIHB", "dateTime": 1516908173810}, {"current_trial": 68, "trialdata": {"rt": -1, "trial_type": "single-stim", "word": "wife", "stimulus": "<p id=\"stim\">WIFE</p>", "conditions": [18, 1200, "v", 18000], "internal_node_id": "0.0-50.0", "trial": 1, "time_elapsed": 415160, "serialpos": 13, "key_press": -1, "wordID": 1608, "type": "PRES_VIS", "trial_index": 68}, "uniqueid": "MTK2271:3LQ8PUHQFMZQYZ8OBWVV8RJIFXKIHB", "dateTime": 1516908176184}, {"current_trial": 69, "trialdata": {"rt": -1, "trial_type": "single-stim", "word": "hostess", "stimulus": "<p id=\"stim\">HOSTESS</p>", "conditions": [18, 1200, "v", 18000], "internal_node_id": "0.0-51.0", "trial": 1, "time_elapsed": 417281, "serialpos": 14, "key_press": -1, "wordID": 722, "type": "PRES_VIS", "trial_index": 69}, "uniqueid": "MTK2271:3LQ8PUHQFMZQYZ8OBWVV8RJIFXKIHB", "dateTime": 1516908178303}, {"current_trial": 70, "trialdata": {"rt": -1, "trial_type": "single-stim", "word": "crib", "stimulus": "<p id=\"stim\">CRIB</p>", "conditions": [18, 1200, "v", 18000], "internal_node_id": "0.0-52.0", "trial": 1, "time_elapsed": 419388, "serialpos": 15, "key_press": -1, "wordID": 406, "type": "PRES_VIS", "trial_index": 70}, "uniqueid": "MTK2271:3LQ8PUHQFMZQYZ8OBWVV8RJIFXKIHB", "dateTime": 1516908180410}, {"current_trial": 71, "trialdata": {"rt": -1, "trial_type": "single-stim", "word": "daughter", "stimulus": "<p id=\"stim\">DAUGHTER</p>", "conditions": [18, 1200, "v", 18000], "internal_node_id": "0.0-53.0", "trial": 1, "time_elapsed": 421736, "serialpos": 16, "key_press": -1, "wordID": 441, "type": "PRES_VIS", "trial_index": 71}, "uniqueid": "MTK2271:3LQ8PUHQFMZQYZ8OBWVV8RJIFXKIHB", "dateTime": 1516908182758}, {"current_trial": 72, "trialdata": {"rt": -1, "trial_type": "single-stim", "word": "bunny", "stimulus": "<p id=\"stim\">BUNNY</p>", "conditions": [18, 1200, "v", 18000], "internal_node_id": "0.0-54.0", "trial": 1, "time_elapsed": 423943, "serialpos": 17, "key_press": -1, "wordID": 197, "type": "PRES_VIS", "trial_index": 72}, "uniqueid": "MTK2271:3LQ8PUHQFMZQYZ8OBWVV8RJIFXKIHB", "dateTime": 1516908184965}, {"current_trial": 73, "trialdata": {"rt": -1, "trial_type": "single-stim", "stimulus": "", "internal_node_id": "0.0-55.0-0.0", "time_elapsed": 426347, "key_press": -1, "type": "PRE_RECALL_DELAY", "trial_index": 73}, "uniqueid": "MTK2271:3LQ8PUHQFMZQYZ8OBWVV8RJIFXKIHB", "dateTime": 1516908187369}, {"current_trial": 74, "trialdata": {"rt": -1000, "trial_type": "single-audio", "stimulus": "/static/audio/400Hz.wav", "internal_node_id": "0.0-56.0", "time_elapsed": 426849, "key_press": -1, "type": "PRE_RECALL_ALERT", "trial_index": 74}, "uniqueid": "MTK2271:3LQ8PUHQFMZQYZ8OBWVV8RJIFXKIHB", "dateTime": 1516908187871}, {"current_trial": 75, "trialdata": {"rt": [2287, 4111, 6721, 8721, 10994, 13126, 15228, 17112, 23392, 26965, 45991, 47277], "recwords": ["daughter", "bunny", "catcher", "bubble", "lipstick", "seagull", "swamp", "rebel", "easter", "", "hiker", "wife"], "key_times": [954, 1006, 1170, 1315, 1486, 1587, 1712, 1888, 1962, 2287, 2631, 2987, 3259, 3482, 3626, 3691, 4111, 5291, 5347, 5509, 5731, 6300, 6424, 6503, 6593, 6721, 7479, 7637, 7919, 8032, 8184, 8278, 8416, 8721, 9075, 9200, 9423, 9643, 9732, 10430, 10547, 10696, 10775, 10994, 11599, 11694, 11900, 12049, 12315, 12489, 12748, 12906, 13126, 13514, 14003, 14073, 14259, 14414, 14510, 14720, 15228, 15635, 15717, 15918, 16379, 16629, 16768, 17112, 22480, 22532, 22714, 22801, 23071, 23204, 23278, 23392, 26965, 45119, 45524, 45702, 45790, 45882, 45991, 46723, 46813, 46954, 47179, 47277], "trial_type": "free-recall", "conditions": [18, 1200, "v", 18000], "internal_node_id": "0.0-57.0-0.0", "key_presses": [16, 68, 65, 85, 71, 72, 84, 69, 82, 13, 16, 66, 85, 78, 78, 89, 13, 16, 67, 65, 84, 67, 72, 69, 82, 13, 16, 66, 85, 66, 66, 76, 69, 13, 16, 76, 73, 80, 83, 84, 73, 67, 75, 13, 16, 83, 69, 65, 71, 85, 76, 76, 13, 16, 16, 83, 87, 65, 77, 80, 13, 16, 82, 69, 66, 69, 76, 13, 16, 69, 65, 83, 84, 69, 82, 13, 13, 72, 73, 75, 69, 82, 13, 87, 73, 70, 69, 13], "trial": 1, "time_elapsed": 486852, "type": "FREE_RECALL", "trial_index": 75}, "uniqueid": "MTK2271:3LQ8PUHQFMZQYZ8OBWVV8RJIFXKIHB", "dateTime": 1516908247876}, {"current_trial": 76, "trialdata": {"rt": 16855, "trial_type": "text", "internal_node_id": "0.0-58.0", "time_elapsed": 505711, "key_press": 32, "type": "INSTRUCTIONS", "trial_index": 76}, "uniqueid": "MTK2271:3LQ8PUHQFMZQYZ8OBWVV8RJIFXKIHB", "dateTime": 1516908266733}, {"current_trial": 77, "trialdata": {"rt": [4299, 8457, 11043, 14654, 17556, 20100, 23079], "trial_type": "math-distractor", "key_times": [3827, 4168, 4299, 7391, 7685, 8106, 8263, 8457, 10556, 10951, 11043, 14453, 14547, 14654, 17280, 17439, 17556, 19899, 19985, 20100, 22454, 22678, 23079], "responses": ["16", "15", "15", "23", "13", "21", "10"], "num2": [1, 9, 2, 8, 9, 8, 5, 2], "num3": [8, 2, 8, 7, 2, 3, 3, 9], "conditions": [24, 800, "v", 24000], "internal_node_id": "0.0-59.0", "key_presses": [49, 54, 13, 49, 54, 8, 53, 13, 49, 53, 13, 50, 51, 13, 49, 51, 13, 50, 49, 13, 49, 48, 13], "trial": 2, "time_elapsed": 530714, "type": "DISTRACTOR", "trial_index": 77, "num1": [7, 4, 5, 8, 2, 8, 2, 3]}, "uniqueid": "MTK2271:3LQ8PUHQFMZQYZ8OBWVV8RJIFXKIHB", "dateTime": 1516908291736}, {"current_trial": 78, "trialdata": {"rt": -1, "trial_type": "single-stim", "stimulus": "<p id=\"stim\">10</p>", "internal_node_id": "0.0-60.0-0.0", "time_elapsed": 533715, "key_press": -1, "trial_index": 78}, "uniqueid": "MTK2271:3LQ8PUHQFMZQYZ8OBWVV8RJIFXKIHB", "dateTime": 1516908294737}, {"current_trial": 79, "trialdata": {"rt": -1, "trial_type": "single-stim", "stimulus": "<p id=\"stim\">9</p>", "internal_node_id": "0.0-60.0-1.0", "time_elapsed": 534717, "key_press": -1, "trial_index": 79}, "uniqueid": "MTK2271:3LQ8PUHQFMZQYZ8OBWVV8RJIFXKIHB", "dateTime": 1516908295739}, {"current_trial": 80, "trialdata": {"rt": -1, "trial_type": "single-stim", "stimulus": "<p id=\"stim\">8</p>", "internal_node_id": "0.0-60.0-2.0", "time_elapsed": 535717, "key_press": -1, "trial_index": 80}, "uniqueid": "MTK2271:3LQ8PUHQFMZQYZ8OBWVV8RJIFXKIHB", "dateTime": 1516908296739}, {"current_trial": 81, "trialdata": {"rt": -1, "trial_type": "single-stim", "stimulus": "<p id=\"stim\">7</p>", "internal_node_id": "0.0-60.0-3.0", "time_elapsed": 536718, "key_press": -1, "trial_index": 81}, "uniqueid": "MTK2271:3LQ8PUHQFMZQYZ8OBWVV8RJIFXKIHB", "dateTime": 1516908297740}, {"current_trial": 82, "trialdata": {"rt": -1, "trial_type": "single-stim", "stimulus": "<p id=\"stim\">6</p>", "internal_node_id": "0.0-60.0-4.0", "time_elapsed": 537719, "key_press": -1, "trial_index": 82}, "uniqueid": "MTK2271:3LQ8PUHQFMZQYZ8OBWVV8RJIFXKIHB", "dateTime": 1516908298741}, {"current_trial": 83, "trialdata": {"rt": -1, "trial_type": "single-stim", "stimulus": "<p id=\"stim\">5</p>", "internal_node_id": "0.0-60.0-5.0", "time_elapsed": 538720, "key_press": -1, "trial_index": 83}, "uniqueid": "MTK2271:3LQ8PUHQFMZQYZ8OBWVV8RJIFXKIHB", "dateTime": 1516908299742}, {"current_trial": 84, "trialdata": {"rt": -1, "trial_type": "single-stim", "stimulus": "<p id=\"stim\">4</p>", "internal_node_id": "0.0-60.0-6.0", "time_elapsed": 539721, "key_press": -1, "trial_index": 84}, "uniqueid": "MTK2271:3LQ8PUHQFMZQYZ8OBWVV8RJIFXKIHB", "dateTime": 1516908300743}, {"current_trial": 85, "trialdata": {"rt": -1, "trial_type": "single-stim", "stimulus": "<p id=\"stim\">3</p>", "internal_node_id": "0.0-60.0-7.0", "time_elapsed": 540721, "key_press": -1, "trial_index": 85}, "uniqueid": "MTK2271:3LQ8PUHQFMZQYZ8OBWVV8RJIFXKIHB", "dateTime": 1516908301743}, {"current_trial": 86, "trialdata": {"rt": -1, "trial_type": "single-stim", "stimulus": "<p id=\"stim\">2</p>", "internal_node_id": "0.0-60.0-8.0", "time_elapsed": 541724, "key_press": -1, "trial_index": 86}, "uniqueid": "MTK2271:3LQ8PUHQFMZQYZ8OBWVV8RJIFXKIHB", "dateTime": 1516908302746}, {"current_trial": 87, "trialdata": {"rt": -1, "trial_type": "single-stim", "stimulus": "<p id=\"stim\">1</p>", "internal_node_id": "0.0-60.0-9.0", "time_elapsed": 542726, "key_press": -1, "trial_index": 87}, "uniqueid": "MTK2271:3LQ8PUHQFMZQYZ8OBWVV8RJIFXKIHB", "dateTime": 1516908303748}, {"current_trial": 88, "trialdata": {"rt": -1, "trial_type": "single-stim", "stimulus": "<p id=\"stim\">+</p>", "internal_node_id": "0.0-61.0-0.0", "time_elapsed": 544228, "key_press": -1, "type": "FIXATION", "trial_index": 88}, "uniqueid": "MTK2271:3LQ8PUHQFMZQYZ8OBWVV8RJIFXKIHB", "dateTime": 1516908305250}, {"current_trial": 89, "trialdata": {"rt": -1, "trial_type": "single-stim", "word": "scissors", "stimulus": "<p id=\"stim\">SCISSORS</p>", "conditions": [24, 800, "v", 24000], "internal_node_id": "0.0-62.0", "trial": 2, "time_elapsed": 545029, "serialpos": 0, "key_press": -1, "wordID": 1249, "type": "PRES_VIS", "trial_index": 89}, "uniqueid": "MTK2271:3LQ8PUHQFMZQYZ8OBWVV8RJIFXKIHB", "dateTime": 1516908306051}, {"current_trial": 90, "trialdata": {"rt": -1, "trial_type": "single-stim", "word": "human", "stimulus": "<p id=\"stim\">HUMAN</p>", "conditions": [24, 800, "v", 24000], "internal_node_id": "0.0-63.0", "trial": 2, "time_elapsed": 546734, "serialpos": 1, "key_press": -1, "wordID": 725, "type": "PRES_VIS", "trial_index": 90}, "uniqueid": "MTK2271:3LQ8PUHQFMZQYZ8OBWVV8RJIFXKIHB", "dateTime": 1516908307756}, {"current_trial": 91, "trialdata": {"rt": -1, "trial_type": "single-stim", "word": "cod", "stimulus": "<p id=\"stim\">COD</p>", "conditions": [24, 800, "v", 24000], "internal_node_id": "0.0-64.0", "trial": 2, "time_elapsed": 548670, "serialpos": 2, "key_press": -1, "wordID": 339, "type": "PRES_VIS", "trial_index": 91}, "uniqueid": "MTK2271:3LQ8PUHQFMZQYZ8OBWVV8RJIFXKIHB", "dateTime": 1516908309692}, {"current_trial": 92, "trialdata": {"rt": -1, "trial_type": "single-stim", "word": "butcher", "stimulus": "<p id=\"stim\">BUTCHER</p>", "conditions": [24, 800, "v", 24000], "internal_node_id": "0.0-65.0", "trial": 2, "time_elapsed": 550359, "serialpos": 3, "key_press": -1, "wordID": 202, "type": "PRES_VIS", "trial_index": 92}, "uniqueid": "MTK2271:3LQ8PUHQFMZQYZ8OBWVV8RJIFXKIHB", "dateTime": 1516908311381}, {"current_trial": 93, "trialdata": {"rt": -1, "trial_type": "single-stim", "word": "salad", "stimulus": "<p id=\"stim\">SALAD</p>", "conditions": [24, 800, "v", 24000], "internal_node_id": "0.0-66.0", "trial": 2, "time_elapsed": 552015, "serialpos": 4, "key_press": -1, "wordID": 1223, "type": "PRES_VIS", "trial_index": 93}, "uniqueid": "MTK2271:3LQ8PUHQFMZQYZ8OBWVV8RJIFXKIHB", "dateTime": 1516908313037}, {"current_trial": 94, "trialdata": {"rt": -1, "trial_type": "single-stim", "word": "hamper", "stimulus": "<p id=\"stim\">HAMPER</p>", "conditions": [24, 800, "v", 24000], "internal_node_id": "0.0-67.0", "trial": 2, "time_elapsed": 553618, "serialpos": 5, "key_press": -1, "wordID": 681, "type": "PRES_VIS", "trial_index": 94}, "uniqueid": "MTK2271:3LQ8PUHQFMZQYZ8OBWVV8RJIFXKIHB", "dateTime": 1516908314640}, {"current_trial": 95, "trialdata": {"rt": -1, "trial_type": "single-stim", "word": "cattle", "stimulus": "<p id=\"stim\">CATTLE</p>", "conditions": [24, 800, "v", 24000], "internal_node_id": "0.0-68.0", "trial": 2, "time_elapsed": 555436, "serialpos": 6, "key_press": -1, "wordID": 260, "type": "PRES_VIS", "trial_index": 95}, "uniqueid": "MTK2271:3LQ8PUHQFMZQYZ8OBWVV8RJIFXKIHB", "dateTime": 1516908316458}, {"current_trial": 96, "trialdata": {"rt": -1, "trial_type": "single-stim", "word": "tweezers", "stimulus": "<p id=\"stim\">TWEEZERS</p>", "conditions": [24, 800, "v", 24000], "internal_node_id": "0.0-69.0", "trial": 2, "time_elapsed": 557267, "serialpos": 7, "key_press": -1, "wordID": 1525, "type": "PRES_VIS", "trial_index": 96}, "uniqueid": "MTK2271:3LQ8PUHQFMZQYZ8OBWVV8RJIFXKIHB", "dateTime": 1516908318289}, {"current_trial": 97, "trialdata": {"rt": -1, "trial_type": "single-stim", "word": "peach", "stimulus": "<p id=\"stim\">PEACH</p>", "conditions": [24, 800, "v", 24000], "internal_node_id": "0.0-70.0", "trial": 2, "time_elapsed": 559257, "serialpos": 8, "key_press": -1, "wordID": 1030, "type": "PRES_VIS", "trial_index": 97}, "uniqueid": "MTK2271:3LQ8PUHQFMZQYZ8OBWVV8RJIFXKIHB", "dateTime": 1516908320279}, {"current_trial": 98, "trialdata": {"rt": -1, "trial_type": "single-stim", "word": "camel", "stimulus": "<p id=\"stim\">CAMEL</p>", "conditions": [24, 800, "v", 24000], "internal_node_id": "0.0-71.0", "trial": 2, "time_elapsed": 561094, "serialpos": 9, "key_press": -1, "wordID": 222, "type": "PRES_VIS", "trial_index": 98}, "uniqueid": "MTK2271:3LQ8PUHQFMZQYZ8OBWVV8RJIFXKIHB", "dateTime": 1516908322116}, {"current_trial": 99, "trialdata": {"rt": -1, "trial_type": "single-stim", "word": "child", "stimulus": "<p id=\"stim\">CHILD</p>", "conditions": [24, 800, "v", 24000], "internal_node_id": "0.0-72.0", "trial": 2, "time_elapsed": 562958, "serialpos": 10, "key_press": -1, "wordID": 298, "type": "PRES_VIS", "trial_index": 99}, "uniqueid": "MTK2271:3LQ8PUHQFMZQYZ8OBWVV8RJIFXKIHB", "dateTime": 1516908323980}, {"current_trial": 100, "trialdata": {"rt": -1, "trial_type": "single-stim", "word": "infant", "stimulus": "<p id=\"stim\">INFANT</p>", "conditions": [24, 800, "v", 24000], "internal_node_id": "0.0-73.0", "trial": 2, "time_elapsed": 564669, "serialpos": 11, "key_press": -1, "wordID": 736, "type": "PRES_VIS", "trial_index": 100}, "uniqueid": "MTK2271:3LQ8PUHQFMZQYZ8OBWVV8RJIFXKIHB", "dateTime": 1516908325691}, {"current_trial": 101, "trialdata": {"rt": -1, "trial_type": "single-stim", "word": "crab", "stimulus": "<p id=\"stim\">CRAB</p>", "conditions": [24, 800, "v", 24000], "internal_node_id": "0.0-74.0", "trial": 2, "time_elapsed": 566585, "serialpos": 12, "key_press": -1, "wordID": 396, "type": "PRES_VIS", "trial_index": 101}, "uniqueid": "MTK2271:3LQ8PUHQFMZQYZ8OBWVV8RJIFXKIHB", "dateTime": 1516908327607}, {"current_trial": 102, "trialdata": {"rt": -1, "trial_type": "single-stim", "word": "daisy", "stimulus": "<p id=\"stim\">DAISY</p>", "conditions": [24, 800, "v", 24000], "internal_node_id": "0.0-75.0", "trial": 2, "time_elapsed": 568469, "serialpos": 13, "key_press": -1, "wordID": 434, "type": "PRES_VIS", "trial_index": 102}, "uniqueid": "MTK2271:3LQ8PUHQFMZQYZ8OBWVV8RJIFXKIHB", "dateTime": 1516908329491}, {"current_trial": 103, "trialdata": {"rt": -1, "trial_type": "single-stim", "word": "leg", "stimulus": "<p id=\"stim\">LEG</p>", "conditions": [24, 800, "v", 24000], "internal_node_id": "0.0-76.0", "trial": 2, "time_elapsed": 570299, "serialpos": 14, "key_press": -1, "wordID": 808, "type": "PRES_VIS", "trial_index": 103}, "uniqueid": "MTK2271:3LQ8PUHQFMZQYZ8OBWVV8RJIFXKIHB", "dateTime": 1516908331321}, {"current_trial": 104, "trialdata": {"rt": -1, "trial_type": "single-stim", "word": "ulcer", "stimulus": "<p id=\"stim\">ULCER</p>", "conditions": [24, 800, "v", 24000], "internal_node_id": "0.0-77.0", "trial": 2, "time_elapsed": 572152, "serialpos": 15, "key_press": -1, "wordID": 1532, "type": "PRES_VIS", "trial_index": 104}, "uniqueid": "MTK2271:3LQ8PUHQFMZQYZ8OBWVV8RJIFXKIHB", "dateTime": 1516908333174}, {"current_trial": 105, "trialdata": {"rt": -1, "trial_type": "single-stim", "word": "wasp", "stimulus": "<p id=\"stim\">WASP</p>", "conditions": [24, 800, "v", 24000], "internal_node_id": "0.0-78.0", "trial": 2, "time_elapsed": 573772, "serialpos": 16, "key_press": -1, "wordID": 1592, "type": "PRES_VIS", "trial_index": 105}, "uniqueid": "MTK2271:3LQ8PUHQFMZQYZ8OBWVV8RJIFXKIHB", "dateTime": 1516908334794}, {"current_trial": 106, "trialdata": {"rt": -1, "trial_type": "single-stim", "word": "primate", "stimulus": "<p id=\"stim\">PRIMATE</p>", "conditions": [24, 800, "v", 24000], "internal_node_id": "0.0-79.0", "trial": 2, "time_elapsed": 575524, "serialpos": 17, "key_press": -1, "wordID": 1122, "type": "PRES_VIS", "trial_index": 106}, "uniqueid": "MTK2271:3LQ8PUHQFMZQYZ8OBWVV8RJIFXKIHB", "dateTime": 1516908336546}, {"current_trial": 107, "trialdata": {"rt": -1, "trial_type": "single-stim", "word": "salmon", "stimulus": "<p id=\"stim\">SALMON</p>", "conditions": [24, 800, "v", 24000], "internal_node_id": "0.0-80.0", "trial": 2, "time_elapsed": 577166, "serialpos": 18, "key_press": -1, "wordID": 1226, "type": "PRES_VIS", "trial_index": 107}, "uniqueid": "MTK2271:3LQ8PUHQFMZQYZ8OBWVV8RJIFXKIHB", "dateTime": 1516908338188}, {"current_trial": 108, "trialdata": {"rt": -1, "trial_type": "single-stim", "word": "woman", "stimulus": "<p id=\"stim\">WOMAN</p>", "conditions": [24, 800, "v", 24000], "internal_node_id": "0.0-81.0", "trial": 2, "time_elapsed": 579118, "serialpos": 19, "key_press": -1, "wordID": 1619, "type": "PRES_VIS", "trial_index": 108}, "uniqueid": "MTK2271:3LQ8PUHQFMZQYZ8OBWVV8RJIFXKIHB", "dateTime": 1516908340140}, {"current_trial": 109, "trialdata": {"rt": -1, "trial_type": "single-stim", "word": "gallon", "stimulus": "<p id=\"stim\">GALLON</p>", "conditions": [24, 800, "v", 24000], "internal_node_id": "0.0-82.0", "trial": 2, "time_elapsed": 580736, "serialpos": 20, "key_press": -1, "wordID": 617, "type": "PRES_VIS", "trial_index": 109}, "uniqueid": "MTK2271:3LQ8PUHQFMZQYZ8OBWVV8RJIFXKIHB", "dateTime": 1516908341758}, {"current_trial": 110, "trialdata": {"rt": -1, "trial_type": "single-stim", "word": "barrel", "stimulus": "<p id=\"stim\">BARREL</p>", "conditions": [24, 800, "v", 24000], "internal_node_id": "0.0-83.0", "trial": 2, "time_elapsed": 582619, "serialpos": 21, "key_press": -1, "wordID": 90, "type": "PRES_VIS", "trial_index": 110}, "uniqueid": "MTK2271:3LQ8PUHQFMZQYZ8OBWVV8RJIFXKIHB", "dateTime": 1516908343641}, {"current_trial": 111, "trialdata": {"rt": -1, "trial_type": "single-stim", "word": "treat", "stimulus": "<p id=\"stim\">TREAT</p>", "conditions": [24, 800, "v", 24000], "internal_node_id": "0.0-84.0", "trial": 2, "time_elapsed": 584474, "serialpos": 22, "key_press": -1, "wordID": 1500, "type": "PRES_VIS", "trial_index": 111}, "uniqueid": "MTK2271:3LQ8PUHQFMZQYZ8OBWVV8RJIFXKIHB", "dateTime": 1516908345496}, {"current_trial": 112, "trialdata": {"rt": -1, "trial_type": "single-stim", "word": "powder", "stimulus": "<p id=\"stim\">POWDER</p>", "conditions": [24, 800, "v", 24000], "internal_node_id": "0.0-85.0", "trial": 2, "time_elapsed": 586194, "serialpos": 23, "key_press": -1, "wordID": 1116, "type": "PRES_VIS", "trial_index": 112}, "uniqueid": "MTK2271:3LQ8PUHQFMZQYZ8OBWVV8RJIFXKIHB", "dateTime": 1516908347216}, {"current_trial": 113, "trialdata": {"rt": -1, "trial_type": "single-stim", "stimulus": "", "internal_node_id": "0.0-86.0-0.0", "time_elapsed": 588316, "key_press": -1, "type": "PRE_RECALL_DELAY", "trial_index": 113}, "uniqueid": "MTK2271:3LQ8PUHQFMZQYZ8OBWVV8RJIFXKIHB", "dateTime": 1516908349338}, {"current_trial": 114, "trialdata": {"rt": -1000, "trial_type": "single-audio", "stimulus": "/static/audio/400Hz.wav", "internal_node_id": "0.0-87.0", "time_elapsed": 588817, "key_press": -1, "type": "PRE_RECALL_ALERT", "trial_index": 114}, "uniqueid": "MTK2271:3LQ8PUHQFMZQYZ8OBWVV8RJIFXKIHB", "dateTime": 1516908349839}, {"current_trial": 115, "trialdata": {"rt": [3739, 5537, 8258, 10191, 11860, 15747, 22869, 27663, 33907, 35725, 37178, 40901, 42242, 43779], "recwords": ["scissors", "human", "cattle", "barrel", "gallon", "tweezers", "powder", "human", "cod", "butcher", "salad", "baby", "child", "infant"], "key_times": [1985, 2058, 2254, 2373, 2530, 2707, 2798, 3046, 3251, 3739, 4445, 4653, 4863, 5065, 5174, 5245, 5537, 6663, 6850, 7028, 7269, 7420, 7505, 7637, 8258, 8787, 9025, 9245, 9470, 9621, 9760, 9867, 10191, 10556, 10650, 10868, 10980, 11131, 11284, 11497, 11860, 13600, 13761, 14061, 14285, 14413, 15041, 15288, 15445, 15640, 15747, 21615, 21740, 21947, 22195, 22393, 22660, 22742, 22869, 26769, 26819, 27027, 27239, 27302, 27411, 27663, 33046, 33134, 33364, 33475, 33907, 34242, 34338, 34584, 34692, 35295, 35383, 35488, 35575, 35725, 36050, 36161, 36290, 36681, 36775, 36978, 37178, 39828, 39934, 40171, 40481, 40742, 40901, 41372, 41439, 41685, 41767, 41964, 42051, 42242, 42606, 42801, 43060, 43124, 43395, 43498, 43652, 43779], "trial_type": "free-recall", "conditions": [24, 800, "v", 24000], "internal_node_id": "0.0-88.0-0.0", "key_presses": [16, 83, 67, 73, 83, 83, 79, 82, 83, 13, 16, 72, 85, 77, 65, 78, 13, 16, 67, 65, 84, 84, 76, 69, 13, 16, 66, 65, 82, 82, 69, 76, 13, 16, 71, 65, 76, 76, 79, 78, 13, 16, 84, 87, 69, 69, 90, 69, 82, 83, 13, 16, 80, 79, 87, 68, 69, 82, 13, 16, 72, 85, 77, 65, 78, 13, 16, 67, 79, 68, 13, 16, 66, 85, 84, 67, 72, 69, 82, 13, 16, 83, 65, 76, 65, 68, 13, 16, 66, 65, 66, 89, 13, 16, 67, 72, 73, 76, 68, 13, 16, 73, 78, 70, 65, 78, 84, 13], "trial": 2, "time_elapsed": 648819, "type": "FREE_RECALL", "trial_index": 115}, "uniqueid": "MTK2271:3LQ8PUHQFMZQYZ8OBWVV8RJIFXKIHB", "dateTime": 1516908409843}, {"current_trial": 116, "trialdata": {"rt": 51635, "trial_type": "text", "internal_node_id": "0.0-89.0", "time_elapsed": 702459, "key_press": 32, "type": "INSTRUCTIONS", "trial_index": 116}, "uniqueid": "MTK2271:3LQ8PUHQFMZQYZ8OBWVV8RJIFXKIHB", "dateTime": 1516908463481}, {"current_trial": 117, "trialdata": {"rt": [4025, 6071, 8086, 10206, 12158, 15140, 19489, 22186], "trial_type": "math-distractor", "key_times": [2466, 2798, 3332, 3765, 4025, 5993, 6071, 7999, 8086, 9779, 10125, 10206, 11674, 12075, 12158, 14818, 15054, 15140, 19135, 19355, 19489, 21839, 22094, 22186], "responses": ["17", "7", "9", "16", "16", "14", "24", "15"], "num2": [9, 2, 6, 6, 3, 1, 6, 1, 9], "num3": [2, 1, 1, 7, 6, 5, 9, 6, 5], "conditions": [12, 1600, "v", 24000], "internal_node_id": "0.0-90.0", "key_presses": [49, 53, 8, 55, 13, 55, 13, 57, 13, 49, 54, 13, 49, 54, 13, 49, 52, 13, 50, 52, 13, 49, 53, 13], "trial": 3, "time_elapsed": 728461, "type": "DISTRACTOR", "trial_index": 117, "num1": [6, 4, 2, 3, 7, 8, 9, 8, 4]}, "uniqueid": "MTK2271:3LQ8PUHQFMZQYZ8OBWVV8RJIFXKIHB", "dateTime": 1516908489483}, {"current_trial": 118, "trialdata": {"rt": -1, "trial_type": "single-stim", "stimulus": "<p id=\"stim\">10</p>", "internal_node_id": "0.0-91.0-0.0", "time_elapsed": 731462, "key_press": -1, "trial_index": 118}, "uniqueid": "MTK2271:3LQ8PUHQFMZQYZ8OBWVV8RJIFXKIHB", "dateTime": 1516908492484}, {"current_trial": 119, "trialdata": {"rt": -1, "trial_type": "single-stim", "stimulus": "<p id=\"stim\">9</p>", "internal_node_id": "0.0-91.0-1.0", "time_elapsed": 732463, "key_press": -1, "trial_index": 119}, "uniqueid": "MTK2271:3LQ8PUHQFMZQYZ8OBWVV8RJIFXKIHB", "dateTime": 1516908493485}, {"current_trial": 120, "trialdata": {"rt": -1, "trial_type": "single-stim", "stimulus": "<p id=\"stim\">8</p>", "internal_node_id": "0.0-91.0-2.0", "time_elapsed": 733465, "key_press": -1, "trial_index": 120}, "uniqueid": "MTK2271:3LQ8PUHQFMZQYZ8OBWVV8RJIFXKIHB", "dateTime": 1516908494487}, {"current_trial": 121, "trialdata": {"rt": -1, "trial_type": "single-stim", "stimulus": "<p id=\"stim\">7</p>", "internal_node_id": "0.0-91.0-3.0", "time_elapsed": 734466, "key_press": -1, "trial_index": 121}, "uniqueid": "MTK2271:3LQ8PUHQFMZQYZ8OBWVV8RJIFXKIHB", "dateTime": 1516908495488}, {"current_trial": 122, "trialdata": {"rt": -1, "trial_type": "single-stim", "stimulus": "<p id=\"stim\">6</p>", "internal_node_id": "0.0-91.0-4.0", "time_elapsed": 735467, "key_press": -1, "trial_index": 122}, "uniqueid": "MTK2271:3LQ8PUHQFMZQYZ8OBWVV8RJIFXKIHB", "dateTime": 1516908496489}, {"current_trial": 123, "trialdata": {"rt": -1, "trial_type": "single-stim", "stimulus": "<p id=\"stim\">5</p>", "internal_node_id": "0.0-91.0-5.0", "time_elapsed": 736468, "key_press": -1, "trial_index": 123}, "uniqueid": "MTK2271:3LQ8PUHQFMZQYZ8OBWVV8RJIFXKIHB", "dateTime": 1516908497490}, {"current_trial": 124, "trialdata": {"rt": -1, "trial_type": "single-stim", "stimulus": "<p id=\"stim\">4</p>", "internal_node_id": "0.0-91.0-6.0", "time_elapsed": 737469, "key_press": -1, "trial_index": 124}, "uniqueid": "MTK2271:3LQ8PUHQFMZQYZ8OBWVV8RJIFXKIHB", "dateTime": 1516908498491}, {"current_trial": 125, "trialdata": {"rt": -1, "trial_type": "single-stim", "stimulus": "<p id=\"stim\">3</p>", "internal_node_id": "0.0-91.0-7.0", "time_elapsed": 738470, "key_press": -1, "trial_index": 125}, "uniqueid": "MTK2271:3LQ8PUHQFMZQYZ8OBWVV8RJIFXKIHB", "dateTime": 1516908499492}, {"current_trial": 126, "trialdata": {"rt": -1, "trial_type": "single-stim", "stimulus": "<p id=\"stim\">2</p>", "internal_node_id": "0.0-91.0-8.0", "time_elapsed": 739471, "key_press": -1, "trial_index": 126}, "uniqueid": "MTK2271:3LQ8PUHQFMZQYZ8OBWVV8RJIFXKIHB", "dateTime": 1516908500493}, {"current_trial": 127, "trialdata": {"rt": -1, "trial_type": "single-stim", "stimulus": "<p id=\"stim\">1</p>", "internal_node_id": "0.0-91.0-9.0", "time_elapsed": 740473, "key_press": -1, "trial_index": 127}, "uniqueid": "MTK2271:3LQ8PUHQFMZQYZ8OBWVV8RJIFXKIHB", "dateTime": 1516908501495}, {"current_trial": 128, "trialdata": {"rt": -1, "trial_type": "single-stim", "stimulus": "<p id=\"stim\">+</p>", "internal_node_id": "0.0-92.0-0.0", "time_elapsed": 741974, "key_press": -1, "type": "FIXATION", "trial_index": 128}, "uniqueid": "MTK2271:3LQ8PUHQFMZQYZ8OBWVV8RJIFXKIHB", "dateTime": 1516908502996}, {"current_trial": 129, "trialdata": {"rt": -1, "trial_type": "single-stim", "word": "actor", "stimulus": "<p id=\"stim\">ACTOR</p>", "conditions": [12, 1600, "v", 24000], "internal_node_id": "0.0-93.0", "trial": 3, "time_elapsed": 743575, "serialpos": 0, "key_press": -1, "wordID": 4, "type": "PRES_VIS", "trial_index": 129}, "uniqueid": "MTK2271:3LQ8PUHQFMZQYZ8OBWVV8RJIFXKIHB", "dateTime": 1516908504598}, {"current_trial": 130, "trialdata": {"rt": -1, "trial_type": "single-stim", "word": "actress", "stimulus": "<p id=\"stim\">ACTRESS</p>", "conditions": [12, 1600, "v", 24000], "internal_node_id": "0.0-94.0", "trial": 3, "time_elapsed": 746274, "serialpos": 1, "key_press": -1, "wordID": 5, "type": "PRES_VIS", "trial_index": 130}, "uniqueid": "MTK2271:3LQ8PUHQFMZQYZ8OBWVV8RJIFXKIHB", "dateTime": 1516908507296}, {"current_trial": 131, "trialdata": {"rt": -1, "trial_type": "single-stim", "word": "beaver", "stimulus": "<p id=\"stim\">BEAVER</p>", "conditions": [12, 1600, "v", 24000], "internal_node_id": "0.0-95.0", "trial": 3, "time_elapsed": 748923, "serialpos": 2, "key_press": -1, "wordID": 108, "type": "PRES_VIS", "trial_index": 131}, "uniqueid": "MTK2271:3LQ8PUHQFMZQYZ8OBWVV8RJIFXKIHB", "dateTime": 1516908509945}, {"current_trial": 132, "trialdata": {"rt": -1, "trial_type": "single-stim", "word": "chemist", "stimulus": "<p id=\"stim\">CHEMIST</p>", "conditions": [12, 1600, "v", 24000], "internal_node_id": "0.0-96.0", "trial": 3, "time_elapsed": 751396, "serialpos": 3, "key_press": -1, "wordID": 291, "type": "PRES_VIS", "trial_index": 132}, "uniqueid": "MTK2271:3LQ8PUHQFMZQYZ8OBWVV8RJIFXKIHB", "dateTime": 1516908512419}, {"current_trial": 133, "trialdata": {"rt": -1, "trial_type": "single-stim", "word": "pigeon", "stimulus": "<p id=\"stim\">PIGEON</p>", "conditions": [12, 1600, "v", 24000], "internal_node_id": "0.0-97.0", "trial": 3, "time_elapsed": 754058, "serialpos": 4, "key_press": -1, "wordID": 1064, "type": "PRES_VIS", "trial_index": 133}, "uniqueid": "MTK2271:3LQ8PUHQFMZQYZ8OBWVV8RJIFXKIHB", "dateTime": 1516908515080}, {"current_trial": 134, "trialdata": {"rt": -1, "trial_type": "single-stim", "word": "portrait", "stimulus": "<p id=\"stim\">PORTRAIT</p>", "conditions": [12, 1600, "v", 24000], "internal_node_id": "0.0-98.0", "trial": 3, "time_elapsed": 756800, "serialpos": 5, "key_press": -1, "wordID": 1110, "type": "PRES_VIS", "trial_index": 134}, "uniqueid": "MTK2271:3LQ8PUHQFMZQYZ8OBWVV8RJIFXKIHB", "dateTime": 1516908517822}, {"current_trial": 135, "trialdata": {"rt": -1, "trial_type": "single-stim", "word": "clam", "stimulus": "<p id=\"stim\">CLAM</p>", "conditions": [12, 1600, "v", 24000], "internal_node_id": "0.0-99.0", "trial": 3, "time_elapsed": 759278, "serialpos": 6, "key_press": -1, "wordID": 314, "type": "PRES_VIS", "trial_index": 135}, "uniqueid": "MTK2271:3LQ8PUHQFMZQYZ8OBWVV8RJIFXKIHB", "dateTime": 1516908520300}, {"current_trial": 136, "trialdata": {"rt": -1, "trial_type": "single-stim", "word": "chipmunk", "stimulus": "<p id=\"stim\">CHIPMUNK</p>", "conditions": [12, 1600, "v", 24000], "internal_node_id": "0.0-100.0", "trial": 3, "time_elapsed": 761849, "serialpos": 7, "key_press": -1, "wordID": 303, "type": "PRES_VIS", "trial_index": 136}, "uniqueid": "MTK2271:3LQ8PUHQFMZQYZ8OBWVV8RJIFXKIHB", "dateTime": 1516908522871}, {"current_trial": 137, "trialdata": {"rt": -1, "trial_type": "single-stim", "word": "sponge", "stimulus": "<p id=\"stim\">SPONGE</p>", "conditions": [12, 1600, "v", 24000], "internal_node_id": "0.0-101.0", "trial": 3, "time_elapsed": 764529, "serialpos": 8, "key_press": -1, "wordID": 1354, "type": "PRES_VIS", "trial_index": 137}, "uniqueid": "MTK2271:3LQ8PUHQFMZQYZ8OBWVV8RJIFXKIHB", "dateTime": 1516908525551}, {"current_trial": 138, "trialdata": {"rt": -1, "trial_type": "single-stim", "word": "captive", "stimulus": "<p id=\"stim\">CAPTIVE</p>", "conditions": [12, 1600, "v", 24000], "internal_node_id": "0.0-102.0", "trial": 3, "time_elapsed": 767024, "serialpos": 9, "key_press": -1, "wordID": 239, "type": "PRES_VIS", "trial_index": 138}, "uniqueid": "MTK2271:3LQ8PUHQFMZQYZ8OBWVV8RJIFXKIHB", "dateTime": 1516908528046}, {"current_trial": 139, "trialdata": {"rt": -1, "trial_type": "single-stim", "word": "county", "stimulus": "<p id=\"stim\">COUNTY</p>", "conditions": [12, 1600, "v", 24000], "internal_node_id": "0.0-103.0", "trial": 3, "time_elapsed": 769549, "serialpos": 10, "key_press": -1, "wordID": 388, "type": "PRES_VIS", "trial_index": 139}, "uniqueid": "MTK2271:3LQ8PUHQFMZQYZ8OBWVV8RJIFXKIHB", "dateTime": 1516908530572}, {"current_trial": 140, "trialdata": {"rt": -1, "trial_type": "single-stim", "word": "rabbit", "stimulus": "<p id=\"stim\">RABBIT</p>", "conditions": [12, 1600, "v", 24000], "internal_node_id": "0.0-104.0", "trial": 3, "time_elapsed": 772289, "serialpos": 11, "key_press": -1, "wordID": 1151, "type": "PRES_VIS", "trial_index": 140}, "uniqueid": "MTK2271:3LQ8PUHQFMZQYZ8OBWVV8RJIFXKIHB", "dateTime": 1516908533311}, {"current_trial": 141, "trialdata": {"rt": -1, "trial_type": "single-stim", "stimulus": "", "internal_node_id": "0.0-105.0-0.0", "time_elapsed": 774593, "key_press": -1, "type": "PRE_RECALL_DELAY", "trial_index": 141}, "uniqueid": "MTK2271:3LQ8PUHQFMZQYZ8OBWVV8RJIFXKIHB", "dateTime": 1516908535615}, {"current_trial": 142, "trialdata": {"rt": -1000, "trial_type": "single-audio", "stimulus": "/static/audio/400Hz.wav", "internal_node_id": "0.0-106.0", "time_elapsed": 775095, "key_press": -1, "type": "PRE_RECALL_ALERT", "trial_index": 142}, "uniqueid": "MTK2271:3LQ8PUHQFMZQYZ8OBWVV8RJIFXKIHB", "dateTime": 1516908536117}, {"current_trial": 143, "trialdata": {"rt": [3631, 5918, 9127, 20463, 22323, 24467, 30518, 36109], "recwords": ["actor", "actress", "beaver", "sponge", "county", "rabbit", "chimp", "portrait"], "key_times": [2280, 2347, 2588, 2832, 2951, 3059, 3631, 3966, 4026, 4270, 4526, 4721, 4914, 5555, 5726, 5918, 6352, 6721, 6969, 7175, 7644, 7842, 7926, 9127, 10069, 18517, 18715, 19099, 19408, 19646, 19726, 20321, 20463, 20767, 20843, 21031, 21251, 21425, 21496, 21976, 22323, 22711, 22755, 22973, 23130, 23278, 23469, 23578, 24467, 28717, 28785, 29185, 29420, 29668, 29928, 30518, 32632, 32995, 33043, 33515, 33637, 33819, 34076, 34384, 34835, 35005, 35109, 35378, 35488, 35673, 36109], "trial_type": "free-recall", "conditions": [12, 1600, "v", 24000], "internal_node_id": "0.0-107.0-0.0", "key_presses": [16, 65, 67, 84, 79, 82, 13, 16, 65, 67, 84, 82, 69, 83, 83, 13, 16, 66, 69, 65, 86, 69, 82, 13, 16, 16, 83, 80, 79, 78, 71, 69, 13, 16, 67, 79, 85, 78, 84, 89, 13, 16, 82, 65, 66, 66, 73, 84, 13, 16, 67, 72, 73, 77, 80, 13, 16, 16, 80, 79, 82, 84, 65, 73, 8, 8, 82, 65, 73, 84, 13], "trial": 3, "time_elapsed": 835097, "type": "FREE_RECALL", "trial_index": 143}, "uniqueid": "MTK2271:3LQ8PUHQFMZQYZ8OBWVV8RJIFXKIHB", "dateTime": 1516908596121}, {"current_trial": 144, "trialdata": {"rt": 1669, "trial_type": "text", "internal_node_id": "0.0-108.0", "time_elapsed": 838768, "key_press": 32, "type": "INSTRUCTIONS", "trial_index": 144}, "uniqueid": "MTK2271:3LQ8PUHQFMZQYZ8OBWVV8RJIFXKIHB", "dateTime": 1516908599790}, {"current_trial": 145, "trialdata": {"rt": [2990, 5702, 10270, 13240, 15186, 17255, 20187, 23042], "trial_type": "math-distractor", "key_times": [2243, 2711, 2990, 5141, 5575, 5702, 10070, 10162, 10270, 13065, 13140, 13240, 14824, 15119, 15186, 16767, 17160, 17255, 19696, 20080, 20187, 22834, 22995, 23042], "responses": ["10", "18", "21", "21", "15", "17", "14", "11"], "num2": [1, 5, 5, 8, 6, 7, 5, 4, 3], "num3": [7, 4, 7, 4, 4, 5, 7, 5, 7], "conditions": [12, 1600, "v", 24000], "internal_node_id": "0.0-109.0", "key_presses": [49, 48, 13, 49, 56, 13, 50, 49, 13, 50, 49, 13, 49, 53, 13, 49, 55, 13, 49, 52, 13, 49, 49, 13], "trial": 4, "time_elapsed": 864772, "type": "DISTRACTOR", "trial_index": 145, "num1": [2, 9, 9, 9, 5, 5, 3, 2, 5]}, "uniqueid": "MTK2271:3LQ8PUHQFMZQYZ8OBWVV8RJIFXKIHB", "dateTime": 1516908625794}, {"current_trial": 146, "trialdata": {"rt": -1, "trial_type": "single-stim", "stimulus": "<p id=\"stim\">10</p>", "internal_node_id": "0.0-110.0-0.0", "time_elapsed": 867775, "key_press": -1, "trial_index": 146}, "uniqueid": "MTK2271:3LQ8PUHQFMZQYZ8OBWVV8RJIFXKIHB", "dateTime": 1516908628797}, {"current_trial": 147, "trialdata": {"rt": -1, "trial_type": "single-stim", "stimulus": "<p id=\"stim\">9</p>", "internal_node_id": "0.0-110.0-1.0", "time_elapsed": 868777, "key_press": -1, "trial_index": 147}, "uniqueid": "MTK2271:3LQ8PUHQFMZQYZ8OBWVV8RJIFXKIHB", "dateTime": 1516908629799}, {"current_trial": 148, "trialdata": {"rt": -1, "trial_type": "single-stim", "stimulus": "<p id=\"stim\">8</p>", "internal_node_id": "0.0-110.0-2.0", "time_elapsed": 869778, "key_press": -1, "trial_index": 148}, "uniqueid": "MTK2271:3LQ8PUHQFMZQYZ8OBWVV8RJIFXKIHB", "dateTime": 1516908630800}, {"current_trial": 149, "trialdata": {"rt": -1, "trial_type": "single-stim", "stimulus": "<p id=\"stim\">7</p>", "internal_node_id": "0.0-110.0-3.0", "time_elapsed": 870779, "key_press": -1, "trial_index": 149}, "uniqueid": "MTK2271:3LQ8PUHQFMZQYZ8OBWVV8RJIFXKIHB", "dateTime": 1516908631801}, {"current_trial": 150, "trialdata": {"rt": -1, "trial_type": "single-stim", "stimulus": "<p id=\"stim\">6</p>", "internal_node_id": "0.0-110.0-4.0", "time_elapsed": 871780, "key_press": -1, "trial_index": 150}, "uniqueid": "MTK2271:3LQ8PUHQFMZQYZ8OBWVV8RJIFXKIHB", "dateTime": 1516908632802}, {"current_trial": 151, "trialdata": {"rt": -1, "trial_type": "single-stim", "stimulus": "<p id=\"stim\">5</p>", "internal_node_id": "0.0-110.0-5.0", "time_elapsed": 872781, "key_press": -1, "trial_index": 151}, "uniqueid": "MTK2271:3LQ8PUHQFMZQYZ8OBWVV8RJIFXKIHB", "dateTime": 1516908633803}, {"current_trial": 152, "trialdata": {"rt": -1, "trial_type": "single-stim", "stimulus": "<p id=\"stim\">4</p>", "internal_node_id": "0.0-110.0-6.0", "time_elapsed": 873782, "key_press": -1, "trial_index": 152}, "uniqueid": "MTK2271:3LQ8PUHQFMZQYZ8OBWVV8RJIFXKIHB", "dateTime": 1516908634804}, {"current_trial": 153, "trialdata": {"rt": -1, "trial_type": "single-stim", "stimulus": "<p id=\"stim\">3</p>", "internal_node_id": "0.0-110.0-7.0", "time_elapsed": 874783, "key_press": -1, "trial_index": 153}, "uniqueid": "MTK2271:3LQ8PUHQFMZQYZ8OBWVV8RJIFXKIHB", "dateTime": 1516908635805}, {"current_trial": 154, "trialdata": {"rt": -1, "trial_type": "single-stim", "stimulus": "<p id=\"stim\">2</p>", "internal_node_id": "0.0-110.0-8.0", "time_elapsed": 875784, "key_press": -1, "trial_index": 154}, "uniqueid": "MTK2271:3LQ8PUHQFMZQYZ8OBWVV8RJIFXKIHB", "dateTime": 1516908636806}, {"current_trial": 155, "trialdata": {"rt": -1, "trial_type": "single-stim", "stimulus": "<p id=\"stim\">1</p>", "internal_node_id": "0.0-110.0-9.0", "time_elapsed": 876785, "key_press": -1, "trial_index": 155}, "uniqueid": "MTK2271:3LQ8PUHQFMZQYZ8OBWVV8RJIFXKIHB", "dateTime": 1516908637807}, {"current_trial": 156, "trialdata": {"rt": -1, "trial_type": "single-stim", "stimulus": "<p id=\"stim\">+</p>", "internal_node_id": "0.0-111.0-0.0", "time_elapsed": 878287, "key_press": -1, "type": "FIXATION", "trial_index": 156}, "uniqueid": "MTK2271:3LQ8PUHQFMZQYZ8OBWVV8RJIFXKIHB", "dateTime": 1516908639309}, {"current_trial": 157, "trialdata": {"rt": -1, "trial_type": "single-stim", "word": "beef", "stimulus": "<p id=\"stim\">BEEF</p>", "conditions": [12, 1600, "v", 24000], "internal_node_id": "0.0-112.0", "trial": 4, "time_elapsed": 879887, "serialpos": 0, "key_press": -1, "wordID": 112, "type": "PRES_VIS", "trial_index": 157}, "uniqueid": "MTK2271:3LQ8PUHQFMZQYZ8OBWVV8RJIFXKIHB", "dateTime": 1516908640909}, {"current_trial": 158, "trialdata": {"rt": -1, "trial_type": "single-stim", "word": "valley", "stimulus": "<p id=\"stim\">VALLEY</p>", "conditions": [12, 1600, "v", 24000], "internal_node_id": "0.0-113.0", "trial": 4, "time_elapsed": 882595, "serialpos": 1, "key_press": -1, "wordID": 1544, "type": "PRES_VIS", "trial_index": 158}, "uniqueid": "MTK2271:3LQ8PUHQFMZQYZ8OBWVV8RJIFXKIHB", "dateTime": 1516908643617}, {"current_trial": 159, "trialdata": {"rt": -1, "trial_type": "single-stim", "word": "lace", "stimulus": "<p id=\"stim\">LACE</p>", "conditions": [12, 1600, "v", 24000], "internal_node_id": "0.0-114.0", "trial": 4, "time_elapsed": 885053, "serialpos": 2, "key_press": -1, "wordID": 791, "type": "PRES_VIS", "trial_index": 159}, "uniqueid": "MTK2271:3LQ8PUHQFMZQYZ8OBWVV8RJIFXKIHB", "dateTime": 1516908646075}, {"current_trial": 160, "trialdata": {"rt": -1, "trial_type": "single-stim", "word": "robber", "stimulus": "<p id=\"stim\">ROBBER</p>", "conditions": [12, 1600, "v", 24000], "internal_node_id": "0.0-115.0", "trial": 4, "time_elapsed": 887743, "serialpos": 3, "key_press": -1, "wordID": 1196, "type": "PRES_VIS", "trial_index": 160}, "uniqueid": "MTK2271:3LQ8PUHQFMZQYZ8OBWVV8RJIFXKIHB", "dateTime": 1516908648766}, {"current_trial": 161, "trialdata": {"rt": -1, "trial_type": "single-stim", "word": "lunch", "stimulus": "<p id=\"stim\">LUNCH</p>", "conditions": [12, 1600, "v", 24000], "internal_node_id": "0.0-116.0", "trial": 4, "time_elapsed": 890470, "serialpos": 4, "key_press": -1, "wordID": 848, "type": "PRES_VIS", "trial_index": 161}, "uniqueid": "MTK2271:3LQ8PUHQFMZQYZ8OBWVV8RJIFXKIHB", "dateTime": 1516908651493}, {"current_trial": 162, "trialdata": {"rt": -1, "trial_type": "single-stim", "word": "supper", "stimulus": "<p id=\"stim\">SUPPER</p>", "conditions": [12, 1600, "v", 24000], "internal_node_id": "0.0-117.0", "trial": 4, "time_elapsed": 892937, "serialpos": 5, "key_press": -1, "wordID": 1410, "type": "PRES_VIS", "trial_index": 162}, "uniqueid": "MTK2271:3LQ8PUHQFMZQYZ8OBWVV8RJIFXKIHB", "dateTime": 1516908653959}, {"current_trial": 163, "trialdata": {"rt": -1, "trial_type": "single-stim", "word": "scallop", "stimulus": "<p id=\"stim\">SCALLOP</p>", "conditions": [12, 1600, "v", 24000], "internal_node_id": "0.0-118.0", "trial": 4, "time_elapsed": 895504, "serialpos": 6, "key_press": -1, "wordID": 1241, "type": "PRES_VIS", "trial_index": 163}, "uniqueid": "MTK2271:3LQ8PUHQFMZQYZ8OBWVV8RJIFXKIHB", "dateTime": 1516908656526}, {"current_trial": 164, "trialdata": {"rt": -1, "trial_type": "single-stim", "word": "cabbage", "stimulus": "<p id=\"stim\">CABBAGE</p>", "conditions": [12, 1600, "v", 24000], "internal_node_id": "0.0-119.0", "trial": 4, "time_elapsed": 898256, "serialpos": 7, "key_press": -1, "wordID": 209, "type": "PRES_VIS", "trial_index": 164}, "uniqueid": "MTK2271:3LQ8PUHQFMZQYZ8OBWVV8RJIFXKIHB", "dateTime": 1516908659278}, {"current_trial": 165, "trialdata": {"rt": -1, "trial_type": "single-stim", "word": "suspect", "stimulus": "<p id=\"stim\">SUSPECT</p>", "conditions": [12, 1600, "v", 24000], "internal_node_id": "0.0-120.0", "trial": 4, "time_elapsed": 900784, "serialpos": 8, "key_press": -1, "wordID": 1414, "type": "PRES_VIS", "trial_index": 165}, "uniqueid": "MTK2271:3LQ8PUHQFMZQYZ8OBWVV8RJIFXKIHB", "dateTime": 1516908661806}, {"current_trial": 166, "trialdata": {"rt": -1, "trial_type": "single-stim", "word": "pimple", "stimulus": "<p id=\"stim\">PIMPLE</p>", "conditions": [12, 1600, "v", 24000], "internal_node_id": "0.0-121.0", "trial": 4, "time_elapsed": 903291, "serialpos": 9, "key_press": -1, "wordID": 1070, "type": "PRES_VIS", "trial_index": 166}, "uniqueid": "MTK2271:3LQ8PUHQFMZQYZ8OBWVV8RJIFXKIHB", "dateTime": 1516908664314}, {"current_trial": 167, "trialdata": {"rt": -1, "trial_type": "single-stim", "word": "picture", "stimulus": "<p id=\"stim\">PICTURE</p>", "conditions": [12, 1600, "v", 24000], "internal_node_id": "0.0-122.0", "trial": 4, "time_elapsed": 906007, "serialpos": 10, "key_press": -1, "wordID": 1060, "type": "PRES_VIS", "trial_index": 167}, "uniqueid": "MTK2271:3LQ8PUHQFMZQYZ8OBWVV8RJIFXKIHB", "dateTime": 1516908667029}, {"current_trial": 168, "trialdata": {"rt": -1, "trial_type": "single-stim", "word": "drawing", "stimulus": "<p id=\"stim\">DRAWING</p>", "conditions": [12, 1600, "v", 24000], "internal_node_id": "0.0-123.0", "trial": 4, "time_elapsed": 908493, "serialpos": 11, "key_press": -1, "wordID": 493, "type": "PRES_VIS", "trial_index": 168}, "uniqueid": "MTK2271:3LQ8PUHQFMZQYZ8OBWVV8RJIFXKIHB", "dateTime": 1516908669515}, {"current_trial": 169, "trialdata": {"rt": -1, "trial_type": "single-stim", "stimulus": "", "internal_node_id": "0.0-124.0-0.0", "time_elapsed": 910891, "key_press": -1, "type": "PRE_RECALL_DELAY", "trial_index": 169}, "uniqueid": "MTK2271:3LQ8PUHQFMZQYZ8OBWVV8RJIFXKIHB", "dateTime": 1516908671913}, {"current_trial": 170, "trialdata": {"rt": -1000, "trial_type": "single-audio", "stimulus": "/static/audio/400Hz.wav", "internal_node_id": "0.0-125.0", "time_elapsed": 911392, "key_press": -1, "type": "PRE_RECALL_ALERT", "trial_index": 170}, "uniqueid": "MTK2271:3LQ8PUHQFMZQYZ8OBWVV8RJIFXKIHB", "dateTime": 1516908672414}, {"current_trial": 171, "trialdata": {"rt": [4493, 6561, 9535, 15116, 17512, 23254, 27973, 29903, 30935], "recwords": ["beef", "valley", "lace", "lunch", "supper", "cabinet", "pimple", "picture", "draw"], "key_times": [3407, 3599, 3889, 4056, 4258, 4493, 4898, 5047, 5294, 5400, 5554, 5733, 6018, 6561, 7136, 7664, 8106, 8130, 8154, 8178, 8202, 8227, 8250, 8275, 8299, 8323, 8347, 8371, 8395, 8413, 8549, 8848, 9210, 9535, 12425, 12560, 12816, 12927, 13095, 13642, 13909, 14346, 14479, 14579, 15116, 16186, 16290, 16669, 16931, 17081, 17180, 17266, 17512, 21212, 21250, 21433, 21906, 22070, 22813, 22879, 23078, 23254, 26111, 26541, 26791, 26984, 27360, 27552, 27663, 27973, 28306, 28455, 28696, 28768, 28996, 29098, 29214, 29302, 29903, 30159, 30194, 30378, 30573, 30778, 30935], "trial_type": "free-recall", "conditions": [12, 1600, "v", 24000], "internal_node_id": "0.0-126.0-0.0", "key_presses": [16, 66, 69, 69, 70, 13, 16, 86, 65, 76, 76, 69, 89, 13, 16, 16, 16, 16, 16, 16, 16, 16, 16, 16, 16, 16, 16, 16, 16, 76, 65, 67, 69, 13, 16, 76, 85, 67, 72, 8, 8, 78, 67, 72, 13, 16, 83, 85, 80, 80, 69, 82, 13, 16, 67, 65, 66, 73, 78, 69, 84, 13, 16, 80, 73, 77, 80, 76, 69, 13, 16, 80, 73, 67, 84, 85, 82, 69, 13, 16, 68, 82, 65, 87, 13], "trial": 4, "time_elapsed": 971394, "type": "FREE_RECALL", "trial_index": 171}, "uniqueid": "MTK2271:3LQ8PUHQFMZQYZ8OBWVV8RJIFXKIHB", "dateTime": 1516908732418}, {"current_trial": 172, "trialdata": {"rt": 7197, "trial_type": "text", "internal_node_id": "0.0-127.0", "time_elapsed": 980594, "key_press": 32, "type": "INSTRUCTIONS", "trial_index": 172}, "uniqueid": "MTK2271:3LQ8PUHQFMZQYZ8OBWVV8RJIFXKIHB", "dateTime": 1516908741616}, {"current_trial": 173, "trialdata": {"rt": [1884, 3900, 6760, 8674, 10485], "trial_type": "math-distractor", "key_times": [1578, 1638, 1884, 3433, 3783, 3900, 6426, 6618, 6760, 8400, 8541, 8674, 10227, 10354, 10485, 11923], "responses": ["10", "18", "13", "12", "12"], "num2": [2, 1, 4, 7, 6, 7], "num3": [2, 9, 8, 3, 4, 3], "conditions": [24, 1600, "v", 12000], "internal_node_id": "0.0-128.0", "key_presses": [49, 48, 13, 49, 56, 13, 49, 51, 13, 49, 50, 13, 49, 50, 13, 49], "trial": 5, "time_elapsed": 994597, "type": "DISTRACTOR", "trial_index": 173, "num1": [6, 8, 1, 2, 2, 5]}, "uniqueid": "MTK2271:3LQ8PUHQFMZQYZ8OBWVV8RJIFXKIHB", "dateTime": 1516908755620}, {"current_trial": 174, "trialdata": {"rt": -1, "trial_type": "single-stim", "stimulus": "<p id=\"stim\">10</p>", "internal_node_id": "0.0-129.0-0.0", "time_elapsed": 997599, "key_press": -1, "trial_index": 174}, "uniqueid": "MTK2271:3LQ8PUHQFMZQYZ8OBWVV8RJIFXKIHB", "dateTime": 1516908758621}, {"current_trial": 175, "trialdata": {"rt": -1, "trial_type": "single-stim", "stimulus": "<p id=\"stim\">9</p>", "internal_node_id": "0.0-129.0-1.0", "time_elapsed": 998600, "key_press": -1, "trial_index": 175}, "uniqueid": "MTK2271:3LQ8PUHQFMZQYZ8OBWVV8RJIFXKIHB", "dateTime": 1516908759623}, {"current_trial": 176, "trialdata": {"rt": -1, "trial_type": "single-stim", "stimulus": "<p id=\"stim\">8</p>", "internal_node_id": "0.0-129.0-2.0", "time_elapsed": 999601, "key_press": -1, "trial_index": 176}, "uniqueid": "MTK2271:3LQ8PUHQFMZQYZ8OBWVV8RJIFXKIHB", "dateTime": 1516908760623}, {"current_trial": 177, "trialdata": {"rt": -1, "trial_type": "single-stim", "stimulus": "<p id=\"stim\">7</p>", "internal_node_id": "0.0-129.0-3.0", "time_elapsed": 1000603, "key_press": -1, "trial_index": 177}, "uniqueid": "MTK2271:3LQ8PUHQFMZQYZ8OBWVV8RJIFXKIHB", "dateTime": 1516908761625}, {"current_trial": 178, "trialdata": {"rt": -1, "trial_type": "single-stim", "stimulus": "<p id=\"stim\">6</p>", "internal_node_id": "0.0-129.0-4.0", "time_elapsed": 1001604, "key_press": -1, "trial_index": 178}, "uniqueid": "MTK2271:3LQ8PUHQFMZQYZ8OBWVV8RJIFXKIHB", "dateTime": 1516908762626}, {"current_trial": 179, "trialdata": {"rt": -1, "trial_type": "single-stim", "stimulus": "<p id=\"stim\">5</p>", "internal_node_id": "0.0-129.0-5.0", "time_elapsed": 1002605, "key_press": -1, "trial_index": 179}, "uniqueid": "MTK2271:3LQ8PUHQFMZQYZ8OBWVV8RJIFXKIHB", "dateTime": 1516908763627}, {"current_trial": 180, "trialdata": {"rt": -1, "trial_type": "single-stim", "stimulus": "<p id=\"stim\">4</p>", "internal_node_id": "0.0-129.0-6.0", "time_elapsed": 1003607, "key_press": -1, "trial_index": 180}, "uniqueid": "MTK2271:3LQ8PUHQFMZQYZ8OBWVV8RJIFXKIHB", "dateTime": 1516908764629}, {"current_trial": 181, "trialdata": {"rt": -1, "trial_type": "single-stim", "stimulus": "<p id=\"stim\">3</p>", "internal_node_id": "0.0-129.0-7.0", "time_elapsed": 1004608, "key_press": -1, "trial_index": 181}, "uniqueid": "MTK2271:3LQ8PUHQFMZQYZ8OBWVV8RJIFXKIHB", "dateTime": 1516908765630}, {"current_trial": 182, "trialdata": {"rt": -1, "trial_type": "single-stim", "stimulus": "<p id=\"stim\">2</p>", "internal_node_id": "0.0-129.0-8.0", "time_elapsed": 1005609, "key_press": -1, "trial_index": 182}, "uniqueid": "MTK2271:3LQ8PUHQFMZQYZ8OBWVV8RJIFXKIHB", "dateTime": 1516908766631}, {"current_trial": 183, "trialdata": {"rt": -1, "trial_type": "single-stim", "stimulus": "<p id=\"stim\">1</p>", "internal_node_id": "0.0-129.0-9.0", "time_elapsed": 1006611, "key_press": -1, "trial_index": 183}, "uniqueid": "MTK2271:3LQ8PUHQFMZQYZ8OBWVV8RJIFXKIHB", "dateTime": 1516908767633}, {"current_trial": 184, "trialdata": {"rt": -1, "trial_type": "single-stim", "stimulus": "<p id=\"stim\">+</p>", "internal_node_id": "0.0-130.0-0.0", "time_elapsed": 1008113, "key_press": -1, "type": "FIXATION", "trial_index": 184}, "uniqueid": "MTK2271:3LQ8PUHQFMZQYZ8OBWVV8RJIFXKIHB", "dateTime": 1516908769135}, {"current_trial": 185, "trialdata": {"rt": -1, "trial_type": "single-stim", "word": "turtle", "stimulus": "<p id=\"stim\">TURTLE</p>", "conditions": [24, 1600, "v", 12000], "internal_node_id": "0.0-131.0", "trial": 5, "time_elapsed": 1009714, "serialpos": 0, "key_press": -1, "wordID": 1521, "type": "PRES_VIS", "trial_index": 185}, "uniqueid": "MTK2271:3LQ8PUHQFMZQYZ8OBWVV8RJIFXKIHB", "dateTime": 1516908770736}, {"current_trial": 186, "trialdata": {"rt": -1, "trial_type": "single-stim", "word": "washer", "stimulus": "<p id=\"stim\">WASHER</p>", "conditions": [24, 1600, "v", 12000], "internal_node_id": "0.0-132.0", "trial": 5, "time_elapsed": 1012268, "serialpos": 1, "key_press": -1, "wordID": 1591, "type": "PRES_VIS", "trial_index": 186}, "uniqueid": "MTK2271:3LQ8PUHQFMZQYZ8OBWVV8RJIFXKIHB", "dateTime": 1516908773290}, {"current_trial": 187, "trialdata": {"rt": -1, "trial_type": "single-stim", "word": "mummy", "stimulus": "<p id=\"stim\">MUMMY</p>", "conditions": [24, 1600, "v", 12000], "internal_node_id": "0.0-133.0", "trial": 5, "time_elapsed": 1015064, "serialpos": 2, "key_press": -1, "wordID": 931, "type": "PRES_VIS", "trial_index": 187}, "uniqueid": "MTK2271:3LQ8PUHQFMZQYZ8OBWVV8RJIFXKIHB", "dateTime": 1516908776086}, {"current_trial": 188, "trialdata": {"rt": -1, "trial_type": "single-stim", "word": "grave", "stimulus": "<p id=\"stim\">GRAVE</p>", "conditions": [24, 1600, "v", 12000], "internal_node_id": "0.0-134.0", "trial": 5, "time_elapsed": 1017571, "serialpos": 3, "key_press": -1, "wordID": 657, "type": "PRES_VIS", "trial_index": 188}, "uniqueid": "MTK2271:3LQ8PUHQFMZQYZ8OBWVV8RJIFXKIHB", "dateTime": 1516908778593}, {"current_trial": 189, "trialdata": {"rt": -1, "trial_type": "single-stim", "word": "umpire", "stimulus": "<p id=\"stim\">UMPIRE</p>", "conditions": [24, 1600, "v", 12000], "internal_node_id": "0.0-135.0", "trial": 5, "time_elapsed": 1020089, "serialpos": 4, "key_press": -1, "wordID": 1534, "type": "PRES_VIS", "trial_index": 189}, "uniqueid": "MTK2271:3LQ8PUHQFMZQYZ8OBWVV8RJIFXKIHB", "dateTime": 1516908781111}, {"current_trial": 190, "trialdata": {"rt": -1, "trial_type": "single-stim", "word": "hook", "stimulus": "<p id=\"stim\">HOOK</p>", "conditions": [24, 1600, "v", 12000], "internal_node_id": "0.0-136.0", "trial": 5, "time_elapsed": 1022807, "serialpos": 5, "key_press": -1, "wordID": 714, "type": "PRES_VIS", "trial_index": 190}, "uniqueid": "MTK2271:3LQ8PUHQFMZQYZ8OBWVV8RJIFXKIHB", "dateTime": 1516908783829}, {"current_trial": 191, "trialdata": {"rt": -1, "trial_type": "single-stim", "word": "pliers", "stimulus": "<p id=\"stim\">PLIERS</p>", "conditions": [24, 1600, "v", 12000], "internal_node_id": "0.0-137.0", "trial": 5, "time_elapsed": 1025539, "serialpos": 6, "key_press": -1, "wordID": 1088, "type": "PRES_VIS", "trial_index": 191}, "uniqueid": "MTK2271:3LQ8PUHQFMZQYZ8OBWVV8RJIFXKIHB", "dateTime": 1516908786561}, {"current_trial": 192, "trialdata": {"rt": -1, "trial_type": "single-stim", "word": "rifle", "stimulus": "<p id=\"stim\">RIFLE</p>", "conditions": [24, 1600, "v", 12000], "internal_node_id": "0.0-138.0", "trial": 5, "time_elapsed": 1028262, "serialpos": 7, "key_press": -1, "wordID": 1191, "type": "PRES_VIS", "trial_index": 192}, "uniqueid": "MTK2271:3LQ8PUHQFMZQYZ8OBWVV8RJIFXKIHB", "dateTime": 1516908789284}, {"current_trial": 193, "trialdata": {"rt": -1, "trial_type": "single-stim", "word": "sparrow", "stimulus": "<p id=\"stim\">SPARROW</p>", "conditions": [24, 1600, "v", 12000], "internal_node_id": "0.0-139.0", "trial": 5, "time_elapsed": 1030954, "serialpos": 8, "key_press": -1, "wordID": 1346, "type": "PRES_VIS", "trial_index": 193}, "uniqueid": "MTK2271:3LQ8PUHQFMZQYZ8OBWVV8RJIFXKIHB", "dateTime": 1516908791977}, {"current_trial": 194, "trialdata": {"rt": -1, "trial_type": "single-stim", "word": "robin", "stimulus": "<p id=\"stim\">ROBIN</p>", "conditions": [24, 1600, "v", 12000], "internal_node_id": "0.0-140.0", "trial": 5, "time_elapsed": 1033531, "serialpos": 9, "key_press": -1, "wordID": 1198, "type": "PRES_VIS", "trial_index": 194}, "uniqueid": "MTK2271:3LQ8PUHQFMZQYZ8OBWVV8RJIFXKIHB", "dateTime": 1516908794553}, {"current_trial": 195, "trialdata": {"rt": -1, "trial_type": "single-stim", "word": "dolphin", "stimulus": "<p id=\"stim\">DOLPHIN</p>", "conditions": [24, 1600, "v", 12000], "internal_node_id": "0.0-141.0", "trial": 5, "time_elapsed": 1036271, "serialpos": 10, "key_press": -1, "wordID": 482, "type": "PRES_VIS", "trial_index": 195}, "uniqueid": "MTK2271:3LQ8PUHQFMZQYZ8OBWVV8RJIFXKIHB", "dateTime": 1516908797293}, {"current_trial": 196, "trialdata": {"rt": -1, "trial_type": "single-stim", "word": "cafe", "stimulus": "<p id=\"stim\">CAFE</p>", "conditions": [24, 1600, "v", 12000], "internal_node_id": "0.0-142.0", "trial": 5, "time_elapsed": 1039047, "serialpos": 11, "key_press": -1, "wordID": 215, "type": "PRES_VIS", "trial_index": 196}, "uniqueid": "MTK2271:3LQ8PUHQFMZQYZ8OBWVV8RJIFXKIHB", "dateTime": 1516908800069}, {"current_trial": 197, "trialdata": {"rt": -1, "trial_type": "single-stim", "word": "cobra", "stimulus": "<p id=\"stim\">COBRA</p>", "conditions": [24, 1600, "v", 12000], "internal_node_id": "0.0-143.0", "trial": 5, "time_elapsed": 1041646, "serialpos": 12, "key_press": -1, "wordID": 335, "type": "PRES_VIS", "trial_index": 197}, "uniqueid": "MTK2271:3LQ8PUHQFMZQYZ8OBWVV8RJIFXKIHB", "dateTime": 1516908802668}, {"current_trial": 198, "trialdata": {"rt": -1, "trial_type": "single-stim", "word": "trench", "stimulus": "<p id=\"stim\">TRENCH</p>", "conditions": [24, 1600, "v", 12000], "internal_node_id": "0.0-144.0", "trial": 5, "time_elapsed": 1044419, "serialpos": 13, "key_press": -1, "wordID": 1502, "type": "PRES_VIS", "trial_index": 198}, "uniqueid": "MTK2271:3LQ8PUHQFMZQYZ8OBWVV8RJIFXKIHB", "dateTime": 1516908805441}, {"current_trial": 199, "trialdata": {"rt": -1, "trial_type": "single-stim", "word": "slope", "stimulus": "<p id=\"stim\">SLOPE</p>", "conditions": [24, 1600, "v", 12000], "internal_node_id": "0.0-145.0", "trial": 5, "time_elapsed": 1047151, "serialpos": 14, "key_press": -1, "wordID": 1327, "type": "PRES_VIS", "trial_index": 199}, "uniqueid": "MTK2271:3LQ8PUHQFMZQYZ8OBWVV8RJIFXKIHB", "dateTime": 1516908808173}, {"current_trial": 200, "trialdata": {"rt": -1, "trial_type": "single-stim", "word": "chest", "stimulus": "<p id=\"stim\">CHEST</p>", "conditions": [24, 1600, "v", 12000], "internal_node_id": "0.0-146.0", "trial": 5, "time_elapsed": 1049579, "serialpos": 15, "key_press": -1, "wordID": 294, "type": "PRES_VIS", "trial_index": 200}, "uniqueid": "MTK2271:3LQ8PUHQFMZQYZ8OBWVV8RJIFXKIHB", "dateTime": 1516908810601}, {"current_trial": 201, "trialdata": {"rt": -1, "trial_type": "single-stim", "word": "uncle", "stimulus": "<p id=\"stim\">UNCLE</p>", "conditions": [24, 1600, "v", 12000], "internal_node_id": "0.0-147.0", "trial": 5, "time_elapsed": 1052061, "serialpos": 16, "key_press": -1, "wordID": 1535, "type": "PRES_VIS", "trial_index": 201}, "uniqueid": "MTK2271:3LQ8PUHQFMZQYZ8OBWVV8RJIFXKIHB", "dateTime": 1516908813083}, {"current_trial": 202, "trialdata": {"rt": -1, "trial_type": "single-stim", "word": "peanut", "stimulus": "<p id=\"stim\">PEANUT</p>", "conditions": [24, 1600, "v", 12000], "internal_node_id": "0.0-148.0", "trial": 5, "time_elapsed": 1054819, "serialpos": 17, "key_press": -1, "wordID": 1031, "type": "PRES_VIS", "trial_index": 202}, "uniqueid": "MTK2271:3LQ8PUHQFMZQYZ8OBWVV8RJIFXKIHB", "dateTime": 1516908815841}, {"current_trial": 203, "trialdata": {"rt": -1, "trial_type": "single-stim", "word": "pecan", "stimulus": "<p id=\"stim\">PECAN</p>", "conditions": [24, 1600, "v", 12000], "internal_node_id": "0.0-149.0", "trial": 5, "time_elapsed": 1057234, "serialpos": 18, "key_press": -1, "wordID": 1035, "type": "PRES_VIS", "trial_index": 203}, "uniqueid": "MTK2271:3LQ8PUHQFMZQYZ8OBWVV8RJIFXKIHB", "dateTime": 1516908818256}, {"current_trial": 204, "trialdata": {"rt": -1, "trial_type": "single-stim", "word": "smog", "stimulus": "<p id=\"stim\">SMOG</p>", "conditions": [24, 1600, "v", 12000], "internal_node_id": "0.0-150.0", "trial": 5, "time_elapsed": 1059976, "serialpos": 19, "key_press": -1, "wordID": 1329, "type": "PRES_VIS", "trial_index": 204}, "uniqueid": "MTK2271:3LQ8PUHQFMZQYZ8OBWVV8RJIFXKIHB", "dateTime": 1516908820998}, {"current_trial": 205, "trialdata": {"rt": -1, "trial_type": "single-stim", "word": "braces", "stimulus": "<p id=\"stim\">BRACES</p>", "conditions": [24, 1600, "v", 12000], "internal_node_id": "0.0-151.0", "trial": 5, "time_elapsed": 1062766, "serialpos": 20, "key_press": -1, "wordID": 163, "type": "PRES_VIS", "trial_index": 205}, "uniqueid": "MTK2271:3LQ8PUHQFMZQYZ8OBWVV8RJIFXKIHB", "dateTime": 1516908823788}, {"current_trial": 206, "trialdata": {"rt": -1, "trial_type": "single-stim", "word": "banker", "stimulus": "<p id=\"stim\">BANKER</p>", "conditions": [24, 1600, "v", 12000], "internal_node_id": "0.0-152.0", "trial": 5, "time_elapsed": 1065300, "serialpos": 21, "key_press": -1, "wordID": 83, "type": "PRES_VIS", "trial_index": 206}, "uniqueid": "MTK2271:3LQ8PUHQFMZQYZ8OBWVV8RJIFXKIHB", "dateTime": 1516908826323}, {"current_trial": 207, "trialdata": {"rt": -1, "trial_type": "single-stim", "word": "seafood", "stimulus": "<p id=\"stim\">SEAFOOD</p>", "conditions": [24, 1600, "v", 12000], "internal_node_id": "0.0-153.0", "trial": 5, "time_elapsed": 1067841, "serialpos": 22, "key_press": -1, "wordID": 1259, "type": "PRES_VIS", "trial_index": 207}, "uniqueid": "MTK2271:3LQ8PUHQFMZQYZ8OBWVV8RJIFXKIHB", "dateTime": 1516908828863}, {"current_trial": 208, "trialdata": {"rt": -1, "trial_type": "single-stim", "word": "friend", "stimulus": "<p id=\"stim\">FRIEND</p>", "conditions": [24, 1600, "v", 12000], "internal_node_id": "0.0-154.0", "trial": 5, "time_elapsed": 1070586, "serialpos": 23, "key_press": -1, "wordID": 605, "type": "PRES_VIS", "trial_index": 208}, "uniqueid": "MTK2271:3LQ8PUHQFMZQYZ8OBWVV8RJIFXKIHB", "dateTime": 1516908831609}, {"current_trial": 209, "trialdata": {"rt": -1, "trial_type": "single-stim", "stimulus": "", "internal_node_id": "0.0-155.0-0.0", "time_elapsed": 1072983, "key_press": -1, "type": "PRE_RECALL_DELAY", "trial_index": 209}, "uniqueid": "MTK2271:3LQ8PUHQFMZQYZ8OBWVV8RJIFXKIHB", "dateTime": 1516908834006}, {"current_trial": 210, "trialdata": {"rt": -1000, "trial_type": "single-audio", "stimulus": "/static/audio/400Hz.wav", "internal_node_id": "0.0-156.0", "time_elapsed": 1073485, "key_press": -1, "type": "PRE_RECALL_ALERT", "trial_index": 210}, "uniqueid": "MTK2271:3LQ8PUHQFMZQYZ8OBWVV8RJIFXKIHB", "dateTime": 1516908834507}, {"current_trial": 211, "trialdata": {"rt": [7706, 8918, 16960, 19058, 21615, 23820, 27539, 29153, 35295, 37396, 39162, 42547, 45074, 49521, 51091, 52566, 57646], "recwords": ["friend", "butter", "seafood", "peanut", "peacan", "smog", "uncle", "chest", "turtle", "washer", "mummy", "grave", "hook", "pliers", "sparrow", "robin", "dolphin"], "key_times": [6892, 7069, 7127, 7257, 7378, 7450, 7706, 8101, 8221, 8359, 8525, 8666, 8736, 8918, 9601, 9819, 9967, 10200, 10372, 10543, 10634, 14060, 14153, 14391, 14621, 15055, 15386, 15562, 15720, 15894, 16818, 16960, 17539, 17601, 17775, 18556, 18759, 18860, 19058, 19503, 19602, 19778, 20006, 20238, 20625, 20760, 20905, 21615, 23062, 23308, 23521, 23661, 23820, 26616, 26834, 27103, 27269, 27365, 27539, 28122, 28265, 28349, 28520, 28795, 29153, 33701, 33875, 33974, 34334, 34501, 34614, 35295, 35915, 36286, 36430, 37030, 37133, 37246, 37396, 37872, 38100, 38331, 38469, 38554, 39162, 41461, 41692, 41890, 42135, 42368, 42547, 44424, 44513, 44660, 44829, 45074, 45843, 46048, 46267, 46489, 46958, 47175, 49521, 49906, 50022, 50190, 50433, 50586, 50656, 50907, 51091, 51656, 51769, 51920, 52031, 52241, 52566, 55979, 56128, 56312, 56522, 56749, 56870, 57341, 57646], "trial_type": "free-recall", "conditions": [24, 1600, "v", 12000], "internal_node_id": "0.0-157.0-0.0", "key_presses": [70, 82, 73, 69, 78, 68, 13, 66, 85, 84, 84, 69, 82, 13, 83, 69, 65, 70, 79, 79, 68, 80, 69, 65, 67, 8, 8, 8, 8, 8, 68, 13, 80, 69, 65, 78, 85, 84, 13, 80, 69, 65, 67, 69, 8, 65, 78, 13, 83, 77, 79, 71, 13, 85, 78, 67, 76, 69, 13, 67, 72, 69, 83, 84, 13, 84, 85, 82, 84, 76, 69, 13, 87, 65, 83, 72, 69, 82, 13, 77, 85, 77, 77, 89, 13, 71, 82, 65, 86, 69, 13, 72, 79, 79, 75, 13, 80, 76, 73, 69, 82, 83, 13, 83, 80, 65, 82, 82, 79, 87, 13, 82, 79, 66, 73, 78, 13, 68, 79, 76, 80, 72, 73, 78, 13], "trial": 5, "time_elapsed": 1133487, "type": "FREE_RECALL", "trial_index": 211}, "uniqueid": "MTK2271:3LQ8PUHQFMZQYZ8OBWVV8RJIFXKIHB", "dateTime": 1516908894512}, {"current_trial": 212, "trialdata": {"rt": 21904, "trial_type": "text", "internal_node_id": "0.0-158.0", "time_elapsed": 1157395, "key_press": 32, "type": "INSTRUCTIONS", "trial_index": 212}, "uniqueid": "MTK2271:3LQ8PUHQFMZQYZ8OBWVV8RJIFXKIHB", "dateTime": 1516908918417}, {"current_trial": 213, "trialdata": {"rt": [5018, 6945, 10647], "trial_type": "math-distractor", "key_times": [4660, 4906, 5018, 6597, 6851, 6945, 10212, 10555, 10647], "responses": ["13", "14", "15"], "num2": [7, 1, 6, 8], "num3": [2, 4, 2, 8], "conditions": [12, 1600, "v", 12000], "internal_node_id": "0.0-159.0", "key_presses": [49, 51, 13, 49, 52, 13, 49, 53, 13], "trial": 6, "time_elapsed": 1171397, "type": "DISTRACTOR", "trial_index": 213, "num1": [4, 9, 7, 7]}, "uniqueid": "MTK2271:3LQ8PUHQFMZQYZ8OBWVV8RJIFXKIHB", "dateTime": 1516908932419}, {"current_trial": 214, "trialdata": {"rt": -1, "trial_type": "single-stim", "stimulus": "<p id=\"stim\">10</p>", "internal_node_id": "0.0-160.0-0.0", "time_elapsed": 1174400, "key_press": -1, "trial_index": 214}, "uniqueid": "MTK2271:3LQ8PUHQFMZQYZ8OBWVV8RJIFXKIHB", "dateTime": 1516908935422}, {"current_trial": 215, "trialdata": {"rt": -1, "trial_type": "single-stim", "stimulus": "<p id=\"stim\">9</p>", "internal_node_id": "0.0-160.0-1.0", "time_elapsed": 1175401, "key_press": -1, "trial_index": 215}, "uniqueid": "MTK2271:3LQ8PUHQFMZQYZ8OBWVV8RJIFXKIHB", "dateTime": 1516908936423}, {"current_trial": 216, "trialdata": {"rt": -1, "trial_type": "single-stim", "stimulus": "<p id=\"stim\">8</p>", "internal_node_id": "0.0-160.0-2.0", "time_elapsed": 1176403, "key_press": -1, "trial_index": 216}, "uniqueid": "MTK2271:3LQ8PUHQFMZQYZ8OBWVV8RJIFXKIHB", "dateTime": 1516908937425}, {"current_trial": 217, "trialdata": {"rt": -1, "trial_type": "single-stim", "stimulus": "<p id=\"stim\">7</p>", "internal_node_id": "0.0-160.0-3.0", "time_elapsed": 1177403, "key_press": -1, "trial_index": 217}, "uniqueid": "MTK2271:3LQ8PUHQFMZQYZ8OBWVV8RJIFXKIHB", "dateTime": 1516908938425}, {"current_trial": 218, "trialdata": {"rt": -1, "trial_type": "single-stim", "stimulus": "<p id=\"stim\">6</p>", "internal_node_id": "0.0-160.0-4.0", "time_elapsed": 1178404, "key_press": -1, "trial_index": 218}, "uniqueid": "MTK2271:3LQ8PUHQFMZQYZ8OBWVV8RJIFXKIHB", "dateTime": 1516908939426}, {"current_trial": 219, "trialdata": {"rt": -1, "trial_type": "single-stim", "stimulus": "<p id=\"stim\">5</p>", "internal_node_id": "0.0-160.0-5.0", "time_elapsed": 1179405, "key_press": -1, "trial_index": 219}, "uniqueid": "MTK2271:3LQ8PUHQFMZQYZ8OBWVV8RJIFXKIHB", "dateTime": 1516908940427}, {"current_trial": 220, "trialdata": {"rt": -1, "trial_type": "single-stim", "stimulus": "<p id=\"stim\">4</p>", "internal_node_id": "0.0-160.0-6.0", "time_elapsed": 1180406, "key_press": -1, "trial_index": 220}, "uniqueid": "MTK2271:3LQ8PUHQFMZQYZ8OBWVV8RJIFXKIHB", "dateTime": 1516908941428}, {"current_trial": 221, "trialdata": {"rt": -1, "trial_type": "single-stim", "stimulus": "<p id=\"stim\">3</p>", "internal_node_id": "0.0-160.0-7.0", "time_elapsed": 1181407, "key_press": -1, "trial_index": 221}, "uniqueid": "MTK2271:3LQ8PUHQFMZQYZ8OBWVV8RJIFXKIHB", "dateTime": 1516908942429}, {"current_trial": 222, "trialdata": {"rt": -1, "trial_type": "single-stim", "stimulus": "<p id=\"stim\">2</p>", "internal_node_id": "0.0-160.0-8.0", "time_elapsed": 1182408, "key_press": -1, "trial_index": 222}, "uniqueid": "MTK2271:3LQ8PUHQFMZQYZ8OBWVV8RJIFXKIHB", "dateTime": 1516908943431}, {"current_trial": 223, "trialdata": {"rt": -1, "trial_type": "single-stim", "stimulus": "<p id=\"stim\">1</p>", "internal_node_id": "0.0-160.0-9.0", "time_elapsed": 1183409, "key_press": -1, "trial_index": 223}, "uniqueid": "MTK2271:3LQ8PUHQFMZQYZ8OBWVV8RJIFXKIHB", "dateTime": 1516908944431}, {"current_trial": 224, "trialdata": {"rt": -1, "trial_type": "single-stim", "stimulus": "<p id=\"stim\">+</p>", "internal_node_id": "0.0-161.0-0.0", "time_elapsed": 1184911, "key_press": -1, "type": "FIXATION", "trial_index": 224}, "uniqueid": "MTK2271:3LQ8PUHQFMZQYZ8OBWVV8RJIFXKIHB", "dateTime": 1516908945933}, {"current_trial": 225, "trialdata": {"rt": -1, "trial_type": "single-stim", "word": "widow", "stimulus": "<p id=\"stim\">WIDOW</p>", "conditions": [12, 1600, "v", 12000], "internal_node_id": "0.0-162.0", "trial": 6, "time_elapsed": 1186512, "serialpos": 0, "key_press": -1, "wordID": 1607, "type": "PRES_VIS", "trial_index": 225}, "uniqueid": "MTK2271:3LQ8PUHQFMZQYZ8OBWVV8RJIFXKIHB", "dateTime": 1516908947534}, {"current_trial": 226, "trialdata": {"rt": -1, "trial_type": "single-stim", "word": "garlic", "stimulus": "<p id=\"stim\">GARLIC</p>", "conditions": [12, 1600, "v", 12000], "internal_node_id": "0.0-163.0", "trial": 6, "time_elapsed": 1189071, "serialpos": 1, "key_press": -1, "wordID": 623, "type": "PRES_VIS", "trial_index": 226}, "uniqueid": "MTK2271:3LQ8PUHQFMZQYZ8OBWVV8RJIFXKIHB", "dateTime": 1516908950093}, {"current_trial": 227, "trialdata": {"rt": -1, "trial_type": "single-stim", "word": "spool", "stimulus": "<p id=\"stim\">SPOOL</p>", "conditions": [12, 1600, "v", 12000], "internal_node_id": "0.0-164.0", "trial": 6, "time_elapsed": 1191787, "serialpos": 2, "key_press": -1, "wordID": 1355, "type": "PRES_VIS", "trial_index": 227}, "uniqueid": "MTK2271:3LQ8PUHQFMZQYZ8OBWVV8RJIFXKIHB", "dateTime": 1516908952809}, {"current_trial": 228, "trialdata": {"rt": -1, "trial_type": "single-stim", "word": "rod", "stimulus": "<p id=\"stim\">ROD</p>", "conditions": [12, 1600, "v", 12000], "internal_node_id": "0.0-165.0", "trial": 6, "time_elapsed": 1194534, "serialpos": 3, "key_press": -1, "wordID": 1202, "type": "PRES_VIS", "trial_index": 228}, "uniqueid": "MTK2271:3LQ8PUHQFMZQYZ8OBWVV8RJIFXKIHB", "dateTime": 1516908955556}, {"current_trial": 229, "trialdata": {"rt": -1, "trial_type": "single-stim", "word": "church", "stimulus": "<p id=\"stim\">CHURCH</p>", "conditions": [12, 1600, "v", 12000], "internal_node_id": "0.0-166.0", "trial": 6, "time_elapsed": 1196950, "serialpos": 4, "key_press": -1, "wordID": 306, "type": "PRES_VIS", "trial_index": 229}, "uniqueid": "MTK2271:3LQ8PUHQFMZQYZ8OBWVV8RJIFXKIHB", "dateTime": 1516908957972}, {"current_trial": 230, "trialdata": {"rt": -1, "trial_type": "single-stim", "word": "branch", "stimulus": "<p id=\"stim\">BRANCH</p>", "conditions": [12, 1600, "v", 12000], "internal_node_id": "0.0-167.0", "trial": 6, "time_elapsed": 1199568, "serialpos": 5, "key_press": -1, "wordID": 167, "type": "PRES_VIS", "trial_index": 230}, "uniqueid": "MTK2271:3LQ8PUHQFMZQYZ8OBWVV8RJIFXKIHB", "dateTime": 1516908960591}, {"current_trial": 231, "trialdata": {"rt": -1, "trial_type": "single-stim", "word": "jello", "stimulus": "<p id=\"stim\">JELLO</p>", "conditions": [12, 1600, "v", 12000], "internal_node_id": "0.0-168.0", "trial": 6, "time_elapsed": 1202055, "serialpos": 6, "key_press": -1, "wordID": 753, "type": "PRES_VIS", "trial_index": 231}, "uniqueid": "MTK2271:3LQ8PUHQFMZQYZ8OBWVV8RJIFXKIHB", "dateTime": 1516908963077}, {"current_trial": 232, "trialdata": {"rt": -1, "trial_type": "single-stim", "word": "cashier", "stimulus": "<p id=\"stim\">CASHIER</p>", "conditions": [12, 1600, "v", 12000], "internal_node_id": "0.0-169.0", "trial": 6, "time_elapsed": 1204747, "serialpos": 7, "key_press": -1, "wordID": 253, "type": "PRES_VIS", "trial_index": 232}, "uniqueid": "MTK2271:3LQ8PUHQFMZQYZ8OBWVV8RJIFXKIHB", "dateTime": 1516908965770}, {"current_trial": 233, "trialdata": {"rt": -1, "trial_type": "single-stim", "word": "queen", "stimulus": "<p id=\"stim\">QUEEN</p>", "conditions": [12, 1600, "v", 12000], "internal_node_id": "0.0-170.0", "trial": 6, "time_elapsed": 1207396, "serialpos": 8, "key_press": -1, "wordID": 1148, "type": "PRES_VIS", "trial_index": 233}, "uniqueid": "MTK2271:3LQ8PUHQFMZQYZ8OBWVV8RJIFXKIHB", "dateTime": 1516908968418}, {"current_trial": 234, "trialdata": {"rt": -1, "trial_type": "single-stim", "word": "helmet", "stimulus": "<p id=\"stim\">HELMET</p>", "conditions": [12, 1600, "v", 12000], "internal_node_id": "0.0-171.0", "trial": 6, "time_elapsed": 1210040, "serialpos": 9, "key_press": -1, "wordID": 701, "type": "PRES_VIS", "trial_index": 234}, "uniqueid": "MTK2271:3LQ8PUHQFMZQYZ8OBWVV8RJIFXKIHB", "dateTime": 1516908971062}, {"current_trial": 235, "trialdata": {"rt": -1, "trial_type": "single-stim", "word": "radish", "stimulus": "<p id=\"stim\">RADISH</p>", "conditions": [12, 1600, "v", 12000], "internal_node_id": "0.0-172.0", "trial": 6, "time_elapsed": 1212549, "serialpos": 10, "key_press": -1, "wordID": 1157, "type": "PRES_VIS", "trial_index": 235}, "uniqueid": "MTK2271:3LQ8PUHQFMZQYZ8OBWVV8RJIFXKIHB", "dateTime": 1516908973572}, {"current_trial": 236, "trialdata": {"rt": -1, "trial_type": "single-stim", "word": "dorm", "stimulus": "<p id=\"stim\">DORM</p>", "conditions": [12, 1600, "v", 12000], "internal_node_id": "0.0-173.0", "trial": 6, "time_elapsed": 1214959, "serialpos": 11, "key_press": -1, "wordID": 487, "type": "PRES_VIS", "trial_index": 236}, "uniqueid": "MTK2271:3LQ8PUHQFMZQYZ8OBWVV8RJIFXKIHB", "dateTime": 1516908975982}, {"current_trial": 237, "trialdata": {"rt": -1, "trial_type": "single-stim", "stimulus": "", "internal_node_id": "0.0-174.0-0.0", "time_elapsed": 1217365, "key_press": -1, "type": "PRE_RECALL_DELAY", "trial_index": 237}, "uniqueid": "MTK2271:3LQ8PUHQFMZQYZ8OBWVV8RJIFXKIHB", "dateTime": 1516908978388}, {"current_trial": 238, "trialdata": {"rt": -1000, "trial_type": "single-audio", "stimulus": "/static/audio/400Hz.wav", "internal_node_id": "0.0-175.0", "time_elapsed": 1217867, "key_press": -1, "type": "PRE_RECALL_ALERT", "trial_index": 238}, "uniqueid": "MTK2271:3LQ8PUHQFMZQYZ8OBWVV8RJIFXKIHB", "dateTime": 1516908978889}, {"current_trial": 239, "trialdata": {"rt": [6363, 9318, 14302, 16628, 19980, 23329, 25254, 29866, 35392, 41337], "recwords": ["dorm", "raddish", "widow", "garlic", "church", "spool", "jello", "cashier", "helmet", "rod"], "key_times": [3928, 4066, 4202, 4443, 4926, 5103, 6024, 6123, 6363, 6619, 6883, 7136, 7307, 7856, 8044, 8200, 9318, 13444, 13652, 13790, 13926, 14063, 14302, 14951, 15212, 15444, 15863, 16103, 16186, 16628, 18628, 18700, 19013, 19325, 19564, 19673, 19980, 21460, 22296, 22489, 22648, 22852, 23329, 24080, 24197, 24365, 24524, 24731, 25254, 25600, 25763, 25921, 26145, 26254, 26386, 26482, 27373, 27549, 27731, 27894, 28072, 28241, 28362, 28573, 29124, 29325, 29410, 29490, 29866, 33656, 34434, 34529, 34767, 35074, 35276, 35392, 40938, 41040, 41179, 41337], "trial_type": "free-recall", "conditions": [12, 1600, "v", 12000], "internal_node_id": "0.0-176.0-0.0", "key_presses": [68, 79, 87, 78, 8, 8, 82, 77, 13, 82, 65, 68, 68, 73, 83, 72, 13, 87, 73, 68, 79, 87, 13, 71, 65, 82, 76, 73, 67, 13, 67, 72, 85, 82, 67, 72, 13, 83, 80, 79, 79, 76, 13, 74, 69, 76, 76, 79, 13, 67, 72, 65, 83, 73, 69, 82, 8, 8, 8, 8, 8, 8, 65, 83, 72, 73, 69, 82, 13, 72, 69, 76, 77, 69, 84, 13, 82, 79, 68, 13], "trial": 6, "time_elapsed": 1277869, "type": "FREE_RECALL", "trial_index": 239}, "uniqueid": "MTK2271:3LQ8PUHQFMZQYZ8OBWVV8RJIFXKIHB", "dateTime": 1516909038894}, {"current_trial": 240, "trialdata": {"rt": 1202, "trial_type": "text", "internal_node_id": "0.0-177.0", "time_elapsed": 1281076, "key_press": 32, "type": "INSTRUCTIONS", "trial_index": 240}, "uniqueid": "MTK2271:3LQ8PUHQFMZQYZ8OBWVV8RJIFXKIHB", "dateTime": 1516909042098}, {"current_trial": 241, "trialdata": {"rt": [3235, 6111, 8799], "trial_type": "math-distractor", "key_times": [2936, 3139, 3235, 5881, 5991, 6111, 8293, 8727, 8799, 11632], "responses": ["13", "12", "16"], "num2": [7, 4, 6, 3], "num3": [4, 6, 4, 8], "conditions": [12, 1600, "v", 12000], "internal_node_id": "0.0-178.0", "key_presses": [49, 51, 13, 49, 50, 13, 49, 54, 13, 49], "trial": 7, "time_elapsed": 1295078, "type": "DISTRACTOR", "trial_index": 241, "num1": [2, 2, 6, 8]}, "uniqueid": "MTK2271:3LQ8PUHQFMZQYZ8OBWVV8RJIFXKIHB", "dateTime": 1516909056100}, {"current_trial": 242, "trialdata": {"rt": -1, "trial_type": "single-stim", "stimulus": "<p id=\"stim\">10</p>", "internal_node_id": "0.0-179.0-0.0", "time_elapsed": 1298080, "key_press": -1, "trial_index": 242}, "uniqueid": "MTK2271:3LQ8PUHQFMZQYZ8OBWVV8RJIFXKIHB", "dateTime": 1516909059102}, {"current_trial": 243, "trialdata": {"rt": -1, "trial_type": "single-stim", "stimulus": "<p id=\"stim\">9</p>", "internal_node_id": "0.0-179.0-1.0", "time_elapsed": 1299081, "key_press": -1, "trial_index": 243}, "uniqueid": "MTK2271:3LQ8PUHQFMZQYZ8OBWVV8RJIFXKIHB", "dateTime": 1516909060103}, {"current_trial": 244, "trialdata": {"rt": -1, "trial_type": "single-stim", "stimulus": "<p id=\"stim\">8</p>", "internal_node_id": "0.0-179.0-2.0", "time_elapsed": 1300082, "key_press": -1, "trial_index": 244}, "uniqueid": "MTK2271:3LQ8PUHQFMZQYZ8OBWVV8RJIFXKIHB", "dateTime": 1516909061104}, {"current_trial": 245, "trialdata": {"rt": -1, "trial_type": "single-stim", "stimulus": "<p id=\"stim\">7</p>", "internal_node_id": "0.0-179.0-3.0", "time_elapsed": 1301083, "key_press": -1, "trial_index": 245}, "uniqueid": "MTK2271:3LQ8PUHQFMZQYZ8OBWVV8RJIFXKIHB", "dateTime": 1516909062105}, {"current_trial": 246, "trialdata": {"rt": -1, "trial_type": "single-stim", "stimulus": "<p id=\"stim\">6</p>", "internal_node_id": "0.0-179.0-4.0", "time_elapsed": 1302084, "key_press": -1, "trial_index": 246}, "uniqueid": "MTK2271:3LQ8PUHQFMZQYZ8OBWVV8RJIFXKIHB", "dateTime": 1516909063106}, {"current_trial": 247, "trialdata": {"rt": -1, "trial_type": "single-stim", "stimulus": "<p id=\"stim\">5</p>", "internal_node_id": "0.0-179.0-5.0", "time_elapsed": 1303085, "key_press": -1, "trial_index": 247}, "uniqueid": "MTK2271:3LQ8PUHQFMZQYZ8OBWVV8RJIFXKIHB", "dateTime": 1516909064107}, {"current_trial": 248, "trialdata": {"rt": -1, "trial_type":