{"assignmentId": "39OWYR0EPLYSA3WNKOTYRU1TQVWFYW", "workerId": "MTK2569", "questiondata": {"origin": "United States", "strat-rehearsal": "68", "marital": "Married/Domestic Partnership", "education": "Associate degree", "ethnicity": "Hispanic", "color_depth": 24, "distracted": "No", "wrote-notes": "Yes", "strat-other": "", "screen_width": 1366, "avail_screen_width": 1366, "avail_screen_height": 728, "strat-image": "42", "language": "English", "gender": "Female", "age": "31", "gender_other": "", "race": ["White"], "strat-categorize": "44", "pixel_depth": 24, "strat-spatial": "1", "strat-story": "13", "race_other": "", "screen_height": 768}, "bonus": 0, "hitId": "3XD2A6FGFN1KQNV7SUWFASVXM88S93", "counterbalance": 2896, "useragent": "Mozilla/5.0 (Windows NT 10.0; Win64; x64) AppleWebKit/537.36 (KHTML, like Gecko) Chrome/63.0.3239.132 Safari/537.36", "eventdata": [{"eventtype": "initialized", "interval": 0, "value": null, "timestamp": 1519072388887}, {"eventtype": "window_resize", "interval": 0, "value": [1366, 721], "timestamp": 1519072388887}, {"eventtype": "window_resize", "interval": 2547, "value": [1366, 677], "timestamp": 1519072391434}, {"eventtype": "focus", "interval": 1346512, "value": "off", "timestamp": 1519073737946}, {"eventtype": "focus", "interval": 1651, "value": "on", "timestamp": 1519073739597}, {"eventtype": "focus", "interval": 503, "value": "off", "timestamp": 1519073740100}, {"eventtype": "focus", "interval": 8854, "value": "on", "timestamp": 1519073748954}, {"eventtype": "focus", "interval": 400815, "value": "off", "timestamp": 1519074149769}, {"eventtype": "focus", "interval": 7176, "value": "on", "timestamp": 1519074156945}, {"eventtype": "focus", "interval": 495565, "value": "off", "timestamp": 1519074652510}, {"eventtype": "focus", "interval": 2997, "value": "on", "timestamp": 1519074655507}, {"eventtype": "focus", "interval": 86650, "value": "off", "timestamp": 1519074742157}, {"eventtype": "focus", "interval": 17443, "value": "on", "timestamp": 1519074759600}, {"eventtype": "focus", "interval": 2201, "value": "off", "timestamp": 1519074761801}, {"eventtype": "focus", "interval": 10513, "value": "on", "timestamp": 1519074772314}], "data": [{"current_trial": 0, "trialdata": {"rt": 3831, "trial_type": "text", "internal_node_id": "0.0-0.0", "time_elapsed": 3836, "key_press": 13, "type": "INSTRUCTIONS", "trial_index": 0}, "uniqueid": "MTK2569:39OWYR0EPLYSA3WNKOTYRU1TQVWFYW", "dateTime": 1519072393225}, {"current_trial": 1, "trialdata": {"rt": 8945, "trial_type": "text", "internal_node_id": "0.0-1.0", "time_elapsed": 12783, "key_press": 13, "type": "INSTRUCTIONS", "trial_index": 1}, "uniqueid": "MTK2569:39OWYR0EPLYSA3WNKOTYRU1TQVWFYW", "dateTime": 1519072402171}, {"current_trial": 2, "trialdata": {"rt": [5328], "trial_type": "audio-test", "responses": ["ocean"], "internal_node_id": "0.0-2.0", "time_elapsed": 18120, "type": "AUDIO_TEST", "trial_index": 2}, "uniqueid": "MTK2569:39OWYR0EPLYSA3WNKOTYRU1TQVWFYW", "dateTime": 1519072407508}, {"current_trial": 3, "trialdata": {"rt": [8757], "trial_type": "audio-test", "responses": ["crystal"], "internal_node_id": "0.0-3.0", "time_elapsed": 26881, "type": "AUDIO_TEST", "trial_index": 3}, "uniqueid": "MTK2569:39OWYR0EPLYSA3WNKOTYRU1TQVWFYW", "dateTime": 1519072416270}, {"current_trial": 4, "trialdata": {"rt": [4680], "trial_type": "audio-test", "responses": ["spice"], "internal_node_id": "0.0-4.0", "time_elapsed": 31567, "type": "AUDIO_TEST", "trial_index": 4}, "uniqueid": "MTK2569:39OWYR0EPLYSA3WNKOTYRU1TQVWFYW", "dateTime": 1519072420955}, {"current_trial": 5, "trialdata": {"rt": 17495, "trial_type": "survey-text", "responses": "{\"Q0\":\"11pm\",\"Q1\":\"5am\",\"Q2\":\"4\"}", "internal_node_id": "0.0-5.0", "time_elapsed": 49816, "type": "SLEEP_SURVEY", "trial_index": 5}, "uniqueid": "MTK2569:39OWYR0EPLYSA3WNKOTYRU1TQVWFYW", "dateTime": 1519072439204}, {"current_trial": 6, "trialdata": {"rt": 26196, "trial_type": "text", "internal_node_id": "0.0-6.0", "time_elapsed": 77015, "key_press": 13, "type": "INSTRUCTIONS", "trial_index": 6}, "uniqueid": "MTK2569:39OWYR0EPLYSA3WNKOTYRU1TQVWFYW", "dateTime": 1519072466403}, {"current_trial": 7, "trialdata": {"rt": 10596, "trial_type": "text", "internal_node_id": "0.0-7.0", "time_elapsed": 88113, "key_press": 13, "type": "INSTRUCTIONS", "trial_index": 7}, "uniqueid": "MTK2569:39OWYR0EPLYSA3WNKOTYRU1TQVWFYW", "dateTime": 1519072477501}, {"current_trial": 8, "trialdata": {"rt": 9023, "trial_type": "text", "internal_node_id": "0.0-8.0", "time_elapsed": 97638, "key_press": 13, "type": "INSTRUCTIONS", "trial_index": 8}, "uniqueid": "MTK2569:39OWYR0EPLYSA3WNKOTYRU1TQVWFYW", "dateTime": 1519072487026}, {"current_trial": 9, "trialdata": {"rt": [6711, 10995, 15804], "trial_type": "math-distractor", "key_times": [6237, 6337, 6711, 10404, 10545, 10995, 14896, 15018, 15804], "responses": ["20", "20", "21"], "num2": [9, 5, 3, 6], "num3": [8, 8, 9, 5], "conditions": [18, 1200, "v", 18000], "internal_node_id": "0.0-9.0", "key_presses": [98, 96, 13, 98, 96, 13, 98, 97, 13], "trial": 0, "time_elapsed": 116649, "type": "DISTRACTOR", "trial_index": 9, "num1": [3, 7, 9, 1]}, "uniqueid": "MTK2569:39OWYR0EPLYSA3WNKOTYRU1TQVWFYW", "dateTime": 1519072506037}, {"current_trial": 10, "trialdata": {"rt": -1, "trial_type": "single-stim", "stimulus": "<p id=\"stim\">10</p>", "internal_node_id": "0.0-10.0-0.0", "time_elapsed": 119653, "key_press": -1, "trial_index": 10}, "uniqueid": "MTK2569:39OWYR0EPLYSA3WNKOTYRU1TQVWFYW", "dateTime": 1519072509041}, {"current_trial": 11, "trialdata": {"rt": -1, "trial_type": "single-stim", "stimulus": "<p id=\"stim\">9</p>", "internal_node_id": "0.0-10.0-1.0", "time_elapsed": 120655, "key_press": -1, "trial_index": 11}, "uniqueid": "MTK2569:39OWYR0EPLYSA3WNKOTYRU1TQVWFYW", "dateTime": 1519072510043}, {"current_trial": 12, "trialdata": {"rt": -1, "trial_type": "single-stim", "stimulus": "<p id=\"stim\">8</p>", "internal_node_id": "0.0-10.0-2.0", "time_elapsed": 121658, "key_press": -1, "trial_index": 12}, "uniqueid": "MTK2569:39OWYR0EPLYSA3WNKOTYRU1TQVWFYW", "dateTime": 1519072511046}, {"current_trial": 13, "trialdata": {"rt": -1, "trial_type": "single-stim", "stimulus": "<p id=\"stim\">7</p>", "internal_node_id": "0.0-10.0-3.0", "time_elapsed": 122659, "key_press": -1, "trial_index": 13}, "uniqueid": "MTK2569:39OWYR0EPLYSA3WNKOTYRU1TQVWFYW", "dateTime": 1519072512048}, {"current_trial": 14, "trialdata": {"rt": -1, "trial_type": "single-stim", "stimulus": "<p id=\"stim\">6</p>", "internal_node_id": "0.0-10.0-4.0", "time_elapsed": 123661, "key_press": -1, "trial_index": 14}, "uniqueid": "MTK2569:39OWYR0EPLYSA3WNKOTYRU1TQVWFYW", "dateTime": 1519072513049}, {"current_trial": 15, "trialdata": {"rt": -1, "trial_type": "single-stim", "stimulus": "<p id=\"stim\">5</p>", "internal_node_id": "0.0-10.0-5.0", "time_elapsed": 124664, "key_press": -1, "trial_index": 15}, "uniqueid": "MTK2569:39OWYR0EPLYSA3WNKOTYRU1TQVWFYW", "dateTime": 1519072514052}, {"current_trial": 16, "trialdata": {"rt": -1, "trial_type": "single-stim", "stimulus": "<p id=\"stim\">4</p>", "internal_node_id": "0.0-10.0-6.0", "time_elapsed": 125667, "key_press": -1, "trial_index": 16}, "uniqueid": "MTK2569:39OWYR0EPLYSA3WNKOTYRU1TQVWFYW", "dateTime": 1519072515055}, {"current_trial": 17, "trialdata": {"rt": -1, "trial_type": "single-stim", "stimulus": "<p id=\"stim\">3</p>", "internal_node_id": "0.0-10.0-7.0", "time_elapsed": 126670, "key_press": -1, "trial_index": 17}, "uniqueid": "MTK2569:39OWYR0EPLYSA3WNKOTYRU1TQVWFYW", "dateTime": 1519072516058}, {"current_trial": 18, "trialdata": {"rt": -1, "trial_type": "single-stim", "stimulus": "<p id=\"stim\">2</p>", "internal_node_id": "0.0-10.0-8.0", "time_elapsed": 127672, "key_press": -1, "trial_index": 18}, "uniqueid": "MTK2569:39OWYR0EPLYSA3WNKOTYRU1TQVWFYW", "dateTime": 1519072517060}, {"current_trial": 19, "trialdata": {"rt": -1, "trial_type": "single-stim", "stimulus": "<p id=\"stim\">1</p>", "internal_node_id": "0.0-10.0-9.0", "time_elapsed": 128673, "key_press": -1, "trial_index": 19}, "uniqueid": "MTK2569:39OWYR0EPLYSA3WNKOTYRU1TQVWFYW", "dateTime": 1519072518062}, {"current_trial": 20, "trialdata": {"rt": -1, "trial_type": "single-stim", "stimulus": "<p id=\"stim\">+</p>", "internal_node_id": "0.0-11.0-0.0", "time_elapsed": 130175, "key_press": -1, "type": "FIXATION", "trial_index": 20}, "uniqueid": "MTK2569:39OWYR0EPLYSA3WNKOTYRU1TQVWFYW", "dateTime": 1519072519563}, {"current_trial": 21, "trialdata": {"rt": -1, "trial_type": "single-stim", "word": "flask", "stimulus": "<p id=\"stim\">FLASK</p>", "conditions": [18, 1200, "v", 18000], "internal_node_id": "0.0-12.0", "trial": 0, "time_elapsed": 131378, "serialpos": 0, "key_press": -1, "wordID": 575, "type": "PRES_VIS", "trial_index": 21}, "uniqueid": "MTK2569:39OWYR0EPLYSA3WNKOTYRU1TQVWFYW", "dateTime": 1519072520766}, {"current_trial": 22, "trialdata": {"rt": -1, "trial_type": "single-stim", "word": "clock", "stimulus": "<p id=\"stim\">CLOCK</p>", "conditions": [18, 1200, "v", 18000], "internal_node_id": "0.0-13.0", "trial": 0, "time_elapsed": 133518, "serialpos": 1, "key_press": -1, "wordID": 324, "type": "PRES_VIS", "trial_index": 22}, "uniqueid": "MTK2569:39OWYR0EPLYSA3WNKOTYRU1TQVWFYW", "dateTime": 1519072522906}, {"current_trial": 23, "trialdata": {"rt": -1, "trial_type": "single-stim", "word": "playground", "stimulus": "<p id=\"stim\">PLAYGROUND</p>", "conditions": [18, 1200, "v", 18000], "internal_node_id": "0.0-14.0", "trial": 0, "time_elapsed": 135675, "serialpos": 2, "key_press": -1, "wordID": 1086, "type": "PRES_VIS", "trial_index": 23}, "uniqueid": "MTK2569:39OWYR0EPLYSA3WNKOTYRU1TQVWFYW", "dateTime": 1519072525064}, {"current_trial": 24, "trialdata": {"rt": -1, "trial_type": "single-stim", "word": "brook", "stimulus": "<p id=\"stim\">BROOK</p>", "conditions": [18, 1200, "v", 18000], "internal_node_id": "0.0-15.0", "trial": 0, "time_elapsed": 137780, "serialpos": 3, "key_press": -1, "wordID": 176, "type": "PRES_VIS", "trial_index": 24}, "uniqueid": "MTK2569:39OWYR0EPLYSA3WNKOTYRU1TQVWFYW", "dateTime": 1519072527169}, {"current_trial": 25, "trialdata": {"rt": -1, "trial_type": "single-stim", "word": "shoulder", "stimulus": "<p id=\"stim\">SHOULDER</p>", "conditions": [18, 1200, "v", 18000], "internal_node_id": "0.0-16.0", "trial": 0, "time_elapsed": 139907, "serialpos": 4, "key_press": -1, "wordID": 1293, "type": "PRES_VIS", "trial_index": 25}, "uniqueid": "MTK2569:39OWYR0EPLYSA3WNKOTYRU1TQVWFYW", "dateTime": 1519072529295}, {"current_trial": 26, "trialdata": {"rt": -1, "trial_type": "single-stim", "word": "treat", "stimulus": "<p id=\"stim\">TREAT</p>", "conditions": [18, 1200, "v", 18000], "internal_node_id": "0.0-17.0", "trial": 0, "time_elapsed": 141973, "serialpos": 5, "key_press": -1, "wordID": 1500, "type": "PRES_VIS", "trial_index": 26}, "uniqueid": "MTK2569:39OWYR0EPLYSA3WNKOTYRU1TQVWFYW", "dateTime": 1519072531361}, {"current_trial": 27, "trialdata": {"rt": -1, "trial_type": "single-stim", "word": "journal", "stimulus": "<p id=\"stim\">JOURNAL</p>", "conditions": [18, 1200, "v", 18000], "internal_node_id": "0.0-18.0", "trial": 0, "time_elapsed": 144302, "serialpos": 6, "key_press": -1, "wordID": 759, "type": "PRES_VIS", "trial_index": 27}, "uniqueid": "MTK2569:39OWYR0EPLYSA3WNKOTYRU1TQVWFYW", "dateTime": 1519072533690}, {"current_trial": 28, "trialdata": {"rt": -1, "trial_type": "single-stim", "word": "razor", "stimulus": "<p id=\"stim\">RAZOR</p>", "conditions": [18, 1200, "v", 18000], "internal_node_id": "0.0-19.0", "trial": 0, "time_elapsed": 146310, "serialpos": 7, "key_press": -1, "wordID": 1170, "type": "PRES_VIS", "trial_index": 28}, "uniqueid": "MTK2569:39OWYR0EPLYSA3WNKOTYRU1TQVWFYW", "dateTime": 1519072535698}, {"current_trial": 29, "trialdata": {"rt": -1, "trial_type": "single-stim", "word": "canyon", "stimulus": "<p id=\"stim\">CANYON</p>", "conditions": [18, 1200, "v", 18000], "internal_node_id": "0.0-20.0", "trial": 0, "time_elapsed": 148663, "serialpos": 8, "key_press": -1, "wordID": 234, "type": "PRES_VIS", "trial_index": 29}, "uniqueid": "MTK2569:39OWYR0EPLYSA3WNKOTYRU1TQVWFYW", "dateTime": 1519072538052}, {"current_trial": 30, "trialdata": {"rt": -1, "trial_type": "single-stim", "word": "jury", "stimulus": "<p id=\"stim\">JURY</p>", "conditions": [18, 1200, "v", 18000], "internal_node_id": "0.0-21.0", "trial": 0, "time_elapsed": 150912, "serialpos": 9, "key_press": -1, "wordID": 765, "type": "PRES_VIS", "trial_index": 30}, "uniqueid": "MTK2569:39OWYR0EPLYSA3WNKOTYRU1TQVWFYW", "dateTime": 1519072540300}, {"current_trial": 31, "trialdata": {"rt": -1, "trial_type": "single-stim", "word": "dolphin", "stimulus": "<p id=\"stim\">DOLPHIN</p>", "conditions": [18, 1200, "v", 18000], "internal_node_id": "0.0-22.0", "trial": 0, "time_elapsed": 152971, "serialpos": 10, "key_press": -1, "wordID": 482, "type": "PRES_VIS", "trial_index": 31}, "uniqueid": "MTK2569:39OWYR0EPLYSA3WNKOTYRU1TQVWFYW", "dateTime": 1519072542359}, {"current_trial": 32, "trialdata": {"rt": -1, "trial_type": "single-stim", "word": "cook", "stimulus": "<p id=\"stim\">COOK</p>", "conditions": [18, 1200, "v", 18000], "internal_node_id": "0.0-23.0", "trial": 0, "time_elapsed": 155258, "serialpos": 11, "key_press": -1, "wordID": 371, "type": "PRES_VIS", "trial_index": 32}, "uniqueid": "MTK2569:39OWYR0EPLYSA3WNKOTYRU1TQVWFYW", "dateTime": 1519072544646}, {"current_trial": 33, "trialdata": {"rt": -1, "trial_type": "single-stim", "word": "waiter", "stimulus": "<p id=\"stim\">WAITER</p>", "conditions": [18, 1200, "v", 18000], "internal_node_id": "0.0-24.0", "trial": 0, "time_elapsed": 157288, "serialpos": 12, "key_press": -1, "wordID": 1579, "type": "PRES_VIS", "trial_index": 33}, "uniqueid": "MTK2569:39OWYR0EPLYSA3WNKOTYRU1TQVWFYW", "dateTime": 1519072546676}, {"current_trial": 34, "trialdata": {"rt": -1, "trial_type": "single-stim", "word": "boyfriend", "stimulus": "<p id=\"stim\">BOYFRIEND</p>", "conditions": [18, 1200, "v", 18000], "internal_node_id": "0.0-25.0", "trial": 0, "time_elapsed": 159584, "serialpos": 13, "key_press": -1, "wordID": 161, "type": "PRES_VIS", "trial_index": 34}, "uniqueid": "MTK2569:39OWYR0EPLYSA3WNKOTYRU1TQVWFYW", "dateTime": 1519072548972}, {"current_trial": 35, "trialdata": {"rt": -1, "trial_type": "single-stim", "word": "judge", "stimulus": "<p id=\"stim\">JUDGE</p>", "conditions": [18, 1200, "v", 18000], "internal_node_id": "0.0-26.0", "trial": 0, "time_elapsed": 161765, "serialpos": 14, "key_press": -1, "wordID": 760, "type": "PRES_VIS", "trial_index": 35}, "uniqueid": "MTK2569:39OWYR0EPLYSA3WNKOTYRU1TQVWFYW", "dateTime": 1519072551153}, {"current_trial": 36, "trialdata": {"rt": -1, "trial_type": "single-stim", "word": "nomad", "stimulus": "<p id=\"stim\">NOMAD</p>", "conditions": [18, 1200, "v", 18000], "internal_node_id": "0.0-27.0", "trial": 0, "time_elapsed": 164000, "serialpos": 15, "key_press": -1, "wordID": 954, "type": "PRES_VIS", "trial_index": 36}, "uniqueid": "MTK2569:39OWYR0EPLYSA3WNKOTYRU1TQVWFYW", "dateTime": 1519072553388}, {"current_trial": 37, "trialdata": {"rt": -1, "trial_type": "single-stim", "word": "curtain", "stimulus": "<p id=\"stim\">CURTAIN</p>", "conditions": [18, 1200, "v", 18000], "internal_node_id": "0.0-28.0", "trial": 0, "time_elapsed": 166042, "serialpos": 16, "key_press": -1, "wordID": 426, "type": "PRES_VIS", "trial_index": 37}, "uniqueid": "MTK2569:39OWYR0EPLYSA3WNKOTYRU1TQVWFYW", "dateTime": 1519072555430}, {"current_trial": 38, "trialdata": {"rt": -1, "trial_type": "single-stim", "word": "london", "stimulus": "<p id=\"stim\">LONDON</p>", "conditions": [18, 1200, "v", 18000], "internal_node_id": "0.0-29.0", "trial": 0, "time_elapsed": 168236, "serialpos": 17, "key_press": -1, "wordID": 842, "type": "PRES_VIS", "trial_index": 38}, "uniqueid": "MTK2569:39OWYR0EPLYSA3WNKOTYRU1TQVWFYW", "dateTime": 1519072557624}, {"current_trial": 39, "trialdata": {"rt": -1, "trial_type": "single-stim", "stimulus": "", "internal_node_id": "0.0-30.0-0.0", "time_elapsed": 170724, "key_press": -1, "type": "PRE_RECALL_DELAY", "trial_index": 39}, "uniqueid": "MTK2569:39OWYR0EPLYSA3WNKOTYRU1TQVWFYW", "dateTime": 1519072560112}, {"current_trial": 40, "trialdata": {"rt": -1000, "trial_type": "single-audio", "stimulus": "/static/audio/400Hz.wav", "internal_node_id": "0.0-31.0", "time_elapsed": 171228, "key_press": -1, "type": "PRE_RECALL_ALERT", "trial_index": 40}, "uniqueid": "MTK2569:39OWYR0EPLYSA3WNKOTYRU1TQVWFYW", "dateTime": 1519072560616}, {"current_trial": 41, "trialdata": {"rt": [1951, 5918, 7619, 9488, 15228, 18857, 19939, 21351, 25360, 36329], "recwords": ["london", "playground", "shoulder", "razor", "boyfriends", "flask", "cook", "waiter", "brook", "nomad"], "key_times": [1134, 1262, 1463, 1586, 1693, 1787, 1951, 2906, 3115, 3269, 3403, 3907, 4147, 4263, 4405, 4767, 5307, 5684, 5770, 5918, 6152, 6252, 6394, 6507, 6707, 7036, 7347, 7481, 7619, 8249, 8375, 8768, 9002, 9271, 9488, 10307, 10876, 10999, 11537, 11692, 12426, 12555, 12754, 13033, 13243, 13429, 13777, 13909, 14040, 14142, 14234, 14378, 14497, 14634, 14792, 14869, 15038, 15228, 17477, 18295, 18417, 18558, 18667, 18857, 19272, 19409, 19565, 19698, 19939, 20485, 20704, 20816, 20973, 21075, 21205, 21351, 24618, 24741, 24892, 25059, 25145, 25360, 35423, 35605, 35834, 36033, 36168, 36329], "trial_type": "free-recall", "conditions": [18, 1200, "v", 18000], "internal_node_id": "0.0-32.0-0.0", "key_presses": [76, 79, 78, 68, 79, 78, 13, 80, 76, 65, 89, 71, 82, 79, 85, 72, 8, 78, 68, 13, 83, 72, 79, 85, 76, 68, 69, 82, 13, 82, 65, 90, 79, 82, 13, 66, 80, 79, 8, 8, 79, 89, 82, 70, 82, 69, 8, 8, 8, 8, 70, 82, 73, 69, 78, 68, 83, 13, 70, 76, 65, 83, 75, 13, 67, 79, 79, 75, 13, 87, 65, 73, 84, 69, 82, 13, 66, 82, 79, 79, 75, 13, 78, 79, 77, 65, 68, 13], "trial": 0, "time_elapsed": 231233, "type": "FREE_RECALL", "trial_index": 41}, "uniqueid": "MTK2569:39OWYR0EPLYSA3WNKOTYRU1TQVWFYW", "dateTime": 1519072620628}, {"current_trial": 42, "trialdata": {"rt": 2224, "trial_type": "text", "internal_node_id": "0.0-33.0", "time_elapsed": 235466, "key_press": 13, "type": "INSTRUCTIONS", "trial_index": 42}, "uniqueid": "MTK2569:39OWYR0EPLYSA3WNKOTYRU1TQVWFYW", "dateTime": 1519072624854}, {"current_trial": 43, "trialdata": {"rt": [2908, 9062, 12886, 16182], "trial_type": "math-distractor", "key_times": [2491, 2551, 2908, 6502, 6550, 8311, 8819, 9062, 12350, 12536, 12886, 15698, 16182], "responses": ["12", "12", "19", "7"], "num2": [2, 1, 9, 1, 8], "num3": [9, 3, 1, 2, 3], "conditions": [18, 1200, "v", 18000], "internal_node_id": "0.0-34.0", "key_presses": [97, 98, 13, 97, 99, 8, 98, 13, 97, 105, 13, 103, 13], "trial": 1, "time_elapsed": 255471, "type": "DISTRACTOR", "trial_index": 43, "num1": [1, 8, 9, 4, 5]}, "uniqueid": "MTK2569:39OWYR0EPLYSA3WNKOTYRU1TQVWFYW", "dateTime": 1519072644859}, {"current_trial": 44, "trialdata": {"rt": -1, "trial_type": "single-stim", "stimulus": "<p id=\"stim\">10</p>", "internal_node_id": "0.0-35.0-0.0", "time_elapsed": 258473, "key_press": -1, "trial_index": 44}, "uniqueid": "MTK2569:39OWYR0EPLYSA3WNKOTYRU1TQVWFYW", "dateTime": 1519072647861}, {"current_trial": 45, "trialdata": {"rt": -1, "trial_type": "single-stim", "stimulus": "<p id=\"stim\">9</p>", "internal_node_id": "0.0-35.0-1.0", "time_elapsed": 259475, "key_press": -1, "trial_index": 45}, "uniqueid": "MTK2569:39OWYR0EPLYSA3WNKOTYRU1TQVWFYW", "dateTime": 1519072648863}, {"current_trial": 46, "trialdata": {"rt": -1, "trial_type": "single-stim", "stimulus": "<p id=\"stim\">8</p>", "internal_node_id": "0.0-35.0-2.0", "time_elapsed": 260477, "key_press": -1, "trial_index": 46}, "uniqueid": "MTK2569:39OWYR0EPLYSA3WNKOTYRU1TQVWFYW", "dateTime": 1519072649865}, {"current_trial": 47, "trialdata": {"rt": -1, "trial_type": "single-stim", "stimulus": "<p id=\"stim\">7</p>", "internal_node_id": "0.0-35.0-3.0", "time_elapsed": 261479, "key_press": -1, "trial_index": 47}, "uniqueid": "MTK2569:39OWYR0EPLYSA3WNKOTYRU1TQVWFYW", "dateTime": 1519072650867}, {"current_trial": 48, "trialdata": {"rt": -1, "trial_type": "single-stim", "stimulus": "<p id=\"stim\">6</p>", "internal_node_id": "0.0-35.0-4.0", "time_elapsed": 262480, "key_press": -1, "trial_index": 48}, "uniqueid": "MTK2569:39OWYR0EPLYSA3WNKOTYRU1TQVWFYW", "dateTime": 1519072651868}, {"current_trial": 49, "trialdata": {"rt": -1, "trial_type": "single-stim", "stimulus": "<p id=\"stim\">5</p>", "internal_node_id": "0.0-35.0-5.0", "time_elapsed": 263483, "key_press": -1, "trial_index": 49}, "uniqueid": "MTK2569:39OWYR0EPLYSA3WNKOTYRU1TQVWFYW", "dateTime": 1519072652871}, {"current_trial": 50, "trialdata": {"rt": -1, "trial_type": "single-stim", "stimulus": "<p id=\"stim\">4</p>", "internal_node_id": "0.0-35.0-6.0", "time_elapsed": 264484, "key_press": -1, "trial_index": 50}, "uniqueid": "MTK2569:39OWYR0EPLYSA3WNKOTYRU1TQVWFYW", "dateTime": 1519072653872}, {"current_trial": 51, "trialdata": {"rt": -1, "trial_type": "single-stim", "stimulus": "<p id=\"stim\">3</p>", "internal_node_id": "0.0-35.0-7.0", "time_elapsed": 265485, "key_press": -1, "trial_index": 51}, "uniqueid": "MTK2569:39OWYR0EPLYSA3WNKOTYRU1TQVWFYW", "dateTime": 1519072654874}, {"current_trial": 52, "trialdata": {"rt": -1, "trial_type": "single-stim", "stimulus": "<p id=\"stim\">2</p>", "internal_node_id": "0.0-35.0-8.0", "time_elapsed": 266487, "key_press": -1, "trial_index": 52}, "uniqueid": "MTK2569:39OWYR0EPLYSA3WNKOTYRU1TQVWFYW", "dateTime": 1519072655875}, {"current_trial": 53, "trialdata": {"rt": -1, "trial_type": "single-stim", "stimulus": "<p id=\"stim\">1</p>", "internal_node_id": "0.0-35.0-9.0", "time_elapsed": 267489, "key_press": -1, "trial_index": 53}, "uniqueid": "MTK2569:39OWYR0EPLYSA3WNKOTYRU1TQVWFYW", "dateTime": 1519072656877}, {"current_trial": 54, "trialdata": {"rt": -1, "trial_type": "single-stim", "stimulus": "<p id=\"stim\">+</p>", "internal_node_id": "0.0-36.0-0.0", "time_elapsed": 268990, "key_press": -1, "type": "FIXATION", "trial_index": 54}, "uniqueid": "MTK2569:39OWYR0EPLYSA3WNKOTYRU1TQVWFYW", "dateTime": 1519072658379}, {"current_trial": 55, "trialdata": {"rt": -1, "trial_type": "single-stim", "word": "hatchet", "stimulus": "<p id=\"stim\">HATCHET</p>", "conditions": [18, 1200, "v", 18000], "internal_node_id": "0.0-37.0", "trial": 1, "time_elapsed": 270193, "serialpos": 0, "key_press": -1, "wordID": 690, "type": "PRES_VIS", "trial_index": 55}, "uniqueid": "MTK2569:39OWYR0EPLYSA3WNKOTYRU1TQVWFYW", "dateTime": 1519072659581}, {"current_trial": 56, "trialdata": {"rt": -1, "trial_type": "single-stim", "word": "canal", "stimulus": "<p id=\"stim\">CANAL</p>", "conditions": [18, 1200, "v", 18000], "internal_node_id": "0.0-38.0", "trial": 1, "time_elapsed": 272298, "serialpos": 1, "key_press": -1, "wordID": 225, "type": "PRES_VIS", "trial_index": 56}, "uniqueid": "MTK2569:39OWYR0EPLYSA3WNKOTYRU1TQVWFYW", "dateTime": 1519072661687}, {"current_trial": 57, "trialdata": {"rt": -1, "trial_type": "single-stim", "word": "garden", "stimulus": "<p id=\"stim\">GARDEN</p>", "conditions": [18, 1200, "v", 18000], "internal_node_id": "0.0-39.0", "trial": 1, "time_elapsed": 274616, "serialpos": 2, "key_press": -1, "wordID": 622, "type": "PRES_VIS", "trial_index": 57}, "uniqueid": "MTK2569:39OWYR0EPLYSA3WNKOTYRU1TQVWFYW", "dateTime": 1519072664005}, {"current_trial": 58, "trialdata": {"rt": -1, "trial_type": "single-stim", "word": "muffin", "stimulus": "<p id=\"stim\">MUFFIN</p>", "conditions": [18, 1200, "v", 18000], "internal_node_id": "0.0-40.0", "trial": 1, "time_elapsed": 276971, "serialpos": 3, "key_press": -1, "wordID": 928, "type": "PRES_VIS", "trial_index": 58}, "uniqueid": "MTK2569:39OWYR0EPLYSA3WNKOTYRU1TQVWFYW", "dateTime": 1519072666359}, {"current_trial": 59, "trialdata": {"rt": -1, "trial_type": "single-stim", "word": "notebook", "stimulus": "<p id=\"stim\">NOTEBOOK</p>", "conditions": [18, 1200, "v", 18000], "internal_node_id": "0.0-41.0", "trial": 1, "time_elapsed": 279013, "serialpos": 4, "key_press": -1, "wordID": 958, "type": "PRES_VIS", "trial_index": 59}, "uniqueid": "MTK2569:39OWYR0EPLYSA3WNKOTYRU1TQVWFYW", "dateTime": 1519072668401}, {"current_trial": 60, "trialdata": {"rt": -1, "trial_type": "single-stim", "word": "police", "stimulus": "<p id=\"stim\">POLICE</p>", "conditions": [18, 1200, "v", 18000], "internal_node_id": "0.0-42.0", "trial": 1, "time_elapsed": 281018, "serialpos": 5, "key_press": -1, "wordID": 1097, "type": "PRES_VIS", "trial_index": 60}, "uniqueid": "MTK2569:39OWYR0EPLYSA3WNKOTYRU1TQVWFYW", "dateTime": 1519072670407}, {"current_trial": 61, "trialdata": {"rt": -1, "trial_type": "single-stim", "word": "virus", "stimulus": "<p id=\"stim\">VIRUS</p>", "conditions": [18, 1200, "v", 18000], "internal_node_id": "0.0-43.0", "trial": 1, "time_elapsed": 283222, "serialpos": 6, "key_press": -1, "wordID": 1571, "type": "PRES_VIS", "trial_index": 61}, "uniqueid": "MTK2569:39OWYR0EPLYSA3WNKOTYRU1TQVWFYW", "dateTime": 1519072672610}, {"current_trial": 62, "trialdata": {"rt": -1, "trial_type": "single-stim", "word": "fox", "stimulus": "<p id=\"stim\">FOX</p>", "conditions": [18, 1200, "v", 18000], "internal_node_id": "0.0-44.0", "trial": 1, "time_elapsed": 285479, "serialpos": 7, "key_press": -1, "wordID": 597, "type": "PRES_VIS", "trial_index": 62}, "uniqueid": "MTK2569:39OWYR0EPLYSA3WNKOTYRU1TQVWFYW", "dateTime": 1519072674868}, {"current_trial": 63, "trialdata": {"rt": -1, "trial_type": "single-stim", "word": "pepper", "stimulus": "<p id=\"stim\">PEPPER</p>", "conditions": [18, 1200, "v", 18000], "internal_node_id": "0.0-45.0", "trial": 1, "time_elapsed": 287741, "serialpos": 8, "key_press": -1, "wordID": 1046, "type": "PRES_VIS", "trial_index": 63}, "uniqueid": "MTK2569:39OWYR0EPLYSA3WNKOTYRU1TQVWFYW", "dateTime": 1519072677129}, {"current_trial": 64, "trialdata": {"rt": -1, "trial_type": "single-stim", "word": "package", "stimulus": "<p id=\"stim\">PACKAGE</p>", "conditions": [18, 1200, "v", 18000], "internal_node_id": "0.0-46.0", "trial": 1, "time_elapsed": 290136, "serialpos": 9, "key_press": -1, "wordID": 996, "type": "PRES_VIS", "trial_index": 64}, "uniqueid": "MTK2569:39OWYR0EPLYSA3WNKOTYRU1TQVWFYW", "dateTime": 1519072679524}, {"current_trial": 65, "trialdata": {"rt": -1, "trial_type": "single-stim", "word": "toaster", "stimulus": "<p id=\"stim\">TOASTER</p>", "conditions": [18, 1200, "v", 18000], "internal_node_id": "0.0-47.0", "trial": 1, "time_elapsed": 292365, "serialpos": 10, "key_press": -1, "wordID": 1471, "type": "PRES_VIS", "trial_index": 65}, "uniqueid": "MTK2569:39OWYR0EPLYSA3WNKOTYRU1TQVWFYW", "dateTime": 1519072681753}, {"current_trial": 66, "trialdata": {"rt": -1, "trial_type": "single-stim", "word": "buggy", "stimulus": "<p id=\"stim\">BUGGY</p>", "conditions": [18, 1200, "v", 18000], "internal_node_id": "0.0-48.0", "trial": 1, "time_elapsed": 294482, "serialpos": 11, "key_press": -1, "wordID": 187, "type": "PRES_VIS", "trial_index": 66}, "uniqueid": "MTK2569:39OWYR0EPLYSA3WNKOTYRU1TQVWFYW", "dateTime": 1519072683871}, {"current_trial": 67, "trialdata": {"rt": -1, "trial_type": "single-stim", "word": "softball", "stimulus": "<p id=\"stim\">SOFTBALL</p>", "conditions": [18, 1200, "v", 18000], "internal_node_id": "0.0-49.0", "trial": 1, "time_elapsed": 296551, "serialpos": 12, "key_press": -1, "wordID": 1342, "type": "PRES_VIS", "trial_index": 67}, "uniqueid": "MTK2569:39OWYR0EPLYSA3WNKOTYRU1TQVWFYW", "dateTime": 1519072685940}, {"current_trial": 68, "trialdata": {"rt": -1, "trial_type": "single-stim", "word": "chapel", "stimulus": "<p id=\"stim\">CHAPEL</p>", "conditions": [18, 1200, "v", 18000], "internal_node_id": "0.0-50.0", "trial": 1, "time_elapsed": 298916, "serialpos": 13, "key_press": -1, "wordID": 279, "type": "PRES_VIS", "trial_index": 68}, "uniqueid": "MTK2569:39OWYR0EPLYSA3WNKOTYRU1TQVWFYW", "dateTime": 1519072688308}, {"current_trial": 69, "trialdata": {"rt": -1, "trial_type": "single-stim", "word": "eagle", "stimulus": "<p id=\"stim\">EAGLE</p>", "conditions": [18, 1200, "v", 18000], "internal_node_id": "0.0-51.0", "trial": 1, "time_elapsed": 301166, "serialpos": 14, "key_press": -1, "wordID": 511, "type": "PRES_VIS", "trial_index": 69}, "uniqueid": "MTK2569:39OWYR0EPLYSA3WNKOTYRU1TQVWFYW", "dateTime": 1519072690554}, {"current_trial": 70, "trialdata": {"rt": -1, "trial_type": "single-stim", "word": "picnic", "stimulus": "<p id=\"stim\">PICNIC</p>", "conditions": [18, 1200, "v", 18000], "internal_node_id": "0.0-52.0", "trial": 1, "time_elapsed": 303228, "serialpos": 15, "key_press": -1, "wordID": 1059, "type": "PRES_VIS", "trial_index": 70}, "uniqueid": "MTK2569:39OWYR0EPLYSA3WNKOTYRU1TQVWFYW", "dateTime": 1519072692617}, {"current_trial": 71, "trialdata": {"rt": -1, "trial_type": "single-stim", "word": "cigar", "stimulus": "<p id=\"stim\">CIGAR</p>", "conditions": [18, 1200, "v", 18000], "internal_node_id": "0.0-53.0", "trial": 1, "time_elapsed": 305351, "serialpos": 16, "key_press": -1, "wordID": 307, "type": "PRES_VIS", "trial_index": 71}, "uniqueid": "MTK2569:39OWYR0EPLYSA3WNKOTYRU1TQVWFYW", "dateTime": 1519072694739}, {"current_trial": 72, "trialdata": {"rt": -1, "trial_type": "single-stim", "word": "sword", "stimulus": "<p id=\"stim\">SWORD</p>", "conditions": [18, 1200, "v", 18000], "internal_node_id": "0.0-54.0", "trial": 1, "time_elapsed": 307708, "serialpos": 17, "key_press": -1, "wordID": 1422, "type": "PRES_VIS", "trial_index": 72}, "uniqueid": "MTK2569:39OWYR0EPLYSA3WNKOTYRU1TQVWFYW", "dateTime": 1519072697096}, {"current_trial": 73, "trialdata": {"rt": -1, "trial_type": "single-stim", "stimulus": "", "internal_node_id": "0.0-55.0-0.0", "time_elapsed": 310164, "key_press": -1, "type": "PRE_RECALL_DELAY", "trial_index": 73}, "uniqueid": "MTK2569:39OWYR0EPLYSA3WNKOTYRU1TQVWFYW", "dateTime": 1519072699552}, {"current_trial": 74, "trialdata": {"rt": -1000, "trial_type": "single-audio", "stimulus": "/static/audio/400Hz.wav", "internal_node_id": "0.0-56.0", "time_elapsed": 310665, "key_press": -1, "type": "PRE_RECALL_ALERT", "trial_index": 74}, "uniqueid": "MTK2569:39OWYR0EPLYSA3WNKOTYRU1TQVWFYW", "dateTime": 1519072700054}, {"current_trial": 75, "trialdata": {"rt": [2049, 4542, 6763, 11098, 17364, 24449, 25078], "recwords": ["sword", "cigar", "package", "softball", "canal", "picnic", ""], "key_times": [709, 938, 1107, 1668, 1922, 2049, 2488, 2739, 3076, 3217, 3679, 3829, 4133, 4244, 4378, 4542, 5017, 5153, 5387, 5660, 5782, 6448, 6531, 6763, 7741, 8024, 8135, 8345, 8516, 8834, 8947, 9072, 9197, 9321, 9439, 9594, 9699, 9991, 10216, 10532, 10649, 10810, 10931, 11098, 16489, 16730, 16871, 17017, 17120, 17364, 23365, 23454, 23744, 23877, 24059, 24210, 24449, 25078], "trial_type": "free-recall", "conditions": [18, 1200, "v", 18000], "internal_node_id": "0.0-57.0-0.0", "key_presses": [83, 87, 79, 82, 68, 13, 83, 73, 8, 8, 67, 73, 71, 65, 82, 13, 80, 65, 67, 75, 65, 71, 69, 13, 87, 79, 70, 84, 66, 8, 8, 8, 8, 8, 8, 83, 79, 70, 84, 66, 65, 76, 76, 13, 67, 65, 78, 65, 76, 13, 80, 73, 67, 78, 73, 67, 13, 32], "trial": 1, "time_elapsed": 370671, "type": "FREE_RECALL", "trial_index": 75}, "uniqueid": "MTK2569:39OWYR0EPLYSA3WNKOTYRU1TQVWFYW", "dateTime": 1519072760064}, {"current_trial": 76, "trialdata": {"rt": 3625, "trial_type": "text", "internal_node_id": "0.0-58.0", "time_elapsed": 376301, "key_press": 13, "type": "INSTRUCTIONS", "trial_index": 76}, "uniqueid": "MTK2569:39OWYR0EPLYSA3WNKOTYRU1TQVWFYW", "dateTime": 1519072765689}, {"current_trial": 77, "trialdata": {"rt": [2897, 7893, 10025, 13031, 15534, 21847], "trial_type": "math-distractor", "key_times": [2543, 2619, 2897, 7359, 7564, 7893, 9490, 9557, 10025, 12600, 12712, 13031, 15005, 15236, 15534, 21082, 21373, 21847], "responses": ["15", "17", "13", "15", "20", "22"], "num2": [7, 6, 5, 5, 8, 9, 9], "num3": [7, 9, 3, 3, 4, 7, 6], "conditions": [12, 1600, "v", 24000], "internal_node_id": "0.0-59.0", "key_presses": [97, 101, 13, 97, 103, 13, 97, 99, 13, 97, 101, 13, 98, 96, 13, 98, 98, 13], "trial": 2, "time_elapsed": 401305, "type": "DISTRACTOR", "trial_index": 77, "num1": [1, 2, 5, 7, 8, 6, 8]}, "uniqueid": "MTK2569:39OWYR0EPLYSA3WNKOTYRU1TQVWFYW", "dateTime": 1519072790693}, {"current_trial": 78, "trialdata": {"rt": -1, "trial_type": "single-stim", "stimulus": "<p id=\"stim\">10</p>", "internal_node_id": "0.0-60.0-0.0", "time_elapsed": 404307, "key_press": -1, "trial_index": 78}, "uniqueid": "MTK2569:39OWYR0EPLYSA3WNKOTYRU1TQVWFYW", "dateTime": 1519072793695}, {"current_trial": 79, "trialdata": {"rt": -1, "trial_type": "single-stim", "stimulus": "<p id=\"stim\">9</p>", "internal_node_id": "0.0-60.0-1.0", "time_elapsed": 405308, "key_press": -1, "trial_index": 79}, "uniqueid": "MTK2569:39OWYR0EPLYSA3WNKOTYRU1TQVWFYW", "dateTime": 1519072794697}, {"current_trial": 80, "trialdata": {"rt": -1, "trial_type": "single-stim", "stimulus": "<p id=\"stim\">8</p>", "internal_node_id": "0.0-60.0-2.0", "time_elapsed": 406310, "key_press": -1, "trial_index": 80}, "uniqueid": "MTK2569:39OWYR0EPLYSA3WNKOTYRU1TQVWFYW", "dateTime": 1519072795698}, {"current_trial": 81, "trialdata": {"rt": -1, "trial_type": "single-stim", "stimulus": "<p id=\"stim\">7</p>", "internal_node_id": "0.0-60.0-3.0", "time_elapsed": 407312, "key_press": -1, "trial_index": 81}, "uniqueid": "MTK2569:39OWYR0EPLYSA3WNKOTYRU1TQVWFYW", "dateTime": 1519072796700}, {"current_trial": 82, "trialdata": {"rt": -1, "trial_type": "single-stim", "stimulus": "<p id=\"stim\">6</p>", "internal_node_id": "0.0-60.0-4.0", "time_elapsed": 408313, "key_press": -1, "trial_index": 82}, "uniqueid": "MTK2569:39OWYR0EPLYSA3WNKOTYRU1TQVWFYW", "dateTime": 1519072797701}, {"current_trial": 83, "trialdata": {"rt": -1, "trial_type": "single-stim", "stimulus": "<p id=\"stim\">5</p>", "internal_node_id": "0.0-60.0-5.0", "time_elapsed": 409315, "key_press": -1, "trial_index": 83}, "uniqueid": "MTK2569:39OWYR0EPLYSA3WNKOTYRU1TQVWFYW", "dateTime": 1519072798703}, {"current_trial": 84, "trialdata": {"rt": -1, "trial_type": "single-stim", "stimulus": "<p id=\"stim\">4</p>", "internal_node_id": "0.0-60.0-6.0", "time_elapsed": 410317, "key_press": -1, "trial_index": 84}, "uniqueid": "MTK2569:39OWYR0EPLYSA3WNKOTYRU1TQVWFYW", "dateTime": 1519072799705}, {"current_trial": 85, "trialdata": {"rt": -1, "trial_type": "single-stim", "stimulus": "<p id=\"stim\">3</p>", "internal_node_id": "0.0-60.0-7.0", "time_elapsed": 411318, "key_press": -1, "trial_index": 85}, "uniqueid": "MTK2569:39OWYR0EPLYSA3WNKOTYRU1TQVWFYW", "dateTime": 1519072800706}, {"current_trial": 86, "trialdata": {"rt": -1, "trial_type": "single-stim", "stimulus": "<p id=\"stim\">2</p>", "internal_node_id": "0.0-60.0-8.0", "time_elapsed": 412320, "key_press": -1, "trial_index": 86}, "uniqueid": "MTK2569:39OWYR0EPLYSA3WNKOTYRU1TQVWFYW", "dateTime": 1519072801708}, {"current_trial": 87, "trialdata": {"rt": -1, "trial_type": "single-stim", "stimulus": "<p id=\"stim\">1</p>", "internal_node_id": "0.0-60.0-9.0", "time_elapsed": 413322, "key_press": -1, "trial_index": 87}, "uniqueid": "MTK2569:39OWYR0EPLYSA3WNKOTYRU1TQVWFYW", "dateTime": 1519072802710}, {"current_trial": 88, "trialdata": {"rt": -1, "trial_type": "single-stim", "stimulus": "<p id=\"stim\">+</p>", "internal_node_id": "0.0-61.0-0.0", "time_elapsed": 414825, "key_press": -1, "type": "FIXATION", "trial_index": 88}, "uniqueid": "MTK2569:39OWYR0EPLYSA3WNKOTYRU1TQVWFYW", "dateTime": 1519072804213}, {"current_trial": 89, "trialdata": {"rt": -1, "trial_type": "single-stim", "word": "trombone", "stimulus": "<p id=\"stim\">TROMBONE</p>", "conditions": [12, 1600, "v", 24000], "internal_node_id": "0.0-62.0", "trial": 2, "time_elapsed": 416427, "serialpos": 0, "key_press": -1, "wordID": 1507, "type": "PRES_VIS", "trial_index": 89}, "uniqueid": "MTK2569:39OWYR0EPLYSA3WNKOTYRU1TQVWFYW", "dateTime": 1519072805815}, {"current_trial": 90, "trialdata": {"rt": -1, "trial_type": "single-stim", "word": "harp", "stimulus": "<p id=\"stim\">HARP</p>", "conditions": [12, 1600, "v", 24000], "internal_node_id": "0.0-63.0", "trial": 2, "time_elapsed": 418947, "serialpos": 1, "key_press": -1, "wordID": 688, "type": "PRES_VIS", "trial_index": 90}, "uniqueid": "MTK2569:39OWYR0EPLYSA3WNKOTYRU1TQVWFYW", "dateTime": 1519072808336}, {"current_trial": 91, "trialdata": {"rt": -1, "trial_type": "single-stim", "word": "puddle", "stimulus": "<p id=\"stim\">PUDDLE</p>", "conditions": [12, 1600, "v", 24000], "internal_node_id": "0.0-64.0", "trial": 2, "time_elapsed": 421395, "serialpos": 2, "key_press": -1, "wordID": 1139, "type": "PRES_VIS", "trial_index": 91}, "uniqueid": "MTK2569:39OWYR0EPLYSA3WNKOTYRU1TQVWFYW", "dateTime": 1519072810783}, {"current_trial": 92, "trialdata": {"rt": -1, "trial_type": "single-stim", "word": "gallon", "stimulus": "<p id=\"stim\">GALLON</p>", "conditions": [12, 1600, "v", 24000], "internal_node_id": "0.0-65.0", "trial": 2, "time_elapsed": 424061, "serialpos": 3, "key_press": -1, "wordID": 617, "type": "PRES_VIS", "trial_index": 92}, "uniqueid": "MTK2569:39OWYR0EPLYSA3WNKOTYRU1TQVWFYW", "dateTime": 1519072813449}, {"current_trial": 93, "trialdata": {"rt": -1, "trial_type": "single-stim", "word": "highway", "stimulus": "<p id=\"stim\">HIGHWAY</p>", "conditions": [12, 1600, "v", 24000], "internal_node_id": "0.0-66.0", "trial": 2, "time_elapsed": 426543, "serialpos": 4, "key_press": -1, "wordID": 706, "type": "PRES_VIS", "trial_index": 93}, "uniqueid": "MTK2569:39OWYR0EPLYSA3WNKOTYRU1TQVWFYW", "dateTime": 1519072815931}, {"current_trial": 94, "trialdata": {"rt": -1, "trial_type": "single-stim", "word": "cellar", "stimulus": "<p id=\"stim\">CELLAR</p>", "conditions": [12, 1600, "v", 24000], "internal_node_id": "0.0-67.0", "trial": 2, "time_elapsed": 429096, "serialpos": 5, "key_press": -1, "wordID": 266, "type": "PRES_VIS", "trial_index": 94}, "uniqueid": "MTK2569:39OWYR0EPLYSA3WNKOTYRU1TQVWFYW", "dateTime": 1519072818485}, {"current_trial": 95, "trialdata": {"rt": -1, "trial_type": "single-stim", "word": "slime", "stimulus": "<p id=\"stim\">SLIME</p>", "conditions": [12, 1600, "v", 24000], "internal_node_id": "0.0-68.0", "trial": 2, "time_elapsed": 431802, "serialpos": 6, "key_press": -1, "wordID": 1326, "type": "PRES_VIS", "trial_index": 95}, "uniqueid": "MTK2569:39OWYR0EPLYSA3WNKOTYRU1TQVWFYW", "dateTime": 1519072821190}, {"current_trial": 96, "trialdata": {"rt": -1, "trial_type": "single-stim", "word": "sandwich", "stimulus": "<p id=\"stim\">SANDWICH</p>", "conditions": [12, 1600, "v", 24000], "internal_node_id": "0.0-69.0", "trial": 2, "time_elapsed": 434371, "serialpos": 7, "key_press": -1, "wordID": 1231, "type": "PRES_VIS", "trial_index": 96}, "uniqueid": "MTK2569:39OWYR0EPLYSA3WNKOTYRU1TQVWFYW", "dateTime": 1519072823760}, {"current_trial": 97, "trialdata": {"rt": -1, "trial_type": "single-stim", "word": "scarf", "stimulus": "<p id=\"stim\">SCARF</p>", "conditions": [12, 1600, "v", 24000], "internal_node_id": "0.0-70.0", "trial": 2, "time_elapsed": 436934, "serialpos": 8, "key_press": -1, "wordID": 1245, "type": "PRES_VIS", "trial_index": 97}, "uniqueid": "MTK2569:39OWYR0EPLYSA3WNKOTYRU1TQVWFYW", "dateTime": 1519072826323}, {"current_trial": 98, "trialdata": {"rt": -1, "trial_type": "single-stim", "word": "mister", "stimulus": "<p id=\"stim\">MISTER</p>", "conditions": [12, 1600, "v", 24000], "internal_node_id": "0.0-71.0", "trial": 2, "time_elapsed": 439387, "serialpos": 9, "key_press": -1, "wordID": 900, "type": "PRES_VIS", "trial_index": 98}, "uniqueid": "MTK2569:39OWYR0EPLYSA3WNKOTYRU1TQVWFYW", "dateTime": 1519072828775}, {"current_trial": 99, "trialdata": {"rt": -1, "trial_type": "single-stim", "word": "barrel", "stimulus": "<p id=\"stim\">BARREL</p>", "conditions": [12, 1600, "v", 24000], "internal_node_id": "0.0-72.0", "trial": 2, "time_elapsed": 442070, "serialpos": 10, "key_press": -1, "wordID": 90, "type": "PRES_VIS", "trial_index": 99}, "uniqueid": "MTK2569:39OWYR0EPLYSA3WNKOTYRU1TQVWFYW", "dateTime": 1519072831459}, {"current_trial": 100, "trialdata": {"rt": -1, "trial_type": "single-stim", "word": "nurse", "stimulus": "<p id=\"stim\">NURSE</p>", "conditions": [12, 1600, "v", 24000], "internal_node_id": "0.0-73.0", "trial": 2, "time_elapsed": 444519, "serialpos": 11, "key_press": -1, "wordID": 962, "type": "PRES_VIS", "trial_index": 100}, "uniqueid": "MTK2569:39OWYR0EPLYSA3WNKOTYRU1TQVWFYW", "dateTime": 1519072833908}, {"current_trial": 101, "trialdata": {"rt": -1, "trial_type": "single-stim", "stimulus": "", "internal_node_id": "0.0-74.0-0.0", "time_elapsed": 446795, "key_press": -1, "type": "PRE_RECALL_DELAY", "trial_index": 101}, "uniqueid": "MTK2569:39OWYR0EPLYSA3WNKOTYRU1TQVWFYW", "dateTime": 1519072836183}, {"current_trial": 102, "trialdata": {"rt": -1000, "trial_type": "single-audio", "stimulus": "/static/audio/400Hz.wav", "internal_node_id": "0.0-75.0", "time_elapsed": 447303, "key_press": -1, "type": "PRE_RECALL_ALERT", "trial_index": 102}, "uniqueid": "MTK2569:39OWYR0EPLYSA3WNKOTYRU1TQVWFYW", "dateTime": 1519072836691}, {"current_trial": 103, "trialdata": {"rt": [1882, 3295, 5230, 6432, 8041, 10010, 17019, 36527], "recwords": ["barrel", "nurse", "trombone", "harp", "barrel", "scarf", "mister", "cellar"], "key_times": [1042, 1165, 1301, 1441, 1566, 1655, 1882, 2395, 2637, 2797, 3012, 3120, 3295, 3873, 4046, 4227, 4436, 4637, 4816, 5002, 5089, 5230, 5751, 5858, 6062, 6187, 6432, 6914, 7015, 7294, 7503, 7643, 7751, 8041, 8523, 8808, 9103, 9573, 9955, 10010, 16305, 16478, 16542, 16695, 16826, 16953, 17019, 34624, 34969, 35124, 35248, 35410, 35566, 36104, 36235, 36329, 36413, 36527], "trial_type": "free-recall", "conditions": [12, 1600, "v", 24000], "internal_node_id": "0.0-76.0-0.0", "key_presses": [66, 65, 82, 82, 69, 76, 13, 78, 85, 82, 83, 69, 13, 84, 82, 79, 77, 66, 79, 78, 69, 13, 72, 65, 82, 80, 13, 66, 65, 82, 82, 69, 76, 13, 83, 67, 65, 82, 70, 13, 77, 73, 83, 84, 69, 82, 13, 67, 69, 76, 76, 69, 82, 8, 8, 65, 82, 13], "trial": 2, "time_elapsed": 507307, "type": "FREE_RECALL", "trial_index": 103}, "uniqueid": "MTK2569:39OWYR0EPLYSA3WNKOTYRU1TQVWFYW", "dateTime": 1519072896699}, {"current_trial": 104, "trialdata": {"rt": 4127, "trial_type": "text", "internal_node_id": "0.0-77.0", "time_elapsed": 513442, "key_press": 13, "type": "INSTRUCTIONS", "trial_index": 104}, "uniqueid": "MTK2569:39OWYR0EPLYSA3WNKOTYRU1TQVWFYW", "dateTime": 1519072902830}, {"current_trial": 105, "trialdata": {"rt": [7380, 11014], "trial_type": "math-distractor", "key_times": [6794, 7002, 7380, 10664, 10733, 11014], "responses": ["22", "20"], "num2": [9, 7, 8], "num3": [8, 9, 9], "conditions": [24, 800, "v", 12000], "internal_node_id": "0.0-78.0", "key_presses": [98, 98, 13, 98, 96, 13], "trial": 3, "time_elapsed": 527447, "type": "DISTRACTOR", "trial_index": 105, "num1": [5, 4, 6]}, "uniqueid": "MTK2569:39OWYR0EPLYSA3WNKOTYRU1TQVWFYW", "dateTime": 1519072916835}, {"current_trial": 106, "trialdata": {"rt": -1, "trial_type": "single-stim", "stimulus": "<p id=\"stim\">10</p>", "internal_node_id": "0.0-79.0-0.0", "time_elapsed": 530449, "key_press": -1, "trial_index": 106}, "uniqueid": "MTK2569:39OWYR0EPLYSA3WNKOTYRU1TQVWFYW", "dateTime": 1519072919838}, {"current_trial": 107, "trialdata": {"rt": -1, "trial_type": "single-stim", "stimulus": "<p id=\"stim\">9</p>", "internal_node_id": "0.0-79.0-1.0", "time_elapsed": 531451, "key_press": -1, "trial_index": 107}, "uniqueid": "MTK2569:39OWYR0EPLYSA3WNKOTYRU1TQVWFYW", "dateTime": 1519072920840}, {"current_trial": 108, "trialdata": {"rt": -1, "trial_type": "single-stim", "stimulus": "<p id=\"stim\">8</p>", "internal_node_id": "0.0-79.0-2.0", "time_elapsed": 532453, "key_press": -1, "trial_index": 108}, "uniqueid": "MTK2569:39OWYR0EPLYSA3WNKOTYRU1TQVWFYW", "dateTime": 1519072921841}, {"current_trial": 109, "trialdata": {"rt": -1, "trial_type": "single-stim", "stimulus": "<p id=\"stim\">7</p>", "internal_node_id": "0.0-79.0-3.0", "time_elapsed": 533455, "key_press": -1, "trial_index": 109}, "uniqueid": "MTK2569:39OWYR0EPLYSA3WNKOTYRU1TQVWFYW", "dateTime": 1519072922843}, {"current_trial": 110, "trialdata": {"rt": -1, "trial_type": "single-stim", "stimulus": "<p id=\"stim\">6</p>", "internal_node_id": "0.0-79.0-4.0", "time_elapsed": 534456, "key_press": -1, "trial_index": 110}, "uniqueid": "MTK2569:39OWYR0EPLYSA3WNKOTYRU1TQVWFYW", "dateTime": 1519072923845}, {"current_trial": 111, "trialdata": {"rt": -1, "trial_type": "single-stim", "stimulus": "<p id=\"stim\">5</p>", "internal_node_id": "0.0-79.0-5.0", "time_elapsed": 535459, "key_press": -1, "trial_index": 111}, "uniqueid": "MTK2569:39OWYR0EPLYSA3WNKOTYRU1TQVWFYW", "dateTime": 1519072924847}, {"current_trial": 112, "trialdata": {"rt": -1, "trial_type": "single-stim", "stimulus": "<p id=\"stim\">4</p>", "internal_node_id": "0.0-79.0-6.0", "time_elapsed": 536461, "key_press": -1, "trial_index": 112}, "uniqueid": "MTK2569:39OWYR0EPLYSA3WNKOTYRU1TQVWFYW", "dateTime": 1519072925849}, {"current_trial": 113, "trialdata": {"rt": -1, "trial_type": "single-stim", "stimulus": "<p id=\"stim\">3</p>", "internal_node_id": "0.0-79.0-7.0", "time_elapsed": 537462, "key_press": -1, "trial_index": 113}, "uniqueid": "MTK2569:39OWYR0EPLYSA3WNKOTYRU1TQVWFYW", "dateTime": 1519072926851}, {"current_trial": 114, "trialdata": {"rt": -1, "trial_type": "single-stim", "stimulus": "<p id=\"stim\">2</p>", "internal_node_id": "0.0-79.0-8.0", "time_elapsed": 538464, "key_press": -1, "trial_index": 114}, "uniqueid": "MTK2569:39OWYR0EPLYSA3WNKOTYRU1TQVWFYW", "dateTime": 1519072927852}, {"current_trial": 115, "trialdata": {"rt": -1, "trial_type": "single-stim", "stimulus": "<p id=\"stim\">1</p>", "internal_node_id": "0.0-79.0-9.0", "time_elapsed": 539466, "key_press": -1, "trial_index": 115}, "uniqueid": "MTK2569:39OWYR0EPLYSA3WNKOTYRU1TQVWFYW", "dateTime": 1519072928854}, {"current_trial": 116, "trialdata": {"rt": -1, "trial_type": "single-stim", "stimulus": "<p id=\"stim\">+</p>", "internal_node_id": "0.0-80.0-0.0", "time_elapsed": 540968, "key_press": -1, "type": "FIXATION", "trial_index": 116}, "uniqueid": "MTK2569:39OWYR0EPLYSA3WNKOTYRU1TQVWFYW", "dateTime": 1519072930356}, {"current_trial": 117, "trialdata": {"rt": -1, "trial_type": "single-stim", "word": "stomach", "stimulus": "<p id=\"stim\">STOMACH</p>", "conditions": [24, 800, "v", 12000], "internal_node_id": "0.0-81.0", "trial": 3, "time_elapsed": 541770, "serialpos": 0, "key_press": -1, "wordID": 1383, "type": "PRES_VIS", "trial_index": 117}, "uniqueid": "MTK2569:39OWYR0EPLYSA3WNKOTYRU1TQVWFYW", "dateTime": 1519072931158}, {"current_trial": 118, "trialdata": {"rt": -1, "trial_type": "single-stim", "word": "chest", "stimulus": "<p id=\"stim\">CHEST</p>", "conditions": [24, 800, "v", 12000], "internal_node_id": "0.0-82.0", "trial": 3, "time_elapsed": 543588, "serialpos": 1, "key_press": -1, "wordID": 294, "type": "PRES_VIS", "trial_index": 118}, "uniqueid": "MTK2569:39OWYR0EPLYSA3WNKOTYRU1TQVWFYW", "dateTime": 1519072932976}, {"current_trial": 119, "trialdata": {"rt": -1, "trial_type": "single-stim", "word": "shovel", "stimulus": "<p id=\"stim\">SHOVEL</p>", "conditions": [24, 800, "v", 12000], "internal_node_id": "0.0-83.0", "trial": 3, "time_elapsed": 545582, "serialpos": 2, "key_press": -1, "wordID": 1294, "type": "PRES_VIS", "trial_index": 119}, "uniqueid": "MTK2569:39OWYR0EPLYSA3WNKOTYRU1TQVWFYW", "dateTime": 1519072934970}, {"current_trial": 120, "trialdata": {"rt": -1, "trial_type": "single-stim", "word": "baby", "stimulus": "<p id=\"stim\">BABY</p>", "conditions": [24, 800, "v", 12000], "internal_node_id": "0.0-84.0", "trial": 3, "time_elapsed": 547254, "serialpos": 3, "key_press": -1, "wordID": 63, "type": "PRES_VIS", "trial_index": 120}, "uniqueid": "MTK2569:39OWYR0EPLYSA3WNKOTYRU1TQVWFYW", "dateTime": 1519072936642}, {"current_trial": 121, "trialdata": {"rt": -1, "trial_type": "single-stim", "word": "sister", "stimulus": "<p id=\"stim\">SISTER</p>", "conditions": [24, 800, "v", 12000], "internal_node_id": "0.0-85.0", "trial": 3, "time_elapsed": 549025, "serialpos": 4, "key_press": -1, "wordID": 1311, "type": "PRES_VIS", "trial_index": 121}, "uniqueid": "MTK2569:39OWYR0EPLYSA3WNKOTYRU1TQVWFYW", "dateTime": 1519072938414}, {"current_trial": 122, "trialdata": {"rt": -1, "trial_type": "single-stim", "word": "blade", "stimulus": "<p id=\"stim\">BLADE</p>", "conditions": [24, 800, "v", 12000], "internal_node_id": "0.0-86.0", "trial": 3, "time_elapsed": 550728, "serialpos": 5, "key_press": -1, "wordID": 133, "type": "PRES_VIS", "trial_index": 122}, "uniqueid": "MTK2569:39OWYR0EPLYSA3WNKOTYRU1TQVWFYW", "dateTime": 1519072940116}, {"current_trial": 123, "trialdata": {"rt": -1, "trial_type": "single-stim", "word": "girl", "stimulus": "<p id=\"stim\">GIRL</p>", "conditions": [24, 800, "v", 12000], "internal_node_id": "0.0-87.0", "trial": 3, "time_elapsed": 552460, "serialpos": 6, "key_press": -1, "wordID": 636, "type": "PRES_VIS", "trial_index": 123}, "uniqueid": "MTK2569:39OWYR0EPLYSA3WNKOTYRU1TQVWFYW", "dateTime": 1519072941848}, {"current_trial": 124, "trialdata": {"rt": -1, "trial_type": "single-stim", "word": "woman", "stimulus": "<p id=\"stim\">WOMAN</p>", "conditions": [24, 800, "v", 12000], "internal_node_id": "0.0-88.0", "trial": 3, "time_elapsed": 554440, "serialpos": 7, "key_press": -1, "wordID": 1619, "type": "PRES_VIS", "trial_index": 124}, "uniqueid": "MTK2569:39OWYR0EPLYSA3WNKOTYRU1TQVWFYW", "dateTime": 1519072943828}, {"current_trial": 125, "trialdata": {"rt": -1, "trial_type": "single-stim", "word": "ox", "stimulus": "<p id=\"stim\">OX</p>", "conditions": [24, 800, "v", 12000], "internal_node_id": "0.0-89.0", "trial": 3, "time_elapsed": 556069, "serialpos": 8, "key_press": -1, "wordID": 993, "type": "PRES_VIS", "trial_index": 125}, "uniqueid": "MTK2569:39OWYR0EPLYSA3WNKOTYRU1TQVWFYW", "dateTime": 1519072945457}, {"current_trial": 126, "trialdata": {"rt": -1, "trial_type": "single-stim", "word": "doughnut", "stimulus": "<p id=\"stim\">DOUGHNUT</p>", "conditions": [24, 800, "v", 12000], "internal_node_id": "0.0-90.0", "trial": 3, "time_elapsed": 558062, "serialpos": 9, "key_press": -1, "wordID": 489, "type": "PRES_VIS", "trial_index": 126}, "uniqueid": "MTK2569:39OWYR0EPLYSA3WNKOTYRU1TQVWFYW", "dateTime": 1519072947450}, {"current_trial": 127, "trialdata": {"rt": -1, "trial_type": "single-stim", "word": "atom", "stimulus": "<p id=\"stim\">ATOM</p>", "conditions": [24, 800, "v", 12000], "internal_node_id": "0.0-91.0", "trial": 3, "time_elapsed": 559860, "serialpos": 10, "key_press": -1, "wordID": 54, "type": "PRES_VIS", "trial_index": 127}, "uniqueid": "MTK2569:39OWYR0EPLYSA3WNKOTYRU1TQVWFYW", "dateTime": 1519072949248}, {"current_trial": 128, "trialdata": {"rt": -1, "trial_type": "single-stim", "word": "radish", "stimulus": "<p id=\"stim\">RADISH</p>", "conditions": [24, 800, "v", 12000], "internal_node_id": "0.0-92.0", "trial": 3, "time_elapsed": 561613, "serialpos": 11, "key_press": -1, "wordID": 1157, "type": "PRES_VIS", "trial_index": 128}, "uniqueid": "MTK2569:39OWYR0EPLYSA3WNKOTYRU1TQVWFYW", "dateTime": 1519072951001}, {"current_trial": 129, "trialdata": {"rt": -1, "trial_type": "single-stim", "word": "tombstone", "stimulus": "<p id=\"stim\">TOMBSTONE</p>", "conditions": [24, 800, "v", 12000], "internal_node_id": "0.0-93.0", "trial": 3, "time_elapsed": 563386, "serialpos": 12, "key_press": -1, "wordID": 1477, "type": "PRES_VIS", "trial_index": 129}, "uniqueid": "MTK2569:39OWYR0EPLYSA3WNKOTYRU1TQVWFYW", "dateTime": 1519072952774}, {"current_trial": 130, "trialdata": {"rt": -1, "trial_type": "single-stim", "word": "statue", "stimulus": "<p id=\"stim\">STATUE</p>", "conditions": [24, 800, "v", 12000], "internal_node_id": "0.0-94.0", "trial": 3, "time_elapsed": 565269, "serialpos": 13, "key_press": -1, "wordID": 1373, "type": "PRES_VIS", "trial_index": 130}, "uniqueid": "MTK2569:39OWYR0EPLYSA3WNKOTYRU1TQVWFYW", "dateTime": 1519072954657}, {"current_trial": 131, "trialdata": {"rt": -1, "trial_type": "single-stim", "word": "expert", "stimulus": "<p id=\"stim\">EXPERT</p>", "conditions": [24, 800, "v", 12000], "internal_node_id": "0.0-95.0", "trial": 3, "time_elapsed": 567180, "serialpos": 14, "key_press": -1, "wordID": 542, "type": "PRES_VIS", "trial_index": 131}, "uniqueid": "MTK2569:39OWYR0EPLYSA3WNKOTYRU1TQVWFYW", "dateTime": 1519072956568}, {"current_trial": 132, "trialdata": {"rt": -1, "trial_type": "single-stim", "word": "orchid", "stimulus": "<p id=\"stim\">ORCHID</p>", "conditions": [24, 800, "v", 12000], "internal_node_id": "0.0-96.0", "trial": 3, "time_elapsed": 569045, "serialpos": 15, "key_press": -1, "wordID": 981, "type": "PRES_VIS", "trial_index": 132}, "uniqueid": "MTK2569:39OWYR0EPLYSA3WNKOTYRU1TQVWFYW", "dateTime": 1519072958433}, {"current_trial": 133, "trialdata": {"rt": -1, "trial_type": "single-stim", "word": "survey", "stimulus": "<p id=\"stim\">SURVEY</p>", "conditions": [24, 800, "v", 12000], "internal_node_id": "0.0-97.0", "trial": 3, "time_elapsed": 570865, "serialpos": 16, "key_press": -1, "wordID": 1413, "type": "PRES_VIS", "trial_index": 133}, "uniqueid": "MTK2569:39OWYR0EPLYSA3WNKOTYRU1TQVWFYW", "dateTime": 1519072960254}, {"current_trial": 134, "trialdata": {"rt": -1, "trial_type": "single-stim", "word": "custard", "stimulus": "<p id=\"stim\">CUSTARD</p>", "conditions": [24, 800, "v", 12000], "internal_node_id": "0.0-98.0", "trial": 3, "time_elapsed": 572728, "serialpos": 17, "key_press": -1, "wordID": 428, "type": "PRES_VIS", "trial_index": 134}, "uniqueid": "MTK2569:39OWYR0EPLYSA3WNKOTYRU1TQVWFYW", "dateTime": 1519072962116}, {"current_trial": 135, "trialdata": {"rt": -1, "trial_type": "single-stim", "word": "brother", "stimulus": "<p id=\"stim\">BROTHER</p>", "conditions": [24, 800, "v", 12000], "internal_node_id": "0.0-99.0", "trial": 3, "time_elapsed": 574571, "serialpos": 18, "key_press": -1, "wordID": 178, "type": "PRES_VIS", "trial_index": 135}, "uniqueid": "MTK2569:39OWYR0EPLYSA3WNKOTYRU1TQVWFYW", "dateTime": 1519072963959}, {"current_trial": 136, "trialdata": {"rt": -1, "trial_type": "single-stim", "word": "market", "stimulus": "<p id=\"stim\">MARKET</p>", "conditions": [24, 800, "v", 12000], "internal_node_id": "0.0-100.0", "trial": 3, "time_elapsed": 576428, "serialpos": 19, "key_press": -1, "wordID": 870, "type": "PRES_VIS", "trial_index": 136}, "uniqueid": "MTK2569:39OWYR0EPLYSA3WNKOTYRU1TQVWFYW", "dateTime": 1519072965816}, {"current_trial": 137, "trialdata": {"rt": -1, "trial_type": "single-stim", "word": "country", "stimulus": "<p id=\"stim\">COUNTRY</p>", "conditions": [24, 800, "v", 12000], "internal_node_id": "0.0-101.0", "trial": 3, "time_elapsed": 578052, "serialpos": 20, "key_press": -1, "wordID": 387, "type": "PRES_VIS", "trial_index": 137}, "uniqueid": "MTK2569:39OWYR0EPLYSA3WNKOTYRU1TQVWFYW", "dateTime": 1519072967441}, {"current_trial": 138, "trialdata": {"rt": -1, "trial_type": "single-stim", "word": "banker", "stimulus": "<p id=\"stim\">BANKER</p>", "conditions": [24, 800, "v", 12000], "internal_node_id": "0.0-102.0", "trial": 3, "time_elapsed": 579884, "serialpos": 21, "key_press": -1, "wordID": 83, "type": "PRES_VIS", "trial_index": 138}, "uniqueid": "MTK2569:39OWYR0EPLYSA3WNKOTYRU1TQVWFYW", "dateTime": 1519072969272}, {"current_trial": 139, "trialdata": {"rt": -1, "trial_type": "single-stim", "word": "lily", "stimulus": "<p id=\"stim\">LILY</p>", "conditions": [24, 800, "v", 12000], "internal_node_id": "0.0-103.0", "trial": 3, "time_elapsed": 581788, "serialpos": 22, "key_press": -1, "wordID": 820, "type": "PRES_VIS", "trial_index": 139}, "uniqueid": "MTK2569:39OWYR0EPLYSA3WNKOTYRU1TQVWFYW", "dateTime": 1519072971176}, {"current_trial": 140, "trialdata": {"rt": -1, "trial_type": "single-stim", "word": "window", "stimulus": "<p id=\"stim\">WINDOW</p>", "conditions": [24, 800, "v", 12000], "internal_node_id": "0.0-104.0", "trial": 3, "time_elapsed": 583508, "serialpos": 23, "key_press": -1, "wordID": 1610, "type": "PRES_VIS", "trial_index": 140}, "uniqueid": "MTK2569:39OWYR0EPLYSA3WNKOTYRU1TQVWFYW", "dateTime": 1519072972897}, {"current_trial": 141, "trialdata": {"rt": -1, "trial_type": "single-stim", "stimulus": "", "internal_node_id": "0.0-105.0-0.0", "time_elapsed": 585955, "key_press": -1, "type": "PRE_RECALL_DELAY", "trial_index": 141}, "uniqueid": "MTK2569:39OWYR0EPLYSA3WNKOTYRU1TQVWFYW", "dateTime": 1519072975343}, {"current_trial": 142, "trialdata": {"rt": -1000, "trial_type": "single-audio", "stimulus": "/static/audio/400Hz.wav", "internal_node_id": "0.0-106.0", "time_elapsed": 586459, "key_press": -1, "type": "PRE_RECALL_ALERT", "trial_index": 142}, "uniqueid": "MTK2569:39OWYR0EPLYSA3WNKOTYRU1TQVWFYW", "dateTime": 1519072975847}, {"current_trial": 143, "trialdata": {"rt": [1998, 3708, 5488, 6840, 7737, 9415, 10330, 11365, 12739, 22529], "recwords": ["window", "lily", "country", "brother", "sister", "girl", "woman", "baby", "stomach", "ox"], "key_times": [759, 1074, 1289, 1485, 1625, 1902, 1998, 2291, 2614, 2882, 3368, 3708, 4042, 4133, 4217, 4449, 4558, 4699, 4878, 5488, 5928, 6159, 6265, 6402, 6516, 6605, 6703, 6840, 7058, 7149, 7249, 7390, 7518, 7631, 7737, 8891, 8988, 9134, 9217, 9415, 9645, 9715, 9935, 10078, 10164, 10330, 10616, 10749, 10831, 11015, 11365, 11623, 11836, 11974, 12199, 12282, 12440, 12531, 12739, 22238, 22347, 22529, 23401, 24002], "trial_type": "free-recall", "conditions": [24, 800, "v", 12000], "internal_node_id": "0.0-107.0-0.0", "key_presses": [87, 73, 78, 68, 79, 87, 13, 76, 73, 76, 89, 13, 67, 79, 85, 78, 84, 82, 89, 13, 66, 82, 79, 84, 72, 69, 82, 13, 83, 73, 83, 84, 69, 82, 13, 71, 73, 82, 76, 13, 87, 79, 77, 65, 78, 13, 66, 65, 66, 89, 13, 83, 84, 79, 77, 65, 67, 72, 13, 79, 88, 13, 84, 8], "trial": 3, "time_elapsed": 646462, "type": "FREE_RECALL", "trial_index": 143}, "uniqueid": "MTK2569:39OWYR0EPLYSA3WNKOTYRU1TQVWFYW", "dateTime": 1519073035855}, {"current_trial": 144, "trialdata": {"rt": 10004, "trial_type": "text", "internal_node_id": "0.0-108.0", "time_elapsed": 658474, "key_press": 13, "type": "INSTRUCTIONS", "trial_index": 144}, "uniqueid": "MTK2569:39OWYR0EPLYSA3WNKOTYRU1TQVWFYW", "dateTime": 1519073047862}, {"current_trial": 145, "trialdata": {"rt": [3339, 6861, 9316, 12650, 16194, 18165, 21424, 23390], "trial_type": "math-distractor", "key_times": [2872, 3011, 3339, 6567, 6679, 6861, 8987, 9094, 9316, 12233, 12310, 12650, 15877, 16194, 17745, 17883, 18165, 21112, 21196, 21424, 23070, 23109, 23390], "responses": ["19", "20", "16", "23", "7", "18", "15", "12"], "num2": [3, 6, 6, 8, 2, 8, 4, 5, 4], "num3": [7, 6, 7, 9, 3, 5, 9, 6, 6], "conditions": [12, 1600, "v", 24000], "internal_node_id": "0.0-109.0", "key_presses": [97, 105, 13, 98, 96, 13, 97, 102, 13, 98, 99, 13, 103, 13, 97, 104, 13, 97, 101, 13, 97, 98, 13], "trial": 4, "time_elapsed": 684479, "type": "DISTRACTOR", "trial_index": 145, "num1": [9, 8, 3, 5, 2, 5, 2, 1, 5]}, "uniqueid": "MTK2569:39OWYR0EPLYSA3WNKOTYRU1TQVWFYW", "dateTime": 1519073073867}, {"current_trial": 146, "trialdata": {"rt": -1, "trial_type": "single-stim", "stimulus": "<p id=\"stim\">10</p>", "internal_node_id": "0.0-110.0-0.0", "time_elapsed": 687481, "key_press": -1, "trial_index": 146}, "uniqueid": "MTK2569:39OWYR0EPLYSA3WNKOTYRU1TQVWFYW", "dateTime": 1519073076869}, {"current_trial": 147, "trialdata": {"rt": -1, "trial_type": "single-stim", "stimulus": "<p id=\"stim\">9</p>", "internal_node_id": "0.0-110.0-1.0", "time_elapsed": 688483, "key_press": -1, "trial_index": 147}, "uniqueid": "MTK2569:39OWYR0EPLYSA3WNKOTYRU1TQVWFYW", "dateTime": 1519073077871}, {"current_trial": 148, "trialdata": {"rt": -1, "trial_type": "single-stim", "stimulus": "<p id=\"stim\">8</p>", "internal_node_id": "0.0-110.0-2.0", "time_elapsed": 689485, "key_press": -1, "trial_index": 148}, "uniqueid": "MTK2569:39OWYR0EPLYSA3WNKOTYRU1TQVWFYW", "dateTime": 1519073078873}, {"current_trial": 149, "trialdata": {"rt": -1, "trial_type": "single-stim", "stimulus": "<p id=\"stim\">7</p>", "internal_node_id": "0.0-110.0-3.0", "time_elapsed": 690487, "key_press": -1, "trial_index": 149}, "uniqueid": "MTK2569:39OWYR0EPLYSA3WNKOTYRU1TQVWFYW", "dateTime": 1519073079875}, {"current_trial": 150, "trialdata": {"rt": -1, "trial_type": "single-stim", "stimulus": "<p id=\"stim\">6</p>", "internal_node_id": "0.0-110.0-4.0", "time_elapsed": 691489, "key_press": -1, "trial_index": 150}, "uniqueid": "MTK2569:39OWYR0EPLYSA3WNKOTYRU1TQVWFYW", "dateTime": 1519073080877}, {"current_trial": 151, "trialdata": {"rt": -1, "trial_type": "single-stim", "stimulus": "<p id=\"stim\">5</p>", "internal_node_id": "0.0-110.0-5.0", "time_elapsed": 692491, "key_press": -1, "trial_index": 151}, "uniqueid": "MTK2569:39OWYR0EPLYSA3WNKOTYRU1TQVWFYW", "dateTime": 1519073081879}, {"current_trial": 152, "trialdata": {"rt": -1, "trial_type": "single-stim", "stimulus": "<p id=\"stim\">4</p>", "internal_node_id": "0.0-110.0-6.0", "time_elapsed": 693492, "key_press": -1, "trial_index": 152}, "uniqueid": "MTK2569:39OWYR0EPLYSA3WNKOTYRU1TQVWFYW", "dateTime": 1519073082881}, {"current_trial": 153, "trialdata": {"rt": -1, "trial_type": "single-stim", "stimulus": "<p id=\"stim\">3</p>", "internal_node_id": "0.0-110.0-7.0", "time_elapsed": 694494, "key_press": -1, "trial_index": 153}, "uniqueid": "MTK2569:39OWYR0EPLYSA3WNKOTYRU1TQVWFYW", "dateTime": 1519073083882}, {"current_trial": 154, "trialdata": {"rt": -1, "trial_type": "single-stim", "stimulus": "<p id=\"stim\">2</p>", "internal_node_id": "0.0-110.0-8.0", "time_elapsed": 695496, "key_press": -1, "trial_index": 154}, "uniqueid": "MTK2569:39OWYR0EPLYSA3WNKOTYRU1TQVWFYW", "dateTime": 1519073084884}, {"current_trial": 155, "trialdata": {"rt": -1, "trial_type": "single-stim", "stimulus": "<p id=\"stim\">1</p>", "internal_node_id": "0.0-110.0-9.0", "time_elapsed": 696497, "key_press": -1, "trial_index": 155}, "uniqueid": "MTK2569:39OWYR0EPLYSA3WNKOTYRU1TQVWFYW", "dateTime": 1519073085885}, {"current_trial": 156, "trialdata": {"rt": -1, "trial_type": "single-stim", "stimulus": "<p id=\"stim\">+</p>", "internal_node_id": "0.0-111.0-0.0", "time_elapsed": 698000, "key_press": -1, "type": "FIXATION", "trial_index": 156}, "uniqueid": "MTK2569:39OWYR0EPLYSA3WNKOTYRU1TQVWFYW", "dateTime": 1519073087389}, {"current_trial": 157, "trialdata": {"rt": -1, "trial_type": "single-stim", "word": "cattle", "stimulus": "<p id=\"stim\">CATTLE</p>", "conditions": [12, 1600, "v", 24000], "internal_node_id": "0.0-112.0", "trial": 4, "time_elapsed": 699603, "serialpos": 0, "key_press": -1, "wordID": 260, "type": "PRES_VIS", "trial_index": 157}, "uniqueid": "MTK2569:39OWYR0EPLYSA3WNKOTYRU1TQVWFYW", "dateTime": 1519073088991}, {"current_trial": 158, "trialdata": {"rt": -1, "trial_type": "single-stim", "word": "skirt", "stimulus": "<p id=\"stim\">SKIRT</p>", "conditions": [12, 1600, "v", 24000], "internal_node_id": "0.0-113.0", "trial": 4, "time_elapsed": 702353, "serialpos": 1, "key_press": -1, "wordID": 1318, "type": "PRES_VIS", "trial_index": 158}, "uniqueid": "MTK2569:39OWYR0EPLYSA3WNKOTYRU1TQVWFYW", "dateTime": 1519073091741}, {"current_trial": 159, "trialdata": {"rt": -1, "trial_type": "single-stim", "word": "seafood", "stimulus": "<p id=\"stim\">SEAFOOD</p>", "conditions": [12, 1600, "v", 24000], "internal_node_id": "0.0-114.0", "trial": 4, "time_elapsed": 704864, "serialpos": 2, "key_press": -1, "wordID": 1259, "type": "PRES_VIS", "trial_index": 159}, "uniqueid": "MTK2569:39OWYR0EPLYSA3WNKOTYRU1TQVWFYW", "dateTime": 1519073094252}, {"current_trial": 160, "trialdata": {"rt": -1, "trial_type": "single-stim", "word": "bison", "stimulus": "<p id=\"stim\">BISON</p>", "conditions": [12, 1600, "v", 24000], "internal_node_id": "0.0-115.0", "trial": 4, "time_elapsed": 707625, "serialpos": 3, "key_press": -1, "wordID": 130, "type": "PRES_VIS", "trial_index": 160}, "uniqueid": "MTK2569:39OWYR0EPLYSA3WNKOTYRU1TQVWFYW", "dateTime": 1519073097013}, {"current_trial": 161, "trialdata": {"rt": -1, "trial_type": "single-stim", "word": "marrow", "stimulus": "<p id=\"stim\">MARROW</p>", "conditions": [12, 1600, "v", 24000], "internal_node_id": "0.0-116.0", "trial": 4, "time_elapsed": 710261, "serialpos": 4, "key_press": -1, "wordID": 871, "type": "PRES_VIS", "trial_index": 161}, "uniqueid": "MTK2569:39OWYR0EPLYSA3WNKOTYRU1TQVWFYW", "dateTime": 1519073099649}, {"current_trial": 162, "trialdata": {"rt": -1, "trial_type": "single-stim", "word": "snake", "stimulus": "<p id=\"stim\">SNAKE</p>", "conditions": [12, 1600, "v", 24000], "internal_node_id": "0.0-117.0", "trial": 4, "time_elapsed": 712683, "serialpos": 5, "key_press": -1, "wordID": 1332, "type": "PRES_VIS", "trial_index": 162}, "uniqueid": "MTK2569:39OWYR0EPLYSA3WNKOTYRU1TQVWFYW", "dateTime": 1519073102071}, {"current_trial": 163, "trialdata": {"rt": -1, "trial_type": "single-stim", "word": "coin", "stimulus": "<p id=\"stim\">COIN</p>", "conditions": [12, 1600, "v", 24000], "internal_node_id": "0.0-118.0", "trial": 4, "time_elapsed": 715353, "serialpos": 6, "key_press": -1, "wordID": 342, "type": "PRES_VIS", "trial_index": 163}, "uniqueid": "MTK2569:39OWYR0EPLYSA3WNKOTYRU1TQVWFYW", "dateTime": 1519073104741}, {"current_trial": 164, "trialdata": {"rt": -1, "trial_type": "single-stim", "word": "island", "stimulus": "<p id=\"stim\">ISLAND</p>", "conditions": [12, 1600, "v", 24000], "internal_node_id": "0.0-119.0", "trial": 4, "time_elapsed": 718036, "serialpos": 7, "key_press": -1, "wordID": 744, "type": "PRES_VIS", "trial_index": 164}, "uniqueid": "MTK2569:39OWYR0EPLYSA3WNKOTYRU1TQVWFYW", "dateTime": 1519073107424}, {"current_trial": 165, "trialdata": {"rt": -1, "trial_type": "single-stim", "word": "report", "stimulus": "<p id=\"stim\">REPORT</p>", "conditions": [12, 1600, "v", 24000], "internal_node_id": "0.0-120.0", "trial": 4, "time_elapsed": 720742, "serialpos": 8, "key_press": -1, "wordID": 1183, "type": "PRES_VIS", "trial_index": 165}, "uniqueid": "MTK2569:39OWYR0EPLYSA3WNKOTYRU1TQVWFYW", "dateTime": 1519073110130}, {"current_trial": 166, "trialdata": {"rt": -1, "trial_type": "single-stim", "word": "twig", "stimulus": "<p id=\"stim\">TWIG</p>", "conditions": [12, 1600, "v", 24000], "internal_node_id": "0.0-121.0", "trial": 4, "time_elapsed": 723224, "serialpos": 9, "key_press": -1, "wordID": 1526, "type": "PRES_VIS", "trial_index": 166}, "uniqueid": "MTK2569:39OWYR0EPLYSA3WNKOTYRU1TQVWFYW", "dateTime": 1519073112613}, {"current_trial": 167, "trialdata": {"rt": -1, "trial_type": "single-stim", "word": "flower", "stimulus": "<p id=\"stim\">FLOWER</p>", "conditions": [12, 1600, "v", 24000], "internal_node_id": "0.0-122.0", "trial": 4, "time_elapsed": 725859, "serialpos": 10, "key_press": -1, "wordID": 583, "type": "PRES_VIS", "trial_index": 167}, "uniqueid": "MTK2569:39OWYR0EPLYSA3WNKOTYRU1TQVWFYW", "dateTime": 1519073115248}, {"current_trial": 168, "trialdata": {"rt": -1, "trial_type": "single-stim", "word": "shrub", "stimulus": "<p id=\"stim\">SHRUB</p>", "conditions": [12, 1600, "v", 24000], "internal_node_id": "0.0-123.0", "trial": 4, "time_elapsed": 728556, "serialpos": 11, "key_press": -1, "wordID": 1298, "type": "PRES_VIS", "trial_index": 168}, "uniqueid": "MTK2569:39OWYR0EPLYSA3WNKOTYRU1TQVWFYW", "dateTime": 1519073117944}, {"current_trial": 169, "trialdata": {"rt": -1, "trial_type": "single-stim", "stimulus": "", "internal_node_id": "0.0-124.0-0.0", "time_elapsed": 730984, "key_press": -1, "type": "PRE_RECALL_DELAY", "trial_index": 169}, "uniqueid": "MTK2569:39OWYR0EPLYSA3WNKOTYRU1TQVWFYW", "dateTime": 1519073120372}, {"current_trial": 170, "trialdata": {"rt": -1000, "trial_type": "single-audio", "stimulus": "/static/audio/400Hz.wav", "internal_node_id": "0.0-125.0", "time_elapsed": 731486, "key_press": -1, "type": "PRE_RECALL_ALERT", "trial_index": 170}, "uniqueid": "MTK2569:39OWYR0EPLYSA3WNKOTYRU1TQVWFYW", "dateTime": 1519073120874}, {"current_trial": 171, "trialdata": {"rt": [2745, 4026, 5456, 7647, 22679], "recwords": ["shrub", "flower", "twig", "bison", "marrow"], "key_times": [1017, 1250, 1762, 2462, 2554, 2745, 3335, 3411, 3615, 3702, 3807, 3937, 4026, 4464, 4631, 4764, 5018, 5456, 6239, 6777, 6987, 7071, 7233, 7647, 21910, 22048, 22176, 22343, 22425, 22526, 22679], "trial_type": "free-recall", "conditions": [12, 1600, "v", 24000], "internal_node_id": "0.0-126.0-0.0", "key_presses": [83, 72, 82, 85, 66, 13, 70, 76, 79, 87, 69, 82, 13, 84, 87, 73, 71, 13, 66, 73, 83, 79, 78, 13, 77, 65, 82, 82, 79, 87, 13], "trial": 4, "time_elapsed": 791489, "type": "FREE_RECALL", "trial_index": 171}, "uniqueid": "MTK2569:39OWYR0EPLYSA3WNKOTYRU1TQVWFYW", "dateTime": 1519073180884}, {"current_trial": 172, "trialdata": {"rt": 7761, "trial_type": "text", "internal_node_id": "0.0-127.0", "time_elapsed": 801259, "key_press": 13, "type": "INSTRUCTIONS", "trial_index": 172}, "uniqueid": "MTK2569:39OWYR0EPLYSA3WNKOTYRU1TQVWFYW", "dateTime": 1519073190647}, {"current_trial": 173, "trialdata": {"rt": [2692, 5383, 8447, 11489], "trial_type": "math-distractor", "key_times": [2319, 2431, 2692, 5149, 5383, 7999, 8058, 8447, 11084, 11237, 11489], "responses": ["14", "8", "16", "18"], "num2": [1, 2, 2, 6, 1], "num3": [9, 2, 5, 7, 6], "conditions": [12, 1600, "v", 12000], "internal_node_id": "0.0-128.0", "key_presses": [97, 100, 13, 104, 13, 97, 102, 13, 97, 104, 13], "trial": 5, "time_elapsed": 815263, "type": "DISTRACTOR", "trial_index": 173, "num1": [4, 3, 9, 5, 3]}, "uniqueid": "MTK2569:39OWYR0EPLYSA3WNKOTYRU1TQVWFYW", "dateTime": 1519073204651}, {"current_trial": 174, "trialdata": {"rt": -1, "trial_type": "single-stim", "stimulus": "<p id=\"stim\">10</p>", "internal_node_id": "0.0-129.0-0.0", "time_elapsed": 818265, "key_press": -1, "trial_index": 174}, "uniqueid": "MTK2569:39OWYR0EPLYSA3WNKOTYRU1TQVWFYW", "dateTime": 1519073207653}, {"current_trial": 175, "trialdata": {"rt": -1, "trial_type": "single-stim", "stimulus": "<p id=\"stim\">9</p>", "internal_node_id": "0.0-129.0-1.0", "time_elapsed": 819266, "key_press": -1, "trial_index": 175}, "uniqueid": "MTK2569:39OWYR0EPLYSA3WNKOTYRU1TQVWFYW", "dateTime": 1519073208655}, {"current_trial": 176, "trialdata": {"rt": -1, "trial_type": "single-stim", "stimulus": "<p id=\"stim\">8</p>", "internal_node_id": "0.0-129.0-2.0", "time_elapsed": 820268, "key_press": -1, "trial_index": 176}, "uniqueid": "MTK2569:39OWYR0EPLYSA3WNKOTYRU1TQVWFYW", "dateTime": 1519073209656}, {"current_trial": 177, "trialdata": {"rt": -1, "trial_type": "single-stim", "stimulus": "<p id=\"stim\">7</p>", "internal_node_id": "0.0-129.0-3.0", "time_elapsed": 821270, "key_press": -1, "trial_index": 177}, "uniqueid": "MTK2569:39OWYR0EPLYSA3WNKOTYRU1TQVWFYW", "dateTime": 1519073210658}, {"current_trial": 178, "trialdata": {"rt": -1, "trial_type": "single-stim", "stimulus": "<p id=\"stim\">6</p>", "internal_node_id": "0.0-129.0-4.0", "time_elapsed": 822271, "key_press": -1, "trial_index": 178}, "uniqueid": "MTK2569:39OWYR0EPLYSA3WNKOTYRU1TQVWFYW", "dateTime": 1519073211659}, {"current_trial": 179, "trialdata": {"rt": -1, "trial_type": "single-stim", "stimulus": "<p id=\"stim\">5</p>", "internal_node_id": "0.0-129.0-5.0", "time_elapsed": 823273, "key_press": -1, "trial_index": 179}, "uniqueid": "MTK2569:39OWYR0EPLYSA3WNKOTYRU1TQVWFYW", "dateTime": 1519073212661}, {"current_trial": 180, "trialdata": {"rt": -1, "trial_type": "single-stim", "stimulus": "<p id=\"stim\">4</p>", "internal_node_id": "0.0-129.0-6.0", "time_elapsed": 824274, "key_press": -1, "trial_index": 180}, "uniqueid": "MTK2569:39OWYR0EPLYSA3WNKOTYRU1TQVWFYW", "dateTime": 1519073213663}, {"current_trial": 181, "trialdata": {"rt": -1, "trial_type": "single-stim", "stimulus": "<p id=\"stim\">3</p>", "internal_node_id": "0.0-129.0-7.0", "time_elapsed": 825276, "key_press": -1, "trial_index": 181}, "uniqueid": "MTK2569:39OWYR0EPLYSA3WNKOTYRU1TQVWFYW", "dateTime": 1519073214664}, {"current_trial": 182, "trialdata": {"rt": -1, "trial_type": "single-stim", "stimulus": "<p id=\"stim\">2</p>", "internal_node_id": "0.0-129.0-8.0", "time_elapsed": 826278, "key_press": -1, "trial_index": 182}, "uniqueid": "MTK2569:39OWYR0EPLYSA3WNKOTYRU1TQVWFYW", "dateTime": 1519073215666}, {"current_trial": 183, "trialdata": {"rt": -1, "trial_type": "single-stim", "stimulus": "<p id=\"stim\">1</p>", "internal_node_id": "0.0-129.0-9.0", "time_elapsed": 827279, "key_press": -1, "trial_index": 183}, "uniqueid": "MTK2569:39OWYR0EPLYSA3WNKOTYRU1TQVWFYW", "dateTime": 1519073216667}, {"current_trial": 184, "trialdata": {"rt": -1, "trial_type": "single-stim", "stimulus": "<p id=\"stim\">+</p>", "internal_node_id": "0.0-130.0-0.0", "time_elapsed": 828781, "key_press": -1, "type": "FIXATION", "trial_index": 184}, "uniqueid": "MTK2569:39OWYR0EPLYSA3WNKOTYRU1TQVWFYW", "dateTime": 1519073218169}, {"current_trial": 185, "trialdata": {"rt": -1, "trial_type": "single-stim", "word": "luggage", "stimulus": "<p id=\"stim\">LUGGAGE</p>", "conditions": [12, 1600, "v", 12000], "internal_node_id": "0.0-131.0", "trial": 5, "time_elapsed": 830382, "serialpos": 0, "key_press": -1, "wordID": 846, "type": "PRES_VIS", "trial_index": 185}, "uniqueid": "MTK2569:39OWYR0EPLYSA3WNKOTYRU1TQVWFYW", "dateTime": 1519073219770}, {"current_trial": 186, "trialdata": {"rt": -1, "trial_type": "single-stim", "word": "pluto", "stimulus": "<p id=\"stim\">PLUTO</p>", "conditions": [12, 1600, "v", 12000], "internal_node_id": "0.0-132.0", "trial": 5, "time_elapsed": 833141, "serialpos": 1, "key_press": -1, "wordID": 1091, "type": "PRES_VIS", "trial_index": 186}, "uniqueid": "MTK2569:39OWYR0EPLYSA3WNKOTYRU1TQVWFYW", "dateTime": 1519073222529}, {"current_trial": 187, "trialdata": {"rt": -1, "trial_type": "single-stim", "word": "pliers", "stimulus": "<p id=\"stim\">PLIERS</p>", "conditions": [12, 1600, "v", 12000], "internal_node_id": "0.0-133.0", "trial": 5, "time_elapsed": 835627, "serialpos": 2, "key_press": -1, "wordID": 1088, "type": "PRES_VIS", "trial_index": 187}, "uniqueid": "MTK2569:39OWYR0EPLYSA3WNKOTYRU1TQVWFYW", "dateTime": 1519073225015}, {"current_trial": 188, "trialdata": {"rt": -1, "trial_type": "single-stim", "word": "globe", "stimulus": "<p id=\"stim\">GLOBE</p>", "conditions": [12, 1600, "v", 12000], "internal_node_id": "0.0-134.0", "trial": 5, "time_elapsed": 838317, "serialpos": 3, "key_press": -1, "wordID": 640, "type": "PRES_VIS", "trial_index": 188}, "uniqueid": "MTK2569:39OWYR0EPLYSA3WNKOTYRU1TQVWFYW", "dateTime": 1519073227705}, {"current_trial": 189, "trialdata": {"rt": -1, "trial_type": "single-stim", "word": "monster", "stimulus": "<p id=\"stim\">MONSTER</p>", "conditions": [12, 1600, "v", 12000], "internal_node_id": "0.0-135.0", "trial": 5, "time_elapsed": 841002, "serialpos": 4, "key_press": -1, "wordID": 911, "type": "PRES_VIS", "trial_index": 189}, "uniqueid": "MTK2569:39OWYR0EPLYSA3WNKOTYRU1TQVWFYW", "dateTime": 1519073230391}, {"current_trial": 190, "trialdata": {"rt": -1, "trial_type": "single-stim", "word": "paddle", "stimulus": "<p id=\"stim\">PADDLE</p>", "conditions": [12, 1600, "v", 12000], "internal_node_id": "0.0-136.0", "trial": 5, "time_elapsed": 843790, "serialpos": 5, "key_press": -1, "wordID": 999, "type": "PRES_VIS", "trial_index": 190}, "uniqueid": "MTK2569:39OWYR0EPLYSA3WNKOTYRU1TQVWFYW", "dateTime": 1519073233178}, {"current_trial": 191, "trialdata": {"rt": -1, "trial_type": "single-stim", "word": "europe", "stimulus": "<p id=\"stim\">EUROPE</p>", "conditions": [12, 1600, "v", 12000], "internal_node_id": "0.0-137.0", "trial": 5, "time_elapsed": 846518, "serialpos": 6, "key_press": -1, "wordID": 540, "type": "PRES_VIS", "trial_index": 191}, "uniqueid": "MTK2569:39OWYR0EPLYSA3WNKOTYRU1TQVWFYW", "dateTime": 1519073235906}, {"current_trial": 192, "trialdata": {"rt": -1, "trial_type": "single-stim", "word": "beast", "stimulus": "<p id=\"stim\">BEAST</p>", "conditions": [12, 1600, "v", 12000], "internal_node_id": "0.0-138.0", "trial": 5, "time_elapsed": 849185, "serialpos": 7, "key_press": -1, "wordID": 107, "type": "PRES_VIS", "trial_index": 192}, "uniqueid": "MTK2569:39OWYR0EPLYSA3WNKOTYRU1TQVWFYW", "dateTime": 1519073238573}, {"current_trial": 193, "trialdata": {"rt": -1, "trial_type": "single-stim", "word": "pastry", "stimulus": "<p id=\"stim\">PASTRY</p>", "conditions": [12, 1600, "v", 12000], "internal_node_id": "0.0-139.0", "trial": 5, "time_elapsed": 851637, "serialpos": 8, "key_press": -1, "wordID": 1021, "type": "PRES_VIS", "trial_index": 193}, "uniqueid": "MTK2569:39OWYR0EPLYSA3WNKOTYRU1TQVWFYW", "dateTime": 1519073241025}, {"current_trial": 194, "trialdata": {"rt": -1, "trial_type": "single-stim", "word": "shortcake", "stimulus": "<p id=\"stim\">SHORTCAKE</p>", "conditions": [12, 1600, "v", 12000], "internal_node_id": "0.0-140.0", "trial": 5, "time_elapsed": 854071, "serialpos": 9, "key_press": -1, "wordID": 1291, "type": "PRES_VIS", "trial_index": 194}, "uniqueid": "MTK2569:39OWYR0EPLYSA3WNKOTYRU1TQVWFYW", "dateTime": 1519073243459}, {"current_trial": 195, "trialdata": {"rt": -1, "trial_type": "single-stim", "word": "taxi", "stimulus": "<p id=\"stim\">TAXI</p>", "conditions": [12, 1600, "v", 12000], "internal_node_id": "0.0-141.0", "trial": 5, "time_elapsed": 856692, "serialpos": 10, "key_press": -1, "wordID": 1437, "type": "PRES_VIS", "trial_index": 195}, "uniqueid": "MTK2569:39OWYR0EPLYSA3WNKOTYRU1TQVWFYW", "dateTime": 1519073246081}, {"current_trial": 196, "trialdata": {"rt": -1, "trial_type": "single-stim", "word": "mailman", "stimulus": "<p id=\"stim\">MAILMAN</p>", "conditions": [12, 1600, "v", 12000], "internal_node_id": "0.0-142.0", "trial": 5, "time_elapsed": 859372, "serialpos": 11, "key_press": -1, "wordID": 857, "type": "PRES_VIS", "trial_index": 196}, "uniqueid": "MTK2569:39OWYR0EPLYSA3WNKOTYRU1TQVWFYW", "dateTime": 1519073248760}, {"current_trial": 197, "trialdata": {"rt": -1, "trial_type": "single-stim", "stimulus": "", "internal_node_id": "0.0-143.0-0.0", "time_elapsed": 861630, "key_press": -1, "type": "PRE_RECALL_DELAY", "trial_index": 197}, "uniqueid": "MTK2569:39OWYR0EPLYSA3WNKOTYRU1TQVWFYW", "dateTime": 1519073251018}, {"current_trial": 198, "trialdata": {"rt": -1000, "trial_type": "single-audio", "stimulus": "/static/audio/400Hz.wav", "internal_node_id": "0.0-144.0", "time_elapsed": 862133, "key_press": -1, "type": "PRE_RECALL_ALERT", "trial_index": 198}, "uniqueid": "MTK2569:39OWYR0EPLYSA3WNKOTYRU1TQVWFYW", "dateTime": 1519073251521}, {"current_trial": 199, "trialdata": {"rt": [1550, 3481, 5099, 8216], "recwords": ["taxi", "mailman", "monster", "beast"], "key_times": [759, 1013, 1197, 1311, 1550, 1823, 1960, 2100, 2220, 2459, 2857, 3091, 3259, 3313, 3481, 3704, 3882, 4046, 4160, 4627, 4856, 4959, 5099, 7471, 7589, 7670, 7816, 7889, 8216], "trial_type": "free-recall", "conditions": [12, 1600, "v", 12000], "internal_node_id": "0.0-145.0-0.0", "key_presses": [84, 65, 88, 73, 13, 77, 65, 73, 76, 66, 8, 77, 65, 78, 13, 77, 79, 78, 83, 84, 69, 82, 13, 66, 69, 65, 83, 84, 13], "trial": 5, "time_elapsed": 922138, "type": "FREE_RECALL", "trial_index": 199}, "uniqueid": "MTK2569:39OWYR0EPLYSA3WNKOTYRU1TQVWFYW", "dateTime": 1519073311532}, {"current_trial": 200, "trialdata": {"rt": 3951, "trial_type": "text", "internal_node_id": "0.0-146.0", "time_elapsed": 928096, "key_press": 13, "type": "INSTRUCTIONS", "trial_index": 200}, "uniqueid": "MTK2569:39OWYR0EPLYSA3WNKOTYRU1TQVWFYW", "dateTime": 1519073317484}, {"current_trial": 201, "trialdata": {"rt": [2751, 6751, 9013, 12231, 14870, 17692, 20249, 22328], "trial_type": "math-distractor", "key_times": [2281, 2364, 2751, 5164, 6020, 6489, 6533, 6751, 8629, 8725, 9013, 11782, 11957, 12231, 14495, 14592, 14870, 17459, 17545, 17692, 20015, 20100, 20249, 22124, 22328], "responses": ["12", "12", "18", "16", "19", "12", "12", "8"], "num2": [2, 8, 2, 3, 5, 4, 2, 1, 6], "num3": [7, 3, 8, 8, 6, 1, 1, 1, 9], "conditions": [24, 800, "v", 24000], "internal_node_id": "0.0-147.0", "key_presses": [97, 98, 13, 98, 8, 97, 98, 13, 97, 104, 13, 97, 102, 13, 97, 105, 13, 97, 98, 13, 97, 98, 13, 104, 13], "trial": 6, "time_elapsed": 954102, "type": "DISTRACTOR", "trial_index": 201, "num1": [3, 1, 8, 5, 8, 7, 9, 6, 8]}, "uniqueid": "MTK2569:39OWYR0EPLYSA3WNKOTYRU1TQVWFYW", "dateTime": 1519073343490}, {"current_trial": 202, "trialdata": {"rt": -1, "trial_type": "single-stim", "stimulus": "<p id=\"stim\">10</p>", "internal_node_id": "0.0-148.0-0.0", "time_elapsed": 957104, "key_press": -1, "trial_index": 202}, "uniqueid": "MTK2569:39OWYR0EPLYSA3WNKOTYRU1TQVWFYW", "dateTime": 1519073346493}, {"current_trial": 203, "trialdata": {"rt": -1, "trial_type": "single-stim", "stimulus": "<p id=\"stim\">9</p>", "internal_node_id": "0.0-148.0-1.0", "time_elapsed": 958108, "key_press": -1, "trial_index": 203}, "uniqueid": "MTK2569:39OWYR0EPLYSA3WNKOTYRU1TQVWFYW", "dateTime": 1519073347496}, {"current_trial": 204, "trialdata": {"rt": -1, "trial_type": "single-stim", "stimulus": "<p id=\"stim\">8</p>", "internal_node_id": "0.0-148.0-2.0", "time_elapsed": 959109, "key_press": -1, "trial_index": 204}, "uniqueid": "MTK2569:39OWYR0EPLYSA3WNKOTYRU1TQVWFYW", "dateTime": 1519073348497}, {"current_trial": 205, "trialdata": {"rt": -1, "trial_type": "single-stim", "stimulus": "<p id=\"stim\">7</p>", "internal_node_id": "0.0-148.0-3.0", "time_elapsed": 960111, "key_press": -1, "trial_index": 205}, "uniqueid": "MTK2569:39OWYR0EPLYSA3WNKOTYRU1TQVWFYW", "dateTime": 1519073349499}, {"current_trial": 206, "trialdata": {"rt": -1, "trial_type": "single-stim", "stimulus": "<p id=\"stim\">6</p>", "internal_node_id": "0.0-148.0-4.0", "time_elapsed": 961114, "key_press": -1, "trial_index": 206}, "uniqueid": "MTK2569:39OWYR0EPLYSA3WNKOTYRU1TQVWFYW", "dateTime": 1519073350502}, {"current_trial": 207, "trialdata": {"rt": -1, "trial_type": "single-stim", "stimulus": "<p id=\"stim\">5</p>", "internal_node_id": "0.0-148.0-5.0", "time_elapsed": 962115, "key_press": -1, "trial_index": 207}, "uniqueid": "MTK2569:39OWYR0EPLYSA3WNKOTYRU1TQVWFYW", "dateTime": 1519073351503}, {"current_trial": 208, "trialdata": {"rt": -1, "trial_type": "single-stim", "stimulus": "<p id=\"stim\">4</p>", "internal_node_id": "0.0-148.0-6.0", "time_elapsed": 963117, "key_press": -1, "trial_index": 208}, "uniqueid": "MTK2569:39OWYR0EPLYSA3WNKOTYRU1TQVWFYW", "dateTime": 1519073352505}, {"current_trial": 209, "trialdata": {"rt": -1, "trial_type": "single-stim", "stimulus": "<p id=\"stim\">3</p>", "internal_node_id": "0.0-148.0-7.0", "time_elapsed": 964120, "key_press": -1, "trial_index": 209}, "uniqueid": "MTK2569:39OWYR0EPLYSA3WNKOTYRU1TQVWFYW", "dateTime": 1519073353508}, {"current_trial": 210, "trialdata": {"rt": -1, "trial_type": "single-stim", "stimulus": "<p id=\"stim\">2</p>", "internal_node_id": "0.0-148.0-8.0", "time_elapsed": 965121, "key_press": -1, "trial_index": 210}, "uniqueid": "MTK2569:39OWYR0EPLYSA3WNKOTYRU1TQVWFYW", "dateTime": 1519073354510}, {"current_trial": 211, "trialdata": {"rt": -1, "trial_type": "single-stim", "stimulus": "<p id=\"stim\">1</p>", "internal_node_id": "0.0-148.0-9.0", "time_elapsed": 966123, "key_press": -1, "trial_index": 211}, "uniqueid": "MTK2569:39OWYR0EPLYSA3WNKOTYRU1TQVWFYW", "dateTime": 1519073355511}, {"current_trial": 212, "trialdata": {"rt": -1, "trial_type": "single-stim", "stimulus": "<p id=\"stim\">+</p>", "internal_node_id": "0.0-149.0-0.0", "time_elapsed": 967625, "key_press": -1, "type": "FIXATION", "trial_index": 212}, "uniqueid": "MTK2569:39OWYR0EPLYSA3WNKOTYRU1TQVWFYW", "dateTime": 1519073357013}, {"current_trial": 213, "trialdata": {"rt": -1, "trial_type": "single-stim", "word": "nightgown", "stimulus": "<p id=\"stim\">NIGHTGOWN</p>", "conditions": [24, 800, "v", 24000], "internal_node_id": "0.0-150.0", "trial": 6, "time_elapsed": 968426, "serialpos": 0, "key_press": -1, "wordID": 952, "type": "PRES_VIS", "trial_index": 213}, "uniqueid": "MTK2569:39OWYR0EPLYSA3WNKOTYRU1TQVWFYW", "dateTime": 1519073357815}, {"current_trial": 214, "trialdata": {"rt": -1, "trial_type": "single-stim", "word": "badge", "stimulus": "<p id=\"stim\">BADGE</p>", "conditions": [24, 800, "v", 24000], "internal_node_id": "0.0-151.0", "trial": 6, "time_elapsed": 970097, "serialpos": 1, "key_press": -1, "wordID": 67, "type": "PRES_VIS", "trial_index": 214}, "uniqueid": "MTK2569:39OWYR0EPLYSA3WNKOTYRU1TQVWFYW", "dateTime": 1519073359486}, {"current_trial": 215, "trialdata": {"rt": -1, "trial_type": "single-stim", "word": "thief", "stimulus": "<p id=\"stim\">THIEF</p>", "conditions": [24, 800, "v", 24000], "internal_node_id": "0.0-152.0", "trial": 6, "time_elapsed": 972076, "serialpos": 2, "key_press": -1, "wordID": 1455, "type": "PRES_VIS", "trial_index": 215}, "uniqueid": "MTK2569:39OWYR0EPLYSA3WNKOTYRU1TQVWFYW", "dateTime": 1519073361464}, {"current_trial": 216, "trialdata": {"rt": -1, "trial_type": "single-stim", "word": "robber", "stimulus": "<p id=\"stim\">ROBBER</p>", "conditions": [24, 800, "v", 24000], "internal_node_id": "0.0-153.0", "trial": 6, "time_elapsed": 973952, "serialpos": 3, "key_press": -1, "wordID": 1196, "type": "PRES_VIS", "trial_index": 216}, "uniqueid": "MTK2569:39OWYR0EPLYSA3WNKOTYRU1TQVWFYW", "dateTime": 1519073363341}, {"current_trial": 217, "trialdata": {"rt": -1, "trial_type": "single-stim", "word": "outlaw", "stimulus": "<p id=\"stim\">OUTLAW</p>", "conditions": [24, 800, "v", 24000], "internal_node_id": "0.0-154.0", "trial": 6, "time_elapsed": 975625, "serialpos": 4, "key_press": -1, "wordID": 988, "type": "PRES_VIS", "trial_index": 217}, "uniqueid": "MTK2569:39OWYR0EPLYSA3WNKOTYRU1TQVWFYW", "dateTime": 1519073365013}, {"current_trial": 218, "trialdata": {"rt": -1, "trial_type": "single-stim", "word": "blouse", "stimulus": "<p id=\"stim\">BLOUSE</p>", "conditions": [24, 800, "v", 24000], "internal_node_id": "0.0-155.0", "trial": 6, "time_elapsed": 977401, "serialpos": 5, "key_press": -1, "wordID": 138, "type": "PRES_VIS", "trial_index": 218}, "uniqueid": "MTK2569:39OWYR0EPLYSA3WNKOTYRU1TQVWFYW", "dateTime": 1519073366789}, {"current_trial": 219, "trialdata": {"rt": -1, "trial_type": "single-stim", "word": "shelter", "stimulus": "<p id=\"stim\">SHELTER</p>", "conditions": [24, 800, "v", 24000], "internal_node_id": "0.0-156.0", "trial": 6, "time_elapsed": 979285, "serialpos": 6, "key_press": -1, "wordID": 1281, "type": "PRES_VIS", "trial_index": 219}, "uniqueid": "MTK2569:39OWYR0EPLYSA3WNKOTYRU1TQVWFYW", "dateTime": 1519073368673}, {"current_trial": 220, "trialdata": {"rt": -1, "trial_type": "single-stim", "word": "dresser", "stimulus": "<p id=\"stim\">DRESSER</p>", "conditions": [24, 800, "v", 24000], "internal_node_id": "0.0-157.0", "trial": 6, "time_elapsed": 981075, "serialpos": 7, "key_press": -1, "wordID": 495, "type": "PRES_VIS", "trial_index": 220}, "uniqueid": "MTK2569:39OWYR0EPLYSA3WNKOTYRU1TQVWFYW", "dateTime": 1519073370463}, {"current_trial": 221, "trialdata": {"rt": -1, "trial_type": "single-stim", "word": "dashboard", "stimulus": "<p id=\"stim\">DASHBOARD</p>", "conditions": [24, 800, "v", 24000], "internal_node_id": "0.0-158.0", "trial": 6, "time_elapsed": 982682, "serialpos": 8, "key_press": -1, "wordID": 440, "type": "PRES_VIS", "trial_index": 221}, "uniqueid": "MTK2569:39OWYR0EPLYSA3WNKOTYRU1TQVWFYW", "dateTime": 1519073372070}, {"current_trial": 222, "trialdata": {"rt": -1, "trial_type": "single-stim", "word": "spool", "stimulus": "<p id=\"stim\">SPOOL</p>", "conditions": [24, 800, "v", 24000], "internal_node_id": "0.0-159.0", "trial": 6, "time_elapsed": 984632, "serialpos": 9, "key_press": -1, "wordID": 1355, "type": "PRES_VIS", "trial_index": 222}, "uniqueid": "MTK2569:39OWYR0EPLYSA3WNKOTYRU1TQVWFYW", "dateTime": 1519073374021}, {"current_trial": 223, "trialdata": {"rt": -1, "trial_type": "single-stim", "word": "wardrobe", "stimulus": "<p id=\"stim\">WARDROBE</p>", "conditions": [24, 800, "v", 24000], "internal_node_id": "0.0-160.0", "trial": 6, "time_elapsed": 986507, "serialpos": 10, "key_press": -1, "wordID": 1586, "type": "PRES_VIS", "trial_index": 223}, "uniqueid": "MTK2569:39OWYR0EPLYSA3WNKOTYRU1TQVWFYW", "dateTime": 1519073375895}, {"current_trial": 224, "trialdata": {"rt": -1, "trial_type": "single-stim", "word": "worker", "stimulus": "<p id=\"stim\">WORKER</p>", "conditions": [24, 800, "v", 24000], "internal_node_id": "0.0-161.0", "trial": 6, "time_elapsed": 988376, "serialpos": 11, "key_press": -1, "wordID": 1620, "type": "PRES_VIS", "trial_index": 224}, "uniqueid": "MTK2569:39OWYR0EPLYSA3WNKOTYRU1TQVWFYW", "dateTime": 1519073377765}, {"current_trial": 225, "trialdata": {"rt": -1, "trial_type": "single-stim", "word": "necklace", "stimulus": "<p id=\"stim\">NECKLACE</p>", "conditions": [24, 800, "v", 24000], "internal_node_id": "0.0-162.0", "trial": 6, "time_elapsed": 990366, "serialpos": 12, "key_press": -1, "wordID": 939, "type": "PRES_VIS", "trial_index": 225}, "uniqueid": "MTK2569:39OWYR0EPLYSA3WNKOTYRU1TQVWFYW", "dateTime": 1519073379754}, {"current_trial": 226, "trialdata": {"rt": -1, "trial_type": "single-stim", "word": "plaid", "stimulus": "<p id=\"stim\">PLAID</p>", "conditions": [24, 800, "v", 24000], "internal_node_id": "0.0-163.0", "trial": 6, "time_elapsed": 992338, "serialpos": 13, "key_press": -1, "wordID": 1079, "type": "PRES_VIS", "trial_index": 226}, "uniqueid": "MTK2569:39OWYR0EPLYSA3WNKOTYRU1TQVWFYW", "dateTime": 1519073381726}, {"current_trial": 227, "trialdata": {"rt": -1, "trial_type": "single-stim", "word": "velvet", "stimulus": "<p id=\"stim\">VELVET</p>", "conditions": [24, 800, "v", 24000], "internal_node_id": "0.0-164.0", "trial": 6, "time_elapsed": 994289, "serialpos": 14, "key_press": -1, "wordID": 1554, "type": "PRES_VIS", "trial_index": 227}, "uniqueid": "MTK2569:39OWYR0EPLYSA3WNKOTYRU1TQVWFYW", "dateTime": 1519073383677}, {"current_trial": 228, "trialdata": {"rt": -1, "trial_type": "single-stim", "word": "plaster", "stimulus": "<p id=\"stim\">PLASTER</p>", "conditions": [24, 800, "v", 24000], "internal_node_id": "0.0-165.0", "trial": 6, "time_elapsed": 996251, "serialpos": 15, "key_press": -1, "wordID": 1084, "type": "PRES_VIS", "trial_index": 228}, "uniqueid": "MTK2569:39OWYR0EPLYSA3WNKOTYRU1TQVWFYW", "dateTime": 1519073385639}, {"current_trial": 229, "trialdata": {"rt": -1, "trial_type": "single-stim", "word": "thread", "stimulus": "<p id=\"stim\">THREAD</p>", "conditions": [24, 800, "v", 24000], "internal_node_id": "0.0-166.0", "trial": 6, "time_elapsed": 998160, "serialpos": 16, "key_press": -1, "wordID": 1459, "type": "PRES_VIS", "trial_index": 229}, "uniqueid": "MTK2569:39OWYR0EPLYSA3WNKOTYRU1TQVWFYW", "dateTime": 1519073387548}, {"current_trial": 230, "trialdata": {"rt": -1, "trial_type": "single-stim", "word": "parsley", "stimulus": "<p id=\"stim\">PARSLEY</p>", "conditions": [24, 800, "v", 24000], "internal_node_id": "0.0-167.0", "trial": 6, "time_elapsed": 1000140, "serialpos": 17, "key_press": -1, "wordID": 1015, "type": "PRES_VIS", "trial_index": 230}, "uniqueid": "MTK2569:39OWYR0EPLYSA3WNKOTYRU1TQVWFYW", "dateTime": 1519073389528}, {"current_trial": 231, "trialdata": {"rt": -1, "trial_type": "single-stim", "word": "quail", "stimulus": "<p id=\"stim\">QUAIL</p>", "conditions": [24, 800, "v", 24000], "internal_node_id": "0.0-168.0", "trial": 6, "time_elapsed": 1001776, "serialpos": 18, "key_press": -1, "wordID": 1146, "type": "PRES_VIS", "trial_index": 231}, "uniqueid": "MTK2569:39OWYR0EPLYSA3WNKOTYRU1TQVWFYW", "dateTime": 1519073391164}, {"current_trial": 232, "trialdata": {"rt": -1, "trial_type": "single-stim", "word": "smog", "stimulus": "<p id=\"stim\">SMOG</p>", "conditions": [24, 800, "v", 24000], "internal_node_id": "0.0-169.0", "trial": 6, "time_elapsed": 1003403, "serialpos": 19, "key_press": -1, "wordID": 1329, "type": "PRES_VIS", "trial_index": 232}, "uniqueid": "MTK2569:39OWYR0EPLYSA3WNKOTYRU1TQVWFYW", "dateTime": 1519073392793}, {"current_trial": 233, "trialdata": {"rt": -1, "trial_type": "single-stim", "word": "princess", "stimulus": "<p id=\"stim\">PRINCESS</p>", "conditions": [24, 800, "v", 24000], "internal_node_id": "0.0-170.0", "trial": 6, "time_elapsed": 1005130, "serialpos": 20, "key_press": -1, "wordID": 1124, "type": "PRES_VIS", "trial_index": 233}, "uniqueid": "MTK2569:39OWYR0EPLYSA3WNKOTYRU1TQVWFYW", "dateTime": 1519073394518}, {"current_trial": 234, "trialdata": {"rt": -1, "trial_type": "single-stim", "word": "transplant", "stimulus": "<p id=\"stim\">TRANSPLANT</p>", "conditions": [24, 800, "v", 24000], "internal_node_id": "0.0-171.0", "trial": 6, "time_elapsed": 1007117, "serialpos": 21, "key_press": -1, "wordID": 1495, "type": "PRES_VIS", "trial_index": 234}, "uniqueid": "MTK2569:39OWYR0EPLYSA3WNKOTYRU1TQVWFYW", "dateTime": 1519073396506}, {"current_trial": 235, "trialdata": {"rt": -1, "trial_type": "single-stim", "word": "sidewalk", "stimulus": "<p id=\"stim\">SIDEWALK</p>", "conditions": [24, 800, "v", 24000], "internal_node_id": "0.0-172.0", "trial": 6, "time_elapsed": 1009041, "serialpos": 22, "key_press": -1, "wordID": 1302, "type": "PRES_VIS", "trial_index": 235}, "uniqueid": "MTK2569:39OWYR0EPLYSA3WNKOTYRU1TQVWFYW", "dateTime": 1519073398429}, {"current_trial": 236, "trialdata": {"rt": -1, "trial_type": "single-stim", "word": "handbag", "stimulus": "<p id=\"stim\">HANDBAG</p>", "conditions": [24, 800, "v", 24000], "internal_node_id": "0.0-173.0", "trial": 6, "time_elapsed": 1010896, "serialpos": 23, "key_press": -1, "wordID": 683, "type": "PRES_VIS", "trial_index": 236}, "uniqueid": "MTK2569:39OWYR0EPLYSA3WNKOTYRU1TQVWFYW", "dateTime": 1519073400284}, {"current_trial": 237, "trialdata": {"rt": -1, "trial_type": "single-stim", "stimulus": "", "internal_node_id": "0.0-174.0-0.0", "time_elapsed": 1013439, "key_press": -1, "type": "PRE_RECALL_DELAY", "trial_index": 237}, "uniqueid": "MTK2569:39OWYR0EPLYSA3WNKOTYRU1TQVWFYW", "dateTime": 1519073402828}, {"current_trial": 238, "trialdata": {"rt": -1000, "trial_type": "single-audio", "stimulus": "/static/audio/400Hz.wav", "internal_node_id": "0.0-175.0", "time_elapsed": 1013948, "key_press": -1, "type": "PRE_RECALL_ALERT", "trial_index": 238}, "uniqueid": "MTK2569:39OWYR0EPLYSA3WNKOTYRU1TQVWFYW", "dateTime": 1519073403336}, {"current_trial": 239, "trialdata": {"rt": [3528, 4813, 6750, 8377, 11380, 14141, 16741, 18496, 21224, 22779], "recwords": ["spool", "thread", "princess", "sidewalk", "robber", "thief", "wardrobe", "dresser", "skirt", "plaid"], "key_times": [1240, 1584, 1761, 1843, 2236, 2352, 2602, 3143, 3355, 3528, 4128, 4279, 4379, 4436, 4547, 4671, 4813, 5079, 5253, 5693, 5800, 5905, 6103, 6183, 6370, 6499, 6667, 6750, 7027, 7200, 7358, 7489, 7737, 7883, 8003, 8103, 8377, 9752, 9831, 10019, 10221, 10488, 10544, 11380, 12693, 12799, 12944, 13088, 13316, 14141, 14569, 14981, 15056, 15148, 15280, 15511, 15776, 16189, 16387, 16643, 16741, 16985, 17225, 17327, 17447, 17582, 17715, 17966, 18496, 19901, 20129, 20544, 20748, 20894, 20956, 21088, 21224, 22064, 22193, 22333, 22454, 22593, 22779], "trial_type": "free-recall", "conditions": [24, 800, "v", 24000], "internal_node_id": "0.0-176.0-0.0", "key_presses": [83, 80, 80, 79, 8, 8, 79, 79, 76, 13, 84, 72, 82, 69, 65, 68, 13, 80, 73, 8, 82, 73, 78, 67, 69, 83, 83, 13, 83, 73, 68, 69, 87, 65, 76, 75, 13, 82, 79, 66, 66, 69, 82, 13, 84, 72, 73, 69, 70, 13, 65, 8, 87, 65, 82, 68, 82, 79, 66, 69, 13, 68, 82, 69, 83, 83, 69, 82, 13, 83, 74, 8, 75, 73, 82, 84, 13, 80, 76, 65, 73, 68, 13], "trial": 6, "time_elapsed": 1073952, "type": "FREE_RECALL", "trial_index": 239}, "uniqueid": "MTK2569:39OWYR0EPLYSA3WNKOTYRU1TQVWFYW", "dateTime": 1519073463349}, {"current_trial": 240, "trialdata": {"rt": 2396, "trial_type": "text", "internal_node_id": "0.0-177.0", "time_elapsed": 1078359, "key_press": 13, "type": "INSTRUCTIONS", "trial_index": 240}, "uniqueid": "MTK2569:39OWYR0EPLYSA3WNKOTYRU1TQVWFYW", "dateTime": 1519073467747}, {"current_trial": 241, "trialdata": {"rt": [3629, 6954, 9118, 13717, 16913, 21340], "trial_type": "math-distractor", "key_times": [2691, 2818, 3629, 6596, 6674, 6954, 8759, 8901, 9118, 13469, 13526, 13717, 16588, 16679, 16913, 20762, 21029, 21340], "responses": ["11", "15", "20", "21", "15", "14"], "num2": [5, 8, 6, 5, 7, 3, 9], "num3": [4, 4, 9, 9, 4, 8, 9], "conditions": [24, 1600, "v", 24000], "internal_node_id": "0.0-178.0", "key_presses": [97, 97, 13, 97, 101, 13, 98, 96, 13, 98, 97, 13, 97, 101, 13, 97, 100, 13], "trial": 7, "time_elapsed": 1104363, "type": "DISTRACTOR", "trial_index": 241, "num1": [2, 3, 5, 7, 4, 3, 5]}, "uniqueid": "MTK2569:39OWYR0EPLYSA3WNKOTYRU1TQVWFYW", "dateTime": 1519073493751}, {"current_trial": 242, "trialdata": {"rt": -1, "trial_type": "single-stim", "stimulus": "<p id=\"stim\">10</p>", "internal_node_id": "0.0-179.0-0.0", "time_elapsed": 1107365, "key_press": -1, "trial_index": 242}, "uniqueid": "MTK2569:39OWYR0EPLYSA3WNKOTYRU1TQVWFYW", "dateTime": 1519073496754}, {"current_trial": 243, "trialdata": {"rt": -1, "trial_type": "single-stim", "stimulus": "<p id=\"stim\">9</p>", "internal_node_id": "0.0-179.0-1.0", "time_elapsed": 1108367, "key_press": -1, "trial_index": 243}, "uniqueid": "MTK2569:39OWYR0EPLYSA3WNKOTYRU1TQVWFYW", "dateTime": 1519073497755}, {"current_trial": 244, "trialdata": {"rt": -1, "trial_type": "single-stim", "stimulus": "<p id=\"stim\">8</p>", "internal_node_id": "0.0-179.0-2.0", "time_elapsed": 1109370, "key_press": -1, "trial_index": 244}, "uniqueid": "MTK2569:39OWYR0EPLYSA3WNKOTYRU1TQVWFYW", "dateTime": 1519073498758}, {"current_trial": 245, "trialdata": {"rt": -1, "trial_type": "single-stim", "stimulus": "<p id=\"stim\">7</p>", "internal_node_id": "0.0-179.0-3.0", "time_elapsed": 1110372, "key_press": -1, "trial_index": 245}, "uniqueid": "MTK2569:39OWYR0EPLYSA3WNKOTYRU1TQVWFYW", "dateTime": 1519073499760}, {"current_trial": 246, "trialdata": {"rt": -1, "trial_type": "single-stim", "stimulus": "<p id=\"stim\">6</p>", "internal_node_id": "0.0-179.0-4.0", "time_elapsed": 1111373, "key_press": -1, "trial_index": 246}, "uniqueid": "MTK2569:39OWYR0EPLYSA3WNKOTYRU1TQVWFYW", "dateTime": 1519073500761}, {"current_trial": 247, "trialdata": {"rt": -1, "trial_type": "single-stim", "stimulus": "<p id=\"stim\">5</p>", "internal_node_id": "0.0-179.0-5.0", "time_elapsed": 1112375, "key_press": -1, "trial_index": 247}, "uniqueid": "MTK2569:39OWYR0EPLYSA3WNKOTYRU1TQVWFYW", "dateTime": 1519073501763}, {"current_trial": 248, "trialdata": {"rt": -1, "trial_type": "single-stim", "stimulus": "<p id=\"stim\">4</p>", "internal_node_id": "0.0-179.0-6.0", "time_elapsed": 1113376, "key_press": -1, "trial_index": 248}, "uniqueid": "MTK2569:39OWYR0EPLYSA3WNKOTYRU1TQVWFYW", "dateTime": 1519073502764}, {"current_trial": 249, "trialdata": {"rt": -1, "trial_type": "single-stim", "stimulus": "<p id=\"stim\">3</p>", "internal_node_id": "0.0-179.0-7.0", "time_elapsed": 1114377, "key_press": -1, "trial_index": 249}, "uniqueid": "MTK2569:39OWYR0EPLYSA3WNKOTYRU1TQVWFYW", "dateTime": 1519073503766}, {"current_trial": 250, "trialdata": {"rt": -1, "trial_type": "single-stim", "stimulus": "<p id=\"stim\">2</p>", "internal_node_id": "0.0-179.0-8.0", "time_elapsed": 1115381, "key_press": -1, "trial_index": 250}, "uniqueid": "MTK2569:39OWYR0EPLYSA3WNKOTYRU1TQVWFYW", "dateTime": 1519073504769}, {"current_trial": 251, "trialdata": {"rt": -1, "trial_type": "single-stim", "stimulus": "<p id=\"stim\">1</p>", "internal_node_id": "0.0-179.0-9.0", "time_elapsed": 1116382, "key_press": -1, "trial_index": 251}, "uniqueid": "MTK2569:39OWYR0EPLYSA3WNKOTYRU1TQVWFYW", "dateTime": 1519073505770}, {"current_trial": 252, "trialdata": {"rt": -1, "trial_type": "single-stim", "stimulus": "<p id=\"stim\">+</p>", "internal_node_id": "0.0-180.0-0.0", "time_elapsed": 1117884, "key_press": -1, "type": "FIXATION", "trial_index": 252}, "uniqueid": "MTK2569:39OWYR0EPLYSA3WNKOTYRU1TQVWFYW", "dateTime": 1519073507273}, {"current_trial": 253, "trialdata": {"rt": -1, "trial_type": "single-stim", "word": "diner", "stimulus": "<p id=\"stim\">DINER</p>", "conditions": [24, 1600, "v", 24000], "internal_node_id": "0.0-181.0", "trial": 7, "time_elapsed": 1119486, "serialpos": 0, "key_press": -1, "wordID": 466, "type": "PRES_VIS", "trial_index": 253}, "uniqueid": "MTK2569:39OWYR0EPLYSA3WNKOTYRU1TQVWFYW", "dateTime": 1519073508874}, {"current_trial": 254, "trialdata": {"rt": -1, "trial_type": "single-stim", "word": "lagoon", "stimulus": "<p id=\"stim\">LAGOON</p>", "conditions": [24, 1600, "v", 24000], "internal_node_id": "0.0-182.0", "trial": 7, "time_elapsed": 1121954, "serialpos": 1, "key_press": -1, "wordID": 794, "type": "PRES_VIS", "trial_index": 254}, "uniqueid": "MTK2569:39OWYR0EPLYSA3WNKO