{"assignmentId": "3OXV7EAXLFXVB76OUAX47US3NAS631", "workerId": "MTK2396", "questiondata": {"avail_screen_height": 728, "color_depth": 24, "screen_width": 1366, "pixel_depth": 24, "avail_screen_width": 1366, "screen_height": 768}, "bonus": 0, "hitId": "34YWR3PJ28HAQATTM8J9GPBWY3OX0G", "counterbalance": 2910, "useragent": "Mozilla/5.0 (Windows NT 6.1; Win64; x64) AppleWebKit/537.36 (KHTML, like Gecko) Chrome/63.0.3239.132 Safari/537.36", "eventdata": [{"eventtype": "initialized", "interval": 0, "value": null, "timestamp": 1517075650504}, {"eventtype": "window_resize", "interval": 0, "value": [1362, 714], "timestamp": 1517075650504}, {"eventtype": "focus", "interval": 1044783, "value": "off", "timestamp": 1517076695287}, {"eventtype": "focus", "interval": 8031, "value": "on", "timestamp": 1517076703318}, {"eventtype": "focus", "interval": 239110, "value": "off", "timestamp": 1517076942428}, {"eventtype": "focus", "interval": 40665, "value": "on", "timestamp": 1517076983093}, {"eventtype": "focus", "interval": 165524, "value": "off", "timestamp": 1517077148617}, {"eventtype": "focus", "interval": 6669, "value": "on", "timestamp": 1517077155286}, {"eventtype": "focus", "interval": 1272266, "value": "off", "timestamp": 1517078427552}, {"eventtype": "focus", "interval": 12496, "value": "on", "timestamp": 1517078440048}, {"eventtype": "focus", "interval": 593419, "value": "off", "timestamp": 1517079033467}, {"eventtype": "focus", "interval": 35881, "value": "on", "timestamp": 1517079069348}, {"eventtype": "focus", "interval": 97776, "value": "off", "timestamp": 1517079167124}, {"eventtype": "focus", "interval": 34392, "value": "on", "timestamp": 1517079201516}, {"eventtype": "focus", "interval": 136434, "value": "off", "timestamp": 1517079337950}, {"eventtype": "focus", "interval": 8516, "value": "on", "timestamp": 1517079346466}, {"eventtype": "focus", "interval": 2024, "value": "off", "timestamp": 1517079348490}, {"eventtype": "focus", "interval": 22088, "value": "on", "timestamp": 1517079370578}, {"eventtype": "focus", "interval": 1339, "value": "off", "timestamp": 1517079371917}, {"eventtype": "focus", "interval": 2295, "value": "on", "timestamp": 1517079374212}, {"eventtype": "focus", "interval": 1214, "value": "off", "timestamp": 1517079375426}, {"eventtype": "focus", "interval": 929, "value": "on", "timestamp": 1517079376355}, {"eventtype": "focus", "interval": 32938, "value": "off", "timestamp": 1517079409293}, {"eventtype": "focus", "interval": 34392, "value": "on", "timestamp": 1517079443685}, {"eventtype": "focus", "interval": 12121, "value": "off", "timestamp": 1517079455806}, {"eventtype": "focus", "interval": 1206, "value": "on", "timestamp": 1517079457012}, {"eventtype": "focus", "interval": 8142, "value": "off", "timestamp": 1517079465154}, {"eventtype": "focus", "interval": 37734, "value": "on", "timestamp": 1517079502888}], "data": [{"current_trial": 0, "trialdata": {"rt": 2503, "trial_type": "text", "internal_node_id": "0.0-0.0", "time_elapsed": 2509, "key_press": 32, "type": "INSTRUCTIONS", "trial_index": 0}, "uniqueid": "MTK2396:3OXV7EAXLFXVB76OUAX47US3NAS631", "dateTime": 1517075675413}, {"current_trial": 1, "trialdata": {"rt": 57545, "trial_type": "text", "internal_node_id": "0.0-1.0", "time_elapsed": 60059, "key_press": 32, "type": "INSTRUCTIONS", "trial_index": 1}, "uniqueid": "MTK2396:3OXV7EAXLFXVB76OUAX47US3NAS631", "dateTime": 1517075732960}, {"current_trial": 2, "trialdata": {"rt": [979973], "trial_type": "audio-test", "responses": ["ocean"], "internal_node_id": "0.0-2.0", "time_elapsed": 1040056, "type": "AUDIO_TEST", "trial_index": 2}, "uniqueid": "MTK2396:3OXV7EAXLFXVB76OUAX47US3NAS631", "dateTime": 1517076712958}, {"current_trial": 3, "trialdata": {"rt": [10595], "trial_type": "audio-test", "responses": ["crystal"], "internal_node_id": "0.0-3.0", "time_elapsed": 1050662, "type": "AUDIO_TEST", "trial_index": 3}, "uniqueid": "MTK2396:3OXV7EAXLFXVB76OUAX47US3NAS631", "dateTime": 1517076723564}, {"current_trial": 4, "trialdata": {"rt": [8602], "trial_type": "audio-test", "responses": ["spice"], "internal_node_id": "0.0-4.0", "time_elapsed": 1059276, "type": "AUDIO_TEST", "trial_index": 4}, "uniqueid": "MTK2396:3OXV7EAXLFXVB76OUAX47US3NAS631", "dateTime": 1517076732177}, {"current_trial": 5, "trialdata": {"rt": 26473, "trial_type": "survey-text", "responses": "{\"Q0\":\"midnight\",\"Q1\":\"8:00\",\"Q2\":\"5\"}", "internal_node_id": "0.0-5.0", "time_elapsed": 1086506, "type": "SLEEP_SURVEY", "trial_index": 5}, "uniqueid": "MTK2396:3OXV7EAXLFXVB76OUAX47US3NAS631", "dateTime": 1517076759407}, {"current_trial": 6, "trialdata": {"rt": 102894, "trial_type": "text", "internal_node_id": "0.0-6.0", "time_elapsed": 1190404, "key_press": 32, "type": "INSTRUCTIONS", "trial_index": 6}, "uniqueid": "MTK2396:3OXV7EAXLFXVB76OUAX47US3NAS631", "dateTime": 1517076863305}, {"current_trial": 7, "trialdata": {"rt": 23553, "trial_type": "text", "internal_node_id": "0.0-7.0", "time_elapsed": 1214462, "key_press": 32, "type": "INSTRUCTIONS", "trial_index": 7}, "uniqueid": "MTK2396:3OXV7EAXLFXVB76OUAX47US3NAS631", "dateTime": 1517076887363}, {"current_trial": 8, "trialdata": {"rt": 18060, "trial_type": "text", "internal_node_id": "0.0-8.0", "time_elapsed": 1233026, "key_press": 32, "type": "INSTRUCTIONS", "trial_index": 8}, "uniqueid": "MTK2396:3OXV7EAXLFXVB76OUAX47US3NAS631", "dateTime": 1517076905927}, {"current_trial": 9, "trialdata": {"rt": [8144, 13875, 17007], "trial_type": "math-distractor", "key_times": [6824, 7329, 8144, 13044, 13284, 13875, 16559, 16725, 17007], "responses": ["15", "24", "11"], "num2": [6, 6, 3, 1], "num3": [2, 8, 6, 9], "conditions": [18, 1200, "a", 18000], "internal_node_id": "0.0-9.0", "key_presses": [49, 53, 13, 50, 52, 13, 49, 49, 13], "trial": 0, "time_elapsed": 1252041, "type": "DISTRACTOR", "trial_index": 9, "num1": [7, 6, 2, 8]}, "uniqueid": "MTK2396:3OXV7EAXLFXVB76OUAX47US3NAS631", "dateTime": 1517076924942}, {"current_trial": 10, "trialdata": {"rt": -1, "trial_type": "single-stim", "stimulus": "<p id=\"stim\">10</p>", "internal_node_id": "0.0-10.0-0.0", "time_elapsed": 1255047, "key_press": -1, "trial_index": 10}, "uniqueid": "MTK2396:3OXV7EAXLFXVB76OUAX47US3NAS631", "dateTime": 1517076927949}, {"current_trial": 11, "trialdata": {"rt": -1, "trial_type": "single-stim", "stimulus": "<p id=\"stim\">9</p>", "internal_node_id": "0.0-10.0-1.0", "time_elapsed": 1256052, "key_press": -1, "trial_index": 11}, "uniqueid": "MTK2396:3OXV7EAXLFXVB76OUAX47US3NAS631", "dateTime": 1517076928953}, {"current_trial": 12, "trialdata": {"rt": -1, "trial_type": "single-stim", "stimulus": "<p id=\"stim\">8</p>", "internal_node_id": "0.0-10.0-2.0", "time_elapsed": 1257054, "key_press": -1, "trial_index": 12}, "uniqueid": "MTK2396:3OXV7EAXLFXVB76OUAX47US3NAS631", "dateTime": 1517076929955}, {"current_trial": 13, "trialdata": {"rt": -1, "trial_type": "single-stim", "stimulus": "<p id=\"stim\">7</p>", "internal_node_id": "0.0-10.0-3.0", "time_elapsed": 1258058, "key_press": -1, "trial_index": 13}, "uniqueid": "MTK2396:3OXV7EAXLFXVB76OUAX47US3NAS631", "dateTime": 1517076930960}, {"current_trial": 14, "trialdata": {"rt": -1, "trial_type": "single-stim", "stimulus": "<p id=\"stim\">6</p>", "internal_node_id": "0.0-10.0-4.0", "time_elapsed": 1259061, "key_press": -1, "trial_index": 14}, "uniqueid": "MTK2396:3OXV7EAXLFXVB76OUAX47US3NAS631", "dateTime": 1517076931962}, {"current_trial": 15, "trialdata": {"rt": -1, "trial_type": "single-stim", "stimulus": "<p id=\"stim\">5</p>", "internal_node_id": "0.0-10.0-5.0", "time_elapsed": 1260065, "key_press": -1, "trial_index": 15}, "uniqueid": "MTK2396:3OXV7EAXLFXVB76OUAX47US3NAS631", "dateTime": 1517076932966}, {"current_trial": 16, "trialdata": {"rt": -1, "trial_type": "single-stim", "stimulus": "<p id=\"stim\">4</p>", "internal_node_id": "0.0-10.0-6.0", "time_elapsed": 1261068, "key_press": -1, "trial_index": 16}, "uniqueid": "MTK2396:3OXV7EAXLFXVB76OUAX47US3NAS631", "dateTime": 1517076933969}, {"current_trial": 17, "trialdata": {"rt": -1, "trial_type": "single-stim", "stimulus": "<p id=\"stim\">3</p>", "internal_node_id": "0.0-10.0-7.0", "time_elapsed": 1262071, "key_press": -1, "trial_index": 17}, "uniqueid": "MTK2396:3OXV7EAXLFXVB76OUAX47US3NAS631", "dateTime": 1517076934972}, {"current_trial": 18, "trialdata": {"rt": -1, "trial_type": "single-stim", "stimulus": "<p id=\"stim\">2</p>", "internal_node_id": "0.0-10.0-8.0", "time_elapsed": 1263073, "key_press": -1, "trial_index": 18}, "uniqueid": "MTK2396:3OXV7EAXLFXVB76OUAX47US3NAS631", "dateTime": 1517076935974}, {"current_trial": 19, "trialdata": {"rt": -1, "trial_type": "single-stim", "stimulus": "<p id=\"stim\">1</p>", "internal_node_id": "0.0-10.0-9.0", "time_elapsed": 1264076, "key_press": -1, "trial_index": 19}, "uniqueid": "MTK2396:3OXV7EAXLFXVB76OUAX47US3NAS631", "dateTime": 1517076936977}, {"current_trial": 20, "trialdata": {"rt": -1, "trial_type": "single-stim", "stimulus": "<p id=\"stim\">+</p>", "internal_node_id": "0.0-11.0-0.0", "time_elapsed": 1265578, "key_press": -1, "type": "FIXATION", "trial_index": 20}, "uniqueid": "MTK2396:3OXV7EAXLFXVB76OUAX47US3NAS631", "dateTime": 1517076938479}, {"current_trial": 21, "trialdata": {"rt": -1000, "trial_type": "single-audio", "word": "popcorn", "stimulus": "/static/audio/wordpool/POPCORN.wav", "conditions": [18, 1200, "a", 18000], "internal_node_id": "0.0-12.0", "trial": 0, "time_elapsed": 1267919, "serialpos": 0, "key_press": -1, "wordID": 1103, "type": "PRES_AUD", "trial_index": 21}, "uniqueid": "MTK2396:3OXV7EAXLFXVB76OUAX47US3NAS631", "dateTime": 1517076940820}, {"current_trial": 22, "trialdata": {"rt": -1000, "trial_type": "single-audio", "word": "beaver", "stimulus": "/static/audio/wordpool/BEAVER.wav", "conditions": [18, 1200, "a", 18000], "internal_node_id": "0.0-13.0", "trial": 0, "time_elapsed": 1269966, "serialpos": 1, "key_press": -1, "wordID": 108, "type": "PRES_AUD", "trial_index": 22}, "uniqueid": "MTK2396:3OXV7EAXLFXVB76OUAX47US3NAS631", "dateTime": 1517076942869}, {"current_trial": 23, "trialdata": {"rt": -1000, "trial_type": "single-audio", "word": "crevice", "stimulus": "/static/audio/wordpool/CREVICE.wav", "conditions": [18, 1200, "a", 18000], "internal_node_id": "0.0-14.0", "trial": 0, "time_elapsed": 1272008, "serialpos": 2, "key_press": -1, "wordID": 404, "type": "PRES_AUD", "trial_index": 23}, "uniqueid": "MTK2396:3OXV7EAXLFXVB76OUAX47US3NAS631", "dateTime": 1517076944909}, {"current_trial": 24, "trialdata": {"rt": -1000, "trial_type": "single-audio", "word": "robin", "stimulus": "/static/audio/wordpool/ROBIN.wav", "conditions": [18, 1200, "a", 18000], "internal_node_id": "0.0-15.0", "trial": 0, "time_elapsed": 1274021, "serialpos": 3, "key_press": -1, "wordID": 1198, "type": "PRES_AUD", "trial_index": 24}, "uniqueid": "MTK2396:3OXV7EAXLFXVB76OUAX47US3NAS631", "dateTime": 1517076946922}, {"current_trial": 25, "trialdata": {"rt": -1000, "trial_type": "single-audio", "word": "cyclone", "stimulus": "/static/audio/wordpool/CYCLONE.wav", "conditions": [18, 1200, "a", 18000], "internal_node_id": "0.0-16.0", "trial": 0, "time_elapsed": 1276188, "serialpos": 4, "key_press": -1, "wordID": 430, "type": "PRES_AUD", "trial_index": 25}, "uniqueid": "MTK2396:3OXV7EAXLFXVB76OUAX47US3NAS631", "dateTime": 1517076949089}, {"current_trial": 26, "trialdata": {"rt": -1000, "trial_type": "single-audio", "word": "xerox", "stimulus": "/static/audio/wordpool/XEROX.wav", "conditions": [18, 1200, "a", 18000], "internal_node_id": "0.0-17.0", "trial": 0, "time_elapsed": 1278340, "serialpos": 5, "key_press": -1, "wordID": 1627, "type": "PRES_AUD", "trial_index": 26}, "uniqueid": "MTK2396:3OXV7EAXLFXVB76OUAX47US3NAS631", "dateTime": 1517076951242}, {"current_trial": 27, "trialdata": {"rt": -1000, "trial_type": "single-audio", "word": "guitar", "stimulus": "/static/audio/wordpool/GUITAR.wav", "conditions": [18, 1200, "a", 18000], "internal_node_id": "0.0-18.0", "trial": 0, "time_elapsed": 1280518, "serialpos": 6, "key_press": -1, "wordID": 669, "type": "PRES_AUD", "trial_index": 27}, "uniqueid": "MTK2396:3OXV7EAXLFXVB76OUAX47US3NAS631", "dateTime": 1517076953419}, {"current_trial": 28, "trialdata": {"rt": -1000, "trial_type": "single-audio", "word": "lipstick", "stimulus": "/static/audio/wordpool/LIPSTICK.wav", "conditions": [18, 1200, "a", 18000], "internal_node_id": "0.0-19.0", "trial": 0, "time_elapsed": 1282918, "serialpos": 7, "key_press": -1, "wordID": 828, "type": "PRES_AUD", "trial_index": 28}, "uniqueid": "MTK2396:3OXV7EAXLFXVB76OUAX47US3NAS631", "dateTime": 1517076955820}, {"current_trial": 29, "trialdata": {"rt": -1000, "trial_type": "single-audio", "word": "doughnut", "stimulus": "/static/audio/wordpool/DOUGHNUT.wav", "conditions": [18, 1200, "a", 18000], "internal_node_id": "0.0-20.0", "trial": 0, "time_elapsed": 1285038, "serialpos": 8, "key_press": -1, "wordID": 489, "type": "PRES_AUD", "trial_index": 29}, "uniqueid": "MTK2396:3OXV7EAXLFXVB76OUAX47US3NAS631", "dateTime": 1517076957939}, {"current_trial": 30, "trialdata": {"rt": -1000, "trial_type": "single-audio", "word": "salt", "stimulus": "/static/audio/wordpool/SALT.wav", "conditions": [18, 1200, "a", 18000], "internal_node_id": "0.0-21.0", "trial": 0, "time_elapsed": 1287163, "serialpos": 9, "key_press": -1, "wordID": 1228, "type": "PRES_AUD", "trial_index": 30}, "uniqueid": "MTK2396:3OXV7EAXLFXVB76OUAX47US3NAS631", "dateTime": 1517076960064}, {"current_trial": 31, "trialdata": {"rt": -1000, "trial_type": "single-audio", "word": "hamper", "stimulus": "/static/audio/wordpool/HAMPER.wav", "conditions": [18, 1200, "a", 18000], "internal_node_id": "0.0-22.0", "trial": 0, "time_elapsed": 1289263, "serialpos": 10, "key_press": -1, "wordID": 681, "type": "PRES_AUD", "trial_index": 31}, "uniqueid": "MTK2396:3OXV7EAXLFXVB76OUAX47US3NAS631", "dateTime": 1517076962164}, {"current_trial": 32, "trialdata": {"rt": -1000, "trial_type": "single-audio", "word": "widow", "stimulus": "/static/audio/wordpool/WIDOW.wav", "conditions": [18, 1200, "a", 18000], "internal_node_id": "0.0-23.0", "trial": 0, "time_elapsed": 1291288, "serialpos": 11, "key_press": -1, "wordID": 1607, "type": "PRES_AUD", "trial_index": 32}, "uniqueid": "MTK2396:3OXV7EAXLFXVB76OUAX47US3NAS631", "dateTime": 1517076964189}, {"current_trial": 33, "trialdata": {"rt": -1000, "trial_type": "single-audio", "word": "heart", "stimulus": "/static/audio/wordpool/HEART.wav", "conditions": [18, 1200, "a", 18000], "internal_node_id": "0.0-24.0", "trial": 0, "time_elapsed": 1293657, "serialpos": 12, "key_press": -1, "wordID": 696, "type": "PRES_AUD", "trial_index": 33}, "uniqueid": "MTK2396:3OXV7EAXLFXVB76OUAX47US3NAS631", "dateTime": 1517076966559}, {"current_trial": 34, "trialdata": {"rt": -1000, "trial_type": "single-audio", "word": "bug", "stimulus": "/static/audio/wordpool/BUG.wav", "conditions": [18, 1200, "a", 18000], "internal_node_id": "0.0-25.0", "trial": 0, "time_elapsed": 1295690, "serialpos": 13, "key_press": -1, "wordID": 186, "type": "PRES_AUD", "trial_index": 34}, "uniqueid": "MTK2396:3OXV7EAXLFXVB76OUAX47US3NAS631", "dateTime": 1517076968591}, {"current_trial": 35, "trialdata": {"rt": -1000, "trial_type": "single-audio", "word": "teacher", "stimulus": "/static/audio/wordpool/TEACHER.wav", "conditions": [18, 1200, "a", 18000], "internal_node_id": "0.0-26.0", "trial": 0, "time_elapsed": 1297722, "serialpos": 14, "key_press": -1, "wordID": 1439, "type": "PRES_AUD", "trial_index": 35}, "uniqueid": "MTK2396:3OXV7EAXLFXVB76OUAX47US3NAS631", "dateTime": 1517076970624}, {"current_trial": 36, "trialdata": {"rt": -1000, "trial_type": "single-audio", "word": "cafe", "stimulus": "/static/audio/wordpool/CAFE.wav", "conditions": [18, 1200, "a", 18000], "internal_node_id": "0.0-27.0", "trial": 0, "time_elapsed": 1300037, "serialpos": 15, "key_press": -1, "wordID": 215, "type": "PRES_AUD", "trial_index": 36}, "uniqueid": "MTK2396:3OXV7EAXLFXVB76OUAX47US3NAS631", "dateTime": 1517076972939}, {"current_trial": 37, "trialdata": {"rt": -1000, "trial_type": "single-audio", "word": "sandwich", "stimulus": "/static/audio/wordpool/SANDWICH.wav", "conditions": [18, 1200, "a", 18000], "internal_node_id": "0.0-28.0", "trial": 0, "time_elapsed": 1302220, "serialpos": 16, "key_press": -1, "wordID": 1231, "type": "PRES_AUD", "trial_index": 37}, "uniqueid": "MTK2396:3OXV7EAXLFXVB76OUAX47US3NAS631", "dateTime": 1517076975121}, {"current_trial": 38, "trialdata": {"rt": -1000, "trial_type": "single-audio", "word": "hostess", "stimulus": "/static/audio/wordpool/HOSTESS.wav", "conditions": [18, 1200, "a", 18000], "internal_node_id": "0.0-29.0", "trial": 0, "time_elapsed": 1304560, "serialpos": 17, "key_press": -1, "wordID": 722, "type": "PRES_AUD", "trial_index": 38}, "uniqueid": "MTK2396:3OXV7EAXLFXVB76OUAX47US3NAS631", "dateTime": 1517076977461}, {"current_trial": 39, "trialdata": {"rt": -1, "trial_type": "single-stim", "stimulus": "", "internal_node_id": "0.0-30.0-0.0", "time_elapsed": 1305790, "key_press": -1, "type": "PRE_RECALL_DELAY", "trial_index": 39}, "uniqueid": "MTK2396:3OXV7EAXLFXVB76OUAX47US3NAS631", "dateTime": 1517076978692}, {"current_trial": 40, "trialdata": {"rt": -1000, "trial_type": "single-audio", "stimulus": "/static/audio/400Hz.wav", "internal_node_id": "0.0-31.0", "time_elapsed": 1306294, "key_press": -1, "type": "PRE_RECALL_ALERT", "trial_index": 40}, "uniqueid": "MTK2396:3OXV7EAXLFXVB76OUAX47US3NAS631", "dateTime": 1517076979195}, {"current_trial": 41, "trialdata": {"rt": [7872, 8004, 11003, 12740, 14030, 16084, 46489, 50917, 53112, 57364], "recwords": ["popcorn", "", "beaver", "", "", "", "spinach", "popcorn", "poop", "beaver"], "key_times": [5172, 5335, 5517, 6009, 6474, 6896, 7380, 7872, 8004, 8287, 8642, 8866, 9379, 9698, 9891, 11003, 12740, 14030, 16084, 42540, 43436, 43828, 44058, 44603, 44960, 45463, 46489, 47758, 48067, 48268, 48973, 49458, 49965, 50379, 50917, 52145, 52394, 52555, 52749, 53112, 54327, 54758, 54998, 56068, 56469, 56662, 57364, 59925], "trial_type": "free-recall", "conditions": [18, 1200, "a", 18000], "internal_node_id": "0.0-32.0-0.0", "key_presses": [80, 79, 80, 67, 79, 82, 78, 188, 32, 66, 69, 65, 86, 69, 82, 13, 13, 32, 186, 83, 80, 73, 78, 65, 67, 72, 13, 80, 79, 80, 67, 79, 82, 78, 13, 80, 79, 79, 80, 13, 66, 69, 65, 86, 69, 82, 13, 65], "trial": 0, "time_elapsed": 1366301, "type": "FREE_RECALL", "trial_index": 41}, "uniqueid": "MTK2396:3OXV7EAXLFXVB76OUAX47US3NAS631", "dateTime": 1517077039207}, {"current_trial": 42, "trialdata": {"rt": 1898, "trial_type": "text", "internal_node_id": "0.0-33.0", "time_elapsed": 1370208, "key_press": 32, "type": "INSTRUCTIONS", "trial_index": 42}, "uniqueid": "MTK2396:3OXV7EAXLFXVB76OUAX47US3NAS631", "dateTime": 1517077043109}, {"current_trial": 43, "trialdata": {"rt": [3668, 11467, 14381], "trial_type": "math-distractor", "key_times": [2911, 3668, 10262, 10696, 11467, 13808, 14381], "responses": ["7", "25", "5"], "num2": [1, 9, 2, 6], "num3": [1, 9, 1, 8], "conditions": [18, 1200, "a", 18000], "internal_node_id": "0.0-34.0", "key_presses": [55, 13, 50, 53, 13, 53, 13], "trial": 1, "time_elapsed": 1390218, "type": "DISTRACTOR", "trial_index": 43, "num1": [5, 7, 2, 2]}, "uniqueid": "MTK2396:3OXV7EAXLFXVB76OUAX47US3NAS631", "dateTime": 1517077063119}, {"current_trial": 44, "trialdata": {"rt": -1, "trial_type": "single-stim", "stimulus": "<p id=\"stim\">10</p>", "internal_node_id": "0.0-35.0-0.0", "time_elapsed": 1393222, "key_press": -1, "trial_index": 44}, "uniqueid": "MTK2396:3OXV7EAXLFXVB76OUAX47US3NAS631", "dateTime": 1517077066123}, {"current_trial": 45, "trialdata": {"rt": -1, "trial_type": "single-stim", "stimulus": "<p id=\"stim\">9</p>", "internal_node_id": "0.0-35.0-1.0", "time_elapsed": 1394224, "key_press": -1, "trial_index": 45}, "uniqueid": "MTK2396:3OXV7EAXLFXVB76OUAX47US3NAS631", "dateTime": 1517077067126}, {"current_trial": 46, "trialdata": {"rt": -1, "trial_type": "single-stim", "stimulus": "<p id=\"stim\">8</p>", "internal_node_id": "0.0-35.0-2.0", "time_elapsed": 1395227, "key_press": -1, "trial_index": 46}, "uniqueid": "MTK2396:3OXV7EAXLFXVB76OUAX47US3NAS631", "dateTime": 1517077068128}, {"current_trial": 47, "trialdata": {"rt": -1, "trial_type": "single-stim", "stimulus": "<p id=\"stim\">7</p>", "internal_node_id": "0.0-35.0-3.0", "time_elapsed": 1396229, "key_press": -1, "trial_index": 47}, "uniqueid": "MTK2396:3OXV7EAXLFXVB76OUAX47US3NAS631", "dateTime": 1517077069130}, {"current_trial": 48, "trialdata": {"rt": -1, "trial_type": "single-stim", "stimulus": "<p id=\"stim\">6</p>", "internal_node_id": "0.0-35.0-4.0", "time_elapsed": 1397232, "key_press": -1, "trial_index": 48}, "uniqueid": "MTK2396:3OXV7EAXLFXVB76OUAX47US3NAS631", "dateTime": 1517077070133}, {"current_trial": 49, "trialdata": {"rt": -1, "trial_type": "single-stim", "stimulus": "<p id=\"stim\">5</p>", "internal_node_id": "0.0-35.0-5.0", "time_elapsed": 1398234, "key_press": -1, "trial_index": 49}, "uniqueid": "MTK2396:3OXV7EAXLFXVB76OUAX47US3NAS631", "dateTime": 1517077071135}, {"current_trial": 50, "trialdata": {"rt": -1, "trial_type": "single-stim", "stimulus": "<p id=\"stim\">4</p>", "internal_node_id": "0.0-35.0-6.0", "time_elapsed": 1399237, "key_press": -1, "trial_index": 50}, "uniqueid": "MTK2396:3OXV7EAXLFXVB76OUAX47US3NAS631", "dateTime": 1517077072138}, {"current_trial": 51, "trialdata": {"rt": -1, "trial_type": "single-stim", "stimulus": "<p id=\"stim\">3</p>", "internal_node_id": "0.0-35.0-7.0", "time_elapsed": 1400239, "key_press": -1, "trial_index": 51}, "uniqueid": "MTK2396:3OXV7EAXLFXVB76OUAX47US3NAS631", "dateTime": 1517077073140}, {"current_trial": 52, "trialdata": {"rt": -1, "trial_type": "single-stim", "stimulus": "<p id=\"stim\">2</p>", "internal_node_id": "0.0-35.0-8.0", "time_elapsed": 1401242, "key_press": -1, "trial_index": 52}, "uniqueid": "MTK2396:3OXV7EAXLFXVB76OUAX47US3NAS631", "dateTime": 1517077074143}, {"current_trial": 53, "trialdata": {"rt": -1, "trial_type": "single-stim", "stimulus": "<p id=\"stim\">1</p>", "internal_node_id": "0.0-35.0-9.0", "time_elapsed": 1402244, "key_press": -1, "trial_index": 53}, "uniqueid": "MTK2396:3OXV7EAXLFXVB76OUAX47US3NAS631", "dateTime": 1517077075145}, {"current_trial": 54, "trialdata": {"rt": -1, "trial_type": "single-stim", "stimulus": "<p id=\"stim\">+</p>", "internal_node_id": "0.0-36.0-0.0", "time_elapsed": 1403747, "key_press": -1, "type": "FIXATION", "trial_index": 54}, "uniqueid": "MTK2396:3OXV7EAXLFXVB76OUAX47US3NAS631", "dateTime": 1517077076648}, {"current_trial": 55, "trialdata": {"rt": -1000, "trial_type": "single-audio", "word": "juggler", "stimulus": "/static/audio/wordpool/JUGGLER.wav", "conditions": [18, 1200, "a", 18000], "internal_node_id": "0.0-37.0", "trial": 1, "time_elapsed": 1405902, "serialpos": 0, "key_press": -1, "wordID": 762, "type": "PRES_AUD", "trial_index": 55}, "uniqueid": "MTK2396:3OXV7EAXLFXVB76OUAX47US3NAS631", "dateTime": 1517077078804}, {"current_trial": 56, "trialdata": {"rt": -1000, "trial_type": "single-audio", "word": "leg", "stimulus": "/static/audio/wordpool/LEG.wav", "conditions": [18, 1200, "a", 18000], "internal_node_id": "0.0-38.0", "trial": 1, "time_elapsed": 1408277, "serialpos": 1, "key_press": -1, "wordID": 808, "type": "PRES_AUD", "trial_index": 56}, "uniqueid": "MTK2396:3OXV7EAXLFXVB76OUAX47US3NAS631", "dateTime": 1517077081179}, {"current_trial": 57, "trialdata": {"rt": -1000, "trial_type": "single-audio", "word": "sculpture", "stimulus": "/static/audio/wordpool/SCULPTURE.wav", "conditions": [18, 1200, "a", 18000], "internal_node_id": "0.0-39.0", "trial": 1, "time_elapsed": 1410562, "serialpos": 2, "key_press": -1, "wordID": 1257, "type": "PRES_AUD", "trial_index": 57}, "uniqueid": "MTK2396:3OXV7EAXLFXVB76OUAX47US3NAS631", "dateTime": 1517077083464}, {"current_trial": 58, "trialdata": {"rt": -1000, "trial_type": "single-audio", "word": "swimmer", "stimulus": "/static/audio/wordpool/SWIMMER.wav", "conditions": [18, 1200, "a", 18000], "internal_node_id": "0.0-40.0", "trial": 1, "time_elapsed": 1412815, "serialpos": 3, "key_press": -1, "wordID": 1419, "type": "PRES_AUD", "trial_index": 58}, "uniqueid": "MTK2396:3OXV7EAXLFXVB76OUAX47US3NAS631", "dateTime": 1517077085716}, {"current_trial": 59, "trialdata": {"rt": -1000, "trial_type": "single-audio", "word": "asia", "stimulus": "/static/audio/wordpool/ASIA.wav", "conditions": [18, 1200, "a", 18000], "internal_node_id": "0.0-41.0", "trial": 1, "time_elapsed": 1415140, "serialpos": 4, "key_press": -1, "wordID": 45, "type": "PRES_AUD", "trial_index": 59}, "uniqueid": "MTK2396:3OXV7EAXLFXVB76OUAX47US3NAS631", "dateTime": 1517077088041}, {"current_trial": 60, "trialdata": {"rt": -1000, "trial_type": "single-audio", "word": "female", "stimulus": "/static/audio/wordpool/FEMALE.wav", "conditions": [18, 1200, "a", 18000], "internal_node_id": "0.0-42.0", "trial": 1, "time_elapsed": 1417445, "serialpos": 5, "key_press": -1, "wordID": 558, "type": "PRES_AUD", "trial_index": 60}, "uniqueid": "MTK2396:3OXV7EAXLFXVB76OUAX47US3NAS631", "dateTime": 1517077090346}, {"current_trial": 61, "trialdata": {"rt": -1000, "trial_type": "single-audio", "word": "canyon", "stimulus": "/static/audio/wordpool/CANYON.wav", "conditions": [18, 1200, "a", 18000], "internal_node_id": "0.0-43.0", "trial": 1, "time_elapsed": 1419452, "serialpos": 6, "key_press": -1, "wordID": 234, "type": "PRES_AUD", "trial_index": 61}, "uniqueid": "MTK2396:3OXV7EAXLFXVB76OUAX47US3NAS631", "dateTime": 1517077092353}, {"current_trial": 62, "trialdata": {"rt": -1000, "trial_type": "single-audio", "word": "shelf", "stimulus": "/static/audio/wordpool/SHELF.wav", "conditions": [18, 1200, "a", 18000], "internal_node_id": "0.0-44.0", "trial": 1, "time_elapsed": 1421817, "serialpos": 7, "key_press": -1, "wordID": 1279, "type": "PRES_AUD", "trial_index": 62}, "uniqueid": "MTK2396:3OXV7EAXLFXVB76OUAX47US3NAS631", "dateTime": 1517077094718}, {"current_trial": 63, "trialdata": {"rt": -1000, "trial_type": "single-audio", "word": "world", "stimulus": "/static/audio/wordpool/WORLD.wav", "conditions": [18, 1200, "a", 18000], "internal_node_id": "0.0-45.0", "trial": 1, "time_elapsed": 1424179, "serialpos": 8, "key_press": -1, "wordID": 1621, "type": "PRES_AUD", "trial_index": 63}, "uniqueid": "MTK2396:3OXV7EAXLFXVB76OUAX47US3NAS631", "dateTime": 1517077097081}, {"current_trial": 64, "trialdata": {"rt": -1000, "trial_type": "single-audio", "word": "sponge", "stimulus": "/static/audio/wordpool/SPONGE.wav", "conditions": [18, 1200, "a", 18000], "internal_node_id": "0.0-46.0", "trial": 1, "time_elapsed": 1426512, "serialpos": 9, "key_press": -1, "wordID": 1354, "type": "PRES_AUD", "trial_index": 64}, "uniqueid": "MTK2396:3OXV7EAXLFXVB76OUAX47US3NAS631", "dateTime": 1517077099413}, {"current_trial": 65, "trialdata": {"rt": -1000, "trial_type": "single-audio", "word": "hero", "stimulus": "/static/audio/wordpool/HERO.wav", "conditions": [18, 1200, "a", 18000], "internal_node_id": "0.0-47.0", "trial": 1, "time_elapsed": 1428767, "serialpos": 10, "key_press": -1, "wordID": 705, "type": "PRES_AUD", "trial_index": 65}, "uniqueid": "MTK2396:3OXV7EAXLFXVB76OUAX47US3NAS631", "dateTime": 1517077101668}, {"current_trial": 66, "trialdata": {"rt": -1000, "trial_type": "single-audio", "word": "gift", "stimulus": "/static/audio/wordpool/GIFT.wav", "conditions": [18, 1200, "a", 18000], "internal_node_id": "0.0-48.0", "trial": 1, "time_elapsed": 1430922, "serialpos": 11, "key_press": -1, "wordID": 634, "type": "PRES_AUD", "trial_index": 66}, "uniqueid": "MTK2396:3OXV7EAXLFXVB76OUAX47US3NAS631", "dateTime": 1517077103823}, {"current_trial": 67, "trialdata": {"rt": -1000, "trial_type": "single-audio", "word": "daisy", "stimulus": "/static/audio/wordpool/DAISY.wav", "conditions": [18, 1200, "a", 18000], "internal_node_id": "0.0-49.0", "trial": 1, "time_elapsed": 1433267, "serialpos": 12, "key_press": -1, "wordID": 434, "type": "PRES_AUD", "trial_index": 67}, "uniqueid": "MTK2396:3OXV7EAXLFXVB76OUAX47US3NAS631", "dateTime": 1517077106168}, {"current_trial": 68, "trialdata": {"rt": -1000, "trial_type": "single-audio", "word": "college", "stimulus": "/static/audio/wordpool/COLLEGE.wav", "conditions": [18, 1200, "a", 18000], "internal_node_id": "0.0-50.0", "trial": 1, "time_elapsed": 1435417, "serialpos": 13, "key_press": -1, "wordID": 345, "type": "PRES_AUD", "trial_index": 68}, "uniqueid": "MTK2396:3OXV7EAXLFXVB76OUAX47US3NAS631", "dateTime": 1517077108323}, {"current_trial": 69, "trialdata": {"rt": -1000, "trial_type": "single-audio", "word": "lightning", "stimulus": "/static/audio/wordpool/LIGHTNING.wav", "conditions": [18, 1200, "a", 18000], "internal_node_id": "0.0-51.0", "trial": 1, "time_elapsed": 1437652, "serialpos": 14, "key_press": -1, "wordID": 819, "type": "PRES_AUD", "trial_index": 69}, "uniqueid": "MTK2396:3OXV7EAXLFXVB76OUAX47US3NAS631", "dateTime": 1517077110553}, {"current_trial": 70, "trialdata": {"rt": -1000, "trial_type": "single-audio", "word": "antler", "stimulus": "/static/audio/wordpool/ANTLER.wav", "conditions": [18, 1200, "a", 18000], "internal_node_id": "0.0-52.0", "trial": 1, "time_elapsed": 1440046, "serialpos": 15, "key_press": -1, "wordID": 28, "type": "PRES_AUD", "trial_index": 70}, "uniqueid": "MTK2396:3OXV7EAXLFXVB76OUAX47US3NAS631", "dateTime": 1517077112947}, {"current_trial": 71, "trialdata": {"rt": -1000, "trial_type": "single-audio", "word": "turkey", "stimulus": "/static/audio/wordpool/TURKEY.wav", "conditions": [18, 1200, "a", 18000], "internal_node_id": "0.0-53.0", "trial": 1, "time_elapsed": 1442376, "serialpos": 16, "key_press": -1, "wordID": 1519, "type": "PRES_AUD", "trial_index": 71}, "uniqueid": "MTK2396:3OXV7EAXLFXVB76OUAX47US3NAS631", "dateTime": 1517077115277}, {"current_trial": 72, "trialdata": {"rt": -1000, "trial_type": "single-audio", "word": "snail", "stimulus": "/static/audio/wordpool/SNAIL.wav", "conditions": [18, 1200, "a", 18000], "internal_node_id": "0.0-54.0", "trial": 1, "time_elapsed": 1444666, "serialpos": 17, "key_press": -1, "wordID": 1331, "type": "PRES_AUD", "trial_index": 72}, "uniqueid": "MTK2396:3OXV7EAXLFXVB76OUAX47US3NAS631", "dateTime": 1517077117567}, {"current_trial": 73, "trialdata": {"rt": -1, "trial_type": "single-stim", "stimulus": "", "internal_node_id": "0.0-55.0-0.0", "time_elapsed": 1445911, "key_press": -1, "type": "PRE_RECALL_DELAY", "trial_index": 73}, "uniqueid": "MTK2396:3OXV7EAXLFXVB76OUAX47US3NAS631", "dateTime": 1517077118812}, {"current_trial": 74, "trialdata": {"rt": -1000, "trial_type": "single-audio", "stimulus": "/static/audio/400Hz.wav", "internal_node_id": "0.0-56.0", "time_elapsed": 1446416, "key_press": -1, "type": "PRE_RECALL_ALERT", "trial_index": 74}, "uniqueid": "MTK2396:3OXV7EAXLFXVB76OUAX47US3NAS631", "dateTime": 1517077119317}, {"current_trial": 75, "trialdata": {"rt": [3086, 4519, 6312, 7272, 8815, 10730, 21194], "recwords": ["sponge", "college", "gift", "snail", "juggler", "daisey", "snail"], "key_times": [1087, 1179, 1370, 1659, 2036, 2197, 2418, 2516, 2715, 2853, 3086, 3357, 3432, 3635, 3786, 3891, 4127, 4350, 4519, 4692, 4819, 5203, 5373, 5670, 5744, 5938, 6145, 6312, 6486, 6622, 6791, 6867, 6962, 7272, 7657, 7857, 7961, 8155, 8242, 8393, 8530, 8815, 9572, 9713, 9889, 10071, 10281, 10390, 10730, 20487, 20632, 20761, 20870, 20936, 21194], "trial_type": "free-recall", "conditions": [18, 1200, "a", 18000], "internal_node_id": "0.0-57.0-0.0", "key_presses": [83, 80, 78, 71, 8, 8, 79, 78, 71, 69, 13, 67, 79, 76, 76, 69, 71, 69, 13, 70, 73, 8, 8, 71, 73, 70, 84, 13, 83, 78, 65, 73, 76, 13, 74, 85, 71, 71, 76, 69, 82, 13, 68, 65, 73, 83, 69, 89, 13, 83, 78, 65, 73, 76, 13], "trial": 1, "time_elapsed": 1506425, "type": "FREE_RECALL", "trial_index": 75}, "uniqueid": "MTK2396:3OXV7EAXLFXVB76OUAX47US3NAS631", "dateTime": 1517077179331}, {"current_trial": 76, "trialdata": {"rt": 3081, "trial_type": "text", "internal_node_id": "0.0-58.0", "time_elapsed": 1511513, "key_press": 32, "type": "INSTRUCTIONS", "trial_index": 76}, "uniqueid": "MTK2396:3OXV7EAXLFXVB76OUAX47US3NAS631", "dateTime": 1517077184414}, {"current_trial": 77, "trialdata": {"rt": [5026], "trial_type": "math-distractor", "key_times": [4043, 4186, 5026, 10691, 11380], "responses": ["22"], "num2": [5, 6], "num3": [8, 3], "conditions": [24, 800, "a", 12000], "internal_node_id": "0.0-59.0", "key_presses": [50, 50, 13, 49, 54], "trial": 2, "time_elapsed": 1524520, "type": "DISTRACTOR", "trial_index": 77, "num1": [9, 7]}, "uniqueid": "MTK2396:3OXV7EAXLFXVB76OUAX47US3NAS631", "dateTime": 1517077197421}, {"current_trial": 78, "trialdata": {"rt": -1, "trial_type": "single-stim", "stimulus": "<p id=\"stim\">10</p>", "internal_node_id": "0.0-60.0-0.0", "time_elapsed": 1527524, "key_press": -1, "trial_index": 78}, "uniqueid": "MTK2396:3OXV7EAXLFXVB76OUAX47US3NAS631", "dateTime": 1517077200425}, {"current_trial": 79, "trialdata": {"rt": -1, "trial_type": "single-stim", "stimulus": "<p id=\"stim\">9</p>", "internal_node_id": "0.0-60.0-1.0", "time_elapsed": 1528526, "key_press": -1, "trial_index": 79}, "uniqueid": "MTK2396:3OXV7EAXLFXVB76OUAX47US3NAS631", "dateTime": 1517077201428}, {"current_trial": 80, "trialdata": {"rt": -1, "trial_type": "single-stim", "stimulus": "<p id=\"stim\">8</p>", "internal_node_id": "0.0-60.0-2.0", "time_elapsed": 1529529, "key_press": -1, "trial_index": 80}, "uniqueid": "MTK2396:3OXV7EAXLFXVB76OUAX47US3NAS631", "dateTime": 1517077202430}, {"current_trial": 81, "trialdata": {"rt": -1, "trial_type": "single-stim", "stimulus": "<p id=\"stim\">7</p>", "internal_node_id": "0.0-60.0-3.0", "time_elapsed": 1530531, "key_press": -1, "trial_index": 81}, "uniqueid": "MTK2396:3OXV7EAXLFXVB76OUAX47US3NAS631", "dateTime": 1517077203433}, {"current_trial": 82, "trialdata": {"rt": -1, "trial_type": "single-stim", "stimulus": "<p id=\"stim\">6</p>", "internal_node_id": "0.0-60.0-4.0", "time_elapsed": 1531534, "key_press": -1, "trial_index": 82}, "uniqueid": "MTK2396:3OXV7EAXLFXVB76OUAX47US3NAS631", "dateTime": 1517077204435}, {"current_trial": 83, "trialdata": {"rt": -1, "trial_type": "single-stim", "stimulus": "<p id=\"stim\">5</p>", "internal_node_id": "0.0-60.0-5.0", "time_elapsed": 1532536, "key_press": -1, "trial_index": 83}, "uniqueid": "MTK2396:3OXV7EAXLFXVB76OUAX47US3NAS631", "dateTime": 1517077205438}, {"current_trial": 84, "trialdata": {"rt": -1, "trial_type": "single-stim", "stimulus": "<p id=\"stim\">4</p>", "internal_node_id": "0.0-60.0-6.0", "time_elapsed": 1533539, "key_press": -1, "trial_index": 84}, "uniqueid": "MTK2396:3OXV7EAXLFXVB76OUAX47US3NAS631", "dateTime": 1517077206440}, {"current_trial": 85, "trialdata": {"rt": -1, "trial_type": "single-stim", "stimulus": "<p id=\"stim\">3</p>", "internal_node_id": "0.0-60.0-7.0", "time_elapsed": 1534541, "key_press": -1, "trial_index": 85}, "uniqueid": "MTK2396:3OXV7EAXLFXVB76OUAX47US3NAS631", "dateTime": 1517077207443}, {"current_trial": 86, "trialdata": {"rt": -1, "trial_type": "single-stim", "stimulus": "<p id=\"stim\">2</p>", "internal_node_id": "0.0-60.0-8.0", "time_elapsed": 1535544, "key_press": -1, "trial_index": 86}, "uniqueid": "MTK2396:3OXV7EAXLFXVB76OUAX47US3NAS631", "dateTime": 1517077208445}, {"current_trial": 87, "trialdata": {"rt": -1, "trial_type": "single-stim", "stimulus": "<p id=\"stim\">1</p>", "internal_node_id": "0.0-60.0-9.0", "time_elapsed": 1536546, "key_press": -1, "trial_index": 87}, "uniqueid": "MTK2396:3OXV7EAXLFXVB76OUAX47US3NAS631", "dateTime": 1517077209448}, {"current_trial": 88, "trialdata": {"rt": -1, "trial_type": "single-stim", "stimulus": "<p id=\"stim\">+</p>", "internal_node_id": "0.0-61.0-0.0", "time_elapsed": 1538049, "key_press": -1, "type": "FIXATION", "trial_index": 88}, "uniqueid": "MTK2396:3OXV7EAXLFXVB76OUAX47US3NAS631", "dateTime": 1517077210950}, {"current_trial": 89, "trialdata": {"rt": -1000, "trial_type": "single-audio", "word": "gravel", "stimulus": "/static/audio/wordpool/GRAVEL.wav", "conditions": [24, 800, "a", 12000], "internal_node_id": "0.0-62.0", "trial": 2, "time_elapsed": 1540038, "serialpos": 0, "key_press": -1, "wordID": 658, "type": "PRES_AUD", "trial_index": 89}, "uniqueid": "MTK2396:3OXV7EAXLFXVB76OUAX47US3NAS631", "dateTime": 1517077212939}, {"current_trial": 90, "trialdata": {"rt": -1000, "trial_type": "single-audio", "word": "jello", "stimulus": "/static/audio/wordpool/JELLO.wav", "conditions": [24, 800, "a", 12000], "internal_node_id": "0.0-63.0", "trial": 2, "time_elapsed": 1542020, "serialpos": 1, "key_press": -1, "wordID": 753, "type": "PRES_AUD", "trial_index": 90}, "uniqueid": "MTK2396:3OXV7EAXLFXVB76OUAX47US3NAS631", "dateTime": 1517077214921}, {"current_trial": 91, "trialdata": {"rt": -1000, "trial_type": "single-audio", "word": "viking", "stimulus": "/static/audio/wordpool/VIKING.wav", "conditions": [24, 800, "a", 12000], "internal_node_id": "0.0-64.0", "trial": 2, "time_elapsed": 1543765, "serialpos": 2, "key_press": -1, "wordID": 1564, "type": "PRES_AUD", "trial_index": 91}, "uniqueid": "MTK2396:3OXV7EAXLFXVB76OUAX47US3NAS631", "dateTime": 1517077216666}, {"current_trial": 92, "trialdata": {"rt": -1000, "trial_type": "single-audio", "word": "missile", "stimulus": "/static/audio/wordpool/MISSILE.wav", "conditions": [24, 800, "a", 12000], "internal_node_id": "0.0-65.0", "trial": 2, "time_elapsed": 1545590, "serialpos": 3, "key_press": -1, "wordID": 899, "type": "PRES_AUD", "trial_index": 92}, "uniqueid": "MTK2396:3OXV7EAXLFXVB76OUAX47US3NAS631", "dateTime": 1517077218491}, {"current_trial": 93, "trialdata": {"rt": -1000, "trial_type": "single-audio", "word": "pimple", "stimulus": "/static/audio/wordpool/PIMPLE.wav", "conditions": [24, 800, "a", 12000], "internal_node_id": "0.0-66.0", "trial": 2, "time_elapsed": 1547312, "serialpos": 4, "key_press": -1, "wordID": 1070, "type": "PRES_AUD", "trial_index": 93}, "uniqueid": "MTK2396:3OXV7EAXLFXVB76OUAX47US3NAS631", "dateTime": 1517077220214}, {"current_trial": 94, "trialdata": {"rt": -1000, "trial_type": "single-audio", "word": "machine", "stimulus": "/static/audio/wordpool/MACHINE.wav", "conditions": [24, 800, "a", 12000], "internal_node_id": "0.0-67.0", "trial": 2, "time_elapsed": 1549152, "serialpos": 5, "key_press": -1, "wordID": 851, "type": "PRES_AUD", "trial_index": 94}, "uniqueid": "MTK2396:3OXV7EAXLFXVB76OUAX47US3NAS631", "dateTime": 1517077222054}, {"current_trial": 95, "trialdata": {"rt": -1000, "trial_type": "single-audio", "word": "supper", "stimulus": "/static/audio/wordpool/SUPPER.wav", "conditions": [24, 800, "a", 12000], "internal_node_id": "0.0-68.0", "trial": 2, "time_elapsed": 1550825, "serialpos": 6, "key_press": -1, "wordID": 1410, "type": "PRES_AUD", "trial_index": 95}, "uniqueid": "MTK2396:3OXV7EAXLFXVB76OUAX47US3NAS631", "dateTime": 1517077223726}, {"current_trial": 96, "trialdata": {"rt": -1000, "trial_type": "single-audio", "word": "slope", "stimulus": "/static/audio/wordpool/SLOPE.wav", "conditions": [24, 800, "a", 12000], "internal_node_id": "0.0-69.0", "trial": 2, "time_elapsed": 1552700, "serialpos": 7, "key_press": -1, "wordID": 1327, "type": "PRES_AUD", "trial_index": 96}, "uniqueid": "MTK2396:3OXV7EAXLFXVB76OUAX47US3NAS631", "dateTime": 1517077225601}, {"current_trial": 97, "trialdata": {"rt": -1000, "trial_type": "single-audio", "word": "saddle", "stimulus": "/static/audio/wordpool/SADDLE.wav", "conditions": [24, 800, "a", 12000], "internal_node_id": "0.0-70.0", "trial": 2, "time_elapsed": 1554477, "serialpos": 8, "key_press": -1, "wordID": 1220, "type": "PRES_AUD", "trial_index": 97}, "uniqueid": "MTK2396:3OXV7EAXLFXVB76OUAX47US3NAS631", "dateTime": 1517077227378}, {"current_trial": 98, "trialdata": {"rt": -1000, "trial_type": "single-audio", "word": "jelly", "stimulus": "/static/audio/wordpool/JELLY.wav", "conditions": [24, 800, "a", 12000], "internal_node_id": "0.0-71.0", "trial": 2, "time_elapsed": 1556392, "serialpos": 9, "key_press": -1, "wordID": 754, "type": "PRES_AUD", "trial_index": 98}, "uniqueid": "MTK2396:3OXV7EAXLFXVB76OUAX47US3NAS631", "dateTime": 1517077229294}, {"current_trial": 99, "trialdata": {"rt": -1000, "trial_type": "single-audio", "word": "wife", "stimulus": "/static/audio/wordpool/WIFE.wav", "conditions": [24, 800, "a", 12000], "internal_node_id": "0.0-72.0", "trial": 2, "time_elapsed": 1558082, "serialpos": 10, "key_press": -1, "wordID": 1608, "type": "PRES_AUD", "trial_index": 99}, "uniqueid": "MTK2396:3OXV7EAXLFXVB76OUAX47US3NAS631", "dateTime": 1517077230983}, {"current_trial": 100, "trialdata": {"rt": -1000, "trial_type": "single-audio", "word": "spouse", "stimulus": "/static/audio/wordpool/SPOUSE.wav", "conditions": [24, 800, "a", 12000], "internal_node_id": "0.0-73.0", "trial": 2, "time_elapsed": 1559992, "serialpos": 11, "key_press": -1, "wordID": 1357, "type": "PRES_AUD", "trial_index": 100}, "uniqueid": "MTK2396:3OXV7EAXLFXVB76OUAX47US3NAS631", "dateTime": 1517077232893}, {"current_trial": 101, "trialdata": {"rt": -1000, "trial_type": "single-audio", "word": "receipt", "stimulus": "/static/audio/wordpool/RECEIPT.wav", "conditions": [24, 800, "a", 12000], "internal_node_id": "0.0-74.0", "trial": 2, "time_elapsed": 1561847, "serialpos": 12, "key_press": -1, "wordID": 1172, "type": "PRES_AUD", "trial_index": 101}, "uniqueid": "MTK2396:3OXV7EAXLFXVB76OUAX47US3NAS631", "dateTime": 1517077234748}, {"current_trial": 102, "trialdata": {"rt": -1000, "trial_type": "single-audio", "word": "kleenex", "stimulus": "/static/audio/wordpool/KLEENEX.wav", "conditions": [24, 800, "a", 12000], "internal_node_id": "0.0-75.0", "trial": 2, "time_elapsed": 1563760, "serialpos": 13, "key_press": -1, "wordID": 781, "type": "PRES_AUD", "trial_index": 102}, "uniqueid": "MTK2396:3OXV7EAXLFXVB76OUAX47US3NAS631", "dateTime": 1517077236661}, {"current_trial": 103, "trialdata": {"rt": -1000, "trial_type": "single-audio", "word": "zebra", "stimulus": "/static/audio/wordpool/ZEBRA.wav", "conditions": [24, 800, "a", 12000], "internal_node_id": "0.0-76.0", "trial": 2, "time_elapsed": 1565515, "serialpos": 14, "key_press": -1, "wordID": 1634, "type": "PRES_AUD", "trial_index": 103}, "uniqueid": "MTK2396:3OXV7EAXLFXVB76OUAX47US3NAS631", "dateTime": 1517077238416}, {"current_trial": 104, "trialdata": {"rt": -1000, "trial_type": "single-audio", "word": "tuba", "stimulus": "/static/audio/wordpool/TUBA.wav", "conditions": [24, 800, "a", 12000], "internal_node_id": "0.0-77.0", "trial": 2, "time_elapsed": 1567295, "serialpos": 15, "key_press": -1, "wordID": 1514, "type": "PRES_AUD", "trial_index": 104}, "uniqueid": "MTK2396:3OXV7EAXLFXVB76OUAX47US3NAS631", "dateTime": 1517077240196}, {"current_trial": 105, "trialdata": {"rt": -1000, "trial_type": "single-audio", "word": "money", "stimulus": "/static/audio/wordpool/MONEY.wav", "conditions": [24, 800, "a", 12000], "internal_node_id": "0.0-78.0", "trial": 2, "time_elapsed": 1569267, "serialpos": 16, "key_press": -1, "wordID": 907, "type": "PRES_AUD", "trial_index": 105}, "uniqueid": "MTK2396:3OXV7EAXLFXVB76OUAX47US3NAS631", "dateTime": 1517077242168}, {"current_trial": 106, "trialdata": {"rt": -1000, "trial_type": "single-audio", "word": "pecan", "stimulus": "/static/audio/wordpool/PECAN.wav", "conditions": [24, 800, "a", 12000], "internal_node_id": "0.0-79.0", "trial": 2, "time_elapsed": 1570989, "serialpos": 17, "key_press": -1, "wordID": 1035, "type": "PRES_AUD", "trial_index": 106}, "uniqueid": "MTK2396:3OXV7EAXLFXVB76OUAX47US3NAS631", "dateTime": 1517077243891}, {"current_trial": 107, "trialdata": {"rt": -1000, "trial_type": "single-audio", "word": "crutch", "stimulus": "/static/audio/wordpool/CRUTCH.wav", "conditions": [24, 800, "a", 12000], "internal_node_id": "0.0-80.0", "trial": 2, "time_elapsed": 1572852, "serialpos": 18, "key_press": -1, "wordID": 416, "type": "PRES_AUD", "trial_index": 107}, "uniqueid": "MTK2396:3OXV7EAXLFXVB76OUAX47US3NAS631", "dateTime": 1517077245753}, {"current_trial": 108, "trialdata": {"rt": -1000, "trial_type": "single-audio", "word": "venus", "stimulus": "/static/audio/wordpool/VENUS.wav", "conditions": [24, 800, "a", 12000], "internal_node_id": "0.0-81.0", "trial": 2, "time_elapsed": 1574607, "serialpos": 19, "key_press": -1, "wordID": 1556, "type": "PRES_AUD", "trial_index": 108}, "uniqueid": "MTK2396:3OXV7EAXLFXVB76OUAX47US3NAS631", "dateTime": 1517077247508}, {"current_trial": 109, "trialdata": {"rt": -1000, "trial_type": "single-audio", "word": "peanut", "stimulus": "/static/audio/wordpool/PEANUT.wav", "conditions": [24, 800, "a", 12000], "internal_node_id": "0.0-82.0", "trial": 2, "time_elapsed": 1576517, "serialpos": 20, "key_press": -1, "wordID": 1031, "type": "PRES_AUD", "trial_index": 109}, "uniqueid": "MTK2396:3OXV7EAXLFXVB76OUAX47US3NAS631", "dateTime": 1517077249418}, {"current_trial": 110, "trialdata": {"rt": -1000, "trial_type": "single-audio", "word": "soda", "stimulus": "/static/audio/wordpool/SODA.wav", "conditions": [24, 800, "a", 12000], "internal_node_id": "0.0-83.0", "trial": 2, "time_elapsed": 1578462, "serialpos": 21, "key_press": -1, "wordID": 1340, "type": "PRES_AUD", "trial_index": 110}, "uniqueid": "MTK2396:3OXV7EAXLFXVB76OUAX47US3NAS631", "dateTime": 1517077251363}, {"current_trial": 111, "trialdata": {"rt": -1000, "trial_type": "single-audio", "word": "coffee", "stimulus": "/static/audio/wordpool/COFFEE.wav", "conditions": [24, 800, "a", 12000], "internal_node_id": "0.0-84.0", "trial": 2, "time_elapsed": 1580109, "serialpos": 22, "key_press": -1, "wordID": 340, "type": "PRES_AUD", "trial_index": 111}, "uniqueid": "MTK2396:3OXV7EAXLFXVB76OUAX47US3NAS631", "dateTime": 1517077253010}, {"current_trial": 112, "trialdata": {"rt": -1000, "trial_type": "single-audio", "word": "sunrise", "stimulus": "/static/audio/wordpool/SUNRISE.wav", "conditions": [24, 800, "a", 12000], "internal_node_id": "0.0-85.0", "trial": 2, "time_elapsed": 1581907, "serialpos": 23, "key_press": -1, "wordID": 1406, "type": "PRES_AUD", "trial_index": 112}, "uniqueid": "MTK2396:3OXV7EAXLFXVB76OUAX47US3NAS631", "dateTime": 1517077254808}, {"current_trial": 113, "trialdata": {"rt": -1, "trial_type": "single-stim", "stimulus": "", "internal_node_id": "0.0-86.0-0.0", "time_elapsed": 1583232, "key_press": -1, "type": "PRE_RECALL_DELAY", "trial_index": 113}, "uniqueid": "MTK2396:3OXV7EAXLFXVB76OUAX47US3NAS631", "dateTime": 1517077256134}, {"current_trial": 114, "trialdata": {"rt": -1000, "trial_type": "single-audio", "stimulus": "/static/audio/400Hz.wav", "internal_node_id": "0.0-87.0", "time_elapsed": 1583734, "key_press": -1, "type": "PRE_RECALL_ALERT", "trial_index": 114}, "uniqueid": "MTK2396:3OXV7EAXLFXVB76OUAX47US3NAS631", "dateTime": 1517077256636}, {"current_trial": 115, "trialdata": {"rt": [3637, 4796, 6336, 7503, 9468, 12420, 33829], "recwords": ["sunrise", "peanut", "pecan", "wife", "spouse", "coffee", "college"], "key_times": [2504, 2628, 2803, 3002, 3067, 3259, 3401, 3637, 3887, 4010, 4121, 4206, 4413, 4622, 4796, 5452, 5595, 5831, 5975, 6107, 6336, 6792, 6904, 7048, 7178, 7503, 7805, 7946, 8220, 8271, 8977, 9118, 9468, 9760, 9872, 10212, 10384, 11451, 11559, 11715, 11895, 12048, 12249, 12420, 30672, 31222, 31437, 31597, 32098, 32812, 33094, 33829], "trial_type": "free-recall", "conditions": [24, 800, "a", 12000], "internal_node_id": "0.0-88.0-0.0", "key_presses": [83, 85, 78, 82, 73, 83, 69, 13, 80, 69, 65, 78, 85, 84, 13, 80, 69, 67, 65, 78, 13, 87, 73, 70, 69, 13, 83, 80, 79, 85, 83, 69, 13, 83, 85, 8, 8, 67, 79, 70, 70, 69, 69, 13, 67, 79, 76, 76, 69, 71, 69, 13], "trial": 2, "time_elapsed": 1643750, "type": "FREE_RECALL", "trial_index": 115}, "uniqueid": "MTK2396:3OXV7EAXLFXVB76OUAX47US3NAS631", "dateTime": 1517077316656}, {"current_trial": 116, "trialdata": {"rt": 2859, "trial_type": "text", "internal_node_id": "0.0-89.0", "time_elapsed": 1648615, "key_press": 32, "type": "INSTRUCTIONS", "trial_index": 116}, "uniqueid": "MTK2396:3OXV7EAXLFXVB76OUAX47US3NAS631", "dateTime": 1517077321516}, {"current_trial": 117, "trialdata": {"rt": [5610, 9713, 13309, 16782, 21553, 23706], "trial_type": "math-distractor", "key_times": [3966, 4837, 5610, 8347, 8842, 9713, 12041, 12774, 13309, 15666, 16321, 16782, 20190, 20789, 21553, 23008, 23706], "responses": ["19", "14", "19", "20", "15", "3"], "num2": [9, 7, 3, 9, 8, 1, 7], "num3": [5, 3, 8, 4, 6, 1, 9], "conditions": [24, 1600, "a", 24000], "internal_node_id": "0.0-90.0", "key_presses": [49, 57, 13, 49, 52, 13, 49, 57, 13, 50, 48, 13, 49, 53, 13, 51, 13], "trial": 3, "time_elapsed": 1674624, "type": "DISTRACTOR", "trial_index": 117, "num1": [5, 4, 8, 7, 1, 1, 1]}, "uniqueid": "MTK2396:3OXV7EAXLFXVB76OUAX47US3NAS631", "dateTime": 1517077347525}, {"current_trial": 118, "trialdata": {"rt": -1, "trial_type": "single-stim", "stimulus": "<p id=\"stim\">10</p>", "internal_node_id": "0.0-91.0-0.0", "time_elapsed": 1677628, "key_press": -1, "trial_index": 118}, "uniqueid": "MTK2396:3OXV7EAXLFXVB76OUAX47US3NAS631", "dateTime": 1517077350529}, {"current_trial": 119, "trialdata": {"rt": -1, "trial_type": "single-stim", "stimulus": "<p id=\"stim\">9</p>", "internal_node_id": "0.0-91.0-1.0", "time_elapsed": 1678630, "key_press": -1, "trial_index": 119}, "uniqueid": "MTK2396:3OXV7EAXLFXVB76OUAX47US3NAS631", "dateTime": 1517077351532}, {"current_trial": 120, "trialdata": {"rt": -1, "trial_type": "single-stim", "stimulus": "<p id=\"stim\">8</p>", "internal_node_id": "0.0-91.0-2.0", "time_elapsed": 1679635, "key_press": -1, "trial_index": 120}, "uniqueid": "MTK2396:3OXV7EAXLFXVB76OUAX47US3NAS631", "dateTime": 1517077352536}, {"current_trial": 121, "trialdata": {"rt": -1, "trial_type": "single-stim", "stimulus": "<p id=\"stim\">7</p>", "internal_node_id": "0.0-91.0-3.0", "time_elapsed": 1680638, "key_press": -1, "trial_index": 121}, "uniqueid": "MTK2396:3OXV7EAXLFXVB76OUAX47US3NAS631", "dateTime": 1517077353539}, {"current_trial": 122, "trialdata": {"rt": -1, "trial_type": "single-stim", "stimulus": "<p id=\"stim\">6</p>", "internal_node_id": "0.0-91.0-4.0", "time_elapsed": 1681640, "key_press": -1, "trial_index": 122}, "uniqueid": "MTK2396:3OXV7EAXLFXVB76OUAX47US3NAS631", "dateTime": 1517077354541}, {"current_trial": 123, "trialdata": {"rt": -1, "trial_type": "single-stim", "stimulus": "<p id=\"stim\">5</p>", "internal_node_id": "0.0-91.0-5.0", "time_elapsed": 1682642, "key_press": -1, "trial_index": 123}, "uniqueid": "MTK2396:3OXV7EAXLFXVB76OUAX47US3NAS631", "dateTime": 1517077355544}, {"current_trial": 124, "trialdata": {"rt": -1, "trial_type": "single-stim", "stimulus": "<p id=\"stim\">4</p>", "internal_node_id": "0.0-91.0-6.0", "time_elapsed": 1683645, "key_press": -1, "trial_index": 124}, "uniqueid": "MTK2396:3OXV7EAXLFXVB76OUAX47US3NAS631", "dateTime": 1517077356546}, {"current_trial": 125, "trialdata": {"rt": -1, "trial_type": "single-stim", "stimulus": "<p id=\"stim\">3</p>", "internal_node_id": "0.0-91.0-7.0", "time_elapsed": 1684648, "key_press": -1, "trial_index": 125}, "uniqueid": "MTK2396:3OXV7EAXLFXVB76OUAX47US3NAS631", "dateTime": 1517077357549}, {"current_trial": 126, "trialdata": {"rt": -1, "trial_type": "single-stim", "stimulus": "<p id=\"stim\">2</p>", "internal_node_id": "0.0-91.0-8.0", "time_elapsed": 1685650, "key_press": -1, "trial_index": 126}, "uniqueid": "MTK2396:3OXV7EAXLFXVB76OUAX47US3NAS631", "dateTime": 1517077358551}, {"current_trial": 127, "trialdata": {"rt": -1, "trial_type": "single-stim", "stimulus": "<p id=\"stim\">1</p>", "internal_node_id": "0.0-91.0-9.0", "time_elapsed": 1686652, "key_press": -1, "trial_index": 127}, "uniqueid": "MTK2396:3OXV7EAXLFXVB76OUAX47US3NAS631", "dateTime": 1517077359554}, {"current_trial": 128, "trialdata": {"rt": -1, "trial_type": "single-stim", "stimulus": "<p id=\"stim\">+</p>", "internal_node_id": "0.0-92.0-0.0", "time_elapsed": 1688155, "key_press": -1, "type": "FIXATION", "trial_index": 128}, "uniqueid": "MTK2396:3OXV7EAXLFXVB76OUAX47US3NAS631", "dateTime": 1517077361056}, {"current_trial": 129, "trialdata": {"rt": -1000, "trial_type": "single-audio", "word": "cobra", "stimulus": "/static/audio/wordpool/COBRA.wav", "conditions": [24, 1600, "a", 24000], "internal_node_id": "0.0-93.0", "trial": 3, "time_elapsed": 1690886, "serialpos": 0, "key_press": -1, "wordID": 335, "type": "PRES_AUD", "trial_index": 129}, "uniqueid": "MTK2396:3OXV7EAXLFXVB76OUAX47US3NAS631", "dateTime": 1517077363787}, {"current_trial": 130, "trialdata": {"rt": -1000, "trial_type": "single-audio", "word": "beaker", "stimulus": "/static/audio/wordpool/BEAKER.wav", "conditions": [24, 1600, "a", 24000], "internal_node_id": "0.0-94.0", "trial": 3, "time_elapsed": 1693671, "serialpos": 1, "key_press": -1, "wordID": 103, "type": "PRES_AUD", "trial_index": 130}, "uniqueid": "MTK2396:3OXV7EAXLFXVB76OUAX47US3NAS631", "dateTime": 1517077366572}, {"current_trial": 131, "trialdata": {"rt": -1000, "trial_type": "single-audio", "word": "beef", "stimulus": "/static/audio/wordpool/BEEF.wav", "conditions": [24, 1600, "a", 24000], "internal_node_id": "0.0-95.0", "trial": 3, "time_elapsed": 1696333, "serialpos": 2, "key_press": -1, "wordID": 112, "type": "PRES_AUD", "trial_index": 131}, "uniqueid": "MTK2396:3OXV7EAXLFXVB76OUAX47US3NAS631", "dateTime": 1517077369234}, {"current_trial": 132, "trialdata": {"rt": -1000, "trial_type": "single-audio", "word": "cattle", "stimulus": "/static/audio/wordpool/CATTLE.wav", "conditions": [24, 1600, "a", 24000], "internal_node_id": "0.0-96.0", "trial": 3, "time_elapsed": 1698976, "serialpos": 3, "key_press": -1, "wordID": 260, "type": "PRES_AUD", "trial_index": 132}, "uniqueid": "MTK2396:3OXV7EAXLFXVB76OUAX47US3NAS631", "dateTime": 1517077371877}, {"current_trial": 133, "trialdata": {"rt": -1000, "trial_type": "single-audio", "word": "pocket", "stimulus": "/static/audio/wordpool/POCKET.wav", "conditions": [24, 1600, "a", 24000], "internal_node_id": "0.0-97.0", "trial": 3, "time_elapsed": 1701400, "serialpos": 4, "key_press": -1, "wordID": 1092, "type": "PRES_AUD", "trial_index": 133}, "uniqueid": "MTK2396:3OXV7EAXLFXVB76OUAX47US3NAS631", "dateTime": 1517077374302}, {"current_trial": 134, "trialdata": {"rt": -1000, "trial_type": "single-audio", "word": "brook", "stimulus": "/static/audio/wordpool/BROOK.wav", "conditions": [24, 1600, "a", 24000], "internal_node_id": "0.0-98.0", "trial": 3, "time_elapsed": 1704163, "serialpos": 5, "key_press": -1, "wordID": 176, "type": "PRES_AUD", "trial_index": 134}, "uniqueid": "MTK2396:3OXV7EAXLFXVB76OUAX47US3NAS631", "dateTime": 1517077377064}, {"current_trial": 135, "trialdata": {"rt": -1000, "trial_type": "single-audio", "word": "canal", "stimulus": "/static/audio/wordpool/CANAL.wav", "conditions": [24, 1600, "a", 24000], "internal_node_id": "0.0-99.0", "trial": 3, "time_elapsed": 1706684, "serialpos": 6, "key_press": -1, "wordID": 225, "type": "PRES_AUD", "trial_index": 135}, "uniqueid": "MTK2396:3OXV7EAXLFXVB76OUAX47US3NAS631", "dateTime": 1517077379585}, {"current_trial": 136, "trialdata": {"rt": -1000, "trial_type": "single-audio", "word": "inmate", "stimulus": "/static/audio/wordpool/INMATE.wav", "conditions": [24, 1600, "a", 24000], "internal_node_id": "0.0-100.0", "trial": 3, "time_elapsed": 1709093, "serialpos": 7, "key_press": -1, "wordID": 737, "type": "PRES_AUD", "trial_index": 136}, "uniqueid": "MTK2396:3OXV7EAXLFXVB76OUAX47US3NAS631", "dateTime": 1517077381994}, {"current_trial": 137, "trialdata": {"rt": -1000, "trial_type": "single-audio", "word": "blouse", "stimulus": "/static/audio/wordpool/BLOUSE.wav", "conditions": [24, 1600, "a", 24000], "internal_node_id": "0.0-101.0", "trial": 3, "time_elapsed": 1711798, "serialpos": 8, "key_press": -1, "wordID": 138, "type": "PRES_AUD", "trial_index": 137}, "uniqueid": "MTK2396:3OXV7EAXLFXVB76OUAX47US3NAS631", "dateTime": 1517077384699}, {"current_trial": 138, "trialdata": {"rt": -1000, "trial_type": "single-audio", "word": "goblin", "stimulus": "/static/audio/wordpool/GOBLIN.wav", "conditions": [24, 1600, "a", 24000], "internal_node_id": "0.0-102.0", "trial": 3, "time_elapsed": 1714348, "serialpos": 9, "key_press": -1, "wordID": 644, "type": "PRES_AUD", "trial_index": 138}, "uniqueid": "MTK2396:3OXV7EAXLFXVB76OUAX47US3NAS631", "dateTime": 1517077387249}, {"current_trial": 139, "trialdata": {"rt": -1000, "trial_type": "single-audio", "word": "monster", "stimulus": "/static/audio/wordpool/MONSTER.wav", "conditions": [24, 1600, "a", 24000], "internal_node_id": "0.0-103.0", "trial": 3, "time_elapsed": 1716785, "serialpos": 10, "key_press": -1, "wordID": 911, "type": "PRES_AUD", "trial_index": 139}, "uniqueid": "MTK2396:3OXV7EAXLFXVB76OUAX47US3NAS631", "dateTime": 1517077389686}, {"current_trial": 140, "trialdata": {"rt": -1000, "trial_type": "single-audio", "word": "flask", "stimulus": "/static/audio/wordpool/FLASK.wav", "conditions": [24, 1600, "a", 24000], "internal_node_id": "0.0-104.0", "trial": 3, "time_elapsed": 1719257, "serialpos": 11, "key_press": -1, "wordID": 575, "type": "PRES_AUD", "trial_index": 140}, "uniqueid": "MTK2396:3OXV7EAXLFXVB76OUAX47US3NAS631", "dateTime": 1517077392159}, {"current_trial": 141, "trialdata": {"rt": -1000, "trial_type": "single-audio", "word": "infant", "stimulus": "/static/audio/wordpool/INFANT.wav", "conditions": [24, 1600, "a", 24000], "internal_node_id": "0.0-105.0", "trial": 3, "time_elapsed": 1721705, "serialpos": 12, "key_press": -1, "wordID": 736, "type": "PRES_AUD", "trial_index": 141}, "uniqueid": "MTK2396:3OXV7EAXLFXVB76OUAX47US3NAS631", "dateTime": 1517077394606}, {"current_trial": 142, "trialdata": {"rt": -1000, "trial_type": "single-audio", "word": "padding", "stimulus": "/static/audio/wordpool/PADDING.wav", "conditions": [24, 1600, "a", 24000], "internal_node_id": "0.0-106.0", "trial": 3, "time_elapsed": 1724310, "serialpos": 13, "key_press": -1, "wordID": 998, "type": "PRES_AUD", "trial_index": 142}, "uniqueid": "MTK2396:3OXV7EAXLFXVB76OUAX47US3NAS631", "dateTime": 1517077397211}, {"current_trial": 143, "trialdata": {"rt": -1000, "trial_type": "single-audio", "word": "belly", "stimulus": "/static/audio/wordpool/BELLY.wav", "conditions": [24, 1600, "a", 24000], "internal_node_id": "0.0-107.0", "trial": 3, "time_elapsed": 1726882, "serialpos": 14, "key_press": -1, "wordID": 118, "type": "PRES_AUD", "trial_index": 143}, "uniqueid": "MTK2396:3OXV7EAXLFXVB76OUAX47US3NAS631", "dateTime": 1517077399783}, {"current_trial": 144, "trialdata": {"rt": -1000, "trial_type": "single-audio", "word": "japan", "stimulus": "/static/audio/wordpool/JAPAN.wav", "conditions": [24, 1600, "a", 24000], "internal_node_id": "0.0-108.0", "trial": 3, "time_elapsed": 1729652, "serialpos": 15, "key_press": -1, "wordID": 748, "type": "PRES_AUD", "trial_index": 144}, "uniqueid": "MTK2396:3OXV7EAXLFXVB76OUAX47US3NAS631", "dateTime": 1517077402554}, {"current_trial": 145, "trialdata": {"rt": -1000, "trial_type": "single-audio", "word": "brother", "stimulus": "/static/audio/wordpool/BROTHER.wav", "conditions": [24, 1600, "a", 24000], "internal_node_id": "0.0-109.0", "trial": 3, "time_elapsed": 1732182, "serialpos": 16, "key_press": -1, "wordID": 178, "type": "PRES_AUD", "trial_index": 145}, "uniqueid": "MTK2396:3OXV7EAXLFXVB76OUAX47US3NAS631", "dateTime": 1517077405084}, {"current_trial": 146, "trialdata": {"rt": -1000, "trial_type": "single-audio", "word": "tart", "stimulus": "/static/audio/wordpool/TART.wav", "conditions": [24, 1600, "a", 24000], "internal_node_id": "0.0-110.0", "trial": 3, "time_elapsed": 1734915, "serialpos": 17, "key_press": -1, "wordID": 1435, "type": "PRES_AUD", "trial_index": 146}, "uniqueid": "MTK2396:3OXV7EAXLFXVB76OUAX47US3NAS631", "dateTime": 1517077407816}, {"current_trial": 147, "trialdata": {"rt": -1000, "trial_type": "single-audio", "word": "shelter", "stimulus": "/static/audio/wordpool/SHELTER.wav", "conditions": [24, 1600, "a", 24000], "internal_node_id": "0.0-111.0", "trial": 3, "time_elapsed": 1737574, "serialpos": 18, "key_press": -1, "wordID": 1281, "type": "PRES_AUD", "trial_index": 147}, "uniqueid": "MTK2396:3OXV7EAXLFXVB76OUAX47US3NAS631", "dateTime": 1517077410476}, {"current_trial": 148, "trialdata": {"rt": -1000, "trial_type": "single-audio", "word": "brandy", "stimulus": "/static/audio/wordpool/BRANDY.wav", "conditions": [24, 1600, "a", 24000], "internal_node_id": "0.0-112.0", "trial": 3, "time_elapsed": 1740151, "serialpos": 19, "key_press": -1, "wordID": 168, "type": "PRES_AUD", "trial_index": 148}, "uniqueid": "MTK2396:3OXV7EAXLFXVB76OUAX47US3NAS631", "dateTime": 1517077413052}, {"current_trial": 149, "trialdata": {"rt": -1000, "trial_type": "single-audio", "word": "blender", "stimulus": "/static/audio/wordpool/BLENDER.wav", "conditions": [24, 1600, "a", 24000], "internal_node_id": "0.0-113.0", "trial": 3, "time_elapsed": 1742619, "serialpos": 20, "key_press": -1, "wordID": 135, "type": "PRES_AUD", "trial_index": 149}, "uniqueid": "MTK2396:3OXV7EAXLFXVB76OUAX47US3NAS631", "dateTime": 1517077415520}, {"current_trial": 150, "trialdata": {"rt": -1000, "trial_type": "single-audio", "word": "skillet", "stimulus": "/static/audio/wordpool/SKILLET.wav", "conditions": [24, 1600, "a", 24000], "internal_node_id": "0.0-114.0", "trial": 3, "time_elapsed": 1745313, "serialpos": 21, "key_press": -1, "wordID": 1316, "type": "PRES_AUD", "trial_index": 150}, "uniqueid": "MTK2396:3OXV7EAXLFXVB76OUAX47US3NAS631", "dateTime": 1517077418215}, {"current_trial": 151, "trialdata": {"rt": -1000, "trial_type": "single-audio", "word": "europe", "stimulus": "/static/audio/wordpool/EUROPE.wav", "conditions": [24, 1600, "a", 24000], "internal_node_id": "0.0-115.0", "trial": 3, "time_elapsed": 1747939, "serialpos": 22, "key_press": -1, "wordID": 540, "type": "PRES_AUD", "trial_index": 151}, "uniqueid": "MTK2396:3OXV7EAXLFXVB76OUAX47US3NAS631", "dateTime": 1517077420840}, {"current_trial": 152, "trialdata": {"rt": -1000, "trial_type": "single-audio", "word": "baby", "stimulus": "/static/audio/wordpool/BABY.wav", "conditions": [24, 1600, "a", 24000], "internal_node_id": "0.0-116.0", "trial": 3, "time_elapsed": 1750511, "serialpos": 23, "key_press": -1, "wordID": 63, "type": "PRES_AUD", "trial_index": 152}, "uniqueid": "MTK2396:3OXV7EAXLFXVB76OUAX47US3NAS631", "dateTime": 1517077423412}, {"current_trial": 153, "trialdata": {"rt": -1, "trial_type": "single-stim", "stimulus": "", "internal_node_id": "0.0-117.0-0.0", "time_elapsed": 1751739, "key_press": -1, "type": "PRE_RECALL_DELAY", "trial_index": 153}, "uniqueid": "MTK2396:3OXV7EAXLFXVB76OUAX47US3NAS631", "dateTime": 1517077424640}, {"current_trial": 154, "trialdata": {"rt": -1000, "trial_type": "single-audio", "stimulus": "/static/audio/400Hz.wav", "internal_node_id": "0.0-118.0", "time_elapsed": 1752246, "key_press": -1, "type": "PRE_RECALL_ALERT", "trial_index": 154}, "uniqueid": "MTK2396:3OXV7EAXLFXVB76OUAX47US3NAS631", "dateTime": 1517077425148}, {"current_trial": 155, "trialdata": {"rt": [2929, 4610, 7363, 9085, 11966, 14646, 16370, 22024, 27514, 29688, 59931], "recwords": ["brooke", "blender", "inmate", "cobra", "belly", "monster", "goblin", "blender", "japan", "europe", ""], "key_times": [1003, 1472, 1638, 1799, 1900, 2169, 2929, 3396, 3763, 3933, 4048, 4196, 4386, 4521, 4610, 4889, 5069, 5350, 5525, 5973, 6459, 7363, 8055, 8129, 8404, 8574, 8755, 9085, 10808, 10984, 11104, 11239, 11431, 11966, 13442, 13542, 13656, 13789, 13897, 14123, 14237, 14646, 14925, 15032, 15289, 15565, 15683, 15860, 16370, 18770, 18979, 19100, 19228, 19378, 19568, 19738, 22024, 26441, 26652, 26775, 26951, 27088, 27514, 28330, 28520, 28843, 29054, 29144, 29455, 29688, 59931], "trial_type": "free-recall", "conditions": [24, 1600, "a", 24000], "internal_node_id": "0.0-119.0-0.0", "key_presses": [66, 82, 79, 79, 75, 69, 13, 66, 76, 69, 78, 68, 69, 82, 13, 73, 78, 77, 65, 84, 69, 13, 67, 79, 66, 82, 65, 13, 66, 69, 76, 76, 89, 13, 77, 79, 78, 83, 84, 69, 82, 13, 71, 79, 66, 76, 73, 78, 13, 66, 76, 69, 78, 68, 69, 82, 13, 74, 65, 80, 65, 78, 13, 69, 85, 82, 79, 80, 69, 13, 13], "trial": 3, "time_elapsed": 1812254, "type": "FREE_RECALL", "trial_index": 155}, "uniqueid": "MTK2396:3OXV7EAXLFXVB76OUAX47US3NAS631", "dateTime": 1517077485161}, {"current_trial": 156, "trialdata": {"rt": 1641, "trial_type": "text", "internal_node_id": "0.0-120.0", "time_elapsed": 1815905, "key_press": 32, "type": "INSTRUCTIONS", "trial_index": 156}, "uniqueid": "MTK2396:3OXV7EAXLFXVB76OUAX47US3NAS631", "dateTime": 1517077488806}, {"current_trial": 157, "trialdata": {"rt": [4580, 9151, 13129, 18763, 22201], "trial_type": "math-distractor", "key_times": [3469, 4027, 4580, 8170, 8751, 9151, 12487, 12637, 13129, 17450, 18361, 18763, 20733, 21668, 22201], "responses": ["15", "15", "22", "16", "20"], "num2": [5, 2, 9, 8, 8, 9], "num3": [8, 7, 8, 5, 9, 6], "conditions": [12, 1600, "a", 24000], "internal_node_id": "0.0-121.0", "key_presses": [49, 53, 13, 49, 53, 13, 50, 50, 13, 49, 54, 13, 50, 48, 13], "trial": 4, "time_elapsed": 1841914, "type": "DISTRACTOR", "trial_index": 157, "num1": [2, 6, 5, 2, 3, 3]}, "uniqueid": "MTK2396:3OXV7EAXLFXVB76OUAX47US3NAS631", "dateTime": 1517077514815}, {"current_trial": 158, "trialdata": {"rt": -1, "trial_type": "single-stim", "stimulus": "<p id=\"stim\">10</p>", "internal_node_id": "0.0-122.0-0.0", "time_elapsed": 1844918, "key_press": -1, "trial_index": 158}, "uniqueid": "MTK2396:3OXV7EAXLFXVB76OUAX47US3NAS631", "dateTime": 1517077517819}, {"current_trial": 159, "trialdata": {"rt": -1, "trial_type": "single-stim", "stimulus": "<p id=\"stim\">9</p>", "internal_node_id": "0.0-122.0-1.0", "time_elapsed": 1845920, "key_press": -1, "trial_index": 159}, "uniqueid": "MTK2396:3OXV7EAXLFXVB76OUAX47US3NAS631", "dateTime": 1517077518821}, {"current_trial": 160, "trialdata": {"rt": -1, "trial_type": "single-stim", "stimulus": "<p id=\"stim\">8</p>", "internal_node_id": "0.0-122.0-2.0", "time_elapsed": 1846923, "key_press": -1, "trial_index": 160}, "uniqueid": "MTK2396:3OXV7EAXLFXVB76OUAX47US3NAS631", "dateTime": 1517077519824}, {"current_trial": 161, "trialdata": {"rt": -1, "trial_type": "single-stim", "stimulus": "<p id=\"stim\">7</p>", "internal_node_id": "0.0-122.0-3.0", "time_elapsed": 1847925, "key_press": -1, "trial_index": 161}, "uniqueid": "MTK2396:3OXV7EAXLFXVB76OUAX47US3NAS631", "dateTime": 1517077520826}, {"current_trial": 162, "trialdata": {"rt": -1, "trial_type": "single-stim", "stimulus": "<p id=\"stim\">6</p>", "internal_node_id": "0.0-122.0-4.0", "time_elapsed": 1848928, "key_press": -1, "trial_index": 162}, "uniqueid": "MTK2396:3OXV7EAXLFXVB76OUAX47US3NAS631", "dateTime": 1517077521829}, {"current_trial": 163, "trialdata": {"rt": -1, "trial_type": "single-stim", "stimulus": "<p id=\"stim\">5</p>", "internal_node_id": "0.0-122.0-5.0", "time_elapsed": 1849930, "key_press": -1, "trial_index": 163}, "uniqueid": "MTK2396:3OXV7EAXLFXVB76OUAX47US3NAS631", "dateTime": 1517077522831}, {"current_trial": 164, "trialdata": {"rt": -1, "trial_type": "single-stim", "stimulus": "<p id=\"stim\">4</p>", "internal_node_id": "0.0-122.0-6.0", "time_elapsed": 1850933, "key_press": -1, "trial_index": 164}, "uniqueid": "MTK2396:3OXV7EAXLFXVB76OUAX47US3NAS631", "dateTime": 1517077523834}, {"current_trial": 165, "trialdata": {"rt": -1, "trial_type": "single-stim", "stimulus": "<p id=\"stim\">3</p>", "internal_node_id": "0.0-122.0-7.0", "time_elapsed": 1851935, "key_press": -1, "trial_index": 165}, "uniqueid": "MTK2396:3OXV7EAXLFXVB76OUAX47US3NAS631", "dateTime": 1517077524836}, {"current_trial": 166, "trialdata": {"rt": -1, "trial_type": "single-stim", "stimulus": "<p id=\"stim\">2</p>", "internal_node_id": "0.0-122.0-8.0", "time_elapsed": 1852938, "key_press": -1, "trial_index": 166}, "uniqueid": "MTK2396:3OXV7EAXLFXVB76OUAX47US3NAS631", "dateTime": 1517077525839}, {"current_trial": 167, "trialdata": {"rt": -1, "trial_type": "single-stim", "stimulus": "<p id=\"stim\">1</p>", "internal_node_id": "0.0-122.0-9.0", "time_elapsed": 1853940, "key_press": -1, "trial_index": 167}, "uniqueid": "MTK2396:3OXV7EAXLFXVB76OUAX47US3NAS631", "dateTime": 1517077526841}, {"current_trial": 168, "trialdata": {"rt": -1, "trial_type": "single-stim", "stimulus": "<p id=\"stim\">+</p>", "internal_node_id": "0.0-123.0-0.0", "time_elapsed": 1855443, "key_press": -1, "type": "FIXATION", "trial_index": 168}, "uniqueid": "MTK2396:3OXV7EAXLFXVB76OUAX47US3NAS631", "dateTime": 1517077528344}, {"current_trial": 169, "trialdata": {"rt": -1000, "trial_type": "single-audio", "word": "army", "stimulus": "/static/audio/wordpool/ARMY.wav", "conditions": [12, 1600, "a", 24000], "internal_node_id": "0.0-124.0", "trial": 4, "time_elapsed": 1858021, "serialpos": 0, "key_press": -1, "wordID": 38, "type": "PRES_AUD", "trial_index": 169}, "uniqueid": "MTK2396:3OXV7EAXLFXVB76OUAX47US3NAS631", "dateTime": 1517077530922}, {"current_trial": 170, "trialdata": {"rt": -1000, "trial_type": "single-audio", "word": "parrot", "stimulus": "/static/audio/wordpool/PARROT.wav", "conditions": [12, 1600, "a", 24000], "internal_node_id": "0.0-125.0", "trial": 4, "time_elapsed": 1860759, "serialpos": 1, "key_press": -1, "wordID": 1014, "type": "PRES_AUD", "trial_index": 170}, "uniqueid": "MTK2396:3OXV7EAXLFXVB76OUAX47US3NAS631", "dateTime": 1517077533660}, {"current_trial": 171, "trialdata": {"rt": -1000, "trial_type": "single-audio", "word": "transplant", "stimulus": "/static/audio/wordpool/TRANSPLANT.wav", "conditions": [12, 1600, "a", 24000], "internal_node_id": "0.0-126.0", "trial": 4, "time_elapsed": 1863376, "serialpos": 2, "key_press": -1, "wordID": 1495, "type": "PRES_AUD", "trial_index": 171}, "uniqueid": "MTK2396:3OXV7EAXLFXVB76OUAX47US3NAS631", "dateTime": 1517077536277}, {"current_trial": 172, "trialdata": {"rt": -1000, "trial_type": "single-audio", "word": "kidney", "stimulus": "/static/audio/wordpool/KIDNEY.wav", "conditions": [12, 1600, "a", 24000], "internal_node_id": "0.0-127.0", "trial": 4, "time_elapsed": 1865951, "serialpos": 3, "key_press": -1, "wordID": 775, "type": "PRES_AUD", "trial_index": 172}, "uniqueid": "MTK2396:3OXV7EAXLFXVB76OUAX47US3NAS631", "dateTime": 1517077538852}, {"current_trial": 173, "trialdata": {"rt": -1000, "trial_type": "single-audio", "word": "snake", "stimulus": "/static/audio/wordpool/SNAKE.wav", "conditions": [12, 1600, "a", 24000], "internal_node_id": "0.0-128.0", "trial": 4, "time_elapsed": 1868719, "serialpos": 4, "key_press": -1, "wordID": 1332, "type": "PRES_AUD", "trial_index": 173}, "uniqueid": "MTK2396:3OXV7EAXLFXVB76OUAX47US3NAS631", "dateTime": 1517077541620}, {"current_trial": 174, "trialdata": {"rt": -1000, "trial_type": "single-audio", "word": "barrel", "stimulus": "/static/audio/wordpool/BARREL.wav", "conditions": [12, 1600, "a", 24000], "internal_node_id": "0.0-129.0", "trial": 4, "time_elapsed": 1871216, "serialpos": 5, "key_press": -1, "wordID": 90, "type": "PRES_AUD", "trial_index": 174}, "uniqueid": "MTK2396:3OXV7EAXLFXVB76OUAX47US3NAS631", "dateTime": 1517077544117}, {"current_trial": 175, "trialdata": {"rt": -1000, "trial_type": "single-audio", "word": "salad", "stimulus": "/static/audio/wordpool/SALAD.wav", "conditions": [12, 1600, "a", 24000], "internal_node_id": "0.0-130.0", "trial": 4, "time_elapsed": 1873991, "serialpos": 6, "key_press": -1, "wordID": 1223, "type": "PRES_AUD", "trial_index": 175}, "uniqueid": "MTK2396:3OXV7EAXLFXVB76OUAX47US3NAS631", "dateTime": 1517077546892}, {"current_trial": 176, "trialdata": {"rt": -1000, "trial_type": "single-audio", "word": "eagle", "stimulus": "/static/audio/wordpool/EAGLE.wav", "conditions": [12, 1600, "a", 24000], "internal_node_id": "0.0-131.0", "trial": 4, "time_elapsed": 1876431, "serialpos": 7, "key_press": -1, "wordID": 511, "type": "PRES_AUD", "trial_index": 176}, "uniqueid": "MTK2396:3OXV7EAXLFXVB76OUAX47US3NAS631", "dateTime": 1517077549332}, {"current_trial": 177, "trialdata": {"rt": -1000, "trial_type": "single-audio", "word": "apple", "stimulus": "/static/audio/wordpool/APPLE.wav", "conditions": [12, 1600, "a", 24000], "internal_node_id": "0.0-132.0", "trial": 4, "time_elapsed": 1878886, "serialpos": 8, "key_press": -1, "wordID": 32, "type": "PRES_AUD", "trial_index": 177}, "uniqueid": "MTK2396:3OXV7EAXLFXVB76OUAX47US3NAS631", "dateTime": 1517077551787}, {"current_trial": 178, "trialdata": {"rt": -1000, "trial_type": "single-audio", "word": "lapel", "stimulus": "/static/audio/wordpool/LAPEL.wav", "conditions": [12, 1600, "a", 24000], "internal_node_id": "0.0-133.0", "trial": 4, "time_elapsed": 1881346, "serialpos": 9, "key_press": -1, "wordID": 799, "type": "PRES_AUD", "trial_index": 178}, "uniqueid": "MTK2396:3OXV7EAXLFXVB76OUAX47US3NAS631", "dateTime": 1517077554247}, {"current_trial": 179, "trialdata": {"rt": -1000, "trial_type": "single-audio", "word": "pasta", "stimulus": "/static/audio/wordpool/PASTA.wav", "conditions": [12, 1600, "a", 24000], "internal_node_id": "0.0-134.0", "trial": 4, "time_elapsed": 1883851, "serialpos": 10, "key_press": -1, "wordID": 1020, "type": "PRES_AUD", "trial_index": 179}, "uniqueid": "MTK2396:3OXV7EAXLFXVB76OUAX47US3NAS631", "dateTime": 1517077556752}, {"current_trial": 180, "trialdata": {"rt": -1000, "trial_type": "single-audio", "word": "balloon", "stimulus": "/static/audio/wordpool/BALLOON.wav", "conditions": [12, 1600, "a", 24000], "internal_node_id": "0.0-135.0", "trial": 4, "time_elapsed": 1886276, "serialpos": 11, "key_press": -1, "wordID": 74, "type": "PRES_AUD", "trial_index": 180}, "uniqueid": "MTK2396:3OXV7EAXLFXVB76OUAX47US3NAS631", "dateTime": 1517077559177}, {"current_trial": 181, "trialdata": {"rt": -1, "trial_type": "single-stim", "stimulus": "", "internal_node_id": "0.0-136.0-0.0", "time_elapsed": 1887551, "key_press": -1, "type": "PRE_RECALL_DELAY", "trial_index": 181}, "uniqueid": "MTK2396:3OXV7EAXLFXVB76OUAX47US3NAS631", "dateTime": 1517077560452}, {"current_trial": 182, "trialdata": {"rt": -1000, "trial_type": "single-audio", "stimulus": "/static/audio/400Hz.wav", "internal_node_id": "0.0-137.0", "time_elapsed": 1888061, "key_press": -1, "type": "PRE_RECALL_ALERT", "trial_index": 182}, "uniqueid": "MTK2396:3OXV7EAXLFXVB76OUAX47US3NAS631", "dateTime": 1517077560962}, {"current_trial": 183, "trialdata": {"rt": [4117, 6080, 9674, 12403, 15279, 21765, 25902, 26766, 27218, 30548, 32008, 32635, 32944, 33121, 34204, 34821, 44308], "recwords": ["pasta", "balloon", "lapel", "army", "parrot", "blender", "", "", "", "", "", "", "", "", ".", "", "eagle"], "key_times": [2969, 3198, 3343, 3513, 3686, 4117, 4787, 4961, 5037, 5225, 5427, 5598, 5829, 6080, 8677, 8855, 8974, 9132, 9312, 9674, 11434, 11607, 11772, 12027, 12403, 14438, 14508, 14627, 14820, 14932, 15052, 15279, 20626, 20821, 20951, 21092, 21255, 21426, 21580, 21765, 25902, 26766, 27218, 30548, 32008, 32635, 32944, 33121, 33851, 34204, 34821, 42007, 42200, 42708, 43199, 43625, 44308], "trial_type": "free-recall", "conditions": [12, 1600, "a", 24000], "internal_node_id": "0.0-138.0-0.0", "key_presses": [80, 65, 83, 84, 65, 13, 66, 65, 76, 76, 79, 79, 78, 13, 76, 65, 80, 69, 76, 13, 65, 82, 77, 89, 13, 80, 65, 82, 82, 79, 84, 13, 66, 76, 69, 78, 68, 69, 82, 13, 13, 13, 32, 186, 32, 186, 32, 13, 190, 188, 32, 69, 65, 71, 76, 69, 13], "trial": 4, "time_elapsed": 1948073, "type": "FREE_RECALL", "trial_index": 183}, "uniqueid": "MTK2396:3OXV7EAXLFXVB76OUAX47US3NAS631", "dateTime": 1517077620980}, {"current_trial": 184, "trialdata": {"rt": 1455, "trial_type": "text", "internal_node_id": "0.0-139.0", "time_elapsed": 1951537, "key_press": 32, "type": "INSTRUCTIONS", "trial_index": 184}, "uniqueid": "MTK2396:3OXV7EAXLFXVB76OUAX47US3NAS631", "dateTime": 1517077624438}, {"current_trial": 185, "trialdata": {"rt": [3391, 7581, 9946], "trial_type": "math-distractor", "key_times": [2359, 2862, 3391, 6640, 7120, 7581, 9111, 9275, 9946], "responses": ["20", "14", "11"], "num2": [3, 1, 2, 5], "num3": [9, 7, 8, 9], "conditions": [12, 800, "a", 12000], "internal_node_id": "0.0-140.0", "key_presses": [50, 48, 13, 49, 52, 13, 49, 49, 13], "trial": 5, "time_elapsed": 1965545, "type": "DISTRACTOR", "trial_index": 185, "num1": [8, 6, 1, 6]}, "uniqueid": "MTK2396:3OXV7EAXLFXVB76OUAX47US3NAS631", "dateTime": 1517077638446}, {"current_trial": 186, "trialdata": {"rt": -1, "trial_type": "single-stim", "stimulus": "<p id=\"stim\">10</p>", "internal_node_id": "0.0-141.0-0.0", "time_elapsed": 1968549, "key_press": -1, "trial_index": 186}, "uniqueid": "MTK2396:3OXV7EAXLFXVB76OUAX47US3NAS631", "dateTime": 1517077641450}, {"current_trial": 187, "trialdata": {"rt": -1, "trial_type": "single-stim", "stimulus": "<p id=\"stim\">9</p>", "internal_node_id": "0.0-141.0-1.0", "time_elapsed": 1969552, "key_press": -1, "trial_index": 187}, "uniqueid": "MTK2396:3OXV7EAXLFXVB76OUAX47US3NAS631", "dateTime": 1517077642453}, {"current_trial": 188, "trialdata": {"rt": -1, "trial_type": "single-stim", "stimulus": "<p id=\"stim\">8</p>", "internal_node_id": "0.0-141.0-2.0", "time_elapsed": 1970554, "key_press": -1, "trial_index": 188}, "uniqueid": "MTK2396:3OXV7EAXLFXVB76OUAX47US3NAS631", "dateTime": 1517077643455}, {"current_trial": 189, "trialdata": {"rt": -1, "trial_type": "single-stim", "stimulus": "<p id=\"stim\">7</p>", "internal_node_id": "0.0-141.0-3.0", "time_elapsed": 1971556, "key_press": -1, "trial_index": 189}, "uniqueid": "MTK2396:3OXV7EAXLFXVB76OUAX47US3NAS631", "dateTime": 1517077644458}, {"current_trial": 190, "trialdata": {"rt": -1, "trial_type": "single-stim", "stimulus": "<p id=\"stim\">6</p>", "internal_node_id": "0.0-141.0-4.0", "time_elapsed": 1972559, "key_press": -1, "trial_index": 190}, "uniqueid": "MTK2396:3OXV7EAXLFXVB76OUAX47US3NAS631", "dateTime": 1517077645460}, {"current_trial": 191, "trialdata": {"rt": -1, "trial_type": "single-stim", "stimulus": "<p id=\"stim\">5</p>", "internal_node_id": "0.0-141.0-5.0", "time_elapsed": 1973561, "key_press": -1, "trial_index": 191}, "uniqueid": "MTK2396:3OXV7EAXLFXVB76OUAX47US3NAS631", "dateTime": 1517077646463}, {"current_trial": 192, "trialdata": {"rt": -1, "trial_type": "single-stim", "stimulus": "<p id=\"stim\">4</p>", "internal_node_id": "0.0-141.0-6.0", "time_elapsed": 1974564, "key_press": -1, "trial_index": 192}, "uniqueid": "MTK2396:3OXV7EAXLFXVB76OUAX47US3NAS631", "dateTime": 1517077647465}, {"current_trial": 193, "trialdata": {"rt": -1, "trial_type": "single-stim", "stimulus": "<p id=\"stim\">3</p>", "internal_node_id": "0.0-141.0-7.0", "time_elapsed": 1975566, "key_press": -1, "trial_index": 193}, "uniqueid": "MTK2396:3OXV7EAXLFXVB76OUAX47US3NAS631", "dateTime": 1517077648468}, {"current_trial": 194, "trialdata": {"rt": -1, "trial_type": "single-stim", "stimulus": "<p id=\"stim\">2</p>", "internal_node_id": "0.0-141.0-8.0", "time_elapsed": 1976569, "key_press": -1, "trial_index": 194}, "uniqueid": "MTK2396:3OXV7EAXLFXVB76OUAX47US3NAS631", "dateTime": 1517077649471}, {"current_trial": 195, "trialdata": {"rt": -1, "trial_type": "single-stim", "stimulus": "<p id=\"stim\">1</p>", "internal_node_id": "0.0-141.0-9.0", "time_elapsed": 1977574, "key_press": -1, "trial_index": 195}, "uniqueid": "MTK2396:3OXV7EAXLFXVB76OUAX47US3NAS631", "dateTime": 1517077650475}, {"current_trial": 196, "trialdata": {"rt": -1, "trial_type": "single-stim", "stimulus": "<p id=\"stim\">+</p>", "internal_node_id": "0.0-142.0-0.0", "time_elapsed": 1979078, "key_press": -1, "type": "FIXATION", "trial_index": 196}, "uniqueid": "MTK2396:3OXV7EAXLFXVB76OUAX47US3NAS631", "dateTime": 1517077651979}, {"current_trial": 197, "trialdata": {"rt": -1000, "trial_type": "single-audio", "word": "donkey", "stimulus": "/static/audio/wordpool/DONKEY.wav", "conditions": [12, 800, "a", 12000], "internal_node_id": "0.0-143.0", "trial": 5, "time_elapsed": 1980720, "serialpos": 0, "key_press": -1, "wordID": 483, "type": "PRES_AUD", "trial_index": 197}, "uniqueid": "MTK2396:3OXV7EAXLFXVB76OUAX47US3NAS631", "dateTime": 1517077653621}, {"current_trial": 198, "trialdata": {"rt": -1000, "trial_type": "single-audio", "word": "camel", "stimulus": "/static/audio/wordpool/CAMEL.wav", "conditions": [12, 800, "a", 12000], "internal_node_id": "0.0-144.0", "trial": 5, "time_elapsed": 1982497, "serialpos": 1, "key_press": -1, "wordID": 222, "type": "PRES_AUD", "trial_index": 198}, "uniqueid": "MTK2396:3OXV7EAXLFXVB76OUAX47US3NAS631", "dateTime": 1517077655399}, {"current_trial": 199, "trialdata": {"rt": -1000, "trial_type": "single-audio", "word": "forest", "stimulus": "/static/audio/wordpool/FOREST.wav", "conditions": [12, 800, "a", 12000], "internal_node_id": "0.0-145.0", "trial": 5, "time_elapsed": 1984432, "serialpos": 2, "key_press": -1, "wordID": 592, "type": "PRES_AUD", "trial_index": 199}, "uniqueid": "MTK2396:3OXV7EAXLFXVB76OUAX47US3NAS631", "dateTime": 1517077657334}, {"current_trial": 200, "trialdata": {"rt": -1000, "trial_type": "single-audio", "word": "bank", "stimulus": "/static/audio/wordpool/BANK.wav", "conditions": [12, 800, "a", 12000], "internal_node_id": "0.0-146.0", "trial": 5, "time_elapsed": 1986315, "serialpos": 3, "key_press": -1, "wordID": 82, "type": "PRES_AUD", "trial_index": 200}, "uniqueid": "MTK2396:3OXV7EAXLFXVB76OUAX47US3NAS631", "dateTime": 1517077659216}, {"current_trial": 201, "trialdata": {"rt": -1000, "trial_type": "single-audio", "word": "robber", "stimulus": "/static/audio/wordpool/ROBBER.wav", "conditions": [12, 800, "a", 12000], "internal_node_id": "0.0-147.0", "trial": 5, "time_elapsed": 1987937, "serialpos": 4, "key_press": -1, "wordID": 1196, "type": "PRES_AUD", "trial_index": 201}, "uniqueid": "MTK2396:3OXV7EAXLFXVB76OUAX47US3NAS631", "dateTime": 1517077660838}, {"current_trial": 202, "trialdata": {"rt": -1000, "trial_type": "single-audio", "word": "valve", "stimulus": "/static/audio/wordpool/VALVE.wav", "conditions": [12, 800, "a", 12000], "internal_node_id": "0.0-148.0", "trial": 5, "time_elapsed": 1989857, "serialpos": 5, "key_press": -1, "wordID": 1545, "type": "PRES_AUD", "trial_index": 202}, "uniqueid": "MTK2396:3OXV7EAXLFXVB76OUAX47US3NAS631", "dateTime": 1517077662758}, {"current_trial": 203, "trialdata": {"rt": -1000, "trial_type": "single-audio", "word": "scissors", "stimulus": "/static/audio/wordpool/SCISSORS.wav", "conditions": [12, 800, "a", 12000], "internal_node_id": "0.0-149.0", "trial": 5, "time_elapsed": 1991830, "serialpos": 6, "key_press": -1, "wordID": 1249, "type": "PRES_AUD", "trial_index": 203}, "uniqueid": "MTK2396:3OXV7EAXLFXVB76OUAX47US3NAS631", "dateTime": 1517077664731}, {"current_trial": 204, "trialdata": {"rt": -1000, "trial_type": "single-audio", "word": "judge", "stimulus": "/static/audio/wordpool/JUDGE.wav", "conditions": [12, 800, "a", 12000], "internal_node_id": "0.0-150.0", "trial": 5, "time_elapsed": 1993490, "serialpos": 7, "key_press": -1, "wordID": 760, "type": "PRES_AUD", "trial_index": 204}, "uniqueid": "MTK2396:3OXV7EAXLFXVB76OUAX47US3NAS631", "dateTime": 1517077666391}, {"current_trial": 205, "trialdata": {"rt": -1000, "trial_type": "single-audio", "word": "staple", "stimulus": "/static/audio/wordpool/STAPLE.wav", "conditions": [12, 800, "a", 12000], "internal_node_id": "0.0-151.0", "trial": 5, "time_elapsed": 1995444, "serialpos": 8, "key_press": -1, "wordID": 1370, "type": "PRES_AUD", "trial_index": 205}, "uniqueid": "MTK2396:3OXV7EAXLFXVB76OUAX47US3NAS631", "dateTime": 1517077668346}, {"current_trial": 206, "trialdata": {"rt": -1000, "trial_type": "single-audio", "word": "hedge", "stimulus": "/static/audio/wordpool/HEDGE.wav", "conditions": [12, 800, "a", 12000], "internal_node_id": "0.0-152.0", "trial": 5, "time_elapsed": 1997314, "serialpos": 9, "key_press": -1, "wordID": 698, "type": "PRES_AUD", "trial_index": 206}, "uniqueid": "MTK2396:3OXV7EAXLFXVB76OUAX47US3NAS631", "dateTime": 1517077670216}, {"current_trial": 207, "trialdata": {"rt": -1000, "trial_type": "single-audio", "word": "piston", "stimulus": "/static/audio/wordpool/PISTON.wav", "conditions": [12, 800, "a", 12000], "internal_node_id": "0.0-153.0", "trial": 5, "time_elapsed": 1998947, "serialpos": 10, "key_press": -1, "wordID": 1075, "type": "PRES_AUD", "trial_index": 207}, "uniqueid": "MTK2396:3OXV7EAXLFXVB76OUAX47US3NAS631", "dateTime": 1517077671848}, {"current_trial": 208, "trialdata": {"rt": -1000, "trial_type": "single-audio", "word": "river", "stimulus": "/static/audio/wordpool/RIVER.wav", "conditions": [12, 800, "a", 12000], "internal_node_id": "0.0-154.0", "trial": 5, "time_elapsed": 2000696, "serialpos": 11, "key_press": -1, "wordID": 1193, "type": "PRES_AUD", "trial_index": 208}, "uniqueid": "MTK2396:3OXV7EAXLFXVB76OUAX47US3NAS631", "dateTime": 1517077673597}, {"current_trial": 209, "trialdata": {"rt": -1, "trial_type": "single-stim", "stimulus": "", "internal_node_id": "0.0-155.0-0.0", "time_elapsed": 2001942, "key_press": -1, "type": "PRE_RECALL_DELAY", "trial_index": 209}, "uniqueid": "MTK2396:3OXV7EAXLFXVB76OUAX47US3NAS631", "dateTime": 1517077674843}, {"current_trial": 210, "trialdata": {"rt": -1000, "trial_type": "single-audio", "stimulus": "/static/audio/400Hz.wav", "internal_node_id": "0.0-156.0", "time_elapsed": 2002446, "key_press": -1, "type": "PRE_RECALL_ALERT", "trial_index": 210}, "uniqueid": "MTK2396:3OXV7EAXLFXVB76OUAX47US3NAS631", "dateTime": 1517077675347}, {"current_trial": 211, "trialdata": {"rt": [3140, 4248, 5860, 7334, 8555, 10757, 16429, 26747, 26995], "recwords": ["river", "forest", "donkey", "camel", "river", "staple", "jug", "", ""], "key_times": [2321, 2416, 2546, 2784, 2950, 3140, 3392, 3476, 3609, 3706, 3936, 4023, 4248, 5013, 5122, 5261, 5444, 5579, 5710, 5860, 6487, 6639, 6776, 6885, 7042, 7334, 7653, 7838, 7961, 8206, 8338, 8555, 9765, 9885, 10032, 10176, 10389, 10523, 10757, 15785, 15956, 16072, 16429, 26747, 26748, 26995], "trial_type": "free-recall", "conditions": [12, 800, "a", 12000], "internal_node_id": "0.0-157.0-0.0", "key_presses": [82, 73, 86, 69, 82, 13, 70, 79, 82, 69, 83, 84, 13, 68, 79, 78, 75, 69, 89, 32, 67, 65, 77, 69, 76, 13, 82, 73, 86, 69, 82, 13, 83, 84, 65, 80, 76, 69, 13, 74, 85, 71, 13, 13, 16, 13], "trial": 5, "time_elapsed": 2062454, "type": "FREE_RECALL", "trial_index": 211}, "uniqueid": "MTK2396:3OXV7EAXLFXVB76OUAX47US3NAS631", "dateTime": 1517077735362}, {"current_trial": 212, "trialdata": {"rt": 1776, "trial_type": "text", "internal_node_id": "0.0-158.0", "time_elapsed": 2066238, "key_press": 32, "type": "INSTRUCTIONS", "trial_index": 212}, "uniqueid": "MTK2396:3OXV7EAXLFXVB76OUAX47US3NAS631", "dateTime": 1517077739140}, {"current_trial": 213, "trialdata": {"rt": [6912, 10023], "trial_type": "math-distractor", "key_times": [5882, 6185, 6912, 8833, 9683, 10023, 11427], "responses": ["20", "16"], "num2": [8, 2, 8], "num3": [5, 5, 8], "conditions": [12, 1600, "a", 12000], "internal_node_id": "0.0-159.0", "key_presses": [50, 48, 13, 49, 54, 13, 49], "trial": 6, "time_elapsed": 2080246, "type": "DISTRACTOR", "trial_index": 213, "num1": [7, 9, 1]}, "uniqueid": "MTK2396:3OXV7EAXLFXVB76OUAX47US3NAS631", "dateTime": 1517077753147}, {"current_trial": 214, "trialdata": {"rt": -1, "trial_type": "single-stim", "stimulus": "<p id=\"stim\">10</p>", "internal_node_id": "0.0-160.0-0.0", "time_elapsed": 2083250, "key_press": -1, "trial_index": 214}, "uniqueid": "MTK2396:3OXV7EAXLFXVB76OUAX47US3NAS631", "dateTime": 1517077756151}, {"current_trial": 215, "trialdata": {"rt": -1, "trial_type": "single-stim", "stimulus": "<p id=\"stim\">9</p>", "internal_node_id": "0.0-160.0-1.0", "time_elapsed": 2084252, "key_press": -1, "trial_index": 215}, "uniqueid": "MTK2396:3OXV7EAXLFXVB76OUAX47US3NAS631", "dateTime": 1517077757154}, {"current_trial": 216, "trialdata": {"rt": -1, "trial_type": "single-stim", "stimulus": "<p id=\"stim\">8</p>", "internal_node_id": "0.0-160.0-2.0", "time_elapsed": 2085255, "key_press": -1, "trial_index": 216}, "uniqueid": "MTK2396:3OXV7EAXLFXVB76OUAX47US3NAS631", "dateTime": 1517077758156}, {"current_trial": 217, "trialdata": {"rt": -1, "trial_type": "single-stim", "stimulus": "<p id=\"stim\">7</p>", "internal_node_id": "0.0-160.0-3.0", "time_elapsed": 2086257, "key_press": -1, "trial_index": 217}, "uniqueid": "MTK2396:3OXV7EAXLFXVB76OUAX47US3NAS631", "dateTime": 1517077759159}, {"current_trial": 218, "trialdata": {"rt": -1, "trial_type": "single-stim", "stimulus": "<p id=\"stim\">6</p>", "internal_node_id": "0.0-160.0-4.0", "time_elapsed": 2087260, "key_press": -1, "trial_index": 218}, "uniqueid": "MTK2396:3OXV7EAXLFXVB76OUAX47US3NAS631", "dateTime": 1517077760161}, {"current_trial": 219, "trialdata": {"rt": -1, "trial_type": "single-stim", "stimulus": "<p id=\"stim\">5</p>", "internal_node_id": "0.0-160.0-5.0", "time_elapsed": 2088262, "key_press": -1, "trial_index": 219}, "uniqueid": "MTK2396:3OXV7EAXLFXVB76OUAX47US3NAS631", "dateTime": 1517077761164}, {"current_trial": 220, "trialdata": {"rt": -1, "trial_type": "single-stim", "stimulus": "<p id=\"stim\">4</p>", "internal_node_id": "0.0-160.0-6.0", "time_elapsed": 2089265, "key_press": -1, "trial_index": 220}, "uniqueid": "MTK2396:3OXV7EAXLFXVB76OUAX47US3NAS631", "dateTime": 1517077762166}, {"current_trial": 221, "trialdata": {"rt": -1, "trial_type": "single-stim", "stimulus": "<p id=\"stim\">3</p>", "internal_node_id": "0.0-160.0-7.0", "time_elapsed": 2090267, "key_press": -1, "trial_index": 221}, "uniqueid": "MTK2396:3OXV7EAXLFXVB76OUAX47US3NAS631", "dateTime": 1517077763169}, {"current_trial": 222, "trialdata": {"rt": -1, "trial_type": "single-stim", "stimulus": "<p id=\"stim\">2</p>", "internal_node_id": "0.0-160.0-8.0", "time_elapsed": 2091270, "key_press": -1, "trial_index": 222}, "uniqueid": "MTK2396:3OXV7EAXLFXVB76OUAX47US3NAS631", "dateTime": 1517077764171}, {"current_trial": 223, "trialdata": {"rt": -1, "trial_type": "single-stim", "stimulus": "<p id=\"stim\">1</p>", "internal_node_id": "0.0-160.0-9.0", "time_elapsed": 2092272, "key_press": -1, "trial_index": 223}, "uniqueid": "MTK2396:3OXV7EAXLFXVB76OUAX47US3NAS631", "dateTime": 1517077765174}, {"current_trial": 224, "trialdata": {"rt": -1, "trial_type": "single-stim", "stimulus": "<p id=\"stim\">+</p>", "internal_node_id": "0.0-161.0-0.0", "time_elapsed": 2093775, "key_press": -1, "type": "FIXATION", "trial_index": 224}, "uniqueid": "MTK2396:3OXV7EAXLFXVB76OUAX47US3NAS631", "dateTime": 1517077766676}, {"current_trial": 225, "trialdata": {"rt": -1000, "trial_type": "single-audio", "word": "palace", "stimulus": "/static/audio/wordpool/PALACE.wav", "conditions": [12, 1600, "a", 12000], "internal_node_id": "0.0-162.0", "trial": 6, "time_elapsed": 2096216, "serialpos": 0, "key_press": -1, "wordID": 1005, "type": "PRES_AUD", "trial_index": 225}, "uniqueid": "MTK2396:3OXV7EAXLFXVB76OUAX47US3NAS631", "dateTime": 1517077769117}, {"current_trial": 226, "trialdata": {"rt": -1000, "trial_type": "single-audio", "word": "penguin", "stimulus": "/static/audio/wordpool/PENGUIN.wav", "conditions": [12, 1600, "a", 12000], "internal_node_id": "0.0-163.0", "trial": 6, "time_elapsed": 2098688, "serialpos": 1, "key_press": -1, "wordID": 1043, "type": "PRES_AUD", "trial_index": 226}, "uniqueid": "MTK2396:3OXV7EAXLFXVB76OUAX47US3NAS631", "dateTime": 1517077771589}, {"current_trial": 227, "trialdata": {"rt": -1000, "trial_type": "single-audio", "word": "county", "stimulus": "/static/audio/wordpool/COUNTY.wav", "conditions": [12, 1600, "a", 12000], "internal_node_id": "0.0-164.0", "trial": 6, "time_elapsed": 2101290, "serialpos": 2, "key_press": -1, "wordID": 388, "type": "PRES_AUD", "trial_index": 227}, "uniqueid": "MTK2396:3OXV7EAXLFXVB76OUAX47US3NAS631", "dateTime": 1517077774191}, {"current_trial": 228, "trialdata": {"rt": -1000, "trial_type": "single-audio", "word": "cabin", "stimulus": "/static/audio/wordpool/CABIN.wav", "conditions": [12, 1600, "a", 12000], "internal_node_id": "0.0-165.0", "trial": 6, "time_elapsed": 2103920, "serialpos": 3, "key_press": -1, "wordID": 210, "type": "PRES_AUD", "trial_index": 228}, "uniqueid": "MTK2396:3OXV7EAXLFXVB76OUAX47US3NAS631", "dateTime": 1517077776821}, {"current_trial": 229, "trialdata": {"rt": -1000, "trial_type": "single-audio", "word": "fleet", "stimulus": "/static/audio/wordpool/FLEET.wav", "conditions": [12, 1600, "a", 12000], "internal_node_id": "0.0-166.0", "trial": 6, "time_elapsed": 2106592, "serialpos": 4, "key_press": -1, "wordID": 577, "type": "PRES_AUD", "trial_index": 229}, "uniqueid": "MTK2396:3OXV7EAXLFXVB76OUAX47US3NAS631", "dateTime": 1517077779493}, {"current_trial": 230, "trialdata": {"rt": -1000, "trial_type": "single-audio", "word": "sheriff", "stimulus": "/static/audio/wordpool/SHERIFF.wav", "conditions": [12, 1600, "a", 12000], "internal_node_id": "0.0-167.0", "trial": 6, "time_elapsed": 2109117, "serialpos": 5, "key_press": -1, "wordID": 1283, "type": "PRES_AUD", "trial_index": 230}, "uniqueid": "MTK2396:3OXV7EAXLFXVB76OUAX47US3NAS631", "dateTime": 1517077782018}, {"current_trial": 231, "trialdata": {"rt": -1000, "trial_type": "single-audio", "word": "sketch", "stimulus": "/static/audio/wordpool/SKETCH.wav", "conditions": [12, 1600, "a", 12000], "internal_node_id": "0.0-168.0", "trial": 6, "time_elapsed": 2111529, "serialpos": 6, "key_press": -1, "wordID": 1314, "type": "PRES_AUD", "trial_index": 231}, "uniqueid": "MTK2396:3OXV7EAXLFXVB76OUAX47US3NAS631", "dateTime": 1517077784431}, {"current_trial": 232, "trialdata": {"rt": -1000, "trial_type": "single-audio", "word": "window", "stimulus": "/static/audio/wordpool/WINDOW.wav", "conditions": [12, 1600, "a", 12000], "internal_node_id": "0.0-169.0", "trial": 6, "time_elapsed": 2114069, "serialpos": 7, "key_press": -1, "wordID": 1610, "type": "PRES_AUD", "trial_index": 232}, "uniqueid": "MTK2396:3OXV7EAXLFXVB76OUAX47US3NAS631", "dateTime": 1517077786971}, {"current_trial": 233, "trialdata": {"rt": -1000, "trial_type": "single-audio", "word": "banker", "stimulus": "/static/audio/wordpool/BANKER.wav", "conditions": [12, 1600, "a", 12000], "internal_node_id": "0.0-170.0", "trial": 6, "time_elapsed": 2116492, "serialpos": 8, "key_press": -1, "wordID": 83, "type": "PRES_AUD", "trial_index": 233}, "uniqueid": "MTK2396:3OXV7EAXLFXVB76OUAX47US3NAS631", "dateTime": 1517077789393}, {"current_trial": 234, "trialdata": {"rt": -1000, "trial_type": "single-audio", "word": "scarf", "stimulus": "/static/audio/wordpool/SCARF.wav", "conditions": [12, 1600, "a", 12000], "internal_node_id": "0.0-171.0", "trial": 6, "time_elapsed": 2118989, "serialpos": 9, "key_press": -1, "wordID": 1245, "type": "PRES_AUD", "trial_index": 234}, "uniqueid": "MTK2396:3OXV7EAXLFXVB76OUAX47US3NAS631", "dateTime": 1517077791892}, {"current_trial": 235, "trialdata": {"rt": -1000, "trial_type": "single-audio", "word": "shirt", "stimulus": "/static/audio/wordpool/SHIRT.wav", "conditions": [12, 1600, "a", 12000], "internal_node_id": "0.0-172.0", "trial": 6, "time_elapsed": 2121559, "serialpos": 10, "key_press": -1, "wordID": 1286, "type": "PRES_AUD", "trial_index": 235}, "uniqueid": "MTK2396:3OXV7EAXLFXVB76OUAX47US3NAS631", "dateTime": 1517077794460}, {"current_trial": 236, "trialdata": {"rt": -1000, "trial_type": "single-audio", "word": "human", "stimulus": "/static/audio/wordpool/HUMAN.wav", "conditions": [12, 1600, "a", 12000], "internal_node_id": "0.0-173.0", "trial": 6, "time_elapsed": 2124002, "serialpos": 11, "key_press": -1, "wordID": 725, "type": "PRES_AUD", "trial_index": 236}, "uniqueid": "MTK2396:3OXV7EAXLFXVB76OUAX47US3NAS631", "dateTime": 1517077796903}, {"current_trial": 237, "trialdata": {"rt": -1, "trial_type": "single-stim", "stimulus": "", "internal_node_id": "0.0-174.0-0.0", "time_elapsed": 2125310, "key_press": -1, "type": "PRE_RECALL_DELAY", "trial_index": 237}, "uniqueid": "MTK2396:3OXV7EAXLFXVB76OUAX47US3NAS631", "dateTime": 1517077798211}, {"current_trial": 238, "trialdata": {"rt": -1000, "trial_type": "single-audio", "stimulus": "/static/audio/400Hz.wav", "internal_node_id": "0.0-175.0", "time_elapsed": 2125812, "key_press": -1, "type": "PRE_RECALL_ALERT", "trial_index": 238}, "uniqueid": "MTK2396:3OXV7EAXLFXVB76OUAX47US3NAS631", "dateTime": 1517077798713}, {"current_trial": 239, "trialdata": {"rt": [2465, 4253, 6103, 7356, 8740, 10088, 13132, 39901], "recwords": ["palace", "penguine", "banker", "human", "scarf", "shirt", "window", "human"], "key_times": [1387, 1537, 1695, 1862, 1993, 2167, 2465, 2804, 3104, 3254, 3455, 3592, 3697, 3875, 4071, 4253, 5115, 5258, 5403, 5651, 5786, 5955, 6103, 6377, 6580, 6809, 7011, 7120, 7356, 7526, 7730, 7982, 8068, 8350, 8740, 9055, 9267, 9357, 9542, 9754, 10088, 11247, 11348, 11445, 11580, 11904, 12358, 12637, 12782, 13132, 38759, 38963, 39169, 39364, 39429, 39901], "trial_type": "free-recall", "conditions": [12, 1600, "a", 12000], "internal_node_id": "0.0-176.0-0.0", "key_presses": [80, 65, 76, 65, 67, 69, 13, 80, 69, 78, 71, 85, 73, 78, 69, 13, 66, 65, 78, 75, 69, 82, 13, 72, 85, 77, 65, 78, 13, 83, 67, 65, 82, 70, 13, 83, 72, 73, 82, 84, 13, 87, 73, 78, 68, 87, 8, 79, 87, 13, 72, 85, 77, 65, 78, 13], "trial": 6, "time_elapsed": 2185821, "type": "FREE_RECALL", "trial_index": 239}, "uniqueid": "MTK2396:3OXV7EAXLFXVB76OUAX47US3NAS631", "dateTime": 1517077858729}, {"current_trial": 240, "trialdata": {"rt": 1439, "trial_type": "text", "internal_node_id": "0.0-177.0", "time_elapsed": 2189269, "key_press": 32, "type": "INSTRUCTIONS", "trial_index": 240}, "uniqueid": "MTK2396:3OXV7EAXLFXVB76OUAX47US3NAS631", "dateTime": 1517077862170}, {"current_trial": 241, "trialdata": {"rt": [4188, 7599, 11516, 14354, 17058, 20052], "trial_type": "math-distractor", "key_times": [3241, 3445, 4188, 7131, 7375, 7599, 10712, 11346, 11516, 13874, 14078, 14354, 16126, 16906, 17058, 19205, 19668, 20052], "responses": ["14", "13", "15", "12", "18", "10"], "num2": [8, 6, 5, 7, 5, 4, 4], "num3": [1, 3, 4, 1, 5, 1, 8], "conditions": [24, 800, "a", 24000], "internal_node_id": "0.0-178.0", "key_presses": [49, 52, 13, 49, 51, 13, 49, 53, 13, 49, 50, 13, 49, 56, 13, 49, 48, 13], "trial": 7, "time_elapsed": 2215278, "type": "DISTRACTOR", "trial_index": 241, "num1": [5, 4, 7, 4, 8, 5, 1]}, "uniqueid": "MTK2396:3OXV7EAXLFXVB76OUAX47US3NAS631", "dateTime": 1517077888179}, {"current_trial": 242, "trialdata": {"rt": -1, "trial_type": "single-stim", "stimulus": "<p id=\"stim\">10</p>", "internal_node_id": "0.0-179.0-0.0", "time_elapsed": 2218282, "key_press": -1, "trial_index": 242}, "uniqueid": "MTK2396:3OXV7EAXLFXVB76OUAX47US3NAS631", "dateTime": 1517077891183}, {"current_trial": 243, "trialdata": {"rt": -1, "trial_type": "single-stim", "stimulus": "<p id=\"stim\">9</p>", "internal_node_id": "0.0-179.0-1.0", "time_elapsed": 2219284, "key_press": -1, "trial_index": 243}, "uniqueid": "MTK2396:3OXV7EAXLFXVB76OUAX47US3NAS631", "dateTime": 1517077892186}, {"current_trial": 244, "trialdata": {"rt": -1, "trial_type": "single-stim", "stimulus": "<p id=\"stim\">8</p>", "internal_node_id": "0.0-179.0-2.0", "time_elapsed": 2220287, "key_press": -1, "trial_index": 244}, "uniqueid": "MTK2396:3OXV7EAXLFXVB76OUAX47US3NAS631", "dateTime": 1517077893189}, {"current_trial": 245, "trialdata": {"rt": -1, "trial_type": "single-stim", "stimulus": "<p id=\"stim\">7</p>", "internal_node_id": "0.0-179.0-3.0", "time_elapsed": 2221290, "key_press": -1, "trial_index": 245}, "uniqueid": "MTK2396:3OXV7EAXLFXVB76OUAX47US3NAS631", "dateTime": 1517077894191}, {"current_trial": 246, "trialdata": {"rt": -1, "trial_type": "single-stim", "stimulus": "<p id=\"stim\">6</p>", "internal_node_id": "0.0-179.0-4.0", "time_elapsed": 2222292, "key_press": -1, "trial_index": 246}, "uniqueid": "MTK2396:3OXV7EAXLFXVB76OUAX47US3NAS631", "dateTime": 1517077895194}, {"current_trial": 247, "trialdata": {"rt": -1, "trial_type": "single-stim", "stimulus": "<p id=\"stim\">5</p>", "internal_node_id": "0.0-179.0-5.0", "time_elapsed": 2223295, "key_press": -1, "trial_index": 247}, "uniqueid": "MTK2396:3OXV7EAXLFXVB76OUAX47US3NAS631", "dateTime": 1517077896196}, {"current_trial": 248, "trialdata": {"rt": -1, "trial_type": "single-stim", "stimulus": "<p id=\"stim\">4</p>", "internal_node_id": "0.0-179.0-6.0", "time_elapsed": 2224297, "key_press": -1, "trial_index": 248}, "uniqueid": "MTK2396:3OXV7EAXLFXVB76OUAX47US3NAS631", "dateTime": 1517077897199}, {"current_trial": 249, "trialdata": {"rt": -1, "trial_type": "single-stim", "stimulus": "<p id=\"stim\">3</p>", "internal_node_id": "0.0-179.0-7.0", "time_elapsed": 2225300, "key_press": -1, "trial_index": 249}, "uniqueid": "MTK2396:3OXV7EAXLFXVB76OUAX47US3NAS631", "dateTime": 1517077898201}, {"current_trial": 250, "trialdata": {"rt": -1, "trial_type": "single-stim", "stimulus": "<p i