{"assignmentId": "354P56DE9LAIZO583Z3XLG0BCWHS7C", "workerId": "MTK2810", "questiondata": {"origin": "United States", "strat-rehearsal": "63", "marital": "Married/Domestic Partnership", "education": "Some college", "ethnicity": "Not Hispanic", "color_depth": 24, "distracted": "No", "wrote-notes": "No", "strat-other": "n/a", "screen_width": 2195, "avail_screen_width": 2195, "avail_screen_height": 1235, "strat-image": "84", "language": "English", "gender": "Male", "age": "42", "gender_other": "", "race": ["White"], "strat-categorize": "84", "pixel_depth": 24, "strat-spatial": "24", "strat-story": "84", "race_other": "", "screen_height": 1235}, "bonus": 0, "hitId": "3GL25Y684317TO00BD67EMI91P4XM8", "counterbalance": 2505, "useragent": "Mozilla/5.0 (Windows NT 10.0; Win64; x64) AppleWebKit/537.36 (KHTML, like Gecko) Chrome/63.0.3239.132 Safari/537.36", "eventdata": [{"eventtype": "initialized", "interval": 0, "value": null, "timestamp": 1519402873561}, {"eventtype": "window_resize", "interval": 0, "value": [2197, 1186], "timestamp": 1519402873561}, {"eventtype": "window_resize", "interval": 5440, "value": [2157, 1161], "timestamp": 1519402879001}, {"eventtype": "window_resize", "interval": 439, "value": [2129, 1147], "timestamp": 1519402879440}, {"eventtype": "window_resize", "interval": 420911, "value": [2195, 1184], "timestamp": 1519403300351}, {"eventtype": "window_resize", "interval": 2551395, "value": [2129, 1147], "timestamp": 1519405851746}, {"eventtype": "focus", "interval": 2300, "value": "off", "timestamp": 1519405854046}, {"eventtype": "focus", "interval": 4005, "value": "on", "timestamp": 1519405858051}], "data": [{"current_trial": 0, "trialdata": {"rt": 389098, "trial_type": "text", "internal_node_id": "0.0-0.0", "time_elapsed": 389100, "key_press": 38, "type": "INSTRUCTIONS", "trial_index": 0}, "uniqueid": "MTK2810:354P56DE9LAIZO583Z3XLG0BCWHS7C", "dateTime": 1519403263137}, {"current_trial": 1, "trialdata": {"rt": 21180, "trial_type": "text", "internal_node_id": "0.0-1.0", "time_elapsed": 410281, "key_press": 38, "type": "INSTRUCTIONS", "trial_index": 1}, "uniqueid": "MTK2810:354P56DE9LAIZO583Z3XLG0BCWHS7C", "dateTime": 1519403284318}, {"current_trial": 2, "trialdata": {"rt": [18419], "trial_type": "audio-test", "responses": ["ocean"], "internal_node_id": "0.0-2.0", "time_elapsed": 428703, "type": "AUDIO_TEST", "trial_index": 2}, "uniqueid": "MTK2810:354P56DE9LAIZO583Z3XLG0BCWHS7C", "dateTime": 1519403302740}, {"current_trial": 3, "trialdata": {"rt": [23565], "trial_type": "audio-test", "responses": ["crystal"], "internal_node_id": "0.0-3.0", "time_elapsed": 452271, "type": "AUDIO_TEST", "trial_index": 3}, "uniqueid": "MTK2810:354P56DE9LAIZO583Z3XLG0BCWHS7C", "dateTime": 1519403326308}, {"current_trial": 4, "trialdata": {"rt": [8297], "trial_type": "audio-test", "responses": ["spice"], "internal_node_id": "0.0-4.0", "time_elapsed": 460571, "type": "AUDIO_TEST", "trial_index": 4}, "uniqueid": "MTK2810:354P56DE9LAIZO583Z3XLG0BCWHS7C", "dateTime": 1519403334608}, {"current_trial": 5, "trialdata": {"rt": 58469, "trial_type": "survey-text", "responses": "{\"Q0\":\"12am\",\"Q1\":\"8am\",\"Q2\":\"3\"}", "internal_node_id": "0.0-5.0", "time_elapsed": 519793, "type": "SLEEP_SURVEY", "trial_index": 5}, "uniqueid": "MTK2810:354P56DE9LAIZO583Z3XLG0BCWHS7C", "dateTime": 1519403393830}, {"current_trial": 6, "trialdata": {"rt": 64510, "trial_type": "text", "internal_node_id": "0.0-6.0", "time_elapsed": 585303, "key_press": 74, "type": "INSTRUCTIONS", "trial_index": 6}, "uniqueid": "MTK2810:354P56DE9LAIZO583Z3XLG0BCWHS7C", "dateTime": 1519403459340}, {"current_trial": 7, "trialdata": {"rt": 15370, "trial_type": "text", "internal_node_id": "0.0-7.0", "time_elapsed": 601177, "key_press": 74, "type": "INSTRUCTIONS", "trial_index": 7}, "uniqueid": "MTK2810:354P56DE9LAIZO583Z3XLG0BCWHS7C", "dateTime": 1519403475214}, {"current_trial": 8, "trialdata": {"rt": 8386, "trial_type": "text", "internal_node_id": "0.0-8.0", "time_elapsed": 610064, "key_press": 74, "type": "INSTRUCTIONS", "trial_index": 8}, "uniqueid": "MTK2810:354P56DE9LAIZO583Z3XLG0BCWHS7C", "dateTime": 1519403484101}, {"current_trial": 9, "trialdata": {"rt": [7506, 10237, 13033, 16409], "trial_type": "math-distractor", "key_times": [5341, 6067, 7506, 9703, 9754, 10237, 12091, 12163, 13033, 15963, 16095, 16409], "responses": ["17", "12", "16", "18"], "num2": [9, 1, 7, 7, 6], "num3": [4, 8, 2, 5, 9], "conditions": [18, 1200, "v", 18000], "internal_node_id": "0.0-9.0", "key_presses": [97, 103, 13, 97, 98, 13, 97, 102, 13, 97, 104, 13], "trial": 0, "time_elapsed": 629071, "type": "DISTRACTOR", "trial_index": 9, "num1": [4, 3, 7, 6, 7]}, "uniqueid": "MTK2810:354P56DE9LAIZO583Z3XLG0BCWHS7C", "dateTime": 1519403503108}, {"current_trial": 10, "trialdata": {"rt": -1, "trial_type": "single-stim", "stimulus": "<p id=\"stim\">10</p>", "internal_node_id": "0.0-10.0-0.0", "time_elapsed": 632074, "key_press": -1, "trial_index": 10}, "uniqueid": "MTK2810:354P56DE9LAIZO583Z3XLG0BCWHS7C", "dateTime": 1519403506111}, {"current_trial": 11, "trialdata": {"rt": -1, "trial_type": "single-stim", "stimulus": "<p id=\"stim\">9</p>", "internal_node_id": "0.0-10.0-1.0", "time_elapsed": 633077, "key_press": -1, "trial_index": 11}, "uniqueid": "MTK2810:354P56DE9LAIZO583Z3XLG0BCWHS7C", "dateTime": 1519403507114}, {"current_trial": 12, "trialdata": {"rt": -1, "trial_type": "single-stim", "stimulus": "<p id=\"stim\">8</p>", "internal_node_id": "0.0-10.0-2.0", "time_elapsed": 634078, "key_press": -1, "trial_index": 12}, "uniqueid": "MTK2810:354P56DE9LAIZO583Z3XLG0BCWHS7C", "dateTime": 1519403508115}, {"current_trial": 13, "trialdata": {"rt": -1, "trial_type": "single-stim", "stimulus": "<p id=\"stim\">7</p>", "internal_node_id": "0.0-10.0-3.0", "time_elapsed": 635080, "key_press": -1, "trial_index": 13}, "uniqueid": "MTK2810:354P56DE9LAIZO583Z3XLG0BCWHS7C", "dateTime": 1519403509117}, {"current_trial": 14, "trialdata": {"rt": -1, "trial_type": "single-stim", "stimulus": "<p id=\"stim\">6</p>", "internal_node_id": "0.0-10.0-4.0", "time_elapsed": 636081, "key_press": -1, "trial_index": 14}, "uniqueid": "MTK2810:354P56DE9LAIZO583Z3XLG0BCWHS7C", "dateTime": 1519403510118}, {"current_trial": 15, "trialdata": {"rt": -1, "trial_type": "single-stim", "stimulus": "<p id=\"stim\">5</p>", "internal_node_id": "0.0-10.0-5.0", "time_elapsed": 637082, "key_press": -1, "trial_index": 15}, "uniqueid": "MTK2810:354P56DE9LAIZO583Z3XLG0BCWHS7C", "dateTime": 1519403511119}, {"current_trial": 16, "trialdata": {"rt": -1, "trial_type": "single-stim", "stimulus": "<p id=\"stim\">4</p>", "internal_node_id": "0.0-10.0-6.0", "time_elapsed": 638083, "key_press": -1, "trial_index": 16}, "uniqueid": "MTK2810:354P56DE9LAIZO583Z3XLG0BCWHS7C", "dateTime": 1519403512120}, {"current_trial": 17, "trialdata": {"rt": -1, "trial_type": "single-stim", "stimulus": "<p id=\"stim\">3</p>", "internal_node_id": "0.0-10.0-7.0", "time_elapsed": 639087, "key_press": -1, "trial_index": 17}, "uniqueid": "MTK2810:354P56DE9LAIZO583Z3XLG0BCWHS7C", "dateTime": 1519403513124}, {"current_trial": 18, "trialdata": {"rt": -1, "trial_type": "single-stim", "stimulus": "<p id=\"stim\">2</p>", "internal_node_id": "0.0-10.0-8.0", "time_elapsed": 640089, "key_press": -1, "trial_index": 18}, "uniqueid": "MTK2810:354P56DE9LAIZO583Z3XLG0BCWHS7C", "dateTime": 1519403514126}, {"current_trial": 19, "trialdata": {"rt": -1, "trial_type": "single-stim", "stimulus": "<p id=\"stim\">1</p>", "internal_node_id": "0.0-10.0-9.0", "time_elapsed": 641091, "key_press": -1, "trial_index": 19}, "uniqueid": "MTK2810:354P56DE9LAIZO583Z3XLG0BCWHS7C", "dateTime": 1519403515128}, {"current_trial": 20, "trialdata": {"rt": -1, "trial_type": "single-stim", "stimulus": "<p id=\"stim\">+</p>", "internal_node_id": "0.0-11.0-0.0", "time_elapsed": 642592, "key_press": -1, "type": "FIXATION", "trial_index": 20}, "uniqueid": "MTK2810:354P56DE9LAIZO583Z3XLG0BCWHS7C", "dateTime": 1519403516629}, {"current_trial": 21, "trialdata": {"rt": -1, "trial_type": "single-stim", "word": "quarter", "stimulus": "<p id=\"stim\">QUARTER</p>", "conditions": [18, 1200, "v", 18000], "internal_node_id": "0.0-12.0", "trial": 0, "time_elapsed": 643793, "serialpos": 0, "key_press": -1, "wordID": 1147, "type": "PRES_VIS", "trial_index": 21}, "uniqueid": "MTK2810:354P56DE9LAIZO583Z3XLG0BCWHS7C", "dateTime": 1519403517830}, {"current_trial": 22, "trialdata": {"rt": -1, "trial_type": "single-stim", "word": "summit", "stimulus": "<p id=\"stim\">SUMMIT</p>", "conditions": [18, 1200, "v", 18000], "internal_node_id": "0.0-13.0", "trial": 0, "time_elapsed": 645859, "serialpos": 1, "key_press": -1, "wordID": 1404, "type": "PRES_VIS", "trial_index": 22}, "uniqueid": "MTK2810:354P56DE9LAIZO583Z3XLG0BCWHS7C", "dateTime": 1519403519896}, {"current_trial": 23, "trialdata": {"rt": -1, "trial_type": "single-stim", "word": "robot", "stimulus": "<p id=\"stim\">ROBOT</p>", "conditions": [18, 1200, "v", 18000], "internal_node_id": "0.0-14.0", "trial": 0, "time_elapsed": 647966, "serialpos": 2, "key_press": -1, "wordID": 1199, "type": "PRES_VIS", "trial_index": 23}, "uniqueid": "MTK2810:354P56DE9LAIZO583Z3XLG0BCWHS7C", "dateTime": 1519403522003}, {"current_trial": 24, "trialdata": {"rt": -1, "trial_type": "single-stim", "word": "swimmer", "stimulus": "<p id=\"stim\">SWIMMER</p>", "conditions": [18, 1200, "v", 18000], "internal_node_id": "0.0-15.0", "trial": 0, "time_elapsed": 650298, "serialpos": 3, "key_press": -1, "wordID": 1419, "type": "PRES_VIS", "trial_index": 24}, "uniqueid": "MTK2810:354P56DE9LAIZO583Z3XLG0BCWHS7C", "dateTime": 1519403524335}, {"current_trial": 25, "trialdata": {"rt": -1, "trial_type": "single-stim", "word": "xerox", "stimulus": "<p id=\"stim\">XEROX</p>", "conditions": [18, 1200, "v", 18000], "internal_node_id": "0.0-16.0", "trial": 0, "time_elapsed": 652685, "serialpos": 4, "key_press": -1, "wordID": 1627, "type": "PRES_VIS", "trial_index": 25}, "uniqueid": "MTK2810:354P56DE9LAIZO583Z3XLG0BCWHS7C", "dateTime": 1519403526722}, {"current_trial": 26, "trialdata": {"rt": -1, "trial_type": "single-stim", "word": "gravel", "stimulus": "<p id=\"stim\">GRAVEL</p>", "conditions": [18, 1200, "v", 18000], "internal_node_id": "0.0-17.0", "trial": 0, "time_elapsed": 654857, "serialpos": 5, "key_press": -1, "wordID": 658, "type": "PRES_VIS", "trial_index": 26}, "uniqueid": "MTK2810:354P56DE9LAIZO583Z3XLG0BCWHS7C", "dateTime": 1519403528894}, {"current_trial": 27, "trialdata": {"rt": -1, "trial_type": "single-stim", "word": "freckle", "stimulus": "<p id=\"stim\">FRECKLE</p>", "conditions": [18, 1200, "v", 18000], "internal_node_id": "0.0-18.0", "trial": 0, "time_elapsed": 657046, "serialpos": 6, "key_press": -1, "wordID": 601, "type": "PRES_VIS", "trial_index": 27}, "uniqueid": "MTK2810:354P56DE9LAIZO583Z3XLG0BCWHS7C", "dateTime": 1519403531083}, {"current_trial": 28, "trialdata": {"rt": -1, "trial_type": "single-stim", "word": "clothes", "stimulus": "<p id=\"stim\">CLOTHES</p>", "conditions": [18, 1200, "v", 18000], "internal_node_id": "0.0-19.0", "trial": 0, "time_elapsed": 659087, "serialpos": 7, "key_press": -1, "wordID": 326, "type": "PRES_VIS", "trial_index": 28}, "uniqueid": "MTK2810:354P56DE9LAIZO583Z3XLG0BCWHS7C", "dateTime": 1519403533124}, {"current_trial": 29, "trialdata": {"rt": -1, "trial_type": "single-stim", "word": "ox", "stimulus": "<p id=\"stim\">OX</p>", "conditions": [18, 1200, "v", 18000], "internal_node_id": "0.0-20.0", "trial": 0, "time_elapsed": 661149, "serialpos": 8, "key_press": -1, "wordID": 993, "type": "PRES_VIS", "trial_index": 29}, "uniqueid": "MTK2810:354P56DE9LAIZO583Z3XLG0BCWHS7C", "dateTime": 1519403535186}, {"current_trial": 30, "trialdata": {"rt": -1, "trial_type": "single-stim", "word": "pudding", "stimulus": "<p id=\"stim\">PUDDING</p>", "conditions": [18, 1200, "v", 18000], "internal_node_id": "0.0-21.0", "trial": 0, "time_elapsed": 663323, "serialpos": 9, "key_press": -1, "wordID": 1138, "type": "PRES_VIS", "trial_index": 30}, "uniqueid": "MTK2810:354P56DE9LAIZO583Z3XLG0BCWHS7C", "dateTime": 1519403537361}, {"current_trial": 31, "trialdata": {"rt": -1, "trial_type": "single-stim", "word": "lettuce", "stimulus": "<p id=\"stim\">LETTUCE</p>", "conditions": [18, 1200, "v", 18000], "internal_node_id": "0.0-22.0", "trial": 0, "time_elapsed": 665632, "serialpos": 10, "key_press": -1, "wordID": 813, "type": "PRES_VIS", "trial_index": 31}, "uniqueid": "MTK2810:354P56DE9LAIZO583Z3XLG0BCWHS7C", "dateTime": 1519403539669}, {"current_trial": 32, "trialdata": {"rt": -1, "trial_type": "single-stim", "word": "laser", "stimulus": "<p id=\"stim\">LASER</p>", "conditions": [18, 1200, "v", 18000], "internal_node_id": "0.0-23.0", "trial": 0, "time_elapsed": 667911, "serialpos": 11, "key_press": -1, "wordID": 800, "type": "PRES_VIS", "trial_index": 32}, "uniqueid": "MTK2810:354P56DE9LAIZO583Z3XLG0BCWHS7C", "dateTime": 1519403541948}, {"current_trial": 33, "trialdata": {"rt": -1, "trial_type": "single-stim", "word": "crater", "stimulus": "<p id=\"stim\">CRATER</p>", "conditions": [18, 1200, "v", 18000], "internal_node_id": "0.0-24.0", "trial": 0, "time_elapsed": 670064, "serialpos": 12, "key_press": -1, "wordID": 399, "type": "PRES_VIS", "trial_index": 33}, "uniqueid": "MTK2810:354P56DE9LAIZO583Z3XLG0BCWHS7C", "dateTime": 1519403544102}, {"current_trial": 34, "trialdata": {"rt": -1, "trial_type": "single-stim", "word": "poison", "stimulus": "<p id=\"stim\">POISON</p>", "conditions": [18, 1200, "v", 18000], "internal_node_id": "0.0-25.0", "trial": 0, "time_elapsed": 672372, "serialpos": 13, "key_press": -1, "wordID": 1095, "type": "PRES_VIS", "trial_index": 34}, "uniqueid": "MTK2810:354P56DE9LAIZO583Z3XLG0BCWHS7C", "dateTime": 1519403546409}, {"current_trial": 35, "trialdata": {"rt": -1, "trial_type": "single-stim", "word": "cattle", "stimulus": "<p id=\"stim\">CATTLE</p>", "conditions": [18, 1200, "v", 18000], "internal_node_id": "0.0-26.0", "trial": 0, "time_elapsed": 674704, "serialpos": 14, "key_press": -1, "wordID": 260, "type": "PRES_VIS", "trial_index": 35}, "uniqueid": "MTK2810:354P56DE9LAIZO583Z3XLG0BCWHS7C", "dateTime": 1519403548742}, {"current_trial": 36, "trialdata": {"rt": -1, "trial_type": "single-stim", "word": "camel", "stimulus": "<p id=\"stim\">CAMEL</p>", "conditions": [18, 1200, "v", 18000], "internal_node_id": "0.0-27.0", "trial": 0, "time_elapsed": 677053, "serialpos": 15, "key_press": -1, "wordID": 222, "type": "PRES_VIS", "trial_index": 36}, "uniqueid": "MTK2810:354P56DE9LAIZO583Z3XLG0BCWHS7C", "dateTime": 1519403551091}, {"current_trial": 37, "trialdata": {"rt": -1, "trial_type": "single-stim", "word": "mister", "stimulus": "<p id=\"stim\">MISTER</p>", "conditions": [18, 1200, "v", 18000], "internal_node_id": "0.0-28.0", "trial": 0, "time_elapsed": 679234, "serialpos": 16, "key_press": -1, "wordID": 900, "type": "PRES_VIS", "trial_index": 37}, "uniqueid": "MTK2810:354P56DE9LAIZO583Z3XLG0BCWHS7C", "dateTime": 1519403553272}, {"current_trial": 38, "trialdata": {"rt": -1, "trial_type": "single-stim", "word": "suitcase", "stimulus": "<p id=\"stim\">SUITCASE</p>", "conditions": [18, 1200, "v", 18000], "internal_node_id": "0.0-29.0", "trial": 0, "time_elapsed": 681621, "serialpos": 17, "key_press": -1, "wordID": 1402, "type": "PRES_VIS", "trial_index": 38}, "uniqueid": "MTK2810:354P56DE9LAIZO583Z3XLG0BCWHS7C", "dateTime": 1519403555658}, {"current_trial": 39, "trialdata": {"rt": -1, "trial_type": "single-stim", "stimulus": "", "internal_node_id": "0.0-30.0-0.0", "time_elapsed": 683964, "key_press": -1, "type": "PRE_RECALL_DELAY", "trial_index": 39}, "uniqueid": "MTK2810:354P56DE9LAIZO583Z3XLG0BCWHS7C", "dateTime": 1519403558001}, {"current_trial": 40, "trialdata": {"rt": -1000, "trial_type": "single-audio", "stimulus": "/static/audio/400Hz.wav", "internal_node_id": "0.0-31.0", "time_elapsed": 684467, "key_press": -1, "type": "PRE_RECALL_ALERT", "trial_index": 40}, "uniqueid": "MTK2810:354P56DE9LAIZO583Z3XLG0BCWHS7C", "dateTime": 1519403558504}, {"current_trial": 41, "trialdata": {"rt": [2503, 4515, 5702, 7090, 8443, 9846, 12198, 14610, 22711, 24682, 33562, 36002], "recwords": ["mister", "suitcase", "ox", "poison", "summit", "crater", "cattle", "summit", "robot", "laser", "pudding", "lettuce"], "key_times": [1567, 1712, 1856, 2064, 2176, 2264, 2503, 3268, 3440, 3595, 3696, 3920, 4076, 4212, 4286, 4515, 5300, 5408, 5702, 6196, 6368, 6548, 6727, 6783, 6872, 7090, 7580, 7704, 7867, 8020, 8184, 8296, 8443, 8804, 8958, 9174, 9428, 9560, 9622, 9846, 11280, 11472, 11647, 11780, 11928, 12003, 12198, 13663, 13804, 13984, 14128, 14296, 14408, 14610, 21152, 21304, 22180, 22332, 22480, 22711, 23448, 23620, 23732, 24444, 24504, 24682, 32460, 32691, 32936, 33062, 33174, 33266, 33350, 33562, 34639, 35123, 35319, 35446, 35600, 35767, 35858, 36002], "trial_type": "free-recall", "conditions": [18, 1200, "v", 18000], "internal_node_id": "0.0-32.0-0.0", "key_presses": [77, 73, 83, 84, 69, 82, 13, 83, 85, 73, 84, 67, 65, 83, 69, 13, 79, 88, 13, 80, 79, 73, 83, 79, 78, 13, 83, 85, 77, 77, 73, 84, 13, 67, 82, 65, 84, 69, 82, 13, 67, 65, 84, 84, 76, 69, 13, 83, 85, 77, 77, 73, 84, 13, 82, 79, 66, 79, 84, 13, 76, 65, 83, 69, 82, 13, 80, 85, 68, 68, 73, 78, 71, 13, 76, 69, 84, 84, 85, 67, 69, 13], "trial": 0, "time_elapsed": 744470, "type": "FREE_RECALL", "trial_index": 41}, "uniqueid": "MTK2810:354P56DE9LAIZO583Z3XLG0BCWHS7C", "dateTime": 1519403618511}, {"current_trial": 42, "trialdata": {"rt": 1141, "trial_type": "text", "internal_node_id": "0.0-33.0", "time_elapsed": 747615, "key_press": 74, "type": "INSTRUCTIONS", "trial_index": 42}, "uniqueid": "MTK2810:354P56DE9LAIZO583Z3XLG0BCWHS7C", "dateTime": 1519403621652}, {"current_trial": 43, "trialdata": {"rt": [2585, 4213, 6161, 8278, 10762, 12621, 15197, 17397], "trial_type": "math-distractor", "key_times": [2383, 2467, 2585, 3795, 3987, 4213, 5759, 5887, 6161, 7791, 7873, 8278, 10546, 10762, 12295, 12418, 12621, 14947, 15039, 15197, 17118, 17195, 17397], "responses": ["20", "13", "11", "18", "8", "14", "20", "15"], "num2": [9, 3, 1, 8, 1, 3, 4, 1, 5], "num3": [8, 3, 3, 1, 3, 4, 9, 6, 5], "conditions": [18, 1200, "v", 18000], "internal_node_id": "0.0-34.0", "key_presses": [98, 96, 13, 97, 99, 13, 97, 97, 13, 97, 104, 13, 104, 13, 97, 100, 13, 98, 96, 13, 97, 101, 13], "trial": 1, "time_elapsed": 767619, "type": "DISTRACTOR", "trial_index": 43, "num1": [3, 7, 7, 9, 4, 7, 7, 8, 2]}, "uniqueid": "MTK2810:354P56DE9LAIZO583Z3XLG0BCWHS7C", "dateTime": 1519403641656}, {"current_trial": 44, "trialdata": {"rt": -1, "trial_type": "single-stim", "stimulus": "<p id=\"stim\">10</p>", "internal_node_id": "0.0-35.0-0.0", "time_elapsed": 770620, "key_press": -1, "trial_index": 44}, "uniqueid": "MTK2810:354P56DE9LAIZO583Z3XLG0BCWHS7C", "dateTime": 1519403644657}, {"current_trial": 45, "trialdata": {"rt": -1, "trial_type": "single-stim", "stimulus": "<p id=\"stim\">9</p>", "internal_node_id": "0.0-35.0-1.0", "time_elapsed": 771621, "key_press": -1, "trial_index": 45}, "uniqueid": "MTK2810:354P56DE9LAIZO583Z3XLG0BCWHS7C", "dateTime": 1519403645658}, {"current_trial": 46, "trialdata": {"rt": -1, "trial_type": "single-stim", "stimulus": "<p id=\"stim\">8</p>", "internal_node_id": "0.0-35.0-2.0", "time_elapsed": 772623, "key_press": -1, "trial_index": 46}, "uniqueid": "MTK2810:354P56DE9LAIZO583Z3XLG0BCWHS7C", "dateTime": 1519403646660}, {"current_trial": 47, "trialdata": {"rt": -1, "trial_type": "single-stim", "stimulus": "<p id=\"stim\">7</p>", "internal_node_id": "0.0-35.0-3.0", "time_elapsed": 773624, "key_press": -1, "trial_index": 47}, "uniqueid": "MTK2810:354P56DE9LAIZO583Z3XLG0BCWHS7C", "dateTime": 1519403647662}, {"current_trial": 48, "trialdata": {"rt": -1, "trial_type": "single-stim", "stimulus": "<p id=\"stim\">6</p>", "internal_node_id": "0.0-35.0-4.0", "time_elapsed": 774626, "key_press": -1, "trial_index": 48}, "uniqueid": "MTK2810:354P56DE9LAIZO583Z3XLG0BCWHS7C", "dateTime": 1519403648663}, {"current_trial": 49, "trialdata": {"rt": -1, "trial_type": "single-stim", "stimulus": "<p id=\"stim\">5</p>", "internal_node_id": "0.0-35.0-5.0", "time_elapsed": 775627, "key_press": -1, "trial_index": 49}, "uniqueid": "MTK2810:354P56DE9LAIZO583Z3XLG0BCWHS7C", "dateTime": 1519403649664}, {"current_trial": 50, "trialdata": {"rt": -1, "trial_type": "single-stim", "stimulus": "<p id=\"stim\">4</p>", "internal_node_id": "0.0-35.0-6.0", "time_elapsed": 776628, "key_press": -1, "trial_index": 50}, "uniqueid": "MTK2810:354P56DE9LAIZO583Z3XLG0BCWHS7C", "dateTime": 1519403650666}, {"current_trial": 51, "trialdata": {"rt": -1, "trial_type": "single-stim", "stimulus": "<p id=\"stim\">3</p>", "internal_node_id": "0.0-35.0-7.0", "time_elapsed": 777631, "key_press": -1, "trial_index": 51}, "uniqueid": "MTK2810:354P56DE9LAIZO583Z3XLG0BCWHS7C", "dateTime": 1519403651668}, {"current_trial": 52, "trialdata": {"rt": -1, "trial_type": "single-stim", "stimulus": "<p id=\"stim\">2</p>", "internal_node_id": "0.0-35.0-8.0", "time_elapsed": 778632, "key_press": -1, "trial_index": 52}, "uniqueid": "MTK2810:354P56DE9LAIZO583Z3XLG0BCWHS7C", "dateTime": 1519403652669}, {"current_trial": 53, "trialdata": {"rt": -1, "trial_type": "single-stim", "stimulus": "<p id=\"stim\">1</p>", "internal_node_id": "0.0-35.0-9.0", "time_elapsed": 779634, "key_press": -1, "trial_index": 53}, "uniqueid": "MTK2810:354P56DE9LAIZO583Z3XLG0BCWHS7C", "dateTime": 1519403653671}, {"current_trial": 54, "trialdata": {"rt": -1, "trial_type": "single-stim", "stimulus": "<p id=\"stim\">+</p>", "internal_node_id": "0.0-36.0-0.0", "time_elapsed": 781135, "key_press": -1, "type": "FIXATION", "trial_index": 54}, "uniqueid": "MTK2810:354P56DE9LAIZO583Z3XLG0BCWHS7C", "dateTime": 1519403655172}, {"current_trial": 55, "trialdata": {"rt": -1, "trial_type": "single-stim", "word": "portrait", "stimulus": "<p id=\"stim\">PORTRAIT</p>", "conditions": [18, 1200, "v", 18000], "internal_node_id": "0.0-37.0", "trial": 1, "time_elapsed": 782337, "serialpos": 0, "key_press": -1, "wordID": 1110, "type": "PRES_VIS", "trial_index": 55}, "uniqueid": "MTK2810:354P56DE9LAIZO583Z3XLG0BCWHS7C", "dateTime": 1519403656374}, {"current_trial": 56, "trialdata": {"rt": -1, "trial_type": "single-stim", "word": "female", "stimulus": "<p id=\"stim\">FEMALE</p>", "conditions": [18, 1200, "v", 18000], "internal_node_id": "0.0-38.0", "trial": 1, "time_elapsed": 784461, "serialpos": 1, "key_press": -1, "wordID": 558, "type": "PRES_VIS", "trial_index": 56}, "uniqueid": "MTK2810:354P56DE9LAIZO583Z3XLG0BCWHS7C", "dateTime": 1519403658498}, {"current_trial": 57, "trialdata": {"rt": -1, "trial_type": "single-stim", "word": "blender", "stimulus": "<p id=\"stim\">BLENDER</p>", "conditions": [18, 1200, "v", 18000], "internal_node_id": "0.0-39.0", "trial": 1, "time_elapsed": 786477, "serialpos": 2, "key_press": -1, "wordID": 135, "type": "PRES_VIS", "trial_index": 57}, "uniqueid": "MTK2810:354P56DE9LAIZO583Z3XLG0BCWHS7C", "dateTime": 1519403660515}, {"current_trial": 58, "trialdata": {"rt": -1, "trial_type": "single-stim", "word": "panther", "stimulus": "<p id=\"stim\">PANTHER</p>", "conditions": [18, 1200, "v", 18000], "internal_node_id": "0.0-40.0", "trial": 1, "time_elapsed": 788839, "serialpos": 3, "key_press": -1, "wordID": 1008, "type": "PRES_VIS", "trial_index": 58}, "uniqueid": "MTK2810:354P56DE9LAIZO583Z3XLG0BCWHS7C", "dateTime": 1519403662876}, {"current_trial": 59, "trialdata": {"rt": -1, "trial_type": "single-stim", "word": "dorm", "stimulus": "<p id=\"stim\">DORM</p>", "conditions": [18, 1200, "v", 18000], "internal_node_id": "0.0-41.0", "trial": 1, "time_elapsed": 790920, "serialpos": 4, "key_press": -1, "wordID": 487, "type": "PRES_VIS", "trial_index": 59}, "uniqueid": "MTK2810:354P56DE9LAIZO583Z3XLG0BCWHS7C", "dateTime": 1519403664958}, {"current_trial": 60, "trialdata": {"rt": -1, "trial_type": "single-stim", "word": "switch", "stimulus": "<p id=\"stim\">SWITCH</p>", "conditions": [18, 1200, "v", 18000], "internal_node_id": "0.0-42.0", "trial": 1, "time_elapsed": 793298, "serialpos": 5, "key_press": -1, "wordID": 1421, "type": "PRES_VIS", "trial_index": 60}, "uniqueid": "MTK2810:354P56DE9LAIZO583Z3XLG0BCWHS7C", "dateTime": 1519403667335}, {"current_trial": 61, "trialdata": {"rt": -1, "trial_type": "single-stim", "word": "butcher", "stimulus": "<p id=\"stim\">BUTCHER</p>", "conditions": [18, 1200, "v", 18000], "internal_node_id": "0.0-43.0", "trial": 1, "time_elapsed": 795310, "serialpos": 6, "key_press": -1, "wordID": 202, "type": "PRES_VIS", "trial_index": 61}, "uniqueid": "MTK2810:354P56DE9LAIZO583Z3XLG0BCWHS7C", "dateTime": 1519403669347}, {"current_trial": 62, "trialdata": {"rt": -1, "trial_type": "single-stim", "word": "canal", "stimulus": "<p id=\"stim\">CANAL</p>", "conditions": [18, 1200, "v", 18000], "internal_node_id": "0.0-44.0", "trial": 1, "time_elapsed": 797500, "serialpos": 7, "key_press": -1, "wordID": 225, "type": "PRES_VIS", "trial_index": 62}, "uniqueid": "MTK2810:354P56DE9LAIZO583Z3XLG0BCWHS7C", "dateTime": 1519403671537}, {"current_trial": 63, "trialdata": {"rt": -1, "trial_type": "single-stim", "word": "cricket", "stimulus": "<p id=\"stim\">CRICKET</p>", "conditions": [18, 1200, "v", 18000], "internal_node_id": "0.0-45.0", "trial": 1, "time_elapsed": 799593, "serialpos": 8, "key_press": -1, "wordID": 407, "type": "PRES_VIS", "trial_index": 63}, "uniqueid": "MTK2810:354P56DE9LAIZO583Z3XLG0BCWHS7C", "dateTime": 1519403673630}, {"current_trial": 64, "trialdata": {"rt": -1, "trial_type": "single-stim", "word": "victim", "stimulus": "<p id=\"stim\">VICTIM</p>", "conditions": [18, 1200, "v", 18000], "internal_node_id": "0.0-46.0", "trial": 1, "time_elapsed": 801626, "serialpos": 9, "key_press": -1, "wordID": 1561, "type": "PRES_VIS", "trial_index": 64}, "uniqueid": "MTK2810:354P56DE9LAIZO583Z3XLG0BCWHS7C", "dateTime": 1519403675663}, {"current_trial": 65, "trialdata": {"rt": -1, "trial_type": "single-stim", "word": "gavel", "stimulus": "<p id=\"stim\">GAVEL</p>", "conditions": [18, 1200, "v", 18000], "internal_node_id": "0.0-47.0", "trial": 1, "time_elapsed": 803713, "serialpos": 10, "key_press": -1, "wordID": 626, "type": "PRES_VIS", "trial_index": 65}, "uniqueid": "MTK2810:354P56DE9LAIZO583Z3XLG0BCWHS7C", "dateTime": 1519403677750}, {"current_trial": 66, "trialdata": {"rt": -1, "trial_type": "single-stim", "word": "primate", "stimulus": "<p id=\"stim\">PRIMATE</p>", "conditions": [18, 1200, "v", 18000], "internal_node_id": "0.0-48.0", "trial": 1, "time_elapsed": 806011, "serialpos": 11, "key_press": -1, "wordID": 1122, "type": "PRES_VIS", "trial_index": 66}, "uniqueid": "MTK2810:354P56DE9LAIZO583Z3XLG0BCWHS7C", "dateTime": 1519403680048}, {"current_trial": 67, "trialdata": {"rt": -1, "trial_type": "single-stim", "word": "rattle", "stimulus": "<p id=\"stim\">RATTLE</p>", "conditions": [18, 1200, "v", 18000], "internal_node_id": "0.0-49.0", "trial": 1, "time_elapsed": 808259, "serialpos": 12, "key_press": -1, "wordID": 1169, "type": "PRES_VIS", "trial_index": 67}, "uniqueid": "MTK2810:354P56DE9LAIZO583Z3XLG0BCWHS7C", "dateTime": 1519403682296}, {"current_trial": 68, "trialdata": {"rt": -1, "trial_type": "single-stim", "word": "lunch", "stimulus": "<p id=\"stim\">LUNCH</p>", "conditions": [18, 1200, "v", 18000], "internal_node_id": "0.0-50.0", "trial": 1, "time_elapsed": 810622, "serialpos": 13, "key_press": -1, "wordID": 848, "type": "PRES_VIS", "trial_index": 68}, "uniqueid": "MTK2810:354P56DE9LAIZO583Z3XLG0BCWHS7C", "dateTime": 1519403684663}, {"current_trial": 69, "trialdata": {"rt": -1, "trial_type": "single-stim", "word": "country", "stimulus": "<p id=\"stim\">COUNTRY</p>", "conditions": [18, 1200, "v", 18000], "internal_node_id": "0.0-51.0", "trial": 1, "time_elapsed": 813027, "serialpos": 14, "key_press": -1, "wordID": 387, "type": "PRES_VIS", "trial_index": 69}, "uniqueid": "MTK2810:354P56DE9LAIZO583Z3XLG0BCWHS7C", "dateTime": 1519403687064}, {"current_trial": 70, "trialdata": {"rt": -1, "trial_type": "single-stim", "word": "nurse", "stimulus": "<p id=\"stim\">NURSE</p>", "conditions": [18, 1200, "v", 18000], "internal_node_id": "0.0-52.0", "trial": 1, "time_elapsed": 815307, "serialpos": 15, "key_press": -1, "wordID": 962, "type": "PRES_VIS", "trial_index": 70}, "uniqueid": "MTK2810:354P56DE9LAIZO583Z3XLG0BCWHS7C", "dateTime": 1519403689345}, {"current_trial": 71, "trialdata": {"rt": -1, "trial_type": "single-stim", "word": "hornet", "stimulus": "<p id=\"stim\">HORNET</p>", "conditions": [18, 1200, "v", 18000], "internal_node_id": "0.0-53.0", "trial": 1, "time_elapsed": 817594, "serialpos": 16, "key_press": -1, "wordID": 717, "type": "PRES_VIS", "trial_index": 71}, "uniqueid": "MTK2810:354P56DE9LAIZO583Z3XLG0BCWHS7C", "dateTime": 1519403691631}, {"current_trial": 72, "trialdata": {"rt": -1, "trial_type": "single-stim", "word": "relish", "stimulus": "<p id=\"stim\">RELISH</p>", "conditions": [18, 1200, "v", 18000], "internal_node_id": "0.0-54.0", "trial": 1, "time_elapsed": 819984, "serialpos": 17, "key_press": -1, "wordID": 1182, "type": "PRES_VIS", "trial_index": 72}, "uniqueid": "MTK2810:354P56DE9LAIZO583Z3XLG0BCWHS7C", "dateTime": 1519403694021}, {"current_trial": 73, "trialdata": {"rt": -1, "trial_type": "single-stim", "stimulus": "", "internal_node_id": "0.0-55.0-0.0", "time_elapsed": 822240, "key_press": -1, "type": "PRE_RECALL_DELAY", "trial_index": 73}, "uniqueid": "MTK2810:354P56DE9LAIZO583Z3XLG0BCWHS7C", "dateTime": 1519403696277}, {"current_trial": 74, "trialdata": {"rt": -1000, "trial_type": "single-audio", "stimulus": "/static/audio/400Hz.wav", "internal_node_id": "0.0-56.0", "time_elapsed": 822742, "key_press": -1, "type": "PRE_RECALL_ALERT", "trial_index": 74}, "uniqueid": "MTK2810:354P56DE9LAIZO583Z3XLG0BCWHS7C", "dateTime": 1519403696779}, {"current_trial": 75, "trialdata": {"rt": [4466, 6066, 7803, 9503, 13179, 15259, 19983, 21867], "recwords": ["country", "nurse", "hornet", "relish", "gavel", "blender", "portrait", "female"], "key_times": [1289, 1468, 1652, 1776, 1980, 2068, 2852, 3036, 3116, 3680, 3940, 4466, 5216, 5415, 5568, 5848, 5940, 6066, 6688, 6854, 7002, 7284, 7414, 7558, 7803, 8427, 8496, 8636, 8812, 8984, 9079, 9503, 10236, 10400, 10640, 10742, 10856, 13179, 14366, 14540, 14653, 14794, 14936, 15038, 15116, 15259, 16468, 16700, 16960, 17476, 18018, 18174, 18258, 18636, 19235, 19584, 19983, 20468, 20596, 20704, 20860, 21000, 21496, 21867], "trial_type": "free-recall", "conditions": [18, 1200, "v", 18000], "internal_node_id": "0.0-57.0-0.0", "key_presses": [67, 79, 85, 78, 84, 89, 8, 82, 84, 8, 89, 13, 78, 85, 82, 83, 69, 13, 72, 79, 82, 78, 69, 84, 13, 82, 69, 76, 73, 83, 72, 13, 71, 65, 86, 69, 76, 13, 66, 76, 69, 78, 68, 69, 82, 13, 80, 79, 82, 84, 82, 65, 73, 82, 8, 84, 13, 70, 69, 77, 65, 76, 69, 13], "trial": 1, "time_elapsed": 882745, "type": "FREE_RECALL", "trial_index": 75}, "uniqueid": "MTK2810:354P56DE9LAIZO583Z3XLG0BCWHS7C", "dateTime": 1519403756784}, {"current_trial": 76, "trialdata": {"rt": 5896, "trial_type": "text", "internal_node_id": "0.0-58.0", "time_elapsed": 890644, "key_press": 186, "type": "INSTRUCTIONS", "trial_index": 76}, "uniqueid": "MTK2810:354P56DE9LAIZO583Z3XLG0BCWHS7C", "dateTime": 1519403764681}, {"current_trial": 77, "trialdata": {"rt": [3061, 4474, 7097, 8769, 11069, 12893, 14625, 17554, 19241, 20482, 23745], "trial_type": "math-distractor", "key_times": [2615, 2811, 3061, 4286, 4474, 6806, 6891, 7097, 8537, 8606, 8769, 10691, 10842, 11069, 12639, 12707, 12893, 14350, 14414, 14625, 17250, 17386, 17554, 18971, 19091, 19241, 20263, 20482, 23363, 23521, 23745], "responses": ["18", "9", "19", "16", "12", "15", "15", "22", "11", "8", "21"], "num2": [5, 6, 7, 8, 2, 1, 8, 7, 5, 6, 7, 4], "num3": [9, 1, 8, 2, 1, 5, 2, 9, 3, 1, 5, 9], "conditions": [24, 800, "v", 24000], "internal_node_id": "0.0-59.0", "key_presses": [97, 104, 13, 105, 13, 97, 105, 13, 97, 102, 13, 97, 98, 13, 97, 101, 13, 97, 101, 13, 98, 98, 13, 97, 97, 13, 104, 13, 98, 97, 13], "trial": 2, "time_elapsed": 915647, "type": "DISTRACTOR", "trial_index": 77, "num1": [4, 2, 4, 6, 9, 9, 5, 7, 3, 1, 8, 5]}, "uniqueid": "MTK2810:354P56DE9LAIZO583Z3XLG0BCWHS7C", "dateTime": 1519403789684}, {"current_trial": 78, "trialdata": {"rt": -1, "trial_type": "single-stim", "stimulus": "<p id=\"stim\">10</p>", "internal_node_id": "0.0-60.0-0.0", "time_elapsed": 918649, "key_press": -1, "trial_index": 78}, "uniqueid": "MTK2810:354P56DE9LAIZO583Z3XLG0BCWHS7C", "dateTime": 1519403792686}, {"current_trial": 79, "trialdata": {"rt": -1, "trial_type": "single-stim", "stimulus": "<p id=\"stim\">9</p>", "internal_node_id": "0.0-60.0-1.0", "time_elapsed": 919650, "key_press": -1, "trial_index": 79}, "uniqueid": "MTK2810:354P56DE9LAIZO583Z3XLG0BCWHS7C", "dateTime": 1519403793687}, {"current_trial": 80, "trialdata": {"rt": -1, "trial_type": "single-stim", "stimulus": "<p id=\"stim\">8</p>", "internal_node_id": "0.0-60.0-2.0", "time_elapsed": 920651, "key_press": -1, "trial_index": 80}, "uniqueid": "MTK2810:354P56DE9LAIZO583Z3XLG0BCWHS7C", "dateTime": 1519403794688}, {"current_trial": 81, "trialdata": {"rt": -1, "trial_type": "single-stim", "stimulus": "<p id=\"stim\">7</p>", "internal_node_id": "0.0-60.0-3.0", "time_elapsed": 921653, "key_press": -1, "trial_index": 81}, "uniqueid": "MTK2810:354P56DE9LAIZO583Z3XLG0BCWHS7C", "dateTime": 1519403795690}, {"current_trial": 82, "trialdata": {"rt": -1, "trial_type": "single-stim", "stimulus": "<p id=\"stim\">6</p>", "internal_node_id": "0.0-60.0-4.0", "time_elapsed": 922654, "key_press": -1, "trial_index": 82}, "uniqueid": "MTK2810:354P56DE9LAIZO583Z3XLG0BCWHS7C", "dateTime": 1519403796692}, {"current_trial": 83, "trialdata": {"rt": -1, "trial_type": "single-stim", "stimulus": "<p id=\"stim\">5</p>", "internal_node_id": "0.0-60.0-5.0", "time_elapsed": 923656, "key_press": -1, "trial_index": 83}, "uniqueid": "MTK2810:354P56DE9LAIZO583Z3XLG0BCWHS7C", "dateTime": 1519403797693}, {"current_trial": 84, "trialdata": {"rt": -1, "trial_type": "single-stim", "stimulus": "<p id=\"stim\">4</p>", "internal_node_id": "0.0-60.0-6.0", "time_elapsed": 924657, "key_press": -1, "trial_index": 84}, "uniqueid": "MTK2810:354P56DE9LAIZO583Z3XLG0BCWHS7C", "dateTime": 1519403798694}, {"current_trial": 85, "trialdata": {"rt": -1, "trial_type": "single-stim", "stimulus": "<p id=\"stim\">3</p>", "internal_node_id": "0.0-60.0-7.0", "time_elapsed": 925658, "key_press": -1, "trial_index": 85}, "uniqueid": "MTK2810:354P56DE9LAIZO583Z3XLG0BCWHS7C", "dateTime": 1519403799695}, {"current_trial": 86, "trialdata": {"rt": -1, "trial_type": "single-stim", "stimulus": "<p id=\"stim\">2</p>", "internal_node_id": "0.0-60.0-8.0", "time_elapsed": 926659, "key_press": -1, "trial_index": 86}, "uniqueid": "MTK2810:354P56DE9LAIZO583Z3XLG0BCWHS7C", "dateTime": 1519403800696}, {"current_trial": 87, "trialdata": {"rt": -1, "trial_type": "single-stim", "stimulus": "<p id=\"stim\">1</p>", "internal_node_id": "0.0-60.0-9.0", "time_elapsed": 927660, "key_press": -1, "trial_index": 87}, "uniqueid": "MTK2810:354P56DE9LAIZO583Z3XLG0BCWHS7C", "dateTime": 1519403801697}, {"current_trial": 88, "trialdata": {"rt": -1, "trial_type": "single-stim", "stimulus": "<p id=\"stim\">+</p>", "internal_node_id": "0.0-61.0-0.0", "time_elapsed": 929162, "key_press": -1, "type": "FIXATION", "trial_index": 88}, "uniqueid": "MTK2810:354P56DE9LAIZO583Z3XLG0BCWHS7C", "dateTime": 1519403803199}, {"current_trial": 89, "trialdata": {"rt": -1, "trial_type": "single-stim", "word": "mattress", "stimulus": "<p id=\"stim\">MATTRESS</p>", "conditions": [24, 800, "v", 24000], "internal_node_id": "0.0-62.0", "trial": 2, "time_elapsed": 929963, "serialpos": 0, "key_press": -1, "wordID": 878, "type": "PRES_VIS", "trial_index": 89}, "uniqueid": "MTK2810:354P56DE9LAIZO583Z3XLG0BCWHS7C", "dateTime": 1519403804000}, {"current_trial": 90, "trialdata": {"rt": -1, "trial_type": "single-stim", "word": "supper", "stimulus": "<p id=\"stim\">SUPPER</p>", "conditions": [24, 800, "v", 24000], "internal_node_id": "0.0-63.0", "trial": 2, "time_elapsed": 931780, "serialpos": 1, "key_press": -1, "wordID": 1410, "type": "PRES_VIS", "trial_index": 90}, "uniqueid": "MTK2810:354P56DE9LAIZO583Z3XLG0BCWHS7C", "dateTime": 1519403805817}, {"current_trial": 91, "trialdata": {"rt": -1, "trial_type": "single-stim", "word": "hound", "stimulus": "<p id=\"stim\">HOUND</p>", "conditions": [24, 800, "v", 24000], "internal_node_id": "0.0-64.0", "trial": 2, "time_elapsed": 933596, "serialpos": 2, "key_press": -1, "wordID": 723, "type": "PRES_VIS", "trial_index": 91}, "uniqueid": "MTK2810:354P56DE9LAIZO583Z3XLG0BCWHS7C", "dateTime": 1519403807634}, {"current_trial": 92, "trialdata": {"rt": -1, "trial_type": "single-stim", "word": "creature", "stimulus": "<p id=\"stim\">CREATURE</p>", "conditions": [24, 800, "v", 24000], "internal_node_id": "0.0-65.0", "trial": 2, "time_elapsed": 935554, "serialpos": 3, "key_press": -1, "wordID": 402, "type": "PRES_VIS", "trial_index": 92}, "uniqueid": "MTK2810:354P56DE9LAIZO583Z3XLG0BCWHS7C", "dateTime": 1519403809591}, {"current_trial": 93, "trialdata": {"rt": -1, "trial_type": "single-stim", "word": "leopard", "stimulus": "<p id=\"stim\">LEOPARD</p>", "conditions": [24, 800, "v", 24000], "internal_node_id": "0.0-66.0", "trial": 2, "time_elapsed": 937484, "serialpos": 4, "key_press": -1, "wordID": 811, "type": "PRES_VIS", "trial_index": 93}, "uniqueid": "MTK2810:354P56DE9LAIZO583Z3XLG0BCWHS7C", "dateTime": 1519403811521}, {"current_trial": 94, "trialdata": {"rt": -1, "trial_type": "single-stim", "word": "zebra", "stimulus": "<p id=\"stim\">ZEBRA</p>", "conditions": [24, 800, "v", 24000], "internal_node_id": "0.0-67.0", "trial": 2, "time_elapsed": 939379, "serialpos": 5, "key_press": -1, "wordID": 1634, "type": "PRES_VIS", "trial_index": 94}, "uniqueid": "MTK2810:354P56DE9LAIZO583Z3XLG0BCWHS7C", "dateTime": 1519403813417}, {"current_trial": 95, "trialdata": {"rt": -1, "trial_type": "single-stim", "word": "cashier", "stimulus": "<p id=\"stim\">CASHIER</p>", "conditions": [24, 800, "v", 24000], "internal_node_id": "0.0-68.0", "trial": 2, "time_elapsed": 941330, "serialpos": 6, "key_press": -1, "wordID": 253, "type": "PRES_VIS", "trial_index": 95}, "uniqueid": "MTK2810:354P56DE9LAIZO583Z3XLG0BCWHS7C", "dateTime": 1519403815368}, {"current_trial": 96, "trialdata": {"rt": -1, "trial_type": "single-stim", "word": "lily", "stimulus": "<p id=\"stim\">LILY</p>", "conditions": [24, 800, "v", 24000], "internal_node_id": "0.0-69.0", "trial": 2, "time_elapsed": 943132, "serialpos": 7, "key_press": -1, "wordID": 820, "type": "PRES_VIS", "trial_index": 96}, "uniqueid": "MTK2810:354P56DE9LAIZO583Z3XLG0BCWHS7C", "dateTime": 1519403817170}, {"current_trial": 97, "trialdata": {"rt": -1, "trial_type": "single-stim", "word": "pizza", "stimulus": "<p id=\"stim\">PIZZA</p>", "conditions": [24, 800, "v", 24000], "internal_node_id": "0.0-70.0", "trial": 2, "time_elapsed": 944979, "serialpos": 8, "key_press": -1, "wordID": 1078, "type": "PRES_VIS", "trial_index": 97}, "uniqueid": "MTK2810:354P56DE9LAIZO583Z3XLG0BCWHS7C", "dateTime": 1519403819016}, {"current_trial": 98, "trialdata": {"rt": -1, "trial_type": "single-stim", "word": "banquet", "stimulus": "<p id=\"stim\">BANQUET</p>", "conditions": [24, 800, "v", 24000], "internal_node_id": "0.0-71.0", "trial": 2, "time_elapsed": 946759, "serialpos": 9, "key_press": -1, "wordID": 85, "type": "PRES_VIS", "trial_index": 98}, "uniqueid": "MTK2810:354P56DE9LAIZO583Z3XLG0BCWHS7C", "dateTime": 1519403820796}, {"current_trial": 99, "trialdata": {"rt": -1, "trial_type": "single-stim", "word": "penguin", "stimulus": "<p id=\"stim\">PENGUIN</p>", "conditions": [24, 800, "v", 24000], "internal_node_id": "0.0-72.0", "trial": 2, "time_elapsed": 948746, "serialpos": 10, "key_press": -1, "wordID": 1043, "type": "PRES_VIS", "trial_index": 99}, "uniqueid": "MTK2810:354P56DE9LAIZO583Z3XLG0BCWHS7C", "dateTime": 1519403822783}, {"current_trial": 100, "trialdata": {"rt": -1, "trial_type": "single-stim", "word": "guitar", "stimulus": "<p id=\"stim\">GUITAR</p>", "conditions": [24, 800, "v", 24000], "internal_node_id": "0.0-73.0", "trial": 2, "time_elapsed": 950706, "serialpos": 11, "key_press": -1, "wordID": 669, "type": "PRES_VIS", "trial_index": 100}, "uniqueid": "MTK2810:354P56DE9LAIZO583Z3XLG0BCWHS7C", "dateTime": 1519403824743}, {"current_trial": 101, "trialdata": {"rt": -1, "trial_type": "single-stim", "word": "napkin", "stimulus": "<p id=\"stim\">NAPKIN</p>", "conditions": [24, 800, "v", 24000], "internal_node_id": "0.0-74.0", "trial": 2, "time_elapsed": 952663, "serialpos": 12, "key_press": -1, "wordID": 936, "type": "PRES_VIS", "trial_index": 101}, "uniqueid": "MTK2810:354P56DE9LAIZO583Z3XLG0BCWHS7C", "dateTime": 1519403826700}, {"current_trial": 102, "trialdata": {"rt": -1, "trial_type": "single-stim", "word": "grape", "stimulus": "<p id=\"stim\">GRAPE</p>", "conditions": [24, 800, "v", 24000], "internal_node_id": "0.0-75.0", "trial": 2, "time_elapsed": 954405, "serialpos": 13, "key_press": -1, "wordID": 653, "type": "PRES_VIS", "trial_index": 102}, "uniqueid": "MTK2810:354P56DE9LAIZO583Z3XLG0BCWHS7C", "dateTime": 1519403828443}, {"current_trial": 103, "trialdata": {"rt": -1, "trial_type": "single-stim", "word": "lodge", "stimulus": "<p id=\"stim\">LODGE</p>", "conditions": [24, 800, "v", 24000], "internal_node_id": "0.0-76.0", "trial": 2, "time_elapsed": 956194, "serialpos": 14, "key_press": -1, "wordID": 838, "type": "PRES_VIS", "trial_index": 103}, "uniqueid": "MTK2810:354P56DE9LAIZO583Z3XLG0BCWHS7C", "dateTime": 1519403830231}, {"current_trial": 104, "trialdata": {"rt": -1, "trial_type": "single-stim", "word": "france", "stimulus": "<p id=\"stim\">FRANCE</p>", "conditions": [24, 800, "v", 24000], "internal_node_id": "0.0-77.0", "trial": 2, "time_elapsed": 957863, "serialpos": 15, "key_press": -1, "wordID": 600, "type": "PRES_VIS", "trial_index": 104}, "uniqueid": "MTK2810:354P56DE9LAIZO583Z3XLG0BCWHS7C", "dateTime": 1519403831900}, {"current_trial": 105, "trialdata": {"rt": -1, "trial_type": "single-stim", "word": "crib", "stimulus": "<p id=\"stim\">CRIB</p>", "conditions": [24, 800, "v", 24000], "internal_node_id": "0.0-78.0", "trial": 2, "time_elapsed": 959769, "serialpos": 16, "key_press": -1, "wordID": 406, "type": "PRES_VIS", "trial_index": 105}, "uniqueid": "MTK2810:354P56DE9LAIZO583Z3XLG0BCWHS7C", "dateTime": 1519403833806}, {"current_trial": 106, "trialdata": {"rt": -1, "trial_type": "single-stim", "word": "bouquet", "stimulus": "<p id=\"stim\">BOUQUET</p>", "conditions": [24, 800, "v", 24000], "internal_node_id": "0.0-79.0", "trial": 2, "time_elapsed": 961490, "serialpos": 17, "key_press": -1, "wordID": 156, "type": "PRES_VIS", "trial_index": 106}, "uniqueid": "MTK2810:354P56DE9LAIZO583Z3XLG0BCWHS7C", "dateTime": 1519403835527}, {"current_trial": 107, "trialdata": {"rt": -1, "trial_type": "single-stim", "word": "message", "stimulus": "<p id=\"stim\">MESSAGE</p>", "conditions": [24, 800, "v", 24000], "internal_node_id": "0.0-80.0", "trial": 2, "time_elapsed": 963117, "serialpos": 18, "key_press": -1, "wordID": 887, "type": "PRES_VIS", "trial_index": 107}, "uniqueid": "MTK2810:354P56DE9LAIZO583Z3XLG0BCWHS7C", "dateTime": 1519403837154}, {"current_trial": 108, "trialdata": {"rt": -1, "trial_type": "single-stim", "word": "wardrobe", "stimulus": "<p id=\"stim\">WARDROBE</p>", "conditions": [24, 800, "v", 24000], "internal_node_id": "0.0-81.0", "trial": 2, "time_elapsed": 964850, "serialpos": 19, "key_press": -1, "wordID": 1586, "type": "PRES_VIS", "trial_index": 108}, "uniqueid": "MTK2810:354P56DE9LAIZO583Z3XLG0BCWHS7C", "dateTime": 1519403838887}, {"current_trial": 109, "trialdata": {"rt": -1, "trial_type": "single-stim", "word": "dress", "stimulus": "<p id=\"stim\">DRESS</p>", "conditions": [24, 800, "v", 24000], "internal_node_id": "0.0-82.0", "trial": 2, "time_elapsed": 966710, "serialpos": 20, "key_press": -1, "wordID": 494, "type": "PRES_VIS", "trial_index": 109}, "uniqueid": "MTK2810:354P56DE9LAIZO583Z3XLG0BCWHS7C", "dateTime": 1519403840747}, {"current_trial": 110, "trialdata": {"rt": -1, "trial_type": "single-stim", "word": "body", "stimulus": "<p id=\"stim\">BODY</p>", "conditions": [24, 800, "v", 24000], "internal_node_id": "0.0-83.0", "trial": 2, "time_elapsed": 968694, "serialpos": 21, "key_press": -1, "wordID": 144, "type": "PRES_VIS", "trial_index": 110}, "uniqueid": "MTK2810:354P56DE9LAIZO583Z3XLG0BCWHS7C", "dateTime": 1519403842731}, {"current_trial": 111, "trialdata": {"rt": -1, "trial_type": "single-stim", "word": "japan", "stimulus": "<p id=\"stim\">JAPAN</p>", "conditions": [24, 800, "v", 24000], "internal_node_id": "0.0-84.0", "trial": 2, "time_elapsed": 970535, "serialpos": 22, "key_press": -1, "wordID": 748, "type": "PRES_VIS", "trial_index": 111}, "uniqueid": "MTK2810:354P56DE9LAIZO583Z3XLG0BCWHS7C", "dateTime": 1519403844572}, {"current_trial": 112, "trialdata": {"rt": -1, "trial_type": "single-stim", "word": "cellar", "stimulus": "<p id=\"stim\">CELLAR</p>", "conditions": [24, 800, "v", 24000], "internal_node_id": "0.0-85.0", "trial": 2, "time_elapsed": 972231, "serialpos": 23, "key_press": -1, "wordID": 266, "type": "PRES_VIS", "trial_index": 112}, "uniqueid": "MTK2810:354P56DE9LAIZO583Z3XLG0BCWHS7C", "dateTime": 1519403846268}, {"current_trial": 113, "trialdata": {"rt": -1, "trial_type": "single-stim", "stimulus": "", "internal_node_id": "0.0-86.0-0.0", "time_elapsed": 974700, "key_press": -1, "type": "PRE_RECALL_DELAY", "trial_index": 113}, "uniqueid": "MTK2810:354P56DE9LAIZO583Z3XLG0BCWHS7C", "dateTime": 1519403848737}, {"current_trial": 114, "trialdata": {"rt": -1000, "trial_type": "single-audio", "stimulus": "/static/audio/400Hz.wav", "internal_node_id": "0.0-87.0", "time_elapsed": 975201, "key_press": -1, "type": "PRE_RECALL_ALERT", "trial_index": 114}, "uniqueid": "MTK2810:354P56DE9LAIZO583Z3XLG0BCWHS7C", "dateTime": 1519403849238}, {"current_trial": 115, "trialdata": {"rt": [6560, 9064, 11300, 12833, 18233, 20160, 24253, 25953, 31572, 38740, 48932], "recwords": ["dress", "body", "japan", "celler", "mattress", "hound", "leopard", "zebra", "grape", "crib", "pizza"], "key_times": [4198, 4370, 4538, 5009, 5134, 6560, 7085, 7290, 7692, 7760, 9064, 9740, 9871, 10100, 10238, 10344, 11300, 11701, 11838, 12042, 12170, 12257, 12335, 12833, 15914, 16060, 16402, 16952, 17142, 17242, 17438, 17574, 18233, 19406, 19550, 19784, 19902, 19980, 20160, 22210, 22332, 22456, 22629, 22754, 23151, 23562, 24253, 25026, 25226, 25510, 25738, 25882, 25953, 30777, 30988, 31221, 31376, 31458, 31572, 37170, 37800, 37872, 37932, 38469, 38576, 38740, 48062, 48261, 48489, 48621, 48801, 48932], "trial_type": "free-recall", "conditions": [24, 800, "v", 24000], "internal_node_id": "0.0-88.0-0.0", "key_presses": [68, 82, 69, 83, 83, 13, 66, 79, 68, 89, 13, 74, 65, 80, 65, 78, 13, 67, 69, 76, 76, 69, 82, 13, 77, 65, 84, 84, 82, 69, 83, 83, 13, 72, 79, 85, 78, 68, 13, 76, 69, 79, 80, 65, 82, 68, 13, 90, 69, 66, 82, 65, 13, 71, 82, 65, 80, 69, 13, 67, 82, 73, 80, 8, 66, 13, 80, 73, 90, 90, 65, 13], "trial": 2, "time_elapsed": 1035204, "type": "FREE_RECALL", "trial_index": 115}, "uniqueid": "MTK2810:354P56DE9LAIZO583Z3XLG0BCWHS7C", "dateTime": 1519403909244}, {"current_trial": 116, "trialdata": {"rt": 1832, "trial_type": "text", "internal_node_id": "0.0-89.0", "time_elapsed": 1039040, "key_press": 76, "type": "INSTRUCTIONS", "trial_index": 116}, "uniqueid": "MTK2810:354P56DE9LAIZO583Z3XLG0BCWHS7C", "dateTime": 1519403913077}, {"current_trial": 117, "trialdata": {"rt": [1253, 2920, 8768, 11972], "trial_type": "math-distractor", "key_times": [1058, 1253, 2402, 2533, 2920, 8498, 8621, 8768, 11393, 11488, 11972], "responses": ["5", "11", "22", "23"], "num2": [1, 4, 8, 9, 7], "num3": [1, 1, 6, 5, 5], "conditions": [24, 800, "v", 12000], "internal_node_id": "0.0-90.0", "key_presses": [101, 13, 97, 97, 13, 98, 98, 13, 98, 99, 13], "trial": 3, "time_elapsed": 1053043, "type": "DISTRACTOR", "trial_index": 117, "num1": [3, 6, 8, 9, 2]}, "uniqueid": "MTK2810:354P56DE9LAIZO583Z3XLG0BCWHS7C", "dateTime": 1519403927080}, {"current_trial": 118, "trialdata": {"rt": -1, "trial_type": "single-stim", "stimulus": "<p id=\"stim\">10</p>", "internal_node_id": "0.0-91.0-0.0", "time_elapsed": 1056045, "key_press": -1, "trial_index": 118}, "uniqueid": "MTK2810:354P56DE9LAIZO583Z3XLG0BCWHS7C", "dateTime": 1519403930082}, {"current_trial": 119, "trialdata": {"rt": -1, "trial_type": "single-stim", "stimulus": "<p id=\"stim\">9</p>", "internal_node_id": "0.0-91.0-1.0", "time_elapsed": 1057046, "key_press": -1, "trial_index": 119}, "uniqueid": "MTK2810:354P56DE9LAIZO583Z3XLG0BCWHS7C", "dateTime": 1519403931083}, {"current_trial": 120, "trialdata": {"rt": -1, "trial_type": "single-stim", "stimulus": "<p id=\"stim\">8</p>", "internal_node_id": "0.0-91.0-2.0", "time_elapsed": 1058047, "key_press": -1, "trial_index": 120}, "uniqueid": "MTK2810:354P56DE9LAIZO583Z3XLG0BCWHS7C", "dateTime": 1519403932085}, {"current_trial": 121, "trialdata": {"rt": -1, "trial_type": "single-stim", "stimulus": "<p id=\"stim\">7</p>", "internal_node_id": "0.0-91.0-3.0", "time_elapsed": 1059049, "key_press": -1, "trial_index": 121}, "uniqueid": "MTK2810:354P56DE9LAIZO583Z3XLG0BCWHS7C", "dateTime": 1519403933086}, {"current_trial": 122, "trialdata": {"rt": -1, "trial_type": "single-stim", "stimulus": "<p id=\"stim\">6</p>", "internal_node_id": "0.0-91.0-4.0", "time_elapsed": 1060050, "key_press": -1, "trial_index": 122}, "uniqueid": "MTK2810:354P56DE9LAIZO583Z3XLG0BCWHS7C", "dateTime": 1519403934087}, {"current_trial": 123, "trialdata": {"rt": -1, "trial_type": "single-stim", "stimulus": "<p id=\"stim\">5</p>", "internal_node_id": "0.0-91.0-5.0", "time_elapsed": 1061051, "key_press": -1, "trial_index": 123}, "uniqueid": "MTK2810:354P56DE9LAIZO583Z3XLG0BCWHS7C", "dateTime": 1519403935089}, {"current_trial": 124, "trialdata": {"rt": -1, "trial_type": "single-stim", "stimulus": "<p id=\"stim\">4</p>", "internal_node_id": "0.0-91.0-6.0", "time_elapsed": 1062052, "key_press": -1, "trial_index": 124}, "uniqueid": "MTK2810:354P56DE9LAIZO583Z3XLG0BCWHS7C", "dateTime": 1519403936089}, {"current_trial": 125, "trialdata": {"rt": -1, "trial_type": "single-stim", "stimulus": "<p id=\"stim\">3</p>", "internal_node_id": "0.0-91.0-7.0", "time_elapsed": 1063053, "key_press": -1, "trial_index": 125}, "uniqueid": "MTK2810:354P56DE9LAIZO583Z3XLG0BCWHS7C", "dateTime": 1519403937090}, {"current_trial": 126, "trialdata": {"rt": -1, "trial_type": "single-stim", "stimulus": "<p id=\"stim\">2</p>", "internal_node_id": "0.0-91.0-8.0", "time_elapsed": 1064055, "key_press": -1, "trial_index": 126}, "uniqueid": "MTK2810:354P56DE9LAIZO583Z3XLG0BCWHS7C", "dateTime": 1519403938092}, {"current_trial": 127, "trialdata": {"rt": -1, "trial_type": "single-stim", "stimulus": "<p id=\"stim\">1</p>", "internal_node_id": "0.0-91.0-9.0", "time_elapsed": 1065056, "key_press": -1, "trial_index": 127}, "uniqueid": "MTK2810:354P56DE9LAIZO583Z3XLG0BCWHS7C", "dateTime": 1519403939093}, {"current_trial": 128, "trialdata": {"rt": -1, "trial_type": "single-stim", "stimulus": "<p id=\"stim\">+</p>", "internal_node_id": "0.0-92.0-0.0", "time_elapsed": 1066557, "key_press": -1, "type": "FIXATION", "trial_index": 128}, "uniqueid": "MTK2810:354P56DE9LAIZO583Z3XLG0BCWHS7C", "dateTime": 1519403940594}, {"current_trial": 129, "trialdata": {"rt": -1, "trial_type": "single-stim", "word": "piston", "stimulus": "<p id=\"stim\">PISTON</p>", "conditions": [24, 800, "v", 12000], "internal_node_id": "0.0-93.0", "trial": 3, "time_elapsed": 1067358, "serialpos": 0, "key_press": -1, "wordID": 1075, "type": "PRES_VIS", "trial_index": 129}, "uniqueid": "MTK2810:354P56DE9LAIZO583Z3XLG0BCWHS7C", "dateTime": 1519403941395}, {"current_trial": 130, "trialdata": {"rt": -1, "trial_type": "single-stim", "word": "valve", "stimulus": "<p id=\"stim\">VALVE</p>", "conditions": [24, 800, "v", 12000], "internal_node_id": "0.0-94.0", "trial": 3, "time_elapsed": 1069128, "serialpos": 1, "key_press": -1, "wordID": 1545, "type": "PRES_VIS", "trial_index": 130}, "uniqueid": "MTK2810:354P56DE9LAIZO583Z3XLG0BCWHS7C", "dateTime": 1519403943165}, {"current_trial": 131, "trialdata": {"rt": -1, "trial_type": "single-stim", "word": "sunrise", "stimulus": "<p id=\"stim\">SUNRISE</p>", "conditions": [24, 800, "v", 12000], "internal_node_id": "0.0-95.0", "trial": 3, "time_elapsed": 1070954, "serialpos": 2, "key_press": -1, "wordID": 1406, "type": "PRES_VIS", "trial_index": 131}, "uniqueid": "MTK2810:354P56DE9LAIZO583Z3XLG0BCWHS7C", "dateTime": 1519403944991}, {"current_trial": 132, "trialdata": {"rt": -1, "trial_type": "single-stim", "word": "shoulder", "stimulus": "<p id=\"stim\">SHOULDER</p>", "conditions": [24, 800, "v", 12000], "internal_node_id": "0.0-96.0", "trial": 3, "time_elapsed": 1072571, "serialpos": 3, "key_press": -1, "wordID": 1293, "type": "PRES_VIS", "trial_index": 132}, "uniqueid": "MTK2810:354P56DE9LAIZO583Z3XLG0BCWHS7C", "dateTime": 1519403946608}, {"current_trial": 133, "trialdata": {"rt": -1, "trial_type": "single-stim", "word": "dustpan", "stimulus": "<p id=\"stim\">DUSTPAN</p>", "conditions": [24, 800, "v", 12000], "internal_node_id": "0.0-97.0", "trial": 3, "time_elapsed": 1074455, "serialpos": 4, "key_press": -1, "wordID": 508, "type": "PRES_VIS", "trial_index": 133}, "uniqueid": "MTK2810:354P56DE9LAIZO583Z3XLG0BCWHS7C", "dateTime": 1519403948492}, {"current_trial": 134, "trialdata": {"rt": -1, "trial_type": "single-stim", "word": "drill", "stimulus": "<p id=\"stim\">DRILL</p>", "conditions": [24, 800, "v", 12000], "internal_node_id": "0.0-98.0", "trial": 3, "time_elapsed": 1076343, "serialpos": 5, "key_press": -1, "wordID": 496, "type": "PRES_VIS", "trial_index": 134}, "uniqueid": "MTK2810:354P56DE9LAIZO583Z3XLG0BCWHS7C", "dateTime": 1519403950380}, {"current_trial": 135, "trialdata": {"rt": -1, "trial_type": "single-stim", "word": "boyfriend", "stimulus": "<p id=\"stim\">BOYFRIEND</p>", "conditions": [24, 800, "v", 12000], "internal_node_id": "0.0-99.0", "trial": 3, "time_elapsed": 1078149, "serialpos": 6, "key_press": -1, "wordID": 161, "type": "PRES_VIS", "trial_index": 135}, "uniqueid": "MTK2810:354P56DE9LAIZO583Z3XLG0BCWHS7C", "dateTime": 1519403952186}, {"current_trial": 136, "trialdata": {"rt": -1, "trial_type": "single-stim", "word": "wrist", "stimulus": "<p id=\"stim\">WRIST</p>", "conditions": [24, 800, "v", 12000], "internal_node_id": "0.0-100.0", "trial": 3, "time_elapsed": 1079778, "serialpos": 7, "key_press": -1, "wordID": 1625, "type": "PRES_VIS", "trial_index": 136}, "uniqueid": "MTK2810:354P56DE9LAIZO583Z3XLG0BCWHS7C", "dateTime": 1519403953815}, {"current_trial": 137, "trialdata": {"rt": -1, "trial_type": "single-stim", "word": "tuba", "stimulus": "<p id=\"stim\">TUBA</p>", "conditions": [24, 800, "v", 12000], "internal_node_id": "0.0-101.0", "trial": 3, "time_elapsed": 1081497, "serialpos": 8, "key_press": -1, "wordID": 1514, "type": "PRES_VIS", "trial_index": 137}, "uniqueid": "MTK2810:354P56DE9LAIZO583Z3XLG0BCWHS7C", "dateTime": 1519403955535}, {"current_trial": 138, "trialdata": {"rt": -1, "trial_type": "single-stim", "word": "bike", "stimulus": "<p id=\"stim\">BIKE</p>", "conditions": [24, 800, "v", 12000], "internal_node_id": "0.0-102.0", "trial": 3, "time_elapsed": 1083368, "serialpos": 9, "key_press": -1, "wordID": 124, "type": "PRES_VIS", "trial_index": 138}, "uniqueid": "MTK2810:354P56DE9LAIZO583Z3XLG0BCWHS7C", "dateTime": 1519403957405}, {"current_trial": 139, "trialdata": {"rt": -1, "trial_type": "single-stim", "word": "sculpture", "stimulus": "<p id=\"stim\">SCULPTURE</p>", "conditions": [24, 800, "v", 12000], "internal_node_id": "0.0-103.0", "trial": 3, "time_elapsed": 1085132, "serialpos": 10, "key_press": -1, "wordID": 1257, "type": "PRES_VIS", "trial_index": 139}, "uniqueid": "MTK2810:354P56DE9LAIZO583Z3XLG0BCWHS7C", "dateTime": 1519403959169}, {"current_trial": 140, "trialdata": {"rt": -1, "trial_type": "single-stim", "word": "student", "stimulus": "<p id=\"stim\">STUDENT</p>", "conditions": [24, 800, "v", 12000], "internal_node_id": "0.0-104.0", "trial": 3, "time_elapsed": 1086981, "serialpos": 11, "key_press": -1, "wordID": 1394, "type": "PRES_VIS", "trial_index": 140}, "uniqueid": "MTK2810:354P56DE9LAIZO583Z3XLG0BCWHS7C", "dateTime": 1519403961018}, {"current_trial": 141, "trialdata": {"rt": -1, "trial_type": "single-stim", "word": "cabbage", "stimulus": "<p id=\"stim\">CABBAGE</p>", "conditions": [24, 800, "v", 12000], "internal_node_id": "0.0-105.0", "trial": 3, "time_elapsed": 1088938, "serialpos": 12, "key_press": -1, "wordID": 209, "type": "PRES_VIS", "trial_index": 141}, "uniqueid": "MTK2810:354P56DE9LAIZO583Z3XLG0BCWHS7C", "dateTime": 1519403962976}, {"current_trial": 142, "trialdata": {"rt": -1, "trial_type": "single-stim", "word": "clam", "stimulus": "<p id=\"stim\">CLAM</p>", "conditions": [24, 800, "v", 12000], "internal_node_id": "0.0-106.0", "trial": 3, "time_elapsed": 1090640, "serialpos": 13, "key_press": -1, "wordID": 314, "type": "PRES_VIS", "trial_index": 142}, "uniqueid": "MTK2810:354P56DE9LAIZO583Z3XLG0BCWHS7C", "dateTime": 1519403964677}, {"current_trial": 143, "trialdata": {"rt": -1, "trial_type": "single-stim", "word": "beaver", "stimulus": "<p id=\"stim\">BEAVER</p>", "conditions": [24, 800, "v", 12000], "internal_node_id": "0.0-107.0", "trial": 3, "time_elapsed": 1092627, "serialpos": 14, "key_press": -1, "wordID": 108, "type": "PRES_VIS", "trial_index": 143}, "uniqueid": "MTK2810:354P56DE9LAIZO583Z3XLG0BCWHS7C", "dateTime": 1519403966664}, {"current_trial": 144, "trialdata": {"rt": -1, "trial_type": "single-stim", "word": "chipmunk", "stimulus": "<p id=\"stim\">CHIPMUNK</p>", "conditions": [24, 800, "v", 12000], "internal_node_id": "0.0-108.0", "trial": 3, "time_elapsed": 1094371, "serialpos": 15, "key_press": -1, "wordID": 303, "type": "PRES_VIS", "trial_index": 144}, "uniqueid": "MTK2810:354P56DE9LAIZO583Z3XLG0BCWHS7C", "dateTime": 1519403968408}, {"current_trial": 145, "trialdata": {"rt": -1, "trial_type": "single-stim", "word": "shortcake", "stimulus": "<p id=\"stim\">SHORTCAKE</p>", "conditions": [24, 800, "v", 12000], "internal_node_id": "0.0-109.0", "trial": 3, "time_elapsed": 1096298, "serialpos": 16, "key_press": -1, "wordID": 1291, "type": "PRES_VIS", "trial_index": 145}, "uniqueid": "MTK2810:354P56DE9LAIZO583Z3XLG0BCWHS7C", "dateTime": 1519403970335}, {"current_trial": 146, "trialdata": {"rt": -1, "trial_type": "single-stim", "word": "barrel", "stimulus": "<p id=\"stim\">BARREL</p>", "conditions": [24, 800, "v", 12000], "internal_node_id": "0.0-110.0", "trial": 3, "time_elapsed": 1097901, "serialpos": 17, "key_press": -1, "wordID": 90, "type": "PRES_VIS", "trial_index": 146}, "uniqueid": "MTK2810:354P56DE9LAIZO583Z3XLG0BCWHS7C", "dateTime": 1519403971938}, {"current_trial": 147, "trialdata": {"rt": -1, "trial_type": "single-stim", "word": "onion", "stimulus": "<p id=\"stim\">ONION</p>", "conditions": [24, 800, "v", 12000], "internal_node_id": "0.0-111.0", "trial": 3, "time_elapsed": 1099639, "serialpos": 18, "key_press": -1, "wordID": 976, "type": "PRES_VIS", "trial_index": 147}, "uniqueid": "MTK2810:354P56DE9LAIZO583Z3XLG0BCWHS7C", "dateTime": 1519403973676}, {"current_trial": 148, "trialdata": {"rt": -1, "trial_type": "single-stim", "word": "label", "stimulus": "<p id=\"stim\">LABEL</p>", "conditions": [24, 800, "v", 12000], "internal_node_id": "0.0-112.0", "trial": 3, "time_elapsed": 1101276, "serialpos": 19, "key_press": -1, "wordID": 789, "type": "PRES_VIS", "trial_index": 148}, "uniqueid": "MTK2810:354P56DE9LAIZO583Z3XLG0BCWHS7C", "dateTime": 1519403975313}, {"current_trial": 149, "trialdata": {"rt": -1, "trial_type": "single-stim", "word": "dime", "stimulus": "<p id=\"stim\">DIME</p>", "conditions": [24, 800, "v", 12000], "internal_node_id": "0.0-113.0", "trial": 3, "time_elapsed": 1103180, "serialpos": 20, "key_press": -1, "wordID": 465, "type": "PRES_VIS", "trial_index": 149}, "uniqueid": "MTK2810:354P56DE9LAIZO583Z3XLG0BCWHS7C", "dateTime": 1519403977217}, {"current_trial": 150, "trialdata": {"rt": -1, "trial_type": "single-stim", "word": "globe", "stimulus": "<p id=\"stim\">GLOBE</p>", "conditions": [24, 800, "v", 12000], "internal_node_id": "0.0-114.0", "trial": 3, "time_elapsed": 1104983, "serialpos": 21, "key_press": -1, "wordID": 640, "type": "PRES_VIS", "trial_index": 150}, "uniqueid": "MTK2810:354P56DE9LAIZO583Z3XLG0BCWHS7C", "dateTime": 1519403979020}, {"current_trial": 151, "trialdata": {"rt": -1, "trial_type": "single-stim", "word": "clock", "stimulus": "<p id=\"stim\">CLOCK</p>", "conditions": [24, 800, "v", 12000], "internal_node_id": "0.0-115.0", "trial": 3, "time_elapsed": 1106887, "serialpos": 22, "key_press": -1, "wordID": 324, "type": "PRES_VIS", "trial_index": 151}, "uniqueid": "MTK2810:354P56DE9LAIZO583Z3XLG0BCWHS7C", "dateTime": 1519403980924}, {"current_trial": 152, "trialdata": {"rt": -1, "trial_type": "single-stim", "word": "robin", "stimulus": "<p id=\"stim\">ROBIN</p>", "conditions": [24, 800, "v", 12000], "internal_node_id": "0.0-116.0", "trial": 3, "time_elapsed": 1108753, "serialpos": 23, "key_press": -1, "wordID": 1198, "type": "PRES_VIS", "trial_index": 152}, "uniqueid": "MTK2810:354P56DE9LAIZO583Z3XLG0BCWHS7C", "dateTime": 1519403982790}, {"current_trial": 153, "trialdata": {"rt": -1, "trial_type": "single-stim", "stimulus": "", "internal_node_id": "0.0-117.0-0.0", "time_elapsed": 1110973, "key_press": -1, "type": "PRE_RECALL_DELAY", "trial_index": 153}, "uniqueid": "MTK2810:354P56DE9LAIZO583Z3XLG0BCWHS7C", "dateTime": 1519403985010}, {"current_trial": 154, "trialdata": {"rt": -1000, "trial_type": "single-audio", "stimulus": "/static/audio/400Hz.wav", "internal_node_id": "0.0-118.0", "time_elapsed": 1111475, "key_press": -1, "type": "PRE_RECALL_ALERT", "trial_index": 154}, "uniqueid": "MTK2810:354P56DE9LAIZO583Z3XLG0BCWHS7C", "dateTime": 1519403985512}, {"current_trial": 155, "trialdata": {"rt": [1927, 3602, 4782, 6242, 8207, 13491, 14942, 17342, 20666, 22998, 24462, 27539, 46242, 50822, 55030], "recwords": ["dime", "globe", "clock", "robin", "wrist", "boyfriend", "tuba", "drill", "sunrise", "piston", "valve", "cabbage", "student", "bicycle", "sculpture"], "key_times": [1240, 1416, 1516, 1656, 1927, 2528, 2636, 2800, 2936, 3263, 3372, 3439, 3602, 4112, 4184, 4352, 4472, 4552, 4782, 5280, 5432, 5618, 5768, 5953, 6242, 7432, 7558, 7715, 7880, 7980, 8207, 8968, 9143, 9444, 9706, 9860, 10116, 10548, 10892, 11024, 11816, 11940, 12024, 12136, 13491, 14186, 14378, 14498, 14815, 14942, 15552, 16232, 16347, 16560, 16702, 17342, 17856, 18296, 18390, 18514, 18896, 19028, 19456, 19584, 19828, 19959, 20083, 20666, 22075, 22267, 22395, 22540, 22618, 22691, 22998, 23628, 23820, 23914, 24183, 24272, 24462, 25564, 25875, 26008, 26115, 26288, 26660, 26880, 27308, 27386, 27539, 44576, 44960, 45219, 45443, 45588, 45674, 45908, 46242, 47820, 48252, 49468, 50068, 50492, 50580, 50688, 50822, 51703, 52172, 52491, 53428, 53688, 53935, 54202, 54808, 54882, 55030], "trial_type": "free-recall", "conditions": [24, 800, "v", 12000], "internal_node_id": "0.0-119.0-0.0", "key_presses": [68, 73, 77, 69, 13, 71, 76, 79, 86, 8, 66, 69, 13, 67, 76, 79, 67, 75, 13, 82, 79, 66, 73, 78, 13, 87, 82, 73, 83, 84, 13, 66, 79, 89, 70, 73, 78, 8, 8, 82, 73, 69, 78, 68, 13, 84, 85, 66, 65, 13, 68, 82, 73, 76, 76, 13, 83, 85, 78, 82, 65, 73, 8, 8, 73, 83, 69, 13, 80, 73, 83, 84, 79, 78, 13, 86, 65, 76, 86, 69, 13, 66, 8, 67, 65, 66, 66, 65, 71, 69, 13, 83, 84, 85, 68, 69, 78, 84, 13, 66, 73, 67, 89, 67, 76, 69, 13, 83, 67, 85, 76, 80, 84, 85, 82, 69, 13], "trial": 3, "time_elapsed": 1171479, "type": "FREE_RECALL", "trial_index": 155}, "uniqueid": "MTK2810:354P56DE9LAIZO583Z3XLG0BCWHS7C", "dateTime": 1519404045520}, {"current_trial": 156, "trialdata": {"rt": 2257, "trial_type": "text", "internal_node_id": "0.0-120.0", "time_elapsed": 1175740, "key_press": 68, "type": "INSTRUCTIONS", "trial_index": 156}, "uniqueid": "MTK2810:354P56DE9LAIZO583Z3XLG0BCWHS7C", "dateTime": 1519404049777}, {"current_trial": 157, "trialdata": {"rt": [4464, 8313, 9536, 13265, 16048, 18720, 20845, 22772], "trial_type": "math-distractor", "key_times": [3940, 4020, 4464, 7974, 8065, 8313, 9326, 9443, 9536, 11924, 12842, 12970, 13062, 13265, 15754, 15881, 16048, 18154, 18246, 18720, 20542, 20629, 20845, 22526, 22601, 22772], "responses": ["19", "21", "11", "17", "14", "18", "19", "12"], "num2": [8, 8, 3, 6, 7, 7, 8, 5, 4], "num3": [5, 6, 1, 3, 2, 6, 7, 3, 3], "conditions": [24, 1600, "v", 24000], "internal_node_id": "0.0-121.0", "key_presses": [97, 105, 13, 98, 97, 13, 97, 97, 13, 103, 8, 97, 103, 13, 97, 100, 13, 97, 104, 13, 97, 105, 13, 97, 98, 13], "trial": 4, "time_elapsed": 1201743, "type": "DISTRACTOR", "trial_index": 157, "num1": [6, 7, 7, 8, 5, 6, 4, 4, 9]}, "uniqueid": "MTK2810:354P56DE9LAIZO583Z3XLG0BCWHS7C", "dateTime": 1519404075780}, {"current_trial": 158, "trialdata": {"rt": -1, "trial_type": "single-stim", "stimulus": "<p id=\"stim\">10</p>", "internal_node_id": "0.0-122.0-0.0", "time_elapsed": 1204744, "key_press": -1, "trial_index": 158}, "uniqueid": "MTK2810:354P56DE9LAIZO583Z3XLG0BCWHS7C", "dateTime": 1519404078782}, {"current_trial": 159, "trialdata": {"rt": -1, "trial_type": "single-stim", "stimulus": "<p id=\"stim\">9</p>", "internal_node_id": "0.0-122.0-1.0", "time_elapsed": 1205746, "key_press": -1, "trial_index": 159}, "uniqueid": "MTK2810:354P56DE9LAIZO583Z3XLG0BCWHS7C", "dateTime": 1519404079783}, {"current_trial": 160, "trialdata": {"rt": -1, "trial_type": "single-stim", "stimulus": "<p id=\"stim\">8</p>", "internal_node_id": "0.0-122.0-2.0", "time_elapsed": 1206747, "key_press": -1, "trial_index": 160}, "uniqueid": "MTK2810:354P56DE9LAIZO583Z3XLG0BCWHS7C", "dateTime": 1519404080784}, {"current_trial": 161, "trialdata": {"rt": -1, "trial_type": "single-stim", "stimulus": "<p id=\"stim\">7</p>", "internal_node_id": "0.0-122.0-3.0", "time_elapsed": 1207748, "key_press": -1, "trial_index": 161}, "uniqueid": "MTK2810:354P56DE9LAIZO583Z3XLG0BCWHS7C", "dateTime": 1519404081785}, {"current_trial": 162, "trialdata": {"rt": -1, "trial_type": "single-stim", "stimulus": "<p id=\"stim\">6</p>", "internal_node_id": "0.0-122.0-4.0", "time_elapsed": 1208749, "key_press": -1, "trial_index": 162}, "uniqueid": "MTK2810:354P56DE9LAIZO583Z3XLG0BCWHS7C", "dateTime": 1519404082786}, {"current_trial": 163, "trialdata": {"rt": -1, "trial_type": "single-stim", "stimulus": "<p id=\"stim\">5</p>", "internal_node_id": "0.0-122.0-5.0", "time_elapsed": 1209750, "key_press": -1, "trial_index": 163}, "uniqueid": "MTK2810:354P56DE9LAIZO583Z3XLG0BCWHS7C", "dateTime": 1519404083787}, {"current_trial": 164, "trialdata": {"rt": -1, "trial_type": "single-stim", "stimulus": "<p id=\"stim\">4</p>", "internal_node_id": "0.0-122.0-6.0", "time_elapsed": 1210751, "key_press": -1, "trial_index": 164}, "uniqueid": "MTK2810:354P56DE9LAIZO583Z3XLG0BCWHS7C", "dateTime": 1519404084789}, {"current_trial": 165, "trialdata": {"rt": -1, "trial_type": "single-stim", "stimulus": "<p id=\"stim\">3</p>", "internal_node_id": "0.0-122.0-7.0", "time_elapsed": 1211753, "key_press": -1, "trial_index": 165}, "uniqueid": "MTK2810:354P56DE9LAIZO583Z3XLG0BCWHS7C", "dateTime": 1519404085791}, {"current_trial": 166, "trialdata": {"rt": -1, "trial_type": "single-stim", "stimulus": "<p id=\"stim\">2</p>", "internal_node_id": "0.0-122.0-8.0", "time_elapsed": 1212755, "key_press": -1, "trial_index": 166}, "uniqueid": "MTK2810:354P56DE9LAIZO583Z3XLG0BCWHS7C", "dateTime": 1519404086792}, {"current_trial": 167, "trialdata": {"rt": -1, "trial_type": "single-stim", "stimulus": "<p id=\"stim\">1</p>", "internal_node_id": "0.0-122.0-9.0", "time_elapsed": 1213756, "key_press": -1, "trial_index": 167}, "uniqueid": "MTK2810:354P56DE9LAIZO583Z3XLG0BCWHS7C", "dateTime": 1519404087793}, {"current_trial": 168, "trialdata": {"rt": -1, "trial_type": "single-stim", "stimulus": "<p id=\"stim\">+</p>", "internal_node_id": "0.0-123.0-0.0", "time_elapsed": 1215257, "key_press": -1, "type": "FIXATION", "trial_index": 168}, "uniqueid": "MTK2810:354P56DE9LAIZO583Z3XLG0BCWHS7C", "dateTime": 1519404089294}, {"current_trial": 169, "trialdata": {"rt": -1, "trial_type": "single-stim", "word": "glove", "stimulus": "<p id=\"stim\">GLOVE</p>", "conditions": [24, 1600, "v", 24000], "internal_node_id": "0.0-124.0", "trial": 4, "time_elapsed": 1216857, "serialpos": 0, "key_press": -1, "wordID": 641, "type": "PRES_VIS", "trial_index": 169}, "uniqueid": "MTK2810:354P56DE9LAIZO583Z3XLG0BCWHS7C", "dateTime": 1519404090894}, {"current_trial": 170, "trialdata": {"rt": -1, "trial_type": "single-stim", "word": "permit", "stimulus": "<p id=\"stim\">PERMIT</p>", "conditions": [24, 1600, "v", 24000], "internal_node_id": "0.0-125.0", "trial": 4, "time_elapsed": 1219501, "serialpos": 1, "key_press": -1, "wordID": 1050, "type": "PRES_VIS", "trial_index": 170}, "uniqueid": "MTK2810:354P56DE9LAIZO583Z3XLG0BCWHS7C", "dateTime": 1519404093538}, {"current_trial": 171, "trialdata": {"rt": -1, "trial_type": "single-stim", "word": "mars", "stimulus": "<p id=\"stim\">MARS</p>", "conditions": [24, 1600, "v", 24000], "internal_node_id": "0.0-126.0", "trial": 4, "time_elapsed": 1222093, "serialpos": 2, "key_press": -1, "wordID": 872, "type": "PRES_VIS", "trial_index": 171}, "uniqueid": "MTK2810:354P56DE9LAIZO583Z3XLG0BCWHS7C", "dateTime": 1519404096130}, {"current_trial": 172, "trialdata": {"rt": -1, "trial_type": "single-stim", "word": "tart", "stimulus": "<p id=\"stim\">TART</p>", "conditions": [24, 1600, "v", 24000], "internal_node_id": "0.0-127.0", "trial": 4, "time_elapsed": 1224716, "serialpos": 3, "key_press": -1, "wordID": 1435, "type": "PRES_VIS", "trial_index": 172}, "uniqueid": "MTK2810:354P56DE9LAIZO583Z3XLG0BCWHS7C", "dateTime": 1519404098753}, {"current_trial": 173, "trialdata": {"rt": -1, "trial_type": "single-stim", "word": "toaster", "stimulus": "<p id=\"stim\">TOASTER</p>", "conditions": [24, 1600, "v", 24000], "internal_node_id": "0.0-128.0", "trial": 4, "time_elapsed": 1227394, "serialpos": 4, "key_press": -1, "wordID": 1471, "type": "PRES_VIS", "trial_index": 173}, "uniqueid": "MTK2810:354P56DE9LAIZO583Z3XLG0BCWHS7C", "dateTime": 1519404101432}, {"current_trial": 174, "trialdata": {"rt": -1, "trial_type": "single-stim", "word": "tutu", "stimulus": "<p id=\"stim\">TUTU</p>", "conditions": [24, 1600, "v", 24000], "internal_node_id": "0.0-129.0", "trial": 4, "time_elapsed": 1230083, "serialpos": 5, "key_press": -1, "wordID": 1523, "type": "PRES_VIS", "trial_index": 174}, "uniqueid": "MTK2810:354P56DE9LAIZO583Z3XLG0BCWHS7C", "dateTime": 1519404104120}, {"current_trial": 175, "trialdata": {"rt": -1, "trial_type": "single-stim", "word": "snail", "stimulus": "<p id=\"stim\">SNAIL</p>", "conditions": [24, 1600, "v", 24000], "internal_node_id": "0.0-130.0", "trial": 4, "time_elapsed": 1232708, "serialpos": 6, "key_press": -1, "wordID": 1331, "type": "PRES_VIS", "trial_index": 175}, "uniqueid": "MTK2810:354P56DE9LAIZO583Z3XLG0BCWHS7C", "dateTime": 1519404106745}, {"current_trial": 176, "trialdata": {"rt": -1, "trial_type": "single-stim", "word": "lizard", "stimulus": "<p id=\"stim\">LIZARD</p>", "conditions": [24, 1600, "v", 24000], "internal_node_id": "0.0-131.0", "trial": 4, "time_elapsed": 1235137, "serialpos": 7, "key_press": -1, "wordID": 833, "type": "PRES_VIS", "trial_index": 176}, "uniqueid": "MTK2810:354P56DE9LAIZO583Z3XLG0BCWHS7C", "dateTime": 1519404109175}, {"current_trial": 177, "trialdata": {"rt": -1, "trial_type": "single-stim", "word": "softball", "stimulus": "<p id=\"stim\">SOFTBALL</p>", "conditions": [24, 1600, "v", 24000], "internal_node_id": "0.0-132.0", "trial": 4, "time_elapsed": 1237761, "serialpos": 8, "key_press": -1, "wordID": 1342, "type": "PRES_VIS", "trial_index": 177}, "uniqueid": "MTK2810:354P56DE9LAIZO583Z3XLG0BCWHS7C", "dateTime": 1519404111798}, {"current_trial": 178, "trialdata": {"rt": -1, "trial_type": "single-stim", "word": "nightgown", "stimulus": "<p id=\"stim\">NIGHTGOWN</p>", "conditions": [24, 1600, "v", 24000], "internal_node_id": "0.0-133.0", "trial": 4, "time_elapsed": 1240560, "serialpos": 9, "key_press": -1, "wordID": 952, "type": "PRES_VIS", "trial_index": 178}, "uniqueid": "MTK2810:354P56DE9LAIZO583Z3XLG0BCWHS7C", "dateTime": 1519404114597}, {"current_trial": 179, "trialdata": {"rt": -1, "trial_type": "single-stim", "word": "maple", "stimulus": "<p id=\"stim\">MAPLE</p>", "conditions": [24, 1600, "v", 24000], "internal_node_id": "0.0-134.0", "trial": 4, "time_elapsed": 1243035, "serialpos": 10, "key_press": -1, "wordID": 865, "type": "PRES_VIS", "trial_index": 179}, "uniqueid": "MTK2810:354P56DE9LAIZO583Z3XLG0BCWHS7C", "dateTime": 1519404117072}, {"current_trial": 180, "trialdata": {"rt": -1, "trial_type": "single-stim", "word": "juggler", "stimulus": "<p id=\"stim\">JUGGLER</p>", "conditions": [24, 1600, "v", 24000], "internal_node_id": "0.0-135.0", "trial": 4, "time_elapsed": 1245466, "serialpos": 11, "key_press": -1, "wordID": 762, "type": "PRES_VIS", "trial_index": 180}, "uniqueid": "MTK2810:354P56DE9LAIZO583Z3XLG0BCWHS7C", "dateTime": 1519404119504}, {"current_trial": 181, "trialdata": {"rt": -1, "trial_type": "single-stim", "word": "garlic", "stimulus": "<p id=\"stim\">GARLIC</p>", "conditions": [24, 1600, "v", 24000], "internal_node_id": "0.0-136.0", "trial": 4, "time_elapsed": 1247876, "serialpos": 12, "key_press": -1, "wordID": 623, "type": "PRES_VIS", "trial_index": 181}, "uniqueid": "MTK2810:354P56DE9LAIZO583Z3XLG0BCWHS7C", "dateTime": 1519404121913}, {"current_trial": 182, "trialdata": {"rt": -1, "trial_type": "single-stim", "word": "jury", "stimulus": "<p id=\"stim\">JURY</p>", "conditions": [24, 1600, "v", 24000], "internal_node_id": "0.0-137.0", "trial": 4, "time_elapsed": 1250567, "serialpos": 13, "key_press": -1, "wordID": 765, "type": "PRES_VIS", "trial_index": 182}, "uniqueid": "MTK2810:354P56DE9LAIZO583Z3XLG0BCWHS7C", "dateTime": 1519404124605}, {"current_trial": 183, "trialdata": {"rt": -1, "trial_type": "single-stim", "word": "airport", "stimulus": "<p id=\"stim\">AIRPORT</p>", "conditions": [24, 1600, "v", 24000], "internal_node_id": "0.0-138.0", "trial": 4, "time_elapsed": 1253035, "serialpos": 14, "key_press": -1, "wordID": 12, "type": "PRES_VIS", "trial_index": 183}, "uniqueid": "MTK2810:354P56DE9LAIZO583Z3XLG0BCWHS7C", "dateTime": 1519404127072}, {"current_trial": 184, "trialdata": {"rt": -1, "trial_type": "single-stim", "word": "plaza", "stimulus": "<p id=\"stim\">PLAZA</p>", "conditions": [24, 1600, "v", 24000], "internal_node_id": "0.0-139.0", "trial": 4, "time_elapsed": 1255479, "serialpos": 15, "key_press": -1, "wordID": 1087, "type": "PRES_VIS", "trial_index": 184}, "uniqueid": "MTK2810:354P56DE9LAIZO583Z3XLG0BCWHS7C", "dateTime": 1519404129516}, {"current_trial": 185, "trialdata": {"rt": -1, "trial_type": "single-stim", "word": "receipt", "stimulus": "<p id=\"stim\">RECEIPT</p>", "conditions": [24, 1600, "v", 24000], "internal_node_id": "0.0-140.0", "trial": 4, "time_elapsed": 1258170, "serialpos": 16, "key_press": -1, "wordID": 1172, "type": "PRES_VIS", "trial_index": 185}, "uniqueid": "MTK2810:354P56DE9LAIZO583Z3XLG0BCWHS7C", "dateTime": 1519404132208}, {"current_trial": 186, "trialdata": {"rt": -1, "trial_type": "single-stim", "word": "judge", "stimulus": "<p id=\"stim\">JUDGE</p>", "conditions": [24, 1600, "v", 24000], "internal_node_id": "0.0-141.0", "trial": 4, "time_elapsed": 1260644, "serialpos": 17, "key_press": -1, "wordID": 760, "type": "PRES_VIS", "trial_index": 186}, "uniqueid": "MTK2810:354P56DE9LAIZO583Z3XLG0BCWHS7C", "dateTime": 1519404134682}, {"current_trial": 187, "trialdata": {"rt": -1, "trial_type": "single-stim", "word": "flag", "stimulus": "<p id=\"stim\">FLAG</p>", "conditions": [24, 1600, "v", 24000], "internal_node_id": "0.0-142.0", "trial": 4, "time_elapsed": 1263179, "serialpos": 18, "key_press": -1, "wordID": 572, "type": "PRES_VIS", "trial_index": 187}, "uniqueid": "MTK2810:354P56DE9LAIZO583Z3XLG0BCWHS7C", "dateTime": 1519404137217}, {"current_trial": 188, "trialdata": {"rt": -1, "trial_type": "single-stim", "word": "costume", "stimulus": "<p id=\"stim\">COSTUME</p>", "conditions": [24, 1600, "v", 24000], "internal_node_id": "0.0-143.0", "trial": 4, "time_elapsed": 1265926, "serialpos": 19, "key_press": -1, "wordID": 382, "type": "PRES_VIS", "trial_index": 188}, "uniqueid": "MTK2810:354P56DE9LAIZO583Z3XLG0BCWHS7C", "dateTime": 1519404139963}, {"current_trial": 189, "trialdata": {"rt": -1, "trial_type": "single-stim", "word": "scarecrow", "stimulus": "<p id=\"stim\">SCARECROW</p>", "conditions": [24, 1600, "v", 24000], "internal_node_id": "0.0-144.0", "trial": 4, "time_elapsed": 1268655, "serialpos": 20, "key_press": -1, "wordID": 1244, "type": "PRES_VIS", "trial_index": 189}, "uniqueid": "MTK2810:354P56DE9LAIZO583Z3XLG0BCWHS7C", "dateTime": 1519404142692}, {"current_trial": 190, "trialdata": {"rt": -1, "trial_type": "single-stim", "word": "gift", "stimulus": "<p id=\"stim\">GIFT</p>", "conditions": [24, 1600, "v", 24000], "internal_node_id": "0.0-145.0", "trial": 4, "time_elapsed": 1271076, "serialpos": 21, "key_press": -1, "wordID": 634, "type": "PRES_VIS", "trial_index": 190}, "uniqueid": "MTK2810:354P56DE9LAIZO583Z3XLG0BCWHS7C", "dateTime": 1519404145113}, {"current_trial": 191, "trialdata": {"rt": -1, "trial_type": "single-stim", "word": "fungus", "stimulus": "<p id=\"stim\">FUNGUS</p>", "conditions": [24, 1600, "v", 24000], "internal_node_id": "0.0-146.0", "trial": 4, "time_elapsed": 1273758, "serialpos": 22, "key_press": -1, "wordID": 613, "type": "PRES_VIS", "trial_index": 191}, "uniqueid": "MTK2810:354P56DE9LAIZO583Z3XLG0BCWHS7C", "dateTime": 1519404147795}, {"current_trial": 192, "trialdata": {"rt": -1, "trial_type": "single-stim", "word": "carrot", "stimulus": "<p id=\"stim\">CARROT</p>", "conditions": [24, 1600, "v", 24000], "internal_node_id": "0.0-147.0", "trial": 4, "time_elapsed": 1276472, "serialpos": 23, "key_press": -1, "wordID": 248, "type": "PRES_VIS", "trial_index": 192}, "uniqueid": "MTK2810:354P56DE9LAIZO583Z3XLG0BCWHS7C", "dateTime": 1519404150509}, {"current_trial": 193, "trialdata": {"rt": -1, "trial_type": "single-stim", "stimulus": "", "internal_node_id": "0.0-148.0-0.0", "time_elapsed": 1279000, "key_press": -1, "type": "PRE_RECALL_DELAY", "trial_index": 193}, "uniqueid": "MTK2810:354P56DE9LAIZO583Z3XLG0BCWHS7C", "dateTime": 1519404153038}, {"current_trial": 194, "trialdata": {"rt": -1000, "trial_type": "single-audio", "stimulus": "/static/audio/400Hz.wav", "internal_node_id": "0.0-149.0", "time_elapsed": 1279502, "key_press": -1, "type": "PRE_RECALL_ALERT", "trial_index": 194}, "uniqueid": "MTK2810:354P56DE9LAIZO583Z3XLG0BCWHS7C", "dateTime": 1519404153539}, {"current_trial": 195, "trialdata": {"rt": [1661, 3013, 4456, 5968, 7597, 9113, 11692, 14144, 15885, 17477, 19801, 24728, 28576, 30488, 57612, 58856], "recwords": ["fungus", "snail", "carrot", "maple", "flag", "judge", "jury", "toaster", "tart", "tutu", "glove", "permit", "receipt", "gift", "airport", "plaze"], "key_times": [729, 878, 954, 1106, 1194, 1370, 1661, 2030, 2310, 2482, 2557, 2738, 3013, 3558, 3725, 3878, 4010, 4144, 4258, 4456, 5142, 5241, 5418, 5518, 5678, 5968, 6830, 6946, 7050, 7282, 7597, 8290, 8442, 8614, 8826, 8905, 9113, 9770, 9910, 10190, 10261, 11692, 12890, 13046, 13180, 13362, 13522, 13670, 13766, 14144, 15074, 15245, 15326, 15510, 15885, 16474, 16622, 16737, 17217, 17477, 18130, 18233, 18442, 18577, 18678, 19801, 23254, 23442, 23534, 23870, 24050, 24194, 24728, 25746, 25864, 26094, 26218, 26370, 27274, 27688, 27954, 28066, 28576, 29250, 29402, 29573, 30408, 30488, 56265, 56492, 56698, 56945, 57117, 57345, 57509, 57612, 58214, 58277, 58357, 58553, 58732, 58856], "trial_type": "free-recall", "conditions": [24, 1600, "v", 24000], "internal_node_id": "0.0-150.0-0.0", "key_presses": [70, 85, 78, 71, 85, 83, 13, 83, 78, 65, 73, 76, 13, 67, 65, 82, 82, 79, 84, 13, 77, 65, 80, 76, 69, 13, 70, 76, 65, 71, 13, 74, 85, 68, 71, 69, 13, 74, 85, 82, 89, 13, 84, 79, 65, 83, 84, 69, 82, 13, 84, 65, 82, 84, 13, 84, 85, 84, 85, 13, 71, 76, 79, 86, 69, 13, 80, 69, 82, 77, 73, 84, 13, 82, 69, 67, 69, 79, 8, 73, 80, 84, 13, 71, 73, 70, 84, 13, 65, 73, 82, 80, 79, 82, 84, 13, 80, 76, 65, 90, 69, 13], "trial": 4, "time_elapsed": 1339503, "type": "FREE_RECALL", "trial_index": 195}, "uniqueid": "MTK2810:354P56DE9LAIZO583Z3XLG0BCWHS7C", "dateTime": 1519404213545}, {"current_trial": 196, "trialdata": {"rt": 911, "trial_type": "text", "internal_node_id": "0.0-151.0", "time_elapsed": 1342420, "key_press": 78, "type": "INSTRUCTIONS", "trial_index": 196}, "uniqueid": "MTK2810:354P56DE9LAIZO583Z3XLG0BCWHS7C", "dateTime": 1519404216457}, {"current_trial": 197, "trialdata": {"rt": [1943, 3899, 6960, 8592, 13051, 14340, 15883, 17531, 18943, 20687, 23032], "trial_type": "math-distractor", "key_times": [1692, 1732, 1943, 3417, 3549, 3899, 6496, 6589, 6960, 8389, 8592, 12695, 12817, 13051, 14132, 14340, 15659, 15745, 15883, 17260, 17367, 17531, 18737, 18943, 20425, 20515, 20687, 22081, 22228, 23032], "responses": ["18", "13", "20", "9", "20", "4", "12", "14", "9", "12", "12"], "num2": [4, 3, 4, 2, 5, 2, 3, 4, 3, 6, 9, 6], "num3": [6, 2, 9, 2, 7, 1, 3, 9, 5, 3, 1, 6], "conditions": [12, 800, "v", 24000], "internal_node_id": "0.0-152.0", "key_presses": [97, 104, 13, 97, 99, 13, 98, 96, 13, 105, 13, 98, 96, 13, 100, 13, 97, 98, 13, 97, 100, 13, 105, 13, 97, 98, 13, 97, 98, 13], "trial": 5, "time_elapsed": 1368425, "type": "DISTRACTOR", "trial_index": 197, "num1": [8, 8, 7, 5, 8, 1, 6, 1, 1, 3, 2, 5]}, "uniqueid": "MTK2810:354P56DE9LAIZO583Z3XLG0BCWHS7C", "dateTime": 1519404242462}, {"current_trial": 198, "trialdata": {"rt": -1, "trial_type": "single-stim", "stimulus": "<p id=\"stim\">10</p>", "internal_node_id": "0.0-153.0-0.0", "time_elapsed": 1371427, "key_press": -1, "trial_index": 198}, "uniqueid": "MTK2810:354P56DE9LAIZO583Z3XLG0BCWHS7C", "dateTime": 1519404245464}, {"current_trial": 199, "trialdata": {"rt": -1, "trial_type": "single-stim", "stimulus": "<p id=\"stim\">9</p>", "internal_node_id": "0.0-153.0-1.0", "time_elapsed": 1372428, "key_press": -1, "trial_index": 199}, "uniqueid": "MTK2810:354P56DE9LAIZO583Z3XLG0BCWHS7C", "dateTime": 1519404246465}, {"current_trial": 200, "trialdata": {"rt": -1, "trial_type": "single-stim", "stimulus": "<p id=\"stim\">8</p>", "internal_node_id": "0.0-153.0-2.0", "time_elapsed": 1373429, "key_press": -1, "trial_index": 200}, "uniqueid": "MTK2810:354P56DE9LAIZO583Z3XLG0BCWHS7C", "dateTime": 1519404247466}, {"current_trial": 201, "trialdata": {"rt": -1, "trial_type": "single-stim", "stimulus": "<p id=\"stim\">7</p>", "internal_node_id": "0.0-153.0-3.0", "time_elapsed": 1374430, "key_press": -1, "trial_index": 201}, "uniqueid": "MTK2810:354P56DE9LAIZO583Z3XLG0BCWHS7C", "dateTime": 1519404248467}, {"current_trial": 202, "trialdata": {"rt": -1, "trial_type": "single-stim", "stimulus": "<p id=\"stim\">6</p>", "internal_node_id": "0.0-153.0-4.0", "time_elapsed": 1375431, "key_press": -1, "trial_index": 202}, "uniqueid": "MTK2810:354P56DE9LAIZO583Z3XLG0BCWHS7C", "dateTime": 1519404249468}, {"current_trial": 203, "trialdata": {"rt": -1, "trial_type": "single-stim", "stimulus": "<p id=\"stim\">5</p>", "internal_node_id": "0.0-153.0-5.0", "time_elapsed": 1376433, "key_press": -1, "trial_index": 203}, "uniqueid": "MTK2810:354P56DE9LAIZO583Z3XLG0BCWHS7C", "dateTime": 1519404250470}, {"current_trial": 204, "trialdata": {"rt": -1, "trial_type": "single-stim", "stimulus": "<p id=\"stim\">4</p>", "internal_node_id": "0.0-153.0-6.0", "time_elapsed": 1377434, "key_press": -1, "trial_index": 204}, "uniqueid": "MTK2810:354P56DE9LAIZO583Z3XLG0BCWHS7C", "dateTime": 1519404251471}, {"current_trial": 205, "trialdata": {"rt": -1, "trial_type": "single-stim", "stimulus": "<p id=\"stim\">3</p>", "internal_node_id": "0.0-153.0-7.0", "time_elapsed": 1378436, "key_press": -1, "trial_index": 205}, "uniqueid": "MTK2810:354P56DE9LAIZO583Z3XLG0BCWHS7C", "dateTime": 1519404252473}, {"current_trial": 206, "trialdata": {"rt": -1, "trial_type": "single-stim", "stimulus": "<p id=\"stim\">2</p>", "internal_node_id": "0.0-153.0-8.0", "time_elapsed": 1379437, "key_press": -1, "trial_index": 206}, "uniqueid": "MTK2810:354P56DE9LAIZO583Z3XLG0BCWHS7C", "dateTime": 1519404253474}, {"current_trial": 207, "trialdata": {"rt": -1, "trial_type": "single-stim", "stimulus": "<p id=\"stim\">1</p>", "internal_node_id": "0.0-153.0-9.0", "time_elapsed": 1380439, "key_press": -1, "trial_index": 207}, "uniqueid": "MTK2810:354P56DE9LAIZO583Z3XLG0BCWHS7C", "dateTime": 1519404254476}, {"current_trial": 208, "trialdata": {"rt": -1, "trial_type": "single-stim", "stimulus": "<p id=\"stim\">+</p>", "internal_node_id": "0.0-154.0-0.0", "time_elapsed": 1381941, "key_press": -1, "type": "FIXATION", "trial_index": 208}, "uniqueid": "MTK2810:354P56DE9LAIZO583Z3XLG0BCWHS7C", "dateTime": 1519404255978}, {"current_trial": 209, "trialdata": {"rt": -1, "trial_type": "single-stim", "word": "passage", "stimulus": "<p id=\"stim\">PASSAGE</p>", "conditions": [12, 800, "v", 24000], "internal_node_id": "0.0-155.0", "trial": 5, "time_elapsed": 1382742, "serialpos": 0, "key_press": -1, "wordID": 1018, "type": "PRES_VIS", "trial_index": 209}, "uniqueid": "MTK2810:354P56DE9LAIZO583Z3XLG0BCWHS7C", "dateTime": 1519404256779}, {"current_trial": 210, "trialdata": {"rt": -1, "trial_type": "single-stim", "word": "pocket", "stimulus": "<p id=\"stim\">POCKET</p>", "conditions": [12, 800, "v", 24000], "internal_node_id": "0.0-156.0", "trial": 5, "time_elapsed": 1384543, "serialpos": 1, "key_press": -1, "wordID": 1092, "type": "PRES_VIS", "trial_index": 210}, "uniqueid": "MTK2810:354P56DE9LAIZO583Z3XLG0BCWHS7C", "dateTime": 1519404258580}, {"current_trial": 211, "trialdata": {"rt": -1, "trial_type": "single-stim", "word": "briefcase", "stimulus": "<p id=\"stim\">BRIEFCASE</p>", "conditions": [12, 800, "v", 24000], "internal_node_id": "0.0-157.0", "trial": 5, "time_elapsed": 1386520, "serialpos": 2, "key_press": -1, "wordID": 174, "type": "PRES_VIS", "trial_index": 211}, "uniqueid": "MTK2810:354P56DE9LAIZO583Z3XLG0BCWHS7C", "dateTime": 1519404260557}, {"current_trial": 212, "trialdata": {"rt": -1, "trial_type": "single-stim", "word": "sausage", "stimulus": "<p id=\"stim\">SAUSAGE</p>", "conditions": [12, 800, "v", 24000], "internal_node_id": "0.0-158.0", "trial": 5, "time_elapsed": 1388377, "serialpos": 3, "key_press": -1, "wordID": 1237, "type": "PRES_VIS", "trial_index": 212}, "uniqueid": "MTK2810:354P56DE9LAIZO583Z3XLG0BCWHS7C", "dateTime": 1519404262414}, {"current_trial": 213, "trialdata": {"rt": -1, "trial_type": "single-stim", "word": "cook", "stimulus": "<p id=\"stim\">COOK</p>", "conditions": [12, 800, "v", 24000], "internal_node_id": "0.0-159.0", "trial": 5, "time_elapsed": 1390373, "serialpos": 4, "key_press": -1, "wordID": 371, "type": "PRES_VIS", "trial_index": 213}, "uniqueid": "MTK2810:354P56DE9LAIZO583Z3XLG0BCWHS7C", "dateTime": 1519404264411}, {"current_trial": 214, "trialdata": {"rt": -1, "trial_type": "single-stim", "word": "drink", "stimulus": "<p id=\"stim\">DRINK</p>", "conditions": [12, 800, "v", 24000], "internal_node_id": "0.0-160.0", "trial": 5, "time_elapsed": 1392065, "serialpos": 5, "key_press": -1, "wordID": 497, "type": "PRES_VIS", "trial_index": 214}, "uniqueid": "MTK2810:354P56DE9LAIZO583Z3XLG0BCWHS7C", "dateTime": 1519404266103}, {"current_trial": 215, "trialdata": {"rt": -1, "trial_type": "single-stim", "word": "taxi", "stimulus": "<p id=\"stim\">TAXI</p>", "conditions": [12, 800, "v", 24000], "internal_node_id": "0.0-161.0", "trial": 5, "time_elapsed": 1393943, "serialpos": 6, "key_press": -1, "wordID": 1437, "type": "PRES_VIS", "trial_index": 215}, "uniqueid": "MTK2810:354P56DE9LAIZO583Z3XLG0BCWHS7C", "dateTime": 1519404267980}, {"current_trial": 216, "trialdata": {"rt": -1, "trial_type": "single-stim", "word": "brandy", "stimulus": "<p id=\"stim\">BRANDY</p>", "conditions": [12, 800, "v", 24000], "internal_node_id": "0.0-162.0", "trial": 5, "time_elapsed": 1395867, "serialpos": 7, "key_press": -1, "wordID": 168, "type": "PRES_VIS", "trial_index": 216}, "uniqueid": "MTK2810:354P56DE9LAIZO583Z3XLG0BCWHS7C", "dateTime": 1519404269905}, {"current_trial": 217, "trialdata": {"rt": -1, "trial_type": "single-stim", "word": "grill", "stimulus": "<p id=\"stim\">GRILL</p>", "conditions": [12, 800, "v", 24000], "internal_node_id": "0.0-163.0", "trial": 5, "time_elapsed": 1397848, "serialpos": 8, "key_press": -1, "wordID": 660, "type": "PRES_VIS", "trial_index": 217}, "uniqueid": "MTK2810:354P56DE9LAIZO583Z3XLG0BCWHS7C", "dateTime": 1519404271885}, {"current_trial": 218, "trialdata": {"rt": -1, "trial_type": "single-stim", "word": "table", "stimulus": "<p id=\"stim\">TABLE</p>", "conditions": [12, 800, "v", 24000], "internal_node_id": "0.0-164.0", "trial": 5, "time_elapsed": 1399705, "serialpos": 9, "key_press": -1, "wordID": 1425, "type": "PRES_VIS", "trial_index": 218}, "uniqueid": "MTK2810:354P56DE9LAIZO583Z3XLG0BCWHS7C", "dateTime": 1519404273742}, {"current_trial": 219, "trialdata": {"rt": -1, "trial_type": "single-stim", "word": "treat", "stimulus": "<p id=\"stim\">TREAT</p>", "conditions": [12, 800, "v", 24000], "internal_node_id": "0.0-165.0", "trial": 5, "time_elapsed": 1401705, "serialpos": 10, "key_press": -1, "wordID": 1500, "type": "PRES_VIS", "trial_index": 219}, "uniqueid": "MTK2810:354P56DE9LAIZO583Z3XLG0BCWHS7C", "dateTime": 1519404275743}, {"current_trial": 220, "trialdata": {"rt": -1, "trial_type": "single-stim", "word": "sidewalk", "stimulus": "<p id=\"stim\">SIDEWALK</p>", "conditions": [12, 800, "v", 24000], "internal_node_id": "0.0-166.0", "trial": 5, "time_elapsed": 1403467, "serialpos": 11, "key_press": -1, "wordID": 1302, "type": "PRES_VIS", "trial_index": 220}, "uniqueid": "MTK2810:354P56DE9LAIZO583Z3XLG0BCWHS7C", "dateTime": 1519404277504}, {"current_trial": 221, "trialdata": {"rt": -1, "trial_type": "single-stim", "stimulus": "", "internal_node_id": "0.0-167.0-0.0", "time_elapsed": 1405708, "key_press": -1, "type": "PRE_RECALL_DELAY", "trial_index": 221}, "uniqueid": "MTK2810:354P56DE9LAIZO583Z3XLG0BCWHS7C", "dateTime": 1519404279745}, {"current_trial": 222, "trialdata": {"rt": -1000, "trial_type": "single-audio", "stimulus": "/static/audio/400Hz.wav", "internal_node_id": "0.0-168.0", "time_elapsed": 1406209, "key_press": -1, "type": "PRE_RECALL_ALERT", "trial_index": 222}, "uniqueid": "MTK2810:354P56DE9LAIZO583Z3XLG0BCWHS7C", "dateTime": 1519404280246}, {"current_trial": 223, "trialdata": {"rt": [2494, 3459, 6546, 10106, 12810, 15298, 17329, 19009, 21225, 23345, 25598], "recwords": ["treat", "table", "sidewalk", "luggage", "taxi", "grill", "sausage", "drink", "brandy", "taxi", "passage"], "key_times": [1107, 1229, 1455, 1651, 1955, 2494, 2771, 2907, 3103, 3263, 3349, 3459, 4283, 4970, 5150, 5215, 5470, 5663, 5787, 5903, 6546, 7815, 8058, 8257, 8385, 8570, 9475, 9538, 10106, 10683, 10839, 11271, 11479, 12319, 12555, 12810, 13751, 13918, 14051, 14997, 15142, 15298, 15690, 15962, 16146, 16347, 16519, 16655, 16755, 17329, 17771, 17967, 18107, 18199, 18379, 19009, 19655, 19931, 20107, 20227, 20423, 20509, 21225, 22103, 22287, 22667, 22774, 23345, 24087, 24435, 24651, 24799, 24959, 25114, 25214, 25598], "trial_type": "free-recall", "conditions": [12, 800, "v", 24000], "internal_node_id": "0.0-169.0-0.0", "key_presses": [84, 82, 69, 65, 84, 13, 84, 65, 66, 76, 69, 32, 83, 73, 68, 69, 87, 65, 76, 75, 13, 76, 85, 71, 71, 65, 71, 69, 13, 84, 65, 88, 69, 8, 73, 13, 71, 82, 73, 76, 76, 13, 83, 65, 85, 83, 65, 71, 69, 13, 68, 82, 73, 78, 75, 13, 66, 82, 65, 78, 68, 89, 13, 84, 65, 88, 73, 13, 80, 65, 83, 83, 65, 71, 69, 13], "trial": 5, "time_elapsed": 1466210, "type": "FREE_RECALL", "trial_index": 223}, "uniqueid": "MTK2810:354P56DE9LAIZO583Z3XLG0BCWHS7C", "dateTime": 1519404340253}, {"current_trial": 224, "trialdata": {"rt": 4007, "trial_type": "text", "internal_node_id": "0.0-170.0", "time_elapsed": 1472224, "key_press": 76, "type": "INSTRUCTIONS", "trial_index": 224}, "uniqueid": "MTK2810:354P56DE9LAIZO583Z3XLG0BCWHS7C", "dateTime": 1519404346262}, {"current_trial": 225, "trialdata": {"rt": [3023, 5579, 7703, 9980], "trial_type": "math-distractor", "key_times": [2593, 2764, 3023, 5093, 5188, 5579, 7144, 7356, 7703, 9577, 9725, 9980], "responses": ["14", "18", "13", "14"], "num2": [3, 7, 6, 3, 8], "num3": [4, 4, 4, 8, 8], "conditions": [12, 800, "v", 12000], "internal_node_id": "0.0-171.0", "key_presses": [97, 100, 13, 97, 104, 13, 97, 99, 13, 97, 100, 13], "trial": 6, "time_elapsed": 1486228, "type": "DISTRACTOR", "trial_index": 225, "num1": [7, 7, 3, 3, 3]}, "uniqueid": "MTK2810:354P56DE9LAIZO583Z3XLG0BCWHS7C", "dateTime": 1519404360265}, {"current_trial": 226, "trialdata": {"rt": -1, "trial_type": "single-stim", "stimulus": "<p id=\"stim\">10</p>", "internal_node_id": "0.0-172.0-0.0", "time_elapsed": 1489229, "key_press": -1, "trial_index": 226}, "uniqueid": "MTK2810:354P56DE9LAIZO583Z3XLG0BCWHS7C", "dateTime": 1519404363266}, {"current_trial": 227, "trialdata": {"rt": -1, "trial_type": "single-stim", "stimulus": "<p id=\"stim\">9</p>", "internal_node_id": "0.0-172.0-1.0", "time_elapsed": 1490230, "key_press": -1, "trial_index": 227}, "uniqueid": "MTK2810:354P56DE9LAIZO583Z3XLG0BCWHS7C", "dateTime": 1519404364267}, {"current_trial": 228, "trialdata": {"rt": -1, "trial_type": "single-stim", "stimulus": "<p id=\"stim\">8</p>", "internal_node_id": "0.0-172.0-2.0", "time_elapsed": 1491231, "key_press": -1, "trial_index": 228}, "uniqueid": "MTK2810:354P56DE9LAIZO583Z3XLG0BCWHS7C", "dateTime": 1519404365268}, {"current_trial": 229, "trialdata": {"rt": -1, "trial_type": "single-stim", "stimulus": "<p id=\"stim\">7</p>", "internal_node_id": "0.0-172.0-3.0", "time_elapsed": 1492232, "key_press": -1, "trial_index": 229}, "uniqueid": "MTK2810:354P56DE9LAIZO583Z3XLG0BCWHS7C", "dateTime": 1519404366269}, {"current_trial": 230, "trialdata": {"rt": -1, "trial_type": "single-stim", "stimulus": "<p id=\"stim\">6</p>", "internal_node_id": "0.0-172.0-4.0", "time_elapsed": 1493234, "key_press": -1, "trial_index": 230}, "uniqueid": "MTK2810:354P56DE9LAIZO583Z3XLG0BCWHS7C", "dateTime": 1519404367271}, {"current_trial": 231, "trialdata": {"rt": -1, "trial_type": "single-stim", "stimulus": "<p id=\"stim\">5</p>", "internal_node_id": "0.0-172.0-5.0", "time_elapsed": 1494234, "key_press": -1, "trial_index": 231}, "uniqueid": "MTK2810:354P56DE9LAIZO583Z3XLG0BCWHS7C", "dateTime": 1519404368271}, {"current_trial": 232, "trialdata": {"rt": -1, "trial_type": "single-stim", "stimulus": "<p id=\"stim\">4</p>", "internal_node_id": "0.0-172.0-6.0", "time_elapsed": 1495235, "key_press": -1, "trial_index": 232}, "uniqueid": "MTK2810:354P56DE9LAIZO583Z3XLG0BCWHS7C", "dateTime": 1519404369272}, {"current_trial": 233, "trialdata": {"rt": -1, "trial_type": "single-stim", "stimulus": "<p id=\"stim\">3</p>", "internal_node_id": "0.0-172.0-7.0", "time_elapsed": 1496236, "key_press": -1, "trial_index": 233}, "uniqueid": "MTK2810:354P56DE9LAIZO583Z3XLG0BCWHS7C", "dateTime": 1519404370273}, {"current_trial": 234, "trialdata": {"rt": -1, "trial_type": "single-stim", "stimulus": "<p id=\"stim\">2</p>", "internal_node_id": "0.0-172.0-8.0", "time_elapsed": 1497236, "key_press": -1, "trial_index": 234}, "uniqueid": "MTK2810:354P56DE9LAIZO583Z3XLG0BCWHS7C", "dateTime": 1519404371273}, {"current_trial": 235, "trialdata": {"rt": -1, "trial_type": "single-stim", "stimulus": "<p id=\"stim\">1</p>", "internal_node_id": "0.0-172.0-9.0", "time_elapsed": 1498238, "key_press": -1, "trial_index": 235}, "uniqueid": "MTK2810:354P56DE9LAIZO583Z3XLG0BCWHS7C", "dateTime": 1519404372275}, {"current_trial": 236, "trialdata": {"rt": -1, "trial_type": "single-stim", "stimulus": "<p id=\"stim\">+</p>", "internal_node_id": "0.0-173.0-0.0", "time_elapsed": 1499739, "key_press": -1, "type": "FIXATION", "trial_index": 236}, "uniqueid": "MTK2810:354P56DE9LAIZO583Z3XLG0BCWHS7C", "dateTime": 1519404373776}, {"current_trial": 237, "trialdata": {"rt": -1, "trial_type": "single-stim", "word": "sibling", "stimulus": "<p id=\"stim\">SIBLING</p>", "conditions": [12, 800, "v", 12000], "internal_node_id": "0.0-174.0", "trial": 6, "time_elapsed": 1500540, "serialpos": 0, "key_press": -1, "wordID": 1300, "type": "PRES_VIS", "trial_index": 237}, "uniqueid": "MTK2810:354P56DE9LAIZO583Z3XLG0BCWHS7C", "dateTime": 1519404374577}, {"current_trial": 238, "trialdata": {"rt": -1, "trial_type": "single-stim", "word": "rifle", "stimulus": "<p id=\"stim\">RIFLE</p>", "conditions": [12, 800, "v", 12000], "internal_node_id": "0.0-175.0", "trial": 6, "time_elapsed": 1502322, "serialpos": 1, "key_press": -1, "wordID": 1191, "type": "PRES_VIS", "trial_index": 238}, "uniqueid": "MTK2810:354P56DE9LAIZO583Z3XLG0BCWHS7C", "dateTime": 1519404376359}, {"current_trial": 239, "trialdata": {"rt": -1, "trial_type": "single-stim", "word": "valley", "stimulus": "<p id=\"stim\">VALLEY</p>", "conditions": [12, 800, "v", 12000], "internal_node_id": "0.0-176.0", "trial": 6, "time_elapsed": 1504029, "serialpos": 2, "key_press": -1, "wordID": 1544, "type": "PRES_VIS", "trial_index": 239}, "uniqueid": "MTK2810:354P56DE9LAIZO583Z3XLG0BCWHS7C", "dateTime": 1519404378066}, {"current_trial": 240, "trialdata": {"rt": -1, "trial_type": "single-stim", "word": "missile", "stimulus": "<p id=\"stim\">MISSILE</p>", "conditions": [12, 800, "v", 12000], "internal_node_id": "0.0-177.0", "trial": 6, "time_elapsed": 1505685, "serialpos": 3, "key_press": -1, "wordID": 899, "type": "PRES_VIS", "trial_index": 240}, "uniqueid": "MTK2810:354P56DE9LAIZO583Z3XLG0BCWHS7C", "dateTime": 1519404379722}, {"current_trial": 241, "trialdata": {"rt": -1, "trial_type": "single-stim", "word": "rocket", "stimulus": "<p id=\"stim\">ROCKET</p>", "conditions": [12, 800, "v", 12000], "internal_node_id": "0.0-178.0", "trial": 6, "time_elapsed": 1507330, "serialpos": 4, "key_press": -1, "wordID": 1201, "type": "PRES_VIS", "trial_index": 241}, "uniqueid": "MTK2810:354P56DE9LAIZO583Z3XLG0BCWHS7C", "dateTime": 1519404381368}, {"current_trial": 242, "trialdata": {"rt": -1, "trial_type": "single-stim", "word": "canyon", "stimulus": "<p id=\"stim\">CANYON</p>", "conditions": [12, 800, "v", 12000], "internal_node_id": "0.0-179.0", "trial": 6, "time_elapsed": 1509088, "serialpos": 5, "key_press": -1, "wordID": 234, "type": "PRES_VIS", "trial_index": 242}, "uniqueid": "MTK2810:354P56DE9LAIZO583Z3XLG0BCWHS7C", "dateTime": 1519404383125}, {"current_trial": 243, "trialdata": {"rt": -1, "trial_type": "single-stim", "word": "kidney", "stimulus": "<p id=\"stim\">KIDNEY</p>", "conditions": [12, 800, "v", 12000], "internal_node_id": "0.0-180.0", "trial": 6, "time_elapsed": 1510893, "serialpos": 6, "key_press": -1, "wordID": 775, "type": "PRES_VIS", "trial_index": 243}, "uniqueid": "MTK2810:354P56DE9LAIZO583Z3XLG0BCWHS7C", "dateTime": 1519404384930}, {"current_trial": 244, "trialdata": {"rt": -1, "trial_type": "single-stim", "word": "dragon", "stimulus": "<p id=\"stim\">DRAGON</p>", "conditions": [12, 800, "v", 12000], "internal_node_id": "0.0-181.0", "trial": 6, "time_elapsed": 1512573, "serialpos": 7, "key_press": -1, "wordID": 491, "type": "PRES_VIS", "trial_index": 244}, "uniqueid": "MTK2810:354P56DE9LAIZO583Z3XLG0BCWHS7C", "dateTime": 1519404386611}, {"current_trial": 245, "trialdata": {"rt": -1, "trial_type": "single-stim", "word": "flashlight", "stimulus": "<p id=\"stim\">FLASHLIGHT</p>", "conditions": [12, 800, "v", 12000], "internal_node_id": "0.0-182.0", "trial": 6, "time_elapsed": 1514334, "serialpos": 8, "key_press": -1, "wordID": 574, "type": "PRES_VIS", "trial_index": 245}, "uniqueid": "MTK2810:354P56DE9LAIZO583Z3XLG0BCWHS7C", "dateTime": 1519404388371}, {"current_trial": 246, "trialdata": {"rt": -1, "trial_type": "single-stim", "word": "princess", "stimulus": "<p id=\"stim\">PRINCESS</p>", "conditions": [12, 800, "v", 12000], "internal_node_id": "0.0-183.0", "trial": 6, "time_elapsed": 1516121, "serialpos": 9, "key_press": -1, "wordID": 1124, "type": "PRES_VIS", "trial_index": 246}, "uniqueid": "MTK2810:354P56DE9LAIZO583Z3XLG0BCWHS7C", "dateTime": 1519404390158}, {"current_trial": 247, "trialdata": {"rt": -