{"assignmentId": "34T446B1C1LOAWGSLESORWM6GG40C5", "workerId": "MTK2298", "questiondata": {"avail_screen_height": 738, "color_depth": 24, "screen_width": 1024, "pixel_depth": 24, "avail_screen_width": 1024, "screen_height": 768}, "bonus": 0, "hitId": "3IJ95K7NDXJ2PKQAY4L33F7E353NGN", "counterbalance": 532, "useragent": "Mozilla/5.0 (Windows NT 5.1) AppleWebKit/537.36 (KHTML, like Gecko) Chrome/49.0.2623.112 Safari/537.36", "eventdata": [{"eventtype": "initialized", "interval": 0, "value": null, "timestamp": 1516985215494}, {"eventtype": "window_resize", "interval": 0, "value": [1024, 723], "timestamp": 1516985215494}, {"eventtype": "focus", "interval": 127875, "value": "off", "timestamp": 1516985343369}, {"eventtype": "focus", "interval": 3866, "value": "on", "timestamp": 1516985347235}, {"eventtype": "focus", "interval": 2503, "value": "off", "timestamp": 1516985349738}, {"eventtype": "focus", "interval": 13338, "value": "on", "timestamp": 1516985363076}, {"eventtype": "focus", "interval": 1776829, "value": "off", "timestamp": 1516987139905}, {"eventtype": "focus", "interval": 11141, "value": "on", "timestamp": 1516987151046}], "data": [{"current_trial": 0, "trialdata": {"rt": 4534, "trial_type": "text", "internal_node_id": "0.0-0.0", "time_elapsed": 4534, "key_press": 32, "type": "INSTRUCTIONS", "trial_index": 0}, "uniqueid": "MTK2298:34T446B1C1LOAWGSLESORWM6GG40C5", "dateTime": 1516985264517}, {"current_trial": 1, "trialdata": {"rt": 25456, "trial_type": "text", "internal_node_id": "0.0-1.0", "time_elapsed": 29990, "key_press": 32, "type": "INSTRUCTIONS", "trial_index": 1}, "uniqueid": "MTK2298:34T446B1C1LOAWGSLESORWM6GG40C5", "dateTime": 1516985289973}, {"current_trial": 2, "trialdata": {"rt": [13628], "trial_type": "audio-test", "responses": ["ocean"], "internal_node_id": "0.0-2.0", "time_elapsed": 43650, "type": "AUDIO_TEST", "trial_index": 2}, "uniqueid": "MTK2298:34T446B1C1LOAWGSLESORWM6GG40C5", "dateTime": 1516985303633}, {"current_trial": 3, "trialdata": {"rt": [6100], "trial_type": "audio-test", "responses": ["crystal"], "internal_node_id": "0.0-3.0", "time_elapsed": 49768, "type": "AUDIO_TEST", "trial_index": 3}, "uniqueid": "MTK2298:34T446B1C1LOAWGSLESORWM6GG40C5", "dateTime": 1516985309766}, {"current_trial": 4, "trialdata": {"rt": [5482], "trial_type": "audio-test", "responses": ["spice"], "internal_node_id": "0.0-4.0", "time_elapsed": 55298, "type": "AUDIO_TEST", "trial_index": 4}, "uniqueid": "MTK2298:34T446B1C1LOAWGSLESORWM6GG40C5", "dateTime": 1516985315281}, {"current_trial": 5, "trialdata": {"rt": 101129, "trial_type": "survey-text", "responses": "{\"Q0\":\"2:30pm\",\"Q1\":\"11:30pm\",\"Q2\":\"3\"}", "internal_node_id": "0.0-5.0", "time_elapsed": 157170, "type": "SLEEP_SURVEY", "trial_index": 5}, "uniqueid": "MTK2298:34T446B1C1LOAWGSLESORWM6GG40C5", "dateTime": 1516985417153}, {"current_trial": 6, "trialdata": {"rt": 66863, "trial_type": "text", "internal_node_id": "0.0-6.0", "time_elapsed": 225071, "key_press": 32, "type": "INSTRUCTIONS", "trial_index": 6}, "uniqueid": "MTK2298:34T446B1C1LOAWGSLESORWM6GG40C5", "dateTime": 1516985485054}, {"current_trial": 7, "trialdata": {"rt": 14110, "trial_type": "text", "internal_node_id": "0.0-7.0", "time_elapsed": 239710, "key_press": 32, "type": "INSTRUCTIONS", "trial_index": 7}, "uniqueid": "MTK2298:34T446B1C1LOAWGSLESORWM6GG40C5", "dateTime": 1516985499693}, {"current_trial": 8, "trialdata": {"rt": 10839, "trial_type": "text", "internal_node_id": "0.0-8.0", "time_elapsed": 251081, "key_press": 32, "type": "INSTRUCTIONS", "trial_index": 8}, "uniqueid": "MTK2298:34T446B1C1LOAWGSLESORWM6GG40C5", "dateTime": 1516985511064}, {"current_trial": 9, "trialdata": {"rt": [3868, 7107, 9019, 10441, 11956, 13799, 16542], "trial_type": "math-distractor", "key_times": [2810, 2970, 3868, 6728, 6811, 7107, 8559, 8690, 9019, 10082, 10238, 10441, 11628, 11741, 11956, 13423, 13536, 13799, 16175, 16284, 16542, 18097, 18182], "responses": ["15", "16", "20", "24", "19", "18", "21"], "num2": [3, 8, 2, 8, 9, 6, 6, 9], "num3": [8, 4, 9, 8, 9, 9, 8, 5], "conditions": [18, 1200, "a", 18000], "internal_node_id": "0.0-9.0", "key_presses": [97, 101, 13, 97, 102, 13, 98, 96, 13, 98, 100, 13, 97, 105, 13, 97, 104, 13, 98, 97, 13, 98, 97], "trial": 0, "time_elapsed": 270625, "type": "DISTRACTOR", "trial_index": 9, "num1": [4, 4, 9, 8, 1, 3, 7, 7]}, "uniqueid": "MTK2298:34T446B1C1LOAWGSLESORWM6GG40C5", "dateTime": 1516985530608}, {"current_trial": 10, "trialdata": {"rt": -1, "trial_type": "single-stim", "stimulus": "<p id=\"stim\">10</p>", "internal_node_id": "0.0-10.0-0.0", "time_elapsed": 273695, "key_press": -1, "trial_index": 10}, "uniqueid": "MTK2298:34T446B1C1LOAWGSLESORWM6GG40C5", "dateTime": 1516985533678}, {"current_trial": 11, "trialdata": {"rt": -1, "trial_type": "single-stim", "stimulus": "<p id=\"stim\">9</p>", "internal_node_id": "0.0-10.0-1.0", "time_elapsed": 274715, "key_press": -1, "trial_index": 11}, "uniqueid": "MTK2298:34T446B1C1LOAWGSLESORWM6GG40C5", "dateTime": 1516985534698}, {"current_trial": 12, "trialdata": {"rt": -1, "trial_type": "single-stim", "stimulus": "<p id=\"stim\">8</p>", "internal_node_id": "0.0-10.0-2.0", "time_elapsed": 275735, "key_press": -1, "trial_index": 12}, "uniqueid": "MTK2298:34T446B1C1LOAWGSLESORWM6GG40C5", "dateTime": 1516985535718}, {"current_trial": 13, "trialdata": {"rt": -1, "trial_type": "single-stim", "stimulus": "<p id=\"stim\">7</p>", "internal_node_id": "0.0-10.0-3.0", "time_elapsed": 276755, "key_press": -1, "trial_index": 13}, "uniqueid": "MTK2298:34T446B1C1LOAWGSLESORWM6GG40C5", "dateTime": 1516985536738}, {"current_trial": 14, "trialdata": {"rt": -1, "trial_type": "single-stim", "stimulus": "<p id=\"stim\">6</p>", "internal_node_id": "0.0-10.0-4.0", "time_elapsed": 277777, "key_press": -1, "trial_index": 14}, "uniqueid": "MTK2298:34T446B1C1LOAWGSLESORWM6GG40C5", "dateTime": 1516985537760}, {"current_trial": 15, "trialdata": {"rt": -1, "trial_type": "single-stim", "stimulus": "<p id=\"stim\">5</p>", "internal_node_id": "0.0-10.0-5.0", "time_elapsed": 278799, "key_press": -1, "trial_index": 15}, "uniqueid": "MTK2298:34T446B1C1LOAWGSLESORWM6GG40C5", "dateTime": 1516985538782}, {"current_trial": 16, "trialdata": {"rt": -1, "trial_type": "single-stim", "stimulus": "<p id=\"stim\">4</p>", "internal_node_id": "0.0-10.0-6.0", "time_elapsed": 279823, "key_press": -1, "trial_index": 16}, "uniqueid": "MTK2298:34T446B1C1LOAWGSLESORWM6GG40C5", "dateTime": 1516985539806}, {"current_trial": 17, "trialdata": {"rt": -1, "trial_type": "single-stim", "stimulus": "<p id=\"stim\">3</p>", "internal_node_id": "0.0-10.0-7.0", "time_elapsed": 280850, "key_press": -1, "trial_index": 17}, "uniqueid": "MTK2298:34T446B1C1LOAWGSLESORWM6GG40C5", "dateTime": 1516985540833}, {"current_trial": 18, "trialdata": {"rt": -1, "trial_type": "single-stim", "stimulus": "<p id=\"stim\">2</p>", "internal_node_id": "0.0-10.0-8.0", "time_elapsed": 281875, "key_press": -1, "trial_index": 18}, "uniqueid": "MTK2298:34T446B1C1LOAWGSLESORWM6GG40C5", "dateTime": 1516985541858}, {"current_trial": 19, "trialdata": {"rt": -1, "trial_type": "single-stim", "stimulus": "<p id=\"stim\">1</p>", "internal_node_id": "0.0-10.0-9.0", "time_elapsed": 282901, "key_press": -1, "trial_index": 19}, "uniqueid": "MTK2298:34T446B1C1LOAWGSLESORWM6GG40C5", "dateTime": 1516985542884}, {"current_trial": 20, "trialdata": {"rt": -1, "trial_type": "single-stim", "stimulus": "<p id=\"stim\">+</p>", "internal_node_id": "0.0-11.0-0.0", "time_elapsed": 284428, "key_press": -1, "type": "FIXATION", "trial_index": 20}, "uniqueid": "MTK2298:34T446B1C1LOAWGSLESORWM6GG40C5", "dateTime": 1516985544411}, {"current_trial": 21, "trialdata": {"rt": -1000, "trial_type": "single-audio", "word": "baby", "stimulus": "/static/audio/wordpool/BABY.wav", "conditions": [18, 1200, "a", 18000], "internal_node_id": "0.0-12.0", "trial": 0, "time_elapsed": 286844, "serialpos": 0, "key_press": -1, "wordID": 63, "type": "PRES_AUD", "trial_index": 21}, "uniqueid": "MTK2298:34T446B1C1LOAWGSLESORWM6GG40C5", "dateTime": 1516985546827}, {"current_trial": 22, "trialdata": {"rt": -1000, "trial_type": "single-audio", "word": "antler", "stimulus": "/static/audio/wordpool/ANTLER.wav", "conditions": [18, 1200, "a", 18000], "internal_node_id": "0.0-13.0", "trial": 0, "time_elapsed": 289069, "serialpos": 1, "key_press": -1, "wordID": 28, "type": "PRES_AUD", "trial_index": 22}, "uniqueid": "MTK2298:34T446B1C1LOAWGSLESORWM6GG40C5", "dateTime": 1516985549052}, {"current_trial": 23, "trialdata": {"rt": -1000, "trial_type": "single-audio", "word": "blueprint", "stimulus": "/static/audio/wordpool/BLUEPRINT.wav", "conditions": [18, 1200, "a", 18000], "internal_node_id": "0.0-14.0", "trial": 0, "time_elapsed": 291408, "serialpos": 2, "key_press": -1, "wordID": 141, "type": "PRES_AUD", "trial_index": 23}, "uniqueid": "MTK2298:34T446B1C1LOAWGSLESORWM6GG40C5", "dateTime": 1516985551391}, {"current_trial": 24, "trialdata": {"rt": -1000, "trial_type": "single-audio", "word": "brick", "stimulus": "/static/audio/wordpool/BRICK.wav", "conditions": [18, 1200, "a", 18000], "internal_node_id": "0.0-15.0", "trial": 0, "time_elapsed": 293751, "serialpos": 3, "key_press": -1, "wordID": 171, "type": "PRES_AUD", "trial_index": 24}, "uniqueid": "MTK2298:34T446B1C1LOAWGSLESORWM6GG40C5", "dateTime": 1516985553734}, {"current_trial": 25, "trialdata": {"rt": -1000, "trial_type": "single-audio", "word": "box", "stimulus": "/static/audio/wordpool/BOX.wav", "conditions": [18, 1200, "a", 18000], "internal_node_id": "0.0-16.0", "trial": 0, "time_elapsed": 296112, "serialpos": 4, "key_press": -1, "wordID": 158, "type": "PRES_AUD", "trial_index": 25}, "uniqueid": "MTK2298:34T446B1C1LOAWGSLESORWM6GG40C5", "dateTime": 1516985556095}, {"current_trial": 26, "trialdata": {"rt": -1000, "trial_type": "single-audio", "word": "gazelle", "stimulus": "/static/audio/wordpool/GAZELLE.wav", "conditions": [18, 1200, "a", 18000], "internal_node_id": "0.0-17.0", "trial": 0, "time_elapsed": 298259, "serialpos": 5, "key_press": -1, "wordID": 627, "type": "PRES_AUD", "trial_index": 26}, "uniqueid": "MTK2298:34T446B1C1LOAWGSLESORWM6GG40C5", "dateTime": 1516985558242}, {"current_trial": 27, "trialdata": {"rt": -1000, "trial_type": "single-audio", "word": "raft", "stimulus": "/static/audio/wordpool/RAFT.wav", "conditions": [18, 1200, "a", 18000], "internal_node_id": "0.0-18.0", "trial": 0, "time_elapsed": 300697, "serialpos": 6, "key_press": -1, "wordID": 1158, "type": "PRES_AUD", "trial_index": 27}, "uniqueid": "MTK2298:34T446B1C1LOAWGSLESORWM6GG40C5", "dateTime": 1516985560680}, {"current_trial": 28, "trialdata": {"rt": -1000, "trial_type": "single-audio", "word": "ground", "stimulus": "/static/audio/wordpool/GROUND.wav", "conditions": [18, 1200, "a", 18000], "internal_node_id": "0.0-19.0", "trial": 0, "time_elapsed": 302960, "serialpos": 7, "key_press": -1, "wordID": 665, "type": "PRES_AUD", "trial_index": 28}, "uniqueid": "MTK2298:34T446B1C1LOAWGSLESORWM6GG40C5", "dateTime": 1516985562943}, {"current_trial": 29, "trialdata": {"rt": -1000, "trial_type": "single-audio", "word": "oyster", "stimulus": "/static/audio/wordpool/OYSTER.wav", "conditions": [18, 1200, "a", 18000], "internal_node_id": "0.0-20.0", "trial": 0, "time_elapsed": 305274, "serialpos": 8, "key_press": -1, "wordID": 994, "type": "PRES_AUD", "trial_index": 29}, "uniqueid": "MTK2298:34T446B1C1LOAWGSLESORWM6GG40C5", "dateTime": 1516985565257}, {"current_trial": 30, "trialdata": {"rt": -1000, "trial_type": "single-audio", "word": "radish", "stimulus": "/static/audio/wordpool/RADISH.wav", "conditions": [18, 1200, "a", 18000], "internal_node_id": "0.0-21.0", "trial": 0, "time_elapsed": 307404, "serialpos": 9, "key_press": -1, "wordID": 1157, "type": "PRES_AUD", "trial_index": 30}, "uniqueid": "MTK2298:34T446B1C1LOAWGSLESORWM6GG40C5", "dateTime": 1516985567387}, {"current_trial": 31, "trialdata": {"rt": -1000, "trial_type": "single-audio", "word": "spider", "stimulus": "/static/audio/wordpool/SPIDER.wav", "conditions": [18, 1200, "a", 18000], "internal_node_id": "0.0-22.0", "trial": 0, "time_elapsed": 309500, "serialpos": 10, "key_press": -1, "wordID": 1350, "type": "PRES_AUD", "trial_index": 31}, "uniqueid": "MTK2298:34T446B1C1LOAWGSLESORWM6GG40C5", "dateTime": 1516985569483}, {"current_trial": 32, "trialdata": {"rt": -1000, "trial_type": "single-audio", "word": "waitress", "stimulus": "/static/audio/wordpool/WAITRESS.wav", "conditions": [18, 1200, "a", 18000], "internal_node_id": "0.0-23.0", "trial": 0, "time_elapsed": 311748, "serialpos": 11, "key_press": -1, "wordID": 1580, "type": "PRES_AUD", "trial_index": 32}, "uniqueid": "MTK2298:34T446B1C1LOAWGSLESORWM6GG40C5", "dateTime": 1516985571731}, {"current_trial": 33, "trialdata": {"rt": -1000, "trial_type": "single-audio", "word": "sketch", "stimulus": "/static/audio/wordpool/SKETCH.wav", "conditions": [18, 1200, "a", 18000], "internal_node_id": "0.0-24.0", "trial": 0, "time_elapsed": 313867, "serialpos": 12, "key_press": -1, "wordID": 1314, "type": "PRES_AUD", "trial_index": 33}, "uniqueid": "MTK2298:34T446B1C1LOAWGSLESORWM6GG40C5", "dateTime": 1516985573850}, {"current_trial": 34, "trialdata": {"rt": -1000, "trial_type": "single-audio", "word": "lover", "stimulus": "/static/audio/wordpool/LOVER.wav", "conditions": [18, 1200, "a", 18000], "internal_node_id": "0.0-25.0", "trial": 0, "time_elapsed": 316058, "serialpos": 13, "key_press": -1, "wordID": 845, "type": "PRES_AUD", "trial_index": 34}, "uniqueid": "MTK2298:34T446B1C1LOAWGSLESORWM6GG40C5", "dateTime": 1516985576041}, {"current_trial": 35, "trialdata": {"rt": -1000, "trial_type": "single-audio", "word": "iceberg", "stimulus": "/static/audio/wordpool/ICEBERG.wav", "conditions": [18, 1200, "a", 18000], "internal_node_id": "0.0-26.0", "trial": 0, "time_elapsed": 318474, "serialpos": 14, "key_press": -1, "wordID": 730, "type": "PRES_AUD", "trial_index": 35}, "uniqueid": "MTK2298:34T446B1C1LOAWGSLESORWM6GG40C5", "dateTime": 1516985578457}, {"current_trial": 36, "trialdata": {"rt": -1000, "trial_type": "single-audio", "word": "mummy", "stimulus": "/static/audio/wordpool/MUMMY.wav", "conditions": [18, 1200, "a", 18000], "internal_node_id": "0.0-27.0", "trial": 0, "time_elapsed": 320917, "serialpos": 15, "key_press": -1, "wordID": 931, "type": "PRES_AUD", "trial_index": 36}, "uniqueid": "MTK2298:34T446B1C1LOAWGSLESORWM6GG40C5", "dateTime": 1516985580900}, {"current_trial": 37, "trialdata": {"rt": -1000, "trial_type": "single-audio", "word": "piston", "stimulus": "/static/audio/wordpool/PISTON.wav", "conditions": [18, 1200, "a", 18000], "internal_node_id": "0.0-28.0", "trial": 0, "time_elapsed": 323130, "serialpos": 16, "key_press": -1, "wordID": 1075, "type": "PRES_AUD", "trial_index": 37}, "uniqueid": "MTK2298:34T446B1C1LOAWGSLESORWM6GG40C5", "dateTime": 1516985583113}, {"current_trial": 38, "trialdata": {"rt": -1000, "trial_type": "single-audio", "word": "dolphin", "stimulus": "/static/audio/wordpool/DOLPHIN.wav", "conditions": [18, 1200, "a", 18000], "internal_node_id": "0.0-29.0", "trial": 0, "time_elapsed": 325281, "serialpos": 17, "key_press": -1, "wordID": 482, "type": "PRES_AUD", "trial_index": 38}, "uniqueid": "MTK2298:34T446B1C1LOAWGSLESORWM6GG40C5", "dateTime": 1516985585264}, {"current_trial": 39, "trialdata": {"rt": -1, "trial_type": "single-stim", "stimulus": "", "internal_node_id": "0.0-30.0-0.0", "time_elapsed": 326535, "key_press": -1, "type": "PRE_RECALL_DELAY", "trial_index": 39}, "uniqueid": "MTK2298:34T446B1C1LOAWGSLESORWM6GG40C5", "dateTime": 1516985586518}, {"current_trial": 40, "trialdata": {"rt": -1000, "trial_type": "single-audio", "stimulus": "/static/audio/400Hz.wav", "internal_node_id": "0.0-31.0", "time_elapsed": 327069, "key_press": -1, "type": "PRE_RECALL_ALERT", "trial_index": 40}, "uniqueid": "MTK2298:34T446B1C1LOAWGSLESORWM6GG40C5", "dateTime": 1516985587052}, {"current_trial": 41, "trialdata": {"rt": [3662, 6581, 7931, 9763, 11761, 14079, 19252, 23888, 37749], "recwords": ["dolphin", "piston", "baby", "raft", "spider", "spice", "ground", "diaper", "sketch"], "key_times": [1795, 1949, 2252, 2537, 2814, 2911, 3020, 3662, 4630, 4828, 4912, 5111, 5180, 5254, 6581, 7200, 7332, 7404, 7624, 7931, 8132, 8323, 8477, 8688, 9763, 10717, 10829, 10994, 11077, 11289, 11435, 11761, 12030, 12189, 12389, 12492, 12709, 14079, 18140, 18340, 18411, 18500, 18643, 18766, 19252, 23042, 23183, 23296, 23417, 23514, 23698, 23888, 36595, 36745, 36840, 37050, 37243, 37353, 37749], "trial_type": "free-recall", "conditions": [18, 1200, "a", 18000], "internal_node_id": "0.0-32.0-0.0", "key_presses": [68, 79, 76, 80, 72, 73, 78, 32, 80, 73, 83, 84, 79, 78, 13, 66, 65, 66, 89, 13, 82, 65, 70, 84, 13, 83, 80, 73, 68, 69, 82, 13, 83, 80, 73, 67, 69, 13, 71, 82, 79, 85, 78, 68, 13, 68, 73, 65, 80, 69, 82, 13, 83, 75, 69, 84, 67, 72, 13], "trial": 0, "time_elapsed": 388873, "type": "FREE_RECALL", "trial_index": 41}, "uniqueid": "MTK2298:34T446B1C1LOAWGSLESORWM6GG40C5", "dateTime": 1516985648856}, {"current_trial": 42, "trialdata": {"rt": 1564, "trial_type": "text", "internal_node_id": "0.0-33.0", "time_elapsed": 392483, "key_press": 32, "type": "INSTRUCTIONS", "trial_index": 42}, "uniqueid": "MTK2298:34T446B1C1LOAWGSLESORWM6GG40C5", "dateTime": 1516985652466}, {"current_trial": 43, "trialdata": {"rt": [3174, 4749, 6310, 7591, 10230, 11980, 13498, 14885, 18296], "trial_type": "math-distractor", "key_times": [2793, 2980, 3174, 4412, 4523, 4749, 5949, 6154, 6310, 7296, 7378, 7591, 9897, 10029, 10230, 11670, 11751, 11980, 13206, 13303, 13498, 14591, 14711, 14885, 16782, 17388, 17955, 18024, 18296], "responses": ["13", "16", "17", "10", "11", "16", "12", "10", "26"], "num2": [7, 7, 4, 4, 5, 7, 1, 1, 9, 4], "num3": [1, 2, 6, 2, 2, 4, 6, 1, 9, 9], "conditions": [18, 1200, "a", 18000], "internal_node_id": "0.0-34.0", "key_presses": [97, 99, 13, 97, 102, 13, 97, 103, 13, 97, 96, 13, 97, 97, 13, 97, 102, 13, 97, 98, 13, 97, 96, 13, 97, 8, 98, 102, 13], "trial": 1, "time_elapsed": 413095, "type": "DISTRACTOR", "trial_index": 43, "num1": [5, 7, 7, 4, 4, 8, 5, 8, 8, 3]}, "uniqueid": "MTK2298:34T446B1C1LOAWGSLESORWM6GG40C5", "dateTime": 1516985673078}, {"current_trial": 44, "trialdata": {"rt": -1, "trial_type": "single-stim", "stimulus": "<p id=\"stim\">10</p>", "internal_node_id": "0.0-35.0-0.0", "time_elapsed": 416147, "key_press": -1, "trial_index": 44}, "uniqueid": "MTK2298:34T446B1C1LOAWGSLESORWM6GG40C5", "dateTime": 1516985676130}, {"current_trial": 45, "trialdata": {"rt": -1, "trial_type": "single-stim", "stimulus": "<p id=\"stim\">9</p>", "internal_node_id": "0.0-35.0-1.0", "time_elapsed": 417182, "key_press": -1, "trial_index": 45}, "uniqueid": "MTK2298:34T446B1C1LOAWGSLESORWM6GG40C5", "dateTime": 1516985677165}, {"current_trial": 46, "trialdata": {"rt": -1, "trial_type": "single-stim", "stimulus": "<p id=\"stim\">8</p>", "internal_node_id": "0.0-35.0-2.0", "time_elapsed": 418206, "key_press": -1, "trial_index": 46}, "uniqueid": "MTK2298:34T446B1C1LOAWGSLESORWM6GG40C5", "dateTime": 1516985678189}, {"current_trial": 47, "trialdata": {"rt": -1, "trial_type": "single-stim", "stimulus": "<p id=\"stim\">7</p>", "internal_node_id": "0.0-35.0-3.0", "time_elapsed": 419244, "key_press": -1, "trial_index": 47}, "uniqueid": "MTK2298:34T446B1C1LOAWGSLESORWM6GG40C5", "dateTime": 1516985679227}, {"current_trial": 48, "trialdata": {"rt": -1, "trial_type": "single-stim", "stimulus": "<p id=\"stim\">6</p>", "internal_node_id": "0.0-35.0-4.0", "time_elapsed": 420274, "key_press": -1, "trial_index": 48}, "uniqueid": "MTK2298:34T446B1C1LOAWGSLESORWM6GG40C5", "dateTime": 1516985680257}, {"current_trial": 49, "trialdata": {"rt": -1, "trial_type": "single-stim", "stimulus": "<p id=\"stim\">5</p>", "internal_node_id": "0.0-35.0-5.0", "time_elapsed": 421297, "key_press": -1, "trial_index": 49}, "uniqueid": "MTK2298:34T446B1C1LOAWGSLESORWM6GG40C5", "dateTime": 1516985681280}, {"current_trial": 50, "trialdata": {"rt": -1, "trial_type": "single-stim", "stimulus": "<p id=\"stim\">4</p>", "internal_node_id": "0.0-35.0-6.0", "time_elapsed": 422321, "key_press": -1, "trial_index": 50}, "uniqueid": "MTK2298:34T446B1C1LOAWGSLESORWM6GG40C5", "dateTime": 1516985682304}, {"current_trial": 51, "trialdata": {"rt": -1, "trial_type": "single-stim", "stimulus": "<p id=\"stim\">3</p>", "internal_node_id": "0.0-35.0-7.0", "time_elapsed": 423345, "key_press": -1, "trial_index": 51}, "uniqueid": "MTK2298:34T446B1C1LOAWGSLESORWM6GG40C5", "dateTime": 1516985683328}, {"current_trial": 52, "trialdata": {"rt": -1, "trial_type": "single-stim", "stimulus": "<p id=\"stim\">2</p>", "internal_node_id": "0.0-35.0-8.0", "time_elapsed": 424358, "key_press": -1, "trial_index": 52}, "uniqueid": "MTK2298:34T446B1C1LOAWGSLESORWM6GG40C5", "dateTime": 1516985684341}, {"current_trial": 53, "trialdata": {"rt": -1, "trial_type": "single-stim", "stimulus": "<p id=\"stim\">1</p>", "internal_node_id": "0.0-35.0-9.0", "time_elapsed": 425385, "key_press": -1, "trial_index": 53}, "uniqueid": "MTK2298:34T446B1C1LOAWGSLESORWM6GG40C5", "dateTime": 1516985685368}, {"current_trial": 54, "trialdata": {"rt": -1, "trial_type": "single-stim", "stimulus": "<p id=\"stim\">+</p>", "internal_node_id": "0.0-36.0-0.0", "time_elapsed": 426898, "key_press": -1, "type": "FIXATION", "trial_index": 54}, "uniqueid": "MTK2298:34T446B1C1LOAWGSLESORWM6GG40C5", "dateTime": 1516985686881}, {"current_trial": 55, "trialdata": {"rt": -1000, "trial_type": "single-audio", "word": "salad", "stimulus": "/static/audio/wordpool/SALAD.wav", "conditions": [18, 1200, "a", 18000], "internal_node_id": "0.0-37.0", "trial": 1, "time_elapsed": 429301, "serialpos": 0, "key_press": -1, "wordID": 1223, "type": "PRES_AUD", "trial_index": 55}, "uniqueid": "MTK2298:34T446B1C1LOAWGSLESORWM6GG40C5", "dateTime": 1516985689284}, {"current_trial": 56, "trialdata": {"rt": -1000, "trial_type": "single-audio", "word": "turtle", "stimulus": "/static/audio/wordpool/TURTLE.wav", "conditions": [18, 1200, "a", 18000], "internal_node_id": "0.0-38.0", "trial": 1, "time_elapsed": 431471, "serialpos": 1, "key_press": -1, "wordID": 1521, "type": "PRES_AUD", "trial_index": 56}, "uniqueid": "MTK2298:34T446B1C1LOAWGSLESORWM6GG40C5", "dateTime": 1516985691454}, {"current_trial": 57, "trialdata": {"rt": -1000, "trial_type": "single-audio", "word": "penguin", "stimulus": "/static/audio/wordpool/PENGUIN.wav", "conditions": [18, 1200, "a", 18000], "internal_node_id": "0.0-39.0", "trial": 1, "time_elapsed": 433725, "serialpos": 2, "key_press": -1, "wordID": 1043, "type": "PRES_AUD", "trial_index": 57}, "uniqueid": "MTK2298:34T446B1C1LOAWGSLESORWM6GG40C5", "dateTime": 1516985693708}, {"current_trial": 58, "trialdata": {"rt": -1000, "trial_type": "single-audio", "word": "judge", "stimulus": "/static/audio/wordpool/JUDGE.wav", "conditions": [18, 1200, "a", 18000], "internal_node_id": "0.0-40.0", "trial": 1, "time_elapsed": 435855, "serialpos": 3, "key_press": -1, "wordID": 760, "type": "PRES_AUD", "trial_index": 58}, "uniqueid": "MTK2298:34T446B1C1LOAWGSLESORWM6GG40C5", "dateTime": 1516985695838}, {"current_trial": 59, "trialdata": {"rt": -1000, "trial_type": "single-audio", "word": "breast", "stimulus": "/static/audio/wordpool/BREAST.wav", "conditions": [18, 1200, "a", 18000], "internal_node_id": "0.0-41.0", "trial": 1, "time_elapsed": 438159, "serialpos": 4, "key_press": -1, "wordID": 170, "type": "PRES_AUD", "trial_index": 59}, "uniqueid": "MTK2298:34T446B1C1LOAWGSLESORWM6GG40C5", "dateTime": 1516985698142}, {"current_trial": 60, "trialdata": {"rt": -1000, "trial_type": "single-audio", "word": "france", "stimulus": "/static/audio/wordpool/FRANCE.wav", "conditions": [18, 1200, "a", 18000], "internal_node_id": "0.0-42.0", "trial": 1, "time_elapsed": 440308, "serialpos": 5, "key_press": -1, "wordID": 600, "type": "PRES_AUD", "trial_index": 60}, "uniqueid": "MTK2298:34T446B1C1LOAWGSLESORWM6GG40C5", "dateTime": 1516985700291}, {"current_trial": 61, "trialdata": {"rt": -1000, "trial_type": "single-audio", "word": "handbag", "stimulus": "/static/audio/wordpool/HANDBAG.wav", "conditions": [18, 1200, "a", 18000], "internal_node_id": "0.0-43.0", "trial": 1, "time_elapsed": 442490, "serialpos": 6, "key_press": -1, "wordID": 683, "type": "PRES_AUD", "trial_index": 61}, "uniqueid": "MTK2298:34T446B1C1LOAWGSLESORWM6GG40C5", "dateTime": 1516985702473}, {"current_trial": 62, "trialdata": {"rt": -1000, "trial_type": "single-audio", "word": "lady", "stimulus": "/static/audio/wordpool/LADY.wav", "conditions": [18, 1200, "a", 18000], "internal_node_id": "0.0-44.0", "trial": 1, "time_elapsed": 444748, "serialpos": 7, "key_press": -1, "wordID": 793, "type": "PRES_AUD", "trial_index": 62}, "uniqueid": "MTK2298:34T446B1C1LOAWGSLESORWM6GG40C5", "dateTime": 1516985704731}, {"current_trial": 63, "trialdata": {"rt": -1000, "trial_type": "single-audio", "word": "fungus", "stimulus": "/static/audio/wordpool/FUNGUS.wav", "conditions": [18, 1200, "a", 18000], "internal_node_id": "0.0-45.0", "trial": 1, "time_elapsed": 446835, "serialpos": 8, "key_press": -1, "wordID": 613, "type": "PRES_AUD", "trial_index": 63}, "uniqueid": "MTK2298:34T446B1C1LOAWGSLESORWM6GG40C5", "dateTime": 1516985706818}, {"current_trial": 64, "trialdata": {"rt": -1000, "trial_type": "single-audio", "word": "guitar", "stimulus": "/static/audio/wordpool/GUITAR.wav", "conditions": [18, 1200, "a", 18000], "internal_node_id": "0.0-46.0", "trial": 1, "time_elapsed": 449081, "serialpos": 9, "key_press": -1, "wordID": 669, "type": "PRES_AUD", "trial_index": 64}, "uniqueid": "MTK2298:34T446B1C1LOAWGSLESORWM6GG40C5", "dateTime": 1516985709064}, {"current_trial": 65, "trialdata": {"rt": -1000, "trial_type": "single-audio", "word": "sponge", "stimulus": "/static/audio/wordpool/SPONGE.wav", "conditions": [18, 1200, "a", 18000], "internal_node_id": "0.0-47.0", "trial": 1, "time_elapsed": 451268, "serialpos": 10, "key_press": -1, "wordID": 1354, "type": "PRES_AUD", "trial_index": 65}, "uniqueid": "MTK2298:34T446B1C1LOAWGSLESORWM6GG40C5", "dateTime": 1516985711251}, {"current_trial": 66, "trialdata": {"rt": -1000, "trial_type": "single-audio", "word": "jungle", "stimulus": "/static/audio/wordpool/JUNGLE.wav", "conditions": [18, 1200, "a", 18000], "internal_node_id": "0.0-48.0", "trial": 1, "time_elapsed": 453367, "serialpos": 11, "key_press": -1, "wordID": 763, "type": "PRES_AUD", "trial_index": 66}, "uniqueid": "MTK2298:34T446B1C1LOAWGSLESORWM6GG40C5", "dateTime": 1516985713350}, {"current_trial": 67, "trialdata": {"rt": -1000, "trial_type": "single-audio", "word": "orchid", "stimulus": "/static/audio/wordpool/ORCHID.wav", "conditions": [18, 1200, "a", 18000], "internal_node_id": "0.0-49.0", "trial": 1, "time_elapsed": 455420, "serialpos": 12, "key_press": -1, "wordID": 981, "type": "PRES_AUD", "trial_index": 67}, "uniqueid": "MTK2298:34T446B1C1LOAWGSLESORWM6GG40C5", "dateTime": 1516985715403}, {"current_trial": 68, "trialdata": {"rt": -1000, "trial_type": "single-audio", "word": "slope", "stimulus": "/static/audio/wordpool/SLOPE.wav", "conditions": [18, 1200, "a", 18000], "internal_node_id": "0.0-50.0", "trial": 1, "time_elapsed": 457644, "serialpos": 13, "key_press": -1, "wordID": 1327, "type": "PRES_AUD", "trial_index": 68}, "uniqueid": "MTK2298:34T446B1C1LOAWGSLESORWM6GG40C5", "dateTime": 1516985717627}, {"current_trial": 69, "trialdata": {"rt": -1000, "trial_type": "single-audio", "word": "pasta", "stimulus": "/static/audio/wordpool/PASTA.wav", "conditions": [18, 1200, "a", 18000], "internal_node_id": "0.0-51.0", "trial": 1, "time_elapsed": 459697, "serialpos": 14, "key_press": -1, "wordID": 1020, "type": "PRES_AUD", "trial_index": 69}, "uniqueid": "MTK2298:34T446B1C1LOAWGSLESORWM6GG40C5", "dateTime": 1516985719680}, {"current_trial": 70, "trialdata": {"rt": -1000, "trial_type": "single-audio", "word": "hero", "stimulus": "/static/audio/wordpool/HERO.wav", "conditions": [18, 1200, "a", 18000], "internal_node_id": "0.0-52.0", "trial": 1, "time_elapsed": 462082, "serialpos": 15, "key_press": -1, "wordID": 705, "type": "PRES_AUD", "trial_index": 70}, "uniqueid": "MTK2298:34T446B1C1LOAWGSLESORWM6GG40C5", "dateTime": 1516985722065}, {"current_trial": 71, "trialdata": {"rt": -1000, "trial_type": "single-audio", "word": "dentist", "stimulus": "/static/audio/wordpool/DENTIST.wav", "conditions": [18, 1200, "a", 18000], "internal_node_id": "0.0-53.0", "trial": 1, "time_elapsed": 464361, "serialpos": 16, "key_press": -1, "wordID": 446, "type": "PRES_AUD", "trial_index": 71}, "uniqueid": "MTK2298:34T446B1C1LOAWGSLESORWM6GG40C5", "dateTime": 1516985724344}, {"current_trial": 72, "trialdata": {"rt": -1000, "trial_type": "single-audio", "word": "briefcase", "stimulus": "/static/audio/wordpool/BRIEFCASE.wav", "conditions": [18, 1200, "a", 18000], "internal_node_id": "0.0-54.0", "trial": 1, "time_elapsed": 466549, "serialpos": 17, "key_press": -1, "wordID": 174, "type": "PRES_AUD", "trial_index": 72}, "uniqueid": "MTK2298:34T446B1C1LOAWGSLESORWM6GG40C5", "dateTime": 1516985726532}, {"current_trial": 73, "trialdata": {"rt": -1, "trial_type": "single-stim", "stimulus": "", "internal_node_id": "0.0-55.0-0.0", "time_elapsed": 467889, "key_press": -1, "type": "PRE_RECALL_DELAY", "trial_index": 73}, "uniqueid": "MTK2298:34T446B1C1LOAWGSLESORWM6GG40C5", "dateTime": 1516985727872}, {"current_trial": 74, "trialdata": {"rt": -1000, "trial_type": "single-audio", "stimulus": "/static/audio/400Hz.wav", "internal_node_id": "0.0-56.0", "time_elapsed": 468424, "key_press": -1, "type": "PRE_RECALL_ALERT", "trial_index": 74}, "uniqueid": "MTK2298:34T446B1C1LOAWGSLESORWM6GG40C5", "dateTime": 1516985728407}, {"current_trial": 75, "trialdata": {"rt": [3632, 4957, 13116, 15442, 19794, 23210, 34765, 45450, 61567], "recwords": ["briefcase", "lady", "pasta", "salad", "handbag", "judge", "spider", "orchid", "turtle"], "key_times": [1537, 1601, 1745, 1838, 2045, 2407, 2615, 2777, 2952, 3632, 4199, 4314, 4475, 4574, 4957, 11337, 11467, 11604, 11827, 12064, 13116, 13812, 13990, 14107, 14200, 14376, 15442, 17185, 17296, 17397, 17522, 17703, 17813, 17976, 19794, 20787, 21181, 21595, 21787, 21878, 22100, 22273, 23210, 33710, 33914, 34132, 34237, 34474, 34600, 34765, 44297, 44406, 44652, 44753, 44923, 45024, 45450, 60126, 60290, 60400, 60596, 60782, 60938, 61567], "trial_type": "free-recall", "conditions": [18, 1200, "a", 18000], "internal_node_id": "0.0-57.0-0.0", "key_presses": [66, 82, 73, 69, 70, 67, 65, 83, 69, 13, 76, 65, 68, 89, 13, 80, 65, 83, 84, 65, 13, 83, 65, 76, 65, 68, 13, 72, 65, 78, 68, 66, 65, 71, 13, 67, 8, 74, 85, 68, 71, 69, 13, 83, 80, 73, 68, 69, 82, 13, 79, 82, 67, 72, 73, 68, 13, 84, 85, 82, 84, 76, 69, 13], "trial": 1, "time_elapsed": 530192, "type": "FREE_RECALL", "trial_index": 75}, "uniqueid": "MTK2298:34T446B1C1LOAWGSLESORWM6GG40C5", "dateTime": 1516985790175}, {"current_trial": 76, "trialdata": {"rt": 1727, "trial_type": "text", "internal_node_id": "0.0-58.0", "time_elapsed": 533962, "key_press": 32, "type": "INSTRUCTIONS", "trial_index": 76}, "uniqueid": "MTK2298:34T446B1C1LOAWGSLESORWM6GG40C5", "dateTime": 1516985793945}, {"current_trial": 77, "trialdata": {"rt": [2750, 6652, 9034, 12118], "trial_type": "math-distractor", "key_times": [2277, 2483, 2750, 6198, 6399, 6652, 8720, 8804, 9034, 11495, 12118], "responses": ["21", "21", "15", "9"], "num2": [6, 8, 1, 3, 8], "num3": [8, 4, 5, 2, 1], "conditions": [12, 1600, "a", 12000], "internal_node_id": "0.0-59.0", "key_presses": [98, 97, 13, 98, 97, 13, 97, 101, 13, 105, 13], "trial": 2, "time_elapsed": 547405, "type": "DISTRACTOR", "trial_index": 77, "num1": [7, 9, 9, 4, 3]}, "uniqueid": "MTK2298:34T446B1C1LOAWGSLESORWM6GG40C5", "dateTime": 1516985807388}, {"current_trial": 78, "trialdata": {"rt": -1, "trial_type": "single-stim", "stimulus": "<p id=\"stim\">10</p>", "internal_node_id": "0.0-60.0-0.0", "time_elapsed": 550505, "key_press": -1, "trial_index": 78}, "uniqueid": "MTK2298:34T446B1C1LOAWGSLESORWM6GG40C5", "dateTime": 1516985810488}, {"current_trial": 79, "trialdata": {"rt": -1, "trial_type": "single-stim", "stimulus": "<p id=\"stim\">9</p>", "internal_node_id": "0.0-60.0-1.0", "time_elapsed": 551544, "key_press": -1, "trial_index": 79}, "uniqueid": "MTK2298:34T446B1C1LOAWGSLESORWM6GG40C5", "dateTime": 1516985811527}, {"current_trial": 80, "trialdata": {"rt": -1, "trial_type": "single-stim", "stimulus": "<p id=\"stim\">8</p>", "internal_node_id": "0.0-60.0-2.0", "time_elapsed": 552585, "key_press": -1, "trial_index": 80}, "uniqueid": "MTK2298:34T446B1C1LOAWGSLESORWM6GG40C5", "dateTime": 1516985812568}, {"current_trial": 81, "trialdata": {"rt": -1, "trial_type": "single-stim", "stimulus": "<p id=\"stim\">7</p>", "internal_node_id": "0.0-60.0-3.0", "time_elapsed": 553625, "key_press": -1, "trial_index": 81}, "uniqueid": "MTK2298:34T446B1C1LOAWGSLESORWM6GG40C5", "dateTime": 1516985813608}, {"current_trial": 82, "trialdata": {"rt": -1, "trial_type": "single-stim", "stimulus": "<p id=\"stim\">6</p>", "internal_node_id": "0.0-60.0-4.0", "time_elapsed": 554665, "key_press": -1, "trial_index": 82}, "uniqueid": "MTK2298:34T446B1C1LOAWGSLESORWM6GG40C5", "dateTime": 1516985814648}, {"current_trial": 83, "trialdata": {"rt": -1, "trial_type": "single-stim", "stimulus": "<p id=\"stim\">5</p>", "internal_node_id": "0.0-60.0-5.0", "time_elapsed": 555706, "key_press": -1, "trial_index": 83}, "uniqueid": "MTK2298:34T446B1C1LOAWGSLESORWM6GG40C5", "dateTime": 1516985815689}, {"current_trial": 84, "trialdata": {"rt": -1, "trial_type": "single-stim", "stimulus": "<p id=\"stim\">4</p>", "internal_node_id": "0.0-60.0-6.0", "time_elapsed": 556746, "key_press": -1, "trial_index": 84}, "uniqueid": "MTK2298:34T446B1C1LOAWGSLESORWM6GG40C5", "dateTime": 1516985816729}, {"current_trial": 85, "trialdata": {"rt": -1, "trial_type": "single-stim", "stimulus": "<p id=\"stim\">3</p>", "internal_node_id": "0.0-60.0-7.0", "time_elapsed": 557787, "key_press": -1, "trial_index": 85}, "uniqueid": "MTK2298:34T446B1C1LOAWGSLESORWM6GG40C5", "dateTime": 1516985817770}, {"current_trial": 86, "trialdata": {"rt": -1, "trial_type": "single-stim", "stimulus": "<p id=\"stim\">2</p>", "internal_node_id": "0.0-60.0-8.0", "time_elapsed": 558817, "key_press": -1, "trial_index": 86}, "uniqueid": "MTK2298:34T446B1C1LOAWGSLESORWM6GG40C5", "dateTime": 1516985818800}, {"current_trial": 87, "trialdata": {"rt": -1, "trial_type": "single-stim", "stimulus": "<p id=\"stim\">1</p>", "internal_node_id": "0.0-60.0-9.0", "time_elapsed": 559845, "key_press": -1, "trial_index": 87}, "uniqueid": "MTK2298:34T446B1C1LOAWGSLESORWM6GG40C5", "dateTime": 1516985819828}, {"current_trial": 88, "trialdata": {"rt": -1, "trial_type": "single-stim", "stimulus": "<p id=\"stim\">+</p>", "internal_node_id": "0.0-61.0-0.0", "time_elapsed": 561387, "key_press": -1, "type": "FIXATION", "trial_index": 88}, "uniqueid": "MTK2298:34T446B1C1LOAWGSLESORWM6GG40C5", "dateTime": 1516985821370}, {"current_trial": 89, "trialdata": {"rt": -1000, "trial_type": "single-audio", "word": "whistle", "stimulus": "/static/audio/wordpool/WHISTLE.wav", "conditions": [12, 1600, "a", 12000], "internal_node_id": "0.0-62.0", "trial": 2, "time_elapsed": 564135, "serialpos": 0, "key_press": -1, "wordID": 1605, "type": "PRES_AUD", "trial_index": 89}, "uniqueid": "MTK2298:34T446B1C1LOAWGSLESORWM6GG40C5", "dateTime": 1516985824118}, {"current_trial": 90, "trialdata": {"rt": -1000, "trial_type": "single-audio", "word": "chapel", "stimulus": "/static/audio/wordpool/CHAPEL.wav", "conditions": [12, 1600, "a", 12000], "internal_node_id": "0.0-63.0", "trial": 2, "time_elapsed": 566726, "serialpos": 1, "key_press": -1, "wordID": 279, "type": "PRES_AUD", "trial_index": 90}, "uniqueid": "MTK2298:34T446B1C1LOAWGSLESORWM6GG40C5", "dateTime": 1516985826709}, {"current_trial": 91, "trialdata": {"rt": -1000, "trial_type": "single-audio", "word": "uncle", "stimulus": "/static/audio/wordpool/UNCLE.wav", "conditions": [12, 1600, "a", 12000], "internal_node_id": "0.0-64.0", "trial": 2, "time_elapsed": 569425, "serialpos": 2, "key_press": -1, "wordID": 1535, "type": "PRES_AUD", "trial_index": 91}, "uniqueid": "MTK2298:34T446B1C1LOAWGSLESORWM6GG40C5", "dateTime": 1516985829408}, {"current_trial": 92, "trialdata": {"rt": -1000, "trial_type": "single-audio", "word": "dress", "stimulus": "/static/audio/wordpool/DRESS.wav", "conditions": [12, 1600, "a", 12000], "internal_node_id": "0.0-65.0", "trial": 2, "time_elapsed": 572169, "serialpos": 3, "key_press": -1, "wordID": 494, "type": "PRES_AUD", "trial_index": 92}, "uniqueid": "MTK2298:34T446B1C1LOAWGSLESORWM6GG40C5", "dateTime": 1516985832152}, {"current_trial": 93, "trialdata": {"rt": -1000, "trial_type": "single-audio", "word": "egypt", "stimulus": "/static/audio/wordpool/EGYPT.wav", "conditions": [12, 1600, "a", 12000], "internal_node_id": "0.0-66.0", "trial": 2, "time_elapsed": 574985, "serialpos": 4, "key_press": -1, "wordID": 518, "type": "PRES_AUD", "trial_index": 93}, "uniqueid": "MTK2298:34T446B1C1LOAWGSLESORWM6GG40C5", "dateTime": 1516985834968}, {"current_trial": 94, "trialdata": {"rt": -1000, "trial_type": "single-audio", "word": "kidney", "stimulus": "/static/audio/wordpool/KIDNEY.wav", "conditions": [12, 1600, "a", 12000], "internal_node_id": "0.0-67.0", "trial": 2, "time_elapsed": 577489, "serialpos": 5, "key_press": -1, "wordID": 775, "type": "PRES_AUD", "trial_index": 94}, "uniqueid": "MTK2298:34T446B1C1LOAWGSLESORWM6GG40C5", "dateTime": 1516985837472}, {"current_trial": 95, "trialdata": {"rt": -1000, "trial_type": "single-audio", "word": "nomad", "stimulus": "/static/audio/wordpool/NOMAD.wav", "conditions": [12, 1600, "a", 12000], "internal_node_id": "0.0-68.0", "trial": 2, "time_elapsed": 580050, "serialpos": 6, "key_press": -1, "wordID": 954, "type": "PRES_AUD", "trial_index": 95}, "uniqueid": "MTK2298:34T446B1C1LOAWGSLESORWM6GG40C5", "dateTime": 1516985840033}, {"current_trial": 96, "trialdata": {"rt": -1000, "trial_type": "single-audio", "word": "doughnut", "stimulus": "/static/audio/wordpool/DOUGHNUT.wav", "conditions": [12, 1600, "a", 12000], "internal_node_id": "0.0-69.0", "trial": 2, "time_elapsed": 582826, "serialpos": 7, "key_press": -1, "wordID": 489, "type": "PRES_AUD", "trial_index": 96}, "uniqueid": "MTK2298:34T446B1C1LOAWGSLESORWM6GG40C5", "dateTime": 1516985842809}, {"current_trial": 97, "trialdata": {"rt": -1000, "trial_type": "single-audio", "word": "silk", "stimulus": "/static/audio/wordpool/SILK.wav", "conditions": [12, 1600, "a", 12000], "internal_node_id": "0.0-70.0", "trial": 2, "time_elapsed": 585420, "serialpos": 8, "key_press": -1, "wordID": 1306, "type": "PRES_AUD", "trial_index": 97}, "uniqueid": "MTK2298:34T446B1C1LOAWGSLESORWM6GG40C5", "dateTime": 1516985845403}, {"current_trial": 98, "trialdata": {"rt": -1000, "trial_type": "single-audio", "word": "velvet", "stimulus": "/static/audio/wordpool/VELVET.wav", "conditions": [12, 1600, "a", 12000], "internal_node_id": "0.0-71.0", "trial": 2, "time_elapsed": 588068, "serialpos": 9, "key_press": -1, "wordID": 1554, "type": "PRES_AUD", "trial_index": 98}, "uniqueid": "MTK2298:34T446B1C1LOAWGSLESORWM6GG40C5", "dateTime": 1516985848051}, {"current_trial": 99, "trialdata": {"rt": -1000, "trial_type": "single-audio", "word": "snake", "stimulus": "/static/audio/wordpool/SNAKE.wav", "conditions": [12, 1600, "a", 12000], "internal_node_id": "0.0-72.0", "trial": 2, "time_elapsed": 590645, "serialpos": 10, "key_press": -1, "wordID": 1332, "type": "PRES_AUD", "trial_index": 99}, "uniqueid": "MTK2298:34T446B1C1LOAWGSLESORWM6GG40C5", "dateTime": 1516985850628}, {"current_trial": 100, "trialdata": {"rt": -1000, "trial_type": "single-audio", "word": "clothes", "stimulus": "/static/audio/wordpool/CLOTHES.wav", "conditions": [12, 1600, "a", 12000], "internal_node_id": "0.0-73.0", "trial": 2, "time_elapsed": 593133, "serialpos": 11, "key_press": -1, "wordID": 326, "type": "PRES_AUD", "trial_index": 100}, "uniqueid": "MTK2298:34T446B1C1LOAWGSLESORWM6GG40C5", "dateTime": 1516985853116}, {"current_trial": 101, "trialdata": {"rt": -1, "trial_type": "single-stim", "stimulus": "", "internal_node_id": "0.0-74.0-0.0", "time_elapsed": 594382, "key_press": -1, "type": "PRE_RECALL_DELAY", "trial_index": 101}, "uniqueid": "MTK2298:34T446B1C1LOAWGSLESORWM6GG40C5", "dateTime": 1516985854365}, {"current_trial": 102, "trialdata": {"rt": -1000, "trial_type": "single-audio", "stimulus": "/static/audio/400Hz.wav", "internal_node_id": "0.0-75.0", "time_elapsed": 594929, "key_press": -1, "type": "PRE_RECALL_ALERT", "trial_index": 102}, "uniqueid": "MTK2298:34T446B1C1LOAWGSLESORWM6GG40C5", "dateTime": 1516985854912}, {"current_trial": 103, "trialdata": {"rt": [3992, 5563, 7121, 8672, 11789, 13952, 16891, 28586], "recwords": ["clothes", "snake", "velvet", "silk", "egypt", "kidney", "uncle", "dress"], "key_times": [1352, 1432, 1626, 1626, 1757, 2112, 2284, 2421, 3177, 3318, 3405, 3528, 3705, 3992, 4384, 5047, 5142, 5260, 5399, 5563, 5783, 6190, 6372, 6593, 6799, 7003, 7121, 8038, 8150, 8324, 8494, 8672, 8968, 10030, 10272, 10496, 10687, 11789, 12446, 12583, 12681, 12801, 12896, 13138, 13952, 14997, 15098, 15173, 15291, 15457, 16891, 27408, 27647, 27802, 28014, 28160, 28586], "trial_type": "free-recall", "conditions": [12, 1600, "a", 12000], "internal_node_id": "0.0-76.0-0.0", "key_presses": [67, 76, 79, 80, 84, 8, 8, 8, 79, 84, 72, 69, 83, 13, 83, 78, 65, 75, 69, 13, 86, 69, 76, 86, 69, 84, 13, 83, 73, 76, 75, 13, 69, 71, 89, 80, 84, 13, 75, 73, 68, 78, 69, 89, 13, 85, 78, 67, 76, 69, 13, 68, 82, 69, 83, 83, 13], "trial": 2, "time_elapsed": 656463, "type": "FREE_RECALL", "trial_index": 103}, "uniqueid": "MTK2298:34T446B1C1LOAWGSLESORWM6GG40C5", "dateTime": 1516985916446}, {"current_trial": 104, "trialdata": {"rt": 2807, "trial_type": "text", "internal_node_id": "0.0-77.0", "time_elapsed": 661315, "key_press": 32, "type": "INSTRUCTIONS", "trial_index": 104}, "uniqueid": "MTK2298:34T446B1C1LOAWGSLESORWM6GG40C5", "dateTime": 1516985921298}, {"current_trial": 105, "trialdata": {"rt": [2496, 4599, 6849, 8696, 10292, 12234], "trial_type": "math-distractor", "key_times": [2130, 2293, 2496, 4292, 4395, 4599, 6521, 6665, 6849, 8391, 8554, 8696, 9983, 10101, 10292, 11899, 12024, 12234], "responses": ["14", "16", "13", "14", "19", "20"], "num2": [4, 9, 6, 2, 4, 7, 7], "num3": [1, 6, 4, 5, 6, 6, 2], "conditions": [24, 800, "a", 12000], "internal_node_id": "0.0-78.0", "key_presses": [97, 100, 13, 97, 102, 13, 97, 99, 13, 97, 100, 13, 97, 105, 13, 98, 96, 13], "trial": 3, "time_elapsed": 675756, "type": "DISTRACTOR", "trial_index": 105, "num1": [9, 1, 3, 7, 9, 7, 8]}, "uniqueid": "MTK2298:34T446B1C1LOAWGSLESORWM6GG40C5", "dateTime": 1516985935739}, {"current_trial": 106, "trialdata": {"rt": -1, "trial_type": "single-stim", "stimulus": "<p id=\"stim\">10</p>", "internal_node_id": "0.0-79.0-0.0", "time_elapsed": 678836, "key_press": -1, "trial_index": 106}, "uniqueid": "MTK2298:34T446B1C1LOAWGSLESORWM6GG40C5", "dateTime": 1516985938819}, {"current_trial": 107, "trialdata": {"rt": -1, "trial_type": "single-stim", "stimulus": "<p id=\"stim\">9</p>", "internal_node_id": "0.0-79.0-1.0", "time_elapsed": 679876, "key_press": -1, "trial_index": 107}, "uniqueid": "MTK2298:34T446B1C1LOAWGSLESORWM6GG40C5", "dateTime": 1516985939859}, {"current_trial": 108, "trialdata": {"rt": -1, "trial_type": "single-stim", "stimulus": "<p id=\"stim\">8</p>", "internal_node_id": "0.0-79.0-2.0", "time_elapsed": 680908, "key_press": -1, "trial_index": 108}, "uniqueid": "MTK2298:34T446B1C1LOAWGSLESORWM6GG40C5", "dateTime": 1516985940891}, {"current_trial": 109, "trialdata": {"rt": -1, "trial_type": "single-stim", "stimulus": "<p id=\"stim\">7</p>", "internal_node_id": "0.0-79.0-3.0", "time_elapsed": 681927, "key_press": -1, "trial_index": 109}, "uniqueid": "MTK2298:34T446B1C1LOAWGSLESORWM6GG40C5", "dateTime": 1516985941910}, {"current_trial": 110, "trialdata": {"rt": -1, "trial_type": "single-stim", "stimulus": "<p id=\"stim\">6</p>", "internal_node_id": "0.0-79.0-4.0", "time_elapsed": 682961, "key_press": -1, "trial_index": 110}, "uniqueid": "MTK2298:34T446B1C1LOAWGSLESORWM6GG40C5", "dateTime": 1516985942944}, {"current_trial": 111, "trialdata": {"rt": -1, "trial_type": "single-stim", "stimulus": "<p id=\"stim\">5</p>", "internal_node_id": "0.0-79.0-5.0", "time_elapsed": 683993, "key_press": -1, "trial_index": 111}, "uniqueid": "MTK2298:34T446B1C1LOAWGSLESORWM6GG40C5", "dateTime": 1516985943976}, {"current_trial": 112, "trialdata": {"rt": -1, "trial_type": "single-stim", "stimulus": "<p id=\"stim\">4</p>", "internal_node_id": "0.0-79.0-6.0", "time_elapsed": 685014, "key_press": -1, "trial_index": 112}, "uniqueid": "MTK2298:34T446B1C1LOAWGSLESORWM6GG40C5", "dateTime": 1516985944997}, {"current_trial": 113, "trialdata": {"rt": -1, "trial_type": "single-stim", "stimulus": "<p id=\"stim\">3</p>", "internal_node_id": "0.0-79.0-7.0", "time_elapsed": 686047, "key_press": -1, "trial_index": 113}, "uniqueid": "MTK2298:34T446B1C1LOAWGSLESORWM6GG40C5", "dateTime": 1516985946030}, {"current_trial": 114, "trialdata": {"rt": -1, "trial_type": "single-stim", "stimulus": "<p id=\"stim\">2</p>", "internal_node_id": "0.0-79.0-8.0", "time_elapsed": 687066, "key_press": -1, "trial_index": 114}, "uniqueid": "MTK2298:34T446B1C1LOAWGSLESORWM6GG40C5", "dateTime": 1516985947049}, {"current_trial": 115, "trialdata": {"rt": -1, "trial_type": "single-stim", "stimulus": "<p id=\"stim\">1</p>", "internal_node_id": "0.0-79.0-9.0", "time_elapsed": 688107, "key_press": -1, "trial_index": 115}, "uniqueid": "MTK2298:34T446B1C1LOAWGSLESORWM6GG40C5", "dateTime": 1516985948090}, {"current_trial": 116, "trialdata": {"rt": -1, "trial_type": "single-stim", "stimulus": "<p id=\"stim\">+</p>", "internal_node_id": "0.0-80.0-0.0", "time_elapsed": 689627, "key_press": -1, "type": "FIXATION", "trial_index": 116}, "uniqueid": "MTK2298:34T446B1C1LOAWGSLESORWM6GG40C5", "dateTime": 1516985949610}, {"current_trial": 117, "trialdata": {"rt": -1000, "trial_type": "single-audio", "word": "poet", "stimulus": "/static/audio/wordpool/POET.wav", "conditions": [24, 800, "a", 12000], "internal_node_id": "0.0-81.0", "trial": 3, "time_elapsed": 691391, "serialpos": 0, "key_press": -1, "wordID": 1094, "type": "PRES_AUD", "trial_index": 117}, "uniqueid": "MTK2298:34T446B1C1LOAWGSLESORWM6GG40C5", "dateTime": 1516985951374}, {"current_trial": 118, "trialdata": {"rt": -1000, "trial_type": "single-audio", "word": "europe", "stimulus": "/static/audio/wordpool/EUROPE.wav", "conditions": [24, 800, "a", 12000], "internal_node_id": "0.0-82.0", "trial": 3, "time_elapsed": 693108, "serialpos": 1, "key_press": -1, "wordID": 540, "type": "PRES_AUD", "trial_index": 118}, "uniqueid": "MTK2298:34T446B1C1LOAWGSLESORWM6GG40C5", "dateTime": 1516985953091}, {"current_trial": 119, "trialdata": {"rt": -1000, "trial_type": "single-audio", "word": "grape", "stimulus": "/static/audio/wordpool/GRAPE.wav", "conditions": [24, 800, "a", 12000], "internal_node_id": "0.0-83.0", "trial": 3, "time_elapsed": 695127, "serialpos": 2, "key_press": -1, "wordID": 653, "type": "PRES_AUD", "trial_index": 119}, "uniqueid": "MTK2298:34T446B1C1LOAWGSLESORWM6GG40C5", "dateTime": 1516985955110}, {"current_trial": 120, "trialdata": {"rt": -1000, "trial_type": "single-audio", "word": "quail", "stimulus": "/static/audio/wordpool/QUAIL.wav", "conditions": [24, 800, "a", 12000], "internal_node_id": "0.0-84.0", "trial": 3, "time_elapsed": 697173, "serialpos": 3, "key_press": -1, "wordID": 1146, "type": "PRES_AUD", "trial_index": 120}, "uniqueid": "MTK2298:34T446B1C1LOAWGSLESORWM6GG40C5", "dateTime": 1516985957156}, {"current_trial": 121, "trialdata": {"rt": -1000, "trial_type": "single-audio", "word": "comet", "stimulus": "/static/audio/wordpool/COMET.wav", "conditions": [24, 800, "a", 12000], "internal_node_id": "0.0-85.0", "trial": 3, "time_elapsed": 698895, "serialpos": 4, "key_press": -1, "wordID": 352, "type": "PRES_AUD", "trial_index": 121}, "uniqueid": "MTK2298:34T446B1C1LOAWGSLESORWM6GG40C5", "dateTime": 1516985958878}, {"current_trial": 122, "trialdata": {"rt": -1000, "trial_type": "single-audio", "word": "cashier", "stimulus": "/static/audio/wordpool/CASHIER.wav", "conditions": [24, 800, "a", 12000], "internal_node_id": "0.0-86.0", "trial": 3, "time_elapsed": 700871, "serialpos": 5, "key_press": -1, "wordID": 253, "type": "PRES_AUD", "trial_index": 122}, "uniqueid": "MTK2298:34T446B1C1LOAWGSLESORWM6GG40C5", "dateTime": 1516985960854}, {"current_trial": 123, "trialdata": {"rt": -1000, "trial_type": "single-audio", "word": "waiter", "stimulus": "/static/audio/wordpool/WAITER.wav", "conditions": [24, 800, "a", 12000], "internal_node_id": "0.0-87.0", "trial": 3, "time_elapsed": 702808, "serialpos": 6, "key_press": -1, "wordID": 1579, "type": "PRES_AUD", "trial_index": 123}, "uniqueid": "MTK2298:34T446B1C1LOAWGSLESORWM6GG40C5", "dateTime": 1516985962791}, {"current_trial": 124, "trialdata": {"rt": -1000, "trial_type": "single-audio", "word": "turkey", "stimulus": "/static/audio/wordpool/TURKEY.wav", "conditions": [24, 800, "a", 12000], "internal_node_id": "0.0-88.0", "trial": 3, "time_elapsed": 704532, "serialpos": 7, "key_press": -1, "wordID": 1519, "type": "PRES_AUD", "trial_index": 124}, "uniqueid": "MTK2298:34T446B1C1LOAWGSLESORWM6GG40C5", "dateTime": 1516985964515}, {"current_trial": 125, "trialdata": {"rt": -1000, "trial_type": "single-audio", "word": "snack", "stimulus": "/static/audio/wordpool/SNACK.wav", "conditions": [24, 800, "a", 12000], "internal_node_id": "0.0-89.0", "trial": 3, "time_elapsed": 706586, "serialpos": 8, "key_press": -1, "wordID": 1330, "type": "PRES_AUD", "trial_index": 125}, "uniqueid": "MTK2298:34T446B1C1LOAWGSLESORWM6GG40C5", "dateTime": 1516985966569}, {"current_trial": 126, "trialdata": {"rt": -1000, "trial_type": "single-audio", "word": "brandy", "stimulus": "/static/audio/wordpool/BRANDY.wav", "conditions": [24, 800, "a", 12000], "internal_node_id": "0.0-90.0", "trial": 3, "time_elapsed": 708621, "serialpos": 9, "key_press": -1, "wordID": 168, "type": "PRES_AUD", "trial_index": 126}, "uniqueid": "MTK2298:34T446B1C1LOAWGSLESORWM6GG40C5", "dateTime": 1516985968604}, {"current_trial": 127, "trialdata": {"rt": -1000, "trial_type": "single-audio", "word": "cashew", "stimulus": "/static/audio/wordpool/CASHEW.wav", "conditions": [24, 800, "a", 12000], "internal_node_id": "0.0-91.0", "trial": 3, "time_elapsed": 710608, "serialpos": 10, "key_press": -1, "wordID": 252, "type": "PRES_AUD", "trial_index": 127}, "uniqueid": "MTK2298:34T446B1C1LOAWGSLESORWM6GG40C5", "dateTime": 1516985970591}, {"current_trial": 128, "trialdata": {"rt": -1000, "trial_type": "single-audio", "word": "jury", "stimulus": "/static/audio/wordpool/JURY.wav", "conditions": [24, 800, "a", 12000], "internal_node_id": "0.0-92.0", "trial": 3, "time_elapsed": 712460, "serialpos": 11, "key_press": -1, "wordID": 765, "type": "PRES_AUD", "trial_index": 128}, "uniqueid": "MTK2298:34T446B1C1LOAWGSLESORWM6GG40C5", "dateTime": 1516985972459}, {"current_trial": 129, "trialdata": {"rt": -1000, "trial_type": "single-audio", "word": "pistol", "stimulus": "/static/audio/wordpool/PISTOL.wav", "conditions": [24, 800, "a", 12000], "internal_node_id": "0.0-93.0", "trial": 3, "time_elapsed": 714420, "serialpos": 12, "key_press": -1, "wordID": 1074, "type": "PRES_AUD", "trial_index": 129}, "uniqueid": "MTK2298:34T446B1C1LOAWGSLESORWM6GG40C5", "dateTime": 1516985974403}, {"current_trial": 130, "trialdata": {"rt": -1000, "trial_type": "single-audio", "word": "robber", "stimulus": "/static/audio/wordpool/ROBBER.wav", "conditions": [24, 800, "a", 12000], "internal_node_id": "0.0-94.0", "trial": 3, "time_elapsed": 716134, "serialpos": 13, "key_press": -1, "wordID": 1196, "type": "PRES_AUD", "trial_index": 130}, "uniqueid": "MTK2298:34T446B1C1LOAWGSLESORWM6GG40C5", "dateTime": 1516985976117}, {"current_trial": 131, "trialdata": {"rt": -1000, "trial_type": "single-audio", "word": "banker", "stimulus": "/static/audio/wordpool/BANKER.wav", "conditions": [24, 800, "a", 12000], "internal_node_id": "0.0-95.0", "trial": 3, "time_elapsed": 717821, "serialpos": 14, "key_press": -1, "wordID": 83, "type": "PRES_AUD", "trial_index": 131}, "uniqueid": "MTK2298:34T446B1C1LOAWGSLESORWM6GG40C5", "dateTime": 1516985977804}, {"current_trial": 132, "trialdata": {"rt": -1000, "trial_type": "single-audio", "word": "bike", "stimulus": "/static/audio/wordpool/BIKE.wav", "conditions": [24, 800, "a", 12000], "internal_node_id": "0.0-96.0", "trial": 3, "time_elapsed": 719472, "serialpos": 15, "key_press": -1, "wordID": 124, "type": "PRES_AUD", "trial_index": 132}, "uniqueid": "MTK2298:34T446B1C1LOAWGSLESORWM6GG40C5", "dateTime": 1516985979455}, {"current_trial": 133, "trialdata": {"rt": -1000, "trial_type": "single-audio", "word": "twig", "stimulus": "/static/audio/wordpool/TWIG.wav", "conditions": [24, 800, "a", 12000], "internal_node_id": "0.0-97.0", "trial": 3, "time_elapsed": 721158, "serialpos": 16, "key_press": -1, "wordID": 1526, "type": "PRES_AUD", "trial_index": 133}, "uniqueid": "MTK2298:34T446B1C1LOAWGSLESORWM6GG40C5", "dateTime": 1516985981141}, {"current_trial": 134, "trialdata": {"rt": -1000, "trial_type": "single-audio", "word": "atom", "stimulus": "/static/audio/wordpool/ATOM.wav", "conditions": [24, 800, "a", 12000], "internal_node_id": "0.0-98.0", "trial": 3, "time_elapsed": 722929, "serialpos": 17, "key_press": -1, "wordID": 54, "type": "PRES_AUD", "trial_index": 134}, "uniqueid": "MTK2298:34T446B1C1LOAWGSLESORWM6GG40C5", "dateTime": 1516985982912}, {"current_trial": 135, "trialdata": {"rt": -1000, "trial_type": "single-audio", "word": "daughter", "stimulus": "/static/audio/wordpool/DAUGHTER.wav", "conditions": [24, 800, "a", 12000], "internal_node_id": "0.0-99.0", "trial": 3, "time_elapsed": 724708, "serialpos": 18, "key_press": -1, "wordID": 441, "type": "PRES_AUD", "trial_index": 135}, "uniqueid": "MTK2298:34T446B1C1LOAWGSLESORWM6GG40C5", "dateTime": 1516985984691}, {"current_trial": 136, "trialdata": {"rt": -1000, "trial_type": "single-audio", "word": "shirt", "stimulus": "/static/audio/wordpool/SHIRT.wav", "conditions": [24, 800, "a", 12000], "internal_node_id": "0.0-100.0", "trial": 3, "time_elapsed": 726611, "serialpos": 19, "key_press": -1, "wordID": 1286, "type": "PRES_AUD", "trial_index": 136}, "uniqueid": "MTK2298:34T446B1C1LOAWGSLESORWM6GG40C5", "dateTime": 1516985986594}, {"current_trial": 137, "trialdata": {"rt": -1000, "trial_type": "single-audio", "word": "headband", "stimulus": "/static/audio/wordpool/HEADBAND.wav", "conditions": [24, 800, "a", 12000], "internal_node_id": "0.0-101.0", "trial": 3, "time_elapsed": 728388, "serialpos": 20, "key_press": -1, "wordID": 695, "type": "PRES_AUD", "trial_index": 137}, "uniqueid": "MTK2298:34T446B1C1LOAWGSLESORWM6GG40C5", "dateTime": 1516985988371}, {"current_trial": 138, "trialdata": {"rt": -1000, "trial_type": "single-audio", "word": "donor", "stimulus": "/static/audio/wordpool/DONOR.wav", "conditions": [24, 800, "a", 12000], "internal_node_id": "0.0-102.0", "trial": 3, "time_elapsed": 730365, "serialpos": 21, "key_press": -1, "wordID": 484, "type": "PRES_AUD", "trial_index": 138}, "uniqueid": "MTK2298:34T446B1C1LOAWGSLESORWM6GG40C5", "dateTime": 1516985990348}, {"current_trial": 139, "trialdata": {"rt": -1000, "trial_type": "single-audio", "word": "sculpture", "stimulus": "/static/audio/wordpool/SCULPTURE.wav", "conditions": [24, 800, "a", 12000], "internal_node_id": "0.0-103.0", "trial": 3, "time_elapsed": 732354, "serialpos": 22, "key_press": -1, "wordID": 1257, "type": "PRES_AUD", "trial_index": 139}, "uniqueid": "MTK2298:34T446B1C1LOAWGSLESORWM6GG40C5", "dateTime": 1516985992337}, {"current_trial": 140, "trialdata": {"rt": -1000, "trial_type": "single-audio", "word": "bank", "stimulus": "/static/audio/wordpool/BANK.wav", "conditions": [24, 800, "a", 12000], "internal_node_id": "0.0-104.0", "trial": 3, "time_elapsed": 734196, "serialpos": 23, "key_press": -1, "wordID": 82, "type": "PRES_AUD", "trial_index": 140}, "uniqueid": "MTK2298:34T446B1C1LOAWGSLESORWM6GG40C5", "dateTime": 1516985994179}, {"current_trial": 141, "trialdata": {"rt": -1, "trial_type": "single-stim", "stimulus": "", "internal_node_id": "0.0-105.0-0.0", "time_elapsed": 735609, "key_press": -1, "type": "PRE_RECALL_DELAY", "trial_index": 141}, "uniqueid": "MTK2298:34T446B1C1LOAWGSLESORWM6GG40C5", "dateTime": 1516985995592}, {"current_trial": 142, "trialdata": {"rt": -1000, "trial_type": "single-audio", "stimulus": "/static/audio/400Hz.wav", "internal_node_id": "0.0-106.0", "time_elapsed": 736143, "key_press": -1, "type": "PRE_RECALL_ALERT", "trial_index": 142}, "uniqueid": "MTK2298:34T446B1C1LOAWGSLESORWM6GG40C5", "dateTime": 1516985996126}, {"current_trial": 143, "trialdata": {"rt": [1986, 3557, 7496, 10822, 12054, 15596, 16926, 25477, 29136], "recwords": ["bank", "robber", "jury", "pistol", "rob", "shirt", "donor", "train", "bicycle"], "key_times": [1198, 1362, 1568, 1676, 1986, 2179, 2353, 2586, 2738, 2879, 3050, 3557, 6152, 6330, 6440, 6589, 7496, 7913, 8100, 8195, 8404, 9672, 9830, 10822, 11065, 11179, 11414, 12054, 12868, 13245, 13478, 13649, 13718, 13854, 13998, 15596, 15926, 16054, 16179, 16244, 16380, 16926, 24380, 24562, 24874, 24999, 25084, 25477, 26706, 27068, 27360, 27508, 27625, 27783, 27859, 27993, 28104, 29136], "trial_type": "free-recall", "conditions": [24, 800, "a", 12000], "internal_node_id": "0.0-107.0-0.0", "key_presses": [66, 65, 78, 75, 13, 82, 79, 66, 66, 69, 82, 13, 74, 85, 82, 89, 13, 80, 73, 83, 84, 79, 76, 13, 82, 79, 66, 13, 67, 8, 83, 72, 73, 82, 84, 13, 68, 79, 78, 79, 82, 13, 84, 82, 65, 73, 78, 13, 73, 8, 66, 73, 67, 89, 67, 76, 69, 13], "trial": 3, "time_elapsed": 797795, "type": "FREE_RECALL", "trial_index": 143}, "uniqueid": "MTK2298:34T446B1C1LOAWGSLESORWM6GG40C5", "dateTime": 1516986057778}, {"current_trial": 144, "trialdata": {"rt": 1203, "trial_type": "text", "internal_node_id": "0.0-108.0", "time_elapsed": 801038, "key_press": 32, "type": "INSTRUCTIONS", "trial_index": 144}, "uniqueid": "MTK2298:34T446B1C1LOAWGSLESORWM6GG40C5", "dateTime": 1516986061021}, {"current_trial": 145, "trialdata": {"rt": [2443, 4144, 6309, 8476, 9953, 11861, 13833, 15356, 17481, 19123, 21201, 22736], "trial_type": "math-distractor", "key_times": [2035, 2165, 2443, 3847, 3976, 4144, 5473, 5592, 6309, 8140, 8310, 8476, 9637, 9806, 9953, 11527, 11672, 11861, 13587, 13698, 13833, 15041, 15178, 15356, 17231, 17300, 17481, 18694, 18898, 19123, 20821, 20938, 21201, 22461, 22579, 22736], "responses": ["18", "16", "20", "13", "19", "19", "20", "18", "16", "17", "18", "18"], "num2": [9, 5, 8, 3, 2, 9, 8, 4, 3, 7, 8, 7, 3], "num3": [3, 6, 3, 2, 8, 7, 4, 9, 4, 1, 8, 9, 2], "conditions": [12, 1600, "a", 24000], "internal_node_id": "0.0-109.0", "key_presses": [97, 104, 13, 97, 102, 13, 98, 96, 13, 97, 99, 13, 97, 105, 13, 97, 105, 13, 98, 96, 13, 97, 104, 13, 97, 102, 13, 97, 103, 13, 97, 104, 13, 97, 104, 13], "trial": 4, "time_elapsed": 827807, "type": "DISTRACTOR", "trial_index": 145, "num1": [6, 5, 9, 8, 9, 3, 8, 5, 9, 9, 2, 2, 1]}, "uniqueid": "MTK2298:34T446B1C1LOAWGSLESORWM6GG40C5", "dateTime": 1516986087790}, {"current_trial": 146, "trialdata": {"rt": -1, "trial_type": "single-stim", "stimulus": "<p id=\"stim\">10</p>", "internal_node_id": "0.0-110.0-0.0", "time_elapsed": 830860, "key_press": -1, "trial_index": 146}, "uniqueid": "MTK2298:34T446B1C1LOAWGSLESORWM6GG40C5", "dateTime": 1516986090843}, {"current_trial": 147, "trialdata": {"rt": -1, "trial_type": "single-stim", "stimulus": "<p id=\"stim\">9</p>", "internal_node_id": "0.0-110.0-1.0", "time_elapsed": 831888, "key_press": -1, "trial_index": 147}, "uniqueid": "MTK2298:34T446B1C1LOAWGSLESORWM6GG40C5", "dateTime": 1516986091871}, {"current_trial": 148, "trialdata": {"rt": -1, "trial_type": "single-stim", "stimulus": "<p id=\"stim\">8</p>", "internal_node_id": "0.0-110.0-2.0", "time_elapsed": 832915, "key_press": -1, "trial_index": 148}, "uniqueid": "MTK2298:34T446B1C1LOAWGSLESORWM6GG40C5", "dateTime": 1516986092898}, {"current_trial": 149, "trialdata": {"rt": -1, "trial_type": "single-stim", "stimulus": "<p id=\"stim\">7</p>", "internal_node_id": "0.0-110.0-3.0", "time_elapsed": 833946, "key_press": -1, "trial_index": 149}, "uniqueid": "MTK2298:34T446B1C1LOAWGSLESORWM6GG40C5", "dateTime": 1516986093929}, {"current_trial": 150, "trialdata": {"rt": -1, "trial_type": "single-stim", "stimulus": "<p id=\"stim\">6</p>", "internal_node_id": "0.0-110.0-4.0", "time_elapsed": 834986, "key_press": -1, "trial_index": 150}, "uniqueid": "MTK2298:34T446B1C1LOAWGSLESORWM6GG40C5", "dateTime": 1516986094969}, {"current_trial": 151, "trialdata": {"rt": -1, "trial_type": "single-stim", "stimulus": "<p id=\"stim\">5</p>", "internal_node_id": "0.0-110.0-5.0", "time_elapsed": 836001, "key_press": -1, "trial_index": 151}, "uniqueid": "MTK2298:34T446B1C1LOAWGSLESORWM6GG40C5", "dateTime": 1516986095984}, {"current_trial": 152, "trialdata": {"rt": -1, "trial_type": "single-stim", "stimulus": "<p id=\"stim\">4</p>", "internal_node_id": "0.0-110.0-6.0", "time_elapsed": 837032, "key_press": -1, "trial_index": 152}, "uniqueid": "MTK2298:34T446B1C1LOAWGSLESORWM6GG40C5", "dateTime": 1516986097015}, {"current_trial": 153, "trialdata": {"rt": -1, "trial_type": "single-stim", "stimulus": "<p id=\"stim\">3</p>", "internal_node_id": "0.0-110.0-7.0", "time_elapsed": 838063, "key_press": -1, "trial_index": 153}, "uniqueid": "MTK2298:34T446B1C1LOAWGSLESORWM6GG40C5", "dateTime": 1516986098046}, {"current_trial": 154, "trialdata": {"rt": -1, "trial_type": "single-stim", "stimulus": "<p id=\"stim\">2</p>", "internal_node_id": "0.0-110.0-8.0", "time_elapsed": 839096, "key_press": -1, "trial_index": 154}, "uniqueid": "MTK2298:34T446B1C1LOAWGSLESORWM6GG40C5", "dateTime": 1516986099079}, {"current_trial": 155, "trialdata": {"rt": -1, "trial_type": "single-stim", "stimulus": "<p id=\"stim\">1</p>", "internal_node_id": "0.0-110.0-9.0", "time_elapsed": 840129, "key_press": -1, "trial_index": 155}, "uniqueid": "MTK2298:34T446B1C1LOAWGSLESORWM6GG40C5", "dateTime": 1516986100112}, {"current_trial": 156, "trialdata": {"rt": -1, "trial_type": "single-stim", "stimulus": "<p id=\"stim\">+</p>", "internal_node_id": "0.0-111.0-0.0", "time_elapsed": 841663, "key_press": -1, "type": "FIXATION", "trial_index": 156}, "uniqueid": "MTK2298:34T446B1C1LOAWGSLESORWM6GG40C5", "dateTime": 1516986101646}, {"current_trial": 157, "trialdata": {"rt": -1000, "trial_type": "single-audio", "word": "possum", "stimulus": "/static/audio/wordpool/POSSUM.wav", "conditions": [12, 1600, "a", 24000], "internal_node_id": "0.0-112.0", "trial": 4, "time_elapsed": 844146, "serialpos": 0, "key_press": -1, "wordID": 1111, "type": "PRES_AUD", "trial_index": 157}, "uniqueid": "MTK2298:34T446B1C1LOAWGSLESORWM6GG40C5", "dateTime": 1516986104129}, {"current_trial": 158, "trialdata": {"rt": -1000, "trial_type": "single-audio", "word": "panther", "stimulus": "/static/audio/wordpool/PANTHER.wav", "conditions": [12, 1600, "a", 24000], "internal_node_id": "0.0-113.0", "trial": 4, "time_elapsed": 846881, "serialpos": 1, "key_press": -1, "wordID": 1008, "type": "PRES_AUD", "trial_index": 158}, "uniqueid": "MTK2298:34T446B1C1LOAWGSLESORWM6GG40C5", "dateTime": 1516986106864}, {"current_trial": 159, "trialdata": {"rt": -1000, "trial_type": "single-audio", "word": "thief", "stimulus": "/static/audio/wordpool/THIEF.wav", "conditions": [12, 1600, "a", 24000], "internal_node_id": "0.0-114.0", "trial": 4, "time_elapsed": 849450, "serialpos": 2, "key_press": -1, "wordID": 1455, "type": "PRES_AUD", "trial_index": 159}, "uniqueid": "MTK2298:34T446B1C1LOAWGSLESORWM6GG40C5", "dateTime": 1516986109433}, {"current_trial": 160, "trialdata": {"rt": -1000, "trial_type": "single-audio", "word": "widow", "stimulus": "/static/audio/wordpool/WIDOW.wav", "conditions": [12, 1600, "a", 24000], "internal_node_id": "0.0-115.0", "trial": 4, "time_elapsed": 852261, "serialpos": 3, "key_press": -1, "wordID": 1607, "type": "PRES_AUD", "trial_index": 160}, "uniqueid": "MTK2298:34T446B1C1LOAWGSLESORWM6GG40C5", "dateTime": 1516986112244}, {"current_trial": 161, "trialdata": {"rt": -1000, "trial_type": "single-audio", "word": "juggler", "stimulus": "/static/audio/wordpool/JUGGLER.wav", "conditions": [12, 1600, "a", 24000], "internal_node_id": "0.0-116.0", "trial": 4, "time_elapsed": 854766, "serialpos": 4, "key_press": -1, "wordID": 762, "type": "PRES_AUD", "trial_index": 161}, "uniqueid": "MTK2298:34T446B1C1LOAWGSLESORWM6GG40C5", "dateTime": 1516986114749}, {"current_trial": 162, "trialdata": {"rt": -1000, "trial_type": "single-audio", "word": "clock", "stimulus": "/static/audio/wordpool/CLOCK.wav", "conditions": [12, 1600, "a", 24000], "internal_node_id": "0.0-117.0", "trial": 4, "time_elapsed": 857403, "serialpos": 5, "key_press": -1, "wordID": 324, "type": "PRES_AUD", "trial_index": 162}, "uniqueid": "MTK2298:34T446B1C1LOAWGSLESORWM6GG40C5", "dateTime": 1516986117386}, {"current_trial": 163, "trialdata": {"rt": -1000, "trial_type": "single-audio", "word": "suitcase", "stimulus": "/static/audio/wordpool/SUITCASE.wav", "conditions": [12, 1600, "a", 24000], "internal_node_id": "0.0-118.0", "trial": 4, "time_elapsed": 860257, "serialpos": 6, "key_press": -1, "wordID": 1402, "type": "PRES_AUD", "trial_index": 163}, "uniqueid": "MTK2298:34T446B1C1LOAWGSLESORWM6GG40C5", "dateTime": 1516986120240}, {"current_trial": 164, "trialdata": {"rt": -1000, "trial_type": "single-audio", "word": "vagrant", "stimulus": "/static/audio/wordpool/VAGRANT.wav", "conditions": [12, 1600, "a", 24000], "internal_node_id": "0.0-119.0", "trial": 4, "time_elapsed": 862965, "serialpos": 7, "key_press": -1, "wordID": 1543, "type": "PRES_AUD", "trial_index": 164}, "uniqueid": "MTK2298:34T446B1C1LOAWGSLESORWM6GG40C5", "dateTime": 1516986122948}, {"current_trial": 165, "trialdata": {"rt": -1000, "trial_type": "single-audio", "word": "tombstone", "stimulus": "/static/audio/wordpool/TOMBSTONE.wav", "conditions": [12, 1600, "a", 24000], "internal_node_id": "0.0-120.0", "trial": 4, "time_elapsed": 865745, "serialpos": 8, "key_press": -1, "wordID": 1477, "type": "PRES_AUD", "trial_index": 165}, "uniqueid": "MTK2298:34T446B1C1LOAWGSLESORWM6GG40C5", "dateTime": 1516986125728}, {"current_trial": 166, "trialdata": {"rt": -1000, "trial_type": "single-audio", "word": "seagull", "stimulus": "/static/audio/wordpool/SEAGULL.wav", "conditions": [12, 1600, "a", 24000], "internal_node_id": "0.0-121.0", "trial": 4, "time_elapsed": 868403, "serialpos": 9, "key_press": -1, "wordID": 1260, "type": "PRES_AUD", "trial_index": 166}, "uniqueid": "MTK2298:34T446B1C1LOAWGSLESORWM6GG40C5", "dateTime": 1516986128386}, {"current_trial": 167, "trialdata": {"rt": -1000, "trial_type": "single-audio", "word": "luggage", "stimulus": "/static/audio/wordpool/LUGGAGE.wav", "conditions": [12, 1600, "a", 24000], "internal_node_id": "0.0-122.0", "trial": 4, "time_elapsed": 871142, "serialpos": 10, "key_press": -1, "wordID": 846, "type": "PRES_AUD", "trial_index": 167}, "uniqueid": "MTK2298:34T446B1C1LOAWGSLESORWM6GG40C5", "dateTime": 1516986131125}, {"current_trial": 168, "trialdata": {"rt": -1000, "trial_type": "single-audio", "word": "bug", "stimulus": "/static/audio/wordpool/BUG.wav", "conditions": [12, 1600, "a", 24000], "internal_node_id": "0.0-123.0", "trial": 4, "time_elapsed": 873622, "serialpos": 11, "key_press": -1, "wordID": 186, "type": "PRES_AUD", "trial_index": 168}, "uniqueid": "MTK2298:34T446B1C1LOAWGSLESORWM6GG40C5", "dateTime": 1516986133605}, {"current_trial": 169, "trialdata": {"rt": -1, "trial_type": "single-stim", "stimulus": "", "internal_node_id": "0.0-124.0-0.0", "time_elapsed": 874875, "key_press": -1, "type": "PRE_RECALL_DELAY", "trial_index": 169}, "uniqueid": "MTK2298:34T446B1C1LOAWGSLESORWM6GG40C5", "dateTime": 1516986134858}, {"current_trial": 170, "trialdata": {"rt": -1000, "trial_type": "single-audio", "stimulus": "/static/audio/400Hz.wav", "internal_node_id": "0.0-125.0", "time_elapsed": 875402, "key_press": -1, "type": "PRE_RECALL_ALERT", "trial_index": 170}, "uniqueid": "MTK2298:34T446B1C1LOAWGSLESORWM6GG40C5", "dateTime": 1516986135385}, {"current_trial": 171, "trialdata": {"rt": [1862, 4723, 7322, 10017, 13787, 18414, 20665, 33063, 40378, 50090, 60943], "recwords": ["bug", "luggage", "vagrant", "suitcase", "panther", "tombstone", "seagull", "widow", "bug", "luggage", "juggle"], "key_times": [1380, 1463, 1566, 1862, 2365, 2576, 2715, 2876, 3438, 3802, 4171, 4264, 4458, 4723, 5273, 5464, 5572, 5812, 6497, 6604, 6771, 7322, 8355, 8497, 8649, 8731, 8975, 9136, 9310, 9509, 10017, 10366, 10519, 10650, 10820, 10937, 11061, 11248, 13787, 16390, 16471, 16572, 16770, 17294, 17480, 17582, 17654, 17802, 18414, 18647, 18849, 19052, 19196, 19380, 19617, 19762, 20665, 31512, 31708, 31895, 32067, 32185, 33063, 39217, 39303, 39408, 40378, 48297, 48573, 48693, 48869, 49118, 49688, 49876, 50090, 59274, 59449, 59578, 59766, 59877, 59998, 60943], "trial_type": "free-recall", "conditions": [12, 1600, "a", 24000], "internal_node_id": "0.0-126.0-0.0", "key_presses": [66, 85, 71, 13, 76, 85, 71, 71, 65, 69, 8, 71, 69, 13, 86, 65, 71, 82, 65, 78, 84, 13, 83, 85, 73, 84, 67, 65, 83, 69, 13, 80, 65, 78, 84, 72, 69, 82, 13, 84, 79, 77, 66, 83, 84, 79, 78, 69, 13, 83, 69, 65, 71, 85, 76, 76, 13, 87, 73, 68, 79, 87, 13, 66, 85, 71, 13, 76, 85, 71, 71, 65, 71, 69, 13, 74, 85, 71, 71, 76, 69, 13], "trial": 4, "time_elapsed": 937406, "type": "FREE_RECALL", "trial_index": 171}, "uniqueid": "MTK2298:34T446B1C1LOAWGSLESORWM6GG40C5", "dateTime": 1516986197389}, {"current_trial": 172, "trialdata": {"rt": 991, "trial_type": "text", "internal_node_id": "0.0-127.0", "time_elapsed": 940456, "key_press": 32, "type": "INSTRUCTIONS", "trial_index": 172}, "uniqueid": "MTK2298:34T446B1C1LOAWGSLESORWM6GG40C5", "dateTime": 1516986200439}, {"current_trial": 173, "trialdata": {"rt": [2300, 3921, 7008, 8577, 11083, 13310, 15256, 17857, 19351, 21054, 22973], "trial_type": "math-distractor", "key_times": [1644, 1906, 2300, 3597, 3732, 3921, 6070, 6199, 7008, 8265, 8416, 8577, 10121, 10620, 11083, 12961, 13174, 13310, 14913, 15092, 15256, 17532, 17637, 17857, 19012, 19128, 19351, 20721, 20799, 21054, 22704, 22826, 22973], "responses": ["13", "19", "20", "13", "17", "14", "17", "15", "13", "15", "11"], "num2": [2, 7, 8, 5, 3, 4, 7, 5, 6, 5, 1, 4], "num3": [3, 3, 5, 2, 5, 3, 6, 6, 1, 2, 6, 8], "conditions": [24, 800, "a", 24000], "internal_node_id": "0.0-128.0", "key_presses": [97, 99, 13, 97, 105, 13, 98, 96, 13, 97, 99, 13, 97, 103, 13, 97, 100, 13, 97, 103, 13, 97, 101, 13, 97, 99, 13, 97, 101, 13, 97, 97, 13], "trial": 5, "time_elapsed": 967271, "type": "DISTRACTOR", "trial_index": 173, "num1": [8, 9, 7, 6, 9, 7, 4, 4, 6, 8, 4, 7]}, "uniqueid": "MTK2298:34T446B1C1LOAWGSLESORWM6GG40C5", "dateTime": 1516986227254}, {"current_trial": 174, "trialdata": {"rt": -1, "trial_type": "single-stim", "stimulus": "<p id=\"stim\">10</p>", "internal_node_id": "0.0-129.0-0.0", "time_elapsed": 970342, "key_press": -1, "trial_index": 174}, "uniqueid": "MTK2298:34T446B1C1LOAWGSLESORWM6GG40C5", "dateTime": 1516986230325}, {"current_trial": 175, "trialdata": {"rt": -1, "trial_type": "single-stim", "stimulus": "<p id=\"stim\">9</p>", "internal_node_id": "0.0-129.0-1.0", "time_elapsed": 971374, "key_press": -1, "trial_index": 175}, "uniqueid": "MTK2298:34T446B1C1LOAWGSLESORWM6GG40C5", "dateTime": 1516986231357}, {"current_trial": 176, "trialdata": {"rt": -1, "trial_type": "single-stim", "stimulus": "<p id=\"stim\">8</p>", "internal_node_id": "0.0-129.0-2.0", "time_elapsed": 972419, "key_press": -1, "trial_index": 176}, "uniqueid": "MTK2298:34T446B1C1LOAWGSLESORWM6GG40C5", "dateTime": 1516986232402}, {"current_trial": 177, "trialdata": {"rt": -1, "trial_type": "single-stim", "stimulus": "<p id=\"stim\">7</p>", "internal_node_id": "0.0-129.0-3.0", "time_elapsed": 973455, "key_press": -1, "trial_index": 177}, "uniqueid": "MTK2298:34T446B1C1LOAWGSLESORWM6GG40C5", "dateTime": 1516986233438}, {"current_trial": 178, "trialdata": {"rt": -1, "trial_type": "single-stim", "stimulus": "<p id=\"stim\">6</p>", "internal_node_id": "0.0-129.0-4.0", "time_elapsed": 974490, "key_press": -1, "trial_index": 178}, "uniqueid": "MTK2298:34T446B1C1LOAWGSLESORWM6GG40C5", "dateTime": 1516986234473}, {"current_trial": 179, "trialdata": {"rt": -1, "trial_type": "single-stim", "stimulus": "<p id=\"stim\">5</p>", "internal_node_id": "0.0-129.0-5.0", "time_elapsed": 975526, "key_press": -1, "trial_index": 179}, "uniqueid": "MTK2298:34T446B1C1LOAWGSLESORWM6GG40C5", "dateTime": 1516986235509}, {"current_trial": 180, "trialdata": {"rt": -1, "trial_type": "single-stim", "stimulus": "<p id=\"stim\">4</p>", "internal_node_id": "0.0-129.0-6.0", "time_elapsed": 976559, "key_press": -1, "trial_index": 180}, "uniqueid": "MTK2298:34T446B1C1LOAWGSLESORWM6GG40C5", "dateTime": 1516986236542}, {"current_trial": 181, "trialdata": {"rt": -1, "trial_type": "single-stim", "stimulus": "<p id=\"stim\">3</p>", "internal_node_id": "0.0-129.0-7.0", "time_elapsed": 977583, "key_press": -1, "trial_index": 181}, "uniqueid": "MTK2298:34T446B1C1LOAWGSLESORWM6GG40C5", "dateTime": 1516986237566}, {"current_trial": 182, "trialdata": {"rt": -1, "trial_type": "single-stim", "stimulus": "<p id=\"stim\">2</p>", "internal_node_id": "0.0-129.0-8.0", "time_elapsed": 978605, "key_press": -1, "trial_index": 182}, "uniqueid": "MTK2298:34T446B1C1LOAWGSLESORWM6GG40C5", "dateTime": 1516986238588}, {"current_trial": 183, "trialdata": {"rt": -1, "trial_type": "single-stim", "stimulus": "<p id=\"stim\">1</p>", "internal_node_id": "0.0-129.0-9.0", "time_elapsed": 979634, "key_press": -1, "trial_index": 183}, "uniqueid": "MTK2298:34T446B1C1LOAWGSLESORWM6GG40C5", "dateTime": 1516986239617}, {"current_trial": 184, "trialdata": {"rt": -1, "trial_type": "single-stim", "stimulus": "<p id=\"stim\">+</p>", "internal_node_id": "0.0-130.0-0.0", "time_elapsed": 981145, "key_press": -1, "type": "FIXATION", "trial_index": 184}, "uniqueid": "MTK2298:34T446B1C1LOAWGSLESORWM6GG40C5", "dateTime": 1516986241128}, {"current_trial": 185, "trialdata": {"rt": -1000, "trial_type": "single-audio", "word": "freezer", "stimulus": "/static/audio/wordpool/FREEZER.wav", "conditions": [24, 800, "a", 24000], "internal_node_id": "0.0-131.0", "trial": 5, "time_elapsed": 983016, "serialpos": 0, "key_press": -1, "wordID": 603, "type": "PRES_AUD", "trial_index": 185}, "uniqueid": "MTK2298:34T446B1C1LOAWGSLESORWM6GG40C5", "dateTime": 1516986242999}, {"current_trial": 186, "trialdata": {"rt": -1000, "trial_type": "single-audio", "word": "liver", "stimulus": "/static/audio/wordpool/LIVER.wav", "conditions": [24, 800, "a", 24000], "internal_node_id": "0.0-132.0", "trial": 5, "time_elapsed": 984954, "serialpos": 1, "key_press": -1, "wordID": 832, "type": "PRES_AUD", "trial_index": 186}, "uniqueid": "MTK2298:34T446B1C1LOAWGSLESORWM6GG40C5", "dateTime": 1516986244937}, {"current_trial": 187, "trialdata": {"rt": -1000, "trial_type": "single-audio", "word": "passage", "stimulus": "/static/audio/wordpool/PASSAGE.wav", "conditions": [24, 800, "a", 24000], "internal_node_id": "0.0-133.0", "trial": 5, "time_elapsed": 986610, "serialpos": 2, "key_press": -1, "wordID": 1018, "type": "PRES_AUD", "trial_index": 187}, "uniqueid": "MTK2298:34T446B1C1LOAWGSLESORWM6GG40C5", "dateTime": 1516986246593}, {"current_trial": 188, "trialdata": {"rt": -1000, "trial_type": "single-audio", "word": "cloud", "stimulus": "/static/audio/wordpool/CLOUD.wav", "conditions": [24, 800, "a", 24000], "internal_node_id": "0.0-134.0", "trial": 5, "time_elapsed": 988438, "serialpos": 3, "key_press": -1, "wordID": 327, "type": "PRES_AUD", "trial_index": 188}, "uniqueid": "MTK2298:34T446B1C1LOAWGSLESORWM6GG40C5", "dateTime": 1516986248421}, {"current_trial": 189, "trialdata": {"rt": -1000, "trial_type": "single-audio", "word": "turnip", "stimulus": "/static/audio/wordpool/TURNIP.wav", "conditions": [24, 800, "a", 24000], "internal_node_id": "0.0-135.0", "trial": 5, "time_elapsed": 990184, "serialpos": 4, "key_press": -1, "wordID": 1520, "type": "PRES_AUD", "trial_index": 189}, "uniqueid": "MTK2298:34T446B1C1LOAWGSLESORWM6GG40C5", "dateTime": 1516986250167}, {"current_trial": 190, "trialdata": {"rt": -1000, "trial_type": "single-audio", "word": "london", "stimulus": "/static/audio/wordpool/LONDON.wav", "conditions": [24, 800, "a", 24000], "internal_node_id": "0.0-136.0", "trial": 5, "time_elapsed": 991938, "serialpos": 5, "key_press": -1, "wordID": 842, "type": "PRES_AUD", "trial_index": 190}, "uniqueid": "MTK2298:34T446B1C1LOAWGSLESORWM6GG40C5", "dateTime": 1516986251921}, {"current_trial": 191, "trialdata": {"rt": -1000, "trial_type": "single-audio", "word": "pork", "stimulus": "/static/audio/wordpool/PORK.wav", "conditions": [24, 800, "a", 24000], "internal_node_id": "0.0-137.0", "trial": 5, "time_elapsed": 993714, "serialpos": 6, "key_press": -1, "wordID": 1107, "type": "PRES_AUD", "trial_index": 191}, "uniqueid": "MTK2298:34T446B1C1LOAWGSLESORWM6GG40C5", "dateTime": 1516986253697}, {"current_trial": 192, "trialdata": {"rt": -1000, "trial_type": "single-audio", "word": "jelly", "stimulus": "/static/audio/wordpool/JELLY.wav", "conditions": [24, 800, "a", 24000], "internal_node_id": "0.0-138.0", "trial": 5, "time_elapsed": 995337, "serialpos": 7, "key_press": -1, "wordID": 754, "type": "PRES_AUD", "trial_index": 192}, "uniqueid": "MTK2298:34T446B1C1LOAWGSLESORWM6GG40C5", "dateTime": 1516986255320}, {"current_trial": 193, "trialdata": {"rt": -1000, "trial_type": "single-audio", "word": "jello", "stimulus": "/static/audio/wordpool/JELLO.wav", "conditions": [24, 800, "a", 24000], "internal_node_id": "0.0-139.0", "trial": 5, "time_elapsed": 997339, "serialpos": 8, "key_press": -1, "wordID": 753, "type": "PRES_AUD", "trial_index": 193}, "uniqueid": "MTK2298:34T446B1C1LOAWGSLESORWM6GG40C5", "dateTime": 1516986257322}, {"current_trial": 194, "trialdata": {"rt": -1000, "trial_type": "single-audio", "word": "beef", "stimulus": "/static/audio/wordpool/BEEF.wav", "conditions": [24, 800, "a", 24000], "internal_node_id": "0.0-140.0", "trial": 5, "time_elapsed": 999003, "serialpos": 9, "key_press": -1, "wordID": 112, "type": "PRES_AUD", "trial_index": 194}, "uniqueid": "MTK2298:34T446B1C1LOAWGSLESORWM6GG40C5", "dateTime": 1516986258986}, {"current_trial": 195, "trialdata": {"rt": -1000, "trial_type": "single-audio", "word": "survey", "stimulus": "/static/audio/wordpool/SURVEY.wav", "conditions": [24, 800, "a", 24000], "internal_node_id": "0.0-141.0", "trial": 5, "time_elapsed": 1000915, "serialpos": 10, "key_press": -1, "wordID": 1413, "type": "PRES_AUD", "trial_index": 195}, "uniqueid": "MTK2298:34T446B1C1LOAWGSLESORWM6GG40C5", "dateTime": 1516986260898}, {"current_trial": 196, "trialdata": {"rt": -1000, "trial_type": "single-audio", "word": "journal", "stimulus": "/static/audio/wordpool/JOURNAL.wav", "conditions": [24, 800, "a", 24000], "internal_node_id": "0.0-142.0", "trial": 5, "time_elapsed": 1002649, "serialpos": 11, "key_press": -1, "wordID": 759, "type": "PRES_AUD", "trial_index": 196}, "uniqueid": "MTK2298:34T446B1C1LOAWGSLESORWM6GG40C5", "dateTime": 1516986262632}, {"current_trial": 197, "trialdata": {"rt": -1000, "trial_type": "single-audio", "word": "camel", "stimulus": "/static/audio/wordpool/CAMEL.wav", "conditions": [24, 800, "a", 24000], "internal_node_id": "0.0-143.0", "trial": 5, "time_elapsed": 1004405, "serialpos": 12, "key_press": -1, "wordID": 222, "type": "PRES_AUD", "trial_index": 197}, "uniqueid": "MTK2298:34T446B1C1LOAWGSLESORWM6GG40C5", "dateTime": 1516986264388}, {"current_trial": 198, "trialdata": {"rt": -1000, "trial_type": "single-audio", "word": "hedge", "stimulus": "/static/audio/wordpool/HEDGE.wav", "conditions": [24, 800, "a", 24000], "internal_node_id": "0.0-144.0", "trial": 5, "time_elapsed": 1006350, "serialpos": 13, "key_press": -1, "wordID": 698, "type": "PRES_AUD", "trial_index": 198}, "uniqueid": "MTK2298:34T446B1C1LOAWGSLESORWM6GG40C5", "dateTime": 1516986266333}, {"current_trial": 199, "trialdata": {"rt": -1000, "trial_type": "single-audio", "word": "truck", "stimulus": "/static/audio/wordpool/TRUCK.wav", "conditions": [24, 800, "a", 24000], "internal_node_id": "0.0-145.0", "trial": 5, "time_elapsed": 1008209, "serialpos": 14, "key_press": -1, "wordID": 1511, "type": "PRES_AUD", "trial_index": 199}, "uniqueid": "MTK2298:34T446B1C1LOAWGSLESORWM6GG40C5", "dateTime": 1516986268192}, {"current_trial": 200, "trialdata": {"rt": -1000, "trial_type": "single-audio", "word": "tractor", "stimulus": "/static/audio/wordpool/TRACTOR.wav", "conditions": [24, 800, "a", 24000], "internal_node_id": "0.0-146.0", "trial": 5, "time_elapsed": 1010130, "serialpos": 15, "key_press": -1, "wordID": 1492, "type": "PRES_AUD", "trial_index": 200}, "uniqueid": "MTK2298:34T446B1C1LOAWGSLESORWM6GG40C5", "dateTime": 1516986270113}, {"current_trial": 201, "trialdata": {"rt": -1000, "trial_type": "single-audio", "word": "author", "stimulus": "/static/audio/wordpool/AUTHOR.wav", "conditions": [24, 800, "a", 24000], "internal_node_id": "0.0-147.0", "trial": 5, "time_elapsed": 1012000, "serialpos": 16, "key_press": -1, "wordID": 60, "type": "PRES_AUD", "trial_index": 201}, "uniqueid": "MTK2298:34T446B1C1LOAWGSLESORWM6GG40C5", "dateTime": 1516986271983}, {"current_trial": 202, "trialdata": {"rt": -1000, "trial_type": "single-audio", "word": "boyfriend", "stimulus": "/static/audio/wordpool/BOYFRIEND.wav", "conditions": [24, 800, "a", 24000], "internal_node_id": "0.0-148.0", "trial": 5, "time_elapsed": 1013917, "serialpos": 17, "key_press": -1, "wordID": 161, "type": "PRES_AUD", "trial_index": 202}, "uniqueid": "MTK2298:34T446B1C1LOAWGSLESORWM6GG40C5", "dateTime": 1516986273900}, {"current_trial": 203, "trialdata": {"rt": -1000, "trial_type": "single-audio", "word": "driver", "stimulus": "/static/audio/wordpool/DRIVER.wav", "conditions": [24, 800, "a", 24000], "internal_node_id": "0.0-149.0", "trial": 5, "time_elapsed": 1015820, "serialpos": 18, "key_press": -1, "wordID": 498, "type": "PRES_AUD", "trial_index": 203}, "uniqueid": "MTK2298:34T446B1C1LOAWGSLESORWM6GG40C5", "dateTime": 1516986275803}, {"current_trial": 204, "trialdata": {"rt": -1000, "trial_type": "single-audio", "word": "donkey", "stimulus": "/static/audio/wordpool/DONKEY.wav", "conditions": [24, 800, "a", 24000], "internal_node_id": "0.0-150.0", "trial": 5, "time_elapsed": 1017591, "serialpos": 19, "key_press": -1, "wordID": 483, "type": "PRES_AUD", "trial_index": 204}, "uniqueid": "MTK2298:34T446B1C1LOAWGSLESORWM6GG40C5", "dateTime": 1516986277574}, {"current_trial": 205, "trialdata": {"rt": -1000, "trial_type": "single-audio", "word": "fireplace", "stimulus": "/static/audio/wordpool/FIREPLACE.wav", "conditions": [24, 800, "a", 24000], "internal_node_id": "0.0-151.0", "trial": 5, "time_elapsed": 1019534, "serialpos": 20, "key_press": -1, "wordID": 569, "type": "PRES_AUD", "trial_index": 205}, "uniqueid": "MTK2298:34T446B1C1LOAWGSLESORWM6GG40C5", "dateTime": 1516986279517}, {"current_trial": 206, "trialdata": {"rt": -1000, "trial_type": "single-audio", "word": "beaker", "stimulus": "/static/audio/wordpool/BEAKER.wav", "conditions": [24, 800, "a", 24000], "internal_node_id": "0.0-152.0", "trial": 5, "time_elapsed": 1021380, "serialpos": 21, "key_press": -1, "wordID": 103, "type": "PRES_AUD", "trial_index": 206}, "uniqueid": "MTK2298:34T446B1C1LOAWGSLESORWM6GG40C5", "dateTime": 1516986281363}, {"current_trial": 207, "trialdata": {"rt": -1000, "trial_type": "single-audio", "word": "sidewalk", "stimulus": "/static/audio/wordpool/SIDEWALK.wav", "conditions": [24, 800, "a", 24000], "internal_node_id": "0.0-153.0", "trial": 5, "time_elapsed": 1023094, "serialpos": 22, "key_press": -1, "wordID": 1302, "type": "PRES_AUD", "trial_index": 207}, "uniqueid": "MTK2298:34T446B1C1LOAWGSLESORWM6GG40C5", "dateTime": 1516986283077}, {"current_trial": 208, "trialdata": {"rt": -1000, "trial_type": "single-audio", "word": "window", "stimulus": "/static/audio/wordpool/WINDOW.wav", "conditions": [24, 800, "a", 24000], "internal_node_id": "0.0-154.0", "trial": 5, "time_elapsed": 1024881, "serialpos": 23, "key_press": -1, "wordID": 1610, "type": "PRES_AUD", "trial_index": 208}, "uniqueid": "MTK2298:34T446B1C1LOAWGSLESORWM6GG40C5", "dateTime": 1516986284864}, {"current_trial": 209, "trialdata": {"rt": -1, "trial_type": "single-stim", "stimulus": "", "internal_node_id": "0.0-155.0-0.0", "time_elapsed": 1026137, "key_press": -1, "type": "PRE_RECALL_DELAY", "trial_index": 209}, "uniqueid": "MTK2298:34T446B1C1LOAWGSLESORWM6GG40C5", "dateTime": 1516986286120}, {"current_trial": 210, "trialdata": {"rt": -1000, "trial_type": "single-audio", "stimulus": "/static/audio/400Hz.wav", "internal_node_id": "0.0-156.0", "time_elapsed": 1026659, "key_press": -1, "type": "PRE_RECALL_ALERT", "trial_index": 210}, "uniqueid": "MTK2298:34T446B1C1LOAWGSLESORWM6GG40C5", "dateTime": 1516986286642}, {"current_trial": 211, "trialdata": {"rt": [1901, 3854, 5464, 7067, 9896, 13234, 16123, 22630, 41704, 42872, 49094], "recwords": ["window", "sidewalk", "author", "journal", "beef", "liver", "cloud", "poet", "camel", "donkey", "london"], "key_times": [1291, 1344, 1432, 1557, 1624, 1774, 1901, 2162, 2338, 2769, 2956, 3170, 3381, 3461, 3645, 3854, 4168, 4566, 4700, 4830, 4987, 5103, 5464, 5830, 5983, 6056, 6112, 6247, 6377, 6472, 7067, 8673, 8810, 8988, 9252, 9896, 10151, 10330, 10427, 10653, 10812, 13234, 14097, 14751, 14986, 15097, 15263, 16123, 20264, 20450, 20599, 20820, 22630, 40019, 40201, 40403, 40565, 40764, 41704, 41923, 42033, 42133, 42269, 42412, 42613, 42872, 48295, 48478, 48561, 48654, 48763, 48842, 49094], "trial_type": "free-recall", "conditions": [24, 800, "a", 24000], "internal_node_id": "0.0-157.0-0.0", "key_presses": [87, 73, 78, 68, 79, 87, 13, 83, 73, 68, 69, 87, 65, 76, 75, 13, 65, 85, 84, 72, 79, 82, 13, 74, 79, 85, 82, 78, 65, 76, 13, 66, 69, 69, 70, 13, 76, 73, 86, 69, 82, 13, 67, 76, 79, 85, 68, 13, 80, 79, 69, 84, 13, 67, 65, 77, 69, 76, 13, 68, 79, 78, 75, 69, 89, 13, 76, 79, 78, 68, 79, 78, 13], "trial": 5, "time_elapsed": 1088450, "type": "FREE_RECALL", "trial_index": 211}, "uniqueid": "MTK2298:34T446B1C1LOAWGSLESORWM6GG40C5", "dateTime": 1516986348433}, {"current_trial": 212, "trialdata": {"rt": 1522, "trial_type": "text", "internal_node_id": "0.0-158.0", "time_elapsed": 1092017, "key_press": 32, "type": "INSTRUCTIONS", "trial_index": 212}, "uniqueid": "MTK2298:34T446B1C1LOAWGSLESORWM6GG40C5", "dateTime": 1516986352000}, {"current_trial": 213, "trialdata": {"rt": [3180, 4909, 6625, 8610, 9957, 12065, 13416, 15262, 16950, 18515, 20131, 21755, 23570], "trial_type": "math-distractor", "key_times": [2861, 3009, 3180, 4593, 4703, 4909, 6340, 6463, 6625, 8197, 8352, 8610, 9799, 9957, 11750, 11916, 12065, 13129, 13253, 13416, 14903, 15058, 15262, 16643, 16777, 16950, 18176, 18309, 18515, 19847, 19985, 20131, 21465, 21606, 21755, 22934, 23101, 23570, 24813], "responses": ["22", "12", "10", "20", "8", "14", "10", "13", "16", "12", "22", "22", "21"], "num2": [7, 2, 5, 6, 2, 6, 2, 2, 6, 5, 7, 7, 9, 6], "num3": [8, 6, 4, 9, 1, 4, 1, 5, 1, 4, 8, 7, 9, 4], "conditions": [12, 800, "a", 24000], "internal_node_id": "0.0-159.0", "key_presses": [98, 98, 13, 97, 98, 13, 97, 96, 13, 98, 96, 13, 104, 13, 97, 100, 13, 97, 96, 13, 97, 99, 13, 97, 102, 13, 97, 98, 13, 98, 98, 13, 98, 98, 13, 98, 97, 13, 97], "trial": 6, "time_elapsed": 1118902, "type": "DISTRACTOR", "trial_index": 213, "num1": [7, 4, 1, 5, 5, 4, 7, 6, 9, 3, 7, 8, 3, 6]}, "uniqueid": "MTK2298:34T446B1C1LOAWGSLESORWM6GG40C5", "dateTime": 1516986378885}, {"current_trial": 214, "trialdata": {"rt": -1, "trial_type": "single-stim", "stimulus": "<p id=\"stim\">10</p>", "internal_node_id": "0.0-160.0-0.0", "time_elapsed": 1121960, "key_press": -1, "trial_index": 214}, "uniqueid": "MTK2298:34T446B1C1LOAWGSLESORWM6GG40C5", "dateTime": 1516986381943}, {"current_trial": 215, "trialdata": {"rt": -1, "trial_type": "single-stim", "stimulus": "<p id=\"stim\">9</p>", "internal_node_id": "0.0-160.0-1.0", "time_elapsed": 1122989, "key_press": -1, "trial_index": 215}, "uniqueid": "MTK2298:34T446B1C1LOAWGSLESORWM6GG40C5", "dateTime": 1516986382972}, {"current_trial": 216, "trialdata": {"rt": -1, "trial_type": "single-stim", "stimulus": "<p id=\"stim\">8</p>", "internal_node_id": "0.0-160.0-2.0", "time_elapsed": 1124018, "key_press": -1, "trial_index": 216}, "uniqueid": "MTK2298:34T446B1C1LOAWGSLESORWM6GG40C5", "dateTime": 1516986384001}, {"current_trial": 217, "trialdata": {"rt": -1, "trial_type": "single-stim", "stimulus": "<p id=\"stim\">7</p>", "internal_node_id": "0.0-160.0-3.0", "time_elapsed": 1125049, "key_press": -1, "trial_index": 217}, "uniqueid": "MTK2298:34T446B1C1LOAWGSLESORWM6GG40C5", "dateTime": 1516986385032}, {"current_trial": 218, "trialdata": {"rt": -1, "trial_type": "single-stim", "stimulus": "<p id=\"stim\">6</p>", "internal_node_id": "0.0-160.0-4.0", "time_elapsed": 1126079, "key_press": -1, "trial_index": 218}, "uniqueid": "MTK2298:34T446B1C1LOAWGSLESORWM6GG40C5", "dateTime": 1516986386062}, {"current_trial": 219, "trialdata": {"rt": -1, "trial_type": "single-stim", "stimulus": "<p id=\"stim\">5</p>", "internal_node_id": "0.0-160.0-5.0", "time_elapsed": 1127111, "key_press": -1, "trial_index": 219}, "uniqueid": "MTK2298:34T446B1C1LOAWGSLESORWM6GG40C5", "dateTime": 1516986387094}, {"current_trial": 220, "trialdata": {"rt": -1, "trial_type": "single-stim", "stimulus": "<p id=\"stim\">4</p>", "internal_node_id": "0.0-160.0-6.0", "time_elapsed": 1128144, "key_press": -1, "trial_index": 220}, "uniqueid": "MTK2298:34T446B1C1LOAWGSLESORWM6GG40C5", "dateTime": 1516986388127}, {"current_trial": 221, "trialdata": {"rt": -1, "trial_type": "single-stim", "stimulus": "<p id=\"stim\">3</p>", "internal_node_id": "0.0-160.0-7.0", "time_elapsed": 1129177, "key_press": -1, "trial_index": 221}, "uniqueid": "MTK2298:34T446B1C1LOAWGSLESORWM6GG40C5", "dateTime": 1516986389160}, {"current_trial": 222, "trialdata": {"rt": -1, "trial_type": "single-stim", "stimulus": "<p id=\"stim\">2</p>", "internal_node_id": "0.0-160.0-8.0", "time_elapsed": 1130216, "key_press": -1, "trial_index": 222}, "uniqueid": "MTK2298:34T446B1C1LOAWGSLESORWM6GG40C5", "dateTime": 1516986390199}, {"current_trial": 223, "trialdata": {"rt": -1, "trial_type": "single-stim", "stimulus": "<p id=\"stim\">1</p>", "internal_node_id": "0.0-160.0-9.0", "time_elapsed": 1131252, "key_press": -1, "trial_index": 223}, "uniqueid": "MTK2298:34T446B1C1LOAWGSLESORWM6GG40C5", "dateTime": 1516986391235}, {"current_trial": 224, "trialdata": {"rt": -1, "trial_type": "single-stim", "stimulus": "<p id=\"stim\">+</p>", "internal_node_id": "0.0-161.0-0.0", "time_elapsed": 1132783, "key_press": -1, "type": "FIXATION", "trial_index": 224}, "uniqueid": "MTK2298:34T446B1C1LOAWGSLESORWM6GG40C5", "dateTime": 1516986392766}, {"current_trial": 225, "trialdata": {"rt": -1000, "trial_type": "single-audio", "word": "badge", "stimulus": "/static/audio/wordpool/BADGE.wav", "conditions": [12, 800, "a", 24000], "internal_node_id": "0.0-162.0", "trial": 6, "time_elapsed": 1134422, "serialpos": 0, "key_press": -1, "wordID": 67, "type": "PRES_AUD", "trial_index": 225}, "uniqueid": "MTK2298:34T446B1C1LOAWGSLESORWM6GG40C5", "dateTime": 1516986394405}, {"current_trial": 226, "trialdata": {"rt": -1000, "trial_type": "single-audio", "word": "spouse", "stimulus": "/static/audio/wordpool/SPOUSE.wav", "conditions": [12, 800, "a", 24000], "internal_node_id": "0.0-163.0", "trial": 6, "time_elapsed": 1136135, "serialpos": 1, "key_press": -1, "wordID": 1357, "type": "PRES_AUD", "trial_index": 226}, "uniqueid": "MTK2298:34T446B1C1LOAWGSLESORWM6GG40C5", "dateTime": 1516986396118}, {"current_trial": 227, "trialdata": {"rt": -1000, "trial_type": "single-audio", "word": "wife", "stimulus": "/static/audio/wordpool/WIFE.wav", "conditions": [12, 800, "a", 24000], "internal_node_id": "0.0-164.0", "trial": 6, "time_elapsed": 1137971, "serialpos": 2, "key_press": -1, "wordID": 1608, "type": "PRES_AUD", "trial_index": 227}, "uniqueid": "MTK2298:34T446B1C1LOAWGSLESORWM6GG40C5", "dateTime": 1516986397954}, {"current_trial": 228, "trialdata": {"rt": -1000, "trial_type": "single-audio", "word": "apple", "stimulus": "/static/audio/wordpool/APPLE.wav", "conditions": [12, 800, "a", 24000], "internal_node_id": "0.0-165.0", "trial": 6, "time_elapsed": 1139981, "serialpos": 3, "key_press": -1, "wordID": 32, "type": "PRES_AUD", "trial_index": 228}, "uniqueid": "MTK2298:34T446B1C1LOAWGSLESORWM6GG40C5", "dateTime": 1516986399964}, {"current_trial": 229, "trialdata": {"rt": -1000, "trial_type": "single-audio", "word": "novel", "stimulus": "/static/audio/wordpool/NOVEL.wav", "conditions": [12, 800, "a", 24000], "internal_node_id": "0.0-166.0", "trial": 6, "time_elapsed": 1141689, "serialpos": 4, "key_press": -1, "wordID": 959, "type": "PRES_AUD", "trial_index": 229}, "uniqueid": "MTK2298:34T446B1C1LOAWGSLESORWM6GG40C5", "dateTime": 1516986401672}, {"current_trial": 230, "trialdata": {"rt": -1000, "trial_type": "single-audio", "word": "pimple", "stimulus": "/static/audio/wordpool/PIMPLE.wav", "conditions": [12, 800, "a", 24000], "internal_node_id": "0.0-167.0", "trial": 6, "time_elapsed": 1143360, "serialpos": 5, "key_press": -1, "wordID": 1070, "type": "PRES_AUD", "trial_index": 230}, "uniqueid": "MTK2298:34T446B1C1LOAWGSLESORWM6GG40C5", "dateTime": 1516986403343}, {"current_trial": 231, "trialdata": {"rt": -1000, "trial_type": "single-audio", "word": "farmer", "stimulus": "/static/audio/wordpool/FARMER.wav", "conditions": [12, 800, "a", 24000], "internal_node_id": "0.0-168.0", "trial": 6, "time_elapsed": 1145197, "serialpos": 6, "key_press": -1, "wordID": 552, "type": "PRES_AUD", "trial_index": 231}, "uniqueid": "MTK2298:34T446B1C1LOAWGSLESORWM6GG40C5", "dateTime": 1516986405180}, {"current_trial": 232, "trialdata": {"rt": -1000, "trial_type": "single-audio", "word": "pilot", "stimulus": "/static/audio/wordpool/PILOT.wav", "conditions": [12, 800, "a", 24000], "internal_node_id": "0.0-169.0", "trial": 6, "time_elapsed": 1146908, "serialpos": 7, "key_press": -1, "wordID": 1069, "type": "PRES_AUD", "trial_index": 232}, "uniqueid": "MTK2298:34T446B1C1LOAWGSLESORWM6GG40C5", "dateTime": 1516986406891}, {"current_trial": 233, "trialdata": {"rt": -1000, "trial_type": "single-audio", "word": "salt", "stimulus": "/static/audio/wordpool/SALT.wav", "conditions": [12, 800, "a", 24000], "internal_node_id": "0.0-170.0", "trial": 6, "time_elapsed": 1148651, "serialpos": 8, "key_press": -1, "wordID": 1228, "type": "PRES_AUD", "trial_index": 233}, "uniqueid": "MTK2298:34T446B1C1LOAWGSLESORWM6GG40C5", "dateTime": 1516986408634}, {"current_trial": 234, "trialdata": {"rt": -1000, "trial_type": "single-audio", "word": "sticker", "stimulus": "/static/audio/wordpool/STICKER.wav", "conditions": [12, 800, "a", 24000], "internal_node_id": "0.0-171.0", "trial": 6, "time_elapsed": 1150389, "serialpos": 9, "key_press": -1, "wordID": 1381, "type": "PRES_AUD", "trial_index": 234}, "uniqueid": "MTK2298:34T446B1C1LOAWGSLESORWM6GG40C5", "dateTime": 1516986410372}, {"current_trial": 235, "trialdata": {"rt": -1000, "trial_type": "single-audio", "word": "elbow", "stimulus": "/static/audio/wordpool/ELBOW.wav", "conditions": [12, 800, "a", 24000], "internal_node_id": "0.0-172.0", "trial": 6, "time_elapsed": 1152220, "serialpos": 10, "key_press": -1, "wordID": 519, "type": "PRES_AUD", "trial_index": 235}, "uniqueid": "MTK2298:34T446B1C1LOAWGSLESORWM6GG40C5", "dateTime": 1516986412203}, {"current_trial": 236, "trialdata": {"rt": -1000, "trial_type": "single-audio", "word": "item", "stimulus": "/static/audio/wordpool/ITEM.wav", "conditions": [12, 800, "a", 24000], "internal_node_id": "0.0-173.0", "trial": 6, "time_elapsed": 1153895, "serialpos": 11, "key_press": -1, "wordID": 745, "type": "PRES_AUD", "trial_index": 236}, "uniqueid": "MTK2298:34T446B1C1LOAWGSLESORWM6GG40C5", "dateTime": 1516986413878}, {"current_trial": 237, "trialdata": {"rt": -1, "trial_type": "single-stim", "stimulus": "", "internal_node_id": "0.0-174.0-0.0", "time_elapsed": 1155199, "key_press": -1, "type": "PRE_RECALL_DELAY", "trial_index": 237}, "uniqueid": "MTK2298:34T446B1C1LOAWGSLESORWM6GG40C5", "dateTime": 1516986415182}, {"current_trial": 238, "trialdata": {"rt": -1000, "trial_type": "single-audio", "stimulus": "/static/audio/400Hz.wav", "internal_node_id": "0.0-175.0", "time_elapsed": 1155720, "key_press": -1, "type": "PRE_RECALL_ALERT", "trial_index": 238}, "uniqueid": "MTK2298:34T446B1C1LOAWGSLESORWM6GG40C5", "dateTime": 1516986415703}, {"current_trial": 239, "trialdata": {"rt": [1809, 3782, 6509, 11104, 16644, 20141, 21638, 28342, 37523, 47888, 53955], "recwords": ["item", "elbow", "salt", "spouse", "pilot", "farmer", "tractor", "item", "sticker", "apple", "novel"], "key_times": [940, 1071, 1288, 1528, 1809, 2225, 2422, 2773, 3045, 3270, 3416, 3588, 3782, 4098, 4263, 4377, 4626, 6509, 7611, 7741, 8000, 8196, 8398, 8602, 11104, 13942, 14158, 14340, 14499, 14654, 16644, 16820, 17016, 17150, 17277, 17380, 17567, 20141, 20371, 20504, 20739, 20928, 21159, 21260, 21366, 21638, 27748, 27878, 28045, 28117, 28342, 36603, 36787, 36888, 37040, 37107, 37257, 37400, 37523, 46987, 47132, 47346, 47543, 47672, 47888, 53254, 53422, 53520, 53703, 53772, 53955], "trial_type": "free-recall", "conditions": [12, 800, "a", 24000], "internal_node_id": "0.0-176.0-0.0", "key_presses": [73, 84, 69, 77, 13, 69, 66, 8, 76, 66, 79, 87, 13, 83, 65, 76, 84, 13, 83, 80, 79, 85, 83, 69, 13, 80, 73, 76, 79, 84, 13, 70, 65, 82, 77, 69, 82, 13, 84, 82, 65, 67, 84, 79, 82, 13, 73, 84, 69, 77, 13, 83, 84, 73, 67, 75, 69, 82, 13, 65, 80, 80, 76, 69, 13, 78, 79, 86, 69, 76, 13], "trial": 6, "time_elapsed": 1217369, "type": "FREE_RECALL", "trial_index": 239}, "uniqueid": "MTK2298:34T446B1C1LOAWGSLESORWM6GG40C5", "dateTime": 1516986477352}, {"current_trial": 240, "trialdata": {"rt": 946, "trial_type": "text", "internal_node_id": "0.0-177.0", "time_elapsed": 1220355, "key_press": 32, "type": "INSTRUCTIONS", "trial_index": 240}, "uniqueid": "MTK2298:34T446B1C1LOAWGSLESORWM6GG40C5", "dateTime": 1516986480338}, {"current_trial": 241, "trialdata": {"rt": [1791, 3710, 5111, 6972, 8607, 10062, 11626], "trial_type": "math-distractor", "key_times": [1491, 1617, 1791, 3405, 3522, 3710, 4764, 4933, 5111, 6703, 6777, 6972, 8304, 8435, 8607, 9765, 9913, 10062, 11335, 11461, 11626], "responses": ["22", "20", "13", "23", "16", "14", "16"], "num2": [7, 6, 8, 9, 2, 8, 2, 4], "num3": [8, 6, 3, 7, 6, 1, 7, 5], "conditions": [12, 1600, "a", 12000], "internal_node_id": "0.0-178.0", "key_presses": [98, 98, 13, 98, 96, 13, 97, 99, 13, 98, 99, 13, 97, 102, 13, 97, 100, 13, 97, 102, 13], "trial": 7, "time_elapsed": 1234805, "type": "DISTRACTOR", "trial_index": 241, "num1": [7, 8, 2, 7, 8, 5, 7, 5]}, "uniqueid": "MTK2298:34T446B1C1LOAWGSLESORWM6GG40C5", "dateTime": 1516986494788}, {"current_trial": 242, "trialdata": {"rt": -1, "trial_type": "single-stim", "stimulus": "<p id=\"stim\">10</p>", "internal_node_id": "0.0-179.0-0.0", "time_elapsed": 1237848, "key_press": -1, "trial_index": 242}, "uniqueid": "MTK2298:34T446B1C1LOAWGSLESORWM6GG40C5", "dateTime": 1516986497831}, {"current_trial": 243, "trialdata": {"rt": -1, "trial_type": "single-stim", "stimulus": "<p id=\"stim\">9</p>", "internal_node_id": "0.0-179.0-1.0", "time_elapsed": 1238880, "key_press": -1, "trial_index": 243}, "uniqueid": "MTK2298:34T446B1C1LOAWGSLESORWM6GG40C5", "dateTime": 1516986498863}, {"current_trial": 244, "trialdata": {"rt": -1, "trial_type": "single-stim", "stimulus": "<p id=\"stim\">8</p>", "internal_node_id": "0.0-179.0-2.0", "time_elapsed": 1239899, "key_press": -1, "trial_index": 244}, "uniqueid": "MTK2298:34T446B1C1LOAWGSLESORWM6GG40C5", "dateTime": 1516986499882}, {"current_trial": 245, "trialdata": {"rt": -1, "trial_type": "single-stim", "stimulus": "<p id=\"stim\">7</p>", "internal_node_id": "0.0-179.0-3.0", "time_elapsed": 1240934, "key_press": -1, "trial_index": 245}, "uniqueid": "MTK2298:34T446B1C1LOAWGSLESORWM6GG40C5", "dateTime": 1516986500917}, {"current_trial": 246, "trialdata": {"rt": -1, "trial_type": "sing