{"assignmentId": "3KKG4CDWKJ53BMRQSV5Z19BBTA994D", "workerId": "MTK2905", "questiondata": {"avail_screen_height": 728, "color_depth": 24, "screen_width": 1366, "pixel_depth": 24, "avail_screen_width": 1366, "screen_height": 768}, "bonus": 0, "hitId": "3ZTE0JGGCEZ7QTAHXXPXSDM4VA3COE", "counterbalance": 249, "useragent": "Mozilla/5.0 (Windows NT 10.0; Win64; x64) AppleWebKit/537.36 (KHTML, like Gecko) Chrome/60.0.3112.101 Safari/537.36", "eventdata": [{"eventtype": "initialized", "interval": 0, "value": null, "timestamp": 1519583918180}, {"eventtype": "window_resize", "interval": 0, "value": [1348, 651], "timestamp": 1519583918180}, {"eventtype": "focus", "interval": 38005, "value": "off", "timestamp": 1519583956185}, {"eventtype": "focus", "interval": 3662, "value": "on", "timestamp": 1519583959847}, {"eventtype": "focus", "interval": 11507, "value": "off", "timestamp": 1519583971354}, {"eventtype": "focus", "interval": 4181, "value": "on", "timestamp": 1519583975535}, {"eventtype": "focus", "interval": 1446176, "value": "off", "timestamp": 1519585421711}, {"eventtype": "focus", "interval": 4950, "value": "on", "timestamp": 1519585426661}, {"eventtype": "focus", "interval": 42182, "value": "off", "timestamp": 1519585468843}, {"eventtype": "focus", "interval": 4779, "value": "on", "timestamp": 1519585473622}, {"eventtype": "focus", "interval": 726415, "value": "off", "timestamp": 1519586200037}, {"eventtype": "focus", "interval": 162, "value": "on", "timestamp": 1519586200199}, {"eventtype": "focus", "interval": 520479, "value": "off", "timestamp": 1519586720678}, {"eventtype": "focus", "interval": 20394, "value": "on", "timestamp": 1519586741072}, {"eventtype": "window_resize", "interval": 333055, "value": [1236, 597], "timestamp": 1519587074127}], "data": [{"current_trial": 0, "trialdata": {"rt": 3602, "trial_type": "text", "internal_node_id": "0.0-0.0", "time_elapsed": 3609, "key_press": 74, "type": "INSTRUCTIONS", "trial_index": 0}, "uniqueid": "MTK2905:3KKG4CDWKJ53BMRQSV5Z19BBTA994D", "dateTime": 1519583924630}, {"current_trial": 1, "trialdata": {"rt": 9279, "trial_type": "text", "internal_node_id": "0.0-1.0", "time_elapsed": 12894, "key_press": 183, "type": "INSTRUCTIONS", "trial_index": 1}, "uniqueid": "MTK2905:3KKG4CDWKJ53BMRQSV5Z19BBTA994D", "dateTime": 1519583933916}, {"current_trial": 2, "trialdata": {"rt": [47692], "trial_type": "audio-test", "responses": ["ocean"], "internal_node_id": "0.0-2.0", "time_elapsed": 62042, "type": "AUDIO_TEST", "trial_index": 2}, "uniqueid": "MTK2905:3KKG4CDWKJ53BMRQSV5Z19BBTA994D", "dateTime": 1519583983063}, {"current_trial": 3, "trialdata": {"rt": [24015], "trial_type": "audio-test", "responses": ["crystal"], "internal_node_id": "0.0-3.0", "time_elapsed": 86099, "type": "AUDIO_TEST", "trial_index": 3}, "uniqueid": "MTK2905:3KKG4CDWKJ53BMRQSV5Z19BBTA994D", "dateTime": 1519584007120}, {"current_trial": 4, "trialdata": {"rt": [8578], "trial_type": "audio-test", "responses": ["spice"], "internal_node_id": "0.0-4.0", "time_elapsed": 94717, "type": "AUDIO_TEST", "trial_index": 4}, "uniqueid": "MTK2905:3KKG4CDWKJ53BMRQSV5Z19BBTA994D", "dateTime": 1519584015738}, {"current_trial": 5, "trialdata": {"rt": 19490, "trial_type": "survey-text", "responses": "{\"Q0\":\"11:50\",\"Q1\":\"8:08\",\"Q2\":\"4\"}", "internal_node_id": "0.0-5.0", "time_elapsed": 114969, "type": "SLEEP_SURVEY", "trial_index": 5}, "uniqueid": "MTK2905:3KKG4CDWKJ53BMRQSV5Z19BBTA994D", "dateTime": 1519584035989}, {"current_trial": 6, "trialdata": {"rt": 24316, "trial_type": "text", "internal_node_id": "0.0-6.0", "time_elapsed": 140290, "key_press": 13, "type": "INSTRUCTIONS", "trial_index": 6}, "uniqueid": "MTK2905:3KKG4CDWKJ53BMRQSV5Z19BBTA994D", "dateTime": 1519584061310}, {"current_trial": 7, "trialdata": {"rt": 111408, "trial_type": "text", "internal_node_id": "0.0-7.0", "time_elapsed": 252209, "key_press": 13, "type": "INSTRUCTIONS", "trial_index": 7}, "uniqueid": "MTK2905:3KKG4CDWKJ53BMRQSV5Z19BBTA994D", "dateTime": 1519584173229}, {"current_trial": 8, "trialdata": {"rt": 10931, "trial_type": "text", "internal_node_id": "0.0-8.0", "time_elapsed": 263653, "key_press": 13, "type": "INSTRUCTIONS", "trial_index": 8}, "uniqueid": "MTK2905:3KKG4CDWKJ53BMRQSV5Z19BBTA994D", "dateTime": 1519584184674}, {"current_trial": 9, "trialdata": {"rt": [4136, 6549, 8847, 10804, 12792, 14885, 16788], "trial_type": "math-distractor", "key_times": [3252, 3395, 4136, 6138, 6549, 8151, 8301, 8847, 10174, 10350, 10804, 12413, 12792, 14280, 14475, 14885, 16189, 16409, 16788], "responses": ["13", "8", "16", "11", "9", "12", "10"], "num2": [5, 2, 7, 8, 1, 6, 8, 6], "num3": [1, 1, 7, 2, 6, 1, 1, 5], "conditions": [18, 1200, "v", 18000], "internal_node_id": "0.0-9.0", "key_presses": [97, 99, 13, 104, 13, 97, 102, 13, 97, 97, 13, 105, 13, 97, 98, 13, 97, 96, 13], "trial": 0, "time_elapsed": 282675, "type": "DISTRACTOR", "trial_index": 9, "num1": [7, 5, 2, 1, 2, 5, 1, 4]}, "uniqueid": "MTK2905:3KKG4CDWKJ53BMRQSV5Z19BBTA994D", "dateTime": 1519584203695}, {"current_trial": 10, "trialdata": {"rt": -1, "trial_type": "single-stim", "stimulus": "<p id=\"stim\">10</p>", "internal_node_id": "0.0-10.0-0.0", "time_elapsed": 285706, "key_press": -1, "trial_index": 10}, "uniqueid": "MTK2905:3KKG4CDWKJ53BMRQSV5Z19BBTA994D", "dateTime": 1519584206727}, {"current_trial": 11, "trialdata": {"rt": -1, "trial_type": "single-stim", "stimulus": "<p id=\"stim\">9</p>", "internal_node_id": "0.0-10.0-1.0", "time_elapsed": 286720, "key_press": -1, "trial_index": 11}, "uniqueid": "MTK2905:3KKG4CDWKJ53BMRQSV5Z19BBTA994D", "dateTime": 1519584207740}, {"current_trial": 12, "trialdata": {"rt": -1, "trial_type": "single-stim", "stimulus": "<p id=\"stim\">8</p>", "internal_node_id": "0.0-10.0-2.0", "time_elapsed": 287737, "key_press": -1, "trial_index": 12}, "uniqueid": "MTK2905:3KKG4CDWKJ53BMRQSV5Z19BBTA994D", "dateTime": 1519584208759}, {"current_trial": 13, "trialdata": {"rt": -1, "trial_type": "single-stim", "stimulus": "<p id=\"stim\">7</p>", "internal_node_id": "0.0-10.0-3.0", "time_elapsed": 288750, "key_press": -1, "trial_index": 13}, "uniqueid": "MTK2905:3KKG4CDWKJ53BMRQSV5Z19BBTA994D", "dateTime": 1519584209771}, {"current_trial": 14, "trialdata": {"rt": -1, "trial_type": "single-stim", "stimulus": "<p id=\"stim\">6</p>", "internal_node_id": "0.0-10.0-4.0", "time_elapsed": 289768, "key_press": -1, "trial_index": 14}, "uniqueid": "MTK2905:3KKG4CDWKJ53BMRQSV5Z19BBTA994D", "dateTime": 1519584210788}, {"current_trial": 15, "trialdata": {"rt": -1, "trial_type": "single-stim", "stimulus": "<p id=\"stim\">5</p>", "internal_node_id": "0.0-10.0-5.0", "time_elapsed": 290782, "key_press": -1, "trial_index": 15}, "uniqueid": "MTK2905:3KKG4CDWKJ53BMRQSV5Z19BBTA994D", "dateTime": 1519584211802}, {"current_trial": 16, "trialdata": {"rt": -1, "trial_type": "single-stim", "stimulus": "<p id=\"stim\">4</p>", "internal_node_id": "0.0-10.0-6.0", "time_elapsed": 291796, "key_press": -1, "trial_index": 16}, "uniqueid": "MTK2905:3KKG4CDWKJ53BMRQSV5Z19BBTA994D", "dateTime": 1519584212816}, {"current_trial": 17, "trialdata": {"rt": -1, "trial_type": "single-stim", "stimulus": "<p id=\"stim\">3</p>", "internal_node_id": "0.0-10.0-7.0", "time_elapsed": 292813, "key_press": -1, "trial_index": 17}, "uniqueid": "MTK2905:3KKG4CDWKJ53BMRQSV5Z19BBTA994D", "dateTime": 1519584213833}, {"current_trial": 18, "trialdata": {"rt": -1, "trial_type": "single-stim", "stimulus": "<p id=\"stim\">2</p>", "internal_node_id": "0.0-10.0-8.0", "time_elapsed": 293829, "key_press": -1, "trial_index": 18}, "uniqueid": "MTK2905:3KKG4CDWKJ53BMRQSV5Z19BBTA994D", "dateTime": 1519584214849}, {"current_trial": 19, "trialdata": {"rt": -1, "trial_type": "single-stim", "stimulus": "<p id=\"stim\">1</p>", "internal_node_id": "0.0-10.0-9.0", "time_elapsed": 294844, "key_press": -1, "trial_index": 19}, "uniqueid": "MTK2905:3KKG4CDWKJ53BMRQSV5Z19BBTA994D", "dateTime": 1519584215864}, {"current_trial": 20, "trialdata": {"rt": -1, "trial_type": "single-stim", "stimulus": "<p id=\"stim\">+</p>", "internal_node_id": "0.0-11.0-0.0", "time_elapsed": 296359, "key_press": -1, "type": "FIXATION", "trial_index": 20}, "uniqueid": "MTK2905:3KKG4CDWKJ53BMRQSV5Z19BBTA994D", "dateTime": 1519584217380}, {"current_trial": 21, "trialdata": {"rt": -1, "trial_type": "single-stim", "word": "salad", "stimulus": "<p id=\"stim\">SALAD</p>", "conditions": [18, 1200, "v", 18000], "internal_node_id": "0.0-12.0", "trial": 0, "time_elapsed": 297577, "serialpos": 0, "key_press": -1, "wordID": 1223, "type": "PRES_VIS", "trial_index": 21}, "uniqueid": "MTK2905:3KKG4CDWKJ53BMRQSV5Z19BBTA994D", "dateTime": 1519584218598}, {"current_trial": 22, "trialdata": {"rt": -1, "trial_type": "single-stim", "word": "waitress", "stimulus": "<p id=\"stim\">WAITRESS</p>", "conditions": [18, 1200, "v", 18000], "internal_node_id": "0.0-13.0", "trial": 0, "time_elapsed": 299609, "serialpos": 1, "key_press": -1, "wordID": 1580, "type": "PRES_VIS", "trial_index": 22}, "uniqueid": "MTK2905:3KKG4CDWKJ53BMRQSV5Z19BBTA994D", "dateTime": 1519584220629}, {"current_trial": 23, "trialdata": {"rt": -1, "trial_type": "single-stim", "word": "mummy", "stimulus": "<p id=\"stim\">MUMMY</p>", "conditions": [18, 1200, "v", 18000], "internal_node_id": "0.0-14.0", "trial": 0, "time_elapsed": 301624, "serialpos": 2, "key_press": -1, "wordID": 931, "type": "PRES_VIS", "trial_index": 23}, "uniqueid": "MTK2905:3KKG4CDWKJ53BMRQSV5Z19BBTA994D", "dateTime": 1519584222644}, {"current_trial": 24, "trialdata": {"rt": -1, "trial_type": "single-stim", "word": "lake", "stimulus": "<p id=\"stim\">LAKE</p>", "conditions": [18, 1200, "v", 18000], "internal_node_id": "0.0-15.0", "trial": 0, "time_elapsed": 303734, "serialpos": 3, "key_press": -1, "wordID": 795, "type": "PRES_VIS", "trial_index": 24}, "uniqueid": "MTK2905:3KKG4CDWKJ53BMRQSV5Z19BBTA994D", "dateTime": 1519584224755}, {"current_trial": 25, "trialdata": {"rt": -1, "trial_type": "single-stim", "word": "snail", "stimulus": "<p id=\"stim\">SNAIL</p>", "conditions": [18, 1200, "v", 18000], "internal_node_id": "0.0-16.0", "trial": 0, "time_elapsed": 306063, "serialpos": 4, "key_press": -1, "wordID": 1331, "type": "PRES_VIS", "trial_index": 25}, "uniqueid": "MTK2905:3KKG4CDWKJ53BMRQSV5Z19BBTA994D", "dateTime": 1519584227084}, {"current_trial": 26, "trialdata": {"rt": -1, "trial_type": "single-stim", "word": "nurse", "stimulus": "<p id=\"stim\">NURSE</p>", "conditions": [18, 1200, "v", 18000], "internal_node_id": "0.0-17.0", "trial": 0, "time_elapsed": 308172, "serialpos": 5, "key_press": -1, "wordID": 962, "type": "PRES_VIS", "trial_index": 26}, "uniqueid": "MTK2905:3KKG4CDWKJ53BMRQSV5Z19BBTA994D", "dateTime": 1519584229192}, {"current_trial": 27, "trialdata": {"rt": -1, "trial_type": "single-stim", "word": "sister", "stimulus": "<p id=\"stim\">SISTER</p>", "conditions": [18, 1200, "v", 18000], "internal_node_id": "0.0-18.0", "trial": 0, "time_elapsed": 310437, "serialpos": 6, "key_press": -1, "wordID": 1311, "type": "PRES_VIS", "trial_index": 27}, "uniqueid": "MTK2905:3KKG4CDWKJ53BMRQSV5Z19BBTA994D", "dateTime": 1519584231458}, {"current_trial": 28, "trialdata": {"rt": -1, "trial_type": "single-stim", "word": "outlaw", "stimulus": "<p id=\"stim\">OUTLAW</p>", "conditions": [18, 1200, "v", 18000], "internal_node_id": "0.0-19.0", "trial": 0, "time_elapsed": 312828, "serialpos": 7, "key_press": -1, "wordID": 988, "type": "PRES_VIS", "trial_index": 28}, "uniqueid": "MTK2905:3KKG4CDWKJ53BMRQSV5Z19BBTA994D", "dateTime": 1519584233848}, {"current_trial": 29, "trialdata": {"rt": -1, "trial_type": "single-stim", "word": "arm", "stimulus": "<p id=\"stim\">ARM</p>", "conditions": [18, 1200, "v", 18000], "internal_node_id": "0.0-20.0", "trial": 0, "time_elapsed": 314953, "serialpos": 8, "key_press": -1, "wordID": 37, "type": "PRES_VIS", "trial_index": 29}, "uniqueid": "MTK2905:3KKG4CDWKJ53BMRQSV5Z19BBTA994D", "dateTime": 1519584235973}, {"current_trial": 30, "trialdata": {"rt": -1, "trial_type": "single-stim", "word": "toaster", "stimulus": "<p id=\"stim\">TOASTER</p>", "conditions": [18, 1200, "v", 18000], "internal_node_id": "0.0-21.0", "trial": 0, "time_elapsed": 317108, "serialpos": 9, "key_press": -1, "wordID": 1471, "type": "PRES_VIS", "trial_index": 30}, "uniqueid": "MTK2905:3KKG4CDWKJ53BMRQSV5Z19BBTA994D", "dateTime": 1519584238128}, {"current_trial": 31, "trialdata": {"rt": -1, "trial_type": "single-stim", "word": "barley", "stimulus": "<p id=\"stim\">BARLEY</p>", "conditions": [18, 1200, "v", 18000], "internal_node_id": "0.0-22.0", "trial": 0, "time_elapsed": 319516, "serialpos": 10, "key_press": -1, "wordID": 87, "type": "PRES_VIS", "trial_index": 31}, "uniqueid": "MTK2905:3KKG4CDWKJ53BMRQSV5Z19BBTA994D", "dateTime": 1519584240536}, {"current_trial": 32, "trialdata": {"rt": -1, "trial_type": "single-stim", "word": "comet", "stimulus": "<p id=\"stim\">COMET</p>", "conditions": [18, 1200, "v", 18000], "internal_node_id": "0.0-23.0", "trial": 0, "time_elapsed": 321546, "serialpos": 11, "key_press": -1, "wordID": 352, "type": "PRES_VIS", "trial_index": 32}, "uniqueid": "MTK2905:3KKG4CDWKJ53BMRQSV5Z19BBTA994D", "dateTime": 1519584242566}, {"current_trial": 33, "trialdata": {"rt": -1, "trial_type": "single-stim", "word": "hero", "stimulus": "<p id=\"stim\">HERO</p>", "conditions": [18, 1200, "v", 18000], "internal_node_id": "0.0-24.0", "trial": 0, "time_elapsed": 323890, "serialpos": 12, "key_press": -1, "wordID": 705, "type": "PRES_VIS", "trial_index": 33}, "uniqueid": "MTK2905:3KKG4CDWKJ53BMRQSV5Z19BBTA994D", "dateTime": 1519584244911}, {"current_trial": 34, "trialdata": {"rt": -1, "trial_type": "single-stim", "word": "frame", "stimulus": "<p id=\"stim\">FRAME</p>", "conditions": [18, 1200, "v", 18000], "internal_node_id": "0.0-25.0", "trial": 0, "time_elapsed": 326220, "serialpos": 13, "key_press": -1, "wordID": 599, "type": "PRES_VIS", "trial_index": 34}, "uniqueid": "MTK2905:3KKG4CDWKJ53BMRQSV5Z19BBTA994D", "dateTime": 1519584247240}, {"current_trial": 35, "trialdata": {"rt": -1, "trial_type": "single-stim", "word": "tombstone", "stimulus": "<p id=\"stim\">TOMBSTONE</p>", "conditions": [18, 1200, "v", 18000], "internal_node_id": "0.0-26.0", "trial": 0, "time_elapsed": 328376, "serialpos": 14, "key_press": -1, "wordID": 1477, "type": "PRES_VIS", "trial_index": 35}, "uniqueid": "MTK2905:3KKG4CDWKJ53BMRQSV5Z19BBTA994D", "dateTime": 1519584249397}, {"current_trial": 36, "trialdata": {"rt": -1, "trial_type": "single-stim", "word": "napkin", "stimulus": "<p id=\"stim\">NAPKIN</p>", "conditions": [18, 1200, "v", 18000], "internal_node_id": "0.0-27.0", "trial": 0, "time_elapsed": 330437, "serialpos": 15, "key_press": -1, "wordID": 936, "type": "PRES_VIS", "trial_index": 36}, "uniqueid": "MTK2905:3KKG4CDWKJ53BMRQSV5Z19BBTA994D", "dateTime": 1519584251458}, {"current_trial": 37, "trialdata": {"rt": -1, "trial_type": "single-stim", "word": "fleet", "stimulus": "<p id=\"stim\">FLEET</p>", "conditions": [18, 1200, "v", 18000], "internal_node_id": "0.0-28.0", "trial": 0, "time_elapsed": 332688, "serialpos": 16, "key_press": -1, "wordID": 577, "type": "PRES_VIS", "trial_index": 37}, "uniqueid": "MTK2905:3KKG4CDWKJ53BMRQSV5Z19BBTA994D", "dateTime": 1519584253708}, {"current_trial": 38, "trialdata": {"rt": -1, "trial_type": "single-stim", "word": "nightgown", "stimulus": "<p id=\"stim\">NIGHTGOWN</p>", "conditions": [18, 1200, "v", 18000], "internal_node_id": "0.0-29.0", "trial": 0, "time_elapsed": 335018, "serialpos": 17, "key_press": -1, "wordID": 952, "type": "PRES_VIS", "trial_index": 38}, "uniqueid": "MTK2905:3KKG4CDWKJ53BMRQSV5Z19BBTA994D", "dateTime": 1519584256038}, {"current_trial": 39, "trialdata": {"rt": -1, "trial_type": "single-stim", "stimulus": "", "internal_node_id": "0.0-30.0-0.0", "time_elapsed": 337219, "key_press": -1, "type": "PRE_RECALL_DELAY", "trial_index": 39}, "uniqueid": "MTK2905:3KKG4CDWKJ53BMRQSV5Z19BBTA994D", "dateTime": 1519584258239}, {"current_trial": 40, "trialdata": {"rt": -1000, "trial_type": "single-audio", "stimulus": "/static/audio/400Hz.wav", "internal_node_id": "0.0-31.0", "time_elapsed": 337782, "key_press": -1, "type": "PRE_RECALL_ALERT", "trial_index": 40}, "uniqueid": "MTK2905:3KKG4CDWKJ53BMRQSV5Z19BBTA994D", "dateTime": 1519584258802}, {"current_trial": 41, "trialdata": {"rt": [4553, 4714, 6656, 8977, 36286, 38791, 44658, 49826], "recwords": ["nightgown", "", "lake", "waitress", "nightgown", "lake", "sister", "aunt"], "key_times": [2103, 2290, 2453, 2555, 2743, 3374, 3504, 3675, 3837, 4553, 4714, 5800, 6100, 6212, 6392, 6656, 7430, 7679, 7807, 7952, 8212, 8277, 8577, 8787, 8977, 34204, 34444, 34617, 34749, 34921, 35418, 35496, 35651, 35789, 36286, 36973, 37144, 37223, 37354, 38791, 43586, 43746, 43898, 44109, 44290, 44398, 44658, 48641, 48840, 49140, 49222, 49826], "trial_type": "free-recall", "conditions": [18, 1200, "v", 18000], "internal_node_id": "0.0-32.0-0.0", "key_presses": [78, 73, 71, 72, 84, 71, 79, 87, 78, 188, 32, 76, 65, 75, 69, 13, 87, 65, 73, 84, 82, 69, 83, 83, 13, 78, 73, 71, 72, 84, 71, 79, 87, 78, 13, 76, 65, 75, 69, 13, 83, 73, 83, 84, 69, 82, 13, 65, 85, 78, 84, 13], "trial": 0, "time_elapsed": 397799, "type": "FREE_RECALL", "trial_index": 41}, "uniqueid": "MTK2905:3KKG4CDWKJ53BMRQSV5Z19BBTA994D", "dateTime": 1519584318838}, {"current_trial": 42, "trialdata": {"rt": 1700, "trial_type": "text", "internal_node_id": "0.0-33.0", "time_elapsed": 401529, "key_press": 32, "type": "INSTRUCTIONS", "trial_index": 42}, "uniqueid": "MTK2905:3KKG4CDWKJ53BMRQSV5Z19BBTA994D", "dateTime": 1519584322549}, {"current_trial": 43, "trialdata": {"rt": [2728, 4349, 6699, 9788, 13722, 15319], "trial_type": "math-distractor", "key_times": [1841, 2109, 2728, 3885, 4096, 4349, 6278, 6463, 6699, 9138, 9387, 9788, 13231, 13464, 13722, 14837, 15065, 15319], "responses": ["19", "13", "16", "24", "14", "12"], "num2": [7, 3, 7, 6, 2, 4, 8], "num3": [5, 3, 5, 8, 9, 6, 5], "conditions": [18, 1200, "v", 18000], "internal_node_id": "0.0-34.0", "key_presses": [97, 105, 13, 97, 99, 13, 97, 102, 13, 98, 100, 13, 97, 100, 13, 97, 98, 13], "trial": 1, "time_elapsed": 421555, "type": "DISTRACTOR", "trial_index": 43, "num1": [7, 7, 4, 8, 3, 2, 7]}, "uniqueid": "MTK2905:3KKG4CDWKJ53BMRQSV5Z19BBTA994D", "dateTime": 1519584342578}, {"current_trial": 44, "trialdata": {"rt": -1, "trial_type": "single-stim", "stimulus": "<p id=\"stim\">10</p>", "internal_node_id": "0.0-35.0-0.0", "time_elapsed": 424581, "key_press": -1, "trial_index": 44}, "uniqueid": "MTK2905:3KKG4CDWKJ53BMRQSV5Z19BBTA994D", "dateTime": 1519584345603}, {"current_trial": 45, "trialdata": {"rt": -1, "trial_type": "single-stim", "stimulus": "<p id=\"stim\">9</p>", "internal_node_id": "0.0-35.0-1.0", "time_elapsed": 425598, "key_press": -1, "trial_index": 45}, "uniqueid": "MTK2905:3KKG4CDWKJ53BMRQSV5Z19BBTA994D", "dateTime": 1519584346620}, {"current_trial": 46, "trialdata": {"rt": -1, "trial_type": "single-stim", "stimulus": "<p id=\"stim\">8</p>", "internal_node_id": "0.0-35.0-2.0", "time_elapsed": 426610, "key_press": -1, "trial_index": 46}, "uniqueid": "MTK2905:3KKG4CDWKJ53BMRQSV5Z19BBTA994D", "dateTime": 1519584347632}, {"current_trial": 47, "trialdata": {"rt": -1, "trial_type": "single-stim", "stimulus": "<p id=\"stim\">7</p>", "internal_node_id": "0.0-35.0-3.0", "time_elapsed": 427626, "key_press": -1, "trial_index": 47}, "uniqueid": "MTK2905:3KKG4CDWKJ53BMRQSV5Z19BBTA994D", "dateTime": 1519584348646}, {"current_trial": 48, "trialdata": {"rt": -1, "trial_type": "single-stim", "stimulus": "<p id=\"stim\">6</p>", "internal_node_id": "0.0-35.0-4.0", "time_elapsed": 428642, "key_press": -1, "trial_index": 48}, "uniqueid": "MTK2905:3KKG4CDWKJ53BMRQSV5Z19BBTA994D", "dateTime": 1519584349664}, {"current_trial": 49, "trialdata": {"rt": -1, "trial_type": "single-stim", "stimulus": "<p id=\"stim\">5</p>", "internal_node_id": "0.0-35.0-5.0", "time_elapsed": 429655, "key_press": -1, "trial_index": 49}, "uniqueid": "MTK2905:3KKG4CDWKJ53BMRQSV5Z19BBTA994D", "dateTime": 1519584350676}, {"current_trial": 50, "trialdata": {"rt": -1, "trial_type": "single-stim", "stimulus": "<p id=\"stim\">4</p>", "internal_node_id": "0.0-35.0-6.0", "time_elapsed": 430674, "key_press": -1, "trial_index": 50}, "uniqueid": "MTK2905:3KKG4CDWKJ53BMRQSV5Z19BBTA994D", "dateTime": 1519584351697}, {"current_trial": 51, "trialdata": {"rt": -1, "trial_type": "single-stim", "stimulus": "<p id=\"stim\">3</p>", "internal_node_id": "0.0-35.0-7.0", "time_elapsed": 431687, "key_press": -1, "trial_index": 51}, "uniqueid": "MTK2905:3KKG4CDWKJ53BMRQSV5Z19BBTA994D", "dateTime": 1519584352708}, {"current_trial": 52, "trialdata": {"rt": -1, "trial_type": "single-stim", "stimulus": "<p id=\"stim\">2</p>", "internal_node_id": "0.0-35.0-8.0", "time_elapsed": 432703, "key_press": -1, "trial_index": 52}, "uniqueid": "MTK2905:3KKG4CDWKJ53BMRQSV5Z19BBTA994D", "dateTime": 1519584353724}, {"current_trial": 53, "trialdata": {"rt": -1, "trial_type": "single-stim", "stimulus": "<p id=\"stim\">1</p>", "internal_node_id": "0.0-35.0-9.0", "time_elapsed": 433719, "key_press": -1, "trial_index": 53}, "uniqueid": "MTK2905:3KKG4CDWKJ53BMRQSV5Z19BBTA994D", "dateTime": 1519584354739}, {"current_trial": 54, "trialdata": {"rt": -1, "trial_type": "single-stim", "stimulus": "<p id=\"stim\">+</p>", "internal_node_id": "0.0-36.0-0.0", "time_elapsed": 435235, "key_press": -1, "type": "FIXATION", "trial_index": 54}, "uniqueid": "MTK2905:3KKG4CDWKJ53BMRQSV5Z19BBTA994D", "dateTime": 1519584356255}, {"current_trial": 55, "trialdata": {"rt": -1, "trial_type": "single-stim", "word": "world", "stimulus": "<p id=\"stim\">WORLD</p>", "conditions": [18, 1200, "v", 18000], "internal_node_id": "0.0-37.0", "trial": 1, "time_elapsed": 436441, "serialpos": 0, "key_press": -1, "wordID": 1621, "type": "PRES_VIS", "trial_index": 55}, "uniqueid": "MTK2905:3KKG4CDWKJ53BMRQSV5Z19BBTA994D", "dateTime": 1519584357463}, {"current_trial": 56, "trialdata": {"rt": -1, "trial_type": "single-stim", "word": "helmet", "stimulus": "<p id=\"stim\">HELMET</p>", "conditions": [18, 1200, "v", 18000], "internal_node_id": "0.0-38.0", "trial": 1, "time_elapsed": 438484, "serialpos": 1, "key_press": -1, "wordID": 701, "type": "PRES_VIS", "trial_index": 56}, "uniqueid": "MTK2905:3KKG4CDWKJ53BMRQSV5Z19BBTA994D", "dateTime": 1519584359505}, {"current_trial": 57, "trialdata": {"rt": -1, "trial_type": "single-stim", "word": "county", "stimulus": "<p id=\"stim\">COUNTY</p>", "conditions": [18, 1200, "v", 18000], "internal_node_id": "0.0-39.0", "trial": 1, "time_elapsed": 440528, "serialpos": 2, "key_press": -1, "wordID": 388, "type": "PRES_VIS", "trial_index": 57}, "uniqueid": "MTK2905:3KKG4CDWKJ53BMRQSV5Z19BBTA994D", "dateTime": 1519584361548}, {"current_trial": 58, "trialdata": {"rt": -1, "trial_type": "single-stim", "word": "police", "stimulus": "<p id=\"stim\">POLICE</p>", "conditions": [18, 1200, "v", 18000], "internal_node_id": "0.0-40.0", "trial": 1, "time_elapsed": 442575, "serialpos": 3, "key_press": -1, "wordID": 1097, "type": "PRES_VIS", "trial_index": 58}, "uniqueid": "MTK2905:3KKG4CDWKJ53BMRQSV5Z19BBTA994D", "dateTime": 1519584363595}, {"current_trial": 59, "trialdata": {"rt": -1, "trial_type": "single-stim", "word": "yacht", "stimulus": "<p id=\"stim\">YACHT</p>", "conditions": [18, 1200, "v", 18000], "internal_node_id": "0.0-41.0", "trial": 1, "time_elapsed": 444793, "serialpos": 4, "key_press": -1, "wordID": 1628, "type": "PRES_VIS", "trial_index": 59}, "uniqueid": "MTK2905:3KKG4CDWKJ53BMRQSV5Z19BBTA994D", "dateTime": 1519584365814}, {"current_trial": 60, "trialdata": {"rt": -1, "trial_type": "single-stim", "word": "shelf", "stimulus": "<p id=\"stim\">SHELF</p>", "conditions": [18, 1200, "v", 18000], "internal_node_id": "0.0-42.0", "trial": 1, "time_elapsed": 446920, "serialpos": 5, "key_press": -1, "wordID": 1279, "type": "PRES_VIS", "trial_index": 60}, "uniqueid": "MTK2905:3KKG4CDWKJ53BMRQSV5Z19BBTA994D", "dateTime": 1519584367941}, {"current_trial": 61, "trialdata": {"rt": -1, "trial_type": "single-stim", "word": "receipt", "stimulus": "<p id=\"stim\">RECEIPT</p>", "conditions": [18, 1200, "v", 18000], "internal_node_id": "0.0-43.0", "trial": 1, "time_elapsed": 449200, "serialpos": 6, "key_press": -1, "wordID": 1172, "type": "PRES_VIS", "trial_index": 61}, "uniqueid": "MTK2905:3KKG4CDWKJ53BMRQSV5Z19BBTA994D", "dateTime": 1519584370220}, {"current_trial": 62, "trialdata": {"rt": -1, "trial_type": "single-stim", "word": "cellar", "stimulus": "<p id=\"stim\">CELLAR</p>", "conditions": [18, 1200, "v", 18000], "internal_node_id": "0.0-44.0", "trial": 1, "time_elapsed": 451278, "serialpos": 7, "key_press": -1, "wordID": 266, "type": "PRES_VIS", "trial_index": 62}, "uniqueid": "MTK2905:3KKG4CDWKJ53BMRQSV5Z19BBTA994D", "dateTime": 1519584372298}, {"current_trial": 63, "trialdata": {"rt": -1, "trial_type": "single-stim", "word": "wife", "stimulus": "<p id=\"stim\">WIFE</p>", "conditions": [18, 1200, "v", 18000], "internal_node_id": "0.0-45.0", "trial": 1, "time_elapsed": 453340, "serialpos": 8, "key_press": -1, "wordID": 1608, "type": "PRES_VIS", "trial_index": 63}, "uniqueid": "MTK2905:3KKG4CDWKJ53BMRQSV5Z19BBTA994D", "dateTime": 1519584374361}, {"current_trial": 64, "trialdata": {"rt": -1, "trial_type": "single-stim", "word": "lace", "stimulus": "<p id=\"stim\">LACE</p>", "conditions": [18, 1200, "v", 18000], "internal_node_id": "0.0-46.0", "trial": 1, "time_elapsed": 455591, "serialpos": 9, "key_press": -1, "wordID": 791, "type": "PRES_VIS", "trial_index": 64}, "uniqueid": "MTK2905:3KKG4CDWKJ53BMRQSV5Z19BBTA994D", "dateTime": 1519584376611}, {"current_trial": 65, "trialdata": {"rt": -1, "trial_type": "single-stim", "word": "driver", "stimulus": "<p id=\"stim\">DRIVER</p>", "conditions": [18, 1200, "v", 18000], "internal_node_id": "0.0-47.0", "trial": 1, "time_elapsed": 457780, "serialpos": 10, "key_press": -1, "wordID": 498, "type": "PRES_VIS", "trial_index": 65}, "uniqueid": "MTK2905:3KKG4CDWKJ53BMRQSV5Z19BBTA994D", "dateTime": 1519584378800}, {"current_trial": 66, "trialdata": {"rt": -1, "trial_type": "single-stim", "word": "sunset", "stimulus": "<p id=\"stim\">SUNSET</p>", "conditions": [18, 1200, "v", 18000], "internal_node_id": "0.0-48.0", "trial": 1, "time_elapsed": 459965, "serialpos": 11, "key_press": -1, "wordID": 1407, "type": "PRES_VIS", "trial_index": 66}, "uniqueid": "MTK2905:3KKG4CDWKJ53BMRQSV5Z19BBTA994D", "dateTime": 1519584380986}, {"current_trial": 67, "trialdata": {"rt": -1, "trial_type": "single-stim", "word": "servant", "stimulus": "<p id=\"stim\">SERVANT</p>", "conditions": [18, 1200, "v", 18000], "internal_node_id": "0.0-49.0", "trial": 1, "time_elapsed": 462059, "serialpos": 12, "key_press": -1, "wordID": 1270, "type": "PRES_VIS", "trial_index": 67}, "uniqueid": "MTK2905:3KKG4CDWKJ53BMRQSV5Z19BBTA994D", "dateTime": 1519584383079}, {"current_trial": 68, "trialdata": {"rt": -1, "trial_type": "single-stim", "word": "trench", "stimulus": "<p id=\"stim\">TRENCH</p>", "conditions": [18, 1200, "v", 18000], "internal_node_id": "0.0-50.0", "trial": 1, "time_elapsed": 464216, "serialpos": 13, "key_press": -1, "wordID": 1502, "type": "PRES_VIS", "trial_index": 68}, "uniqueid": "MTK2905:3KKG4CDWKJ53BMRQSV5Z19BBTA994D", "dateTime": 1519584385237}, {"current_trial": 69, "trialdata": {"rt": -1, "trial_type": "single-stim", "word": "egypt", "stimulus": "<p id=\"stim\">EGYPT</p>", "conditions": [18, 1200, "v", 18000], "internal_node_id": "0.0-51.0", "trial": 1, "time_elapsed": 466528, "serialpos": 14, "key_press": -1, "wordID": 518, "type": "PRES_VIS", "trial_index": 69}, "uniqueid": "MTK2905:3KKG4CDWKJ53BMRQSV5Z19BBTA994D", "dateTime": 1519584387549}, {"current_trial": 70, "trialdata": {"rt": -1, "trial_type": "single-stim", "word": "slug", "stimulus": "<p id=\"stim\">SLUG</p>", "conditions": [18, 1200, "v", 18000], "internal_node_id": "0.0-52.0", "trial": 1, "time_elapsed": 468934, "serialpos": 15, "key_press": -1, "wordID": 1328, "type": "PRES_VIS", "trial_index": 70}, "uniqueid": "MTK2905:3KKG4CDWKJ53BMRQSV5Z19BBTA994D", "dateTime": 1519584389954}, {"current_trial": 71, "trialdata": {"rt": -1, "trial_type": "single-stim", "word": "keeper", "stimulus": "<p id=\"stim\">KEEPER</p>", "conditions": [18, 1200, "v", 18000], "internal_node_id": "0.0-53.0", "trial": 1, "time_elapsed": 471107, "serialpos": 16, "key_press": -1, "wordID": 768, "type": "PRES_VIS", "trial_index": 71}, "uniqueid": "MTK2905:3KKG4CDWKJ53BMRQSV5Z19BBTA994D", "dateTime": 1519584392127}, {"current_trial": 72, "trialdata": {"rt": -1, "trial_type": "single-stim", "word": "shark", "stimulus": "<p id=\"stim\">SHARK</p>", "conditions": [18, 1200, "v", 18000], "internal_node_id": "0.0-54.0", "trial": 1, "time_elapsed": 473341, "serialpos": 17, "key_press": -1, "wordID": 1274, "type": "PRES_VIS", "trial_index": 72}, "uniqueid": "MTK2905:3KKG4CDWKJ53BMRQSV5Z19BBTA994D", "dateTime": 1519584394362}, {"current_trial": 73, "trialdata": {"rt": -1, "trial_type": "single-stim", "stimulus": "", "internal_node_id": "0.0-55.0-0.0", "time_elapsed": 475465, "key_press": -1, "type": "PRE_RECALL_DELAY", "trial_index": 73}, "uniqueid": "MTK2905:3KKG4CDWKJ53BMRQSV5Z19BBTA994D", "dateTime": 1519584396486}, {"current_trial": 74, "trialdata": {"rt": -1000, "trial_type": "single-audio", "stimulus": "/static/audio/400Hz.wav", "internal_node_id": "0.0-56.0", "time_elapsed": 475981, "key_press": -1, "type": "PRE_RECALL_ALERT", "trial_index": 74}, "uniqueid": "MTK2905:3KKG4CDWKJ53BMRQSV5Z19BBTA994D", "dateTime": 1519584397002}, {"current_trial": 75, "trialdata": {"rt": [3466, 4763, 6039, 7641, 11907, 15848], "recwords": ["police", "keeper", "shark", "helmet", "world", "lace"], "key_times": [2242, 2532, 2771, 2976, 3076, 3267, 3466, 3811, 3932, 4117, 4254, 4432, 4517, 4763, 5158, 5334, 5490, 5628, 5777, 6039, 6681, 6822, 6964, 7170, 7294, 7482, 7641, 11035, 11141, 11279, 11451, 11699, 11907, 15162, 15305, 15511, 15654, 15848], "trial_type": "free-recall", "conditions": [18, 1200, "v", 18000], "internal_node_id": "0.0-57.0-0.0", "key_presses": [80, 79, 76, 73, 67, 69, 13, 75, 69, 69, 80, 69, 82, 13, 83, 72, 65, 82, 75, 13, 72, 69, 76, 77, 69, 84, 13, 87, 79, 82, 76, 68, 13, 76, 65, 67, 69, 13], "trial": 1, "time_elapsed": 536001, "type": "FREE_RECALL", "trial_index": 75}, "uniqueid": "MTK2905:3KKG4CDWKJ53BMRQSV5Z19BBTA994D", "dateTime": 1519584457039}, {"current_trial": 76, "trialdata": {"rt": 3064, "trial_type": "text", "internal_node_id": "0.0-58.0", "time_elapsed": 541095, "key_press": 32, "type": "INSTRUCTIONS", "trial_index": 76}, "uniqueid": "MTK2905:3KKG4CDWKJ53BMRQSV5Z19BBTA994D", "dateTime": 1519584462117}, {"current_trial": 77, "trialdata": {"rt": [1990, 3912, 6247, 9641, 11532], "trial_type": "math-distractor", "key_times": [1570, 1990, 3483, 3693, 3912, 5696, 5944, 6247, 9210, 9400, 9641, 11148, 11312, 11532], "responses": ["8", "13", "18", "19", "16"], "num2": [1, 2, 3, 9, 1, 7], "num3": [6, 9, 6, 6, 7, 4], "conditions": [24, 1600, "v", 12000], "internal_node_id": "0.0-59.0", "key_presses": [104, 13, 97, 99, 13, 97, 104, 13, 97, 105, 13, 97, 102, 13], "trial": 2, "time_elapsed": 554126, "type": "DISTRACTOR", "trial_index": 77, "num1": [1, 2, 9, 4, 8, 9]}, "uniqueid": "MTK2905:3KKG4CDWKJ53BMRQSV5Z19BBTA994D", "dateTime": 1519584475147}, {"current_trial": 78, "trialdata": {"rt": -1, "trial_type": "single-stim", "stimulus": "<p id=\"stim\">10</p>", "internal_node_id": "0.0-60.0-0.0", "time_elapsed": 557154, "key_press": -1, "trial_index": 78}, "uniqueid": "MTK2905:3KKG4CDWKJ53BMRQSV5Z19BBTA994D", "dateTime": 1519584478176}, {"current_trial": 79, "trialdata": {"rt": -1, "trial_type": "single-stim", "stimulus": "<p id=\"stim\">9</p>", "internal_node_id": "0.0-60.0-1.0", "time_elapsed": 558169, "key_press": -1, "trial_index": 79}, "uniqueid": "MTK2905:3KKG4CDWKJ53BMRQSV5Z19BBTA994D", "dateTime": 1519584479192}, {"current_trial": 80, "trialdata": {"rt": -1, "trial_type": "single-stim", "stimulus": "<p id=\"stim\">8</p>", "internal_node_id": "0.0-60.0-2.0", "time_elapsed": 559184, "key_press": -1, "trial_index": 80}, "uniqueid": "MTK2905:3KKG4CDWKJ53BMRQSV5Z19BBTA994D", "dateTime": 1519584480206}, {"current_trial": 81, "trialdata": {"rt": -1, "trial_type": "single-stim", "stimulus": "<p id=\"stim\">7</p>", "internal_node_id": "0.0-60.0-3.0", "time_elapsed": 560200, "key_press": -1, "trial_index": 81}, "uniqueid": "MTK2905:3KKG4CDWKJ53BMRQSV5Z19BBTA994D", "dateTime": 1519584481221}, {"current_trial": 82, "trialdata": {"rt": -1, "trial_type": "single-stim", "stimulus": "<p id=\"stim\">6</p>", "internal_node_id": "0.0-60.0-4.0", "time_elapsed": 561217, "key_press": -1, "trial_index": 82}, "uniqueid": "MTK2905:3KKG4CDWKJ53BMRQSV5Z19BBTA994D", "dateTime": 1519584482238}, {"current_trial": 83, "trialdata": {"rt": -1, "trial_type": "single-stim", "stimulus": "<p id=\"stim\">5</p>", "internal_node_id": "0.0-60.0-5.0", "time_elapsed": 562230, "key_press": -1, "trial_index": 83}, "uniqueid": "MTK2905:3KKG4CDWKJ53BMRQSV5Z19BBTA994D", "dateTime": 1519584483251}, {"current_trial": 84, "trialdata": {"rt": -1, "trial_type": "single-stim", "stimulus": "<p id=\"stim\">4</p>", "internal_node_id": "0.0-60.0-6.0", "time_elapsed": 563247, "key_press": -1, "trial_index": 84}, "uniqueid": "MTK2905:3KKG4CDWKJ53BMRQSV5Z19BBTA994D", "dateTime": 1519584484268}, {"current_trial": 85, "trialdata": {"rt": -1, "trial_type": "single-stim", "stimulus": "<p id=\"stim\">3</p>", "internal_node_id": "0.0-60.0-7.0", "time_elapsed": 564264, "key_press": -1, "trial_index": 85}, "uniqueid": "MTK2905:3KKG4CDWKJ53BMRQSV5Z19BBTA994D", "dateTime": 1519584485287}, {"current_trial": 86, "trialdata": {"rt": -1, "trial_type": "single-stim", "stimulus": "<p id=\"stim\">2</p>", "internal_node_id": "0.0-60.0-8.0", "time_elapsed": 565278, "key_press": -1, "trial_index": 86}, "uniqueid": "MTK2905:3KKG4CDWKJ53BMRQSV5Z19BBTA994D", "dateTime": 1519584486299}, {"current_trial": 87, "trialdata": {"rt": -1, "trial_type": "single-stim", "stimulus": "<p id=\"stim\">1</p>", "internal_node_id": "0.0-60.0-9.0", "time_elapsed": 566294, "key_press": -1, "trial_index": 87}, "uniqueid": "MTK2905:3KKG4CDWKJ53BMRQSV5Z19BBTA994D", "dateTime": 1519584487314}, {"current_trial": 88, "trialdata": {"rt": -1, "trial_type": "single-stim", "stimulus": "<p id=\"stim\">+</p>", "internal_node_id": "0.0-61.0-0.0", "time_elapsed": 567810, "key_press": -1, "type": "FIXATION", "trial_index": 88}, "uniqueid": "MTK2905:3KKG4CDWKJ53BMRQSV5Z19BBTA994D", "dateTime": 1519584488830}, {"current_trial": 89, "trialdata": {"rt": -1, "trial_type": "single-stim", "word": "cashier", "stimulus": "<p id=\"stim\">CASHIER</p>", "conditions": [24, 1600, "v", 12000], "internal_node_id": "0.0-62.0", "trial": 2, "time_elapsed": 569418, "serialpos": 0, "key_press": -1, "wordID": 253, "type": "PRES_VIS", "trial_index": 89}, "uniqueid": "MTK2905:3KKG4CDWKJ53BMRQSV5Z19BBTA994D", "dateTime": 1519584490438}, {"current_trial": 90, "trialdata": {"rt": -1, "trial_type": "single-stim", "word": "harp", "stimulus": "<p id=\"stim\">HARP</p>", "conditions": [24, 1600, "v", 12000], "internal_node_id": "0.0-63.0", "trial": 2, "time_elapsed": 572027, "serialpos": 1, "key_press": -1, "wordID": 688, "type": "PRES_VIS", "trial_index": 90}, "uniqueid": "MTK2905:3KKG4CDWKJ53BMRQSV5Z19BBTA994D", "dateTime": 1519584493047}, {"current_trial": 91, "trialdata": {"rt": -1, "trial_type": "single-stim", "word": "ointment", "stimulus": "<p id=\"stim\">OINTMENT</p>", "conditions": [24, 1600, "v", 12000], "internal_node_id": "0.0-64.0", "trial": 2, "time_elapsed": 574809, "serialpos": 2, "key_press": -1, "wordID": 973, "type": "PRES_VIS", "trial_index": 91}, "uniqueid": "MTK2905:3KKG4CDWKJ53BMRQSV5Z19BBTA994D", "dateTime": 1519584495830}, {"current_trial": 92, "trialdata": {"rt": -1, "trial_type": "single-stim", "word": "pudding", "stimulus": "<p id=\"stim\">PUDDING</p>", "conditions": [24, 1600, "v", 12000], "internal_node_id": "0.0-65.0", "trial": 2, "time_elapsed": 577387, "serialpos": 3, "key_press": -1, "wordID": 1138, "type": "PRES_VIS", "trial_index": 92}, "uniqueid": "MTK2905:3KKG4CDWKJ53BMRQSV5Z19BBTA994D", "dateTime": 1519584498408}, {"current_trial": 93, "trialdata": {"rt": -1, "trial_type": "single-stim", "word": "camel", "stimulus": "<p id=\"stim\">CAMEL</p>", "conditions": [24, 1600, "v", 12000], "internal_node_id": "0.0-66.0", "trial": 2, "time_elapsed": 580011, "serialpos": 4, "key_press": -1, "wordID": 222, "type": "PRES_VIS", "trial_index": 93}, "uniqueid": "MTK2905:3KKG4CDWKJ53BMRQSV5Z19BBTA994D", "dateTime": 1519584501032}, {"current_trial": 94, "trialdata": {"rt": -1, "trial_type": "single-stim", "word": "plaid", "stimulus": "<p id=\"stim\">PLAID</p>", "conditions": [24, 1600, "v", 12000], "internal_node_id": "0.0-67.0", "trial": 2, "time_elapsed": 582481, "serialpos": 5, "key_press": -1, "wordID": 1079, "type": "PRES_VIS", "trial_index": 94}, "uniqueid": "MTK2905:3KKG4CDWKJ53BMRQSV5Z19BBTA994D", "dateTime": 1519584503502}, {"current_trial": 95, "trialdata": {"rt": -1, "trial_type": "single-stim", "word": "velvet", "stimulus": "<p id=\"stim\">VELVET</p>", "conditions": [24, 1600, "v", 12000], "internal_node_id": "0.0-68.0", "trial": 2, "time_elapsed": 584935, "serialpos": 6, "key_press": -1, "wordID": 1554, "type": "PRES_VIS", "trial_index": 95}, "uniqueid": "MTK2905:3KKG4CDWKJ53BMRQSV5Z19BBTA994D", "dateTime": 1519584505956}, {"current_trial": 96, "trialdata": {"rt": -1, "trial_type": "single-stim", "word": "milk", "stimulus": "<p id=\"stim\">MILK</p>", "conditions": [24, 1600, "v", 12000], "internal_node_id": "0.0-69.0", "trial": 2, "time_elapsed": 587745, "serialpos": 7, "key_press": -1, "wordID": 894, "type": "PRES_VIS", "trial_index": 96}, "uniqueid": "MTK2905:3KKG4CDWKJ53BMRQSV5Z19BBTA994D", "dateTime": 1519584508766}, {"current_trial": 97, "trialdata": {"rt": -1, "trial_type": "single-stim", "word": "donkey", "stimulus": "<p id=\"stim\">DONKEY</p>", "conditions": [24, 1600, "v", 12000], "internal_node_id": "0.0-70.0", "trial": 2, "time_elapsed": 590497, "serialpos": 8, "key_press": -1, "wordID": 483, "type": "PRES_VIS", "trial_index": 97}, "uniqueid": "MTK2905:3KKG4CDWKJ53BMRQSV5Z19BBTA994D", "dateTime": 1519584511517}, {"current_trial": 98, "trialdata": {"rt": -1, "trial_type": "single-stim", "word": "tourist", "stimulus": "<p id=\"stim\">TOURIST</p>", "conditions": [24, 1600, "v", 12000], "internal_node_id": "0.0-71.0", "trial": 2, "time_elapsed": 593254, "serialpos": 9, "key_press": -1, "wordID": 1487, "type": "PRES_VIS", "trial_index": 98}, "uniqueid": "MTK2905:3KKG4CDWKJ53BMRQSV5Z19BBTA994D", "dateTime": 1519584514275}, {"current_trial": 99, "trialdata": {"rt": -1, "trial_type": "single-stim", "word": "scissors", "stimulus": "<p id=\"stim\">SCISSORS</p>", "conditions": [24, 1600, "v", 12000], "internal_node_id": "0.0-72.0", "trial": 2, "time_elapsed": 595699, "serialpos": 10, "key_press": -1, "wordID": 1249, "type": "PRES_VIS", "trial_index": 99}, "uniqueid": "MTK2905:3KKG4CDWKJ53BMRQSV5Z19BBTA994D", "dateTime": 1519584516719}, {"current_trial": 100, "trialdata": {"rt": -1, "trial_type": "single-stim", "word": "plaza", "stimulus": "<p id=\"stim\">PLAZA</p>", "conditions": [24, 1600, "v", 12000], "internal_node_id": "0.0-73.0", "trial": 2, "time_elapsed": 598355, "serialpos": 11, "key_press": -1, "wordID": 1087, "type": "PRES_VIS", "trial_index": 100}, "uniqueid": "MTK2905:3KKG4CDWKJ53BMRQSV5Z19BBTA994D", "dateTime": 1519584519376}, {"current_trial": 101, "trialdata": {"rt": -1, "trial_type": "single-stim", "word": "piano", "stimulus": "<p id=\"stim\">PIANO</p>", "conditions": [24, 1600, "v", 12000], "internal_node_id": "0.0-74.0", "trial": 2, "time_elapsed": 600841, "serialpos": 12, "key_press": -1, "wordID": 1056, "type": "PRES_VIS", "trial_index": 101}, "uniqueid": "MTK2905:3KKG4CDWKJ53BMRQSV5Z19BBTA994D", "dateTime": 1519584521861}, {"current_trial": 102, "trialdata": {"rt": -1, "trial_type": "single-stim", "word": "muffin", "stimulus": "<p id=\"stim\">MUFFIN</p>", "conditions": [24, 1600, "v", 12000], "internal_node_id": "0.0-75.0", "trial": 2, "time_elapsed": 603568, "serialpos": 13, "key_press": -1, "wordID": 928, "type": "PRES_VIS", "trial_index": 102}, "uniqueid": "MTK2905:3KKG4CDWKJ53BMRQSV5Z19BBTA994D", "dateTime": 1519584524589}, {"current_trial": 103, "trialdata": {"rt": -1, "trial_type": "single-stim", "word": "liver", "stimulus": "<p id=\"stim\">LIVER</p>", "conditions": [24, 1600, "v", 12000], "internal_node_id": "0.0-76.0", "trial": 2, "time_elapsed": 606293, "serialpos": 14, "key_press": -1, "wordID": 832, "type": "PRES_VIS", "trial_index": 103}, "uniqueid": "MTK2905:3KKG4CDWKJ53BMRQSV5Z19BBTA994D", "dateTime": 1519584527314}, {"current_trial": 104, "trialdata": {"rt": -1, "trial_type": "single-stim", "word": "kidney", "stimulus": "<p id=\"stim\">KIDNEY</p>", "conditions": [24, 1600, "v", 12000], "internal_node_id": "0.0-77.0", "trial": 2, "time_elapsed": 608950, "serialpos": 15, "key_press": -1, "wordID": 775, "type": "PRES_VIS", "trial_index": 104}, "uniqueid": "MTK2905:3KKG4CDWKJ53BMRQSV5Z19BBTA994D", "dateTime": 1519584529971}, {"current_trial": 105, "trialdata": {"rt": -1, "trial_type": "single-stim", "word": "banjo", "stimulus": "<p id=\"stim\">BANJO</p>", "conditions": [24, 1600, "v", 12000], "internal_node_id": "0.0-78.0", "trial": 2, "time_elapsed": 611419, "serialpos": 16, "key_press": -1, "wordID": 81, "type": "PRES_VIS", "trial_index": 105}, "uniqueid": "MTK2905:3KKG4CDWKJ53BMRQSV5Z19BBTA994D", "dateTime": 1519584532440}, {"current_trial": 106, "trialdata": {"rt": -1, "trial_type": "single-stim", "word": "pistol", "stimulus": "<p id=\"stim\">PISTOL</p>", "conditions": [24, 1600, "v", 12000], "internal_node_id": "0.0-79.0", "trial": 2, "time_elapsed": 614059, "serialpos": 17, "key_press": -1, "wordID": 1074, "type": "PRES_VIS", "trial_index": 106}, "uniqueid": "MTK2905:3KKG4CDWKJ53BMRQSV5Z19BBTA994D", "dateTime": 1519584535080}, {"current_trial": 107, "trialdata": {"rt": -1, "trial_type": "single-stim", "word": "twister", "stimulus": "<p id=\"stim\">TWISTER</p>", "conditions": [24, 1600, "v", 12000], "internal_node_id": "0.0-80.0", "trial": 2, "time_elapsed": 616872, "serialpos": 18, "key_press": -1, "wordID": 1529, "type": "PRES_VIS", "trial_index": 107}, "uniqueid": "MTK2905:3KKG4CDWKJ53BMRQSV5Z19BBTA994D", "dateTime": 1519584537893}, {"current_trial": 108, "trialdata": {"rt": -1, "trial_type": "single-stim", "word": "razor", "stimulus": "<p id=\"stim\">RAZOR</p>", "conditions": [24, 1600, "v", 12000], "internal_node_id": "0.0-81.0", "trial": 2, "time_elapsed": 619466, "serialpos": 19, "key_press": -1, "wordID": 1170, "type": "PRES_VIS", "trial_index": 108}, "uniqueid": "MTK2905:3KKG4CDWKJ53BMRQSV5Z19BBTA994D", "dateTime": 1519584540486}, {"current_trial": 109, "trialdata": {"rt": -1, "trial_type": "single-stim", "word": "sibling", "stimulus": "<p id=\"stim\">SIBLING</p>", "conditions": [24, 1600, "v", 12000], "internal_node_id": "0.0-82.0", "trial": 2, "time_elapsed": 621955, "serialpos": 20, "key_press": -1, "wordID": 1300, "type": "PRES_VIS", "trial_index": 109}, "uniqueid": "MTK2905:3KKG4CDWKJ53BMRQSV5Z19BBTA994D", "dateTime": 1519584542975}, {"current_trial": 110, "trialdata": {"rt": -1, "trial_type": "single-stim", "word": "zebra", "stimulus": "<p id=\"stim\">ZEBRA</p>", "conditions": [24, 1600, "v", 12000], "internal_node_id": "0.0-83.0", "trial": 2, "time_elapsed": 624501, "serialpos": 21, "key_press": -1, "wordID": 1634, "type": "PRES_VIS", "trial_index": 110}, "uniqueid": "MTK2905:3KKG4CDWKJ53BMRQSV5Z19BBTA994D", "dateTime": 1519584545522}, {"current_trial": 111, "trialdata": {"rt": -1, "trial_type": "single-stim", "word": "cross", "stimulus": "<p id=\"stim\">CROSS</p>", "conditions": [24, 1600, "v", 12000], "internal_node_id": "0.0-84.0", "trial": 2, "time_elapsed": 627298, "serialpos": 22, "key_press": -1, "wordID": 412, "type": "PRES_VIS", "trial_index": 111}, "uniqueid": "MTK2905:3KKG4CDWKJ53BMRQSV5Z19BBTA994D", "dateTime": 1519584548318}, {"current_trial": 112, "trialdata": {"rt": -1, "trial_type": "single-stim", "word": "queen", "stimulus": "<p id=\"stim\">QUEEN</p>", "conditions": [24, 1600, "v", 12000], "internal_node_id": "0.0-85.0", "trial": 2, "time_elapsed": 630033, "serialpos": 23, "key_press": -1, "wordID": 1148, "type": "PRES_VIS", "trial_index": 112}, "uniqueid": "MTK2905:3KKG4CDWKJ53BMRQSV5Z19BBTA994D", "dateTime": 1519584551053}, {"current_trial": 113, "trialdata": {"rt": -1, "trial_type": "single-stim", "stimulus": "", "internal_node_id": "0.0-86.0-0.0", "time_elapsed": 632470, "key_press": -1, "type": "PRE_RECALL_DELAY", "trial_index": 113}, "uniqueid": "MTK2905:3KKG4CDWKJ53BMRQSV5Z19BBTA994D", "dateTime": 1519584553491}, {"current_trial": 114, "trialdata": {"rt": -1000, "trial_type": "single-audio", "stimulus": "/static/audio/400Hz.wav", "internal_node_id": "0.0-87.0", "time_elapsed": 632986, "key_press": -1, "type": "PRE_RECALL_ALERT", "trial_index": 114}, "uniqueid": "MTK2905:3KKG4CDWKJ53BMRQSV5Z19BBTA994D", "dateTime": 1519584554007}, {"current_trial": 115, "trialdata": {"rt": [3629, 5297, 6536, 7899, 7970, 9168, 10691, 12280, 14859, 16563, 18286, 20936, 22997, 25217, 27405, 32028, 34512, 36485, 41097], "recwords": ["sibling", "velvet", "camel", "milk", "", "liver", "razor", "kidney", "pistol", "pudding", "scissors", "tourist", "donkey", "twister", "zebra", "plaid", "banjo", "cross", "piano"], "key_times": [1952, 2198, 2494, 2667, 2812, 2952, 3260, 3629, 4069, 4231, 4359, 4593, 4777, 5008, 5297, 5692, 5872, 5977, 6110, 6271, 6536, 7038, 7188, 7338, 7609, 7899, 7970, 8479, 8647, 8715, 8865, 9013, 9168, 9579, 9771, 10070, 10209, 10407, 10691, 11116, 11351, 11446, 11567, 11689, 11908, 12280, 13517, 13744, 13806, 14084, 14186, 14513, 14859, 15282, 15423, 15734, 15925, 16024, 16115, 16272, 16563, 16784, 16988, 17196, 17389, 17612, 17743, 17864, 18096, 18286, 18963, 19081, 19141, 19301, 19434, 19591, 20288, 20402, 20540, 20936, 21308, 21385, 21831, 22191, 22574, 22719, 22997, 23738, 23951, 24094, 24253, 24507, 24718, 24853, 25217, 25984, 26199, 26513, 26862, 27054, 27405, 30686, 30939, 31129, 31295, 31452, 32028, 32663, 32874, 32990, 33270, 33685, 34512, 34825, 35061, 35158, 35365, 35609, 36485, 39807, 40000, 40177, 40418, 40725, 41097], "trial_type": "free-recall", "conditions": [24, 1600, "v", 12000], "internal_node_id": "0.0-88.0-0.0", "key_presses": [83, 73, 66, 76, 73, 78, 71, 13, 86, 69, 76, 86, 69, 84, 13, 67, 65, 77, 69, 76, 13, 77, 73, 76, 75, 13, 13, 76, 73, 86, 69, 82, 13, 82, 65, 90, 79, 82, 13, 75, 73, 68, 78, 69, 89, 13, 80, 73, 83, 84, 79, 76, 13, 80, 85, 68, 68, 73, 78, 71, 13, 83, 67, 73, 83, 83, 79, 82, 83, 13, 84, 79, 85, 82, 73, 84, 8, 83, 84, 13, 68, 79, 78, 75, 69, 89, 13, 84, 87, 73, 83, 84, 69, 82, 13, 90, 69, 66, 82, 65, 13, 80, 76, 65, 73, 68, 13, 66, 65, 78, 74, 79, 13, 67, 82, 79, 83, 83, 13, 80, 73, 65, 78, 79, 13], "trial": 2, "time_elapsed": 693003, "type": "FREE_RECALL", "trial_index": 115}, "uniqueid": "MTK2905:3KKG4CDWKJ53BMRQSV5Z19BBTA994D", "dateTime": 1519584614040}, {"current_trial": 116, "trialdata": {"rt": 5458, "trial_type": "text", "internal_node_id": "0.0-89.0", "time_elapsed": 700491, "key_press": 32, "type": "INSTRUCTIONS", "trial_index": 116}, "uniqueid": "MTK2905:3KKG4CDWKJ53BMRQSV5Z19BBTA994D", "dateTime": 1519584621512}, {"current_trial": 117, "trialdata": {"rt": [2073, 4472, 6047, 7747, 9371, 11738], "trial_type": "math-distractor", "key_times": [1471, 1654, 2073, 3700, 3883, 4472, 5575, 5785, 6047, 7256, 7747, 9068, 9371, 11348, 11528, 11738], "responses": ["20", "14", "12", "9", "9", "12"], "num2": [9, 5, 6, 1, 1, 5, 6], "num3": [2, 7, 2, 2, 1, 4, 4], "conditions": [24, 800, "v", 12000], "internal_node_id": "0.0-90.0", "key_presses": [98, 96, 13, 97, 100, 13, 97, 98, 13, 105, 13, 105, 13, 97, 98, 13], "trial": 3, "time_elapsed": 714517, "type": "DISTRACTOR", "trial_index": 117, "num1": [9, 2, 4, 6, 7, 3, 3]}, "uniqueid": "MTK2905:3KKG4CDWKJ53BMRQSV5Z19BBTA994D", "dateTime": 1519584635537}, {"current_trial": 118, "trialdata": {"rt": -1, "trial_type": "single-stim", "stimulus": "<p id=\"stim\">10</p>", "internal_node_id": "0.0-91.0-0.0", "time_elapsed": 717548, "key_press": -1, "trial_index": 118}, "uniqueid": "MTK2905:3KKG4CDWKJ53BMRQSV5Z19BBTA994D", "dateTime": 1519584638569}, {"current_trial": 119, "trialdata": {"rt": -1, "trial_type": "single-stim", "stimulus": "<p id=\"stim\">9</p>", "internal_node_id": "0.0-91.0-1.0", "time_elapsed": 718563, "key_press": -1, "trial_index": 119}, "uniqueid": "MTK2905:3KKG4CDWKJ53BMRQSV5Z19BBTA994D", "dateTime": 1519584639583}, {"current_trial": 120, "trialdata": {"rt": -1, "trial_type": "single-stim", "stimulus": "<p id=\"stim\">8</p>", "internal_node_id": "0.0-91.0-2.0", "time_elapsed": 719579, "key_press": -1, "trial_index": 120}, "uniqueid": "MTK2905:3KKG4CDWKJ53BMRQSV5Z19BBTA994D", "dateTime": 1519584640600}, {"current_trial": 121, "trialdata": {"rt": -1, "trial_type": "single-stim", "stimulus": "<p id=\"stim\">7</p>", "internal_node_id": "0.0-91.0-3.0", "time_elapsed": 720595, "key_press": -1, "trial_index": 121}, "uniqueid": "MTK2905:3KKG4CDWKJ53BMRQSV5Z19BBTA994D", "dateTime": 1519584641616}, {"current_trial": 122, "trialdata": {"rt": -1, "trial_type": "single-stim", "stimulus": "<p id=\"stim\">6</p>", "internal_node_id": "0.0-91.0-4.0", "time_elapsed": 721611, "key_press": -1, "trial_index": 122}, "uniqueid": "MTK2905:3KKG4CDWKJ53BMRQSV5Z19BBTA994D", "dateTime": 1519584642632}, {"current_trial": 123, "trialdata": {"rt": -1, "trial_type": "single-stim", "stimulus": "<p id=\"stim\">5</p>", "internal_node_id": "0.0-91.0-5.0", "time_elapsed": 722627, "key_press": -1, "trial_index": 123}, "uniqueid": "MTK2905:3KKG4CDWKJ53BMRQSV5Z19BBTA994D", "dateTime": 1519584643647}, {"current_trial": 124, "trialdata": {"rt": -1, "trial_type": "single-stim", "stimulus": "<p id=\"stim\">4</p>", "internal_node_id": "0.0-91.0-6.0", "time_elapsed": 723642, "key_press": -1, "trial_index": 124}, "uniqueid": "MTK2905:3KKG4CDWKJ53BMRQSV5Z19BBTA994D", "dateTime": 1519584644662}, {"current_trial": 125, "trialdata": {"rt": -1, "trial_type": "single-stim", "stimulus": "<p id=\"stim\">3</p>", "internal_node_id": "0.0-91.0-7.0", "time_elapsed": 724658, "key_press": -1, "trial_index": 125}, "uniqueid": "MTK2905:3KKG4CDWKJ53BMRQSV5Z19BBTA994D", "dateTime": 1519584645679}, {"current_trial": 126, "trialdata": {"rt": -1, "trial_type": "single-stim", "stimulus": "<p id=\"stim\">2</p>", "internal_node_id": "0.0-91.0-8.0", "time_elapsed": 725674, "key_press": -1, "trial_index": 126}, "uniqueid": "MTK2905:3KKG4CDWKJ53BMRQSV5Z19BBTA994D", "dateTime": 1519584646694}, {"current_trial": 127, "trialdata": {"rt": -1, "trial_type": "single-stim", "stimulus": "<p id=\"stim\">1</p>", "internal_node_id": "0.0-91.0-9.0", "time_elapsed": 726689, "key_press": -1, "trial_index": 127}, "uniqueid": "MTK2905:3KKG4CDWKJ53BMRQSV5Z19BBTA994D", "dateTime": 1519584647710}, {"current_trial": 128, "trialdata": {"rt": -1, "trial_type": "single-stim", "stimulus": "<p id=\"stim\">+</p>", "internal_node_id": "0.0-92.0-0.0", "time_elapsed": 728205, "key_press": -1, "type": "FIXATION", "trial_index": 128}, "uniqueid": "MTK2905:3KKG4CDWKJ53BMRQSV5Z19BBTA994D", "dateTime": 1519584649225}, {"current_trial": 129, "trialdata": {"rt": -1, "trial_type": "single-stim", "word": "pasta", "stimulus": "<p id=\"stim\">PASTA</p>", "conditions": [24, 800, "v", 12000], "internal_node_id": "0.0-93.0", "trial": 3, "time_elapsed": 729017, "serialpos": 0, "key_press": -1, "wordID": 1020, "type": "PRES_VIS", "trial_index": 129}, "uniqueid": "MTK2905:3KKG4CDWKJ53BMRQSV5Z19BBTA994D", "dateTime": 1519584650038}, {"current_trial": 130, "trialdata": {"rt": -1, "trial_type": "single-stim", "word": "piston", "stimulus": "<p id=\"stim\">PISTON</p>", "conditions": [24, 800, "v", 12000], "internal_node_id": "0.0-94.0", "trial": 3, "time_elapsed": 730939, "serialpos": 1, "key_press": -1, "wordID": 1075, "type": "PRES_VIS", "trial_index": 130}, "uniqueid": "MTK2905:3KKG4CDWKJ53BMRQSV5Z19BBTA994D", "dateTime": 1519584651959}, {"current_trial": 131, "trialdata": {"rt": -1, "trial_type": "single-stim", "word": "bullet", "stimulus": "<p id=\"stim\">BULLET</p>", "conditions": [24, 800, "v", 12000], "internal_node_id": "0.0-95.0", "trial": 3, "time_elapsed": 732892, "serialpos": 2, "key_press": -1, "wordID": 193, "type": "PRES_VIS", "trial_index": 131}, "uniqueid": "MTK2905:3KKG4CDWKJ53BMRQSV5Z19BBTA994D", "dateTime": 1519584653913}, {"current_trial": 132, "trialdata": {"rt": -1, "trial_type": "single-stim", "word": "perfume", "stimulus": "<p id=\"stim\">PERFUME</p>", "conditions": [24, 800, "v", 12000], "internal_node_id": "0.0-96.0", "trial": 3, "time_elapsed": 734705, "serialpos": 3, "key_press": -1, "wordID": 1048, "type": "PRES_VIS", "trial_index": 132}, "uniqueid": "MTK2905:3KKG4CDWKJ53BMRQSV5Z19BBTA994D", "dateTime": 1519584655725}, {"current_trial": 133, "trialdata": {"rt": -1, "trial_type": "single-stim", "word": "valve", "stimulus": "<p id=\"stim\">VALVE</p>", "conditions": [24, 800, "v", 12000], "internal_node_id": "0.0-97.0", "trial": 3, "time_elapsed": 736657, "serialpos": 4, "key_press": -1, "wordID": 1545, "type": "PRES_VIS", "trial_index": 133}, "uniqueid": "MTK2905:3KKG4CDWKJ53BMRQSV5Z19BBTA994D", "dateTime": 1519584657677}, {"current_trial": 134, "trialdata": {"rt": -1, "trial_type": "single-stim", "word": "pocket", "stimulus": "<p id=\"stim\">POCKET</p>", "conditions": [24, 800, "v", 12000], "internal_node_id": "0.0-98.0", "trial": 3, "time_elapsed": 738611, "serialpos": 5, "key_press": -1, "wordID": 1092, "type": "PRES_VIS", "trial_index": 134}, "uniqueid": "MTK2905:3KKG4CDWKJ53BMRQSV5Z19BBTA994D", "dateTime": 1519584659631}, {"current_trial": 135, "trialdata": {"rt": -1, "trial_type": "single-stim", "word": "wrist", "stimulus": "<p id=\"stim\">WRIST</p>", "conditions": [24, 800, "v", 12000], "internal_node_id": "0.0-99.0", "trial": 3, "time_elapsed": 740470, "serialpos": 6, "key_press": -1, "wordID": 1625, "type": "PRES_VIS", "trial_index": 135}, "uniqueid": "MTK2905:3KKG4CDWKJ53BMRQSV5Z19BBTA994D", "dateTime": 1519584661491}, {"current_trial": 136, "trialdata": {"rt": -1, "trial_type": "single-stim", "word": "shoulder", "stimulus": "<p id=\"stim\">SHOULDER</p>", "conditions": [24, 800, "v", 12000], "internal_node_id": "0.0-100.0", "trial": 3, "time_elapsed": 742268, "serialpos": 7, "key_press": -1, "wordID": 1293, "type": "PRES_VIS", "trial_index": 136}, "uniqueid": "MTK2905:3KKG4CDWKJ53BMRQSV5Z19BBTA994D", "dateTime": 1519584663289}, {"current_trial": 137, "trialdata": {"rt": -1, "trial_type": "single-stim", "word": "stream", "stimulus": "<p id=\"stim\">STREAM</p>", "conditions": [24, 800, "v", 12000], "internal_node_id": "0.0-101.0", "trial": 3, "time_elapsed": 744236, "serialpos": 8, "key_press": -1, "wordID": 1391, "type": "PRES_VIS", "trial_index": 137}, "uniqueid": "MTK2905:3KKG4CDWKJ53BMRQSV5Z19BBTA994D", "dateTime": 1519584665257}, {"current_trial": 138, "trialdata": {"rt": -1, "trial_type": "single-stim", "word": "river", "stimulus": "<p id=\"stim\">RIVER</p>", "conditions": [24, 800, "v", 12000], "internal_node_id": "0.0-102.0", "trial": 3, "time_elapsed": 745986, "serialpos": 9, "key_press": -1, "wordID": 1193, "type": "PRES_VIS", "trial_index": 138}, "uniqueid": "MTK2905:3KKG4CDWKJ53BMRQSV5Z19BBTA994D", "dateTime": 1519584667007}, {"current_trial": 139, "trialdata": {"rt": -1, "trial_type": "single-stim", "word": "washer", "stimulus": "<p id=\"stim\">WASHER</p>", "conditions": [24, 800, "v", 12000], "internal_node_id": "0.0-103.0", "trial": 3, "time_elapsed": 747972, "serialpos": 10, "key_press": -1, "wordID": 1591, "type": "PRES_VIS", "trial_index": 139}, "uniqueid": "MTK2905:3KKG4CDWKJ53BMRQSV5Z19BBTA994D", "dateTime": 1519584668993}, {"current_trial": 140, "trialdata": {"rt": -1, "trial_type": "single-stim", "word": "ketchup", "stimulus": "<p id=\"stim\">KETCHUP</p>", "conditions": [24, 800, "v", 12000], "internal_node_id": "0.0-104.0", "trial": 3, "time_elapsed": 749719, "serialpos": 11, "key_press": -1, "wordID": 770, "type": "PRES_VIS", "trial_index": 140}, "uniqueid": "MTK2905:3KKG4CDWKJ53BMRQSV5Z19BBTA994D", "dateTime": 1519584670740}, {"current_trial": 141, "trialdata": {"rt": -1, "trial_type": "single-stim", "word": "brick", "stimulus": "<p id=\"stim\">BRICK</p>", "conditions": [24, 800, "v", 12000], "internal_node_id": "0.0-105.0", "trial": 3, "time_elapsed": 751704, "serialpos": 12, "key_press": -1, "wordID": 171, "type": "PRES_VIS", "trial_index": 141}, "uniqueid": "MTK2905:3KKG4CDWKJ53BMRQSV5Z19BBTA994D", "dateTime": 1519584672725}, {"current_trial": 142, "trialdata": {"rt": -1, "trial_type": "single-stim", "word": "palace", "stimulus": "<p id=\"stim\">PALACE</p>", "conditions": [24, 800, "v", 12000], "internal_node_id": "0.0-106.0", "trial": 3, "time_elapsed": 753563, "serialpos": 13, "key_press": -1, "wordID": 1005, "type": "PRES_VIS", "trial_index": 142}, "uniqueid": "MTK2905:3KKG4CDWKJ53BMRQSV5Z19BBTA994D", "dateTime": 1519584674584}, {"current_trial": 143, "trialdata": {"rt": -1, "trial_type": "single-stim", "word": "parrot", "stimulus": "<p id=\"stim\">PARROT</p>", "conditions": [24, 800, "v", 12000], "internal_node_id": "0.0-107.0", "trial": 3, "time_elapsed": 755204, "serialpos": 14, "key_press": -1, "wordID": 1014, "type": "PRES_VIS", "trial_index": 143}, "uniqueid": "MTK2905:3KKG4CDWKJ53BMRQSV5Z19BBTA994D", "dateTime": 1519584676225}, {"current_trial": 144, "trialdata": {"rt": -1, "trial_type": "single-stim", "word": "proton", "stimulus": "<p id=\"stim\">PROTON</p>", "conditions": [24, 800, "v", 12000], "internal_node_id": "0.0-108.0", "trial": 3, "time_elapsed": 756986, "serialpos": 15, "key_press": -1, "wordID": 1131, "type": "PRES_VIS", "trial_index": 144}, "uniqueid": "MTK2905:3KKG4CDWKJ53BMRQSV5Z19BBTA994D", "dateTime": 1519584678007}, {"current_trial": 145, "trialdata": {"rt": -1, "trial_type": "single-stim", "word": "basement", "stimulus": "<p id=\"stim\">BASEMENT</p>", "conditions": [24, 800, "v", 12000], "internal_node_id": "0.0-109.0", "trial": 3, "time_elapsed": 758893, "serialpos": 16, "key_press": -1, "wordID": 93, "type": "PRES_VIS", "trial_index": 145}, "uniqueid": "MTK2905:3KKG4CDWKJ53BMRQSV5Z19BBTA994D", "dateTime": 1519584679913}, {"current_trial": 146, "trialdata": {"rt": -1, "trial_type": "single-stim", "word": "kitchen", "stimulus": "<p id=\"stim\">KITCHEN</p>", "conditions": [24, 800, "v", 12000], "internal_node_id": "0.0-110.0", "trial": 3, "time_elapsed": 760829, "serialpos": 17, "key_press": -1, "wordID": 777, "type": "PRES_VIS", "trial_index": 146}, "uniqueid": "MTK2905:3KKG4CDWKJ53BMRQSV5Z19BBTA994D", "dateTime": 1519584681850}, {"current_trial": 147, "trialdata": {"rt": -1, "trial_type": "single-stim", "word": "whiskers", "stimulus": "<p id=\"stim\">WHISKERS</p>", "conditions": [24, 800, "v", 12000], "internal_node_id": "0.0-111.0", "trial": 3, "time_elapsed": 762801, "serialpos": 18, "key_press": -1, "wordID": 1604, "type": "PRES_VIS", "trial_index": 147}, "uniqueid": "MTK2905:3KKG4CDWKJ53BMRQSV5Z19BBTA994D", "dateTime": 1519584683821}, {"current_trial": 148, "trialdata": {"rt": -1, "trial_type": "single-stim", "word": "daisy", "stimulus": "<p id=\"stim\">DAISY</p>", "conditions": [24, 800, "v", 12000], "internal_node_id": "0.0-112.0", "trial": 3, "time_elapsed": 764783, "serialpos": 19, "key_press": -1, "wordID": 434, "type": "PRES_VIS", "trial_index": 148}, "uniqueid": "MTK2905:3KKG4CDWKJ53BMRQSV5Z19BBTA994D", "dateTime": 1519584685804}, {"current_trial": 149, "trialdata": {"rt": -1, "trial_type": "single-stim", "word": "rattle", "stimulus": "<p id=\"stim\">RATTLE</p>", "conditions": [24, 800, "v", 12000], "internal_node_id": "0.0-113.0", "trial": 3, "time_elapsed": 766782, "serialpos": 20, "key_press": -1, "wordID": 1169, "type": "PRES_VIS", "trial_index": 149}, "uniqueid": "MTK2905:3KKG4CDWKJ53BMRQSV5Z19BBTA994D", "dateTime": 1519584687803}, {"current_trial": 150, "trialdata": {"rt": -1, "trial_type": "single-stim", "word": "padding", "stimulus": "<p id=\"stim\">PADDING</p>", "conditions": [24, 800, "v", 12000], "internal_node_id": "0.0-114.0", "trial": 3, "time_elapsed": 768532, "serialpos": 21, "key_press": -1, "wordID": 998, "type": "PRES_VIS", "trial_index": 150}, "uniqueid": "MTK2905:3KKG4CDWKJ53BMRQSV5Z19BBTA994D", "dateTime": 1519584689553}, {"current_trial": 151, "trialdata": {"rt": -1, "trial_type": "single-stim", "word": "sword", "stimulus": "<p id=\"stim\">SWORD</p>", "conditions": [24, 800, "v", 12000], "internal_node_id": "0.0-115.0", "trial": 3, "time_elapsed": 770378, "serialpos": 22, "key_press": -1, "wordID": 1422, "type": "PRES_VIS", "trial_index": 151}, "uniqueid": "MTK2905:3KKG4CDWKJ53BMRQSV5Z19BBTA994D", "dateTime": 1519584691399}, {"current_trial": 152, "trialdata": {"rt": -1, "trial_type": "single-stim", "word": "lily", "stimulus": "<p id=\"stim\">LILY</p>", "conditions": [24, 800, "v", 12000], "internal_node_id": "0.0-116.0", "trial": 3, "time_elapsed": 772346, "serialpos": 23, "key_press": -1, "wordID": 820, "type": "PRES_VIS", "trial_index": 152}, "uniqueid": "MTK2905:3KKG4CDWKJ53BMRQSV5Z19BBTA994D", "dateTime": 1519584693367}, {"current_trial": 153, "trialdata": {"rt": -1, "trial_type": "single-stim", "stimulus": "", "internal_node_id": "0.0-117.0-0.0", "time_elapsed": 774784, "key_press": -1, "type": "PRE_RECALL_DELAY", "trial_index": 153}, "uniqueid": "MTK2905:3KKG4CDWKJ53BMRQSV5Z19BBTA994D", "dateTime": 1519584695805}, {"current_trial": 154, "trialdata": {"rt": -1000, "trial_type": "single-audio", "stimulus": "/static/audio/400Hz.wav", "internal_node_id": "0.0-118.0", "time_elapsed": 775298, "key_press": -1, "type": "PRE_RECALL_ALERT", "trial_index": 154}, "uniqueid": "MTK2905:3KKG4CDWKJ53BMRQSV5Z19BBTA994D", "dateTime": 1519584696319}, {"current_trial": 155, "trialdata": {"rt": [4142, 5709, 7169, 8999, 11191, 12742, 14432, 19213, 21329, 22593, 25481, 27199, 30654, 32411, 34028, 35717, 38765, 40127, 42770], "recwords": ["washer", "valve", "stream", "river", "kitchen", "basement", "daisy", "perfume", "bullet", "pasta", "perfume", "piston", "daisy", "palace", "rattle", "padding", "parrot", "shoulder", "pocket"], "key_times": [2648, 2917, 2988, 3108, 3339, 3506, 4142, 4425, 4612, 4704, 5073, 5372, 5709, 6100, 6245, 6471, 6493, 6854, 6939, 7169, 7398, 7484, 8090, 8301, 8331, 8628, 8730, 8999, 9519, 9702, 9800, 10050, 10472, 10581, 10727, 10853, 10968, 11191, 11386, 11569, 11744, 11900, 12051, 12228, 12351, 12516, 12742, 13049, 13270, 13483, 13751, 14076, 14432, 15990, 16115, 16194, 16446, 16516, 17625, 18457, 18664, 18812, 19213, 19496, 19664, 20583, 20788, 20881, 21067, 21329, 21785, 21906, 22013, 22195, 22376, 22593, 23127, 24423, 24563, 24802, 24899, 25135, 25288, 25481, 26044, 26270, 26410, 26691, 26798, 26904, 27199, 28604, 28885, 29080, 29273, 29443, 29531, 29913, 30128, 30319, 30654, 31448, 31563, 31699, 31814, 32037, 32252, 32411, 32950, 33200, 33363, 33519, 33654, 33830, 34028, 34522, 34635, 34869, 35085, 35159, 35276, 35392, 35717, 37325, 37456, 37560, 37746, 38181, 38390, 38765, 39032, 39155, 39255, 39363, 39535, 39649, 39890, 40004, 40127, 41310, 41602, 41799, 41925, 42088, 42463, 42770], "trial_type": "free-recall", "conditions": [24, 800, "v", 12000], "internal_node_id": "0.0-119.0-0.0", "key_presses": [87, 65, 83, 72, 69, 82, 13, 86, 65, 76, 86, 69, 13, 83, 84, 82, 69, 65, 77, 13, 82, 69, 8, 73, 86, 69, 82, 13, 75, 73, 84, 69, 8, 67, 72, 69, 78, 13, 66, 65, 83, 69, 77, 69, 78, 84, 13, 68, 65, 73, 83, 89, 13, 80, 69, 82, 70, 85, 69, 8, 77, 69, 13, 66, 85, 76, 76, 69, 84, 13, 80, 65, 83, 84, 65, 13, 80, 69, 82, 70, 85, 77, 69, 13, 80, 73, 83, 84, 79, 78, 13, 68, 65, 73, 83, 73, 78, 8, 8, 89, 13, 80, 65, 76, 65, 67, 69, 13, 82, 65, 84, 84, 76, 69, 13, 80, 65, 68, 68, 73, 78, 71, 13, 80, 65, 82, 82, 79, 84, 13, 83, 72, 79, 85, 76, 68, 69, 82, 13, 80, 79, 67, 75, 69, 84, 13], "trial": 3, "time_elapsed": 835311, "type": "FREE_RECALL", "trial_index": 155}, "uniqueid": "MTK2905:3KKG4CDWKJ53BMRQSV5Z19BBTA994D", "dateTime": 1519584756347}, {"current_trial": 156, "trialdata": {"rt": 2219, "trial_type": "text", "internal_node_id": "0.0-120.0", "time_elapsed": 839561, "key_press": 32, "type": "INSTRUCTIONS", "trial_index": 156}, "uniqueid": "MTK2905:3KKG4CDWKJ53BMRQSV5Z19BBTA994D", "dateTime": 1519584760582}, {"current_trial": 157, "trialdata": {"rt": [1719, 3339, 4923, 6356, 7890, 9632, 11819, 14539, 17123, 18779, 21766], "trial_type": "math-distractor", "key_times": [1196, 1719, 2959, 3145, 3339, 4521, 4923, 6006, 6162, 6356, 7451, 7657, 7890, 9068, 9335, 9632, 11214, 11415, 11819, 13146, 13913, 14219, 14539, 16799, 16963, 17123, 18359, 18547, 18779, 21388, 21541, 21766], "responses": ["5", "10", "7", "13", "14", "18", "17", "7", "22", "12", "23"], "num2": [2, 1, 1, 2, 2, 3, 9, 4, 7, 5, 8, 9], "num3": [2, 4, 3, 2, 4, 9, 2, 1, 7, 1, 6, 6], "conditions": [24, 1600, "v", 24000], "internal_node_id": "0.0-121.0", "key_presses": [101, 13, 97, 96, 13, 103, 13, 97, 99, 13, 97, 100, 13, 97, 104, 13, 97, 103, 13, 97, 8, 103, 13, 98, 98, 13, 97, 98, 13, 98, 99, 13], "trial": 4, "time_elapsed": 865592, "type": "DISTRACTOR", "trial_index": 157, "num1": [1, 5, 3, 9, 8, 6, 6, 2, 8, 6, 9, 7]}, "uniqueid": "MTK2905:3KKG4CDWKJ53BMRQSV5Z19BBTA994D", "dateTime": 1519584786613}, {"current_trial": 158, "trialdata": {"rt": -1, "trial_type": "single-stim", "stimulus": "<p id=\"stim\">10</p>", "internal_node_id": "0.0-122.0-0.0", "time_elapsed": 868623, "key_press": -1, "trial_index": 158}, "uniqueid": "MTK2905:3KKG4CDWKJ53BMRQSV5Z19BBTA994D", "dateTime": 1519584789644}, {"current_trial": 159, "trialdata": {"rt": -1, "trial_type": "single-stim", "stimulus": "<p id=\"stim\">9</p>", "internal_node_id": "0.0-122.0-1.0", "time_elapsed": 869638, "key_press": -1, "trial_index": 159}, "uniqueid": "MTK2905:3KKG4CDWKJ53BMRQSV5Z19BBTA994D", "dateTime": 1519584790659}, {"current_trial": 160, "trialdata": {"rt": -1, "trial_type": "single-stim", "stimulus": "<p id=\"stim\">8</p>", "internal_node_id": "0.0-122.0-2.0", "time_elapsed": 870654, "key_press": -1, "trial_index": 160}, "uniqueid": "MTK2905:3KKG4CDWKJ53BMRQSV5Z19BBTA994D", "dateTime": 1519584791675}, {"current_trial": 161, "trialdata": {"rt": -1, "trial_type": "single-stim", "stimulus": "<p id=\"stim\">7</p>", "internal_node_id": "0.0-122.0-3.0", "time_elapsed": 871670, "key_press": -1, "trial_index": 161}, "uniqueid": "MTK2905:3KKG4CDWKJ53BMRQSV5Z19BBTA994D", "dateTime": 1519584792691}, {"current_trial": 162, "trialdata": {"rt": -1, "trial_type": "single-stim", "stimulus": "<p id=\"stim\">6</p>", "internal_node_id": "0.0-122.0-4.0", "time_elapsed": 872687, "key_press": -1, "trial_index": 162}, "uniqueid": "MTK2905:3KKG4CDWKJ53BMRQSV5Z19BBTA994D", "dateTime": 1519584793707}, {"current_trial": 163, "trialdata": {"rt": -1, "trial_type": "single-stim", "stimulus": "<p id=\"stim\">5</p>", "internal_node_id": "0.0-122.0-5.0", "time_elapsed": 873701, "key_press": -1, "trial_index": 163}, "uniqueid": "MTK2905:3KKG4CDWKJ53BMRQSV5Z19BBTA994D", "dateTime": 1519584794722}, {"current_trial": 164, "trialdata": {"rt": -1, "trial_type": "single-stim", "stimulus": "<p id=\"stim\">4</p>", "internal_node_id": "0.0-122.0-6.0", "time_elapsed": 874717, "key_press": -1, "trial_index": 164}, "uniqueid": "MTK2905:3KKG4CDWKJ53BMRQSV5Z19BBTA994D", "dateTime": 1519584795738}, {"current_trial": 165, "trialdata": {"rt": -1, "trial_type": "single-stim", "stimulus": "<p id=\"stim\">3</p>", "internal_node_id": "0.0-122.0-7.0", "time_elapsed": 875732, "key_press": -1, "trial_index": 165}, "uniqueid": "MTK2905:3KKG4CDWKJ53BMRQSV5Z19BBTA994D", "dateTime": 1519584796753}, {"current_trial": 166, "trialdata": {"rt": -1, "trial_type": "single-stim", "stimulus": "<p id=\"stim\">2</p>", "internal_node_id": "0.0-122.0-8.0", "time_elapsed": 876748, "key_press": -1, "trial_index": 166}, "uniqueid": "MTK2905:3KKG4CDWKJ53BMRQSV5Z19BBTA994D", "dateTime": 1519584797769}, {"current_trial": 167, "trialdata": {"rt": -1, "trial_type": "single-stim", "stimulus": "<p id=\"stim\">1</p>", "internal_node_id": "0.0-122.0-9.0", "time_elapsed": 877762, "key_press": -1, "trial_index": 167}, "uniqueid": "MTK2905:3KKG4CDWKJ53BMRQSV5Z19BBTA994D", "dateTime": 1519584798783}, {"current_trial": 168, "trialdata": {"rt": -1, "trial_type": "single-stim", "stimulus": "<p id=\"stim\">+</p>", "internal_node_id": "0.0-123.0-0.0", "time_elapsed": 879279, "key_press": -1, "type": "FIXATION", "trial_index": 168}, "uniqueid": "MTK2905:3KKG4CDWKJ53BMRQSV5Z19BBTA994D", "dateTime": 1519584800299}, {"current_trial": 169, "trialdata": {"rt": -1, "trial_type": "single-stim", "word": "blade", "stimulus": "<p id=\"stim\">BLADE</p>", "conditions": [24, 1600, "v", 24000], "internal_node_id": "0.0-124.0", "trial": 4, "time_elapsed": 880888, "serialpos": 0, "key_press": -1, "wordID": 133, "type": "PRES_VIS", "trial_index": 169}, "uniqueid": "MTK2905:3KKG4CDWKJ53BMRQSV5Z19BBTA994D", "dateTime": 1519584801909}, {"current_trial": 170, "trialdata": {"rt": -1, "trial_type": "single-stim", "word": "perch", "stimulus": "<p id=\"stim\">PERCH</p>", "conditions": [24, 1600, "v", 24000], "internal_node_id": "0.0-125.0", "trial": 4, "time_elapsed": 883545, "serialpos": 1, "key_press": -1, "wordID": 1047, "type": "PRES_VIS", "trial_index": 170}, "uniqueid": "MTK2905:3KKG4CDWKJ53BMRQSV5Z19BBTA994D", "dateTime": 1519584804565}, {"current_trial": 171, "trialdata": {"rt": -1, "trial_type": "single-stim", "word": "whistle", "stimulus": "<p id=\"stim\">WHISTLE</p>", "conditions": [24, 1600, "v", 24000], "internal_node_id": "0.0-126.0", "trial": 4, "time_elapsed": 885999, "serialpos": 2, "key_press": -1, "wordID": 1605, "type": "PRES_VIS", "trial_index": 171}, "uniqueid": "MTK2905:3KKG4CDWKJ53BMRQSV5Z19BBTA994D", "dateTime": 1519584807019}, {"current_trial": 172, "trialdata": {"rt": -1, "trial_type": "single-stim", "word": "thief", "stimulus": "<p id=\"stim\">THIEF</p>", "conditions": [24, 1600, "v", 24000], "internal_node_id": "0.0-127.0", "trial": 4, "time_elapsed": 888561, "serialpos": 3, "key_press": -1, "wordID": 1455, "type": "PRES_VIS", "trial_index": 172}, "uniqueid": "MTK2905:3KKG4CDWKJ53BMRQSV5Z19BBTA994D", "dateTime": 1519584809581}, {"current_trial": 173, "trialdata": {"rt": -1, "trial_type": "single-stim", "word": "paddle", "stimulus": "<p id=\"stim\">PADDLE</p>", "conditions": [24, 1600, "v", 24000], "internal_node_id": "0.0-128.0", "trial": 4, "time_elapsed": 891295, "serialpos": 4, "key_press": -1, "wordID": 999, "type": "PRES_VIS", "trial_index": 173}, "uniqueid": "MTK2905:3KKG4CDWKJ53BMRQSV5Z19BBTA994D", "dateTime": 1519584812316}, {"current_trial": 174, "trialdata": {"rt": -1, "trial_type": "single-stim", "word": "knife", "stimulus": "<p id=\"stim\">KNIFE</p>", "conditions": [24, 1600, "v", 24000], "internal_node_id": "0.0-129.0", "trial": 4, "time_elapsed": 894092, "serialpos": 5, "key_press": -1, "wordID": 784, "type": "PRES_VIS", "trial_index": 174}, "uniqueid": "MTK2905:3KKG4CDWKJ53BMRQSV5Z19BBTA994D", "dateTime": 1519584815113}, {"current_trial": 175, "trialdata": {"rt": -1, "trial_type": "single-stim", "word": "brook", "stimulus": "<p id=\"stim\">BROOK</p>", "conditions": [24, 1600, "v", 24000], "internal_node_id": "0.0-130.0", "trial": 4, "time_elapsed": 896608, "serialpos": 6, "key_press": -1, "wordID": 176, "type": "PRES_VIS", "trial_index": 175}, "uniqueid": "MTK2905:3KKG4CDWKJ53BMRQSV5Z19BBTA994D", "dateTime": 1519584817630}, {"current_trial": 176, "trialdata": {"rt": -1, "trial_type": "single-stim", "word": "rebel", "stimulus": "<p id=\"stim\">REBEL</p>", "conditions": [24, 1600, "v", 24000], "internal_node_id": "0.0-131.0", "trial": 4, "time_elapsed": 899185, "serialpos": 7, "key_press": -1, "wordID": 1171, "type": "PRES_VIS", "trial_index": 176}, "uniqueid": "MTK2905:3KKG4CDWKJ53BMRQSV5Z19BBTA994D", "dateTime": 1519584820206}, {"current_trial": 177, "trialdata": {"rt": -1, "trial_type": "single-stim", "word": "london", "stimulus": "<p id=\"stim\">LONDON</p>", "conditions": [24, 1600, "v", 24000], "internal_node_id": "0.0-132.0", "trial": 4, "time_elapsed": 901732, "serialpos": 8, "key_press": -1, "wordID": 842, "type": "PRES_VIS", "trial_index": 177}, "uniqueid": "MTK2905:3KKG4CDWKJ53BMRQSV5Z19BBTA994D", "dateTime": 1519584822753}, {"current_trial": 178, "trialdata": {"rt": -1, "trial_type": "single-stim", "word": "goblin", "stimulus": "<p id=\"stim\">GOBLIN</p>", "conditions": [24, 1600, "v", 24000], "internal_node_id": "0.0-133.0", "trial": 4, "time_elapsed": 904531, "serialpos": 9, "key_press": -1, "wordID": 644, "type": "PRES_VIS", "trial_index": 178}, "uniqueid": "MTK2905:3KKG4CDWKJ53BMRQSV5Z19BBTA994D", "dateTime": 1519584825551}, {"current_trial": 179, "trialdata": {"rt": -1, "trial_type": "single-stim", "word": "costume", "stimulus": "<p id=\"stim\">COSTUME</p>", "conditions": [24, 1600, "v", 24000], "internal_node_id": "0.0-134.0", "trial": 4, "time_elapsed": 907045, "serialpos": 10, "key_press": -1, "wordID": 382, "type": "PRES_VIS", "trial_index": 179}, "uniqueid": "MTK2905:3KKG4CDWKJ53BMRQSV5Z19BBTA994D", "dateTime": 1519584828065}, {"current_trial": 180, "trialdata": {"rt": -1, "trial_type": "single-stim", "word": "scarecrow", "stimulus": "<p id=\"stim\">SCARECROW</p>", "conditions": [24, 1600, "v", 24000], "internal_node_id": "0.0-135.0", "trial": 4, "time_elapsed": 909701, "serialpos": 11, "key_press": -1, "wordID": 1244, "type": "PRES_VIS", "trial_index": 180}, "uniqueid": "MTK2905:3KKG4CDWKJ53BMRQSV5Z19BBTA994D", "dateTime": 1519584830722}, {"current_trial": 181, "trialdata": {"rt": -1, "trial_type": "single-stim", "word": "chapel", "stimulus": "<p id=\"stim\">CHAPEL</p>", "conditions": [24, 1600, "v", 24000], "internal_node_id": "0.0-136.0", "trial": 4, "time_elapsed": 912327, "serialpos": 12, "key_press": -1, "wordID": 279, "type": "PRES_VIS", "trial_index": 181}, "uniqueid": "MTK2905:3KKG4CDWKJ53BMRQSV5Z19BBTA994D", "dateTime": 1519584833348}, {"current_trial": 182, "trialdata": {"rt": -1, "trial_type": "single-stim", "word": "ulcer", "stimulus": "<p id=\"stim\">ULCER</p>", "conditions": [24, 1600, "v", 24000], "internal_node_id": "0.0-137.0", "trial": 4, "time_elapsed": 915107, "serialpos": 13, "key_press": -1, "wordID": 1532, "type": "PRES_VIS", "trial_index": 182}, "uniqueid": "MTK2905:3KKG4CDWKJ53BMRQSV5Z19BBTA994D", "dateTime": 1519584836128}, {"current_trial": 183, "trialdata": {"rt": -1, "trial_type": "single-stim", "word": "bike", "stimulus": "<p id=\"stim\">BIKE</p>", "conditions": [24, 1600, "v", 24000], "internal_node_id": "0.0-138.0", "trial": 4, "time_elapsed": 917903, "serialpos": 14, "key_press": -1, "wordID": 124, "type": "PRES_VIS", "trial_index": 183}, "uniqueid": "MTK2905:3KKG4CDWKJ53BMRQSV5Z19BBTA994D", "dateTime": 1519584838923}, {"current_trial": 184, "trialdata": {"rt": -1, "trial_type": "single-stim", "word": "cattle", "stimulus": "<p id=\"stim\">CATTLE</p>", "conditions": [24, 1600, "v", 24000], "internal_node_id": "0.0-139.0", "trial": 4, "time_elapsed": 920408, "serialpos": 15, "key_press": -1, "wordID": 260, "type": "PRES_VIS", "trial_index": 184}, "uniqueid": "MTK2905:3KKG4CDWKJ53BMRQSV5Z19BBTA994D", "dateTime": 1519584841429}, {"current_trial": 185, "trialdata": {"rt": -1, "trial_type": "single-stim", "word": "beef", "stimulus": "<p id=\"stim\">BEEF</p>", "conditions": [24, 1600, "v", 24000], "internal_node_id": "0.0-140.0", "trial": 4, "time_elapsed": 923016, "serialpos": 16, "key_press": -1, "wordID": 112, "type": "PRES_VIS", "trial_index": 185}, "uniqueid": "MTK2905:3KKG4CDWKJ53BMRQSV5Z19BBTA994D", "dateTime": 1519584844037}, {"current_trial": 186, "trialdata": {"rt": -1, "trial_type": "single-stim", "word": "daughter", "stimulus": "<p id=\"stim\">DAUGHTER</p>", "conditions": [24, 1600, "v", 24000], "internal_node_id": "0.0-141.0", "trial": 4, "time_elapsed": 925827, "serialpos": 17, "key_press": -1, "wordID": 441, "type": "PRES_VIS", "trial_index": 186}, "uniqueid": "MTK2905:3KKG4CDWKJ53BMRQSV5Z19BBTA994D", "dateTime": 1519584846847}, {"current_trial": 187, "trialdata": {"rt": -1, "trial_type": "single-stim", "word": "message", "stimulus": "<p id=\"stim\">MESSAGE</p>", "conditions": [24, 1600, "v", 24000], "internal_node_id": "0.0-142.0", "trial": 4, "time_elapsed": 928435, "serialpos": 18, "key_press": -1, "wordID": 887, "type": "PRES_VIS", "trial_index": 187}, "uniqueid": "MTK2905:3KKG4CDWKJ53BMRQSV5Z19BBTA994D", "dateTime": 1519584849456}, {"current_trial": 188, "trialdata": {"rt": -1, "trial_type": "single-stim", "word": "scalpel", "stimulus": "<p id=\"stim\">SCALPEL</p>", "conditions": [24, 1600, "v", 24000], "internal_node_id": "0.0-143.0", "trial": 4, "time_elapsed": 930905, "serialpos": 19, "key_press": -1, "wordID": 1242, "type": "PRES_VIS", "trial_index": 188}, "uniqueid": "MTK2905:3KKG4CDWKJ53BMRQSV5Z19BBTA994D", "dateTime": 1519584851926}, {"current_trial": 189, "trialdata": {"rt": -1, "trial_type": "single-stim", "word": "heart", "stimulus": "<p id=\"stim\">HEART</p>", "conditions": [24, 1600, "v", 24000], "internal_node_id": "0.0-144.0", "trial": 4, "time_elapsed": 933561, "serialpos": 20, "key_press": -1, "wordID": 696, "type": "PRES_VIS", "trial_index": 189}, "uniqueid": "MTK2905:3KKG4CDWKJ53BMRQSV5Z19BBTA994D", "dateTime": 1519584854582}, {"current_trial": 190, "trialdata": {"rt": -1, "trial_type": "single-stim", "word": "survey", "stimulus": "<p id=\"stim\">SURVEY</p>", "conditions": [24, 1600, "v", 24000], "internal_node_id": "0.0-145.0", "trial": 4, "time_elapsed": 936028, "serialpos": 21, "key_press": -1, "wordID": 1413, "type": "PRES_VIS", "trial_index": 190}, "uniqueid": "MTK2905:3KKG4CDWKJ53BMRQSV5Z19BBTA994D", "dateTime": 1519584857048}, {"current_trial": 191, "trialdata": {"rt": -1, "trial_type": "single-stim", "word": "powder", "stimulus": "<p id=\"stim\">POWDER</p>", "conditions": [24, 1600, "v", 24000], "internal_node_id": "0.0-146.0", "trial": 4, "time_elapsed": 938685, "serialpos": 22, "key_press": -1, "wordID": 1116, "type": "PRES_VIS", "trial_index": 191}, "uniqueid": "MTK2905:3KKG4CDWKJ53BMRQSV5Z19BBTA994D", "dateTime": 1519584859706}, {"current_trial": 192, "trialdata": {"rt": -1, "trial_type": "single-stim", "word": "church", "stimulus": "<p id=\"stim\">CHURCH</p>", "conditions": [24, 1600, "v", 24000], "internal_node_id": "0.0-147.0", "trial": 4, "time_elapsed": 941328, "serialpos": 23, "key_press": -1, "wordID": 306, "type": "PRES_VIS", "trial_index": 192}, "uniqueid": "MTK2905:3KKG4CDWKJ53BMRQSV5Z19BBTA994D", "dateTime": 1519584862348}, {"current_trial": 193, "trialdata": {"rt": -1, "trial_type": "single-stim", "stimulus": "", "internal_node_id": "0.0-148.0-0.0", "time_elapsed": 943497, "key_press": -1, "type": "PRE_RECALL_DELAY", "trial_index": 193}, "uniqueid": "MTK2905:3KKG4CDWKJ53BMRQSV5Z19BBTA994D", "dateTime": 1519584864518}, {"current_trial": 194, "trialdata": {"rt": -1000, "trial_type": "single-audio", "stimulus": "/static/audio/400Hz.wav", "internal_node_id": "0.0-149.0", "time_elapsed": 944013, "key_press": -1, "type": "PRE_RECALL_ALERT", "trial_index": 194}, "uniqueid": "MTK2905:3KKG4CDWKJ53BMRQSV5Z19BBTA994D", "dateTime": 1519584865034}, {"current_trial": 195, "trialdata": {"rt": [3323, 4982, 6531, 6750, 9039, 10794, 12098, 14340, 16162, 21626, 23052, 24282, 25713, 26934, 28672, 30421, 33727, 35395, 37301, 39239, 51081, 54017, 55839], "recwords": ["powder", "survey", "daughter", "", "message", "blade", "perch", "whistle", "knife", "rebel", "brook", "cattle", "beef", "bike", "london", "goblin", "scarecrow", "ulcer", "heart", "message", "thief", "perch", "whistle"], "key_times": [1196, 1400, 1519, 1933, 2241, 2396, 3323, 3656, 3803, 3912, 4162, 4358, 4505, 4982, 5180, 5419, 5553, 5695, 5844, 6048, 6300, 6428, 6531, 6750, 7297, 7470, 7700, 7878, 8082, 8180, 8319, 9039, 9600, 9798, 9955, 10150, 10468, 10794, 11219, 11317, 11440, 11758, 11866, 12098, 12314, 12444, 12524, 12716, 13145, 13287, 13440, 13640, 13979, 14340, 14982, 15179, 15392, 15518, 15864, 16162, 20359, 20485, 20754, 20955, 21107, 21626, 21863, 22113, 22358, 22537, 22728, 23052, 23300, 23463, 23677, 23854, 23970, 24144, 24282, 24564, 24762, 24961, 25385, 25713, 26177, 26310, 26544, 26685, 26934, 27548, 27744, 27847, 27996, 28279, 28453, 28672, 29247, 29422, 29588, 29823, 30081, 30197, 30421, 31631, 31879, 32032, 32184, 32325, 32910, 33197, 33292, 33507, 33727, 34508, 34716, 34865, 35063, 35169, 35395, 35724, 35813, 35976, 36087, 36328, 37301, 37732, 38151, 38427, 38604, 38789, 38874, 39110, 39239, 49659, 49814, 50138, 50210, 50402, 51081, 53063, 53228, 53362, 53679, 53789, 54017, 54186, 54325, 54411, 54570, 55135, 55203, 55336, 55539, 55700, 55839], "trial_type": "free-recall", "conditions": [24, 1600, "v", 24000], "internal_node_id": "0.0-150.0-0.0", "key_presses": [80, 79, 87, 68, 69, 82, 13, 83, 85, 82, 86, 69, 89, 13, 68, 65, 85, 71, 72, 84, 69, 82, 13, 32, 77, 69, 83, 83, 65, 71, 69, 13, 66, 76, 65, 68, 69, 13, 80, 69, 82, 67, 72, 13, 87, 72, 73, 67, 8, 83, 84, 76, 69, 13, 75, 78, 73, 70, 69, 13, 82, 69, 66, 69, 76, 13, 66, 82, 79, 79, 75, 13, 67, 65, 84, 84, 76, 69, 13, 66, 69, 69, 70, 13, 66, 73, 75, 69, 13, 76, 79, 78, 68, 79, 78, 13, 71, 79, 66, 76, 73, 78, 13, 83, 67, 65, 82, 69, 67, 82, 79, 87, 13, 85, 76, 67, 69, 82, 13, 72, 69, 65, 82, 84, 13, 77, 69, 83, 83, 65, 71, 69, 13, 84, 72, 73, 69, 70, 13, 80, 69, 82, 67, 72, 13, 87, 72, 73, 67, 8, 83, 84, 76, 69, 13], "trial": 4, "time_elapsed": 1004030, "type": "FREE_RECALL", "trial_index": 195}, "uniqueid": "MTK2905:3KKG4CDWKJ53BMRQSV5Z19BBTA994D", "dateTime": 1519584925064}, {"current_trial": 196, "trialdata": {"rt": 1204, "trial_type": "text", "internal_node_id": "0.0-151.0", "time_elapsed": 1007262, "key_press": 32, "type": "INSTRUCTIONS", "trial_index": 196}, "uniqueid": "MTK2905:3KKG4CDWKJ53BMRQSV5Z19BBTA994D", "dateTime": 1519584928283}, {"current_trial": 197, "trialdata": {"rt": [1708, 3966, 5185, 8269, 9718, 12778, 14545, 19021, 23637], "trial_type": "math-distractor", "key_times": [1254, 1708, 3545, 3709, 3966, 4847, 5008, 5185, 7838, 8029, 8269, 9334, 9501, 9718, 12429, 12589, 12778, 14286, 14545, 16681, 18049, 18658, 19021, 23219, 23370, 23637], "responses": ["9", "18", "11", "13", "12", "15", "8", "9", "18"], "num2": [7, 8, 5, 7, 9, 8, 2, 2, 7, 4], "num3": [1, 7, 1, 2, 2, 4, 3, 3, 6, 5], "conditions": [12, 1600, "v", 24000], "internal_node_id": "0.0-152.0", "key_presses": [105, 13, 97, 104, 13, 97, 97, 13, 97, 99, 13, 97, 98, 13, 97, 101, 13, 104, 13, 97, 8, 105, 13, 97, 104, 13], "trial": 5, "time_elapsed": 1033297, "type": "DISTRACTOR", "trial_index": 197, "num1": [1, 3, 5, 4, 1, 3, 3, 4, 5, 6]}, "uniqueid": "MTK2905:3KKG4CDWKJ53BMRQSV5Z19BBTA994D", "dateTime": 1519584954318}, {"current_trial": 198, "trialdata": {"rt": -1, "trial_type": "single-stim", "stimulus": "<p id=\"stim\">10</p>", "internal_node_id": "0.0-153.0-0.0", "time_elapsed": 1036324, "key_press": -1, "trial_index": 198}, "uniqueid": "MTK2905:3KKG4CDWKJ53BMRQSV5Z19BBTA994D", "dateTime": 1519584957345}, {"current_trial": 199, "trialdata": {"rt": -1, "trial_type": "single-stim", "stimulus": "<p id=\"stim\">9</p>", "internal_node_id": "0.0-153.0-1.0", "time_elapsed": 1037339, "key_press": -1, "trial_index": 199}, "uniqueid": "MTK2905:3KKG4CDWKJ53BMRQSV5Z19BBTA994D", "dateTime": 1519584958359}, {"current_trial": 200, "trialdata": {"rt": -1, "trial_type": "single-stim", "stimulus": "<p id=\"stim\">8</p>", "internal_node_id": "0.0-153.0-2.0", "time_elapsed": 1038354, "key_press": -1, "trial_index": 200}, "uniqueid": "MTK2905:3KKG4CDWKJ53BMRQSV5Z19BBTA994D", "dateTime": 1519584959375}, {"current_trial": 201, "trialdata": {"rt": -1, "trial_type": "single-stim", "stimulus": "<p id=\"stim\">7</p>", "internal_node_id": "0.0-153.0-3.0", "time_elapsed": 1039370, "key_press": -1, "trial_index": 201}, "uniqueid": "MTK2905:3KKG4CDWKJ53BMRQSV5Z19BBTA994D", "dateTime": 1519584960390}, {"current_trial": 202, "trialdata": {"rt": -1, "trial_type": "single-stim", "stimulus": "<p id=\"stim\">6</p>", "internal_node_id": "0.0-153.0-4.0", "time_elapsed": 1040386, "key_press": -1, "trial_index": 202}, "uniqueid": "MTK2905:3KKG4CDWKJ53BMRQSV5Z19BBTA994D", "dateTime": 1519584961406}, {"current_trial": 203, "trialdata": {"rt": -1, "trial_type": "single-stim", "stimulus": "<p id=\"stim\">5</p>", "internal_node_id": "0.0-153.0-5.0", "time_elapsed": 1041394, "key_press": -1, "trial_index": 203}, "uniqueid": "MTK2905:3KKG4CDWKJ53BMRQSV5Z19BBTA994D", "dateTime": 1519584962415}, {"current_trial": 204, "trialdata": {"rt": -1, "trial_type": "single-stim", "stimulus": "<p id=\"stim\">4</p>", "internal_node_id": "0.0-153.0-6.0", "time_elapsed": 1042398, "key_press": -1, "trial_index": 204}, "uniqueid": "MTK2905:3KKG4CDWKJ53BMRQSV5Z19BBTA994D", "dateTime": 1519584963419}, {"current_trial": 205, "trialdata": {"rt": -1, "trial_type": "single-stim", "stimulus": "<p id=\"stim\">3</p>", "internal_node_id": "0.0-153.0-7.0", "time_elapsed": 1043410, "key_press": -1, "trial_index": 205}, "uniqueid": "MTK2905:3KKG4CDWKJ53BMRQSV5Z19BBTA994D", "dateTime": 1519584964431}, {"current_trial": 206, "trialdata": {"rt": -1, "trial_type": "single-stim", "stimulus": "<p id=\"stim\">2</p>", "internal_node_id": "0.0-153.0-8.0", "time_elapsed": 1044426, "key_press": -1, "trial_index": 206}, "uniqueid": "MTK2905:3KKG4CDWKJ53BMRQSV5Z19BBTA994D", "dateTime": 1519584965448}, {"current_trial": 207, "trialdata": {"rt": -1, "trial_type": "single-stim", "stimulus": "<p id=\"stim\">1</p>", "internal_node_id": "0.0-153.0-9.0", "time_elapsed": 1045441, "key_press": -1, "trial_index": 207}, "uniqueid": "MTK2905:3KKG4CDWKJ53BMRQSV5Z19BBTA994D", "dateTime": 1519584966462}, {"current_trial": 208, "trialdata": {"rt": -1, "trial_type": "single-stim", "stimulus": "<p id=\"stim\">+</p>", "internal_node_id": "0.0-154.0-0.0", "time_elapsed": 1046957, "key_press": -1, "type": "FIXATION", "trial_index": 208}, "uniqueid": "MTK2905:3KKG4CDWKJ53BMRQSV5Z19BBTA994D", "dateTime": 1519584967977}, {"current_trial": 209, "trialdata": {"rt": -1, "trial_type": "single-stim", "word": "pliers", "stimulus": "<p id=\"stim\">PLIERS</p>", "conditions": [12, 1600, "v", 24000], "internal_node_id": "0.0-155.0", "trial": 5, "time_elapsed": 1048566, "serialpos": 0, "key_press": -1, "wordID": 1088, "type": "PRES_VIS", "trial_index": 209}, "uniqueid": "MTK2905:3KKG4CDWKJ53BMRQSV5Z19BBTA994D", "dateTime": 1519584969586}, {"current_trial": 210, "trialdata": {"rt": -1, "trial_type": "single-stim", "word": "hook", "stimulus": "<p id=\"stim\">HOOK</p>", "conditions": [12, 1600, "v", 24000], "internal_node_id": "0.0-156.0", "trial": 5, "time_elapsed": 1051067, "serialpos": 1, "key_press": -1, "wordID": 714, "type": "PRES_VIS", "trial_index": 210}, "uniqueid": "MTK2905:3KKG4CDWKJ53BMRQSV5Z19BBTA994D", "dateTime": 1519584972087}, {"current_trial": 211, "trialdata": {"rt": -1, "trial_type": "single-stim", "word": "snake", "stimulus": "<p id=\"stim\">SNAKE</p>", "conditions": [12, 1600, "v", 24000], "internal_node_id": "0.0-157.0", "trial": 5, "time_elapsed": 1053692, "serialpos": 2, "key_press": -1, "wordID": 1332, "type": "PRES_VIS", "trial_index": 211}, "uniqueid": "MTK2905:3KKG4CDWKJ53BMRQSV5Z19BBTA994D", "dateTime": 1519584974713}, {"current_trial": 212, "trialdata": {"rt": -1, "trial_type": "single-stim", "word": "actor", "stimulus": "<p id=\"stim\">ACTOR</p>", "conditions": [12, 1600, "v", 24000], "internal_node_id": "0.0-158.0", "trial": 5, "time_elapsed": 1056332, "serialpos": 3, "key_press": -1, "wordID": 4, "type": "PRES_VIS", "trial_index": 212}, "uniqueid": "MTK2905:3KKG4CDWKJ53BMRQSV5Z19BBTA994D", "dateTime": 1519584977352}, {"current_trial": 213, "trialdata": {"rt": -1, "trial_type": "single-stim", "word": "mailman", "stimulus": "<p id=\"stim\">MAILMAN</p>", "conditions": [12, 1600, "v", 24000], "internal_node_id": "0.0-159.0", "trial": 5, "time_elapsed": 1059035, "serialpos": 4, "key_press": -1, "wordID": 857, "type": "PRES_VIS", "trial_index": 213}, "uniqueid": "MTK2905:3KKG4CDWKJ53BMRQSV5Z19BBTA994D", "dateTime": 1519584980056}, {"current_trial": 214, "trialdata": {"rt": -1, "trial_type": "single-stim", "word": "mailbox", "stimulus": "<p id=\"stim\">MAILBOX</p>", "conditions": [12, 1600, "v", 24000], "internal_node_id": "0.0-160.0", "trial": 5, "time_elapsed": 1061535, "serialpos": 5, "key_press": -1, "wordID": 856, "type": "PRES_VIS", "trial_index": 214}, "uniqueid": "MTK2905:3KKG4CDWKJ53BMRQSV5Z19BBTA994D", "dateTime": 1519584982557}, {"current_trial": 215, "trialdata": {"rt": -1, "trial_type": "single-stim", "word": "gravel", "stimulus": "<p id=\"stim\">GRAVEL</p>", "conditions": [12, 1600, "v", 24000], "internal_node_id": "0.0-161.0", "trial": 5, "time_elapsed": 1064175, "serialpos": 6, "key_press": -1, "wordID": 658, "type": "PRES_VIS", "trial_index": 215}, "uniqueid": "MTK2905:3KKG4CDWKJ53BMRQSV5Z19BBTA994D", "dateTime": 1519584985195}, {"current_trial": 216, "trialdata": {"rt": -1, "trial_type": "single-stim", "word": "stomach", "stimulus": "<p id=\"stim\">STOMACH</p>", "conditions": [12, 1600, "v", 24000], "internal_node_id": "0.0-162.0", "trial": 5, "time_elapsed": 1066910, "serialpos": 7, "key_press": -1, "wordID": 1383, "type": "PRES_VIS", "trial_index": 216}, "uniqueid": "MTK2905:3KKG4CDWKJ53BMRQSV5Z19BBTA994D", "dateTime": 1519584987931}, {"current_trial": 217, "trialdata": {"rt": -1, "trial_type": "single-stim", "word": "flashlight", "stimulus": "<p id=\"stim\">FLASHLIGHT</p>", "conditions": [12, 1600, "v", 24000], "internal_node_id": "0.0-163.0", "trial": 5, "time_elapsed": 1069613, "serialpos": 8, "key_press": -1, "wordID": 574, "type": "PRES_VIS", "trial_index": 217}, "uniqueid": "MTK2905:3KKG4CDWKJ53BMRQSV5Z19BBTA994D", "dateTime": 1519584990634}, {"current_trial": 218, "trialdata": {"rt": -1, "trial_type": "single-stim", "word": "cricket", "stimulus": "<p id=\"stim\">CRICKET</p>", "conditions": [12, 1600, "v", 24000], "internal_node_id": "0.0-164.0", "trial": 5, "time_elapsed": 1072144, "serialpos": 9, "key_press": -1, "wordID": 407, "type": "PRES_VIS", "trial_index": 218}, "uniqueid": "MTK2905:3KKG4CDWKJ53BMRQSV5Z19BBTA994D", "dateTime": 1519584993165}, {"current_trial": 219, "trialdata": {"rt": -1, "trial_type": "single-stim", "word": "tweezers", "stimulus": "<p id=\"stim\">TWEEZERS</p>", "conditions": [12, 1600, "v", 24000], "internal_node_id": "0.0-165.0", "trial": 5, "time_elapsed": 1074958, "serialpos": 10, "key_press": -1, "wordID": 1525, "type": "PRES_VIS", "trial_index": 219}, "uniqueid": "MTK2905:3KKG4CDWKJ53BMRQSV5Z19BBTA994D", "dateTime": 1519584995978}, {"current_trial": 220, "trialdata": {"rt": -1, "trial_type": "single-stim", "word": "trout", "stimulus": "<p id=\"stim\">TROUT</p>", "conditions": [12, 1600, "v", 24000], "internal_node_id": "0.0-166.0", "trial": 5, "time_elapsed": 1077489, "serialpos": 11, "key_press": -1, "wordID": 1510, "type": "PRES_VIS", "trial_index": 220}, "uniqueid": "MTK2905:3KKG4CDWKJ53BMRQSV5Z19BBTA994D", "dateTime": 1519584998510}, {"current_trial": 221, "trialdata": {"rt": -1, "trial_type": "single-stim", "stimulus": "", "internal_node_id": "0.0-167.0-0.0", "time_elapsed": 1079973, "key_press": -1, "type": "PRE_RECALL_DELAY", "trial_index": 221}, "uniqueid": "MTK2905:3KKG4CDWKJ53BMRQSV5Z19BBTA994D", "dateTime": 1519585000993}, {"current_trial": 222, "trialdata": {"rt": -1000, "trial_type": "single-audio", "stimulus": "/static/audio/400Hz.wav", "internal_node_id": "0.0-168.0", "time_elapsed": 1080489, "key_press": -1, "type": "PRE_RECALL_ALERT", "trial_index": 222}, "uniqueid": "MTK2905:3KKG4CDWKJ53BMRQSV5Z19BBTA994D", "dateTime": 1519585001510}, {"current_trial": 223, "trialdata": {"rt": [3358, 5907, 8408, 10209, 11602, 14360, 16043, 17063, 18021, 19555, 21612, 24892, 26366], "recwords": ["actor", "tweezers", "trout", "gravel", "mailman", "mailbox", "pliers", "hook", "snake", "stomach", "flashlight", "gravel", "actor"], "key_times": [1960, 2158, 2461, 2569, 2735, 3358, 3890, 4119, 4369, 4547, 4887, 5211, 5321, 5629, 5907, 7327, 7558, 7635, 7737, 7910, 8408, 9040, 9245, 9383, 9710, 9889, 9987, 10209, 10580, 10664, 10817, 10995, 11226, 11316, 11435, 11602, 12106, 12230, 12432, 12663, 13188, 13454, 13702, 14360, 14778, 15051, 15234, 15436, 15579, 15808, 16043, 16326, 16532, 16688, 16861, 17063, 17272, 17389, 17575, 17703, 17860, 18021, 18335, 18553, 18629, 18734, 18900, 19221, 19348, 19555, 19726, 19957, 20155, 20304, 20425, 20664, 20847, 21015, 21135, 21329, 21612, 23469, 23690, 23834, 24143, 24379, 24561, 24892, 25374, 25592, 25895, 26018, 26148, 26366], "trial_type": "free-recall", "conditions": [12, 1600, "v", 24000], "internal_node_id": "0.0-169.0-0.0", "key_presses": [65, 67, 84, 79, 82, 13, 84, 87, 69, 69, 90, 69, 82, 83, 13, 84, 82, 79, 85, 84, 13, 71, 82, 65, 86, 69, 76, 13, 77, 65, 73, 76, 77, 65, 78, 13, 77, 65, 73, 76, 66, 79, 88, 13, 80, 76, 73, 69, 82, 83, 13, 72, 79, 79, 75, 13, 83, 78, 65, 75, 69, 13, 83, 84, 79, 77, 65, 67, 72, 13, 70, 76, 65, 83, 72, 76, 73, 71, 72, 84, 13, 71, 82, 65, 86, 69, 76, 13, 65, 67, 84, 79, 82, 13], "trial": 5, "time_elapsed": 1140505, "type": "FREE_RECALL", "trial_index": 223}, "uniqueid": "MTK2905:3KKG4CDWKJ53BMRQSV5Z19BBTA994D", "dateTime": 1519585061541}, {"current_trial": 224, "trialdata": {"rt": 18908, "trial_type": "text", "internal_node_id": "0.0-170.0", "time_elapsed": 1161443, "key_press": 32, "type": "INSTRUCTIONS", "trial_index": 224}, "uniqueid": "MTK2905:3KKG4CDWKJ53BMRQSV5Z19BBTA994D", "dateTime": 1519585082465}, {"current_trial": 225, "trialdata": {"rt": [2119, 3986, 5289, 7030, 8632, 10531], "trial_type": "math-distractor", "key_times": [1771, 2119, 3598, 3782, 3986, 5033, 5289, 6660, 6840, 7030, 8276, 8442, 8632, 10150, 10309, 10531, 11662, 11847], "responses": ["7", "16", "9", "20", "16", "15"], "num2": [4, 6, 3, 6, 8, 8, 2], "num3": [1, 5, 1, 7, 6, 6, 4], "conditions": [24, 800, "v", 12000], "internal_node_id": "0.0-171.0", "key_presses": [103, 13, 97, 102, 13, 105, 13, 98, 96, 13, 97, 102, 13, 97, 101, 13, 97, 96], "trial": 6, "time_elapsed": 1175469, "type": "DISTRACTOR", "trial_index": 225, "num1": [2, 5, 5, 7, 2, 1, 4]}, "uniqueid": "MTK2905:3KKG4CDWKJ53BMRQSV5Z19BBTA994D", "dateTime": 1519585096490}, {"current_trial": 226, "trialdata": {"rt": -1, "trial_type": "single-stim", "stimulus": "<p id=\"stim\">10</p>", "internal_node_id": "0.0-172.0-0.0", "time_elapsed": 1178499, "key_press": -1, "trial_index": 226}, "uniqueid": "MTK2905:3KKG4CDWKJ53BMRQSV5Z19BBTA994D", "dateTime": 1519585099519}, {"current_trial": 227, "trialdata": {"rt": -1, "trial_type": "single-stim", "stimulus": "<p id=\"stim\">9</p>", "internal_node_id": "0.0-172.0-1.0", "time_elapsed": 1179515, "key_press": -1, "trial_index": 227}, "uniqueid": "MTK2905:3KKG4CDWKJ53BMRQSV5Z19BBTA994D", "dateTime": 1519585100536}, {"current_trial": 228, "trialdata": {"rt": -1, "trial_type": "single-stim", "stimulus": "<p id=\"stim\">8</p>", "internal_node_id": "0.0-172.0-2.0", "time_elapsed": 1180530, "key_press": -1, "trial_index": 228}, "uniqueid": "MTK2905:3KKG4CDWKJ53BMRQSV5Z19BBTA994D", "dateTime": 1519585101550}, {"current_trial": 229, "trialdata": {"rt": -1, "trial_type": "single-stim", "stimulus": "<p id=\"stim\">7</p>", "internal_node_id": "0.0-172.0-3.0", "time_elapsed": 1181546, "key_press": -1, "trial_index": 229}, "uniqueid": "MTK2905:3KKG4CDWKJ53BMRQSV5Z19BBTA994D", "dateTime": 1519585102567}, {"current_trial": 230, "trialdata": {"rt": -1, "trial_type": "single-stim", "stimulus": "<p id=\"stim\">6</p>", "internal_node_id": "0.0-172.0-4.0", "time_elapsed": 1182561, "key_press": -1, "trial_index": 230}, "uniqueid": "MTK2905:3KKG4CDWKJ53BMRQSV5Z19BBTA994D", "dateTime": 1519585103581}, {"current_trial": 231, "trialdata": {"rt": -1, "trial_type": "single-stim", "stimulus": "<p id=\"stim\">5</p>", "internal_node_id": "0.0-172.0-5.0", "time_elapsed": 1183578, "key_press": -1, "trial_index": 231}, "uniqueid": "MTK2905:3KKG4CDWKJ53BMRQSV5Z19BBTA994D", "dateTime": 1519585104599}, {"current_trial": 232, "trialdata": {"rt": -1, "trial_type": "single-stim", "stimulus": "<p id=\"stim\">4</p>", "internal_node_id": "0.0-172.0-6.0", "time_elapsed": 1184593, "key_press": -1, "trial_index": 232}, "uniqueid": "MTK2905:3KKG4CDWKJ53BMRQSV5Z19BBTA994D", "dateTime": 1519585105614}, {"current_trial": 233, "trialdata": {"rt": -1, "trial_type": "single-stim", "stimulus": "<p id=\"stim\">3</p>", "internal_node_id": "0.0-172.0-7.0", "time_elapsed": 1185608, "key_press": -1, "trial_index": 233}, "uniqueid": "MTK2905:3KKG4CDWKJ53BMRQSV5Z19BBTA994D", "dateTime": 1519585106629}, {"current_trial": 234, "trialdata": {"rt": -1, "trial_type": "single-stim", "stimulus": "<p id=\"stim\">2</p>", "internal_node_id": "0.0-172.0-8.0", "time_elapsed": 1186625, "key_press": -1, "trial_index": 234}, "uniqueid": "MTK2905:3KKG4CDWKJ53BMRQSV5Z19BBTA994D", "dateTime": 1519585107646}, {"current_trial": 235, "trialdata": {"rt": -1, "trial_type": "single-stim", "stimulus": "<p id=\"stim\">1</p>", "internal_node_id": "0.0-172.0-9.0", "time_elapsed": 1187640, "key_press": -1, "trial_index": 235}, "uniqueid": "MTK2905:3KKG4CDWKJ53BMRQSV5Z19BBTA994D", "dateTime": 1519585108661}, {"current_trial": 236, "trialdata": {"rt": -1, "trial_type": "single-stim", "stimulus": "<p id=\"stim\">+</p>", "internal_node_id": "0.0-173.0-0.0", "time_elapsed": 1189155, "key_press": -1, "type": "FIXATION", "trial_index": 236}, "uniqueid": "MTK2905:3KKG4CDWKJ53BMRQSV5Z19BBTA994D", "dateTime": 1519585110176}, {"current_trial": 237, "trialdata": {"rt": -1, "trial_type": "single-stim", "word": "soda", "stimulus": "<p id=\"stim\">SODA</p>", "conditions": [24, 800, "v", 12000], "internal_node_id": "0.0-174.0", "trial": 6, "time_elapsed": 1189967, "serialpos": 0, "key_press": -1, "wordID": 1340, "type": "PRES_VIS", "trial_index": 237}, "uniqueid": "MTK2905:3KKG4CDWKJ53BMRQSV5Z19BBTA994D", "dateTime": 1519585110987}, {"current_trial": 238, "trialdata": {"rt": -1, "trial_type": "single-stim", "word": "coffee", "stimulus": "<p id=\"stim\">COFFEE</p>", "conditions": [24, 800, "v", 12000], "internal_node_id": "0.0-175.0", "trial": 6, "time_elapsed": 1191873, "serialpos": 1, "key_press": -1, "wordID": 340, "type": "PRES_VIS", "trial_index": 238}, "uniqueid": "MTK2905:3KKG4CDWKJ53BMRQSV5Z19BBTA994D", "dateTime": 1519585112894}, {"current_trial": 239, "trialdata": {"rt": -1, "trial_type": "single-stim", "word": "popcorn", "stimulus": "<p id=\"stim\">POPCORN</p>", "conditions": [24, 800, "v", 12000], "internal_node_id": "0.0-176.0", "trial": 6, "time_elapsed": 1193597, "serialpos": 2, "key_press": -1, "wordID": 1103, "type": "PRES_VIS", "trial_index": 239}, "uniqueid": "MTK2905:3KKG4CDWKJ53BMRQSV5Z19BBTA994D", "dateTime": 1519585114618}, {"current_trial": 240, "trialdata": {"rt": -1, "trial_type": "single-stim", "word": "temple", "stimulus": "<p id=\"stim\">TEMPLE</p>", "conditions": [24, 800, "v", 12000], "internal_node_id": "0.0-177.0", "trial": 6, "time_elapsed": 1195375, "serialpos": 3, "key_press": -1, "wordID": 1447, "type": "PRES_VIS", "trial_index": 240}, "uniqueid": "MTK2905:3KKG4CDWKJ53BMRQSV5Z19BBTA994D", "dateTime": 1519585116396}, {"current_trial": 241, "trialdata": {"rt": -1, "trial_type": "single-stim", "word": "honey", "stimulus": "<p id=\"stim\">HONEY</p>", "conditions": [24, 800, "v", 12000], "internal_node_id": "0.0-178.0", "trial": 6, "time_elapsed": 1197297, "serialpos": 4, "key_press": -1, "wordID": 712, "type": "PRES_VIS", "trial_index": 241}, "uniqueid": "MTK2905:3KKG4CDWKJ53BMRQSV5Z19BBTA994D", "dateTime": 1519585118317}, {"current_trial": 242, "trialdata": {"rt": -1, "trial_type": "single-stim", "word": "sandwich", "stimulus": "<p id=\"stim\">SANDWICH</p>", "conditions": [24, 800, "v", 12000], "internal_node_id": "0.0-179.0", "trial": 6, "time_elapsed": 1199312, "serialpos": 5, "key_press": -1, "wordID": 1231, "type": "PRES_VIS", "trial_index": 242}, "uniqueid": "MTK2905:3KKG4CDWKJ53BMRQSV5Z19BBTA994D", "dateTime": 1519585120333}, {"current_trial": 243, "trialdata": {"rt": -1, "trial_type": "single-stim", "word": "cashew", "stimulus": "<p id=\"stim\">CASHEW</p>", "conditions": [24, 800, "v", 12000], "internal_node_id": "0.0-180.0", "trial": 6, "time_elapsed": 1201062, "serialpos": 6, "key_press": -1, "wordID": 252, "type": "PRES_VIS", "trial_index": 243}, "uniqueid": "MTK29