{"assignmentId": "3137ONMDKHC0IYBRV7NM2C9P7ZRGEH", "workerId": "MTK2183", "questiondata": {"origin": "United States", "strat-rehearsal": "53", "marital": "Divorced", "education": "Some graduate education", "ethnicity": "Not Hispanic", "color_depth": 24, "distracted": "No", "wrote-notes": "No", "strat-other": "", "screen_width": 1280, "avail_screen_width": 1280, "avail_screen_height": 773, "strat-image": "90", "language": "English", "gender": "Female", "age": "28", "gender_other": "", "race": ["Asian", "White"], "strat-categorize": "74", "pixel_depth": 24, "strat-spatial": "1", "strat-story": "1", "race_other": "", "screen_height": 800}, "bonus": 0, "hitId": "3CVBMEMMXBNRMVTY23MWSIXPIOT7H9", "counterbalance": 1001, "useragent": "Mozilla/5.0 (Macintosh; Intel Mac OS X 10_11_6) AppleWebKit/537.36 (KHTML, like Gecko) Chrome/63.0.3239.132 Safari/537.36", "eventdata": [{"eventtype": "initialized", "interval": 0, "value": null, "timestamp": 1516822180996}, {"eventtype": "window_resize", "interval": 0, "value": [1280, 722], "timestamp": 1516822180996}, {"eventtype": "focus", "interval": 47458, "value": "off", "timestamp": 1516822228454}, {"eventtype": "focus", "interval": 7857, "value": "on", "timestamp": 1516822236311}, {"eventtype": "focus", "interval": 549547, "value": "off", "timestamp": 1516822785858}, {"eventtype": "focus", "interval": 2028, "value": "on", "timestamp": 1516822787886}, {"eventtype": "focus", "interval": 2494, "value": "off", "timestamp": 1516822790380}, {"eventtype": "focus", "interval": 976, "value": "on", "timestamp": 1516822791356}], "data": [{"current_trial": 0, "trialdata": {"rt": 2065, "trial_type": "text", "internal_node_id": "0.0-0.0", "time_elapsed": 2068, "key_press": 32, "type": "INSTRUCTIONS", "trial_index": 0}, "uniqueid": "MTK2183:3137ONMDKHC0IYBRV7NM2C9P7ZRGEH", "dateTime": 1516822193938}, {"current_trial": 1, "trialdata": {"rt": 15792, "trial_type": "text", "internal_node_id": "0.0-1.0", "time_elapsed": 17864, "key_press": 32, "type": "INSTRUCTIONS", "trial_index": 1}, "uniqueid": "MTK2183:3137ONMDKHC0IYBRV7NM2C9P7ZRGEH", "dateTime": 1516822209733}, {"current_trial": 2, "trialdata": {"rt": [36021], "trial_type": "audio-test", "responses": ["ocean"], "internal_node_id": "0.0-2.0", "time_elapsed": 53910, "type": "AUDIO_TEST", "trial_index": 2}, "uniqueid": "MTK2183:3137ONMDKHC0IYBRV7NM2C9P7ZRGEH", "dateTime": 1516822245779}, {"current_trial": 3, "trialdata": {"rt": [8561], "trial_type": "audio-test", "responses": ["crystal"], "internal_node_id": "0.0-3.0", "time_elapsed": 62478, "type": "AUDIO_TEST", "trial_index": 3}, "uniqueid": "MTK2183:3137ONMDKHC0IYBRV7NM2C9P7ZRGEH", "dateTime": 1516822254347}, {"current_trial": 4, "trialdata": {"rt": [4426], "trial_type": "audio-test", "responses": ["spice"], "internal_node_id": "0.0-4.0", "time_elapsed": 66909, "type": "AUDIO_TEST", "trial_index": 4}, "uniqueid": "MTK2183:3137ONMDKHC0IYBRV7NM2C9P7ZRGEH", "dateTime": 1516822258778}, {"current_trial": 5, "trialdata": {"rt": 23160, "trial_type": "survey-text", "responses": "{\"Q0\":\"11:00pm\",\"Q1\":\"6:00am\",\"Q2\":\"5\"}", "internal_node_id": "0.0-5.0", "time_elapsed": 90823, "type": "SLEEP_SURVEY", "trial_index": 5}, "uniqueid": "MTK2183:3137ONMDKHC0IYBRV7NM2C9P7ZRGEH", "dateTime": 1516822282692}, {"current_trial": 6, "trialdata": {"rt": 55169, "trial_type": "text", "internal_node_id": "0.0-6.0", "time_elapsed": 146994, "key_press": 32, "type": "INSTRUCTIONS", "trial_index": 6}, "uniqueid": "MTK2183:3137ONMDKHC0IYBRV7NM2C9P7ZRGEH", "dateTime": 1516822338863}, {"current_trial": 7, "trialdata": {"rt": 13609, "trial_type": "text", "internal_node_id": "0.0-7.0", "time_elapsed": 161104, "key_press": 32, "type": "INSTRUCTIONS", "trial_index": 7}, "uniqueid": "MTK2183:3137ONMDKHC0IYBRV7NM2C9P7ZRGEH", "dateTime": 1516822352973}, {"current_trial": 8, "trialdata": {"rt": 3953, "trial_type": "text", "internal_node_id": "0.0-8.0", "time_elapsed": 165558, "key_press": 32, "type": "INSTRUCTIONS", "trial_index": 8}, "uniqueid": "MTK2183:3137ONMDKHC0IYBRV7NM2C9P7ZRGEH", "dateTime": 1516822357427}, {"current_trial": 9, "trialdata": {"rt": [5659, 8738, 12722, 14866, 17026], "trial_type": "math-distractor", "key_times": [2931, 3930, 5659, 7786, 8194, 8738, 11562, 11930, 12722, 14018, 14514, 14866, 16211, 16722, 17026], "responses": ["17", "17", "15", "10", "10"], "num2": [5, 6, 1, 8, 4, 9], "num3": [4, 2, 6, 1, 3, 8], "conditions": [18, 1200, "a", 18000], "internal_node_id": "0.0-9.0", "key_presses": [49, 55, 13, 49, 55, 13, 49, 53, 13, 49, 48, 13, 49, 48, 13], "trial": 0, "time_elapsed": 184565, "type": "DISTRACTOR", "trial_index": 9, "num1": [8, 9, 8, 1, 3, 4]}, "uniqueid": "MTK2183:3137ONMDKHC0IYBRV7NM2C9P7ZRGEH", "dateTime": 1516822376434}, {"current_trial": 10, "trialdata": {"rt": -1, "trial_type": "single-stim", "stimulus": "<p id=\"stim\">10</p>", "internal_node_id": "0.0-10.0-0.0", "time_elapsed": 187567, "key_press": -1, "trial_index": 10}, "uniqueid": "MTK2183:3137ONMDKHC0IYBRV7NM2C9P7ZRGEH", "dateTime": 1516822379437}, {"current_trial": 11, "trialdata": {"rt": -1, "trial_type": "single-stim", "stimulus": "<p id=\"stim\">9</p>", "internal_node_id": "0.0-10.0-1.0", "time_elapsed": 188569, "key_press": -1, "trial_index": 11}, "uniqueid": "MTK2183:3137ONMDKHC0IYBRV7NM2C9P7ZRGEH", "dateTime": 1516822380438}, {"current_trial": 12, "trialdata": {"rt": -1, "trial_type": "single-stim", "stimulus": "<p id=\"stim\">8</p>", "internal_node_id": "0.0-10.0-2.0", "time_elapsed": 189570, "key_press": -1, "trial_index": 12}, "uniqueid": "MTK2183:3137ONMDKHC0IYBRV7NM2C9P7ZRGEH", "dateTime": 1516822381440}, {"current_trial": 13, "trialdata": {"rt": -1, "trial_type": "single-stim", "stimulus": "<p id=\"stim\">7</p>", "internal_node_id": "0.0-10.0-3.0", "time_elapsed": 190572, "key_press": -1, "trial_index": 13}, "uniqueid": "MTK2183:3137ONMDKHC0IYBRV7NM2C9P7ZRGEH", "dateTime": 1516822382441}, {"current_trial": 14, "trialdata": {"rt": -1, "trial_type": "single-stim", "stimulus": "<p id=\"stim\">6</p>", "internal_node_id": "0.0-10.0-4.0", "time_elapsed": 191574, "key_press": -1, "trial_index": 14}, "uniqueid": "MTK2183:3137ONMDKHC0IYBRV7NM2C9P7ZRGEH", "dateTime": 1516822383443}, {"current_trial": 15, "trialdata": {"rt": -1, "trial_type": "single-stim", "stimulus": "<p id=\"stim\">5</p>", "internal_node_id": "0.0-10.0-5.0", "time_elapsed": 192576, "key_press": -1, "trial_index": 15}, "uniqueid": "MTK2183:3137ONMDKHC0IYBRV7NM2C9P7ZRGEH", "dateTime": 1516822384445}, {"current_trial": 16, "trialdata": {"rt": -1, "trial_type": "single-stim", "stimulus": "<p id=\"stim\">4</p>", "internal_node_id": "0.0-10.0-6.0", "time_elapsed": 193578, "key_press": -1, "trial_index": 16}, "uniqueid": "MTK2183:3137ONMDKHC0IYBRV7NM2C9P7ZRGEH", "dateTime": 1516822385447}, {"current_trial": 17, "trialdata": {"rt": -1, "trial_type": "single-stim", "stimulus": "<p id=\"stim\">3</p>", "internal_node_id": "0.0-10.0-7.0", "time_elapsed": 194579, "key_press": -1, "trial_index": 17}, "uniqueid": "MTK2183:3137ONMDKHC0IYBRV7NM2C9P7ZRGEH", "dateTime": 1516822386448}, {"current_trial": 18, "trialdata": {"rt": -1, "trial_type": "single-stim", "stimulus": "<p id=\"stim\">2</p>", "internal_node_id": "0.0-10.0-8.0", "time_elapsed": 195585, "key_press": -1, "trial_index": 18}, "uniqueid": "MTK2183:3137ONMDKHC0IYBRV7NM2C9P7ZRGEH", "dateTime": 1516822387454}, {"current_trial": 19, "trialdata": {"rt": -1, "trial_type": "single-stim", "stimulus": "<p id=\"stim\">1</p>", "internal_node_id": "0.0-10.0-9.0", "time_elapsed": 196587, "key_press": -1, "trial_index": 19}, "uniqueid": "MTK2183:3137ONMDKHC0IYBRV7NM2C9P7ZRGEH", "dateTime": 1516822388456}, {"current_trial": 20, "trialdata": {"rt": -1, "trial_type": "single-stim", "stimulus": "<p id=\"stim\">+</p>", "internal_node_id": "0.0-11.0-0.0", "time_elapsed": 198089, "key_press": -1, "type": "FIXATION", "trial_index": 20}, "uniqueid": "MTK2183:3137ONMDKHC0IYBRV7NM2C9P7ZRGEH", "dateTime": 1516822389958}, {"current_trial": 21, "trialdata": {"rt": -1000, "trial_type": "single-audio", "word": "foot", "stimulus": "/static/audio/wordpool/FOOT.wav", "conditions": [18, 1200, "a", 18000], "internal_node_id": "0.0-12.0", "trial": 0, "time_elapsed": 200238, "serialpos": 0, "key_press": -1, "wordID": 589, "type": "PRES_AUD", "trial_index": 21}, "uniqueid": "MTK2183:3137ONMDKHC0IYBRV7NM2C9P7ZRGEH", "dateTime": 1516822392107}, {"current_trial": 22, "trialdata": {"rt": -1000, "trial_type": "single-audio", "word": "gangster", "stimulus": "/static/audio/wordpool/GANGSTER.wav", "conditions": [18, 1200, "a", 18000], "internal_node_id": "0.0-13.0", "trial": 0, "time_elapsed": 202620, "serialpos": 1, "key_press": -1, "wordID": 619, "type": "PRES_AUD", "trial_index": 22}, "uniqueid": "MTK2183:3137ONMDKHC0IYBRV7NM2C9P7ZRGEH", "dateTime": 1516822394489}, {"current_trial": 23, "trialdata": {"rt": -1000, "trial_type": "single-audio", "word": "puppy", "stimulus": "/static/audio/wordpool/PUPPY.wav", "conditions": [18, 1200, "a", 18000], "internal_node_id": "0.0-14.0", "trial": 0, "time_elapsed": 204830, "serialpos": 2, "key_press": -1, "wordID": 1143, "type": "PRES_AUD", "trial_index": 23}, "uniqueid": "MTK2183:3137ONMDKHC0IYBRV7NM2C9P7ZRGEH", "dateTime": 1516822396699}, {"current_trial": 24, "trialdata": {"rt": -1000, "trial_type": "single-audio", "word": "briefcase", "stimulus": "/static/audio/wordpool/BRIEFCASE.wav", "conditions": [18, 1200, "a", 18000], "internal_node_id": "0.0-15.0", "trial": 0, "time_elapsed": 206999, "serialpos": 3, "key_press": -1, "wordID": 174, "type": "PRES_AUD", "trial_index": 24}, "uniqueid": "MTK2183:3137ONMDKHC0IYBRV7NM2C9P7ZRGEH", "dateTime": 1516822398868}, {"current_trial": 25, "trialdata": {"rt": -1000, "trial_type": "single-audio", "word": "garden", "stimulus": "/static/audio/wordpool/GARDEN.wav", "conditions": [18, 1200, "a", 18000], "internal_node_id": "0.0-16.0", "trial": 0, "time_elapsed": 209143, "serialpos": 4, "key_press": -1, "wordID": 622, "type": "PRES_AUD", "trial_index": 25}, "uniqueid": "MTK2183:3137ONMDKHC0IYBRV7NM2C9P7ZRGEH", "dateTime": 1516822401012}, {"current_trial": 26, "trialdata": {"rt": -1000, "trial_type": "single-audio", "word": "staple", "stimulus": "/static/audio/wordpool/STAPLE.wav", "conditions": [18, 1200, "a", 18000], "internal_node_id": "0.0-17.0", "trial": 0, "time_elapsed": 211429, "serialpos": 5, "key_press": -1, "wordID": 1370, "type": "PRES_AUD", "trial_index": 26}, "uniqueid": "MTK2183:3137ONMDKHC0IYBRV7NM2C9P7ZRGEH", "dateTime": 1516822403298}, {"current_trial": 27, "trialdata": {"rt": -1000, "trial_type": "single-audio", "word": "teacher", "stimulus": "/static/audio/wordpool/TEACHER.wav", "conditions": [18, 1200, "a", 18000], "internal_node_id": "0.0-18.0", "trial": 0, "time_elapsed": 213558, "serialpos": 6, "key_press": -1, "wordID": 1439, "type": "PRES_AUD", "trial_index": 27}, "uniqueid": "MTK2183:3137ONMDKHC0IYBRV7NM2C9P7ZRGEH", "dateTime": 1516822405427}, {"current_trial": 28, "trialdata": {"rt": -1000, "trial_type": "single-audio", "word": "france", "stimulus": "/static/audio/wordpool/FRANCE.wav", "conditions": [18, 1200, "a", 18000], "internal_node_id": "0.0-19.0", "trial": 0, "time_elapsed": 215935, "serialpos": 7, "key_press": -1, "wordID": 600, "type": "PRES_AUD", "trial_index": 28}, "uniqueid": "MTK2183:3137ONMDKHC0IYBRV7NM2C9P7ZRGEH", "dateTime": 1516822407804}, {"current_trial": 29, "trialdata": {"rt": -1000, "trial_type": "single-audio", "word": "husband", "stimulus": "/static/audio/wordpool/HUSBAND.wav", "conditions": [18, 1200, "a", 18000], "internal_node_id": "0.0-20.0", "trial": 0, "time_elapsed": 218049, "serialpos": 8, "key_press": -1, "wordID": 727, "type": "PRES_AUD", "trial_index": 29}, "uniqueid": "MTK2183:3137ONMDKHC0IYBRV7NM2C9P7ZRGEH", "dateTime": 1516822409918}, {"current_trial": 30, "trialdata": {"rt": -1000, "trial_type": "single-audio", "word": "hiker", "stimulus": "/static/audio/wordpool/HIKER.wav", "conditions": [18, 1200, "a", 18000], "internal_node_id": "0.0-21.0", "trial": 0, "time_elapsed": 220280, "serialpos": 9, "key_press": -1, "wordID": 707, "type": "PRES_AUD", "trial_index": 30}, "uniqueid": "MTK2183:3137ONMDKHC0IYBRV7NM2C9P7ZRGEH", "dateTime": 1516822412149}, {"current_trial": 31, "trialdata": {"rt": -1000, "trial_type": "single-audio", "word": "slime", "stimulus": "/static/audio/wordpool/SLIME.wav", "conditions": [18, 1200, "a", 18000], "internal_node_id": "0.0-22.0", "trial": 0, "time_elapsed": 222490, "serialpos": 10, "key_press": -1, "wordID": 1326, "type": "PRES_AUD", "trial_index": 31}, "uniqueid": "MTK2183:3137ONMDKHC0IYBRV7NM2C9P7ZRGEH", "dateTime": 1516822414359}, {"current_trial": 32, "trialdata": {"rt": -1000, "trial_type": "single-audio", "word": "doughnut", "stimulus": "/static/audio/wordpool/DOUGHNUT.wav", "conditions": [18, 1200, "a", 18000], "internal_node_id": "0.0-23.0", "trial": 0, "time_elapsed": 224685, "serialpos": 11, "key_press": -1, "wordID": 489, "type": "PRES_AUD", "trial_index": 32}, "uniqueid": "MTK2183:3137ONMDKHC0IYBRV7NM2C9P7ZRGEH", "dateTime": 1516822416554}, {"current_trial": 33, "trialdata": {"rt": -1000, "trial_type": "single-audio", "word": "forest", "stimulus": "/static/audio/wordpool/FOREST.wav", "conditions": [18, 1200, "a", 18000], "internal_node_id": "0.0-24.0", "trial": 0, "time_elapsed": 226740, "serialpos": 12, "key_press": -1, "wordID": 592, "type": "PRES_AUD", "trial_index": 33}, "uniqueid": "MTK2183:3137ONMDKHC0IYBRV7NM2C9P7ZRGEH", "dateTime": 1516822418609}, {"current_trial": 34, "trialdata": {"rt": -1000, "trial_type": "single-audio", "word": "london", "stimulus": "/static/audio/wordpool/LONDON.wav", "conditions": [18, 1200, "a", 18000], "internal_node_id": "0.0-25.0", "trial": 0, "time_elapsed": 229109, "serialpos": 13, "key_press": -1, "wordID": 842, "type": "PRES_AUD", "trial_index": 34}, "uniqueid": "MTK2183:3137ONMDKHC0IYBRV7NM2C9P7ZRGEH", "dateTime": 1516822420978}, {"current_trial": 35, "trialdata": {"rt": -1000, "trial_type": "single-audio", "word": "brother", "stimulus": "/static/audio/wordpool/BROTHER.wav", "conditions": [18, 1200, "a", 18000], "internal_node_id": "0.0-26.0", "trial": 0, "time_elapsed": 231212, "serialpos": 14, "key_press": -1, "wordID": 178, "type": "PRES_AUD", "trial_index": 35}, "uniqueid": "MTK2183:3137ONMDKHC0IYBRV7NM2C9P7ZRGEH", "dateTime": 1516822423081}, {"current_trial": 36, "trialdata": {"rt": -1000, "trial_type": "single-audio", "word": "orange", "stimulus": "/static/audio/wordpool/ORANGE.wav", "conditions": [18, 1200, "a", 18000], "internal_node_id": "0.0-27.0", "trial": 0, "time_elapsed": 233407, "serialpos": 15, "key_press": -1, "wordID": 979, "type": "PRES_AUD", "trial_index": 36}, "uniqueid": "MTK2183:3137ONMDKHC0IYBRV7NM2C9P7ZRGEH", "dateTime": 1516822425276}, {"current_trial": 37, "trialdata": {"rt": -1000, "trial_type": "single-audio", "word": "fireplace", "stimulus": "/static/audio/wordpool/FIREPLACE.wav", "conditions": [18, 1200, "a", 18000], "internal_node_id": "0.0-28.0", "trial": 0, "time_elapsed": 235408, "serialpos": 16, "key_press": -1, "wordID": 569, "type": "PRES_AUD", "trial_index": 37}, "uniqueid": "MTK2183:3137ONMDKHC0IYBRV7NM2C9P7ZRGEH", "dateTime": 1516822427277}, {"current_trial": 38, "trialdata": {"rt": -1000, "trial_type": "single-audio", "word": "racket", "stimulus": "/static/audio/wordpool/RACKET.wav", "conditions": [18, 1200, "a", 18000], "internal_node_id": "0.0-29.0", "trial": 0, "time_elapsed": 237477, "serialpos": 17, "key_press": -1, "wordID": 1154, "type": "PRES_AUD", "trial_index": 38}, "uniqueid": "MTK2183:3137ONMDKHC0IYBRV7NM2C9P7ZRGEH", "dateTime": 1516822429346}, {"current_trial": 39, "trialdata": {"rt": -1, "trial_type": "single-stim", "stimulus": "", "internal_node_id": "0.0-30.0-0.0", "time_elapsed": 238841, "key_press": -1, "type": "PRE_RECALL_DELAY", "trial_index": 39}, "uniqueid": "MTK2183:3137ONMDKHC0IYBRV7NM2C9P7ZRGEH", "dateTime": 1516822430710}, {"current_trial": 40, "trialdata": {"rt": -1000, "trial_type": "single-audio", "stimulus": "/static/audio/400Hz.wav", "internal_node_id": "0.0-31.0", "time_elapsed": 239342, "key_press": -1, "type": "PRE_RECALL_ALERT", "trial_index": 40}, "uniqueid": "MTK2183:3137ONMDKHC0IYBRV7NM2C9P7ZRGEH", "dateTime": 1516822431211}, {"current_trial": 41, "trialdata": {"rt": [2853, 4181, 5942, 6941, 9101, 11413, 14045, 16933, 19221, 23749, 27136, 32900, 45060, 51363], "recwords": ["forrest", "brother", "london", "slime", "staple", "teacher", "hiker", "husband", "foot", "ganster", "briefcase", "racket", "orange", "fireplace"], "key_times": [1532, 1677, 1926, 2038, 2149, 2278, 2565, 2853, 3293, 3397, 3477, 3621, 3677, 3877, 3941, 4181, 4413, 4605, 4717, 5325, 5437, 5669, 5942, 6109, 6221, 6422, 6637, 6750, 6941, 7301, 7813, 8013, 8134, 8261, 8629, 9101, 10477, 10661, 10773, 10917, 11077, 11157, 11229, 11413, 11686, 12029, 12269, 12381, 12589, 12685, 12749, 14045, 15373, 15493, 15685, 16293, 16453, 16574, 16653, 16933, 18365, 18509, 18676, 18749, 19221, 20437, 20581, 20652, 20861, 21261, 21445, 21541, 21656, 21750, 22196, 22387, 22477, 22559, 23749, 24037, 24126, 24308, 24468, 24557, 25068, 25093, 25476, 25963, 26164, 26341, 26471, 26604, 27136, 30501, 30597, 30820, 32173, 32372, 32436, 32900, 44229, 44379, 44492, 44651, 44739, 44795, 45060, 49539, 49667, 49739, 49875, 50475, 50611, 50699, 50859, 50932, 51363], "trial_type": "free-recall", "conditions": [18, 1200, "a", 18000], "internal_node_id": "0.0-32.0-0.0", "key_presses": [70, 79, 82, 82, 69, 83, 84, 13, 66, 82, 79, 84, 72, 69, 82, 13, 76, 79, 78, 68, 79, 78, 13, 83, 76, 73, 77, 69, 13, 83, 84, 65, 80, 76, 69, 13, 84, 69, 65, 67, 72, 69, 82, 13, 75, 8, 72, 73, 75, 69, 82, 13, 72, 85, 83, 66, 65, 78, 68, 13, 70, 79, 79, 84, 13, 71, 65, 78, 68, 8, 83, 84, 82, 69, 8, 8, 69, 82, 13, 66, 82, 73, 69, 70, 65, 67, 8, 8, 67, 65, 83, 69, 13, 82, 65, 67, 75, 69, 84, 13, 79, 82, 65, 78, 71, 69, 13, 70, 73, 82, 69, 80, 76, 65, 67, 69, 13], "trial": 0, "time_elapsed": 299345, "type": "FREE_RECALL", "trial_index": 41}, "uniqueid": "MTK2183:3137ONMDKHC0IYBRV7NM2C9P7ZRGEH", "dateTime": 1516822491216}, {"current_trial": 42, "trialdata": {"rt": 1187, "trial_type": "text", "internal_node_id": "0.0-33.0", "time_elapsed": 302536, "key_press": 32, "type": "INSTRUCTIONS", "trial_index": 42}, "uniqueid": "MTK2183:3137ONMDKHC0IYBRV7NM2C9P7ZRGEH", "dateTime": 1516822494405}, {"current_trial": 43, "trialdata": {"rt": [3540, 5644, 7940, 9724, 11140, 13164, 15603, 17195], "trial_type": "math-distractor", "key_times": [3156, 3324, 3540, 5412, 5644, 7636, 7780, 7940, 9078, 9348, 9724, 10716, 10972, 11140, 12748, 12996, 13164, 15292, 15396, 15603, 17052, 17195], "responses": ["11", "8", "11", "14", "16", "16", "21", "6"], "num2": [4, 3, 1, 1, 8, 9, 5, 1, 1], "num3": [2, 3, 7, 5, 6, 5, 8, 1, 8], "conditions": [18, 1200, "a", 18000], "internal_node_id": "0.0-34.0", "key_presses": [49, 49, 13, 56, 13, 49, 49, 13, 49, 52, 13, 49, 54, 13, 49, 54, 13, 50, 49, 13, 54, 13], "trial": 1, "time_elapsed": 322539, "type": "DISTRACTOR", "trial_index": 43, "num1": [5, 2, 3, 8, 2, 2, 8, 4, 6]}, "uniqueid": "MTK2183:3137ONMDKHC0IYBRV7NM2C9P7ZRGEH", "dateTime": 1516822514408}, {"current_trial": 44, "trialdata": {"rt": -1, "trial_type": "single-stim", "stimulus": "<p id=\"stim\">10</p>", "internal_node_id": "0.0-35.0-0.0", "time_elapsed": 325542, "key_press": -1, "trial_index": 44}, "uniqueid": "MTK2183:3137ONMDKHC0IYBRV7NM2C9P7ZRGEH", "dateTime": 1516822517411}, {"current_trial": 45, "trialdata": {"rt": -1, "trial_type": "single-stim", "stimulus": "<p id=\"stim\">9</p>", "internal_node_id": "0.0-35.0-1.0", "time_elapsed": 326552, "key_press": -1, "trial_index": 45}, "uniqueid": "MTK2183:3137ONMDKHC0IYBRV7NM2C9P7ZRGEH", "dateTime": 1516822518421}, {"current_trial": 46, "trialdata": {"rt": -1, "trial_type": "single-stim", "stimulus": "<p id=\"stim\">8</p>", "internal_node_id": "0.0-35.0-2.0", "time_elapsed": 327554, "key_press": -1, "trial_index": 46}, "uniqueid": "MTK2183:3137ONMDKHC0IYBRV7NM2C9P7ZRGEH", "dateTime": 1516822519423}, {"current_trial": 47, "trialdata": {"rt": -1, "trial_type": "single-stim", "stimulus": "<p id=\"stim\">7</p>", "internal_node_id": "0.0-35.0-3.0", "time_elapsed": 328555, "key_press": -1, "trial_index": 47}, "uniqueid": "MTK2183:3137ONMDKHC0IYBRV7NM2C9P7ZRGEH", "dateTime": 1516822520424}, {"current_trial": 48, "trialdata": {"rt": -1, "trial_type": "single-stim", "stimulus": "<p id=\"stim\">6</p>", "internal_node_id": "0.0-35.0-4.0", "time_elapsed": 329557, "key_press": -1, "trial_index": 48}, "uniqueid": "MTK2183:3137ONMDKHC0IYBRV7NM2C9P7ZRGEH", "dateTime": 1516822521426}, {"current_trial": 49, "trialdata": {"rt": -1, "trial_type": "single-stim", "stimulus": "<p id=\"stim\">5</p>", "internal_node_id": "0.0-35.0-5.0", "time_elapsed": 330558, "key_press": -1, "trial_index": 49}, "uniqueid": "MTK2183:3137ONMDKHC0IYBRV7NM2C9P7ZRGEH", "dateTime": 1516822522427}, {"current_trial": 50, "trialdata": {"rt": -1, "trial_type": "single-stim", "stimulus": "<p id=\"stim\">4</p>", "internal_node_id": "0.0-35.0-6.0", "time_elapsed": 331559, "key_press": -1, "trial_index": 50}, "uniqueid": "MTK2183:3137ONMDKHC0IYBRV7NM2C9P7ZRGEH", "dateTime": 1516822523429}, {"current_trial": 51, "trialdata": {"rt": -1, "trial_type": "single-stim", "stimulus": "<p id=\"stim\">3</p>", "internal_node_id": "0.0-35.0-7.0", "time_elapsed": 332561, "key_press": -1, "trial_index": 51}, "uniqueid": "MTK2183:3137ONMDKHC0IYBRV7NM2C9P7ZRGEH", "dateTime": 1516822524430}, {"current_trial": 52, "trialdata": {"rt": -1, "trial_type": "single-stim", "stimulus": "<p id=\"stim\">2</p>", "internal_node_id": "0.0-35.0-8.0", "time_elapsed": 333562, "key_press": -1, "trial_index": 52}, "uniqueid": "MTK2183:3137ONMDKHC0IYBRV7NM2C9P7ZRGEH", "dateTime": 1516822525431}, {"current_trial": 53, "trialdata": {"rt": -1, "trial_type": "single-stim", "stimulus": "<p id=\"stim\">1</p>", "internal_node_id": "0.0-35.0-9.0", "time_elapsed": 334563, "key_press": -1, "trial_index": 53}, "uniqueid": "MTK2183:3137ONMDKHC0IYBRV7NM2C9P7ZRGEH", "dateTime": 1516822526433}, {"current_trial": 54, "trialdata": {"rt": -1, "trial_type": "single-stim", "stimulus": "<p id=\"stim\">+</p>", "internal_node_id": "0.0-36.0-0.0", "time_elapsed": 336065, "key_press": -1, "type": "FIXATION", "trial_index": 54}, "uniqueid": "MTK2183:3137ONMDKHC0IYBRV7NM2C9P7ZRGEH", "dateTime": 1516822527934}, {"current_trial": 55, "trialdata": {"rt": -1000, "trial_type": "single-audio", "word": "quarter", "stimulus": "/static/audio/wordpool/QUARTER.wav", "conditions": [18, 1200, "a", 18000], "internal_node_id": "0.0-37.0", "trial": 1, "time_elapsed": 338103, "serialpos": 0, "key_press": -1, "wordID": 1147, "type": "PRES_AUD", "trial_index": 55}, "uniqueid": "MTK2183:3137ONMDKHC0IYBRV7NM2C9P7ZRGEH", "dateTime": 1516822529972}, {"current_trial": 56, "trialdata": {"rt": -1000, "trial_type": "single-audio", "word": "fireman", "stimulus": "/static/audio/wordpool/FIREMAN.wav", "conditions": [18, 1200, "a", 18000], "internal_node_id": "0.0-38.0", "trial": 1, "time_elapsed": 340352, "serialpos": 1, "key_press": -1, "wordID": 568, "type": "PRES_AUD", "trial_index": 56}, "uniqueid": "MTK2183:3137ONMDKHC0IYBRV7NM2C9P7ZRGEH", "dateTime": 1516822532221}, {"current_trial": 57, "trialdata": {"rt": -1000, "trial_type": "single-audio", "word": "female", "stimulus": "/static/audio/wordpool/FEMALE.wav", "conditions": [18, 1200, "a", 18000], "internal_node_id": "0.0-39.0", "trial": 1, "time_elapsed": 342740, "serialpos": 2, "key_press": -1, "wordID": 558, "type": "PRES_AUD", "trial_index": 57}, "uniqueid": "MTK2183:3137ONMDKHC0IYBRV7NM2C9P7ZRGEH", "dateTime": 1516822534609}, {"current_trial": 58, "trialdata": {"rt": -1000, "trial_type": "single-audio", "word": "fruit", "stimulus": "/static/audio/wordpool/FRUIT.wav", "conditions": [18, 1200, "a", 18000], "internal_node_id": "0.0-40.0", "trial": 1, "time_elapsed": 344874, "serialpos": 3, "key_press": -1, "wordID": 609, "type": "PRES_AUD", "trial_index": 58}, "uniqueid": "MTK2183:3137ONMDKHC0IYBRV7NM2C9P7ZRGEH", "dateTime": 1516822536743}, {"current_trial": 59, "trialdata": {"rt": -1000, "trial_type": "single-audio", "word": "plaza", "stimulus": "/static/audio/wordpool/PLAZA.wav", "conditions": [18, 1200, "a", 18000], "internal_node_id": "0.0-41.0", "trial": 1, "time_elapsed": 346997, "serialpos": 4, "key_press": -1, "wordID": 1087, "type": "PRES_AUD", "trial_index": 59}, "uniqueid": "MTK2183:3137ONMDKHC0IYBRV7NM2C9P7ZRGEH", "dateTime": 1516822538866}, {"current_trial": 60, "trialdata": {"rt": -1000, "trial_type": "single-audio", "word": "cross", "stimulus": "/static/audio/wordpool/CROSS.wav", "conditions": [18, 1200, "a", 18000], "internal_node_id": "0.0-42.0", "trial": 1, "time_elapsed": 349347, "serialpos": 5, "key_press": -1, "wordID": 412, "type": "PRES_AUD", "trial_index": 60}, "uniqueid": "MTK2183:3137ONMDKHC0IYBRV7NM2C9P7ZRGEH", "dateTime": 1516822541216}, {"current_trial": 61, "trialdata": {"rt": -1000, "trial_type": "single-audio", "word": "report", "stimulus": "/static/audio/wordpool/REPORT.wav", "conditions": [18, 1200, "a", 18000], "internal_node_id": "0.0-43.0", "trial": 1, "time_elapsed": 351359, "serialpos": 6, "key_press": -1, "wordID": 1183, "type": "PRES_AUD", "trial_index": 61}, "uniqueid": "MTK2183:3137ONMDKHC0IYBRV7NM2C9P7ZRGEH", "dateTime": 1516822543228}, {"current_trial": 62, "trialdata": {"rt": -1000, "trial_type": "single-audio", "word": "eagle", "stimulus": "/static/audio/wordpool/EAGLE.wav", "conditions": [18, 1200, "a", 18000], "internal_node_id": "0.0-44.0", "trial": 1, "time_elapsed": 353716, "serialpos": 7, "key_press": -1, "wordID": 511, "type": "PRES_AUD", "trial_index": 62}, "uniqueid": "MTK2183:3137ONMDKHC0IYBRV7NM2C9P7ZRGEH", "dateTime": 1516822545585}, {"current_trial": 63, "trialdata": {"rt": -1000, "trial_type": "single-audio", "word": "flute", "stimulus": "/static/audio/wordpool/FLUTE.wav", "conditions": [18, 1200, "a", 18000], "internal_node_id": "0.0-45.0", "trial": 1, "time_elapsed": 355928, "serialpos": 8, "key_press": -1, "wordID": 584, "type": "PRES_AUD", "trial_index": 63}, "uniqueid": "MTK2183:3137ONMDKHC0IYBRV7NM2C9P7ZRGEH", "dateTime": 1516822547797}, {"current_trial": 64, "trialdata": {"rt": -1000, "trial_type": "single-audio", "word": "crab", "stimulus": "/static/audio/wordpool/CRAB.wav", "conditions": [18, 1200, "a", 18000], "internal_node_id": "0.0-46.0", "trial": 1, "time_elapsed": 358012, "serialpos": 9, "key_press": -1, "wordID": 396, "type": "PRES_AUD", "trial_index": 64}, "uniqueid": "MTK2183:3137ONMDKHC0IYBRV7NM2C9P7ZRGEH", "dateTime": 1516822549881}, {"current_trial": 65, "trialdata": {"rt": -1000, "trial_type": "single-audio", "word": "statue", "stimulus": "/static/audio/wordpool/STATUE.wav", "conditions": [18, 1200, "a", 18000], "internal_node_id": "0.0-47.0", "trial": 1, "time_elapsed": 360333, "serialpos": 10, "key_press": -1, "wordID": 1373, "type": "PRES_AUD", "trial_index": 65}, "uniqueid": "MTK2183:3137ONMDKHC0IYBRV7NM2C9P7ZRGEH", "dateTime": 1516822552202}, {"current_trial": 66, "trialdata": {"rt": -1000, "trial_type": "single-audio", "word": "paddle", "stimulus": "/static/audio/wordpool/PADDLE.wav", "conditions": [18, 1200, "a", 18000], "internal_node_id": "0.0-48.0", "trial": 1, "time_elapsed": 362717, "serialpos": 11, "key_press": -1, "wordID": 999, "type": "PRES_AUD", "trial_index": 66}, "uniqueid": "MTK2183:3137ONMDKHC0IYBRV7NM2C9P7ZRGEH", "dateTime": 1516822554586}, {"current_trial": 67, "trialdata": {"rt": -1000, "trial_type": "single-audio", "word": "bubble", "stimulus": "/static/audio/wordpool/BUBBLE.wav", "conditions": [18, 1200, "a", 18000], "internal_node_id": "0.0-49.0", "trial": 1, "time_elapsed": 364829, "serialpos": 12, "key_press": -1, "wordID": 182, "type": "PRES_AUD", "trial_index": 67}, "uniqueid": "MTK2183:3137ONMDKHC0IYBRV7NM2C9P7ZRGEH", "dateTime": 1516822556698}, {"current_trial": 68, "trialdata": {"rt": -1000, "trial_type": "single-audio", "word": "milk", "stimulus": "/static/audio/wordpool/MILK.wav", "conditions": [18, 1200, "a", 18000], "internal_node_id": "0.0-50.0", "trial": 1, "time_elapsed": 367004, "serialpos": 13, "key_press": -1, "wordID": 894, "type": "PRES_AUD", "trial_index": 68}, "uniqueid": "MTK2183:3137ONMDKHC0IYBRV7NM2C9P7ZRGEH", "dateTime": 1516822558875}, {"current_trial": 69, "trialdata": {"rt": -1000, "trial_type": "single-audio", "word": "clock", "stimulus": "/static/audio/wordpool/CLOCK.wav", "conditions": [18, 1200, "a", 18000], "internal_node_id": "0.0-51.0", "trial": 1, "time_elapsed": 369313, "serialpos": 14, "key_press": -1, "wordID": 324, "type": "PRES_AUD", "trial_index": 69}, "uniqueid": "MTK2183:3137ONMDKHC0IYBRV7NM2C9P7ZRGEH", "dateTime": 1516822561182}, {"current_trial": 70, "trialdata": {"rt": -1000, "trial_type": "single-audio", "word": "actor", "stimulus": "/static/audio/wordpool/ACTOR.wav", "conditions": [18, 1200, "a", 18000], "internal_node_id": "0.0-52.0", "trial": 1, "time_elapsed": 371707, "serialpos": 15, "key_press": -1, "wordID": 4, "type": "PRES_AUD", "trial_index": 70}, "uniqueid": "MTK2183:3137ONMDKHC0IYBRV7NM2C9P7ZRGEH", "dateTime": 1516822563576}, {"current_trial": 71, "trialdata": {"rt": -1000, "trial_type": "single-audio", "word": "mildew", "stimulus": "/static/audio/wordpool/MILDEW.wav", "conditions": [18, 1200, "a", 18000], "internal_node_id": "0.0-53.0", "trial": 1, "time_elapsed": 373984, "serialpos": 16, "key_press": -1, "wordID": 892, "type": "PRES_AUD", "trial_index": 71}, "uniqueid": "MTK2183:3137ONMDKHC0IYBRV7NM2C9P7ZRGEH", "dateTime": 1516822565853}, {"current_trial": 72, "trialdata": {"rt": -1000, "trial_type": "single-audio", "word": "pocket", "stimulus": "/static/audio/wordpool/POCKET.wav", "conditions": [18, 1200, "a", 18000], "internal_node_id": "0.0-54.0", "trial": 1, "time_elapsed": 376218, "serialpos": 17, "key_press": -1, "wordID": 1092, "type": "PRES_AUD", "trial_index": 72}, "uniqueid": "MTK2183:3137ONMDKHC0IYBRV7NM2C9P7ZRGEH", "dateTime": 1516822568087}, {"current_trial": 73, "trialdata": {"rt": -1, "trial_type": "single-stim", "stimulus": "", "internal_node_id": "0.0-55.0-0.0", "time_elapsed": 377531, "key_press": -1, "type": "PRE_RECALL_DELAY", "trial_index": 73}, "uniqueid": "MTK2183:3137ONMDKHC0IYBRV7NM2C9P7ZRGEH", "dateTime": 1516822569400}, {"current_trial": 74, "trialdata": {"rt": -1000, "trial_type": "single-audio", "stimulus": "/static/audio/400Hz.wav", "internal_node_id": "0.0-56.0", "time_elapsed": 378034, "key_press": -1, "type": "PRE_RECALL_ALERT", "trial_index": 74}, "uniqueid": "MTK2183:3137ONMDKHC0IYBRV7NM2C9P7ZRGEH", "dateTime": 1516822569903}, {"current_trial": 75, "trialdata": {"rt": [2329, 4185, 5155, 6841, 10081, 22986, 25345], "recwords": ["mildew", "pocket", "actor", "fruit", "flute", "bubble", "statue"], "key_times": [1202, 1297, 1537, 1881, 2073, 2169, 2329, 2537, 2657, 2849, 3370, 3521, 3673, 4185, 4449, 4601, 4809, 4905, 4985, 5155, 5457, 5521, 5745, 5817, 5969, 6841, 8849, 8969, 9369, 9618, 9689, 10081, 21307, 21369, 21553, 21858, 22234, 22353, 22542, 22634, 22986, 24522, 24674, 24817, 24906, 25041, 25153, 25345], "trial_type": "free-recall", "conditions": [18, 1200, "a", 18000], "internal_node_id": "0.0-57.0-0.0", "key_presses": [77, 73, 76, 68, 69, 87, 13, 80, 79, 67, 75, 69, 84, 13, 65, 67, 84, 79, 82, 13, 70, 82, 85, 73, 84, 13, 70, 76, 85, 84, 69, 13, 66, 85, 66, 76, 8, 66, 76, 69, 13, 83, 84, 65, 84, 85, 69, 13], "trial": 1, "time_elapsed": 438035, "type": "FREE_RECALL", "trial_index": 75}, "uniqueid": "MTK2183:3137ONMDKHC0IYBRV7NM2C9P7ZRGEH", "dateTime": 1516822629907}, {"current_trial": 76, "trialdata": {"rt": 2326, "trial_type": "text", "internal_node_id": "0.0-58.0", "time_elapsed": 442365, "key_press": 32, "type": "INSTRUCTIONS", "trial_index": 76}, "uniqueid": "MTK2183:3137ONMDKHC0IYBRV7NM2C9P7ZRGEH", "dateTime": 1516822634234}, {"current_trial": 77, "trialdata": {"rt": [2187, 4244, 7403, 10459], "trial_type": "math-distractor", "key_times": [1948, 2068, 2187, 3763, 4099, 4244, 7115, 7259, 7403, 10021, 10171, 10459], "responses": ["14", "18", "22", "22"], "num2": [4, 9, 7, 8, 3], "num3": [1, 5, 6, 8, 4], "conditions": [12, 1600, "a", 12000], "internal_node_id": "0.0-59.0", "key_presses": [49, 52, 13, 49, 56, 13, 50, 50, 13, 50, 50, 13], "trial": 2, "time_elapsed": 455369, "type": "DISTRACTOR", "trial_index": 77, "num1": [9, 4, 9, 6, 2]}, "uniqueid": "MTK2183:3137ONMDKHC0IYBRV7NM2C9P7ZRGEH", "dateTime": 1516822647238}, {"current_trial": 78, "trialdata": {"rt": -1, "trial_type": "single-stim", "stimulus": "<p id=\"stim\">10</p>", "internal_node_id": "0.0-60.0-0.0", "time_elapsed": 458372, "key_press": -1, "trial_index": 78}, "uniqueid": "MTK2183:3137ONMDKHC0IYBRV7NM2C9P7ZRGEH", "dateTime": 1516822650241}, {"current_trial": 79, "trialdata": {"rt": -1, "trial_type": "single-stim", "stimulus": "<p id=\"stim\">9</p>", "internal_node_id": "0.0-60.0-1.0", "time_elapsed": 459373, "key_press": -1, "trial_index": 79}, "uniqueid": "MTK2183:3137ONMDKHC0IYBRV7NM2C9P7ZRGEH", "dateTime": 1516822651242}, {"current_trial": 80, "trialdata": {"rt": -1, "trial_type": "single-stim", "stimulus": "<p id=\"stim\">8</p>", "internal_node_id": "0.0-60.0-2.0", "time_elapsed": 460375, "key_press": -1, "trial_index": 80}, "uniqueid": "MTK2183:3137ONMDKHC0IYBRV7NM2C9P7ZRGEH", "dateTime": 1516822652244}, {"current_trial": 81, "trialdata": {"rt": -1, "trial_type": "single-stim", "stimulus": "<p id=\"stim\">7</p>", "internal_node_id": "0.0-60.0-3.0", "time_elapsed": 461376, "key_press": -1, "trial_index": 81}, "uniqueid": "MTK2183:3137ONMDKHC0IYBRV7NM2C9P7ZRGEH", "dateTime": 1516822653245}, {"current_trial": 82, "trialdata": {"rt": -1, "trial_type": "single-stim", "stimulus": "<p id=\"stim\">6</p>", "internal_node_id": "0.0-60.0-4.0", "time_elapsed": 462377, "key_press": -1, "trial_index": 82}, "uniqueid": "MTK2183:3137ONMDKHC0IYBRV7NM2C9P7ZRGEH", "dateTime": 1516822654246}, {"current_trial": 83, "trialdata": {"rt": -1, "trial_type": "single-stim", "stimulus": "<p id=\"stim\">5</p>", "internal_node_id": "0.0-60.0-5.0", "time_elapsed": 463378, "key_press": -1, "trial_index": 83}, "uniqueid": "MTK2183:3137ONMDKHC0IYBRV7NM2C9P7ZRGEH", "dateTime": 1516822655247}, {"current_trial": 84, "trialdata": {"rt": -1, "trial_type": "single-stim", "stimulus": "<p id=\"stim\">4</p>", "internal_node_id": "0.0-60.0-6.0", "time_elapsed": 464380, "key_press": -1, "trial_index": 84}, "uniqueid": "MTK2183:3137ONMDKHC0IYBRV7NM2C9P7ZRGEH", "dateTime": 1516822656249}, {"current_trial": 85, "trialdata": {"rt": -1, "trial_type": "single-stim", "stimulus": "<p id=\"stim\">3</p>", "internal_node_id": "0.0-60.0-7.0", "time_elapsed": 465381, "key_press": -1, "trial_index": 85}, "uniqueid": "MTK2183:3137ONMDKHC0IYBRV7NM2C9P7ZRGEH", "dateTime": 1516822657250}, {"current_trial": 86, "trialdata": {"rt": -1, "trial_type": "single-stim", "stimulus": "<p id=\"stim\">2</p>", "internal_node_id": "0.0-60.0-8.0", "time_elapsed": 466383, "key_press": -1, "trial_index": 86}, "uniqueid": "MTK2183:3137ONMDKHC0IYBRV7NM2C9P7ZRGEH", "dateTime": 1516822658252}, {"current_trial": 87, "trialdata": {"rt": -1, "trial_type": "single-stim", "stimulus": "<p id=\"stim\">1</p>", "internal_node_id": "0.0-60.0-9.0", "time_elapsed": 467385, "key_press": -1, "trial_index": 87}, "uniqueid": "MTK2183:3137ONMDKHC0IYBRV7NM2C9P7ZRGEH", "dateTime": 1516822659254}, {"current_trial": 88, "trialdata": {"rt": -1, "trial_type": "single-stim", "stimulus": "<p id=\"stim\">+</p>", "internal_node_id": "0.0-61.0-0.0", "time_elapsed": 468887, "key_press": -1, "type": "FIXATION", "trial_index": 88}, "uniqueid": "MTK2183:3137ONMDKHC0IYBRV7NM2C9P7ZRGEH", "dateTime": 1516822660756}, {"current_trial": 89, "trialdata": {"rt": -1000, "trial_type": "single-audio", "word": "sunrise", "stimulus": "/static/audio/wordpool/SUNRISE.wav", "conditions": [12, 1600, "a", 12000], "internal_node_id": "0.0-62.0", "trial": 2, "time_elapsed": 471440, "serialpos": 0, "key_press": -1, "wordID": 1406, "type": "PRES_AUD", "trial_index": 89}, "uniqueid": "MTK2183:3137ONMDKHC0IYBRV7NM2C9P7ZRGEH", "dateTime": 1516822663309}, {"current_trial": 90, "trialdata": {"rt": -1000, "trial_type": "single-audio", "word": "sunset", "stimulus": "/static/audio/wordpool/SUNSET.wav", "conditions": [12, 1600, "a", 12000], "internal_node_id": "0.0-63.0", "trial": 2, "time_elapsed": 474072, "serialpos": 1, "key_press": -1, "wordID": 1407, "type": "PRES_AUD", "trial_index": 90}, "uniqueid": "MTK2183:3137ONMDKHC0IYBRV7NM2C9P7ZRGEH", "dateTime": 1516822665941}, {"current_trial": 91, "trialdata": {"rt": -1000, "trial_type": "single-audio", "word": "pliers", "stimulus": "/static/audio/wordpool/PLIERS.wav", "conditions": [12, 1600, "a", 12000], "internal_node_id": "0.0-64.0", "trial": 2, "time_elapsed": 476474, "serialpos": 2, "key_press": -1, "wordID": 1088, "type": "PRES_AUD", "trial_index": 91}, "uniqueid": "MTK2183:3137ONMDKHC0IYBRV7NM2C9P7ZRGEH", "dateTime": 1516822668343}, {"current_trial": 92, "trialdata": {"rt": -1000, "trial_type": "single-audio", "word": "mammal", "stimulus": "/static/audio/wordpool/MAMMAL.wav", "conditions": [12, 1600, "a", 12000], "internal_node_id": "0.0-65.0", "trial": 2, "time_elapsed": 479148, "serialpos": 3, "key_press": -1, "wordID": 860, "type": "PRES_AUD", "trial_index": 92}, "uniqueid": "MTK2183:3137ONMDKHC0IYBRV7NM2C9P7ZRGEH", "dateTime": 1516822671017}, {"current_trial": 93, "trialdata": {"rt": -1000, "trial_type": "single-audio", "word": "rooster", "stimulus": "/static/audio/wordpool/ROOSTER.wav", "conditions": [12, 1600, "a", 12000], "internal_node_id": "0.0-66.0", "trial": 2, "time_elapsed": 481709, "serialpos": 4, "key_press": -1, "wordID": 1208, "type": "PRES_AUD", "trial_index": 93}, "uniqueid": "MTK2183:3137ONMDKHC0IYBRV7NM2C9P7ZRGEH", "dateTime": 1516822673578}, {"current_trial": 94, "trialdata": {"rt": -1000, "trial_type": "single-audio", "word": "student", "stimulus": "/static/audio/wordpool/STUDENT.wav", "conditions": [12, 1600, "a", 12000], "internal_node_id": "0.0-67.0", "trial": 2, "time_elapsed": 484141, "serialpos": 5, "key_press": -1, "wordID": 1394, "type": "PRES_AUD", "trial_index": 94}, "uniqueid": "MTK2183:3137ONMDKHC0IYBRV7NM2C9P7ZRGEH", "dateTime": 1516822676010}, {"current_trial": 95, "trialdata": {"rt": -1000, "trial_type": "single-audio", "word": "creature", "stimulus": "/static/audio/wordpool/CREATURE.wav", "conditions": [12, 1600, "a", 12000], "internal_node_id": "0.0-68.0", "trial": 2, "time_elapsed": 486649, "serialpos": 6, "key_press": -1, "wordID": 402, "type": "PRES_AUD", "trial_index": 95}, "uniqueid": "MTK2183:3137ONMDKHC0IYBRV7NM2C9P7ZRGEH", "dateTime": 1516822678518}, {"current_trial": 96, "trialdata": {"rt": -1000, "trial_type": "single-audio", "word": "mailbox", "stimulus": "/static/audio/wordpool/MAILBOX.wav", "conditions": [12, 1600, "a", 12000], "internal_node_id": "0.0-69.0", "trial": 2, "time_elapsed": 489440, "serialpos": 7, "key_press": -1, "wordID": 856, "type": "PRES_AUD", "trial_index": 96}, "uniqueid": "MTK2183:3137ONMDKHC0IYBRV7NM2C9P7ZRGEH", "dateTime": 1516822681309}, {"current_trial": 97, "trialdata": {"rt": -1000, "trial_type": "single-audio", "word": "knapsack", "stimulus": "/static/audio/wordpool/KNAPSACK.wav", "conditions": [12, 1600, "a", 12000], "internal_node_id": "0.0-70.0", "trial": 2, "time_elapsed": 492146, "serialpos": 8, "key_press": -1, "wordID": 782, "type": "PRES_AUD", "trial_index": 97}, "uniqueid": "MTK2183:3137ONMDKHC0IYBRV7NM2C9P7ZRGEH", "dateTime": 1516822684016}, {"current_trial": 98, "trialdata": {"rt": -1000, "trial_type": "single-audio", "word": "tweezers", "stimulus": "/static/audio/wordpool/TWEEZERS.wav", "conditions": [12, 1600, "a", 12000], "internal_node_id": "0.0-71.0", "trial": 2, "time_elapsed": 494890, "serialpos": 9, "key_press": -1, "wordID": 1525, "type": "PRES_AUD", "trial_index": 98}, "uniqueid": "MTK2183:3137ONMDKHC0IYBRV7NM2C9P7ZRGEH", "dateTime": 1516822686759}, {"current_trial": 99, "trialdata": {"rt": -1000, "trial_type": "single-audio", "word": "outlaw", "stimulus": "/static/audio/wordpool/OUTLAW.wav", "conditions": [12, 1600, "a", 12000], "internal_node_id": "0.0-72.0", "trial": 2, "time_elapsed": 497452, "serialpos": 10, "key_press": -1, "wordID": 988, "type": "PRES_AUD", "trial_index": 99}, "uniqueid": "MTK2183:3137ONMDKHC0IYBRV7NM2C9P7ZRGEH", "dateTime": 1516822689321}, {"current_trial": 100, "trialdata": {"rt": -1000, "trial_type": "single-audio", "word": "truck", "stimulus": "/static/audio/wordpool/TRUCK.wav", "conditions": [12, 1600, "a", 12000], "internal_node_id": "0.0-73.0", "trial": 2, "time_elapsed": 499910, "serialpos": 11, "key_press": -1, "wordID": 1511, "type": "PRES_AUD", "trial_index": 100}, "uniqueid": "MTK2183:3137ONMDKHC0IYBRV7NM2C9P7ZRGEH", "dateTime": 1516822691779}, {"current_trial": 101, "trialdata": {"rt": -1, "trial_type": "single-stim", "stimulus": "", "internal_node_id": "0.0-74.0-0.0", "time_elapsed": 501164, "key_press": -1, "type": "PRE_RECALL_DELAY", "trial_index": 101}, "uniqueid": "MTK2183:3137ONMDKHC0IYBRV7NM2C9P7ZRGEH", "dateTime": 1516822693033}, {"current_trial": 102, "trialdata": {"rt": -1000, "trial_type": "single-audio", "stimulus": "/static/audio/400Hz.wav", "internal_node_id": "0.0-75.0", "time_elapsed": 501665, "key_press": -1, "type": "PRE_RECALL_ALERT", "trial_index": 102}, "uniqueid": "MTK2183:3137ONMDKHC0IYBRV7NM2C9P7ZRGEH", "dateTime": 1516822693534}, {"current_trial": 103, "trialdata": {"rt": [3251, 4634, 7170, 8787, 11331, 13442, 15561], "recwords": ["truck", "outlaw", "tweezers", "sunrise", "sunset", "pliers", "mailbox"], "key_times": [329, 362, 570, 611, 1122, 2072, 2514, 2634, 2946, 3251, 3474, 3651, 3747, 3916, 4034, 4490, 4634, 5018, 5338, 5466, 5644, 6218, 6490, 6570, 6874, 7170, 7402, 7498, 7714, 7890, 8026, 8218, 8386, 8787, 9138, 9242, 9466, 9746, 10058, 10162, 11331, 11730, 11874, 12130, 12314, 12403, 12538, 13442, 14106, 14242, 14353, 14555, 14745, 14866, 15178, 15561], "trial_type": "free-recall", "conditions": [12, 1600, "a", 12000], "internal_node_id": "0.0-76.0-0.0", "key_presses": [84, 82, 67, 85, 8, 8, 85, 67, 75, 13, 79, 85, 84, 76, 65, 87, 13, 84, 87, 69, 69, 90, 69, 82, 83, 13, 83, 85, 78, 82, 73, 83, 69, 13, 83, 85, 78, 83, 69, 84, 13, 80, 76, 73, 69, 82, 83, 13, 77, 65, 73, 76, 66, 79, 88, 13], "trial": 2, "time_elapsed": 561668, "type": "FREE_RECALL", "trial_index": 103}, "uniqueid": "MTK2183:3137ONMDKHC0IYBRV7NM2C9P7ZRGEH", "dateTime": 1516822753540}, {"current_trial": 104, "trialdata": {"rt": 12917, "trial_type": "text", "internal_node_id": "0.0-77.0", "time_elapsed": 576590, "key_press": 32, "type": "INSTRUCTIONS", "trial_index": 104}, "uniqueid": "MTK2183:3137ONMDKHC0IYBRV7NM2C9P7ZRGEH", "dateTime": 1516822768459}, {"current_trial": 105, "trialdata": {"rt": [1908, 4404, 6436, 10451, 12787, 14283, 18796, 22156], "trial_type": "math-distractor", "key_times": [1540, 1644, 1908, 4180, 4404, 5940, 6292, 6436, 9845, 10227, 10451, 12395, 12596, 12787, 13835, 14139, 14283, 18180, 18428, 18796, 21604, 21844, 22156, 23779], "responses": ["10", "9", "17", "19", "10", "15", "16", "16"], "num2": [6, 1, 1, 8, 1, 8, 1, 5, 1], "num3": [2, 6, 7, 5, 5, 5, 8, 8, 2], "conditions": [12, 1600, "a", 24000], "internal_node_id": "0.0-78.0", "key_presses": [49, 48, 13, 57, 13, 49, 55, 13, 49, 57, 13, 49, 48, 13, 49, 53, 13, 49, 54, 13, 49, 54, 13, 55], "trial": 3, "time_elapsed": 602592, "type": "DISTRACTOR", "trial_index": 105, "num1": [2, 2, 9, 6, 4, 2, 7, 3, 4]}, "uniqueid": "MTK2183:3137ONMDKHC0IYBRV7NM2C9P7ZRGEH", "dateTime": 1516822794461}, {"current_trial": 106, "trialdata": {"rt": -1, "trial_type": "single-stim", "stimulus": "<p id=\"stim\">10</p>", "internal_node_id": "0.0-79.0-0.0", "time_elapsed": 605594, "key_press": -1, "trial_index": 106}, "uniqueid": "MTK2183:3137ONMDKHC0IYBRV7NM2C9P7ZRGEH", "dateTime": 1516822797464}, {"current_trial": 107, "trialdata": {"rt": -1, "trial_type": "single-stim", "stimulus": "<p id=\"stim\">9</p>", "internal_node_id": "0.0-79.0-1.0", "time_elapsed": 606596, "key_press": -1, "trial_index": 107}, "uniqueid": "MTK2183:3137ONMDKHC0IYBRV7NM2C9P7ZRGEH", "dateTime": 1516822798465}, {"current_trial": 108, "trialdata": {"rt": -1, "trial_type": "single-stim", "stimulus": "<p id=\"stim\">8</p>", "internal_node_id": "0.0-79.0-2.0", "time_elapsed": 607597, "key_press": -1, "trial_index": 108}, "uniqueid": "MTK2183:3137ONMDKHC0IYBRV7NM2C9P7ZRGEH", "dateTime": 1516822799466}, {"current_trial": 109, "trialdata": {"rt": -1, "trial_type": "single-stim", "stimulus": "<p id=\"stim\">7</p>", "internal_node_id": "0.0-79.0-3.0", "time_elapsed": 608599, "key_press": -1, "trial_index": 109}, "uniqueid": "MTK2183:3137ONMDKHC0IYBRV7NM2C9P7ZRGEH", "dateTime": 1516822800468}, {"current_trial": 110, "trialdata": {"rt": -1, "trial_type": "single-stim", "stimulus": "<p id=\"stim\">6</p>", "internal_node_id": "0.0-79.0-4.0", "time_elapsed": 609600, "key_press": -1, "trial_index": 110}, "uniqueid": "MTK2183:3137ONMDKHC0IYBRV7NM2C9P7ZRGEH", "dateTime": 1516822801469}, {"current_trial": 111, "trialdata": {"rt": -1, "trial_type": "single-stim", "stimulus": "<p id=\"stim\">5</p>", "internal_node_id": "0.0-79.0-5.0", "time_elapsed": 610601, "key_press": -1, "trial_index": 111}, "uniqueid": "MTK2183:3137ONMDKHC0IYBRV7NM2C9P7ZRGEH", "dateTime": 1516822802470}, {"current_trial": 112, "trialdata": {"rt": -1, "trial_type": "single-stim", "stimulus": "<p id=\"stim\">4</p>", "internal_node_id": "0.0-79.0-6.0", "time_elapsed": 611603, "key_press": -1, "trial_index": 112}, "uniqueid": "MTK2183:3137ONMDKHC0IYBRV7NM2C9P7ZRGEH", "dateTime": 1516822803472}, {"current_trial": 113, "trialdata": {"rt": -1, "trial_type": "single-stim", "stimulus": "<p id=\"stim\">3</p>", "internal_node_id": "0.0-79.0-7.0", "time_elapsed": 612604, "key_press": -1, "trial_index": 113}, "uniqueid": "MTK2183:3137ONMDKHC0IYBRV7NM2C9P7ZRGEH", "dateTime": 1516822804473}, {"current_trial": 114, "trialdata": {"rt": -1, "trial_type": "single-stim", "stimulus": "<p id=\"stim\">2</p>", "internal_node_id": "0.0-79.0-8.0", "time_elapsed": 613605, "key_press": -1, "trial_index": 114}, "uniqueid": "MTK2183:3137ONMDKHC0IYBRV7NM2C9P7ZRGEH", "dateTime": 1516822805474}, {"current_trial": 115, "trialdata": {"rt": -1, "trial_type": "single-stim", "stimulus": "<p id=\"stim\">1</p>", "internal_node_id": "0.0-79.0-9.0", "time_elapsed": 614607, "key_press": -1, "trial_index": 115}, "uniqueid": "MTK2183:3137ONMDKHC0IYBRV7NM2C9P7ZRGEH", "dateTime": 1516822806476}, {"current_trial": 116, "trialdata": {"rt": -1, "trial_type": "single-stim", "stimulus": "<p id=\"stim\">+</p>", "internal_node_id": "0.0-80.0-0.0", "time_elapsed": 616108, "key_press": -1, "type": "FIXATION", "trial_index": 116}, "uniqueid": "MTK2183:3137ONMDKHC0IYBRV7NM2C9P7ZRGEH", "dateTime": 1516822807977}, {"current_trial": 117, "trialdata": {"rt": -1000, "trial_type": "single-audio", "word": "blender", "stimulus": "/static/audio/wordpool/BLENDER.wav", "conditions": [12, 1600, "a", 24000], "internal_node_id": "0.0-81.0", "trial": 3, "time_elapsed": 618577, "serialpos": 0, "key_press": -1, "wordID": 135, "type": "PRES_AUD", "trial_index": 117}, "uniqueid": "MTK2183:3137ONMDKHC0IYBRV7NM2C9P7ZRGEH", "dateTime": 1516822810446}, {"current_trial": 118, "trialdata": {"rt": -1000, "trial_type": "single-audio", "word": "lily", "stimulus": "/static/audio/wordpool/LILY.wav", "conditions": [12, 1600, "a", 24000], "internal_node_id": "0.0-82.0", "trial": 3, "time_elapsed": 621066, "serialpos": 1, "key_press": -1, "wordID": 820, "type": "PRES_AUD", "trial_index": 118}, "uniqueid": "MTK2183:3137ONMDKHC0IYBRV7NM2C9P7ZRGEH", "dateTime": 1516822812935}, {"current_trial": 119, "trialdata": {"rt": -1000, "trial_type": "single-audio", "word": "table", "stimulus": "/static/audio/wordpool/TABLE.wav", "conditions": [12, 1600, "a", 24000], "internal_node_id": "0.0-83.0", "trial": 3, "time_elapsed": 623484, "serialpos": 2, "key_press": -1, "wordID": 1425, "type": "PRES_AUD", "trial_index": 119}, "uniqueid": "MTK2183:3137ONMDKHC0IYBRV7NM2C9P7ZRGEH", "dateTime": 1516822815353}, {"current_trial": 120, "trialdata": {"rt": -1000, "trial_type": "single-audio", "word": "apron", "stimulus": "/static/audio/wordpool/APRON.wav", "conditions": [12, 1600, "a", 24000], "internal_node_id": "0.0-84.0", "trial": 3, "time_elapsed": 626067, "serialpos": 3, "key_press": -1, "wordID": 34, "type": "PRES_AUD", "trial_index": 120}, "uniqueid": "MTK2183:3137ONMDKHC0IYBRV7NM2C9P7ZRGEH", "dateTime": 1516822817936}, {"current_trial": 121, "trialdata": {"rt": -1000, "trial_type": "single-audio", "word": "swamp", "stimulus": "/static/audio/wordpool/SWAMP.wav", "conditions": [12, 1600, "a", 24000], "internal_node_id": "0.0-85.0", "trial": 3, "time_elapsed": 628730, "serialpos": 4, "key_press": -1, "wordID": 1415, "type": "PRES_AUD", "trial_index": 121}, "uniqueid": "MTK2183:3137ONMDKHC0IYBRV7NM2C9P7ZRGEH", "dateTime": 1516822820599}, {"current_trial": 122, "trialdata": {"rt": -1000, "trial_type": "single-audio", "word": "nightgown", "stimulus": "/static/audio/wordpool/NIGHTGOWN.wav", "conditions": [12, 1600, "a", 24000], "internal_node_id": "0.0-86.0", "trial": 3, "time_elapsed": 631336, "serialpos": 5, "key_press": -1, "wordID": 952, "type": "PRES_AUD", "trial_index": 122}, "uniqueid": "MTK2183:3137ONMDKHC0IYBRV7NM2C9P7ZRGEH", "dateTime": 1516822823205}, {"current_trial": 123, "trialdata": {"rt": -1000, "trial_type": "single-audio", "word": "arm", "stimulus": "/static/audio/wordpool/ARM.wav", "conditions": [12, 1600, "a", 24000], "internal_node_id": "0.0-87.0", "trial": 3, "time_elapsed": 633990, "serialpos": 6, "key_press": -1, "wordID": 37, "type": "PRES_AUD", "trial_index": 123}, "uniqueid": "MTK2183:3137ONMDKHC0IYBRV7NM2C9P7ZRGEH", "dateTime": 1516822825859}, {"current_trial": 124, "trialdata": {"rt": -1000, "trial_type": "single-audio", "word": "dime", "stimulus": "/static/audio/wordpool/DIME.wav", "conditions": [12, 1600, "a", 24000], "internal_node_id": "0.0-88.0", "trial": 3, "time_elapsed": 636600, "serialpos": 7, "key_press": -1, "wordID": 465, "type": "PRES_AUD", "trial_index": 124}, "uniqueid": "MTK2183:3137ONMDKHC0IYBRV7NM2C9P7ZRGEH", "dateTime": 1516822828470}, {"current_trial": 125, "trialdata": {"rt": -1000, "trial_type": "single-audio", "word": "panther", "stimulus": "/static/audio/wordpool/PANTHER.wav", "conditions": [12, 1600, "a", 24000], "internal_node_id": "0.0-89.0", "trial": 3, "time_elapsed": 639250, "serialpos": 8, "key_press": -1, "wordID": 1008, "type": "PRES_AUD", "trial_index": 125}, "uniqueid": "MTK2183:3137ONMDKHC0IYBRV7NM2C9P7ZRGEH", "dateTime": 1516822831120}, {"current_trial": 126, "trialdata": {"rt": -1000, "trial_type": "single-audio", "word": "leg", "stimulus": "/static/audio/wordpool/LEG.wav", "conditions": [12, 1600, "a", 24000], "internal_node_id": "0.0-90.0", "trial": 3, "time_elapsed": 641825, "serialpos": 9, "key_press": -1, "wordID": 808, "type": "PRES_AUD", "trial_index": 126}, "uniqueid": "MTK2183:3137ONMDKHC0IYBRV7NM2C9P7ZRGEH", "dateTime": 1516822833694}, {"current_trial": 127, "trialdata": {"rt": -1000, "trial_type": "single-audio", "word": "salmon", "stimulus": "/static/audio/wordpool/SALMON.wav", "conditions": [12, 1600, "a", 24000], "internal_node_id": "0.0-91.0", "trial": 3, "time_elapsed": 644439, "serialpos": 10, "key_press": -1, "wordID": 1226, "type": "PRES_AUD", "trial_index": 127}, "uniqueid": "MTK2183:3137ONMDKHC0IYBRV7NM2C9P7ZRGEH", "dateTime": 1516822836308}, {"current_trial": 128, "trialdata": {"rt": -1000, "trial_type": "single-audio", "word": "trout", "stimulus": "/static/audio/wordpool/TROUT.wav", "conditions": [12, 1600, "a", 24000], "internal_node_id": "0.0-92.0", "trial": 3, "time_elapsed": 647090, "serialpos": 11, "key_press": -1, "wordID": 1510, "type": "PRES_AUD", "trial_index": 128}, "uniqueid": "MTK2183:3137ONMDKHC0IYBRV7NM2C9P7ZRGEH", "dateTime": 1516822838959}, {"current_trial": 129, "trialdata": {"rt": -1, "trial_type": "single-stim", "stimulus": "", "internal_node_id": "0.0-93.0-0.0", "time_elapsed": 648305, "key_press": -1, "type": "PRE_RECALL_DELAY", "trial_index": 129}, "uniqueid": "MTK2183:3137ONMDKHC0IYBRV7NM2C9P7ZRGEH", "dateTime": 1516822840174}, {"current_trial": 130, "trialdata": {"rt": -1000, "trial_type": "single-audio", "stimulus": "/static/audio/400Hz.wav", "internal_node_id": "0.0-94.0", "time_elapsed": 648806, "key_press": -1, "type": "PRE_RECALL_ALERT", "trial_index": 130}, "uniqueid": "MTK2183:3137ONMDKHC0IYBRV7NM2C9P7ZRGEH", "dateTime": 1516822840675}, {"current_trial": 131, "trialdata": {"rt": [2035, 3731, 5427, 7475, 15498, 21283, 34727, 50035], "recwords": ["salmon", "trout", "leg", "blender", "arm", "dime", "panther", "table"], "key_times": [789, 859, 940, 1123, 1315, 1493, 2035, 2388, 2443, 2548, 2675, 2843, 3428, 3540, 3731, 4094, 4316, 4443, 5427, 6155, 6268, 6363, 6502, 6587, 6771, 6859, 7475, 13981, 14107, 14626, 15498, 20603, 20707, 20922, 21018, 21283, 33272, 33407, 33551, 33823, 33999, 34215, 34311, 34727, 49195, 49275, 49482, 49602, 49722, 50035], "trial_type": "free-recall", "conditions": [12, 1600, "a", 24000], "internal_node_id": "0.0-95.0-0.0", "key_presses": [83, 65, 76, 77, 79, 78, 13, 84, 82, 79, 85, 89, 8, 84, 13, 76, 69, 71, 13, 66, 76, 69, 78, 68, 69, 82, 13, 65, 82, 77, 13, 68, 73, 77, 69, 13, 80, 65, 78, 84, 72, 69, 82, 13, 84, 65, 66, 76, 69, 13], "trial": 3, "time_elapsed": 708808, "type": "FREE_RECALL", "trial_index": 131}, "uniqueid": "MTK2183:3137ONMDKHC0IYBRV7NM2C9P7ZRGEH", "dateTime": 1516822900680}, {"current_trial": 132, "trialdata": {"rt": 4622, "trial_type": "text", "internal_node_id": "0.0-96.0", "time_elapsed": 715435, "key_press": 13, "type": "INSTRUCTIONS", "trial_index": 132}, "uniqueid": "MTK2183:3137ONMDKHC0IYBRV7NM2C9P7ZRGEH", "dateTime": 1516822907304}, {"current_trial": 133, "trialdata": {"rt": [3203, 4691, 7090, 8858, 10458, 13346, 15210, 17218, 19281, 21362, 23586], "trial_type": "math-distractor", "key_times": [2843, 3011, 3203, 4290, 4514, 4691, 6843, 6938, 7090, 8451, 8666, 8858, 10010, 10338, 10458, 12954, 13130, 13346, 14778, 15026, 15210, 16818, 17034, 17218, 18779, 19066, 19281, 20706, 21114, 21362, 22978, 23586], "responses": ["10", "13", "14", "16", "18", "11", "14", "11", "17", "10", "8"], "num2": [3, 4, 2, 4, 8, 3, 6, 1, 7, 4, 1, 3], "num3": [4, 3, 8, 4, 1, 3, 6, 6, 6, 5, 1, 3], "conditions": [24, 1600, "a", 24000], "internal_node_id": "0.0-97.0", "key_presses": [49, 48, 13, 49, 51, 13, 49, 52, 13, 49, 54, 13, 49, 56, 13, 49, 49, 13, 49, 52, 13, 49, 49, 13, 49, 55, 13, 49, 48, 13, 56, 13], "trial": 4, "time_elapsed": 741439, "type": "DISTRACTOR", "trial_index": 133, "num1": [3, 6, 4, 8, 9, 5, 2, 4, 4, 1, 6, 7]}, "uniqueid": "MTK2183:3137ONMDKHC0IYBRV7NM2C9P7ZRGEH", "dateTime": 1516822933308}, {"current_trial": 134, "trialdata": {"rt": -1, "trial_type": "single-stim", "stimulus": "<p id=\"stim\">10</p>", "internal_node_id": "0.0-98.0-0.0", "time_elapsed": 744441, "key_press": -1, "trial_index": 134}, "uniqueid": "MTK2183:3137ONMDKHC0IYBRV7NM2C9P7ZRGEH", "dateTime": 1516822936310}, {"current_trial": 135, "trialdata": {"rt": -1, "trial_type": "single-stim", "stimulus": "<p id=\"stim\">9</p>", "internal_node_id": "0.0-98.0-1.0", "time_elapsed": 745442, "key_press": -1, "trial_index": 135}, "uniqueid": "MTK2183:3137ONMDKHC0IYBRV7NM2C9P7ZRGEH", "dateTime": 1516822937312}, {"current_trial": 136, "trialdata": {"rt": -1, "trial_type": "single-stim", "stimulus": "<p id=\"stim\">8</p>", "internal_node_id": "0.0-98.0-2.0", "time_elapsed": 746444, "key_press": -1, "trial_index": 136}, "uniqueid": "MTK2183:3137ONMDKHC0IYBRV7NM2C9P7ZRGEH", "dateTime": 1516822938313}, {"current_trial": 137, "trialdata": {"rt": -1, "trial_type": "single-stim", "stimulus": "<p id=\"stim\">7</p>", "internal_node_id": "0.0-98.0-3.0", "time_elapsed": 747446, "key_press": -1, "trial_index": 137}, "uniqueid": "MTK2183:3137ONMDKHC0IYBRV7NM2C9P7ZRGEH", "dateTime": 1516822939315}, {"current_trial": 138, "trialdata": {"rt": -1, "trial_type": "single-stim", "stimulus": "<p id=\"stim\">6</p>", "internal_node_id": "0.0-98.0-4.0", "time_elapsed": 748447, "key_press": -1, "trial_index": 138}, "uniqueid": "MTK2183:3137ONMDKHC0IYBRV7NM2C9P7ZRGEH", "dateTime": 1516822940316}, {"current_trial": 139, "trialdata": {"rt": -1, "trial_type": "single-stim", "stimulus": "<p id=\"stim\">5</p>", "internal_node_id": "0.0-98.0-5.0", "time_elapsed": 749448, "key_press": -1, "trial_index": 139}, "uniqueid": "MTK2183:3137ONMDKHC0IYBRV7NM2C9P7ZRGEH", "dateTime": 1516822941318}, {"current_trial": 140, "trialdata": {"rt": -1, "trial_type": "single-stim", "stimulus": "<p id=\"stim\">4</p>", "internal_node_id": "0.0-98.0-6.0", "time_elapsed": 750450, "key_press": -1, "trial_index": 140}, "uniqueid": "MTK2183:3137ONMDKHC0IYBRV7NM2C9P7ZRGEH", "dateTime": 1516822942319}, {"current_trial": 141, "trialdata": {"rt": -1, "trial_type": "single-stim", "stimulus": "<p id=\"stim\">3</p>", "internal_node_id": "0.0-98.0-7.0", "time_elapsed": 751451, "key_press": -1, "trial_index": 141}, "uniqueid": "MTK2183:3137ONMDKHC0IYBRV7NM2C9P7ZRGEH", "dateTime": 1516822943320}, {"current_trial": 142, "trialdata": {"rt": -1, "trial_type": "single-stim", "stimulus": "<p id=\"stim\">2</p>", "internal_node_id": "0.0-98.0-8.0", "time_elapsed": 752453, "key_press": -1, "trial_index": 142}, "uniqueid": "MTK2183:3137ONMDKHC0IYBRV7NM2C9P7ZRGEH", "dateTime": 1516822944322}, {"current_trial": 143, "trialdata": {"rt": -1, "trial_type": "single-stim", "stimulus": "<p id=\"stim\">1</p>", "internal_node_id": "0.0-98.0-9.0", "time_elapsed": 753454, "key_press": -1, "trial_index": 143}, "uniqueid": "MTK2183:3137ONMDKHC0IYBRV7NM2C9P7ZRGEH", "dateTime": 1516822945324}, {"current_trial": 144, "trialdata": {"rt": -1, "trial_type": "single-stim", "stimulus": "<p id=\"stim\">+</p>", "internal_node_id": "0.0-99.0-0.0", "time_elapsed": 754956, "key_press": -1, "type": "FIXATION", "trial_index": 144}, "uniqueid": "MTK2183:3137ONMDKHC0IYBRV7NM2C9P7ZRGEH", "dateTime": 1516822946825}, {"current_trial": 145, "trialdata": {"rt": -1000, "trial_type": "single-audio", "word": "robin", "stimulus": "/static/audio/wordpool/ROBIN.wav", "conditions": [24, 1600, "a", 24000], "internal_node_id": "0.0-100.0", "trial": 4, "time_elapsed": 757445, "serialpos": 0, "key_press": -1, "wordID": 1198, "type": "PRES_AUD", "trial_index": 145}, "uniqueid": "MTK2183:3137ONMDKHC0IYBRV7NM2C9P7ZRGEH", "dateTime": 1516822949314}, {"current_trial": 146, "trialdata": {"rt": -1000, "trial_type": "single-audio", "word": "grape", "stimulus": "/static/audio/wordpool/GRAPE.wav", "conditions": [24, 1600, "a", 24000], "internal_node_id": "0.0-101.0", "trial": 4, "time_elapsed": 760166, "serialpos": 1, "key_press": -1, "wordID": 653, "type": "PRES_AUD", "trial_index": 146}, "uniqueid": "MTK2183:3137ONMDKHC0IYBRV7NM2C9P7ZRGEH", "dateTime": 1516822952035}, {"current_trial": 147, "trialdata": {"rt": -1000, "trial_type": "single-audio", "word": "xerox", "stimulus": "/static/audio/wordpool/XEROX.wav", "conditions": [24, 1600, "a", 24000], "internal_node_id": "0.0-102.0", "trial": 4, "time_elapsed": 762871, "serialpos": 2, "key_press": -1, "wordID": 1627, "type": "PRES_AUD", "trial_index": 147}, "uniqueid": "MTK2183:3137ONMDKHC0IYBRV7NM2C9P7ZRGEH", "dateTime": 1516822954740}, {"current_trial": 148, "trialdata": {"rt": -1000, "trial_type": "single-audio", "word": "boyfriend", "stimulus": "/static/audio/wordpool/BOYFRIEND.wav", "conditions": [24, 1600, "a", 24000], "internal_node_id": "0.0-103.0", "trial": 4, "time_elapsed": 765361, "serialpos": 3, "key_press": -1, "wordID": 161, "type": "PRES_AUD", "trial_index": 148}, "uniqueid": "MTK2183:3137ONMDKHC0IYBRV7NM2C9P7ZRGEH", "dateTime": 1516822957230}, {"current_trial": 149, "trialdata": {"rt": -1000, "trial_type": "single-audio", "word": "cousin", "stimulus": "/static/audio/wordpool/COUSIN.wav", "conditions": [24, 1600, "a", 24000], "internal_node_id": "0.0-104.0", "trial": 4, "time_elapsed": 768129, "serialpos": 4, "key_press": -1, "wordID": 391, "type": "PRES_AUD", "trial_index": 149}, "uniqueid": "MTK2183:3137ONMDKHC0IYBRV7NM2C9P7ZRGEH", "dateTime": 1516822959998}, {"current_trial": 150, "trialdata": {"rt": -1000, "trial_type": "single-audio", "word": "woman", "stimulus": "/static/audio/wordpool/WOMAN.wav", "conditions": [24, 1600, "a", 24000], "internal_node_id": "0.0-105.0", "trial": 4, "time_elapsed": 770870, "serialpos": 5, "key_press": -1, "wordID": 1619, "type": "PRES_AUD", "trial_index": 150}, "uniqueid": "MTK2183:3137ONMDKHC0IYBRV7NM2C9P7ZRGEH", "dateTime": 1516822962739}, {"current_trial": 151, "trialdata": {"rt": -1000, "trial_type": "single-audio", "word": "flower", "stimulus": "/static/audio/wordpool/FLOWER.wav", "conditions": [24, 1600, "a", 24000], "internal_node_id": "0.0-106.0", "trial": 4, "time_elapsed": 773301, "serialpos": 6, "key_press": -1, "wordID": 583, "type": "PRES_AUD", "trial_index": 151}, "uniqueid": "MTK2183:3137ONMDKHC0IYBRV7NM2C9P7ZRGEH", "dateTime": 1516822965170}, {"current_trial": 152, "trialdata": {"rt": -1000, "trial_type": "single-audio", "word": "washer", "stimulus": "/static/audio/wordpool/WASHER.wav", "conditions": [24, 1600, "a", 24000], "internal_node_id": "0.0-107.0", "trial": 4, "time_elapsed": 775995, "serialpos": 7, "key_press": -1, "wordID": 1591, "type": "PRES_AUD", "trial_index": 152}, "uniqueid": "MTK2183:3137ONMDKHC0IYBRV7NM2C9P7ZRGEH", "dateTime": 1516822967864}, {"current_trial": 153, "trialdata": {"rt": -1000, "trial_type": "single-audio", "word": "drug", "stimulus": "/static/audio/wordpool/DRUG.wav", "conditions": [24, 1600, "a", 24000], "internal_node_id": "0.0-108.0", "trial": 4, "time_elapsed": 778442, "serialpos": 8, "key_press": -1, "wordID": 500, "type": "PRES_AUD", "trial_index": 153}, "uniqueid": "MTK2183:3137ONMDKHC0IYBRV7NM2C9P7ZRGEH", "dateTime": 1516822970311}, {"current_trial": 154, "trialdata": {"rt": -1000, "trial_type": "single-audio", "word": "world", "stimulus": "/static/audio/wordpool/WORLD.wav", "conditions": [24, 1600, "a", 24000], "internal_node_id": "0.0-109.0", "trial": 4, "time_elapsed": 780940, "serialpos": 9, "key_press": -1, "wordID": 1621, "type": "PRES_AUD", "trial_index": 154}, "uniqueid": "MTK2183:3137ONMDKHC0IYBRV7NM2C9P7ZRGEH", "dateTime": 1516822972809}, {"current_trial": 155, "trialdata": {"rt": -1000, "trial_type": "single-audio", "word": "cobra", "stimulus": "/static/audio/wordpool/COBRA.wav", "conditions": [24, 1600, "a", 24000], "internal_node_id": "0.0-110.0", "trial": 4, "time_elapsed": 783731, "serialpos": 10, "key_press": -1, "wordID": 335, "type": "PRES_AUD", "trial_index": 155}, "uniqueid": "MTK2183:3137ONMDKHC0IYBRV7NM2C9P7ZRGEH", "dateTime": 1516822975600}, {"current_trial": 156, "trialdata": {"rt": -1000, "trial_type": "single-audio", "word": "lady", "stimulus": "/static/audio/wordpool/LADY.wav", "conditions": [24, 1600, "a", 24000], "internal_node_id": "0.0-111.0", "trial": 4, "time_elapsed": 786163, "serialpos": 11, "key_press": -1, "wordID": 793, "type": "PRES_AUD", "trial_index": 156}, "uniqueid": "MTK2183:3137ONMDKHC0IYBRV7NM2C9P7ZRGEH", "dateTime": 1516822978032}, {"current_trial": 157, "trialdata": {"rt": -1000, "trial_type": "single-audio", "word": "island", "stimulus": "/static/audio/wordpool/ISLAND.wav", "conditions": [24, 1600, "a", 24000], "internal_node_id": "0.0-112.0", "trial": 4, "time_elapsed": 788940, "serialpos": 12, "key_press": -1, "wordID": 744, "type": "PRES_AUD", "trial_index": 157}, "uniqueid": "MTK2183:3137ONMDKHC0IYBRV7NM2C9P7ZRGEH", "dateTime": 1516822980809}, {"current_trial": 158, "trialdata": {"rt": -1000, "trial_type": "single-audio", "word": "hamper", "stimulus": "/static/audio/wordpool/HAMPER.wav", "conditions": [24, 1600, "a", 24000], "internal_node_id": "0.0-113.0", "trial": 4, "time_elapsed": 791389, "serialpos": 13, "key_press": -1, "wordID": 681, "type": "PRES_AUD", "trial_index": 158}, "uniqueid": "MTK2183:3137ONMDKHC0IYBRV7NM2C9P7ZRGEH", "dateTime": 1516822983258}, {"current_trial": 159, "trialdata": {"rt": -1000, "trial_type": "single-audio", "word": "donkey", "stimulus": "/static/audio/wordpool/DONKEY.wav", "conditions": [24, 1600, "a", 24000], "internal_node_id": "0.0-114.0", "trial": 4, "time_elapsed": 793932, "serialpos": 14, "key_press": -1, "wordID": 483, "type": "PRES_AUD", "trial_index": 159}, "uniqueid": "MTK2183:3137ONMDKHC0IYBRV7NM2C9P7ZRGEH", "dateTime": 1516822985801}, {"current_trial": 160, "trialdata": {"rt": -1000, "trial_type": "single-audio", "word": "camel", "stimulus": "/static/audio/wordpool/CAMEL.wav", "conditions": [24, 1600, "a", 24000], "internal_node_id": "0.0-115.0", "trial": 4, "time_elapsed": 796410, "serialpos": 15, "key_press": -1, "wordID": 222, "type": "PRES_AUD", "trial_index": 160}, "uniqueid": "MTK2183:3137ONMDKHC0IYBRV7NM2C9P7ZRGEH", "dateTime": 1516822988279}, {"current_trial": 161, "trialdata": {"rt": -1000, "trial_type": "single-audio", "word": "muffin", "stimulus": "/static/audio/wordpool/MUFFIN.wav", "conditions": [24, 1600, "a", 24000], "internal_node_id": "0.0-116.0", "trial": 4, "time_elapsed": 798906, "serialpos": 16, "key_press": -1, "wordID": 928, "type": "PRES_AUD", "trial_index": 161}, "uniqueid": "MTK2183:3137ONMDKHC0IYBRV7NM2C9P7ZRGEH", "dateTime": 1516822990775}, {"current_trial": 162, "trialdata": {"rt": -1000, "trial_type": "single-audio", "word": "branch", "stimulus": "/static/audio/wordpool/BRANCH.wav", "conditions": [24, 1600, "a", 24000], "internal_node_id": "0.0-117.0", "trial": 4, "time_elapsed": 801699, "serialpos": 17, "key_press": -1, "wordID": 167, "type": "PRES_AUD", "trial_index": 162}, "uniqueid": "MTK2183:3137ONMDKHC0IYBRV7NM2C9P7ZRGEH", "dateTime": 1516822993568}, {"current_trial": 163, "trialdata": {"rt": -1000, "trial_type": "single-audio", "word": "airport", "stimulus": "/static/audio/wordpool/AIRPORT.wav", "conditions": [24, 1600, "a", 24000], "internal_node_id": "0.0-118.0", "trial": 4, "time_elapsed": 804290, "serialpos": 18, "key_press": -1, "wordID": 12, "type": "PRES_AUD", "trial_index": 163}, "uniqueid": "MTK2183:3137ONMDKHC0IYBRV7NM2C9P7ZRGEH", "dateTime": 1516822996159}, {"current_trial": 164, "trialdata": {"rt": -1000, "trial_type": "single-audio", "word": "sandwich", "stimulus": "/static/audio/wordpool/SANDWICH.wav", "conditions": [24, 1600, "a", 24000], "internal_node_id": "0.0-119.0", "trial": 4, "time_elapsed": 806883, "serialpos": 19, "key_press": -1, "wordID": 1231, "type": "PRES_AUD", "trial_index": 164}, "uniqueid": "MTK2183:3137ONMDKHC0IYBRV7NM2C9P7ZRGEH", "dateTime": 1516822998752}, {"current_trial": 165, "trialdata": {"rt": -1000, "trial_type": "single-audio", "word": "robot", "stimulus": "/static/audio/wordpool/ROBOT.wav", "conditions": [24, 1600, "a", 24000], "internal_node_id": "0.0-120.0", "trial": 4, "time_elapsed": 809503, "serialpos": 20, "key_press": -1, "wordID": 1199, "type": "PRES_AUD", "trial_index": 165}, "uniqueid": "MTK2183:3137ONMDKHC0IYBRV7NM2C9P7ZRGEH", "dateTime": 1516823001372}, {"current_trial": 166, "trialdata": {"rt": -1000, "trial_type": "single-audio", "word": "queen", "stimulus": "/static/audio/wordpool/QUEEN.wav", "conditions": [24, 1600, "a", 24000], "internal_node_id": "0.0-121.0", "trial": 4, "time_elapsed": 812179, "serialpos": 21, "key_press": -1, "wordID": 1148, "type": "PRES_AUD", "trial_index": 166}, "uniqueid": "MTK2183:3137ONMDKHC0IYBRV7NM2C9P7ZRGEH", "dateTime": 1516823004048}, {"current_trial": 167, "trialdata": {"rt": -1000, "trial_type": "single-audio", "word": "hook", "stimulus": "/static/audio/wordpool/HOOK.wav", "conditions": [24, 1600, "a", 24000], "internal_node_id": "0.0-122.0", "trial": 4, "time_elapsed": 814890, "serialpos": 22, "key_press": -1, "wordID": 714, "type": "PRES_AUD", "trial_index": 167}, "uniqueid": "MTK2183:3137ONMDKHC0IYBRV7NM2C9P7ZRGEH", "dateTime": 1516823006759}, {"current_trial": 168, "trialdata": {"rt": -1000, "trial_type": "single-audio", "word": "playground", "stimulus": "/static/audio/wordpool/PLAYGROUND.wav", "conditions": [24, 1600, "a", 24000], "internal_node_id": "0.0-123.0", "trial": 4, "time_elapsed": 817628, "serialpos": 23, "key_press": -1, "wordID": 1086, "type": "PRES_AUD", "trial_index": 168}, "uniqueid": "MTK2183:3137ONMDKHC0IYBRV7NM2C9P7ZRGEH", "dateTime": 1516823009497}, {"current_trial": 169, "trialdata": {"rt": -1, "trial_type": "single-stim", "stimulus": "", "internal_node_id": "0.0-124.0-0.0", "time_elapsed": 819009, "key_press": -1, "type": "PRE_RECALL_DELAY", "trial_index": 169}, "uniqueid": "MTK2183:3137ONMDKHC0IYBRV7NM2C9P7ZRGEH", "dateTime": 1516823010878}, {"current_trial": 170, "trialdata": {"rt": -1000, "trial_type": "single-audio", "stimulus": "/static/audio/400Hz.wav", "internal_node_id": "0.0-125.0", "time_elapsed": 819510, "key_press": -1, "type": "PRE_RECALL_ALERT", "trial_index": 170}, "uniqueid": "MTK2183:3137ONMDKHC0IYBRV7NM2C9P7ZRGEH", "dateTime": 1516823011379}, {"current_trial": 171, "trialdata": {"rt": [4342, 5718, 7774, 9079, 10757, 14949, 16670, 18870, 23438, 30174, 32670, 36995, 44350], "recwords": ["playground", "airport", "sandwich", "queen", "robot", "cousin", "woman", "boyfriend", "island", "wor", "world", "donkey", "sister"], "key_times": [800, 902, 1214, 1486, 1670, 1854, 1863, 2422, 2598, 2690, 2774, 2974, 3166, 3326, 3950, 4127, 4342, 4574, 4758, 4886, 5038, 5286, 5414, 5502, 5718, 6094, 6166, 6238, 6375, 6534, 6694, 7022, 7302, 7774, 8230, 8350, 8510, 8670, 8799, 9079, 9526, 9702, 9918, 10166, 10278, 10757, 12575, 12677, 12862, 12926, 13421, 13638, 14949, 15678, 15750, 15965, 16061, 16189, 16670, 17198, 17326, 17461, 17846, 17982, 18093, 18181, 18342, 18389, 18870, 22574, 22743, 22878, 22958, 23101, 23142, 23438, 28230, 28327, 28391, 28582, 28600, 29119, 29307, 29630, 29942, 30174, 31049, 31174, 31295, 31511, 31531, 31886, 32070, 32254, 32366, 32670, 35925, 35932, 36108, 36340, 36460, 36627, 36995, 43478, 43590, 43670, 43893, 44030, 44118, 44350], "trial_type": "free-recall", "conditions": [24, 1600, "a", 24000], "internal_node_id": "0.0-126.0-0.0", "key_presses": [80, 76, 65, 89, 71, 79, 82, 8, 8, 82, 79, 85, 78, 70, 8, 68, 13, 65, 73, 82, 80, 79, 82, 84, 13, 83, 65, 78, 68, 87, 73, 67, 72, 13, 81, 85, 69, 69, 78, 13, 82, 79, 66, 79, 84, 13, 67, 79, 85, 83, 73, 78, 13, 87, 79, 77, 65, 78, 13, 66, 79, 89, 70, 82, 73, 69, 78, 68, 13, 73, 83, 76, 65, 78, 68, 13, 87, 79, 82, 68, 76, 8, 8, 68, 8, 186, 87, 79, 82, 68, 76, 8, 8, 76, 68, 13, 68, 79, 78, 75, 69, 89, 13, 83, 73, 83, 84, 69, 82, 13], "trial": 4, "time_elapsed": 879512, "type": "FREE_RECALL", "trial_index": 171}, "uniqueid": "MTK2183:3137ONMDKHC0IYBRV7NM2C9P7ZRGEH", "dateTime": 1516823071384}, {"current_trial": 172, "trialdata": {"rt": 427, "trial_type": "text", "internal_node_id": "0.0-127.0", "time_elapsed": 881943, "key_press": 13, "type": "INSTRUCTIONS", "trial_index": 172}, "uniqueid": "MTK2183:3137ONMDKHC0IYBRV7NM2C9P7ZRGEH", "dateTime": 1516823073813}, {"current_trial": 173, "trialdata": {"rt": [1700, 3508, 5580, 7732, 11196, 13188, 15980, 18316, 20989, 22907], "trial_type": "math-distractor", "key_times": [1140, 1484, 1700, 2996, 3244, 3508, 5380, 5580, 7124, 7436, 7732, 10805, 10980, 11196, 12444, 12916, 13188, 14532, 14691, 15188, 15364, 15980, 17476, 18036, 18316, 20412, 20764, 20989, 22284, 22635, 22907], "responses": ["17", "14", "8", "15", "14", "15", "12", "13", "26", "14"], "num2": [7, 2, 2, 1, 3, 5, 3, 4, 9, 4, 5], "num3": [7, 7, 3, 8, 6, 4, 1, 8, 8, 5, 8], "conditions": [24, 800, "a", 24000], "internal_node_id": "0.0-128.0", "key_presses": [49, 55, 13, 49, 52, 13, 56, 13, 49, 53, 13, 49, 52, 13, 49, 53, 13, 49, 51, 8, 50, 13, 49, 51, 13, 50, 54, 13, 49, 52, 13], "trial": 5, "time_elapsed": 907946, "type": "DISTRACTOR", "trial_index": 173, "num1": [3, 5, 3, 6, 5, 6, 8, 1, 9, 5, 9]}, "uniqueid": "MTK2183:3137ONMDKHC0IYBRV7NM2C9P7ZRGEH", "dateTime": 1516823099815}, {"current_trial": 174, "trialdata": {"rt": -1, "trial_type": "single-stim", "stimulus": "<p id=\"stim\">10</p>", "internal_node_id": "0.0-129.0-0.0", "time_elapsed": 910947, "key_press": -1, "trial_index": 174}, "uniqueid": "MTK2183:3137ONMDKHC0IYBRV7NM2C9P7ZRGEH", "dateTime": 1516823102816}, {"current_trial": 175, "trialdata": {"rt": -1, "trial_type": "single-stim", "stimulus": "<p id=\"stim\">9</p>", "internal_node_id": "0.0-129.0-1.0", "time_elapsed": 911948, "key_press": -1, "trial_index": 175}, "uniqueid": "MTK2183:3137ONMDKHC0IYBRV7NM2C9P7ZRGEH", "dateTime": 1516823103818}, {"current_trial": 176, "trialdata": {"rt": -1, "trial_type": "single-stim", "stimulus": "<p id=\"stim\">8</p>", "internal_node_id": "0.0-129.0-2.0", "time_elapsed": 912950, "key_press": -1, "trial_index": 176}, "uniqueid": "MTK2183:3137ONMDKHC0IYBRV7NM2C9P7ZRGEH", "dateTime": 1516823104819}, {"current_trial": 177, "trialdata": {"rt": -1, "trial_type": "single-stim", "stimulus": "<p id=\"stim\">7</p>", "internal_node_id": "0.0-129.0-3.0", "time_elapsed": 913951, "key_press": -1, "trial_index": 177}, "uniqueid": "MTK2183:3137ONMDKHC0IYBRV7NM2C9P7ZRGEH", "dateTime": 1516823105820}, {"current_trial": 178, "trialdata": {"rt": -1, "trial_type": "single-stim", "stimulus": "<p id=\"stim\">6</p>", "internal_node_id": "0.0-129.0-4.0", "time_elapsed": 914966, "key_press": -1, "trial_index": 178}, "uniqueid": "MTK2183:3137ONMDKHC0IYBRV7NM2C9P7ZRGEH", "dateTime": 1516823106835}, {"current_trial": 179, "trialdata": {"rt": -1, "trial_type": "single-stim", "stimulus": "<p id=\"stim\">5</p>", "internal_node_id": "0.0-129.0-5.0", "time_elapsed": 915968, "key_press": -1, "trial_index": 179}, "uniqueid": "MTK2183:3137ONMDKHC0IYBRV7NM2C9P7ZRGEH", "dateTime": 1516823107837}, {"current_trial": 180, "trialdata": {"rt": -1, "trial_type": "single-stim", "stimulus": "<p id=\"stim\">4</p>", "internal_node_id": "0.0-129.0-6.0", "time_elapsed": 916969, "key_press": -1, "trial_index": 180}, "uniqueid": "MTK2183:3137ONMDKHC0IYBRV7NM2C9P7ZRGEH", "dateTime": 1516823108838}, {"current_trial": 181, "trialdata": {"rt": -1, "trial_type": "single-stim", "stimulus": "<p id=\"stim\">3</p>", "internal_node_id": "0.0-129.0-7.0", "time_elapsed": 917970, "key_press": -1, "trial_index": 181}, "uniqueid": "MTK2183:3137ONMDKHC0IYBRV7NM2C9P7ZRGEH", "dateTime": 1516823109839}, {"current_trial": 182, "trialdata": {"rt": -1, "trial_type": "single-stim", "stimulus": "<p id=\"stim\">2</p>", "internal_node_id": "0.0-129.0-8.0", "time_elapsed": 918984, "key_press": -1, "trial_index": 182}, "uniqueid": "MTK2183:3137ONMDKHC0IYBRV7NM2C9P7ZRGEH", "dateTime": 1516823110853}, {"current_trial": 183, "trialdata": {"rt": -1, "trial_type": "single-stim", "stimulus": "<p id=\"stim\">1</p>", "internal_node_id": "0.0-129.0-9.0", "time_elapsed": 919986, "key_press": -1, "trial_index": 183}, "uniqueid": "MTK2183:3137ONMDKHC0IYBRV7NM2C9P7ZRGEH", "dateTime": 1516823111855}, {"current_trial": 184, "trialdata": {"rt": -1, "trial_type": "single-stim", "stimulus": "<p id=\"stim\">+</p>", "internal_node_id": "0.0-130.0-0.0", "time_elapsed": 921487, "key_press": -1, "type": "FIXATION", "trial_index": 184}, "uniqueid": "MTK2183:3137ONMDKHC0IYBRV7NM2C9P7ZRGEH", "dateTime": 1516823113356}, {"current_trial": 185, "trialdata": {"rt": -1000, "trial_type": "single-audio", "word": "motor", "stimulus": "/static/audio/wordpool/MOTOR.wav", "conditions": [24, 800, "a", 24000], "internal_node_id": "0.0-131.0", "trial": 5, "time_elapsed": 923417, "serialpos": 0, "key_press": -1, "wordID": 921, "type": "PRES_AUD", "trial_index": 185}, "uniqueid": "MTK2183:3137ONMDKHC0IYBRV7NM2C9P7ZRGEH", "dateTime": 1516823115286}, {"current_trial": 186, "trialdata": {"rt": -1000, "trial_type": "single-audio", "word": "rod", "stimulus": "/static/audio/wordpool/ROD.wav", "conditions": [24, 800, "a", 24000], "internal_node_id": "0.0-132.0", "trial": 5, "time_elapsed": 925324, "serialpos": 1, "key_press": -1, "wordID": 1202, "type": "PRES_AUD", "trial_index": 186}, "uniqueid": "MTK2183:3137ONMDKHC0IYBRV7NM2C9P7ZRGEH", "dateTime": 1516823117193}, {"current_trial": 187, "trialdata": {"rt": -1000, "trial_type": "single-audio", "word": "neutron", "stimulus": "/static/audio/wordpool/NEUTRON.wav", "conditions": [24, 800, "a", 24000], "internal_node_id": "0.0-133.0", "trial": 5, "time_elapsed": 927145, "serialpos": 2, "key_press": -1, "wordID": 946, "type": "PRES_AUD", "trial_index": 187}, "uniqueid": "MTK2183:3137ONMDKHC0IYBRV7NM2C9P7ZRGEH", "dateTime": 1516823119014}, {"current_trial": 188, "trialdata": {"rt": -1000, "trial_type": "single-audio", "word": "pork", "stimulus": "/static/audio/wordpool/PORK.wav", "conditions": [24, 800, "a", 24000], "internal_node_id": "0.0-134.0", "trial": 5, "time_elapsed": 928899, "serialpos": 3, "key_press": -1, "wordID": 1107, "type": "PRES_AUD", "trial_index": 188}, "uniqueid": "MTK2183:3137ONMDKHC0IYBRV7NM2C9P7ZRGEH", "dateTime": 1516823120768}, {"current_trial": 189, "trialdata": {"rt": -1000, "trial_type": "single-audio", "word": "primate", "stimulus": "/static/audio/wordpool/PRIMATE.wav", "conditions": [24, 800, "a", 24000], "internal_node_id": "0.0-135.0", "trial": 5, "time_elapsed": 930603, "serialpos": 4, "key_press": -1, "wordID": 1122, "type": "PRES_AUD", "trial_index": 189}, "uniqueid": "MTK2183:3137ONMDKHC0IYBRV7NM2C9P7ZRGEH", "dateTime": 1516823122473}, {"current_trial": 190, "trialdata": {"rt": -1000, "trial_type": "single-audio", "word": "spoon", "stimulus": "/static/audio/wordpool/SPOON.wav", "conditions": [24, 800, "a", 24000], "internal_node_id": "0.0-136.0", "trial": 5, "time_elapsed": 932547, "serialpos": 5, "key_press": -1, "wordID": 1356, "type": "PRES_AUD", "trial_index": 190}, "uniqueid": "MTK2183:3137ONMDKHC0IYBRV7NM2C9P7ZRGEH", "dateTime": 1516823124417}, {"current_trial": 191, "trialdata": {"rt": -1000, "trial_type": "single-audio", "word": "loft", "stimulus": "/static/audio/wordpool/LOFT.wav", "conditions": [24, 800, "a", 24000], "internal_node_id": "0.0-137.0", "trial": 5, "time_elapsed": 934151, "serialpos": 6, "key_press": -1, "wordID": 839, "type": "PRES_AUD", "trial_index": 191}, "uniqueid": "MTK2183:3137ONMDKHC0IYBRV7NM2C9P7ZRGEH", "dateTime": 1516823126020}, {"current_trial": 192, "trialdata": {"rt": -1000, "trial_type": "single-audio", "word": "freckle", "stimulus": "/static/audio/wordpool/FRECKLE.wav", "conditions": [24, 800, "a", 24000], "internal_node_id": "0.0-138.0", "trial": 5, "time_elapsed": 935982, "serialpos": 7, "key_press": -1, "wordID": 601, "type": "PRES_AUD", "trial_index": 192}, "uniqueid": "MTK2183:3137ONMDKHC0IYBRV7NM2C9P7ZRGEH", "dateTime": 1516823127851}, {"current_trial": 193, "trialdata": {"rt": -1000, "trial_type": "single-audio", "word": "quail", "stimulus": "/static/audio/wordpool/QUAIL.wav", "conditions": [24, 800, "a", 24000], "internal_node_id": "0.0-139.0", "trial": 5, "time_elapsed": 937719, "serialpos": 8, "key_press": -1, "wordID": 1146, "type": "PRES_AUD", "trial_index": 193}, "uniqueid": "MTK2183:3137ONMDKHC0IYBRV7NM2C9P7ZRGEH", "dateTime": 1516823129588}, {"current_trial": 194, "trialdata": {"rt": -1000, "trial_type": "single-audio", "word": "dancer", "stimulus": "/static/audio/wordpool/DANCER.wav", "conditions": [24, 800, "a", 24000], "internal_node_id": "0.0-140.0", "trial": 5, "time_elapsed": 939569, "serialpos": 9, "key_press": -1, "wordID": 436, "type": "PRES_AUD", "trial_index": 194}, "uniqueid": "MTK2183:3137ONMDKHC0IYBRV7NM2C9P7ZRGEH", "dateTime": 1516823131438}, {"current_trial": 195, "trialdata": {"rt": -1000, "trial_type": "single-audio", "word": "gymnast", "stimulus": "/static/audio/wordpool/GYMNAST.wav", "conditions": [24, 800, "a", 24000], "internal_node_id": "0.0-141.0", "trial": 5, "time_elapsed": 941554, "serialpos": 10, "key_press": -1, "wordID": 674, "type": "PRES_AUD", "trial_index": 195}, "uniqueid": "MTK2183:3137ONMDKHC0IYBRV7NM2C9P7ZRGEH", "dateTime": 1516823133423}, {"current_trial": 196, "trialdata": {"rt": -1000, "trial_type": "single-audio", "word": "pimple", "stimulus": "/static/audio/wordpool/PIMPLE.wav", "conditions": [24, 800, "a", 24000], "internal_node_id": "0.0-142.0", "trial": 5, "time_elapsed": 943225, "serialpos": 11, "key_press": -1, "wordID": 1070, "type": "PRES_AUD", "trial_index": 196}, "uniqueid": "MTK2183:3137ONMDKHC0IYBRV7NM2C9P7ZRGEH", "dateTime": 1516823135094}, {"current_trial": 197, "trialdata": {"rt": -1000, "trial_type": "single-audio", "word": "palace", "stimulus": "/static/audio/wordpool/PALACE.wav", "conditions": [24, 800, "a", 24000], "internal_node_id": "0.0-143.0", "trial": 5, "time_elapsed": 945147, "serialpos": 12, "key_press": -1, "wordID": 1005, "type": "PRES_AUD", "trial_index": 197}, "uniqueid": "MTK2183:3137ONMDKHC0IYBRV7NM2C9P7ZRGEH", "dateTime": 1516823137017}, {"current_trial": 198, "trialdata": {"rt": -1000, "trial_type": "single-audio", "word": "cricket", "stimulus": "/static/audio/wordpool/CRICKET.wav", "conditions": [24, 800, "a", 24000], "internal_node_id": "0.0-144.0", "trial": 5, "time_elapsed": 946883, "serialpos": 13, "key_press": -1, "wordID": 407, "type": "PRES_AUD", "trial_index": 198}, "uniqueid": "MTK2183:3137ONMDKHC0IYBRV7NM2C9P7ZRGEH", "dateTime": 1516823138753}, {"current_trial": 199, "trialdata": {"rt": -1000, "trial_type": "single-audio", "word": "kleenex", "stimulus": "/static/audio/wordpool/KLEENEX.wav", "conditions": [24, 800, "a", 24000], "internal_node_id": "0.0-145.0", "trial": 5, "time_elapsed": 948815, "serialpos": 14, "key_press": -1, "wordID": 781, "type": "PRES_AUD", "trial_index": 199}, "uniqueid": "MTK2183:3137ONMDKHC0IYBRV7NM2C9P7ZRGEH", "dateTime": 1516823140684}, {"current_trial": 200, "trialdata": {"rt": -1000, "trial_type": "single-audio", "word": "cigar", "stimulus": "/static/audio/wordpool/CIGAR.wav", "conditions": [24, 800, "a", 24000], "internal_node_id": "0.0-146.0", "trial": 5, "time_elapsed": 950622, "serialpos": 15, "key_press": -1, "wordID": 307, "type": "PRES_AUD", "trial_index": 200}, "uniqueid": "MTK2183:3137ONMDKHC0IYBRV7NM2C9P7ZRGEH", "dateTime": 1516823142492}, {"current_trial": 201, "trialdata": {"rt": -1000, "trial_type": "single-audio", "word": "radish", "stimulus": "/static/audio/wordpool/RADISH.wav", "conditions": [24, 800, "a", 24000], "internal_node_id": "0.0-147.0", "trial": 5, "time_elapsed": 952313, "serialpos": 16, "key_press": -1, "wordID": 1157, "type": "PRES_AUD", "trial_index": 201}, "uniqueid": "MTK2183:3137ONMDKHC0IYBRV7NM2C9P7ZRGEH", "dateTime": 1516823144182}, {"current_trial": 202, "trialdata": {"rt": -1000, "trial_type": "single-audio", "word": "razor", "stimulus": "/static/audio/wordpool/RAZOR.wav", "conditions": [24, 800, "a", 24000], "internal_node_id": "0.0-148.0", "trial": 5, "time_elapsed": 954187, "serialpos": 17, "key_press": -1, "wordID": 1170, "type": "PRES_AUD", "trial_index": 202}, "uniqueid": "MTK2183:3137ONMDKHC0IYBRV7NM2C9P7ZRGEH", "dateTime": 1516823146057}, {"current_trial": 203, "trialdata": {"rt": -1000, "trial_type": "single-audio", "word": "scalpel", "stimulus": "/static/audio/wordpool/SCALPEL.wav", "conditions": [24, 800, "a", 24000], "internal_node_id": "0.0-149.0", "trial": 5, "time_elapsed": 956144, "serialpos": 18, "key_press": -1, "wordID": 1242, "type": "PRES_AUD", "trial_index": 203}, "uniqueid": "MTK2183:3137ONMDKHC0IYBRV7NM2C9P7ZRGEH", "dateTime": 1516823148013}, {"current_trial": 204, "trialdata": {"rt": -1000, "trial_type": "single-audio", "word": "lake", "stimulus": "/static/audio/wordpool/LAKE.wav", "conditions": [24, 800, "a", 24000], "internal_node_id": "0.0-150.0", "trial": 5, "time_elapsed": 957992, "serialpos": 19, "key_press": -1, "wordID": 795, "type": "PRES_AUD", "trial_index": 204}, "uniqueid": "MTK2183:3137ONMDKHC0IYBRV7NM2C9P7ZRGEH", "dateTime": 1516823149861}, {"current_trial": 205, "trialdata": {"rt": -1000, "trial_type": "single-audio", "word": "venus", "stimulus": "/static/audio/wordpool/VENUS.wav", "conditions": [24, 800, "a", 24000], "internal_node_id": "0.0-151.0", "trial": 5, "time_elapsed": 959893, "serialpos": 20, "key_press": -1, "wordID": 1556, "type": "PRES_AUD", "trial_index": 205}, "uniqueid": "MTK2183:3137ONMDKHC0IYBRV7NM2C9P7ZRGEH", "dateTime": 1516823151762}, {"current_trial": 206, "trialdata": {"rt": -1000, "trial_type": "single-audio", "word": "match", "stimulus": "/static/audio/wordpool/MATCH.wav", "conditions": [24, 800, "a", 24000], "internal_node_id": "0.0-152.0", "trial": 5, "time_elapsed": 961606, "serialpos": 21, "key_press": -1, "wordID": 877, "type": "PRES_AUD", "trial_index": 206}, "uniqueid": "MTK2183:3137ONMDKHC0IYBRV7NM2C9P7ZRGEH", "dateTime": 1516823153476}, {"current_trial": 207, "trialdata": {"rt": -1000, "trial_type": "single-audio", "word": "stallion", "stimulus": "/static/audio/wordpool/STALLION.wav", "conditions": [24, 800, "a", 24000], "internal_node_id": "0.0-153.0", "trial": 5, "time_elapsed": 963543, "serialpos": 22, "key_press": -1, "wordID": 1368, "type": "PRES_AUD", "trial_index": 207}, "uniqueid": "MTK2183:3137ONMDKHC0IYBRV7NM2C9P7ZRGEH", "dateTime": 1516823155412}, {"current_trial": 208, "trialdata": {"rt": -1000, "trial_type": "single-audio", "word": "parsley", "stimulus": "/static/audio/wordpool/PARSLEY.wav", "conditions": [24, 800, "a", 24000], "internal_node_id": "0.0-154.0", "trial": 5, "time_elapsed": 965296, "serialpos": 23, "key_press": -1, "wordID": 1015, "type": "PRES_AUD", "trial_index": 208}, "uniqueid": "MTK2183:3137ONMDKHC0IYBRV7NM2C9P7ZRGEH", "dateTime": 1516823157165}, {"current_trial": 209, "trialdata": {"rt": -1, "trial_type": "single-stim", "stimulus": "", "internal_node_id": "0.0-155.0-0.0", "time_elapsed": 966604, "key_press": -1, "type": "PRE_RECALL_DELAY", "trial_index": 209}, "uniqueid": "MTK2183:3137ONMDKHC0IYBRV7NM2C9P7ZRGEH", "dateTime": 1516823158473}, {"current_trial": 210, "trialdata": {"rt": -1000, "trial_type": "single-audio", "stimulus": "/static/audio/400Hz.wav", "internal_node_id": "0.0-156.0", "time_elapsed": 967105, "key_press": -1, "type": "PRE_RECALL_ALERT", "trial_index": 210}, "uniqueid": "MTK2183:3137ONMDKHC0IYBRV7NM2C9P7ZRGEH", "dateTime": 1516823158975}, {"current_trial": 211, "trialdata": {"rt": [2921, 4855, 6424, 9615, 28741, 30289, 55610], "recwords": ["parsely", "stallion", "venus", "loft", "lady", "xerox", "palace"], "key_times": [345, 464, 656, 1874, 2016, 2168, 2460, 2921, 3127, 3344, 3431, 3584, 3752, 3952, 4048, 4616, 4855, 5207, 5360, 5607, 5920, 6016, 6424, 6672, 6888, 7135, 7391, 9615, 27667, 27945, 28057, 28458, 28741, 29169, 29393, 29601, 29745, 29889, 30289, 51932, 52051, 52202, 52306, 52562, 52674, 52874, 53074, 53242, 53419, 53603, 53876, 54013, 54118, 54258, 54370, 55610], "trial_type": "free-recall", "conditions": [24, 800, "a", 24000], "internal_node_id": "0.0-157.0-0.0", "key_presses": [80, 65, 82, 83, 69, 76, 89, 13, 83, 84, 65, 76, 76, 73, 79, 78, 13, 86, 69, 78, 85, 83, 13, 76, 79, 70, 84, 13, 76, 65, 68, 89, 13, 88, 69, 82, 79, 88, 13, 80, 83, 76, 83, 67, 69, 8, 8, 8, 8, 8, 65, 76, 65, 67, 69, 13], "trial": 5, "time_elapsed": 1027107, "type": "FREE_RECALL", "trial_index": 211}, "uniqueid": "MTK2183:3137ONMDKHC0IYBRV7NM2C9P7ZRGEH", "dateTime": 1516823218979}, {"current_trial": 212, "trialdata": {"rt": 1086, "trial_type": "text", "internal_node_id": "0.0-158.0", "time_elapsed": 1030197, "key_press": 32, "type": "INSTRUCTIONS", "trial_index": 212}, "uniqueid": "MTK2183:3137ONMDKHC0IYBRV7NM2C9P7ZRGEH", "dateTime": 1516823222067}, {"current_trial": 213, "trialdata": {"rt": [1653, 3229, 4901, 6349, 8158, 9421, 11237, 13461, 15644, 17692, 20228, 21612, 23844], "trial_type": "math-distractor", "key_times": [1117, 1437, 1653, 2701, 3037, 3229, 4685, 4901, 5877, 6165, 6349, 7757, 7989, 8158, 9237, 9421, 10885, 11045, 11237, 13005, 13205, 13461, 15149, 15452, 15644, 17340, 17501, 17692, 19166, 19924, 20228, 21372, 21612, 23412, 23660, 23844], "responses": ["18", "12", "8", "16", "10", "4", "19", "20", "13", "15", "18", "4", "16"], "num2": [3, 6, 4, 6, 4, 2, 7, 8, 2, 1, 7, 1, 4, 5], "num3": [8, 2, 1, 1, 1, 1, 5, 6, 9, 7, 4, 2, 7, 6], "conditions": [12, 1600, "a", 24000], "internal_node_id": "0.0-159.0", "key_presses": [49, 56, 13, 49, 50, 13, 56, 13, 49, 54, 13, 49, 48, 13, 52, 13, 49, 57, 13, 50, 48, 13, 49, 51, 13, 49, 53, 13, 49, 56, 13, 52, 13, 49, 54, 13], "trial": 6, "time_elapsed": 1056200, "type": "DISTRACTOR", "trial_index": 213, "num1": [7, 4, 3, 9, 5, 1, 7, 6, 2, 7, 7, 1, 5, 7]}, "uniqueid": "MTK2183:3137ONMDKHC0IYBRV7NM2C9P7ZRGEH", "dateTime": 1516823248069}, {"current_trial": 214, "trialdata": {"rt": -1, "trial_type": "single-stim", "stimulus": "<p id=\"stim\">10</p>", "internal_node_id": "0.0-160.0-0.0", "time_elapsed": 1059202, "key_press": -1, "trial_index": 214}, "uniqueid": "MTK2183:3137ONMDKHC0IYBRV7NM2C9P7ZRGEH", "dateTime": 1516823251071}, {"current_trial": 215, "trialdata": {"rt": -1, "trial_type": "single-stim", "stimulus": "<p id=\"stim\">9</p>", "internal_node_id": "0.0-160.0-1.0", "time_elapsed": 1060203, "key_press": -1, "trial_index": 215}, "uniqueid": "MTK2183:3137ONMDKHC0IYBRV7NM2C9P7ZRGEH", "dateTime": 1516823252072}, {"current_trial": 216, "trialdata": {"rt": -1, "trial_type": "single-stim", "stimulus": "<p id=\"stim\">8</p>", "internal_node_id": "0.0-160.0-2.0", "time_elapsed": 1061204, "key_press": -1, "trial_index": 216}, "uniqueid": "MTK2183:3137ONMDKHC0IYBRV7NM2C9P7ZRGEH", "dateTime": 1516823253073}, {"current_trial": 217, "trialdata": {"rt": -1, "trial_type": "single-stim", "stimulus": "<p id=\"stim\">7</p>", "internal_node_id": "0.0-160.0-3.0", "time_elapsed": 1062206, "key_press": -1, "trial_index": 217}, "uniqueid": "MTK2183:3137ONMDKHC0IYBRV7NM2C9P7ZRGEH", "dateTime": 1516823254075}, {"current_trial": 218, "trialdata": {"rt": -1, "trial_type": "single-stim", "stimulus": "<p id=\"stim\">6</p>", "internal_node_id": "0.0-160.0-4.0", "time_elapsed": 1063207, "key_press": -1, "trial_index": 218}, "uniqueid": "MTK2183:3137ONMDKHC0IYBRV7NM2C9P7ZRGEH", "dateTime": 1516823255076}, {"current_trial": 219, "trialdata": {"rt": -1, "trial_type": "single-stim", "stimulus": "<p id=\"stim\">5</p>", "internal_node_id": "0.0-160.0-5.0", "time_elapsed": 1064208, "key_press": -1, "trial_index": 219}, "uniqueid": "MTK2183:3137ONMDKHC0IYBRV7NM2C9P7ZRGEH", "dateTime": 1516823256078}, {"current_trial": 220, "trialdata": {"rt": -1, "trial_type": "single-stim", "stimulus": "<p id=\"stim\">4</p>", "internal_node_id": "0.0-160.0-6.0", "time_elapsed": 1065210, "key_press": -1, "trial_index": 220}, "uniqueid": "MTK2183:3137ONMDKHC0IYBRV7NM2C9P7ZRGEH", "dateTime": 1516823257079}, {"current_trial": 221, "trialdata": {"rt": -1, "trial_type": "single-stim", "stimulus": "<p id=\"stim\">3</p>", "internal_node_id": "0.0-160.0-7.0", "time_elapsed": 1066212, "key_press": -1, "trial_index": 221}, "uniqueid": "MTK2183:3137ONMDKHC0IYBRV7NM2C9P7ZRGEH", "dateTime": 1516823258081}, {"current_trial": 222, "trialdata": {"rt": -1, "trial_type": "single-stim", "stimulus": "<p id=\"stim\">2</p>", "internal_node_id": "0.0-160.0-8.0", "time_elapsed": 1067214, "key_press": -1, "trial_index": 222}, "uniqueid": "MTK2183:3137ONMDKHC0IYBRV7NM2C9P7ZRGEH", "dateTime": 1516823259084}, {"current_trial": 223, "trialdata": {"rt": -1, "trial_type": "single-stim", "stimulus": "<p id=\"stim\">1</p>", "internal_node_id": "0.0-160.0-9.0", "time_elapsed": 1068216, "key_press": -1, "trial_index": 223}, "uniqueid": "MTK2183:3137ONMDKHC0IYBRV7NM2C9P7ZRGEH", "dateTime": 1516823260085}, {"current_trial": 224, "trialdata": {"rt": -1, "trial_type": "single-stim", "stimulus": "<p id=\"stim\">+</p>", "internal_node_id": "0.0-161.0-0.0", "time_elapsed": 1069718, "key_press": -1, "type": "FIXATION", "trial_index": 224}, "uniqueid": "MTK2183:3137ONMDKHC0IYBRV7NM2C9P7ZRGEH", "dateTime": 1516823261587}, {"current_trial": 225, "trialdata": {"rt": -1000, "trial_type": "single-audio", "word": "cloud", "stimulus": "/static/audio/wordpool/CLOUD.wav", "conditions": [12, 1600, "a", 24000], "internal_node_id": "0.0-162.0", "trial": 6, "time_elapsed": 1072477, "serialpos": 0, "key_press": -1, "wordID": 327, "type": "PRES_AUD", "trial_index": 225}, "uniqueid": "MTK2183:3137ONMDKHC0IYBRV7NM2C9P7ZRGEH", "dateTime": 1516823264347}, {"current_trial": 226, "trialdata": {"rt": -1000, "trial_type": "single-audio", "word": "silk", "stimulus": "/static/audio/wordpool/SILK.wav", "conditions": [12, 1600, "a", 24000], "internal_node_id": "0.0-163.0", "trial": 6, "time_elapsed": 1075027, "serialpos": 1, "key_press": -1, "wordID": 1306, "type": "PRES_AUD", "trial_index": 226}, "uniqueid": "MTK2183:3137ONMDKHC0IYBRV7NM2C9P7ZRGEH", "dateTime": 1516823266896}, {"current_trial": 227, "trialdata": {"rt": -1000, "trial_type": "single-audio", "word": "crib", "stimulus": "/static/audio/wordpool/CRIB.wav", "conditions": [12, 1600, "a", 24000], "internal_node_id": "0.0-164.0", "trial": 6, "time_elapsed": 1077483, "serialpos": 2, "key_press": -1, "wordID": 406, "type": "PRES_AUD", "trial_index": 227}, "uniqueid": "MTK2183:3137ONMDKHC0IYBRV7NM2C9P7ZRGEH", "dateTime": 1516823269352}, {"current_trial": 228, "trialdata": {"rt": -1000, "trial_type": "single-audio", "word": "motel", "stimulus": "/static/audio/wordpool/MOTEL.wav", "conditions": [12, 1600, "a", 24000], "internal_node_id": "0.0-165.0", "trial": 6, "time_elapsed": 1080176, "serialpos": 3, "key_press": -1, "wordID": 918, "type": "PRES_AUD", "trial_index": 228}, "uniqueid": "MTK2183:3137ONMDKHC0IYBRV7NM2C9P7ZRGEH", "dateTime": 1516823272046}, {"current_trial": 229, "trialdata": {"rt": -1000, "trial_type": "single-audio", "word": "fungus", "stimulus": "/static/audio/wordpool/FUNGUS.wav", "conditions": [12, 1600, "a", 24000], "internal_node_id": "0.0-166.0", "trial": 6, "time_elapsed": 1082605, "serialpos": 4, "key_press": -1, "wordID": 613, "type": "PRES_AUD", "trial_index": 229}, "uniqueid": "MTK2183:3137ONMDKHC0IYBRV7NM2C9P7ZRGEH", "dateTime": 1516823274474}, {"current_trial": 230, "trialdata": {"rt": -1000, "trial_type": "single-audio", "word": "carrot", "stimulus": "/static/audio/wordpool/CARROT.wav", "conditions": [12, 1600, "a", 24000], "internal_node_id": "0.0-167.0", "trial": 6, "time_elapsed": 1085278, "serialpos": 5, "key_press": -1, "wordID": 248, "type": "PRES_AUD", "trial_index": 230}, "uniqueid": "MTK2183:3137ONMDKHC0IYBRV7NM2C9P7ZRGEH", "dateTime": 1516823277148}, {"current_trial": 231, "trialdata": {"rt": -1000, "trial_type": "single-audio", "word": "cupboard", "stimulus": "/static/audio/wordpool/CUPBOARD.wav", "conditions": [12, 1600, "a", 24000], "internal_node_id": "0.0-168.0", "trial": 6, "time_elapsed": 1087898, "serialpos": 6, "key_press": -1, "wordID": 424, "type": "PRES_AUD", "trial_index": 231}, "uniqueid": "MTK2183:3137ONMDKHC0IYBRV7NM2C9P7ZRGEH", "dateTime": 1516823279768}, {"current_trial": 232, "trialdata": {"rt": -1000, "trial_type": "single-audio", "word": "dresser", "stimulus": "/static/audio/wordpool/DRESSER.wav", "conditions": [12, 1600, "a", 24000], "internal_node_id": "0.0-169.0", "trial": 6, "time_elapsed": 1090405, "serialpos": 7, "key_press": -1, "wordID": 495, "type": "PRES_AUD", "trial_index": 232}, "uniqueid": "MTK2183:3137ONMDKHC0IYBRV7NM2C9P7ZRGEH", "dateTime": 1516823282274}, {"current_trial": 233, "trialdata": {"rt": -1000, "trial_type": "single-audio", "word": "termite", "stimulus": "/static/audio/wordpool/TERMITE.wav", "conditions": [12, 1600, "a", 24000], "internal_node_id": "0.0-170.0", "trial": 6, "time_elapsed": 1093182, "serialpos": 8, "key_press": -1, "wordID": 1450, "type": "PRES_AUD", "trial_index": 233}, "uniqueid": "MTK2183:3137ONMDKHC0IYBRV7NM2C9P7ZRGEH", "dateTime": 1516823285051}, {"current_trial": 234, "trialdata": {"rt": -1000, "trial_type": "single-audio", "word": "police", "stimulus": "/static/audio/wordpool/POLICE.wav", "conditions": [12, 1600, "a", 24000], "internal_node_id": "0.0-171.0", "trial": 6, "time_elapsed": 1095906, "serialpos": 9, "key_press": -1, "wordID": 1097, "type": "PRES_AUD", "trial_index": 234}, "uniqueid": "MTK2183:3137ONMDKHC0IYBRV7NM2C9P7ZRGEH", "dateTime": 1516823287775}, {"current_trial": 235, "trialdata": {"rt": -1000, "trial_type": "single-audio", "word": "slide", "stimulus": "/static/audio/wordpool/SLIDE.wav", "conditions": [12, 1600, "a", 24000], "internal_node_id": "0.0-172.0", "trial": 6, "time_elapsed": 1098611, "serialpos": 10, "key_press": -1, "wordID": 1325, "type": "PRES_AUD", "trial_index": 235}, "uniqueid": "MTK2183:3137ONMDKHC0IYBRV7NM2C9P7ZRGEH", "dateTime": 1516823290480}, {"current_trial": 236, "trialdata": {"rt": -1000, "trial_type": "single-audio", "word": "finger", "stimulus": "/static/audio/wordpool/FINGER.wav", "conditions": [12, 1600, "a", 24000], "internal_node_id": "0.0-173.0", "trial": 6, "time_elapsed": 1101383, "serialpos": 11, "key_press": -1, "wordID": 566, "type": "PRES_AUD", "trial_index": 236}, "uniqueid": "MTK2183:3137ONMDKHC0IYBRV7NM2C9P7ZRGEH", "dateTime": 1516823293252}, {"current_trial": 237, "trialdata": {"rt": -1, "trial_type": "single-stim", "stimulus": "", "internal_node_id": "0.0-174.0-0.0", "time_elapsed": 1102613, "key_press": -1, "type": "PRE_RECALL_DELAY", "trial_index": 237}, "uniqueid": "MTK2183:3137ONMDKHC0IYBRV7NM2C9P7ZRGEH", "dateTime": 1516823294482}, {"current_trial": 238, "trialdata": {"rt": -1000, "trial_type": "single-audio", "stimulus": "/static/audio/400Hz.wav", "internal_node_id": "0.0-175.0", "time_elapsed": 1103114, "key_press": -1, "type": "PRE_RECALL_ALERT", "trial_index": 238}, "uniqueid": "MTK2183:3137ONMDKHC0IYBRV7NM2C9P7ZRGEH", "dateTime": 1516823294983}, {"current_trial": 239, "trialdata": {"rt": [3701, 5245, 5765, 8021], "recwords": ["finger", "slide", "", "police"], "key_times": [966, 1085, 1581, 2005, 2145, 2198, 2393, 2477, 2886, 3077, 3141, 3225, 3701, 4133, 4189, 4821, 4909, 5077, 5245, 5765, 6397, 6533, 6893, 7133, 7301, 7389, 8021], "trial_type": "free-recall", "conditions": [12, 1600, "a", 24000], "internal_node_id": "0.0-176.0-0.0", "key_presses": [70, 73, 71, 8, 78, 71, 76, 69, 8, 8, 69, 82, 13, 83, 76, 73, 68, 69, 32, 13, 80, 79, 76, 73, 67, 69, 13], "trial": 6, "time_elapsed": 1163116, "type": "FREE_RECALL", "trial_index": 239}, "uniqueid": "MTK2183:3137ONMDKHC0IYBRV7NM2C9P7ZRGEH", "dateTime": 1516823354990}, {"current_trial": 240, "trialdata": {"rt": 1783, "trial_type": "text", "internal_node_id": "0.0-177.0", "time_elapsed": 1166904, "key_press": 32, "type": "INSTRUCTIONS", "trial_index": 240}, "uniqueid": "MTK2183:3137ONMDKHC0IYBRV7NM2C9P7ZRGEH", "dateTime": 1516823358774}, {"current_trial": 241, "trialdata": {"rt": [1612, 3420, 6323, 8244, 11107], "trial_type": "math-distractor", "key_times": [1500, 1612, 3236, 3420, 4852, 5556, 5836, 6020, 6323, 7780, 8053, 8244, 10604, 10883, 11107], "responses": ["8", "9", "10", "17", "18"], "num2": [2, 4, 2, 7, 5, 4], "num3": [2, 4, 2, 9, 7, 8], "conditions": [24, 1600, "a", 12000], "internal_node_id": "0.0-178.0", "key_presses": [56, 13, 57, 13, 50, 8, 49, 48, 13, 49, 55, 13, 49, 56, 13], "trial": 7, "time_elapsed": 1180908, "type": "DISTRACTOR", "trial_index": 241, "num1": [4, 1, 6, 1, 6, 8]}, "uniqueid": "MTK2183:3137ONMDKHC0IYBRV7NM2C9P7ZRGEH", "dateTime": 1516823372777}, {"current_trial": 242, "trialdata": {"rt": -1, "trial_type": "single-stim", "stimulus": "<p id=\"stim\">10</p>", "internal_node_id": "0.0-179.0-0.0", "time_elapsed": 1183910, "key_press": -1, "trial_index": 242}, "uniqueid": "MTK2183:3137ONMDKHC0IYBRV7NM2C9P7ZRGEH", "dateTime": 1516823375779}, {"current_trial": 243, "trialdata": {"rt": -1, "trial_type": "single-stim", "stimulus": "<p id=\"stim\">9</p>", "internal_node_id": "0.0-179.0-1.0", "time_elapsed": 1184911, "key_press": -1, "trial_index": 243}, "uniqueid": "MTK2183:3137ONMDKHC0IYBRV7NM2C9P7ZRGEH", "dateTime": 1516823376780}, {"current_trial": 244, "trialdata": {"rt": -1, "trial_type": "single-stim", "stimulus": "<p id=\"stim\">8</p>", "internal_node_id": "0.0-179.0-2.0", "time_elapsed": 1185913, "key_press": -1, "trial_index": 244}, "uniqueid": "MTK2183:3137ONMDKHC0IYBRV7NM2C9P7ZRGEH", "dateTime": 1516823377783}, {"current_trial": 245, "trialdata": {"rt": -1, "trial_type": "single-stim", "stimulus": "<p id=\"stim\">7</p>", "internal_node_id": "0.0-179.0-3.0", "time_elapsed": 1186915, "key_press": -1, "trial_index": 245}, "uniqueid": "MTK2183:3137ONMDKHC0IYBRV7NM2C9P7ZRGEH", "dateTime": 1516823378784}, {"current_trial": 246, "trialdata": {"rt": -1, "trial_type": "single-stim", "stimulus": "<p id=\"stim\">6</p>", "internal_node_id": "0.0-179.0-4.0", "time_elapsed": 1187927, "key_press": -1