{"assignmentId": "3MYYFCXHJ4EIQWEY61B9TQXYVFWG4L", "workerId": "MTK2244", "questiondata": {"avail_screen_height": 1280, "color_depth": 24, "screen_width": 1600, "pixel_depth": 24, "avail_screen_width": 1600, "screen_height": 1280}, "bonus": 0, "hitId": "37G6BXQPLQSP837B81NW76H7V0EEQN", "counterbalance": 769, "useragent": "Mozilla/5.0 (Windows NT 10.0; Win64; x64; rv:57.0) Gecko/20100101 Firefox/57.0", "eventdata": [{"eventtype": "initialized", "interval": 0, "value": null, "timestamp": 1516902361445}, {"eventtype": "window_resize", "interval": 0, "value": [1600, 1204], "timestamp": 1516902361445}, {"eventtype": "focus", "interval": 2835, "value": "off", "timestamp": 1516902364280}, {"eventtype": "focus", "interval": 53551, "value": "on", "timestamp": 1516902417831}, {"eventtype": "window_resize", "interval": 5200, "value": [1580, 1003], "timestamp": 1516902423031}, {"eventtype": "window_resize", "interval": 888, "value": [2000, 1049], "timestamp": 1516902423919}, {"eventtype": "focus", "interval": 27446, "value": "off", "timestamp": 1516902451365}, {"eventtype": "focus", "interval": 2, "value": "on", "timestamp": 1516902451367}, {"eventtype": "window_resize", "interval": 1140011, "value": [1580, 1003], "timestamp": 1516903591378}, {"eventtype": "window_resize", "interval": 1279, "value": [1600, 1204], "timestamp": 1516903592657}, {"eventtype": "focus", "interval": 5446, "value": "off", "timestamp": 1516903598103}, {"eventtype": "focus", "interval": 14464, "value": "on", "timestamp": 1516903612567}, {"eventtype": "window_resize", "interval": 294, "value": [1580, 1003], "timestamp": 1516903612861}, {"eventtype": "window_resize", "interval": 926, "value": [2000, 1049], "timestamp": 1516903613787}, {"eventtype": "window_resize", "interval": 1528586, "value": [1580, 1003], "timestamp": 1516905142373}, {"eventtype": "window_resize", "interval": 893, "value": [1600, 1204], "timestamp": 1516905143266}, {"eventtype": "focus", "interval": 2070, "value": "off", "timestamp": 1516905145336}, {"eventtype": "focus", "interval": 4187, "value": "on", "timestamp": 1516905149523}, {"eventtype": "window_resize", "interval": 824, "value": [1580, 1003], "timestamp": 1516905150347}, {"eventtype": "window_resize", "interval": 1080, "value": [2000, 1049], "timestamp": 1516905151427}], "data": [{"current_trial": 0, "trialdata": {"rt": 4598, "trial_type": "text", "internal_node_id": "0.0-0.0", "time_elapsed": 4600, "key_press": 70, "type": "INSTRUCTIONS", "trial_index": 0}, "uniqueid": "MTK2244:3MYYFCXHJ4EIQWEY61B9TQXYVFWG4L", "dateTime": 1516902420439}, {"current_trial": 1, "trialdata": {"rt": 23146, "trial_type": "text", "internal_node_id": "0.0-1.0", "time_elapsed": 27749, "key_press": 82, "type": "INSTRUCTIONS", "trial_index": 1}, "uniqueid": "MTK2244:3MYYFCXHJ4EIQWEY61B9TQXYVFWG4L", "dateTime": 1516902443587}, {"current_trial": 2, "trialdata": {"rt": [18698], "trial_type": "audio-test", "responses": ["ocean"], "internal_node_id": "0.0-2.0", "time_elapsed": 46686, "type": "AUDIO_TEST", "trial_index": 2}, "uniqueid": "MTK2244:3MYYFCXHJ4EIQWEY61B9TQXYVFWG4L", "dateTime": 1516902462524}, {"current_trial": 3, "trialdata": {"rt": [7730], "trial_type": "audio-test", "responses": ["crystal"], "internal_node_id": "0.0-3.0", "time_elapsed": 54429, "type": "AUDIO_TEST", "trial_index": 3}, "uniqueid": "MTK2244:3MYYFCXHJ4EIQWEY61B9TQXYVFWG4L", "dateTime": 1516902470267}, {"current_trial": 4, "trialdata": {"rt": [5932], "trial_type": "audio-test", "responses": ["spice"], "internal_node_id": "0.0-4.0", "time_elapsed": 60375, "type": "AUDIO_TEST", "trial_index": 4}, "uniqueid": "MTK2244:3MYYFCXHJ4EIQWEY61B9TQXYVFWG4L", "dateTime": 1516902476213}, {"current_trial": 5, "trialdata": {"rt": 340430, "trial_type": "survey-text", "responses": "{\"Q0\":\"1:00am\",\"Q1\":\"8:00am\",\"Q2\":\"4\"}", "internal_node_id": "0.0-5.0", "time_elapsed": 401560, "type": "SLEEP_SURVEY", "trial_index": 5}, "uniqueid": "MTK2244:3MYYFCXHJ4EIQWEY61B9TQXYVFWG4L", "dateTime": 1516902817398}, {"current_trial": 6, "trialdata": {"rt": 77823, "trial_type": "text", "internal_node_id": "0.0-6.0", "time_elapsed": 480389, "key_press": 32, "type": "INSTRUCTIONS", "trial_index": 6}, "uniqueid": "MTK2244:3MYYFCXHJ4EIQWEY61B9TQXYVFWG4L", "dateTime": 1516902896227}, {"current_trial": 7, "trialdata": {"rt": 24454, "trial_type": "text", "internal_node_id": "0.0-7.0", "time_elapsed": 505348, "key_press": 32, "type": "INSTRUCTIONS", "trial_index": 7}, "uniqueid": "MTK2244:3MYYFCXHJ4EIQWEY61B9TQXYVFWG4L", "dateTime": 1516902921186}, {"current_trial": 8, "trialdata": {"rt": 34913, "trial_type": "text", "internal_node_id": "0.0-8.0", "time_elapsed": 540772, "key_press": 32, "type": "INSTRUCTIONS", "trial_index": 8}, "uniqueid": "MTK2244:3MYYFCXHJ4EIQWEY61B9TQXYVFWG4L", "dateTime": 1516902956610}, {"current_trial": 9, "trialdata": {"rt": [3733, 6717, 8613, 10605, 13849, 16092], "trial_type": "math-distractor", "key_times": [2365, 2588, 3733, 5941, 6028, 6717, 8293, 8613, 10196, 10324, 10605, 13463, 13533, 13849, 15756, 15836, 16092, 17948], "responses": ["16", "16", "8", "11", "21", "15"], "num2": [4, 5, 3, 7, 5, 3, 1], "num3": [4, 7, 4, 2, 9, 7, 6], "conditions": [18, 1200, "a", 18000], "internal_node_id": "0.0-9.0", "key_presses": [97, 102, 13, 97, 102, 13, 104, 13, 97, 97, 13, 98, 97, 13, 97, 101, 13, 97], "trial": 0, "time_elapsed": 559792, "type": "DISTRACTOR", "trial_index": 9, "num1": [8, 4, 1, 2, 8, 5, 4]}, "uniqueid": "MTK2244:3MYYFCXHJ4EIQWEY61B9TQXYVFWG4L", "dateTime": 1516902975630}, {"current_trial": 10, "trialdata": {"rt": -1, "trial_type": "single-stim", "stimulus": "<p id=\"stim\">10</p>", "internal_node_id": "0.0-10.0-0.0", "time_elapsed": 562808, "key_press": -1, "trial_index": 10}, "uniqueid": "MTK2244:3MYYFCXHJ4EIQWEY61B9TQXYVFWG4L", "dateTime": 1516902978646}, {"current_trial": 11, "trialdata": {"rt": -1, "trial_type": "single-stim", "stimulus": "<p id=\"stim\">9</p>", "internal_node_id": "0.0-10.0-1.0", "time_elapsed": 563819, "key_press": -1, "trial_index": 11}, "uniqueid": "MTK2244:3MYYFCXHJ4EIQWEY61B9TQXYVFWG4L", "dateTime": 1516902979657}, {"current_trial": 12, "trialdata": {"rt": -1, "trial_type": "single-stim", "stimulus": "<p id=\"stim\">8</p>", "internal_node_id": "0.0-10.0-2.0", "time_elapsed": 564823, "key_press": -1, "trial_index": 12}, "uniqueid": "MTK2244:3MYYFCXHJ4EIQWEY61B9TQXYVFWG4L", "dateTime": 1516902980661}, {"current_trial": 13, "trialdata": {"rt": 933, "trial_type": "single-stim", "stimulus": "<p id=\"stim\">7</p>", "internal_node_id": "0.0-10.0-3.0", "time_elapsed": 565825, "key_press": 183, "trial_index": 13}, "uniqueid": "MTK2244:3MYYFCXHJ4EIQWEY61B9TQXYVFWG4L", "dateTime": 1516902981663}, {"current_trial": 14, "trialdata": {"rt": 180, "trial_type": "single-stim", "stimulus": "<p id=\"stim\">6</p>", "internal_node_id": "0.0-10.0-4.0", "time_elapsed": 566827, "key_press": 183, "trial_index": 14}, "uniqueid": "MTK2244:3MYYFCXHJ4EIQWEY61B9TQXYVFWG4L", "dateTime": 1516902982665}, {"current_trial": 15, "trialdata": {"rt": -1, "trial_type": "single-stim", "stimulus": "<p id=\"stim\">5</p>", "internal_node_id": "0.0-10.0-5.0", "time_elapsed": 567830, "key_press": -1, "trial_index": 15}, "uniqueid": "MTK2244:3MYYFCXHJ4EIQWEY61B9TQXYVFWG4L", "dateTime": 1516902983668}, {"current_trial": 16, "trialdata": {"rt": -1, "trial_type": "single-stim", "stimulus": "<p id=\"stim\">4</p>", "internal_node_id": "0.0-10.0-6.0", "time_elapsed": 568834, "key_press": -1, "trial_index": 16}, "uniqueid": "MTK2244:3MYYFCXHJ4EIQWEY61B9TQXYVFWG4L", "dateTime": 1516902984672}, {"current_trial": 17, "trialdata": {"rt": -1, "trial_type": "single-stim", "stimulus": "<p id=\"stim\">3</p>", "internal_node_id": "0.0-10.0-7.0", "time_elapsed": 569839, "key_press": -1, "trial_index": 17}, "uniqueid": "MTK2244:3MYYFCXHJ4EIQWEY61B9TQXYVFWG4L", "dateTime": 1516902985677}, {"current_trial": 18, "trialdata": {"rt": -1, "trial_type": "single-stim", "stimulus": "<p id=\"stim\">2</p>", "internal_node_id": "0.0-10.0-8.0", "time_elapsed": 570845, "key_press": -1, "trial_index": 18}, "uniqueid": "MTK2244:3MYYFCXHJ4EIQWEY61B9TQXYVFWG4L", "dateTime": 1516902986683}, {"current_trial": 19, "trialdata": {"rt": -1, "trial_type": "single-stim", "stimulus": "<p id=\"stim\">1</p>", "internal_node_id": "0.0-10.0-9.0", "time_elapsed": 571851, "key_press": -1, "trial_index": 19}, "uniqueid": "MTK2244:3MYYFCXHJ4EIQWEY61B9TQXYVFWG4L", "dateTime": 1516902987689}, {"current_trial": 20, "trialdata": {"rt": -1, "trial_type": "single-stim", "stimulus": "<p id=\"stim\">+</p>", "internal_node_id": "0.0-11.0-0.0", "time_elapsed": 573359, "key_press": -1, "type": "FIXATION", "trial_index": 20}, "uniqueid": "MTK2244:3MYYFCXHJ4EIQWEY61B9TQXYVFWG4L", "dateTime": 1516902989197}, {"current_trial": 21, "trialdata": {"rt": -1000, "trial_type": "single-audio", "word": "mop", "stimulus": "/static/audio/wordpool/MOP.wav", "conditions": [18, 1200, "a", 18000], "internal_node_id": "0.0-12.0", "trial": 0, "time_elapsed": 575456, "serialpos": 0, "key_press": -1, "wordID": 915, "type": "PRES_AUD", "trial_index": 21}, "uniqueid": "MTK2244:3MYYFCXHJ4EIQWEY61B9TQXYVFWG4L", "dateTime": 1516902991294}, {"current_trial": 22, "trialdata": {"rt": -1000, "trial_type": "single-audio", "word": "ox", "stimulus": "/static/audio/wordpool/OX.wav", "conditions": [18, 1200, "a", 18000], "internal_node_id": "0.0-13.0", "trial": 0, "time_elapsed": 577804, "serialpos": 1, "key_press": -1, "wordID": 993, "type": "PRES_AUD", "trial_index": 22}, "uniqueid": "MTK2244:3MYYFCXHJ4EIQWEY61B9TQXYVFWG4L", "dateTime": 1516902993642}, {"current_trial": 23, "trialdata": {"rt": -1000, "trial_type": "single-audio", "word": "whistle", "stimulus": "/static/audio/wordpool/WHISTLE.wav", "conditions": [18, 1200, "a", 18000], "internal_node_id": "0.0-14.0", "trial": 0, "time_elapsed": 579809, "serialpos": 2, "key_press": -1, "wordID": 1605, "type": "PRES_AUD", "trial_index": 23}, "uniqueid": "MTK2244:3MYYFCXHJ4EIQWEY61B9TQXYVFWG4L", "dateTime": 1516902995648}, {"current_trial": 24, "trialdata": {"rt": -1000, "trial_type": "single-audio", "word": "icing", "stimulus": "/static/audio/wordpool/ICING.wav", "conditions": [18, 1200, "a", 18000], "internal_node_id": "0.0-15.0", "trial": 0, "time_elapsed": 582194, "serialpos": 3, "key_press": -1, "wordID": 731, "type": "PRES_AUD", "trial_index": 24}, "uniqueid": "MTK2244:3MYYFCXHJ4EIQWEY61B9TQXYVFWG4L", "dateTime": 1516902998032}, {"current_trial": 25, "trialdata": {"rt": -1000, "trial_type": "single-audio", "word": "powder", "stimulus": "/static/audio/wordpool/POWDER.wav", "conditions": [18, 1200, "a", 18000], "internal_node_id": "0.0-16.0", "trial": 0, "time_elapsed": 584563, "serialpos": 4, "key_press": -1, "wordID": 1116, "type": "PRES_AUD", "trial_index": 25}, "uniqueid": "MTK2244:3MYYFCXHJ4EIQWEY61B9TQXYVFWG4L", "dateTime": 1516903000401}, {"current_trial": 26, "trialdata": {"rt": -1000, "trial_type": "single-audio", "word": "suitcase", "stimulus": "/static/audio/wordpool/SUITCASE.wav", "conditions": [18, 1200, "a", 18000], "internal_node_id": "0.0-17.0", "trial": 0, "time_elapsed": 586588, "serialpos": 5, "key_press": -1, "wordID": 1402, "type": "PRES_AUD", "trial_index": 26}, "uniqueid": "MTK2244:3MYYFCXHJ4EIQWEY61B9TQXYVFWG4L", "dateTime": 1516903002426}, {"current_trial": 27, "trialdata": {"rt": -1000, "trial_type": "single-audio", "word": "actress", "stimulus": "/static/audio/wordpool/ACTRESS.wav", "conditions": [18, 1200, "a", 18000], "internal_node_id": "0.0-18.0", "trial": 0, "time_elapsed": 588699, "serialpos": 6, "key_press": -1, "wordID": 5, "type": "PRES_AUD", "trial_index": 27}, "uniqueid": "MTK2244:3MYYFCXHJ4EIQWEY61B9TQXYVFWG4L", "dateTime": 1516903004537}, {"current_trial": 28, "trialdata": {"rt": -1000, "trial_type": "single-audio", "word": "breast", "stimulus": "/static/audio/wordpool/BREAST.wav", "conditions": [18, 1200, "a", 18000], "internal_node_id": "0.0-19.0", "trial": 0, "time_elapsed": 591058, "serialpos": 7, "key_press": -1, "wordID": 170, "type": "PRES_AUD", "trial_index": 28}, "uniqueid": "MTK2244:3MYYFCXHJ4EIQWEY61B9TQXYVFWG4L", "dateTime": 1516903006896}, {"current_trial": 29, "trialdata": {"rt": -1000, "trial_type": "single-audio", "word": "twister", "stimulus": "/static/audio/wordpool/TWISTER.wav", "conditions": [18, 1200, "a", 18000], "internal_node_id": "0.0-20.0", "trial": 0, "time_elapsed": 593071, "serialpos": 8, "key_press": -1, "wordID": 1529, "type": "PRES_AUD", "trial_index": 29}, "uniqueid": "MTK2244:3MYYFCXHJ4EIQWEY61B9TQXYVFWG4L", "dateTime": 1516903008910}, {"current_trial": 30, "trialdata": {"rt": -1000, "trial_type": "single-audio", "word": "staple", "stimulus": "/static/audio/wordpool/STAPLE.wav", "conditions": [18, 1200, "a", 18000], "internal_node_id": "0.0-21.0", "trial": 0, "time_elapsed": 595080, "serialpos": 9, "key_press": -1, "wordID": 1370, "type": "PRES_AUD", "trial_index": 30}, "uniqueid": "MTK2244:3MYYFCXHJ4EIQWEY61B9TQXYVFWG4L", "dateTime": 1516903010918}, {"current_trial": 31, "trialdata": {"rt": -1000, "trial_type": "single-audio", "word": "omelet", "stimulus": "/static/audio/wordpool/OMELET.wav", "conditions": [18, 1200, "a", 18000], "internal_node_id": "0.0-22.0", "trial": 0, "time_elapsed": 597243, "serialpos": 10, "key_press": -1, "wordID": 975, "type": "PRES_AUD", "trial_index": 31}, "uniqueid": "MTK2244:3MYYFCXHJ4EIQWEY61B9TQXYVFWG4L", "dateTime": 1516903013081}, {"current_trial": 32, "trialdata": {"rt": -1000, "trial_type": "single-audio", "word": "report", "stimulus": "/static/audio/wordpool/REPORT.wav", "conditions": [18, 1200, "a", 18000], "internal_node_id": "0.0-23.0", "trial": 0, "time_elapsed": 599518, "serialpos": 11, "key_press": -1, "wordID": 1183, "type": "PRES_AUD", "trial_index": 32}, "uniqueid": "MTK2244:3MYYFCXHJ4EIQWEY61B9TQXYVFWG4L", "dateTime": 1516903015356}, {"current_trial": 33, "trialdata": {"rt": -1000, "trial_type": "single-audio", "word": "lapel", "stimulus": "/static/audio/wordpool/LAPEL.wav", "conditions": [18, 1200, "a", 18000], "internal_node_id": "0.0-24.0", "trial": 0, "time_elapsed": 601660, "serialpos": 12, "key_press": -1, "wordID": 799, "type": "PRES_AUD", "trial_index": 33}, "uniqueid": "MTK2244:3MYYFCXHJ4EIQWEY61B9TQXYVFWG4L", "dateTime": 1516903017498}, {"current_trial": 34, "trialdata": {"rt": -1000, "trial_type": "single-audio", "word": "bug", "stimulus": "/static/audio/wordpool/BUG.wav", "conditions": [18, 1200, "a", 18000], "internal_node_id": "0.0-25.0", "trial": 0, "time_elapsed": 604012, "serialpos": 13, "key_press": -1, "wordID": 186, "type": "PRES_AUD", "trial_index": 34}, "uniqueid": "MTK2244:3MYYFCXHJ4EIQWEY61B9TQXYVFWG4L", "dateTime": 1516903019850}, {"current_trial": 35, "trialdata": {"rt": -1000, "trial_type": "single-audio", "word": "onion", "stimulus": "/static/audio/wordpool/ONION.wav", "conditions": [18, 1200, "a", 18000], "internal_node_id": "0.0-26.0", "trial": 0, "time_elapsed": 606387, "serialpos": 14, "key_press": -1, "wordID": 976, "type": "PRES_AUD", "trial_index": 35}, "uniqueid": "MTK2244:3MYYFCXHJ4EIQWEY61B9TQXYVFWG4L", "dateTime": 1516903022225}, {"current_trial": 36, "trialdata": {"rt": -1000, "trial_type": "single-audio", "word": "apple", "stimulus": "/static/audio/wordpool/APPLE.wav", "conditions": [18, 1200, "a", 18000], "internal_node_id": "0.0-27.0", "trial": 0, "time_elapsed": 608479, "serialpos": 15, "key_press": -1, "wordID": 32, "type": "PRES_AUD", "trial_index": 36}, "uniqueid": "MTK2244:3MYYFCXHJ4EIQWEY61B9TQXYVFWG4L", "dateTime": 1516903024317}, {"current_trial": 37, "trialdata": {"rt": -1000, "trial_type": "single-audio", "word": "necklace", "stimulus": "/static/audio/wordpool/NECKLACE.wav", "conditions": [18, 1200, "a", 18000], "internal_node_id": "0.0-28.0", "trial": 0, "time_elapsed": 610825, "serialpos": 16, "key_press": -1, "wordID": 939, "type": "PRES_AUD", "trial_index": 37}, "uniqueid": "MTK2244:3MYYFCXHJ4EIQWEY61B9TQXYVFWG4L", "dateTime": 1516903026663}, {"current_trial": 38, "trialdata": {"rt": -1000, "trial_type": "single-audio", "word": "girl", "stimulus": "/static/audio/wordpool/GIRL.wav", "conditions": [18, 1200, "a", 18000], "internal_node_id": "0.0-29.0", "trial": 0, "time_elapsed": 613062, "serialpos": 17, "key_press": -1, "wordID": 636, "type": "PRES_AUD", "trial_index": 38}, "uniqueid": "MTK2244:3MYYFCXHJ4EIQWEY61B9TQXYVFWG4L", "dateTime": 1516903028901}, {"current_trial": 39, "trialdata": {"rt": -1, "trial_type": "single-stim", "stimulus": "", "internal_node_id": "0.0-30.0-0.0", "time_elapsed": 614404, "key_press": -1, "type": "PRE_RECALL_DELAY", "trial_index": 39}, "uniqueid": "MTK2244:3MYYFCXHJ4EIQWEY61B9TQXYVFWG4L", "dateTime": 1516903030243}, {"current_trial": 40, "trialdata": {"rt": -1000, "trial_type": "single-audio", "stimulus": "/static/audio/400Hz.wav", "internal_node_id": "0.0-31.0", "time_elapsed": 614911, "key_press": -1, "type": "PRE_RECALL_ALERT", "trial_index": 40}, "uniqueid": "MTK2244:3MYYFCXHJ4EIQWEY61B9TQXYVFWG4L", "dateTime": 1516903030750}, {"current_trial": 41, "trialdata": {"rt": [2258, 3513, 4481, 7121, 8113, 9945, 14105, 19249], "recwords": ["ox", "moth", "bug", "suitcase", "girl", "actress", "breast", "lapel"], "key_times": [1706, 1818, 2258, 2738, 2850, 2914, 3009, 3513, 3881, 3993, 4137, 4481, 4883, 5001, 5073, 5257, 5474, 6025, 6473, 6578, 6642, 6745, 7121, 7449, 7529, 7689, 7793, 8113, 8674, 8849, 9009, 9177, 9201, 9409, 9545, 9945, 11193, 11537, 11602, 11713, 11769, 12377, 12442, 12497, 14105, 18321, 18393, 18657, 18970, 19058, 19249], "trial_type": "free-recall", "conditions": [18, 1200, "a", 18000], "internal_node_id": "0.0-32.0-0.0", "key_presses": [79, 88, 13, 77, 79, 84, 72, 13, 66, 85, 71, 13, 83, 85, 73, 84, 67, 83, 8, 65, 83, 69, 13, 71, 73, 82, 76, 13, 65, 67, 84, 82, 69, 83, 83, 13, 66, 82, 69, 65, 84, 8, 83, 84, 13, 76, 65, 80, 69, 76, 13], "trial": 0, "time_elapsed": 674917, "type": "FREE_RECALL", "trial_index": 41}, "uniqueid": "MTK2244:3MYYFCXHJ4EIQWEY61B9TQXYVFWG4L", "dateTime": 1516903090759}, {"current_trial": 42, "trialdata": {"rt": 1833, "trial_type": "text", "internal_node_id": "0.0-33.0", "time_elapsed": 678765, "key_press": 32, "type": "INSTRUCTIONS", "trial_index": 42}, "uniqueid": "MTK2244:3MYYFCXHJ4EIQWEY61B9TQXYVFWG4L", "dateTime": 1516903094603}, {"current_trial": 43, "trialdata": {"rt": [4473, 6825, 8817, 10488, 12022, 14240, 17801], "trial_type": "math-distractor", "key_times": [2169, 2265, 3721, 4184, 4473, 5768, 6328, 6825, 8385, 8456, 8817, 10088, 10208, 10488, 11649, 11728, 12022, 13880, 13997, 14240, 16032, 16088, 16888, 17313, 17801], "responses": ["17", "13", "15", "11", "15", "21", "14"], "num2": [4, 1, 5, 4, 9, 6, 1, 8], "num3": [5, 6, 4, 1, 5, 6, 4, 9], "conditions": [18, 1200, "a", 18000], "internal_node_id": "0.0-34.0", "key_presses": [97, 104, 8, 103, 13, 97, 99, 13, 97, 101, 13, 97, 97, 13, 97, 101, 13, 98, 97, 13, 97, 101, 8, 100, 13], "trial": 1, "time_elapsed": 698776, "type": "DISTRACTOR", "trial_index": 43, "num1": [8, 6, 6, 6, 1, 9, 9, 8]}, "uniqueid": "MTK2244:3MYYFCXHJ4EIQWEY61B9TQXYVFWG4L", "dateTime": 1516903114614}, {"current_trial": 44, "trialdata": {"rt": -1, "trial_type": "single-stim", "stimulus": "<p id=\"stim\">10</p>", "internal_node_id": "0.0-35.0-0.0", "time_elapsed": 701784, "key_press": -1, "trial_index": 44}, "uniqueid": "MTK2244:3MYYFCXHJ4EIQWEY61B9TQXYVFWG4L", "dateTime": 1516903117622}, {"current_trial": 45, "trialdata": {"rt": -1, "trial_type": "single-stim", "stimulus": "<p id=\"stim\">9</p>", "internal_node_id": "0.0-35.0-1.0", "time_elapsed": 702793, "key_press": -1, "trial_index": 45}, "uniqueid": "MTK2244:3MYYFCXHJ4EIQWEY61B9TQXYVFWG4L", "dateTime": 1516903118631}, {"current_trial": 46, "trialdata": {"rt": -1, "trial_type": "single-stim", "stimulus": "<p id=\"stim\">8</p>", "internal_node_id": "0.0-35.0-2.0", "time_elapsed": 703796, "key_press": -1, "trial_index": 46}, "uniqueid": "MTK2244:3MYYFCXHJ4EIQWEY61B9TQXYVFWG4L", "dateTime": 1516903119635}, {"current_trial": 47, "trialdata": {"rt": -1, "trial_type": "single-stim", "stimulus": "<p id=\"stim\">7</p>", "internal_node_id": "0.0-35.0-3.0", "time_elapsed": 704807, "key_press": -1, "trial_index": 47}, "uniqueid": "MTK2244:3MYYFCXHJ4EIQWEY61B9TQXYVFWG4L", "dateTime": 1516903120645}, {"current_trial": 48, "trialdata": {"rt": -1, "trial_type": "single-stim", "stimulus": "<p id=\"stim\">6</p>", "internal_node_id": "0.0-35.0-4.0", "time_elapsed": 705809, "key_press": -1, "trial_index": 48}, "uniqueid": "MTK2244:3MYYFCXHJ4EIQWEY61B9TQXYVFWG4L", "dateTime": 1516903121647}, {"current_trial": 49, "trialdata": {"rt": 332, "trial_type": "single-stim", "stimulus": "<p id=\"stim\">5</p>", "internal_node_id": "0.0-35.0-5.0", "time_elapsed": 706819, "key_press": 183, "trial_index": 49}, "uniqueid": "MTK2244:3MYYFCXHJ4EIQWEY61B9TQXYVFWG4L", "dateTime": 1516903122657}, {"current_trial": 50, "trialdata": {"rt": -1, "trial_type": "single-stim", "stimulus": "<p id=\"stim\">4</p>", "internal_node_id": "0.0-35.0-6.0", "time_elapsed": 707822, "key_press": -1, "trial_index": 50}, "uniqueid": "MTK2244:3MYYFCXHJ4EIQWEY61B9TQXYVFWG4L", "dateTime": 1516903123660}, {"current_trial": 51, "trialdata": {"rt": -1, "trial_type": "single-stim", "stimulus": "<p id=\"stim\">3</p>", "internal_node_id": "0.0-35.0-7.0", "time_elapsed": 708873, "key_press": -1, "trial_index": 51}, "uniqueid": "MTK2244:3MYYFCXHJ4EIQWEY61B9TQXYVFWG4L", "dateTime": 1516903124711}, {"current_trial": 52, "trialdata": {"rt": -1, "trial_type": "single-stim", "stimulus": "<p id=\"stim\">2</p>", "internal_node_id": "0.0-35.0-8.0", "time_elapsed": 709875, "key_press": -1, "trial_index": 52}, "uniqueid": "MTK2244:3MYYFCXHJ4EIQWEY61B9TQXYVFWG4L", "dateTime": 1516903125713}, {"current_trial": 53, "trialdata": {"rt": -1, "trial_type": "single-stim", "stimulus": "<p id=\"stim\">1</p>", "internal_node_id": "0.0-35.0-9.0", "time_elapsed": 710877, "key_press": -1, "trial_index": 53}, "uniqueid": "MTK2244:3MYYFCXHJ4EIQWEY61B9TQXYVFWG4L", "dateTime": 1516903126715}, {"current_trial": 54, "trialdata": {"rt": -1, "trial_type": "single-stim", "stimulus": "<p id=\"stim\">+</p>", "internal_node_id": "0.0-36.0-0.0", "time_elapsed": 712386, "key_press": -1, "type": "FIXATION", "trial_index": 54}, "uniqueid": "MTK2244:3MYYFCXHJ4EIQWEY61B9TQXYVFWG4L", "dateTime": 1516903128224}, {"current_trial": 55, "trialdata": {"rt": -1000, "trial_type": "single-audio", "word": "brook", "stimulus": "/static/audio/wordpool/BROOK.wav", "conditions": [18, 1200, "a", 18000], "internal_node_id": "0.0-37.0", "trial": 1, "time_elapsed": 714777, "serialpos": 0, "key_press": -1, "wordID": 176, "type": "PRES_AUD", "trial_index": 55}, "uniqueid": "MTK2244:3MYYFCXHJ4EIQWEY61B9TQXYVFWG4L", "dateTime": 1516903130615}, {"current_trial": 56, "trialdata": {"rt": -1000, "trial_type": "single-audio", "word": "dresser", "stimulus": "/static/audio/wordpool/DRESSER.wav", "conditions": [18, 1200, "a", 18000], "internal_node_id": "0.0-38.0", "trial": 1, "time_elapsed": 717072, "serialpos": 1, "key_press": -1, "wordID": 495, "type": "PRES_AUD", "trial_index": 56}, "uniqueid": "MTK2244:3MYYFCXHJ4EIQWEY61B9TQXYVFWG4L", "dateTime": 1516903132910}, {"current_trial": 57, "trialdata": {"rt": -1000, "trial_type": "single-audio", "word": "viking", "stimulus": "/static/audio/wordpool/VIKING.wav", "conditions": [18, 1200, "a", 18000], "internal_node_id": "0.0-39.0", "trial": 1, "time_elapsed": 719252, "serialpos": 2, "key_press": -1, "wordID": 1564, "type": "PRES_AUD", "trial_index": 57}, "uniqueid": "MTK2244:3MYYFCXHJ4EIQWEY61B9TQXYVFWG4L", "dateTime": 1516903135090}, {"current_trial": 58, "trialdata": {"rt": -1000, "trial_type": "single-audio", "word": "star", "stimulus": "/static/audio/wordpool/STAR.wav", "conditions": [18, 1200, "a", 18000], "internal_node_id": "0.0-40.0", "trial": 1, "time_elapsed": 721619, "serialpos": 3, "key_press": -1, "wordID": 1372, "type": "PRES_AUD", "trial_index": 58}, "uniqueid": "MTK2244:3MYYFCXHJ4EIQWEY61B9TQXYVFWG4L", "dateTime": 1516903137457}, {"current_trial": 59, "trialdata": {"rt": -1000, "trial_type": "single-audio", "word": "donor", "stimulus": "/static/audio/wordpool/DONOR.wav", "conditions": [18, 1200, "a", 18000], "internal_node_id": "0.0-41.0", "trial": 1, "time_elapsed": 723942, "serialpos": 4, "key_press": -1, "wordID": 484, "type": "PRES_AUD", "trial_index": 59}, "uniqueid": "MTK2244:3MYYFCXHJ4EIQWEY61B9TQXYVFWG4L", "dateTime": 1516903139780}, {"current_trial": 60, "trialdata": {"rt": -1000, "trial_type": "single-audio", "word": "canal", "stimulus": "/static/audio/wordpool/CANAL.wav", "conditions": [18, 1200, "a", 18000], "internal_node_id": "0.0-42.0", "trial": 1, "time_elapsed": 726239, "serialpos": 5, "key_press": -1, "wordID": 225, "type": "PRES_AUD", "trial_index": 60}, "uniqueid": "MTK2244:3MYYFCXHJ4EIQWEY61B9TQXYVFWG4L", "dateTime": 1516903142077}, {"current_trial": 61, "trialdata": {"rt": -1000, "trial_type": "single-audio", "word": "cabin", "stimulus": "/static/audio/wordpool/CABIN.wav", "conditions": [18, 1200, "a", 18000], "internal_node_id": "0.0-43.0", "trial": 1, "time_elapsed": 728470, "serialpos": 6, "key_press": -1, "wordID": 210, "type": "PRES_AUD", "trial_index": 61}, "uniqueid": "MTK2244:3MYYFCXHJ4EIQWEY61B9TQXYVFWG4L", "dateTime": 1516903144308}, {"current_trial": 62, "trialdata": {"rt": -1000, "trial_type": "single-audio", "word": "teacher", "stimulus": "/static/audio/wordpool/TEACHER.wav", "conditions": [18, 1200, "a", 18000], "internal_node_id": "0.0-44.0", "trial": 1, "time_elapsed": 730564, "serialpos": 7, "key_press": -1, "wordID": 1439, "type": "PRES_AUD", "trial_index": 62}, "uniqueid": "MTK2244:3MYYFCXHJ4EIQWEY61B9TQXYVFWG4L", "dateTime": 1516903146402}, {"current_trial": 63, "trialdata": {"rt": -1000, "trial_type": "single-audio", "word": "radish", "stimulus": "/static/audio/wordpool/RADISH.wav", "conditions": [18, 1200, "a", 18000], "internal_node_id": "0.0-45.0", "trial": 1, "time_elapsed": 732922, "serialpos": 8, "key_press": -1, "wordID": 1157, "type": "PRES_AUD", "trial_index": 63}, "uniqueid": "MTK2244:3MYYFCXHJ4EIQWEY61B9TQXYVFWG4L", "dateTime": 1516903148760}, {"current_trial": 64, "trialdata": {"rt": -1000, "trial_type": "single-audio", "word": "dustpan", "stimulus": "/static/audio/wordpool/DUSTPAN.wav", "conditions": [18, 1200, "a", 18000], "internal_node_id": "0.0-46.0", "trial": 1, "time_elapsed": 735083, "serialpos": 9, "key_press": -1, "wordID": 508, "type": "PRES_AUD", "trial_index": 64}, "uniqueid": "MTK2244:3MYYFCXHJ4EIQWEY61B9TQXYVFWG4L", "dateTime": 1516903150922}, {"current_trial": 65, "trialdata": {"rt": -1000, "trial_type": "single-audio", "word": "braces", "stimulus": "/static/audio/wordpool/BRACES.wav", "conditions": [18, 1200, "a", 18000], "internal_node_id": "0.0-47.0", "trial": 1, "time_elapsed": 737100, "serialpos": 10, "key_press": -1, "wordID": 163, "type": "PRES_AUD", "trial_index": 65}, "uniqueid": "MTK2244:3MYYFCXHJ4EIQWEY61B9TQXYVFWG4L", "dateTime": 1516903152938}, {"current_trial": 66, "trialdata": {"rt": -1000, "trial_type": "single-audio", "word": "seafood", "stimulus": "/static/audio/wordpool/SEAFOOD.wav", "conditions": [18, 1200, "a", 18000], "internal_node_id": "0.0-48.0", "trial": 1, "time_elapsed": 739345, "serialpos": 11, "key_press": -1, "wordID": 1259, "type": "PRES_AUD", "trial_index": 66}, "uniqueid": "MTK2244:3MYYFCXHJ4EIQWEY61B9TQXYVFWG4L", "dateTime": 1516903155183}, {"current_trial": 67, "trialdata": {"rt": -1000, "trial_type": "single-audio", "word": "coffee", "stimulus": "/static/audio/wordpool/COFFEE.wav", "conditions": [18, 1200, "a", 18000], "internal_node_id": "0.0-49.0", "trial": 1, "time_elapsed": 741614, "serialpos": 12, "key_press": -1, "wordID": 340, "type": "PRES_AUD", "trial_index": 67}, "uniqueid": "MTK2244:3MYYFCXHJ4EIQWEY61B9TQXYVFWG4L", "dateTime": 1516903157452}, {"current_trial": 68, "trialdata": {"rt": -1000, "trial_type": "single-audio", "word": "carrot", "stimulus": "/static/audio/wordpool/CARROT.wav", "conditions": [18, 1200, "a", 18000], "internal_node_id": "0.0-50.0", "trial": 1, "time_elapsed": 743727, "serialpos": 13, "key_press": -1, "wordID": 248, "type": "PRES_AUD", "trial_index": 68}, "uniqueid": "MTK2244:3MYYFCXHJ4EIQWEY61B9TQXYVFWG4L", "dateTime": 1516903159565}, {"current_trial": 69, "trialdata": {"rt": -1000, "trial_type": "single-audio", "word": "temple", "stimulus": "/static/audio/wordpool/TEMPLE.wav", "conditions": [18, 1200, "a", 18000], "internal_node_id": "0.0-51.0", "trial": 1, "time_elapsed": 745896, "serialpos": 14, "key_press": -1, "wordID": 1447, "type": "PRES_AUD", "trial_index": 69}, "uniqueid": "MTK2244:3MYYFCXHJ4EIQWEY61B9TQXYVFWG4L", "dateTime": 1516903161735}, {"current_trial": 70, "trialdata": {"rt": -1000, "trial_type": "single-audio", "word": "tortoise", "stimulus": "/static/audio/wordpool/TORTOISE.wav", "conditions": [18, 1200, "a", 18000], "internal_node_id": "0.0-52.0", "trial": 1, "time_elapsed": 748117, "serialpos": 15, "key_press": -1, "wordID": 1485, "type": "PRES_AUD", "trial_index": 70}, "uniqueid": "MTK2244:3MYYFCXHJ4EIQWEY61B9TQXYVFWG4L", "dateTime": 1516903163956}, {"current_trial": 71, "trialdata": {"rt": -1000, "trial_type": "single-audio", "word": "robber", "stimulus": "/static/audio/wordpool/ROBBER.wav", "conditions": [18, 1200, "a", 18000], "internal_node_id": "0.0-53.0", "trial": 1, "time_elapsed": 750478, "serialpos": 16, "key_press": -1, "wordID": 1196, "type": "PRES_AUD", "trial_index": 71}, "uniqueid": "MTK2244:3MYYFCXHJ4EIQWEY61B9TQXYVFWG4L", "dateTime": 1516903166316}, {"current_trial": 72, "trialdata": {"rt": -1000, "trial_type": "single-audio", "word": "hiker", "stimulus": "/static/audio/wordpool/HIKER.wav", "conditions": [18, 1200, "a", 18000], "internal_node_id": "0.0-54.0", "trial": 1, "time_elapsed": 752831, "serialpos": 17, "key_press": -1, "wordID": 707, "type": "PRES_AUD", "trial_index": 72}, "uniqueid": "MTK2244:3MYYFCXHJ4EIQWEY61B9TQXYVFWG4L", "dateTime": 1516903168669}, {"current_trial": 73, "trialdata": {"rt": -1, "trial_type": "single-stim", "stimulus": "", "internal_node_id": "0.0-55.0-0.0", "time_elapsed": 754049, "key_press": -1, "type": "PRE_RECALL_DELAY", "trial_index": 73}, "uniqueid": "MTK2244:3MYYFCXHJ4EIQWEY61B9TQXYVFWG4L", "dateTime": 1516903169887}, {"current_trial": 74, "trialdata": {"rt": -1000, "trial_type": "single-audio", "stimulus": "/static/audio/400Hz.wav", "internal_node_id": "0.0-56.0", "time_elapsed": 754557, "key_press": -1, "type": "PRE_RECALL_ALERT", "trial_index": 74}, "uniqueid": "MTK2244:3MYYFCXHJ4EIQWEY61B9TQXYVFWG4L", "dateTime": 1516903170395}, {"current_trial": 75, "trialdata": {"rt": [1716, 3363, 5331, 6923, 9043, 12387, 15835], "recwords": ["hiker", "viking", "tortoise", "brook", "dresser", "seafood", "cabin"], "key_times": [788, 843, 1084, 1244, 1348, 1716, 2003, 2091, 2259, 2427, 2764, 2867, 3363, 3979, 4044, 4147, 4379, 4523, 4634, 4939, 5027, 5331, 5731, 5899, 5964, 6163, 6347, 6923, 7315, 7499, 7595, 7803, 7915, 8107, 8155, 9043, 10947, 11068, 11211, 11651, 11876, 11995, 12116, 12387, 14243, 14348, 14587, 14683, 14811, 15835], "trial_type": "free-recall", "conditions": [18, 1200, "a", 18000], "internal_node_id": "0.0-57.0-0.0", "key_presses": [72, 73, 75, 69, 82, 13, 86, 73, 75, 73, 78, 71, 13, 84, 79, 82, 84, 79, 73, 83, 69, 13, 66, 82, 79, 79, 75, 13, 68, 82, 69, 83, 83, 69, 82, 13, 83, 69, 65, 70, 79, 79, 68, 13, 67, 65, 66, 73, 78, 13], "trial": 1, "time_elapsed": 814563, "type": "FREE_RECALL", "trial_index": 75}, "uniqueid": "MTK2244:3MYYFCXHJ4EIQWEY61B9TQXYVFWG4L", "dateTime": 1516903230405}, {"current_trial": 76, "trialdata": {"rt": 8076, "trial_type": "text", "internal_node_id": "0.0-58.0", "time_elapsed": 824652, "key_press": 32, "type": "INSTRUCTIONS", "trial_index": 76}, "uniqueid": "MTK2244:3MYYFCXHJ4EIQWEY61B9TQXYVFWG4L", "dateTime": 1516903240491}, {"current_trial": 77, "trialdata": {"rt": [1460, 5683, 7900, 9444], "trial_type": "math-distractor", "key_times": [1270, 1460, 5387, 5483, 5683, 7604, 7667, 7900, 9107, 9171, 9444, 11611, 11787], "responses": ["8", "11", "15", "15"], "num2": [3, 5, 9, 4, 8], "num3": [4, 4, 3, 9, 5], "conditions": [12, 1600, "a", 12000], "internal_node_id": "0.0-59.0", "key_presses": [104, 13, 97, 97, 13, 97, 101, 13, 97, 101, 13, 97, 103], "trial": 2, "time_elapsed": 837664, "type": "DISTRACTOR", "trial_index": 77, "num1": [1, 2, 3, 1, 4]}, "uniqueid": "MTK2244:3MYYFCXHJ4EIQWEY61B9TQXYVFWG4L", "dateTime": 1516903253503}, {"current_trial": 78, "trialdata": {"rt": -1, "trial_type": "single-stim", "stimulus": "<p id=\"stim\">10</p>", "internal_node_id": "0.0-60.0-0.0", "time_elapsed": 840673, "key_press": -1, "trial_index": 78}, "uniqueid": "MTK2244:3MYYFCXHJ4EIQWEY61B9TQXYVFWG4L", "dateTime": 1516903256512}, {"current_trial": 79, "trialdata": {"rt": -1, "trial_type": "single-stim", "stimulus": "<p id=\"stim\">9</p>", "internal_node_id": "0.0-60.0-1.0", "time_elapsed": 841676, "key_press": -1, "trial_index": 79}, "uniqueid": "MTK2244:3MYYFCXHJ4EIQWEY61B9TQXYVFWG4L", "dateTime": 1516903257514}, {"current_trial": 80, "trialdata": {"rt": -1, "trial_type": "single-stim", "stimulus": "<p id=\"stim\">8</p>", "internal_node_id": "0.0-60.0-2.0", "time_elapsed": 842678, "key_press": -1, "trial_index": 80}, "uniqueid": "MTK2244:3MYYFCXHJ4EIQWEY61B9TQXYVFWG4L", "dateTime": 1516903258517}, {"current_trial": 81, "trialdata": {"rt": -1, "trial_type": "single-stim", "stimulus": "<p id=\"stim\">7</p>", "internal_node_id": "0.0-60.0-3.0", "time_elapsed": 843683, "key_press": -1, "trial_index": 81}, "uniqueid": "MTK2244:3MYYFCXHJ4EIQWEY61B9TQXYVFWG4L", "dateTime": 1516903259521}, {"current_trial": 82, "trialdata": {"rt": -1, "trial_type": "single-stim", "stimulus": "<p id=\"stim\">6</p>", "internal_node_id": "0.0-60.0-4.0", "time_elapsed": 844685, "key_press": -1, "trial_index": 82}, "uniqueid": "MTK2244:3MYYFCXHJ4EIQWEY61B9TQXYVFWG4L", "dateTime": 1516903260523}, {"current_trial": 83, "trialdata": {"rt": -1, "trial_type": "single-stim", "stimulus": "<p id=\"stim\">5</p>", "internal_node_id": "0.0-60.0-5.0", "time_elapsed": 845687, "key_press": -1, "trial_index": 83}, "uniqueid": "MTK2244:3MYYFCXHJ4EIQWEY61B9TQXYVFWG4L", "dateTime": 1516903261525}, {"current_trial": 84, "trialdata": {"rt": -1, "trial_type": "single-stim", "stimulus": "<p id=\"stim\">4</p>", "internal_node_id": "0.0-60.0-6.0", "time_elapsed": 846691, "key_press": -1, "trial_index": 84}, "uniqueid": "MTK2244:3MYYFCXHJ4EIQWEY61B9TQXYVFWG4L", "dateTime": 1516903262529}, {"current_trial": 85, "trialdata": {"rt": -1, "trial_type": "single-stim", "stimulus": "<p id=\"stim\">3</p>", "internal_node_id": "0.0-60.0-7.0", "time_elapsed": 847694, "key_press": -1, "trial_index": 85}, "uniqueid": "MTK2244:3MYYFCXHJ4EIQWEY61B9TQXYVFWG4L", "dateTime": 1516903263533}, {"current_trial": 86, "trialdata": {"rt": -1, "trial_type": "single-stim", "stimulus": "<p id=\"stim\">2</p>", "internal_node_id": "0.0-60.0-8.0", "time_elapsed": 848697, "key_press": -1, "trial_index": 86}, "uniqueid": "MTK2244:3MYYFCXHJ4EIQWEY61B9TQXYVFWG4L", "dateTime": 1516903264535}, {"current_trial": 87, "trialdata": {"rt": -1, "trial_type": "single-stim", "stimulus": "<p id=\"stim\">1</p>", "internal_node_id": "0.0-60.0-9.0", "time_elapsed": 849699, "key_press": -1, "trial_index": 87}, "uniqueid": "MTK2244:3MYYFCXHJ4EIQWEY61B9TQXYVFWG4L", "dateTime": 1516903265537}, {"current_trial": 88, "trialdata": {"rt": -1, "trial_type": "single-stim", "stimulus": "<p id=\"stim\">+</p>", "internal_node_id": "0.0-61.0-0.0", "time_elapsed": 851207, "key_press": -1, "type": "FIXATION", "trial_index": 88}, "uniqueid": "MTK2244:3MYYFCXHJ4EIQWEY61B9TQXYVFWG4L", "dateTime": 1516903267045}, {"current_trial": 89, "trialdata": {"rt": -1000, "trial_type": "single-audio", "word": "dolphin", "stimulus": "/static/audio/wordpool/DOLPHIN.wav", "conditions": [12, 1600, "a", 12000], "internal_node_id": "0.0-62.0", "trial": 2, "time_elapsed": 853876, "serialpos": 0, "key_press": -1, "wordID": 482, "type": "PRES_AUD", "trial_index": 89}, "uniqueid": "MTK2244:3MYYFCXHJ4EIQWEY61B9TQXYVFWG4L", "dateTime": 1516903269714}, {"current_trial": 90, "trialdata": {"rt": -1000, "trial_type": "single-audio", "word": "mailman", "stimulus": "/static/audio/wordpool/MAILMAN.wav", "conditions": [12, 1600, "a", 12000], "internal_node_id": "0.0-63.0", "trial": 2, "time_elapsed": 856285, "serialpos": 1, "key_press": -1, "wordID": 857, "type": "PRES_AUD", "trial_index": 90}, "uniqueid": "MTK2244:3MYYFCXHJ4EIQWEY61B9TQXYVFWG4L", "dateTime": 1516903272123}, {"current_trial": 91, "trialdata": {"rt": -1000, "trial_type": "single-audio", "word": "beef", "stimulus": "/static/audio/wordpool/BEEF.wav", "conditions": [12, 1600, "a", 12000], "internal_node_id": "0.0-64.0", "trial": 2, "time_elapsed": 858713, "serialpos": 2, "key_press": -1, "wordID": 112, "type": "PRES_AUD", "trial_index": 91}, "uniqueid": "MTK2244:3MYYFCXHJ4EIQWEY61B9TQXYVFWG4L", "dateTime": 1516903274551}, {"current_trial": 92, "trialdata": {"rt": -1000, "trial_type": "single-audio", "word": "cattle", "stimulus": "/static/audio/wordpool/CATTLE.wav", "conditions": [12, 1600, "a", 12000], "internal_node_id": "0.0-65.0", "trial": 2, "time_elapsed": 861266, "serialpos": 3, "key_press": -1, "wordID": 260, "type": "PRES_AUD", "trial_index": 92}, "uniqueid": "MTK2244:3MYYFCXHJ4EIQWEY61B9TQXYVFWG4L", "dateTime": 1516903277104}, {"current_trial": 93, "trialdata": {"rt": -1000, "trial_type": "single-audio", "word": "drink", "stimulus": "/static/audio/wordpool/DRINK.wav", "conditions": [12, 1600, "a", 12000], "internal_node_id": "0.0-66.0", "trial": 2, "time_elapsed": 863694, "serialpos": 4, "key_press": -1, "wordID": 497, "type": "PRES_AUD", "trial_index": 93}, "uniqueid": "MTK2244:3MYYFCXHJ4EIQWEY61B9TQXYVFWG4L", "dateTime": 1516903279533}, {"current_trial": 94, "trialdata": {"rt": -1000, "trial_type": "single-audio", "word": "stallion", "stimulus": "/static/audio/wordpool/STALLION.wav", "conditions": [12, 1600, "a", 12000], "internal_node_id": "0.0-67.0", "trial": 2, "time_elapsed": 866467, "serialpos": 5, "key_press": -1, "wordID": 1368, "type": "PRES_AUD", "trial_index": 94}, "uniqueid": "MTK2244:3MYYFCXHJ4EIQWEY61B9TQXYVFWG4L", "dateTime": 1516903282305}, {"current_trial": 95, "trialdata": {"rt": -1000, "trial_type": "single-audio", "word": "blueprint", "stimulus": "/static/audio/wordpool/BLUEPRINT.wav", "conditions": [12, 1600, "a", 12000], "internal_node_id": "0.0-68.0", "trial": 2, "time_elapsed": 869259, "serialpos": 6, "key_press": -1, "wordID": 141, "type": "PRES_AUD", "trial_index": 95}, "uniqueid": "MTK2244:3MYYFCXHJ4EIQWEY61B9TQXYVFWG4L", "dateTime": 1516903285097}, {"current_trial": 96, "trialdata": {"rt": -1000, "trial_type": "single-audio", "word": "flag", "stimulus": "/static/audio/wordpool/FLAG.wav", "conditions": [12, 1600, "a", 12000], "internal_node_id": "0.0-69.0", "trial": 2, "time_elapsed": 871734, "serialpos": 7, "key_press": -1, "wordID": 572, "type": "PRES_AUD", "trial_index": 96}, "uniqueid": "MTK2244:3MYYFCXHJ4EIQWEY61B9TQXYVFWG4L", "dateTime": 1516903287572}, {"current_trial": 97, "trialdata": {"rt": -1000, "trial_type": "single-audio", "word": "tombstone", "stimulus": "/static/audio/wordpool/TOMBSTONE.wav", "conditions": [12, 1600, "a", 12000], "internal_node_id": "0.0-70.0", "trial": 2, "time_elapsed": 874461, "serialpos": 8, "key_press": -1, "wordID": 1477, "type": "PRES_AUD", "trial_index": 97}, "uniqueid": "MTK2244:3MYYFCXHJ4EIQWEY61B9TQXYVFWG4L", "dateTime": 1516903290299}, {"current_trial": 98, "trialdata": {"rt": -1000, "trial_type": "single-audio", "word": "sibling", "stimulus": "/static/audio/wordpool/SIBLING.wav", "conditions": [12, 1600, "a", 12000], "internal_node_id": "0.0-71.0", "trial": 2, "time_elapsed": 877268, "serialpos": 9, "key_press": -1, "wordID": 1300, "type": "PRES_AUD", "trial_index": 98}, "uniqueid": "MTK2244:3MYYFCXHJ4EIQWEY61B9TQXYVFWG4L", "dateTime": 1516903293107}, {"current_trial": 99, "trialdata": {"rt": -1000, "trial_type": "single-audio", "word": "turtle", "stimulus": "/static/audio/wordpool/TURTLE.wav", "conditions": [12, 1600, "a", 12000], "internal_node_id": "0.0-72.0", "trial": 2, "time_elapsed": 879879, "serialpos": 10, "key_press": -1, "wordID": 1521, "type": "PRES_AUD", "trial_index": 99}, "uniqueid": "MTK2244:3MYYFCXHJ4EIQWEY61B9TQXYVFWG4L", "dateTime": 1516903295717}, {"current_trial": 100, "trialdata": {"rt": -1000, "trial_type": "single-audio", "word": "lover", "stimulus": "/static/audio/wordpool/LOVER.wav", "conditions": [12, 1600, "a", 12000], "internal_node_id": "0.0-73.0", "trial": 2, "time_elapsed": 882393, "serialpos": 11, "key_press": -1, "wordID": 845, "type": "PRES_AUD", "trial_index": 100}, "uniqueid": "MTK2244:3MYYFCXHJ4EIQWEY61B9TQXYVFWG4L", "dateTime": 1516903298232}, {"current_trial": 101, "trialdata": {"rt": -1, "trial_type": "single-stim", "stimulus": "", "internal_node_id": "0.0-74.0-0.0", "time_elapsed": 883625, "key_press": -1, "type": "PRE_RECALL_DELAY", "trial_index": 101}, "uniqueid": "MTK2244:3MYYFCXHJ4EIQWEY61B9TQXYVFWG4L", "dateTime": 1516903299464}, {"current_trial": 102, "trialdata": {"rt": -1000, "trial_type": "single-audio", "stimulus": "/static/audio/400Hz.wav", "internal_node_id": "0.0-75.0", "time_elapsed": 884134, "key_press": -1, "type": "PRE_RECALL_ALERT", "trial_index": 102}, "uniqueid": "MTK2244:3MYYFCXHJ4EIQWEY61B9TQXYVFWG4L", "dateTime": 1516903299973}, {"current_trial": 103, "trialdata": {"rt": [2458, 4235, 5899, 8266, 9363, 11690, 13770], "recwords": ["turtle", "lover", "dolphin", "mailman", "beef", "cattle", "drink"], "key_times": [1027, 1099, 1180, 1643, 1802, 1874, 2458, 2666, 2890, 3435, 3627, 3746, 3914, 3954, 4235, 4530, 4635, 4811, 5218, 5307, 5451, 5618, 5899, 6266, 6355, 6802, 6986, 7516, 7602, 7970, 8266, 8578, 8762, 8922, 9074, 9363, 9594, 9746, 9922, 10042, 10386, 10475, 11690, 11906, 12059, 12145, 12257, 12338, 13770], "trial_type": "free-recall", "conditions": [12, 1600, "a", 12000], "internal_node_id": "0.0-76.0-0.0", "key_presses": [84, 85, 82, 84, 76, 69, 13, 76, 86, 8, 79, 86, 69, 82, 13, 68, 79, 76, 80, 72, 73, 78, 13, 77, 65, 73, 76, 77, 65, 78, 13, 66, 69, 69, 70, 13, 67, 65, 84, 84, 76, 69, 13, 68, 82, 73, 78, 75, 13], "trial": 2, "time_elapsed": 944139, "type": "FREE_RECALL", "trial_index": 103}, "uniqueid": "MTK2244:3MYYFCXHJ4EIQWEY61B9TQXYVFWG4L", "dateTime": 1516903359981}, {"current_trial": 104, "trialdata": {"rt": 1906, "trial_type": "text", "internal_node_id": "0.0-77.0", "time_elapsed": 948060, "key_press": 32, "type": "INSTRUCTIONS", "trial_index": 104}, "uniqueid": "MTK2244:3MYYFCXHJ4EIQWEY61B9TQXYVFWG4L", "dateTime": 1516903363898}, {"current_trial": 105, "trialdata": {"rt": [2617, 5089, 6505, 9640], "trial_type": "math-distractor", "key_times": [2057, 2273, 2617, 4672, 4809, 5089, 6112, 6257, 6505, 8776, 9249, 9640, 11289], "responses": ["18", "19", "19", "11"], "num2": [1, 4, 5, 8, 3], "num3": [9, 7, 9, 1, 7], "conditions": [12, 800, "a", 12000], "internal_node_id": "0.0-78.0", "key_presses": [97, 104, 13, 97, 105, 13, 97, 105, 13, 97, 97, 13, 97], "trial": 3, "time_elapsed": 962081, "type": "DISTRACTOR", "trial_index": 105, "num1": [8, 8, 5, 2, 3]}, "uniqueid": "MTK2244:3MYYFCXHJ4EIQWEY61B9TQXYVFWG4L", "dateTime": 1516903377919}, {"current_trial": 106, "trialdata": {"rt": -1, "trial_type": "single-stim", "stimulus": "<p id=\"stim\">10</p>", "internal_node_id": "0.0-79.0-0.0", "time_elapsed": 965086, "key_press": -1, "trial_index": 106}, "uniqueid": "MTK2244:3MYYFCXHJ4EIQWEY61B9TQXYVFWG4L", "dateTime": 1516903380925}, {"current_trial": 107, "trialdata": {"rt": -1, "trial_type": "single-stim", "stimulus": "<p id=\"stim\">9</p>", "internal_node_id": "0.0-79.0-1.0", "time_elapsed": 966096, "key_press": -1, "trial_index": 107}, "uniqueid": "MTK2244:3MYYFCXHJ4EIQWEY61B9TQXYVFWG4L", "dateTime": 1516903381934}, {"current_trial": 108, "trialdata": {"rt": -1, "trial_type": "single-stim", "stimulus": "<p id=\"stim\">8</p>", "internal_node_id": "0.0-79.0-2.0", "time_elapsed": 967103, "key_press": -1, "trial_index": 108}, "uniqueid": "MTK2244:3MYYFCXHJ4EIQWEY61B9TQXYVFWG4L", "dateTime": 1516903382942}, {"current_trial": 109, "trialdata": {"rt": -1, "trial_type": "single-stim", "stimulus": "<p id=\"stim\">7</p>", "internal_node_id": "0.0-79.0-3.0", "time_elapsed": 968106, "key_press": -1, "trial_index": 109}, "uniqueid": "MTK2244:3MYYFCXHJ4EIQWEY61B9TQXYVFWG4L", "dateTime": 1516903383945}, {"current_trial": 110, "trialdata": {"rt": -1, "trial_type": "single-stim", "stimulus": "<p id=\"stim\">6</p>", "internal_node_id": "0.0-79.0-4.0", "time_elapsed": 969111, "key_press": -1, "trial_index": 110}, "uniqueid": "MTK2244:3MYYFCXHJ4EIQWEY61B9TQXYVFWG4L", "dateTime": 1516903384949}, {"current_trial": 111, "trialdata": {"rt": -1, "trial_type": "single-stim", "stimulus": "<p id=\"stim\">5</p>", "internal_node_id": "0.0-79.0-5.0", "time_elapsed": 970114, "key_press": -1, "trial_index": 111}, "uniqueid": "MTK2244:3MYYFCXHJ4EIQWEY61B9TQXYVFWG4L", "dateTime": 1516903385952}, {"current_trial": 112, "trialdata": {"rt": -1, "trial_type": "single-stim", "stimulus": "<p id=\"stim\">4</p>", "internal_node_id": "0.0-79.0-6.0", "time_elapsed": 971115, "key_press": -1, "trial_index": 112}, "uniqueid": "MTK2244:3MYYFCXHJ4EIQWEY61B9TQXYVFWG4L", "dateTime": 1516903386953}, {"current_trial": 113, "trialdata": {"rt": -1, "trial_type": "single-stim", "stimulus": "<p id=\"stim\">3</p>", "internal_node_id": "0.0-79.0-7.0", "time_elapsed": 972118, "key_press": -1, "trial_index": 113}, "uniqueid": "MTK2244:3MYYFCXHJ4EIQWEY61B9TQXYVFWG4L", "dateTime": 1516903387957}, {"current_trial": 114, "trialdata": {"rt": -1, "trial_type": "single-stim", "stimulus": "<p id=\"stim\">2</p>", "internal_node_id": "0.0-79.0-8.0", "time_elapsed": 973123, "key_press": -1, "trial_index": 114}, "uniqueid": "MTK2244:3MYYFCXHJ4EIQWEY61B9TQXYVFWG4L", "dateTime": 1516903388961}, {"current_trial": 115, "trialdata": {"rt": -1, "trial_type": "single-stim", "stimulus": "<p id=\"stim\">1</p>", "internal_node_id": "0.0-79.0-9.0", "time_elapsed": 974130, "key_press": -1, "trial_index": 115}, "uniqueid": "MTK2244:3MYYFCXHJ4EIQWEY61B9TQXYVFWG4L", "dateTime": 1516903389968}, {"current_trial": 116, "trialdata": {"rt": -1, "trial_type": "single-stim", "stimulus": "<p id=\"stim\">+</p>", "internal_node_id": "0.0-80.0-0.0", "time_elapsed": 975640, "key_press": -1, "type": "FIXATION", "trial_index": 116}, "uniqueid": "MTK2244:3MYYFCXHJ4EIQWEY61B9TQXYVFWG4L", "dateTime": 1516903391478}, {"current_trial": 117, "trialdata": {"rt": -1000, "trial_type": "single-audio", "word": "daughter", "stimulus": "/static/audio/wordpool/DAUGHTER.wav", "conditions": [12, 800, "a", 12000], "internal_node_id": "0.0-81.0", "trial": 3, "time_elapsed": 977247, "serialpos": 0, "key_press": -1, "wordID": 441, "type": "PRES_AUD", "trial_index": 117}, "uniqueid": "MTK2244:3MYYFCXHJ4EIQWEY61B9TQXYVFWG4L", "dateTime": 1516903393085}, {"current_trial": 118, "trialdata": {"rt": -1000, "trial_type": "single-audio", "word": "zebra", "stimulus": "/static/audio/wordpool/ZEBRA.wav", "conditions": [12, 800, "a", 12000], "internal_node_id": "0.0-82.0", "trial": 3, "time_elapsed": 978942, "serialpos": 1, "key_press": -1, "wordID": 1634, "type": "PRES_AUD", "trial_index": 118}, "uniqueid": "MTK2244:3MYYFCXHJ4EIQWEY61B9TQXYVFWG4L", "dateTime": 1516903394780}, {"current_trial": 119, "trialdata": {"rt": -1000, "trial_type": "single-audio", "word": "wasp", "stimulus": "/static/audio/wordpool/WASP.wav", "conditions": [12, 800, "a", 12000], "internal_node_id": "0.0-83.0", "trial": 3, "time_elapsed": 980734, "serialpos": 2, "key_press": -1, "wordID": 1592, "type": "PRES_AUD", "trial_index": 119}, "uniqueid": "MTK2244:3MYYFCXHJ4EIQWEY61B9TQXYVFWG4L", "dateTime": 1516903396572}, {"current_trial": 120, "trialdata": {"rt": -1000, "trial_type": "single-audio", "word": "flute", "stimulus": "/static/audio/wordpool/FLUTE.wav", "conditions": [12, 800, "a", 12000], "internal_node_id": "0.0-84.0", "trial": 3, "time_elapsed": 982476, "serialpos": 3, "key_press": -1, "wordID": 584, "type": "PRES_AUD", "trial_index": 120}, "uniqueid": "MTK2244:3MYYFCXHJ4EIQWEY61B9TQXYVFWG4L", "dateTime": 1516903398314}, {"current_trial": 121, "trialdata": {"rt": -1000, "trial_type": "single-audio", "word": "atom", "stimulus": "/static/audio/wordpool/ATOM.wav", "conditions": [12, 800, "a", 12000], "internal_node_id": "0.0-85.0", "trial": 3, "time_elapsed": 984190, "serialpos": 4, "key_press": -1, "wordID": 54, "type": "PRES_AUD", "trial_index": 121}, "uniqueid": "MTK2244:3MYYFCXHJ4EIQWEY61B9TQXYVFWG4L", "dateTime": 1516903400028}, {"current_trial": 122, "trialdata": {"rt": -1000, "trial_type": "single-audio", "word": "woman", "stimulus": "/static/audio/wordpool/WOMAN.wav", "conditions": [12, 800, "a", 12000], "internal_node_id": "0.0-86.0", "trial": 3, "time_elapsed": 986165, "serialpos": 5, "key_press": -1, "wordID": 1619, "type": "PRES_AUD", "trial_index": 122}, "uniqueid": "MTK2244:3MYYFCXHJ4EIQWEY61B9TQXYVFWG4L", "dateTime": 1516903402003}, {"current_trial": 123, "trialdata": {"rt": -1000, "trial_type": "single-audio", "word": "bunny", "stimulus": "/static/audio/wordpool/BUNNY.wav", "conditions": [12, 800, "a", 12000], "internal_node_id": "0.0-87.0", "trial": 3, "time_elapsed": 988151, "serialpos": 6, "key_press": -1, "wordID": 197, "type": "PRES_AUD", "trial_index": 123}, "uniqueid": "MTK2244:3MYYFCXHJ4EIQWEY61B9TQXYVFWG4L", "dateTime": 1516903403990}, {"current_trial": 124, "trialdata": {"rt": -1000, "trial_type": "single-audio", "word": "chipmunk", "stimulus": "/static/audio/wordpool/CHIPMUNK.wav", "conditions": [12, 800, "a", 12000], "internal_node_id": "0.0-88.0", "trial": 3, "time_elapsed": 989936, "serialpos": 7, "key_press": -1, "wordID": 303, "type": "PRES_AUD", "trial_index": 124}, "uniqueid": "MTK2244:3MYYFCXHJ4EIQWEY61B9TQXYVFWG4L", "dateTime": 1516903405774}, {"current_trial": 125, "trialdata": {"rt": -1000, "trial_type": "single-audio", "word": "lace", "stimulus": "/static/audio/wordpool/LACE.wav", "conditions": [12, 800, "a", 12000], "internal_node_id": "0.0-89.0", "trial": 3, "time_elapsed": 991826, "serialpos": 8, "key_press": -1, "wordID": 791, "type": "PRES_AUD", "trial_index": 125}, "uniqueid": "MTK2244:3MYYFCXHJ4EIQWEY61B9TQXYVFWG4L", "dateTime": 1516903407664}, {"current_trial": 126, "trialdata": {"rt": -1000, "trial_type": "single-audio", "word": "valve", "stimulus": "/static/audio/wordpool/VALVE.wav", "conditions": [12, 800, "a", 12000], "internal_node_id": "0.0-90.0", "trial": 3, "time_elapsed": 993473, "serialpos": 9, "key_press": -1, "wordID": 1545, "type": "PRES_AUD", "trial_index": 126}, "uniqueid": "MTK2244:3MYYFCXHJ4EIQWEY61B9TQXYVFWG4L", "dateTime": 1516903409311}, {"current_trial": 127, "trialdata": {"rt": -1000, "trial_type": "single-audio", "word": "sketch", "stimulus": "/static/audio/wordpool/SKETCH.wav", "conditions": [12, 800, "a", 12000], "internal_node_id": "0.0-91.0", "trial": 3, "time_elapsed": 995339, "serialpos": 10, "key_press": -1, "wordID": 1314, "type": "PRES_AUD", "trial_index": 127}, "uniqueid": "MTK2244:3MYYFCXHJ4EIQWEY61B9TQXYVFWG4L", "dateTime": 1516903411177}, {"current_trial": 128, "trialdata": {"rt": -1000, "trial_type": "single-audio", "word": "stove", "stimulus": "/static/audio/wordpool/STOVE.wav", "conditions": [12, 800, "a", 12000], "internal_node_id": "0.0-92.0", "trial": 3, "time_elapsed": 997306, "serialpos": 11, "key_press": -1, "wordID": 1387, "type": "PRES_AUD", "trial_index": 128}, "uniqueid": "MTK2244:3MYYFCXHJ4EIQWEY61B9TQXYVFWG4L", "dateTime": 1516903413144}, {"current_trial": 129, "trialdata": {"rt": -1, "trial_type": "single-stim", "stimulus": "", "internal_node_id": "0.0-93.0-0.0", "time_elapsed": 998565, "key_press": -1, "type": "PRE_RECALL_DELAY", "trial_index": 129}, "uniqueid": "MTK2244:3MYYFCXHJ4EIQWEY61B9TQXYVFWG4L", "dateTime": 1516903414403}, {"current_trial": 130, "trialdata": {"rt": -1000, "trial_type": "single-audio", "stimulus": "/static/audio/400Hz.wav", "internal_node_id": "0.0-94.0", "time_elapsed": 999070, "key_press": -1, "type": "PRE_RECALL_ALERT", "trial_index": 130}, "uniqueid": "MTK2244:3MYYFCXHJ4EIQWEY61B9TQXYVFWG4L", "dateTime": 1516903414908}, {"current_trial": 131, "trialdata": {"rt": [1203, 2494, 4043, 5746, 11250, 19296], "recwords": ["stove", "sketch", "daughter", "bunny", "chipmunk", "atom"], "key_times": [363, 442, 715, 842, 1002, 1203, 1410, 1498, 1610, 1682, 1931, 2011, 2494, 2754, 2882, 3050, 3194, 3322, 3530, 3746, 3794, 4043, 4316, 4419, 4634, 4754, 5050, 5746, 7346, 7410, 7506, 7730, 8074, 8330, 8738, 8834, 11250, 18323, 18448, 18634, 18834, 19296], "trial_type": "free-recall", "conditions": [12, 800, "a", 12000], "internal_node_id": "0.0-95.0-0.0", "key_presses": [83, 84, 79, 86, 69, 13, 83, 75, 69, 84, 67, 72, 13, 68, 65, 85, 71, 72, 84, 69, 82, 13, 66, 85, 78, 78, 89, 13, 67, 72, 73, 80, 77, 85, 78, 75, 13, 65, 84, 79, 77, 13], "trial": 3, "time_elapsed": 1059080, "type": "FREE_RECALL", "trial_index": 131}, "uniqueid": "MTK2244:3MYYFCXHJ4EIQWEY61B9TQXYVFWG4L", "dateTime": 1516903474922}, {"current_trial": 132, "trialdata": {"rt": 964, "trial_type": "text", "internal_node_id": "0.0-96.0", "time_elapsed": 1062052, "key_press": 32, "type": "INSTRUCTIONS", "trial_index": 132}, "uniqueid": "MTK2244:3MYYFCXHJ4EIQWEY61B9TQXYVFWG4L", "dateTime": 1516903477890}, {"current_trial": 133, "trialdata": {"rt": [2084, 4115, 6051, 7707, 8979, 11410, 13491, 15811, 17923, 19395], "trial_type": "math-distractor", "key_times": [1780, 1851, 2084, 3700, 3867, 4115, 5747, 5803, 6051, 7422, 7707, 8755, 8979, 10956, 11179, 11410, 13067, 13251, 13491, 15619, 15811, 17627, 17716, 17923, 19045, 19219, 19395, 22876, 23107, 23724], "responses": ["15", "14", "12", "9", "8", "20", "17", "7", "18", "10"], "num2": [5, 9, 3, 3, 3, 7, 5, 3, 9, 2, 5], "num3": [4, 1, 3, 3, 3, 9, 5, 1, 5, 1, 4], "conditions": [12, 800, "a", 24000], "internal_node_id": "0.0-97.0", "key_presses": [97, 101, 13, 97, 100, 13, 97, 98, 13, 105, 13, 104, 13, 98, 96, 13, 97, 103, 13, 103, 13, 97, 104, 13, 97, 96, 13, 97, 101, 8], "trial": 4, "time_elapsed": 1088062, "type": "DISTRACTOR", "trial_index": 133, "num1": [6, 4, 6, 3, 2, 4, 7, 3, 4, 7, 7]}, "uniqueid": "MTK2244:3MYYFCXHJ4EIQWEY61B9TQXYVFWG4L", "dateTime": 1516903503901}, {"current_trial": 134, "trialdata": {"rt": -1, "trial_type": "single-stim", "stimulus": "<p id=\"stim\">10</p>", "internal_node_id": "0.0-98.0-0.0", "time_elapsed": 1091081, "key_press": -1, "trial_index": 134}, "uniqueid": "MTK2244:3MYYFCXHJ4EIQWEY61B9TQXYVFWG4L", "dateTime": 1516903506920}, {"current_trial": 135, "trialdata": {"rt": -1, "trial_type": "single-stim", "stimulus": "<p id=\"stim\">9</p>", "internal_node_id": "0.0-98.0-1.0", "time_elapsed": 1092092, "key_press": -1, "trial_index": 135}, "uniqueid": "MTK2244:3MYYFCXHJ4EIQWEY61B9TQXYVFWG4L", "dateTime": 1516903507931}, {"current_trial": 136, "trialdata": {"rt": -1, "trial_type": "single-stim", "stimulus": "<p id=\"stim\">8</p>", "internal_node_id": "0.0-98.0-2.0", "time_elapsed": 1093094, "key_press": -1, "trial_index": 136}, "uniqueid": "MTK2244:3MYYFCXHJ4EIQWEY61B9TQXYVFWG4L", "dateTime": 1516903508933}, {"current_trial": 137, "trialdata": {"rt": -1, "trial_type": "single-stim", "stimulus": "<p id=\"stim\">7</p>", "internal_node_id": "0.0-98.0-3.0", "time_elapsed": 1094098, "key_press": -1, "trial_index": 137}, "uniqueid": "MTK2244:3MYYFCXHJ4EIQWEY61B9TQXYVFWG4L", "dateTime": 1516903509937}, {"current_trial": 138, "trialdata": {"rt": -1, "trial_type": "single-stim", "stimulus": "<p id=\"stim\">6</p>", "internal_node_id": "0.0-98.0-4.0", "time_elapsed": 1095102, "key_press": -1, "trial_index": 138}, "uniqueid": "MTK2244:3MYYFCXHJ4EIQWEY61B9TQXYVFWG4L", "dateTime": 1516903510940}, {"current_trial": 139, "trialdata": {"rt": -1, "trial_type": "single-stim", "stimulus": "<p id=\"stim\">5</p>", "internal_node_id": "0.0-98.0-5.0", "time_elapsed": 1096106, "key_press": -1, "trial_index": 139}, "uniqueid": "MTK2244:3MYYFCXHJ4EIQWEY61B9TQXYVFWG4L", "dateTime": 1516903511945}, {"current_trial": 140, "trialdata": {"rt": -1, "trial_type": "single-stim", "stimulus": "<p id=\"stim\">4</p>", "internal_node_id": "0.0-98.0-6.0", "time_elapsed": 1097108, "key_press": -1, "trial_index": 140}, "uniqueid": "MTK2244:3MYYFCXHJ4EIQWEY61B9TQXYVFWG4L", "dateTime": 1516903512946}, {"current_trial": 141, "trialdata": {"rt": -1, "trial_type": "single-stim", "stimulus": "<p id=\"stim\">3</p>", "internal_node_id": "0.0-98.0-7.0", "time_elapsed": 1098118, "key_press": -1, "trial_index": 141}, "uniqueid": "MTK2244:3MYYFCXHJ4EIQWEY61B9TQXYVFWG4L", "dateTime": 1516903513956}, {"current_trial": 142, "trialdata": {"rt": -1, "trial_type": "single-stim", "stimulus": "<p id=\"stim\">2</p>", "internal_node_id": "0.0-98.0-8.0", "time_elapsed": 1099125, "key_press": -1, "trial_index": 142}, "uniqueid": "MTK2244:3MYYFCXHJ4EIQWEY61B9TQXYVFWG4L", "dateTime": 1516903514963}, {"current_trial": 143, "trialdata": {"rt": -1, "trial_type": "single-stim", "stimulus": "<p id=\"stim\">1</p>", "internal_node_id": "0.0-98.0-9.0", "time_elapsed": 1100126, "key_press": -1, "trial_index": 143}, "uniqueid": "MTK2244:3MYYFCXHJ4EIQWEY61B9TQXYVFWG4L", "dateTime": 1516903515964}, {"current_trial": 144, "trialdata": {"rt": -1, "trial_type": "single-stim", "stimulus": "<p id=\"stim\">+</p>", "internal_node_id": "0.0-99.0-0.0", "time_elapsed": 1101666, "key_press": -1, "type": "FIXATION", "trial_index": 144}, "uniqueid": "MTK2244:3MYYFCXHJ4EIQWEY61B9TQXYVFWG4L", "dateTime": 1516903517504}, {"current_trial": 145, "trialdata": {"rt": -1000, "trial_type": "single-audio", "word": "lodge", "stimulus": "/static/audio/wordpool/LODGE.wav", "conditions": [12, 800, "a", 24000], "internal_node_id": "0.0-100.0", "trial": 4, "time_elapsed": 1103517, "serialpos": 0, "key_press": -1, "wordID": 838, "type": "PRES_AUD", "trial_index": 145}, "uniqueid": "MTK2244:3MYYFCXHJ4EIQWEY61B9TQXYVFWG4L", "dateTime": 1516903519356}, {"current_trial": 146, "trialdata": {"rt": -1000, "trial_type": "single-audio", "word": "scalpel", "stimulus": "/static/audio/wordpool/SCALPEL.wav", "conditions": [12, 800, "a", 24000], "internal_node_id": "0.0-101.0", "trial": 4, "time_elapsed": 1105239, "serialpos": 1, "key_press": -1, "wordID": 1242, "type": "PRES_AUD", "trial_index": 146}, "uniqueid": "MTK2244:3MYYFCXHJ4EIQWEY61B9TQXYVFWG4L", "dateTime": 1516903521077}, {"current_trial": 147, "trialdata": {"rt": -1000, "trial_type": "single-audio", "word": "razor", "stimulus": "/static/audio/wordpool/RAZOR.wav", "conditions": [12, 800, "a", 24000], "internal_node_id": "0.0-102.0", "trial": 4, "time_elapsed": 1106932, "serialpos": 2, "key_press": -1, "wordID": 1170, "type": "PRES_AUD", "trial_index": 147}, "uniqueid": "MTK2244:3MYYFCXHJ4EIQWEY61B9TQXYVFWG4L", "dateTime": 1516903522770}, {"current_trial": 148, "trialdata": {"rt": -1000, "trial_type": "single-audio", "word": "cashier", "stimulus": "/static/audio/wordpool/CASHIER.wav", "conditions": [12, 800, "a", 24000], "internal_node_id": "0.0-103.0", "trial": 4, "time_elapsed": 1108840, "serialpos": 3, "key_press": -1, "wordID": 253, "type": "PRES_AUD", "trial_index": 148}, "uniqueid": "MTK2244:3MYYFCXHJ4EIQWEY61B9TQXYVFWG4L", "dateTime": 1516903524678}, {"current_trial": 149, "trialdata": {"rt": -1000, "trial_type": "single-audio", "word": "uncle", "stimulus": "/static/audio/wordpool/UNCLE.wav", "conditions": [12, 800, "a", 24000], "internal_node_id": "0.0-104.0", "trial": 4, "time_elapsed": 1110641, "serialpos": 4, "key_press": -1, "wordID": 1535, "type": "PRES_AUD", "trial_index": 149}, "uniqueid": "MTK2244:3MYYFCXHJ4EIQWEY61B9TQXYVFWG4L", "dateTime": 1516903526479}, {"current_trial": 150, "trialdata": {"rt": -1000, "trial_type": "single-audio", "word": "diner", "stimulus": "/static/audio/wordpool/DINER.wav", "conditions": [12, 800, "a", 24000], "internal_node_id": "0.0-105.0", "trial": 4, "time_elapsed": 1112302, "serialpos": 5, "key_press": -1, "wordID": 466, "type": "PRES_AUD", "trial_index": 150}, "uniqueid": "MTK2244:3MYYFCXHJ4EIQWEY61B9TQXYVFWG4L", "dateTime": 1516903528140}, {"current_trial": 151, "trialdata": {"rt": -1000, "trial_type": "single-audio", "word": "brandy", "stimulus": "/static/audio/wordpool/BRANDY.wav", "conditions": [12, 800, "a", 24000], "internal_node_id": "0.0-106.0", "trial": 4, "time_elapsed": 1114063, "serialpos": 6, "key_press": -1, "wordID": 168, "type": "PRES_AUD", "trial_index": 151}, "uniqueid": "MTK2244:3MYYFCXHJ4EIQWEY61B9TQXYVFWG4L", "dateTime": 1516903529901}, {"current_trial": 152, "trialdata": {"rt": -1000, "trial_type": "single-audio", "word": "pork", "stimulus": "/static/audio/wordpool/PORK.wav", "conditions": [12, 800, "a", 24000], "internal_node_id": "0.0-107.0", "trial": 4, "time_elapsed": 1115988, "serialpos": 7, "key_press": -1, "wordID": 1107, "type": "PRES_AUD", "trial_index": 152}, "uniqueid": "MTK2244:3MYYFCXHJ4EIQWEY61B9TQXYVFWG4L", "dateTime": 1516903531826}, {"current_trial": 153, "trialdata": {"rt": -1000, "trial_type": "single-audio", "word": "beaver", "stimulus": "/static/audio/wordpool/BEAVER.wav", "conditions": [12, 800, "a", 24000], "internal_node_id": "0.0-108.0", "trial": 4, "time_elapsed": 1117665, "serialpos": 8, "key_press": -1, "wordID": 108, "type": "PRES_AUD", "trial_index": 153}, "uniqueid": "MTK2244:3MYYFCXHJ4EIQWEY61B9TQXYVFWG4L", "dateTime": 1516903533503}, {"current_trial": 154, "trialdata": {"rt": -1000, "trial_type": "single-audio", "word": "relish", "stimulus": "/static/audio/wordpool/RELISH.wav", "conditions": [12, 800, "a", 24000], "internal_node_id": "0.0-109.0", "trial": 4, "time_elapsed": 1119326, "serialpos": 9, "key_press": -1, "wordID": 1182, "type": "PRES_AUD", "trial_index": 154}, "uniqueid": "MTK2244:3MYYFCXHJ4EIQWEY61B9TQXYVFWG4L", "dateTime": 1516903535164}, {"current_trial": 155, "trialdata": {"rt": -1000, "trial_type": "single-audio", "word": "hamper", "stimulus": "/static/audio/wordpool/HAMPER.wav", "conditions": [12, 800, "a", 24000], "internal_node_id": "0.0-110.0", "trial": 4, "time_elapsed": 1121326, "serialpos": 10, "key_press": -1, "wordID": 681, "type": "PRES_AUD", "trial_index": 155}, "uniqueid": "MTK2244:3MYYFCXHJ4EIQWEY61B9TQXYVFWG4L", "dateTime": 1516903537164}, {"current_trial": 156, "trialdata": {"rt": -1000, "trial_type": "single-audio", "word": "cousin", "stimulus": "/static/audio/wordpool/COUSIN.wav", "conditions": [12, 800, "a", 24000], "internal_node_id": "0.0-111.0", "trial": 4, "time_elapsed": 1123156, "serialpos": 11, "key_press": -1, "wordID": 391, "type": "PRES_AUD", "trial_index": 156}, "uniqueid": "MTK2244:3MYYFCXHJ4EIQWEY61B9TQXYVFWG4L", "dateTime": 1516903538994}, {"current_trial": 157, "trialdata": {"rt": -1, "trial_type": "single-stim", "stimulus": "", "internal_node_id": "0.0-112.0-0.0", "time_elapsed": 1124381, "key_press": -1, "type": "PRE_RECALL_DELAY", "trial_index": 157}, "uniqueid": "MTK2244:3MYYFCXHJ4EIQWEY61B9TQXYVFWG4L", "dateTime": 1516903540219}, {"current_trial": 158, "trialdata": {"rt": -1000, "trial_type": "single-audio", "stimulus": "/static/audio/400Hz.wav", "internal_node_id": "0.0-113.0", "time_elapsed": 1124889, "key_press": -1, "type": "PRE_RECALL_ALERT", "trial_index": 158}, "uniqueid": "MTK2244:3MYYFCXHJ4EIQWEY61B9TQXYVFWG4L", "dateTime": 1516903540727}, {"current_trial": 159, "trialdata": {"rt": [1776, 3672, 5920, 7640, 12328, 16232, 24313], "recwords": ["cousin", "hamper", "lodge", "uncle", "beaver", "scalpel", "razor"], "key_times": [889, 912, 1009, 1112, 1209, 1336, 1776, 2512, 2624, 2729, 2953, 3096, 3144, 3672, 4024, 4112, 4368, 4544, 4912, 5040, 5176, 5336, 5433, 5568, 5617, 5920, 6304, 6752, 7000, 7089, 7184, 7640, 10128, 11256, 11376, 11552, 11720, 11768, 12328, 13200, 13776, 13945, 14328, 14608, 15424, 15521, 16232, 16664, 16769, 17400, 17640, 17696, 19656, 19785, 19936, 20016, 24313], "trial_type": "free-recall", "conditions": [12, 800, "a", 24000], "internal_node_id": "0.0-114.0-0.0", "key_presses": [67, 79, 85, 83, 73, 78, 13, 72, 65, 77, 80, 69, 82, 13, 76, 65, 79, 68, 8, 8, 8, 79, 68, 71, 69, 13, 85, 78, 67, 76, 69, 13, 66, 69, 65, 86, 69, 82, 13, 83, 67, 65, 76, 80, 69, 76, 13, 82, 65, 90, 69, 82, 8, 8, 79, 82, 13], "trial": 4, "time_elapsed": 1184897, "type": "FREE_RECALL", "trial_index": 159}, "uniqueid": "MTK2244:3MYYFCXHJ4EIQWEY61B9TQXYVFWG4L", "dateTime": 1516903600739}, {"current_trial": 160, "trialdata": {"rt": 12362, "trial_type": "text", "internal_node_id": "0.0-115.0", "time_elapsed": 1199268, "key_press": 32, "type": "INSTRUCTIONS", "trial_index": 160}, "uniqueid": "MTK2244:3MYYFCXHJ4EIQWEY61B9TQXYVFWG4L", "dateTime": 1516903615107}, {"current_trial": 161, "trialdata": {"rt": [1746, 4282, 5882, 7811, 9923, 11234], "trial_type": "math-distractor", "key_times": [1355, 1538, 1746, 3795, 4074, 4282, 5450, 5634, 5882, 7522, 7811, 9450, 9730, 9923, 11050, 11234], "responses": ["16", "19", "16", "7", "17", "5"], "num2": [7, 9, 3, 2, 2, 2, 2], "num3": [6, 2, 6, 1, 6, 1, 2], "conditions": [12, 800, "a", 12000], "internal_node_id": "0.0-116.0", "key_presses": [97, 102, 13, 97, 105, 13, 97, 102, 13, 103, 13, 97, 103, 13, 101, 13], "trial": 5, "time_elapsed": 1213278, "type": "DISTRACTOR", "trial_index": 161, "num1": [3, 8, 7, 4, 9, 2, 3]}, "uniqueid": "MTK2244:3MYYFCXHJ4EIQWEY61B9TQXYVFWG4L", "dateTime": 1516903629116}, {"current_trial": 162, "trialdata": {"rt": -1, "trial_type": "single-stim", "stimulus": "<p id=\"stim\">10</p>", "internal_node_id": "0.0-117.0-0.0", "time_elapsed": 1216288, "key_press": -1, "trial_index": 162}, "uniqueid": "MTK2244:3MYYFCXHJ4EIQWEY61B9TQXYVFWG4L", "dateTime": 1516903632127}, {"current_trial": 163, "trialdata": {"rt": -1, "trial_type": "single-stim", "stimulus": "<p id=\"stim\">9</p>", "internal_node_id": "0.0-117.0-1.0", "time_elapsed": 1217294, "key_press": -1, "trial_index": 163}, "uniqueid": "MTK2244:3MYYFCXHJ4EIQWEY61B9TQXYVFWG4L", "dateTime": 1516903633132}, {"current_trial": 164, "trialdata": {"rt": -1, "trial_type": "single-stim", "stimulus": "<p id=\"stim\">8</p>", "internal_node_id": "0.0-117.0-2.0", "time_elapsed": 1218301, "key_press": -1, "trial_index": 164}, "uniqueid": "MTK2244:3MYYFCXHJ4EIQWEY61B9TQXYVFWG4L", "dateTime": 1516903634140}, {"current_trial": 165, "trialdata": {"rt": -1, "trial_type": "single-stim", "stimulus": "<p id=\"stim\">7</p>", "internal_node_id": "0.0-117.0-3.0", "time_elapsed": 1219312, "key_press": -1, "trial_index": 165}, "uniqueid": "MTK2244:3MYYFCXHJ4EIQWEY61B9TQXYVFWG4L", "dateTime": 1516903635150}, {"current_trial": 166, "trialdata": {"rt": -1, "trial_type": "single-stim", "stimulus": "<p id=\"stim\">6</p>", "internal_node_id": "0.0-117.0-4.0", "time_elapsed": 1220314, "key_press": -1, "trial_index": 166}, "uniqueid": "MTK2244:3MYYFCXHJ4EIQWEY61B9TQXYVFWG4L", "dateTime": 1516903636152}, {"current_trial": 167, "trialdata": {"rt": -1, "trial_type": "single-stim", "stimulus": "<p id=\"stim\">5</p>", "internal_node_id": "0.0-117.0-5.0", "time_elapsed": 1221318, "key_press": -1, "trial_index": 167}, "uniqueid": "MTK2244:3MYYFCXHJ4EIQWEY61B9TQXYVFWG4L", "dateTime": 1516903637156}, {"current_trial": 168, "trialdata": {"rt": -1, "trial_type": "single-stim", "stimulus": "<p id=\"stim\">4</p>", "internal_node_id": "0.0-117.0-6.0", "time_elapsed": 1222319, "key_press": -1, "trial_index": 168}, "uniqueid": "MTK2244:3MYYFCXHJ4EIQWEY61B9TQXYVFWG4L", "dateTime": 1516903638158}, {"current_trial": 169, "trialdata": {"rt": -1, "trial_type": "single-stim", "stimulus": "<p id=\"stim\">3</p>", "internal_node_id": "0.0-117.0-7.0", "time_elapsed": 1223322, "key_press": -1, "trial_index": 169}, "uniqueid": "MTK2244:3MYYFCXHJ4EIQWEY61B9TQXYVFWG4L", "dateTime": 1516903639160}, {"current_trial": 170, "trialdata": {"rt": -1, "trial_type": "single-stim", "stimulus": "<p id=\"stim\">2</p>", "internal_node_id": "0.0-117.0-8.0", "time_elapsed": 1224324, "key_press": -1, "trial_index": 170}, "uniqueid": "MTK2244:3MYYFCXHJ4EIQWEY61B9TQXYVFWG4L", "dateTime": 1516903640162}, {"current_trial": 171, "trialdata": {"rt": -1, "trial_type": "single-stim", "stimulus": "<p id=\"stim\">1</p>", "internal_node_id": "0.0-117.0-9.0", "time_elapsed": 1225326, "key_press": -1, "trial_index": 171}, "uniqueid": "MTK2244:3MYYFCXHJ4EIQWEY61B9TQXYVFWG4L", "dateTime": 1516903641165}, {"current_trial": 172, "trialdata": {"rt": -1, "trial_type": "single-stim", "stimulus": "<p id=\"stim\">+</p>", "internal_node_id": "0.0-118.0-0.0", "time_elapsed": 1226833, "key_press": -1, "type": "FIXATION", "trial_index": 172}, "uniqueid": "MTK2244:3MYYFCXHJ4EIQWEY61B9TQXYVFWG4L", "dateTime": 1516903642671}, {"current_trial": 173, "trialdata": {"rt": -1000, "trial_type": "single-audio", "word": "gymnast", "stimulus": "/static/audio/wordpool/GYMNAST.wav", "conditions": [12, 800, "a", 12000], "internal_node_id": "0.0-119.0", "trial": 5, "time_elapsed": 1228724, "serialpos": 0, "key_press": -1, "wordID": 674, "type": "PRES_AUD", "trial_index": 173}, "uniqueid": "MTK2244:3MYYFCXHJ4EIQWEY61B9TQXYVFWG4L", "dateTime": 1516903644562}, {"current_trial": 174, "trialdata": {"rt": -1000, "trial_type": "single-audio", "word": "dancer", "stimulus": "/static/audio/wordpool/DANCER.wav", "conditions": [12, 800, "a", 12000], "internal_node_id": "0.0-120.0", "trial": 5, "time_elapsed": 1230589, "serialpos": 1, "key_press": -1, "wordID": 436, "type": "PRES_AUD", "trial_index": 174}, "uniqueid": "MTK2244:3MYYFCXHJ4EIQWEY61B9TQXYVFWG4L", "dateTime": 1516903646427}, {"current_trial": 175, "trialdata": {"rt": -1000, "trial_type": "single-audio", "word": "primate", "stimulus": "/static/audio/wordpool/PRIMATE.wav", "conditions": [12, 800, "a", 12000], "internal_node_id": "0.0-121.0", "trial": 5, "time_elapsed": 1232526, "serialpos": 2, "key_press": -1, "wordID": 1122, "type": "PRES_AUD", "trial_index": 175}, "uniqueid": "MTK2244:3MYYFCXHJ4EIQWEY61B9TQXYVFWG4L", "dateTime": 1516903648364}, {"current_trial": 176, "trialdata": {"rt": -1000, "trial_type": "single-audio", "word": "backbone", "stimulus": "/static/audio/wordpool/BACKBONE.wav", "conditions": [12, 800, "a", 12000], "internal_node_id": "0.0-122.0", "trial": 5, "time_elapsed": 1234249, "serialpos": 3, "key_press": -1, "wordID": 65, "type": "PRES_AUD", "trial_index": 176}, "uniqueid": "MTK2244:3MYYFCXHJ4EIQWEY61B9TQXYVFWG4L", "dateTime": 1516903650087}, {"current_trial": 177, "trialdata": {"rt": -1000, "trial_type": "single-audio", "word": "friend", "stimulus": "/static/audio/wordpool/FRIEND.wav", "conditions": [12, 800, "a", 12000], "internal_node_id": "0.0-123.0", "trial": 5, "time_elapsed": 1236071, "serialpos": 4, "key_press": -1, "wordID": 605, "type": "PRES_AUD", "trial_index": 177}, "uniqueid": "MTK2244:3MYYFCXHJ4EIQWEY61B9TQXYVFWG4L", "dateTime": 1516903651909}, {"current_trial": 178, "trialdata": {"rt": -1000, "trial_type": "single-audio", "word": "balloon", "stimulus": "/static/audio/wordpool/BALLOON.wav", "conditions": [12, 800, "a", 12000], "internal_node_id": "0.0-124.0", "trial": 5, "time_elapsed": 1237745, "serialpos": 5, "key_press": -1, "wordID": 74, "type": "PRES_AUD", "trial_index": 178}, "uniqueid": "MTK2244:3MYYFCXHJ4EIQWEY61B9TQXYVFWG4L", "dateTime": 1516903653583}, {"current_trial": 179, "trialdata": {"rt": -1000, "trial_type": "single-audio", "word": "airport", "stimulus": "/static/audio/wordpool/AIRPORT.wav", "conditions": [12, 800, "a", 12000], "internal_node_id": "0.0-125.0", "trial": 5, "time_elapsed": 1239608, "serialpos": 6, "key_press": -1, "wordID": 12, "type": "PRES_AUD", "trial_index": 179}, "uniqueid": "MTK2244:3MYYFCXHJ4EIQWEY61B9TQXYVFWG4L", "dateTime": 1516903655446}, {"current_trial": 180, "trialdata": {"rt": -1000, "trial_type": "single-audio", "word": "waitress", "stimulus": "/static/audio/wordpool/WAITRESS.wav", "conditions": [12, 800, "a", 12000], "internal_node_id": "0.0-126.0", "trial": 5, "time_elapsed": 1241284, "serialpos": 7, "key_press": -1, "wordID": 1580, "type": "PRES_AUD", "trial_index": 180}, "uniqueid": "MTK2244:3MYYFCXHJ4EIQWEY61B9TQXYVFWG4L", "dateTime": 1516903657122}, {"current_trial": 181, "trialdata": {"rt": -1000, "trial_type": "single-audio", "word": "notebook", "stimulus": "/static/audio/wordpool/NOTEBOOK.wav", "conditions": [12, 800, "a", 12000], "internal_node_id": "0.0-127.0", "trial": 5, "time_elapsed": 1243110, "serialpos": 8, "key_press": -1, "wordID": 958, "type": "PRES_AUD", "trial_index": 181}, "uniqueid": "MTK2244:3MYYFCXHJ4EIQWEY61B9TQXYVFWG4L", "dateTime": 1516903658948}, {"current_trial": 182, "trialdata": {"rt": -1000, "trial_type": "single-audio", "word": "student", "stimulus": "/static/audio/wordpool/STUDENT.wav", "conditions": [12, 800, "a", 12000], "internal_node_id": "0.0-128.0", "trial": 5, "time_elapsed": 1244865, "serialpos": 9, "key_press": -1, "wordID": 1394, "type": "PRES_AUD", "trial_index": 182}, "uniqueid": "MTK2244:3MYYFCXHJ4EIQWEY61B9TQXYVFWG4L", "dateTime": 1516903660703}, {"current_trial": 183, "trialdata": {"rt": -1000, "trial_type": "single-audio", "word": "brother", "stimulus": "/static/audio/wordpool/BROTHER.wav", "conditions": [12, 800, "a", 12000], "internal_node_id": "0.0-129.0", "trial": 5, "time_elapsed": 1246869, "serialpos": 10, "key_press": -1, "wordID": 178, "type": "PRES_AUD", "trial_index": 183}, "uniqueid": "MTK2244:3MYYFCXHJ4EIQWEY61B9TQXYVFWG4L", "dateTime": 1516903662707}, {"current_trial": 184, "trialdata": {"rt": -1000, "trial_type": "single-audio", "word": "creature", "stimulus": "/static/audio/wordpool/CREATURE.wav", "conditions": [12, 800, "a", 12000], "internal_node_id": "0.0-130.0", "trial": 5, "time_elapsed": 1248696, "serialpos": 11, "key_press": -1, "wordID": 402, "type": "PRES_AUD", "trial_index": 184}, "uniqueid": "MTK2244:3MYYFCXHJ4EIQWEY61B9TQXYVFWG4L", "dateTime": 1516903664535}, {"current_trial": 185, "trialdata": {"rt": -1, "trial_type": "single-stim", "stimulus": "", "internal_node_id": "0.0-131.0-0.0", "time_elapsed": 1249967, "key_press": -1, "type": "PRE_RECALL_DELAY", "trial_index": 185}, "uniqueid": "MTK2244:3MYYFCXHJ4EIQWEY61B9TQXYVFWG4L", "dateTime": 1516903665805}, {"current_trial": 186, "trialdata": {"rt": -1000, "trial_type": "single-audio", "stimulus": "/static/audio/400Hz.wav", "internal_node_id": "0.0-132.0", "time_elapsed": 1250476, "key_press": -1, "type": "PRE_RECALL_ALERT", "trial_index": 186}, "uniqueid": "MTK2244:3MYYFCXHJ4EIQWEY61B9TQXYVFWG4L", "dateTime": 1516903666314}, {"current_trial": 187, "trialdata": {"rt": [1581, 2909, 5437, 7029, 8709, 13294, 17782, 56461], "recwords": ["creature", "brother", "gymnast", "dancer", "backbone", "waitress", "student", "airport"], "key_times": [141, 389, 461, 566, 773, 1141, 1221, 1277, 1581, 1838, 2029, 2110, 2229, 2302, 2389, 2461, 2909, 3229, 3421, 4005, 4237, 4453, 4741, 4821, 5437, 5653, 5838, 5925, 6093, 6277, 6349, 7029, 7181, 7277, 7445, 7526, 7813, 7966, 8093, 8198, 8709, 9501, 9677, 10525, 10637, 10829, 10885, 11309, 11421, 11525, 11557, 12526, 12638, 13294, 16701, 16782, 16878, 16973, 17141, 17230, 17333, 17782, 55373, 55446, 55565, 55821, 55973, 56037, 56213, 56461], "trial_type": "free-recall", "conditions": [12, 800, "a", 12000], "internal_node_id": "0.0-133.0-0.0", "key_presses": [67, 82, 69, 65, 84, 85, 82, 69, 13, 66, 82, 79, 84, 72, 69, 82, 13, 71, 89, 77, 78, 65, 83, 84, 13, 68, 65, 78, 67, 69, 82, 13, 66, 65, 67, 75, 66, 79, 78, 69, 13, 87, 65, 73, 84, 69, 82, 8, 8, 82, 69, 83, 83, 13, 83, 84, 85, 68, 69, 78, 84, 13, 65, 73, 82, 80, 79, 82, 84, 13], "trial": 5, "time_elapsed": 1310479, "type": "FREE_RECALL", "trial_index": 187}, "uniqueid": "MTK2244:3MYYFCXHJ4EIQWEY61B9TQXYVFWG4L", "dateTime": 1516903726322}, {"current_trial": 188, "trialdata": {"rt": 1008, "trial_type": "text", "internal_node_id": "0.0-134.0", "time_elapsed": 1313499, "key_press": 32, "type": "INSTRUCTIONS", "trial_index": 188}, "uniqueid": "MTK2244:3MYYFCXHJ4EIQWEY61B9TQXYVFWG4L", "dateTime": 1516903729338}, {"current_trial": 189, "trialdata": {"rt": [2361, 3552, 5600, 7840, 9504, 11128, 16576, 18464, 20752, 22336, 23816], "trial_type": "math-distractor", "key_times": [1864, 2032, 2361, 3288, 3552, 5416, 5600, 7552, 7688, 7840, 9304, 9504, 10800, 10920, 11128, 16280, 16368, 16576, 18160, 18280, 18464, 20368, 20560, 20752, 22008, 22160, 22336, 23656, 23816], "responses": ["18", "9", "6", "11", "8", "18", "23", "12", "14", "14", "7"], "num2": [7, 3, 2, 4, 1, 6, 9, 2, 1, 4, 5, 4], "num3": [7, 3, 2, 2, 3, 7, 8, 8, 8, 2, 1, 8], "conditions": [12, 1600, "a", 24000], "internal_node_id": "0.0-135.0", "key_presses": [97, 104, 13, 105, 13, 102, 13, 97, 97, 13, 104, 13, 97, 104, 13, 98, 99, 13, 97, 98, 13, 97, 100, 13, 97, 100, 13, 103, 13], "trial": 6, "time_elapsed": 1339520, "type": "DISTRACTOR", "trial_index": 189, "num1": [4, 3, 2, 5, 4, 5, 6, 2, 5, 8, 1, 3]}, "uniqueid": "MTK2244:3MYYFCXHJ4EIQWEY61B9TQXYVFWG4L", "dateTime": 1516903755359}, {"current_trial": 190, "trialdata": {"rt": -1, "trial_type": "single-stim", "stimulus": "<p id=\"stim\">10</p>", "internal_node_id": "0.0-136.0-0.0", "time_elapsed": 1342533, "key_press": -1, "trial_index": 190}, "uniqueid": "MTK2244:3MYYFCXHJ4EIQWEY61B9TQXYVFWG4L", "dateTime": 1516903758372}, {"current_trial": 191, "trialdata": {"rt": -1, "trial_type": "single-stim", "stimulus": "<p id=\"stim\">9</p>", "internal_node_id": "0.0-136.0-1.0", "time_elapsed": 1343537, "key_press": -1, "trial_index": 191}, "uniqueid": "MTK2244:3MYYFCXHJ4EIQWEY61B9TQXYVFWG4L", "dateTime": 1516903759375}, {"current_trial": 192, "trialdata": {"rt": -1, "trial_type": "single-stim", "stimulus": "<p id=\"stim\">8</p>", "internal_node_id": "0.0-136.0-2.0", "time_elapsed": 1344540, "key_press": -1, "trial_index": 192}, "uniqueid": "MTK2244:3MYYFCXHJ4EIQWEY61B9TQXYVFWG4L", "dateTime": 1516903760378}, {"current_trial": 193, "trialdata": {"rt": -1, "trial_type": "single-stim", "stimulus": "<p id=\"stim\">7</p>", "internal_node_id": "0.0-136.0-3.0", "time_elapsed": 1345545, "key_press": -1, "trial_index": 193}, "uniqueid": "MTK2244:3MYYFCXHJ4EIQWEY61B9TQXYVFWG4L", "dateTime": 1516903761384}, {"current_trial": 194, "trialdata": {"rt": -1, "trial_type": "single-stim", "stimulus": "<p id=\"stim\">6</p>", "internal_node_id": "0.0-136.0-4.0", "time_elapsed": 1346548, "key_press": -1, "trial_index": 194}, "uniqueid": "MTK2244:3MYYFCXHJ4EIQWEY61B9TQXYVFWG4L", "dateTime": 1516903762387}, {"current_trial": 195, "trialdata": {"rt": -1, "trial_type": "single-stim", "stimulus": "<p id=\"stim\">5</p>", "internal_node_id": "0.0-136.0-5.0", "time_elapsed": 1347554, "key_press": -1, "trial_index": 195}, "uniqueid": "MTK2244:3MYYFCXHJ4EIQWEY61B9TQXYVFWG4L", "dateTime": 1516903763392}, {"current_trial": 196, "trialdata": {"rt": -1, "trial_type": "single-stim", "stimulus": "<p id=\"stim\">4</p>", "internal_node_id": "0.0-136.0-6.0", "time_elapsed": 1348562, "key_press": -1, "trial_index": 196}, "uniqueid": "MTK2244:3MYYFCXHJ4EIQWEY61B9TQXYVFWG4L", "dateTime": 1516903764400}, {"current_trial": 197, "trialdata": {"rt": -1, "trial_type": "single-stim", "stimulus": "<p id=\"stim\">3</p>", "internal_node_id": "0.0-136.0-7.0", "time_elapsed": 1349571, "key_press": -1, "trial_index": 197}, "uniqueid": "MTK2244:3MYYFCXHJ4EIQWEY61B9TQXYVFWG4L", "dateTime": 1516903765410}, {"current_trial": 198, "trialdata": {"rt": -1, "trial_type": "single-stim", "stimulus": "<p id=\"stim\">2</p>", "internal_node_id": "0.0-136.0-8.0", "time_elapsed": 1350573, "key_press": -1, "trial_index": 198}, "uniqueid": "MTK2244:3MYYFCXHJ4EIQWEY61B9TQXYVFWG4L", "dateTime": 1516903766412}, {"current_trial": 199, "trialdata": {"rt": -1, "trial_type": "single-stim", "stimulus": "<p id=\"stim\">1</p>", "internal_node_id": "0.0-136.0-9.0", "time_elapsed": 1351576, "key_press": -1, "trial_index": 199}, "uniqueid": "MTK2244:3MYYFCXHJ4EIQWEY61B9TQXYVFWG4L", "dateTime": 1516903767414}, {"current_trial": 200, "trialdata": {"rt": -1, "trial_type": "single-stim", "stimulus": "<p id=\"stim\">+</p>", "internal_node_id": "0.0-137.0-0.0", "time_elapsed": 1353080, "key_press": -1, "type": "FIXATION", "trial_index": 200}, "uniqueid": "MTK2244:3MYYFCXHJ4EIQWEY61B9TQXYVFWG4L", "dateTime": 1516903768918}, {"current_trial": 201, "trialdata": {"rt": -1000, "trial_type": "single-audio", "word": "trout", "stimulus": "/static/audio/wordpool/TROUT.wav", "conditions": [12, 1600, "a", 24000], "internal_node_id": "0.0-138.0", "trial": 6, "time_elapsed": 1355866, "serialpos": 0, "key_press": -1, "wordID": 1510, "type": "PRES_AUD", "trial_index": 201}, "uniqueid": "MTK2244:3MYYFCXHJ4EIQWEY61B9TQXYVFWG4L", "dateTime": 1516903771704}, {"current_trial": 202, "trialdata": {"rt": -1000, "trial_type": "single-audio", "word": "lily", "stimulus": "/static/audio/wordpool/LILY.wav", "conditions": [12, 1600, "a", 24000], "internal_node_id": "0.0-139.0", "trial": 6, "time_elapsed": 1358639, "serialpos": 1, "key_press": -1, "wordID": 820, "type": "PRES_AUD", "trial_index": 202}, "uniqueid": "MTK2244:3MYYFCXHJ4EIQWEY61B9TQXYVFWG4L", "dateTime": 1516903774477}, {"current_trial": 203, "trialdata": {"rt": -1000, "trial_type": "single-audio", "word": "gavel", "stimulus": "/static/audio/wordpool/GAVEL.wav", "conditions": [12, 1600, "a", 24000], "internal_node_id": "0.0-140.0", "trial": 6, "time_elapsed": 1361289, "serialpos": 2, "key_press": -1, "wordID": 626, "type": "PRES_AUD", "trial_index": 203}, "uniqueid": "MTK2244:3MYYFCXHJ4EIQWEY61B9TQXYVFWG4L", "dateTime": 1516903777127}, {"current_trial": 204, "trialdata": {"rt": -1000, "trial_type": "single-audio", "word": "costume", "stimulus": "/static/audio/wordpool/COSTUME.wav", "conditions": [12, 1600, "a", 24000], "internal_node_id": "0.0-141.0", "trial": 6, "time_elapsed": 1363795, "serialpos": 3, "key_press": -1, "wordID": 382, "type": "PRES_AUD", "trial_index": 204}, "uniqueid": "MTK2244:3MYYFCXHJ4EIQWEY61B9TQXYVFWG4L", "dateTime": 1516903779633}, {"current_trial": 205, "trialdata": {"rt": -1000, "trial_type": "single-audio", "word": "wardrobe", "stimulus": "/static/audio/wordpool/WARDROBE.wav", "conditions": [12, 1600, "a", 24000], "internal_node_id": "0.0-142.0", "trial": 6, "time_elapsed": 1366474, "serialpos": 4, "key_press": -1, "wordID": 1586, "type": "PRES_AUD", "trial_index": 205}, "uniqueid": "MTK2244:3MYYFCXHJ4EIQWEY61B9TQXYVFWG4L", "dateTime": 1516903782312}, {"current_trial": 206, "trialdata": {"rt": -1000, "trial_type": "single-audio", "word": "parrot", "stimulus": "/static/audio/wordpool/PARROT.wav", "conditions": [12, 1600, "a", 24000], "internal_node_id": "0.0-143.0", "trial": 6, "time_elapsed": 1369170, "serialpos": 5, "key_press": -1, "wordID": 1014, "type": "PRES_AUD", "trial_index": 206}, "uniqueid": "MTK2244:3MYYFCXHJ4EIQWEY61B9TQXYVFWG4L", "dateTime": 1516903785009}, {"current_trial": 207, "trialdata": {"rt": -1000, "trial_type": "single-audio", "word": "sandwich", "stimulus": "/static/audio/wordpool/SANDWICH.wav", "conditions": [12, 1600, "a", 24000], "internal_node_id": "0.0-144.0", "trial": 6, "time_elapsed": 1371622, "serialpos": 6, "key_press": -1, "wordID": 1231, "type": "PRES_AUD", "trial_index": 207}, "uniqueid": "MTK2244:3MYYFCXHJ4EIQWEY61B9TQXYVFWG4L", "dateTime": 1516903787461}, {"current_trial": 208, "trialdata": {"rt": -1000, "trial_type": "single-audio", "word": "popcorn", "stimulus": "/static/audio/wordpool/POPCORN.wav", "conditions": [12, 1600, "a", 24000], "internal_node_id": "0.0-145.0", "trial": 6, "time_elapsed": 1374233, "serialpos": 7, "key_press": -1, "wordID": 1103, "type": "PRES_AUD", "trial_index": 208}, "uniqueid": "MTK2244:3MYYFCXHJ4EIQWEY61B9TQXYVFWG4L", "dateTime": 1516903790071}, {"current_trial": 209, "trialdata": {"rt": -1000, "trial_type": "single-audio", "word": "pudding", "stimulus": "/static/audio/wordpool/PUDDING.wav", "conditions": [12, 1600, "a", 24000], "internal_node_id": "0.0-146.0", "trial": 6, "time_elapsed": 1376766, "serialpos": 8, "key_press": -1, "wordID": 1138, "type": "PRES_AUD", "trial_index": 209}, "uniqueid": "MTK2244:3MYYFCXHJ4EIQWEY61B9TQXYVFWG4L", "dateTime": 1516903792605}, {"current_trial": 210, "trialdata": {"rt": -1000, "trial_type": "single-audio", "word": "pizza", "stimulus": "/static/audio/wordpool/PIZZA.wav", "conditions": [12, 1600, "a", 24000], "internal_node_id": "0.0-147.0", "trial": 6, "time_elapsed": 1379499, "serialpos": 9, "key_press": -1, "wordID": 1078, "type": "PRES_AUD", "trial_index": 210}, "uniqueid": "MTK2244:3MYYFCXHJ4EIQWEY61B9TQXYVFWG4L", "dateTime": 1516903795337}, {"current_trial": 211, "trialdata": {"rt": -1000, "trial_type": "single-audio", "word": "turkey", "stimulus": "/static/audio/wordpool/TURKEY.wav", "conditions": [12, 1600, "a", 24000], "internal_node_id": "0.0-148.0", "trial": 6, "time_elapsed": 1381974, "serialpos": 10, "key_press": -1, "wordID": 1519, "type": "PRES_AUD", "trial_index": 211}, "uniqueid": "MTK2244:3MYYFCXHJ4EIQWEY61B9TQXYVFWG4L", "dateTime": 1516903797813}, {"current_trial": 212, "trialdata": {"rt": -1000, "trial_type": "single-audio", "word": "witness", "stimulus": "/static/audio/wordpool/WITNESS.wav", "conditions": [12, 1600, "a", 24000], "internal_node_id": "0.0-149.0", "trial": 6, "time_elapsed": 1384535, "serialpos": 11, "key_press": -1, "wordID": 1617, "type": "PRES_AUD", "trial_index": 212}, "uniqueid": "MTK2244:3MYYFCXHJ4EIQWEY61B9TQXYVFWG4L", "dateTime": 1516903800373}, {"current_trial": 213, "trialdata": {"rt": -1, "trial_type": "single-stim", "stimulus": "", "internal_node_id": "0.0-150.0-0.0", "time_elapsed": 1385937, "key_press": -1, "type": "PRE_RECALL_DELAY", "trial_index": 213}, "uniqueid": "MTK2244:3MYYFCXHJ4EIQWEY61B9TQXYVFWG4L", "dateTime": 1516903801775}, {"current_trial": 214, "trialdata": {"rt": -1000, "trial_type": "single-audio", "stimulus": "/static/audio/400Hz.wav", "internal_node_id": "0.0-151.0", "time_elapsed": 1386443, "key_press": -1, "type": "PRE_RECALL_ALERT", "trial_index": 214}, "uniqueid": "MTK2244:3MYYFCXHJ4EIQWEY61B9TQXYVFWG4L", "dateTime": 1516903802281}, {"current_trial": 215, "trialdata": {"rt": [1502, 3070, 6934, 11006, 58582], "recwords": ["witness", "turkey", "sandwich", "popcorn", "pudding"], "key_times": [366, 438, 566, 774, 918, 1118, 1230, 1502, 1822, 1934, 2038, 2142, 2734, 2831, 3070, 3318, 3470, 3614, 3782, 4486, 4606, 4742, 5302, 5694, 5830, 6222, 6279, 6462, 6567, 6934, 7374, 7518, 7686, 8350, 8414, 8598, 8750, 11006, 57662, 57775, 57886, 57998, 58102, 58214, 58311, 58582], "trial_type": "free-recall", "conditions": [12, 1600, "a", 24000], "internal_node_id": "0.0-152.0-0.0", "key_presses": [87, 73, 84, 78, 69, 83, 83, 13, 84, 85, 82, 75, 69, 89, 13, 83, 78, 65, 68, 8, 8, 8, 65, 78, 68, 87, 73, 67, 72, 13, 80, 79, 80, 67, 79, 82, 78, 13, 80, 85, 68, 68, 73, 78, 71, 13], "trial": 6, "time_elapsed": 1446454, "type": "FREE_RECALL", "trial_index": 215}, "uniqueid": "MTK2244:3MYYFCXHJ4EIQWEY61B9TQXYVFWG4L", "dateTime": 1516903862296}, {"current_trial": 216, "trialdata": {"rt": 1169, "trial_type": "text", "internal_node_id": "0.0-153.0", "time_elapsed": 1449635, "key_press": 32, "type": "INSTRUCTIONS", "trial_index": 216}, "uniqueid": "MTK2244:3MYYFCXHJ4EIQWEY61B9TQXYVFWG4L", "dateTime": 1516903865474}, {"current_trial": 217, "trialdata": {"rt": [2064, 4121, 10264, 11784, 13944, 15672, 17232, 20312, 22280], "trial_type": "math-distractor", "key_times": [1881, 2064, 3880, 4120, 4121, 9960, 10016, 10264, 11464, 11561, 11784, 13496, 13672, 13944, 15128, 15296, 15672, 17040, 17232, 19912, 20040, 20312, 21840, 22008, 22280], "responses": ["9", "13", "20", "15", "20", "13", "5", "18", "13"], "num2": [3, 6, 9, 3, 8, 5, 3, 6, 2, 3], "num3": [2, 4, 8, 5, 5, 3, 1, 5, 4, 5], "conditions": [24, 1600, "a", 24000], "internal_node_id": "0.0-154.0", "key_presses": [105, 13, 97, 99, 13, 98, 96, 13, 97, 101, 13, 98, 96, 13, 97, 99, 13, 101, 13, 97, 104, 13, 97, 99, 13], "trial": 7, "time_elapsed": 1475647, "type": "DISTRACTOR", "trial_index": 217, "num1": [4, 3, 3, 7, 7, 5, 1, 7, 7, 5]}, "uniqueid": "MTK2244:3MYYFCXHJ4EIQWEY61B9TQXYVFWG4L", "dateTime": 1516903891485}, {"current_trial": 218, "trialdata": {"rt": -1, "trial_type": "single-stim", "stimulus": "<p id=\"stim\">10</p>", "internal_node_id": "0.0-155.0-0.0", "time_elapsed": 1478660, "key_press": -1, "trial_index": 218}, "uniqueid": "MTK2244:3MYYFCXHJ4EIQWEY61B9TQXYVFWG4L", "dateTime": 1516903894499}, {"current_trial": 219, "trialdata": {"rt": -1, "trial_type": "single-stim", "stimulus": "<p id=\"stim\">9</p>", "internal_node_id": "0.0-155.0-1.0", "time_elapsed": 1479666, "key_press": -1, "trial_index": 219}, "uniqueid": "MTK2244:3MYYFCXHJ4EIQWEY61B9TQXYVFWG4L", "dateTime": 1516903895504}, {"current_trial": 220, "trialdata": {"rt": -1, "trial_type": "single-stim", "stimulus": "<p id=\"stim\">8</p>", "internal_node_id": "0.0-155.0-2.0", "time_elapsed": 1480667, "key_press": -1, "trial_index": 220}, "uniqueid": "MTK2244:3MYYFCXHJ4EIQWEY61B9TQXYVFWG4L", "dateTime": 1516903896505}, {"current_trial": 221, "trialdata": {"rt": -1, "trial_type": "single-stim", "stimulus": "<p id=\"stim\">7</p>", "internal_node_id": "0.0-155.0-3.0", "time_elapsed": 1481669, "key_press": -1, "trial_index": 221}, "uniqueid": "MTK2244:3MYYFCXHJ4EIQWEY61B9TQXYVFWG4L", "dateTime": 1516903897507}, {"current_trial": 222, "trialdata": {"rt": -1, "trial_type": "single-stim", "stimulus": "<p id=\"stim\">6</p>", "internal_node_id": "0.0-155.0-4.0", "time_elapsed": 1482675, "key_press": -1, "trial_index": 222}, "uniqueid": "MTK2244:3MYYFCXHJ4EIQWEY61B9TQXYVFWG4L", "dateTime": 1516903898513}, {"current_trial": 223, "trialdata": {"rt": -1, "trial_type": "single-stim", "stimulus": "<p id=\"stim\">5</p>", "internal_node_id": "0.0-155.0-5.0", "time_elapsed": 1483679, "key_press": -1, "trial_index": 223}, "uniqueid": "MTK2244:3MYYFCXHJ4EIQWEY61B9TQXYVFWG4L", "dateTime": 1516903899517}, {"current_trial": 224, "trialdata": {"rt": -1, "trial_type": "single-stim", "stimulus": "<p id=\"stim\">4</p>", "internal_node_id": "0.0-155.0-6.0", "time_elapsed": 1484683, "key_press": -1, "trial_index": 224}, "uniqueid": "MTK2244:3MYYFCXHJ4EIQWEY61B9TQXYVFWG4L", "dateTime": 1516903900521}, {"current_trial": 225, "trialdata": {"rt": -1, "trial_type": "single-stim", "stimulus": "<p id=\"stim\">3</p>", "internal_node_id": "0.0-155.0-7.0", "time_elapsed": 1485687, "key_press": -1, "trial_index": 225}, "uniqueid": "MTK2244:3MYYFCXHJ4EIQWEY61B9TQXYVFWG4L", "dateTime": 1516903901525}, {"current_trial": 226, "trialdata": {"rt": -1, "trial_type": "single-stim", "stimulus": "<p id=\"stim\">2</p>", "internal_node_id": "0.0-155.0-8.0", "time_elapsed": 1486690, "key_press": -1, "trial_index": 226}, "uniqueid": "MTK2244:3MYYFCXHJ4EIQWEY61B9TQXYVFWG4L", "dateTime": 1516903902528}, {"current_trial": 227, "trialdata": {"rt": -1, "trial_type": "single-stim", "stimulus": "<p id=\"stim\">1</p>", "internal_node_id": "0.0-155.0-9.0", "time_elapsed": 1487696, "key_press": -1, "trial_index": 227}, "uniqueid": "MTK2244:3MYYFCXHJ4EIQWEY61B9TQXYVFWG4L", "dateTime": 1516903903534}, {"current_trial": 228, "trialdata": {"rt": -1, "trial_type": "single-stim", "stimulus": "<p id=\"stim\">+</p>", "internal_node_id": "0.0-156.0-0.0", "time_elapsed": 1489200, "key_press": -1, "type": "FIXATION", "trial_index": 228}, "uniqueid": "MTK2244:3MYYFCXHJ4EIQWEY61B9TQXYVFWG4L", "dateTime": 1516903905038}, {"current_trial": 229, "trialdata": {"rt": -1000, "trial_type": "single-audio", "word": "leopard", "stimulus": "/static/audio/wordpool/LEOPARD.wav", "conditions": [24, 1600, "a", 24000], "internal_node_id": "0.0-157.0", "trial": 7, "time_elapsed": 1491935, "serialpos": 0, "key_press": -1, "wordID": 811, "type": "PRES_AUD", "trial_index": 229}, "uniqueid": "MTK2244:3MYYFCXHJ4EIQWEY61B9TQXYVFWG4L", "dateTime": 1516903907773}, {"current_trial": 230, "trialdata": {"rt": -1000, "trial_type": "single-audio", "word": "oyster", "stimulus": "/static/audio/wordpool/OYSTER.wav", "conditions": [24, 1600, "a", 24000], "internal_node_id": "0.0-158.0", "trial": 7, "time_elapsed": 1494604, "serialpos": 1, "key_press": -1, "wordID": 994, "type": "PRES_AUD", "trial_index": 230}, "uniqueid": "MTK2244:3MYYFCXHJ4EIQWEY61B9TQXYVFWG4L", "dateTime": 1516903910443}, {"current_trial": 231, "trialdata": {"rt": -1000, "trial_type": "single-audio", "word": "crab", "stimulus": "/static/audio/wordpool/CRAB.wav", "conditions": [24, 1600, "a", 24000], "internal_node_id": "0.0-159.0", "trial": 7, "time_elapsed": 1497106, "serialpos": 2, "key_press": -1, "wordID": 396, "type": "PRES_AUD", "trial_index": 231}, "uniqueid": "MTK2244:3MYYFCXHJ4EIQWEY61B9TQXYVFWG4L", "dateTime": 1516903912944}, {"current_trial": 232, "trialdata": {"rt": -1000, "trial_type": "single-audio", "word": "cottage", "stimulus": "/static/audio/wordpool/COTTAGE.wav", "conditions": [24, 1600, "a", 24000], "internal_node_id": "0.0-160.0", "trial": 7, "time_elapsed": 1499700, "serialpos": 3, "key_press": -1, "wordID": 383, "type": "PRES_AUD", "trial_index": 232}, "uniqueid": "MTK2244:3MYYFCXHJ4EIQWEY61B9TQXYVFWG4L", "dateTime": 1516903915538}, {"current_trial": 233, "trialdata": {"rt": -1000, "trial_type": "single-audio", "word": "panther", "stimulus": "/static/audio/wordpool/PANTHER.wav", "conditions": [24, 1600, "a", 24000], "internal_node_id": "0.0-161.0", "trial": 7, "time_elapsed": 1502417, "serialpos": 4, "key_press": -1, "wordID": 1008, "type": "PRES_AUD", "trial_index": 233}, "uniqueid": "MTK2244:3MYYFCXHJ4EIQWEY61B9TQXYVFWG4L", "dateTime": 1516903918256}, {"current_trial": 234, "trialdata": {"rt": -1000, "trial_type": "single-audio", "word": "slime", "stimulus": "/static/audio/wordpool/SLIME.wav", "conditions": [24, 1600, "a", 24000], "internal_node_id": "0.0-162.0", "trial": 7, "time_elapsed": 1504947, "serialpos": 5, "key_press": -1, "wordID": 1326, "type": "PRES_AUD", "trial_index": 234}, "uniqueid": "MTK2244:3MYYFCXHJ4EIQWEY61B9TQXYVFWG4L", "dateTime": 1516903920785}, {"current_trial": 235, "trialdata": {"rt": -1000, "trial_type": "single-audio", "word": "picture", "stimulus": "/static/audio/wordpool/PICTURE.wav", "conditions": [24, 1600, "a", 24000], "internal_node_id": "0.0-163.0", "trial": 7, "time_elapsed": 1507657, "serialpos": 6, "key_press": -1, "wordID": 1060, "type": "PRES_AUD", "trial_index": 235}, "uniqueid": "MTK2244:3MYYFCXHJ4EIQWEY61B9TQXYVFWG4L", "dateTime": 1516903923495}, {"current_trial": 236, "trialdata": {"rt": -1000, "trial_type": "single-audio", "word": "actor", "stimulus": "/static/audio/wordpool/ACTOR.wav", "conditions": [24, 1600, "a", 24000], "internal_node_id": "0.0-164.0", "trial": 7, "time_elapsed": 1510433, "serialpos": 7, "key_press": -1, "wordID": 4, "type": "PRES_AUD", "trial_index": 236}, "uniqueid": "MTK2244:3MYYFCXHJ4EIQWEY61B9TQXYVFWG4L", "dateTime": 1516903926272}, {"current_trial": 237, "trialdata": {"rt": -1000, "trial_type": "single-audio", "word": "cabbage", "stimulus": "/static/audio/wordpool/CABBAGE.wav", "conditions": [24, 1600, "a", 24000], "internal_node_id": "0.0-165.0", "trial": 7, "time_elapsed": 1513132, "serialpos": 8, "key_press": -1, "wordID": 209, "type": "PRES_AUD", "trial_index": 237}, "uniqueid": "MTK2244:3MYYFCXHJ4EIQWEY61B9TQXYVFWG4L", "dateTime": 1516903928970}, {"current_trial": 238, "trialdata": {"rt": -1000, "trial_type": "single-audio", "word": "motel", "stimulus": "/static/audio/wordpool/MOTEL.wav", "conditions": [24, 1600, "a", 24000], "internal_node_id": "0.0-166.0", "trial": 7, "time_elapsed": 1515703, "serialpos": 9, "key_press": -1, "wordID": 918, "type": "PRES_AUD", "trial_index": 238}, "uniqueid": "MTK2244:3MYYFCXHJ4EIQWEY61B9TQXYVFWG4L", "dateTime": 1516903931541}, {"current_trial": 239, "trialdata": {"rt": -1000, "trial_type": "single-audio", "word": "dentist", "stimulus": "/static/audio/wordpool/DENTIST.wav", "conditions": [24, 1600, "a", 24000], "internal_node_id": "0.0-167.0", "trial": 7, "time_elapsed": 1518414, "serialpos": 10, "key_press": -1, "wordID": 446, "type": "PRES_AUD", "trial_index": 239}, "uniqueid": "MTK2244:3MYYFCXHJ4EIQWEY61B9TQXYVFWG4L", "dateTime": 1516903934252}, {"current_trial": 240, "trialdata": {"rt": -1000, "trial_type": "single-audio", "word": "flower", "stimulus": "/static/audio/wordpool/FLOWER.wav", "conditions": [24, 1600, "a", 24000], "internal_node_id": "0.0-168.0", "trial": 7, "time_elapsed": 1520899, "serialpos": 11, "key_press": -1, "wordID": 583, "type": "PRES_AUD", "trial_index": 240}, "uniqueid": "MTK2244:3MYYFCXHJ4EIQWEY61B9TQXYVFWG4L", "dateTime": 1516903936737}, {"current_trial": 241, "trialdata": {"rt": -1000, "trial_type": "single-audio", "word": "virus", "stimulus": "/static/audio/wordpool/VIRUS.wav", "conditions": [24, 1600, "a", 24000], "internal_node_id": "0.0-169.0", "trial": 7, "time_elapsed": 1523511, "serialpos": 12, "key_press": -1, "wordID": 1571, "type": "PRES_AUD", "trial_index": 241}, "uniqueid": "MTK2244:3MYYFCXHJ4EIQWEY61B9TQXYVFWG4L", "dateTime": 1516903939349}, {"current_trial": 242, "trialdata": {"rt": -1000, "trial_type": "single-audio", "word": "seagull", "stimulus": "/static/audio/wordpool/SEAGULL.wav", "conditions": [24, 1600, "a", 24000], "internal_node_id": "0.0-170.0", "trial": 7, "time_elapsed": 1526306, "serialpos": 13, "key_press": -1, "wordID": 1260, "type": "PRES_AUD", "trial_index": 242}, "uniqueid": "MTK2244:3MYYFCXHJ4EIQWEY61B9TQXYVFWG4L", "dateTime": 1516903942145}, {"current_trial": 243, "trialdata": {"rt": -1000, "trial_type": "single-audio", "word": "receipt", "stimulus": "/static/audio/wordpool/RECEIPT.wav", "conditions": [24, 1600, "a", 24000], "internal_node_id": "0.0-171.0", "trial": 7, "time_elapsed": 1528753, "serialpos": 14, "key_press": -1, "wordID": 1172, "type": "PRES_AUD", "trial_index": 243}, "uniqueid": "MTK2244:3MYYFCXHJ4EIQWEY61B9TQXYVFWG4L", "dateTime": 1516903944591}, {"current_trial": 244, "trialdata": {"rt": -1000, "trial_type": "single-audio", "word": "liver", "stimulus": "/static/audio/wordpool/LIVER.wav", "conditions": [24, 1600, "a", 24000], "internal_node_id": "0.0-172.0", "trial": 7, "time_elapsed": 1531458, "serialpos": 15, "key_press": -1, "wordID": 832, "type": "PRES_AUD", "trial_index": 244}, "uniqueid": "MTK2244:3MYYFCXHJ4EIQWEY61B9TQXYVFWG4L", "dateTime": 1516903947296}, {"current_trial": 245, "trialdata": {"rt": -1000, "trial_type": "single-audio", "word": "europe", "stimulus": "/static/audio/wordpool/EUROPE.wav", "conditions": [24, 1600, "a", 24000], "internal_node_id": "0.0-173.0", "trial": 7, "time_elapsed": 1534182, "serialpos": 16, "key_press": -1, "wordID": 540, "type": "PRES_AUD", "trial_index": 245}, "uniqueid": "MTK2244:3MYYFCXHJ4EIQWEY61B9TQXYVFWG4L", "dateTime": 1516903950021}, {"current_trial": 246, "trialdata": {"rt": -1000, "trial_type": "single-audio", "word": "egypt", "stimulus": "/static/audio/wordpool/EGYPT.wav", "conditions": [24, 1600, "a", 24000], "internal_node_id": "0.0-174.0", "trial": 7, "time_elapsed": 1536891, "serialpos": 17, "key_press": -1, "wordID": 518, "type": "PRES_AUD", "trial_index": 246}, "uniqueid": "MTK2244:3MYYFCXHJ4EIQWEY61B9TQXYVFWG4L", "dateTime": 1516903952730}, {"current_trial": 247, "trialdata": {"rt": -1000, "trial_type": "single-audio", "word": "market", "stimulus": "/static/audio/wordpool/MARKET.wav", "conditions": [24, 1600, "a", 24000], "internal_node_id": "0.0-175.0", "trial": 7, "time_elapsed": 1539382, "serialpos": 18, "key_press": -1, "wordID": 870, "type": "PRES_AUD", "trial_index": 247}, "uniqueid": "MTK2244:3MYYFCXHJ4EIQWEY61B9TQXYVFWG4L", "dateTime": 1516903955220}, {"current_trial": 248, "trialdata": {"rt": -1000, "trial_type": "single-audio", "word": "camel", "stimulus": "/static/audio/wordpool/CAMEL.wav", "conditions": [24, 1600, "a", 24000], "internal_node_id": "0.0-176.0", "trial": 7, "time_elapsed": 1541938, "serialpos": 19, "key_press": -1, "wordID": 222, "type": "PRES_AUD", "trial_index": 248}, "uniqueid": "MTK2244:3MYYFCXHJ4EIQWEY61B9TQXYVFWG4L", "dateTime": 1516903957777}, {"current_trial": 249, "trialdata": {"rt": -1000, "trial_type": "single-audio", "word": "eagle", "stimulus": "/static/audio/wordpool/EAGLE.wav", "conditions": [24, 1600, "a", 24000], "internal_node_id": "0.0-177.0", "trial": 7, "time_elapsed": 1544423, "serialpos": 20, "key_press": -1, "wordID": 511, "type": "PRES_AUD", "trial_index": 249}, "uniqueid": "MTK2244:3MYYFCXHJ4EIQWEY61B9TQXYVFWG4L", "dateTime": 1516903960261}, {"current_trial": 250, "trialdata": {"rt": -1000, "trial_type": "single-audio", "word": "survey", "stimulus": "/static/audio/wordpool/SURVEY.wav", "conditions": [24, 1600, "a", 24000], "internal_node_id": "0