{"assignmentId": "338JKRMM276BSHPQZ83IRTVZ153AHI", "workerId": "MTK2019", "questiondata": {"origin": "United States", "strat-rehearsal": "47", "marital": "Not Reported", "education": "High school diploma", "ethnicity": "Not Hispanic", "color_depth": 24, "distracted": "No", "wrote-notes": "No", "strat-other": "", "screen_width": 1366, "avail_screen_width": 1366, "avail_screen_height": 728, "strat-image": "67", "language": "english", "gender": "Female", "age": "56", "gender_other": "", "race": ["White"], "strat-categorize": "69", "pixel_depth": 24, "strat-spatial": "57", "strat-story": "12", "race_other": "", "screen_height": 768}, "bonus": 0, "hitId": "31JUPBOORNBX85H73TT0YAMRAJGL8D", "counterbalance": 2656, "useragent": "Mozilla/5.0 (Windows NT 10.0; Win64; x64) AppleWebKit/537.36 (KHTML, like Gecko) Chrome/63.0.3239.132 Safari/537.36", "eventdata": [{"eventtype": "initialized", "interval": 0, "value": null, "timestamp": 1516650967242}, {"eventtype": "window_resize", "interval": 0, "value": [1366, 721], "timestamp": 1516650967242}, {"eventtype": "focus", "interval": 1656672, "value": "off", "timestamp": 1516652623914}, {"eventtype": "focus", "interval": 26742, "value": "on", "timestamp": 1516652650656}, {"eventtype": "focus", "interval": 788900, "value": "off", "timestamp": 1516653439556}, {"eventtype": "focus", "interval": 3, "value": "on", "timestamp": 1516653439559}, {"eventtype": "focus", "interval": 480923, "value": "off", "timestamp": 1516653920482}, {"eventtype": "focus", "interval": 5776, "value": "on", "timestamp": 1516653926258}, {"eventtype": "focus", "interval": 184852, "value": "off", "timestamp": 1516654111110}, {"eventtype": "focus", "interval": 6945, "value": "on", "timestamp": 1516654118055}, {"eventtype": "focus", "interval": 1933, "value": "off", "timestamp": 1516654119988}, {"eventtype": "focus", "interval": 2379, "value": "on", "timestamp": 1516654122367}, {"eventtype": "focus", "interval": 297, "value": "off", "timestamp": 1516654122664}, {"eventtype": "focus", "interval": 2665, "value": "on", "timestamp": 1516654125329}, {"eventtype": "focus", "interval": 7, "value": "off", "timestamp": 1516654125336}, {"eventtype": "focus", "interval": 15, "value": "on", "timestamp": 1516654125351}, {"eventtype": "focus", "interval": 7, "value": "off", "timestamp": 1516654125358}, {"eventtype": "focus", "interval": 2825, "value": "on", "timestamp": 1516654128183}], "data": [{"current_trial": 0, "trialdata": {"rt": 3396, "trial_type": "text", "internal_node_id": "0.0-0.0", "time_elapsed": 3398, "key_press": 13, "type": "INSTRUCTIONS", "trial_index": 0}, "uniqueid": "MTK2019:338JKRMM276BSHPQZ83IRTVZ153AHI", "dateTime": 1516650971199}, {"current_trial": 1, "trialdata": {"rt": 20237, "trial_type": "text", "internal_node_id": "0.0-1.0", "time_elapsed": 23637, "key_press": 13, "type": "INSTRUCTIONS", "trial_index": 1}, "uniqueid": "MTK2019:338JKRMM276BSHPQZ83IRTVZ153AHI", "dateTime": 1516650991438}, {"current_trial": 2, "trialdata": {"rt": [13936], "trial_type": "audio-test", "responses": ["ocean"], "internal_node_id": "0.0-2.0", "time_elapsed": 37593, "type": "AUDIO_TEST", "trial_index": 2}, "uniqueid": "MTK2019:338JKRMM276BSHPQZ83IRTVZ153AHI", "dateTime": 1516651005394}, {"current_trial": 3, "trialdata": {"rt": [42633], "trial_type": "audio-test", "responses": ["crystal"], "internal_node_id": "0.0-3.0", "time_elapsed": 80231, "type": "AUDIO_TEST", "trial_index": 3}, "uniqueid": "MTK2019:338JKRMM276BSHPQZ83IRTVZ153AHI", "dateTime": 1516651048032}, {"current_trial": 4, "trialdata": {"rt": [8089], "trial_type": "audio-test", "responses": ["spice"], "internal_node_id": "0.0-4.0", "time_elapsed": 88324, "type": "AUDIO_TEST", "trial_index": 4}, "uniqueid": "MTK2019:338JKRMM276BSHPQZ83IRTVZ153AHI", "dateTime": 1516651056125}, {"current_trial": 5, "trialdata": {"rt": 22358, "trial_type": "survey-text", "responses": "{\"Q0\":\"11:00\",\"Q1\":\"8:00\",\"Q2\":\"5\"}", "internal_node_id": "0.0-5.0", "time_elapsed": 111435, "type": "SLEEP_SURVEY", "trial_index": 5}, "uniqueid": "MTK2019:338JKRMM276BSHPQZ83IRTVZ153AHI", "dateTime": 1516651079236}, {"current_trial": 6, "trialdata": {"rt": 34425, "trial_type": "text", "internal_node_id": "0.0-6.0", "time_elapsed": 146861, "key_press": 13, "type": "INSTRUCTIONS", "trial_index": 6}, "uniqueid": "MTK2019:338JKRMM276BSHPQZ83IRTVZ153AHI", "dateTime": 1516651114662}, {"current_trial": 7, "trialdata": {"rt": 14161, "trial_type": "text", "internal_node_id": "0.0-7.0", "time_elapsed": 161522, "key_press": 13, "type": "INSTRUCTIONS", "trial_index": 7}, "uniqueid": "MTK2019:338JKRMM276BSHPQZ83IRTVZ153AHI", "dateTime": 1516651129323}, {"current_trial": 8, "trialdata": {"rt": 10447, "trial_type": "text", "internal_node_id": "0.0-8.0", "time_elapsed": 172471, "key_press": 13, "type": "INSTRUCTIONS", "trial_index": 8}, "uniqueid": "MTK2019:338JKRMM276BSHPQZ83IRTVZ153AHI", "dateTime": 1516651140272}, {"current_trial": 9, "trialdata": {"rt": [4332, 8544, 14133], "trial_type": "math-distractor", "key_times": [2532, 2903, 4332, 6625, 7017, 8544, 12920, 13134, 14133, 17074, 17365], "responses": ["13", "13", "25"], "num2": [4, 3, 9, 8], "num3": [3, 4, 9, 2], "conditions": [18, 1200, "v", 18000], "internal_node_id": "0.0-9.0", "key_presses": [97, 99, 13, 97, 99, 13, 98, 101, 13, 97, 99], "trial": 0, "time_elapsed": 191475, "type": "DISTRACTOR", "trial_index": 9, "num1": [6, 6, 7, 3]}, "uniqueid": "MTK2019:338JKRMM276BSHPQZ83IRTVZ153AHI", "dateTime": 1516651159276}, {"current_trial": 10, "trialdata": {"rt": -1, "trial_type": "single-stim", "stimulus": "<p id=\"stim\">10</p>", "internal_node_id": "0.0-10.0-0.0", "time_elapsed": 194477, "key_press": -1, "trial_index": 10}, "uniqueid": "MTK2019:338JKRMM276BSHPQZ83IRTVZ153AHI", "dateTime": 1516651162278}, {"current_trial": 11, "trialdata": {"rt": -1, "trial_type": "single-stim", "stimulus": "<p id=\"stim\">9</p>", "internal_node_id": "0.0-10.0-1.0", "time_elapsed": 195478, "key_press": -1, "trial_index": 11}, "uniqueid": "MTK2019:338JKRMM276BSHPQZ83IRTVZ153AHI", "dateTime": 1516651163279}, {"current_trial": 12, "trialdata": {"rt": -1, "trial_type": "single-stim", "stimulus": "<p id=\"stim\">8</p>", "internal_node_id": "0.0-10.0-2.0", "time_elapsed": 196479, "key_press": -1, "trial_index": 12}, "uniqueid": "MTK2019:338JKRMM276BSHPQZ83IRTVZ153AHI", "dateTime": 1516651164280}, {"current_trial": 13, "trialdata": {"rt": -1, "trial_type": "single-stim", "stimulus": "<p id=\"stim\">7</p>", "internal_node_id": "0.0-10.0-3.0", "time_elapsed": 197480, "key_press": -1, "trial_index": 13}, "uniqueid": "MTK2019:338JKRMM276BSHPQZ83IRTVZ153AHI", "dateTime": 1516651165281}, {"current_trial": 14, "trialdata": {"rt": -1, "trial_type": "single-stim", "stimulus": "<p id=\"stim\">6</p>", "internal_node_id": "0.0-10.0-4.0", "time_elapsed": 198481, "key_press": -1, "trial_index": 14}, "uniqueid": "MTK2019:338JKRMM276BSHPQZ83IRTVZ153AHI", "dateTime": 1516651166283}, {"current_trial": 15, "trialdata": {"rt": -1, "trial_type": "single-stim", "stimulus": "<p id=\"stim\">5</p>", "internal_node_id": "0.0-10.0-5.0", "time_elapsed": 199483, "key_press": -1, "trial_index": 15}, "uniqueid": "MTK2019:338JKRMM276BSHPQZ83IRTVZ153AHI", "dateTime": 1516651167284}, {"current_trial": 16, "trialdata": {"rt": -1, "trial_type": "single-stim", "stimulus": "<p id=\"stim\">4</p>", "internal_node_id": "0.0-10.0-6.0", "time_elapsed": 200483, "key_press": -1, "trial_index": 16}, "uniqueid": "MTK2019:338JKRMM276BSHPQZ83IRTVZ153AHI", "dateTime": 1516651168285}, {"current_trial": 17, "trialdata": {"rt": -1, "trial_type": "single-stim", "stimulus": "<p id=\"stim\">3</p>", "internal_node_id": "0.0-10.0-7.0", "time_elapsed": 201486, "key_press": -1, "trial_index": 17}, "uniqueid": "MTK2019:338JKRMM276BSHPQZ83IRTVZ153AHI", "dateTime": 1516651169287}, {"current_trial": 18, "trialdata": {"rt": -1, "trial_type": "single-stim", "stimulus": "<p id=\"stim\">2</p>", "internal_node_id": "0.0-10.0-8.0", "time_elapsed": 202487, "key_press": -1, "trial_index": 18}, "uniqueid": "MTK2019:338JKRMM276BSHPQZ83IRTVZ153AHI", "dateTime": 1516651170288}, {"current_trial": 19, "trialdata": {"rt": -1, "trial_type": "single-stim", "stimulus": "<p id=\"stim\">1</p>", "internal_node_id": "0.0-10.0-9.0", "time_elapsed": 203488, "key_press": -1, "trial_index": 19}, "uniqueid": "MTK2019:338JKRMM276BSHPQZ83IRTVZ153AHI", "dateTime": 1516651171289}, {"current_trial": 20, "trialdata": {"rt": -1, "trial_type": "single-stim", "stimulus": "<p id=\"stim\">+</p>", "internal_node_id": "0.0-11.0-0.0", "time_elapsed": 204989, "key_press": -1, "type": "FIXATION", "trial_index": 20}, "uniqueid": "MTK2019:338JKRMM276BSHPQZ83IRTVZ153AHI", "dateTime": 1516651172790}, {"current_trial": 21, "trialdata": {"rt": -1, "trial_type": "single-stim", "word": "seafood", "stimulus": "<p id=\"stim\">SEAFOOD</p>", "conditions": [18, 1200, "v", 18000], "internal_node_id": "0.0-12.0", "trial": 0, "time_elapsed": 206190, "serialpos": 0, "key_press": -1, "wordID": 1259, "type": "PRES_VIS", "trial_index": 21}, "uniqueid": "MTK2019:338JKRMM276BSHPQZ83IRTVZ153AHI", "dateTime": 1516651173991}, {"current_trial": 22, "trialdata": {"rt": -1, "trial_type": "single-stim", "word": "ghetto", "stimulus": "<p id=\"stim\">GHETTO</p>", "conditions": [18, 1200, "v", 18000], "internal_node_id": "0.0-13.0", "trial": 0, "time_elapsed": 208552, "serialpos": 1, "key_press": -1, "wordID": 632, "type": "PRES_VIS", "trial_index": 22}, "uniqueid": "MTK2019:338JKRMM276BSHPQZ83IRTVZ153AHI", "dateTime": 1516651176353}, {"current_trial": 23, "trialdata": {"rt": -1, "trial_type": "single-stim", "word": "garbage", "stimulus": "<p id=\"stim\">GARBAGE</p>", "conditions": [18, 1200, "v", 18000], "internal_node_id": "0.0-14.0", "trial": 0, "time_elapsed": 210748, "serialpos": 2, "key_press": -1, "wordID": 621, "type": "PRES_VIS", "trial_index": 23}, "uniqueid": "MTK2019:338JKRMM276BSHPQZ83IRTVZ153AHI", "dateTime": 1516651178549}, {"current_trial": 24, "trialdata": {"rt": -1, "trial_type": "single-stim", "word": "barley", "stimulus": "<p id=\"stim\">BARLEY</p>", "conditions": [18, 1200, "v", 18000], "internal_node_id": "0.0-15.0", "trial": 0, "time_elapsed": 213105, "serialpos": 3, "key_press": -1, "wordID": 87, "type": "PRES_VIS", "trial_index": 24}, "uniqueid": "MTK2019:338JKRMM276BSHPQZ83IRTVZ153AHI", "dateTime": 1516651180906}, {"current_trial": 25, "trialdata": {"rt": -1, "trial_type": "single-stim", "word": "forehead", "stimulus": "<p id=\"stim\">FOREHEAD</p>", "conditions": [18, 1200, "v", 18000], "internal_node_id": "0.0-16.0", "trial": 0, "time_elapsed": 215173, "serialpos": 4, "key_press": -1, "wordID": 591, "type": "PRES_VIS", "trial_index": 25}, "uniqueid": "MTK2019:338JKRMM276BSHPQZ83IRTVZ153AHI", "dateTime": 1516651182974}, {"current_trial": 26, "trialdata": {"rt": -1, "trial_type": "single-stim", "word": "servant", "stimulus": "<p id=\"stim\">SERVANT</p>", "conditions": [18, 1200, "v", 18000], "internal_node_id": "0.0-17.0", "trial": 0, "time_elapsed": 217420, "serialpos": 5, "key_press": -1, "wordID": 1270, "type": "PRES_VIS", "trial_index": 26}, "uniqueid": "MTK2019:338JKRMM276BSHPQZ83IRTVZ153AHI", "dateTime": 1516651185221}, {"current_trial": 27, "trialdata": {"rt": -1, "trial_type": "single-stim", "word": "paper", "stimulus": "<p id=\"stim\">PAPER</p>", "conditions": [18, 1200, "v", 18000], "internal_node_id": "0.0-18.0", "trial": 0, "time_elapsed": 219460, "serialpos": 6, "key_press": -1, "wordID": 1010, "type": "PRES_VIS", "trial_index": 27}, "uniqueid": "MTK2019:338JKRMM276BSHPQZ83IRTVZ153AHI", "dateTime": 1516651187261}, {"current_trial": 28, "trialdata": {"rt": -1, "trial_type": "single-stim", "word": "scallop", "stimulus": "<p id=\"stim\">SCALLOP</p>", "conditions": [18, 1200, "v", 18000], "internal_node_id": "0.0-19.0", "trial": 0, "time_elapsed": 221796, "serialpos": 7, "key_press": -1, "wordID": 1241, "type": "PRES_VIS", "trial_index": 28}, "uniqueid": "MTK2019:338JKRMM276BSHPQZ83IRTVZ153AHI", "dateTime": 1516651189597}, {"current_trial": 29, "trialdata": {"rt": -1, "trial_type": "single-stim", "word": "champagne", "stimulus": "<p id=\"stim\">CHAMPAGNE</p>", "conditions": [18, 1200, "v", 18000], "internal_node_id": "0.0-20.0", "trial": 0, "time_elapsed": 223921, "serialpos": 8, "key_press": -1, "wordID": 277, "type": "PRES_VIS", "trial_index": 29}, "uniqueid": "MTK2019:338JKRMM276BSHPQZ83IRTVZ153AHI", "dateTime": 1516651191722}, {"current_trial": 30, "trialdata": {"rt": -1, "trial_type": "single-stim", "word": "curtain", "stimulus": "<p id=\"stim\">CURTAIN</p>", "conditions": [18, 1200, "v", 18000], "internal_node_id": "0.0-21.0", "trial": 0, "time_elapsed": 226066, "serialpos": 9, "key_press": -1, "wordID": 426, "type": "PRES_VIS", "trial_index": 30}, "uniqueid": "MTK2019:338JKRMM276BSHPQZ83IRTVZ153AHI", "dateTime": 1516651193867}, {"current_trial": 31, "trialdata": {"rt": -1, "trial_type": "single-stim", "word": "pimple", "stimulus": "<p id=\"stim\">PIMPLE</p>", "conditions": [18, 1200, "v", 18000], "internal_node_id": "0.0-22.0", "trial": 0, "time_elapsed": 228404, "serialpos": 10, "key_press": -1, "wordID": 1070, "type": "PRES_VIS", "trial_index": 31}, "uniqueid": "MTK2019:338JKRMM276BSHPQZ83IRTVZ153AHI", "dateTime": 1516651196205}, {"current_trial": 32, "trialdata": {"rt": -1, "trial_type": "single-stim", "word": "maple", "stimulus": "<p id=\"stim\">MAPLE</p>", "conditions": [18, 1200, "v", 18000], "internal_node_id": "0.0-23.0", "trial": 0, "time_elapsed": 230520, "serialpos": 11, "key_press": -1, "wordID": 865, "type": "PRES_VIS", "trial_index": 32}, "uniqueid": "MTK2019:338JKRMM276BSHPQZ83IRTVZ153AHI", "dateTime": 1516651198321}, {"current_trial": 33, "trialdata": {"rt": -1, "trial_type": "single-stim", "word": "banquet", "stimulus": "<p id=\"stim\">BANQUET</p>", "conditions": [18, 1200, "v", 18000], "internal_node_id": "0.0-24.0", "trial": 0, "time_elapsed": 232760, "serialpos": 12, "key_press": -1, "wordID": 85, "type": "PRES_VIS", "trial_index": 33}, "uniqueid": "MTK2019:338JKRMM276BSHPQZ83IRTVZ153AHI", "dateTime": 1516651200561}, {"current_trial": 34, "trialdata": {"rt": -1, "trial_type": "single-stim", "word": "flipper", "stimulus": "<p id=\"stim\">FLIPPER</p>", "conditions": [18, 1200, "v", 18000], "internal_node_id": "0.0-25.0", "trial": 0, "time_elapsed": 234880, "serialpos": 13, "key_press": -1, "wordID": 579, "type": "PRES_VIS", "trial_index": 34}, "uniqueid": "MTK2019:338JKRMM276BSHPQZ83IRTVZ153AHI", "dateTime": 1516651202681}, {"current_trial": 35, "trialdata": {"rt": -1, "trial_type": "single-stim", "word": "picnic", "stimulus": "<p id=\"stim\">PICNIC</p>", "conditions": [18, 1200, "v", 18000], "internal_node_id": "0.0-26.0", "trial": 0, "time_elapsed": 236952, "serialpos": 14, "key_press": -1, "wordID": 1059, "type": "PRES_VIS", "trial_index": 35}, "uniqueid": "MTK2019:338JKRMM276BSHPQZ83IRTVZ153AHI", "dateTime": 1516651204753}, {"current_trial": 36, "trialdata": {"rt": -1, "trial_type": "single-stim", "word": "author", "stimulus": "<p id=\"stim\">AUTHOR</p>", "conditions": [18, 1200, "v", 18000], "internal_node_id": "0.0-27.0", "trial": 0, "time_elapsed": 239064, "serialpos": 15, "key_press": -1, "wordID": 60, "type": "PRES_VIS", "trial_index": 36}, "uniqueid": "MTK2019:338JKRMM276BSHPQZ83IRTVZ153AHI", "dateTime": 1516651206865}, {"current_trial": 37, "trialdata": {"rt": -1, "trial_type": "single-stim", "word": "mars", "stimulus": "<p id=\"stim\">MARS</p>", "conditions": [18, 1200, "v", 18000], "internal_node_id": "0.0-28.0", "trial": 0, "time_elapsed": 241346, "serialpos": 16, "key_press": -1, "wordID": 872, "type": "PRES_VIS", "trial_index": 37}, "uniqueid": "MTK2019:338JKRMM276BSHPQZ83IRTVZ153AHI", "dateTime": 1516651209147}, {"current_trial": 38, "trialdata": {"rt": -1, "trial_type": "single-stim", "word": "cousin", "stimulus": "<p id=\"stim\">COUSIN</p>", "conditions": [18, 1200, "v", 18000], "internal_node_id": "0.0-29.0", "trial": 0, "time_elapsed": 243461, "serialpos": 17, "key_press": -1, "wordID": 391, "type": "PRES_VIS", "trial_index": 38}, "uniqueid": "MTK2019:338JKRMM276BSHPQZ83IRTVZ153AHI", "dateTime": 1516651211263}, {"current_trial": 39, "trialdata": {"rt": -1, "trial_type": "single-stim", "stimulus": "", "internal_node_id": "0.0-30.0-0.0", "time_elapsed": 245866, "key_press": -1, "type": "PRE_RECALL_DELAY", "trial_index": 39}, "uniqueid": "MTK2019:338JKRMM276BSHPQZ83IRTVZ153AHI", "dateTime": 1516651213667}, {"current_trial": 40, "trialdata": {"rt": -1000, "trial_type": "single-audio", "stimulus": "/static/audio/400Hz.wav", "internal_node_id": "0.0-31.0", "time_elapsed": 246376, "key_press": -1, "type": "PRE_RECALL_ALERT", "trial_index": 40}, "uniqueid": "MTK2019:338JKRMM276BSHPQZ83IRTVZ153AHI", "dateTime": 1516651214177}, {"current_trial": 41, "trialdata": {"rt": [6793, 11247, 14318, 16248, 20392, 22318, 24465, 28656, 38400, 51867], "recwords": ["seafood", "ghetto", "garbage", "curtain", "flipper", "maple", "pimple", "curtain", "", "barley"], "key_times": [4298, 4529, 4743, 5830, 6110, 6292, 6402, 6793, 7966, 8292, 8635, 9078, 9247, 10757, 11247, 12276, 12539, 12786, 13157, 13430, 13667, 13905, 14318, 14878, 15105, 15237, 15433, 15642, 15759, 15869, 16248, 18700, 18977, 19070, 19420, 19577, 19677, 19769, 20392, 21362, 21472, 21688, 21798, 21968, 22318, 23044, 23338, 23590, 23904, 24143, 24240, 24465, 27405, 27758, 27871, 28076, 28258, 28308, 28425, 28656, 38400, 50654, 50932, 51046, 51181, 51454, 51570, 51867], "trial_type": "free-recall", "conditions": [18, 1200, "v", 18000], "internal_node_id": "0.0-32.0-0.0", "key_presses": [83, 69, 65, 70, 79, 79, 68, 13, 71, 72, 69, 84, 84, 79, 13, 71, 65, 82, 66, 65, 71, 69, 13, 67, 85, 82, 84, 65, 73, 78, 13, 70, 76, 73, 80, 80, 69, 82, 13, 77, 65, 80, 76, 69, 13, 80, 73, 77, 80, 76, 69, 13, 67, 85, 82, 84, 65, 73, 78, 13, 13, 66, 65, 82, 76, 69, 89, 13], "trial": 0, "time_elapsed": 306379, "type": "FREE_RECALL", "trial_index": 41}, "uniqueid": "MTK2019:338JKRMM276BSHPQZ83IRTVZ153AHI", "dateTime": 1516651274182}, {"current_trial": 42, "trialdata": {"rt": 1858, "trial_type": "text", "internal_node_id": "0.0-33.0", "time_elapsed": 310239, "key_press": 13, "type": "INSTRUCTIONS", "trial_index": 42}, "uniqueid": "MTK2019:338JKRMM276BSHPQZ83IRTVZ153AHI", "dateTime": 1516651278040}, {"current_trial": 43, "trialdata": {"rt": [4938, 8483, 12070], "trial_type": "math-distractor", "key_times": [3249, 3758, 4938, 6866, 7281, 8483, 10575, 10998, 12070], "responses": ["13", "12", "13"], "num2": [2, 4, 3, 8], "num3": [5, 2, 9, 6], "conditions": [18, 1200, "v", 18000], "internal_node_id": "0.0-34.0", "key_presses": [97, 99, 13, 97, 98, 13, 97, 99, 13], "trial": 1, "time_elapsed": 330242, "type": "DISTRACTOR", "trial_index": 43, "num1": [6, 6, 1, 9]}, "uniqueid": "MTK2019:338JKRMM276BSHPQZ83IRTVZ153AHI", "dateTime": 1516651298043}, {"current_trial": 44, "trialdata": {"rt": -1, "trial_type": "single-stim", "stimulus": "<p id=\"stim\">10</p>", "internal_node_id": "0.0-35.0-0.0", "time_elapsed": 333244, "key_press": -1, "trial_index": 44}, "uniqueid": "MTK2019:338JKRMM276BSHPQZ83IRTVZ153AHI", "dateTime": 1516651301045}, {"current_trial": 45, "trialdata": {"rt": -1, "trial_type": "single-stim", "stimulus": "<p id=\"stim\">9</p>", "internal_node_id": "0.0-35.0-1.0", "time_elapsed": 334245, "key_press": -1, "trial_index": 45}, "uniqueid": "MTK2019:338JKRMM276BSHPQZ83IRTVZ153AHI", "dateTime": 1516651302046}, {"current_trial": 46, "trialdata": {"rt": -1, "trial_type": "single-stim", "stimulus": "<p id=\"stim\">8</p>", "internal_node_id": "0.0-35.0-2.0", "time_elapsed": 335246, "key_press": -1, "trial_index": 46}, "uniqueid": "MTK2019:338JKRMM276BSHPQZ83IRTVZ153AHI", "dateTime": 1516651303047}, {"current_trial": 47, "trialdata": {"rt": -1, "trial_type": "single-stim", "stimulus": "<p id=\"stim\">7</p>", "internal_node_id": "0.0-35.0-3.0", "time_elapsed": 336247, "key_press": -1, "trial_index": 47}, "uniqueid": "MTK2019:338JKRMM276BSHPQZ83IRTVZ153AHI", "dateTime": 1516651304048}, {"current_trial": 48, "trialdata": {"rt": -1, "trial_type": "single-stim", "stimulus": "<p id=\"stim\">6</p>", "internal_node_id": "0.0-35.0-4.0", "time_elapsed": 337247, "key_press": -1, "trial_index": 48}, "uniqueid": "MTK2019:338JKRMM276BSHPQZ83IRTVZ153AHI", "dateTime": 1516651305048}, {"current_trial": 49, "trialdata": {"rt": -1, "trial_type": "single-stim", "stimulus": "<p id=\"stim\">5</p>", "internal_node_id": "0.0-35.0-5.0", "time_elapsed": 338248, "key_press": -1, "trial_index": 49}, "uniqueid": "MTK2019:338JKRMM276BSHPQZ83IRTVZ153AHI", "dateTime": 1516651306049}, {"current_trial": 50, "trialdata": {"rt": -1, "trial_type": "single-stim", "stimulus": "<p id=\"stim\">4</p>", "internal_node_id": "0.0-35.0-6.0", "time_elapsed": 339249, "key_press": -1, "trial_index": 50}, "uniqueid": "MTK2019:338JKRMM276BSHPQZ83IRTVZ153AHI", "dateTime": 1516651307050}, {"current_trial": 51, "trialdata": {"rt": -1, "trial_type": "single-stim", "stimulus": "<p id=\"stim\">3</p>", "internal_node_id": "0.0-35.0-7.0", "time_elapsed": 340249, "key_press": -1, "trial_index": 51}, "uniqueid": "MTK2019:338JKRMM276BSHPQZ83IRTVZ153AHI", "dateTime": 1516651308050}, {"current_trial": 52, "trialdata": {"rt": -1, "trial_type": "single-stim", "stimulus": "<p id=\"stim\">2</p>", "internal_node_id": "0.0-35.0-8.0", "time_elapsed": 341250, "key_press": -1, "trial_index": 52}, "uniqueid": "MTK2019:338JKRMM276BSHPQZ83IRTVZ153AHI", "dateTime": 1516651309051}, {"current_trial": 53, "trialdata": {"rt": -1, "trial_type": "single-stim", "stimulus": "<p id=\"stim\">1</p>", "internal_node_id": "0.0-35.0-9.0", "time_elapsed": 342251, "key_press": -1, "trial_index": 53}, "uniqueid": "MTK2019:338JKRMM276BSHPQZ83IRTVZ153AHI", "dateTime": 1516651310052}, {"current_trial": 54, "trialdata": {"rt": -1, "trial_type": "single-stim", "stimulus": "<p id=\"stim\">+</p>", "internal_node_id": "0.0-36.0-0.0", "time_elapsed": 343752, "key_press": -1, "type": "FIXATION", "trial_index": 54}, "uniqueid": "MTK2019:338JKRMM276BSHPQZ83IRTVZ153AHI", "dateTime": 1516651311553}, {"current_trial": 55, "trialdata": {"rt": -1, "trial_type": "single-stim", "word": "lace", "stimulus": "<p id=\"stim\">LACE</p>", "conditions": [18, 1200, "v", 18000], "internal_node_id": "0.0-37.0", "trial": 1, "time_elapsed": 344953, "serialpos": 0, "key_press": -1, "wordID": 791, "type": "PRES_VIS", "trial_index": 55}, "uniqueid": "MTK2019:338JKRMM276BSHPQZ83IRTVZ153AHI", "dateTime": 1516651312754}, {"current_trial": 56, "trialdata": {"rt": -1, "trial_type": "single-stim", "word": "supper", "stimulus": "<p id=\"stim\">SUPPER</p>", "conditions": [18, 1200, "v", 18000], "internal_node_id": "0.0-38.0", "trial": 1, "time_elapsed": 347008, "serialpos": 1, "key_press": -1, "wordID": 1410, "type": "PRES_VIS", "trial_index": 56}, "uniqueid": "MTK2019:338JKRMM276BSHPQZ83IRTVZ153AHI", "dateTime": 1516651314809}, {"current_trial": 57, "trialdata": {"rt": -1, "trial_type": "single-stim", "word": "laser", "stimulus": "<p id=\"stim\">LASER</p>", "conditions": [18, 1200, "v", 18000], "internal_node_id": "0.0-39.0", "trial": 1, "time_elapsed": 349030, "serialpos": 2, "key_press": -1, "wordID": 800, "type": "PRES_VIS", "trial_index": 57}, "uniqueid": "MTK2019:338JKRMM276BSHPQZ83IRTVZ153AHI", "dateTime": 1516651316831}, {"current_trial": 58, "trialdata": {"rt": -1, "trial_type": "single-stim", "word": "burglar", "stimulus": "<p id=\"stim\">BURGLAR</p>", "conditions": [18, 1200, "v", 18000], "internal_node_id": "0.0-40.0", "trial": 1, "time_elapsed": 351413, "serialpos": 3, "key_press": -1, "wordID": 199, "type": "PRES_VIS", "trial_index": 58}, "uniqueid": "MTK2019:338JKRMM276BSHPQZ83IRTVZ153AHI", "dateTime": 1516651319214}, {"current_trial": 59, "trialdata": {"rt": -1, "trial_type": "single-stim", "word": "xerox", "stimulus": "<p id=\"stim\">XEROX</p>", "conditions": [18, 1200, "v", 18000], "internal_node_id": "0.0-41.0", "trial": 1, "time_elapsed": 353674, "serialpos": 4, "key_press": -1, "wordID": 1627, "type": "PRES_VIS", "trial_index": 59}, "uniqueid": "MTK2019:338JKRMM276BSHPQZ83IRTVZ153AHI", "dateTime": 1516651321475}, {"current_trial": 60, "trialdata": {"rt": -1, "trial_type": "single-stim", "word": "jury", "stimulus": "<p id=\"stim\">JURY</p>", "conditions": [18, 1200, "v", 18000], "internal_node_id": "0.0-42.0", "trial": 1, "time_elapsed": 355908, "serialpos": 5, "key_press": -1, "wordID": 765, "type": "PRES_VIS", "trial_index": 60}, "uniqueid": "MTK2019:338JKRMM276BSHPQZ83IRTVZ153AHI", "dateTime": 1516651323709}, {"current_trial": 61, "trialdata": {"rt": -1, "trial_type": "single-stim", "word": "nightgown", "stimulus": "<p id=\"stim\">NIGHTGOWN</p>", "conditions": [18, 1200, "v", 18000], "internal_node_id": "0.0-43.0", "trial": 1, "time_elapsed": 357999, "serialpos": 6, "key_press": -1, "wordID": 952, "type": "PRES_VIS", "trial_index": 61}, "uniqueid": "MTK2019:338JKRMM276BSHPQZ83IRTVZ153AHI", "dateTime": 1516651325800}, {"current_trial": 62, "trialdata": {"rt": -1, "trial_type": "single-stim", "word": "chest", "stimulus": "<p id=\"stim\">CHEST</p>", "conditions": [18, 1200, "v", 18000], "internal_node_id": "0.0-44.0", "trial": 1, "time_elapsed": 360187, "serialpos": 7, "key_press": -1, "wordID": 294, "type": "PRES_VIS", "trial_index": 62}, "uniqueid": "MTK2019:338JKRMM276BSHPQZ83IRTVZ153AHI", "dateTime": 1516651327988}, {"current_trial": 63, "trialdata": {"rt": -1, "trial_type": "single-stim", "word": "college", "stimulus": "<p id=\"stim\">COLLEGE</p>", "conditions": [18, 1200, "v", 18000], "internal_node_id": "0.0-45.0", "trial": 1, "time_elapsed": 362330, "serialpos": 8, "key_press": -1, "wordID": 345, "type": "PRES_VIS", "trial_index": 63}, "uniqueid": "MTK2019:338JKRMM276BSHPQZ83IRTVZ153AHI", "dateTime": 1516651330131}, {"current_trial": 64, "trialdata": {"rt": -1, "trial_type": "single-stim", "word": "tribe", "stimulus": "<p id=\"stim\">TRIBE</p>", "conditions": [18, 1200, "v", 18000], "internal_node_id": "0.0-46.0", "trial": 1, "time_elapsed": 364484, "serialpos": 9, "key_press": -1, "wordID": 1504, "type": "PRES_VIS", "trial_index": 64}, "uniqueid": "MTK2019:338JKRMM276BSHPQZ83IRTVZ153AHI", "dateTime": 1516651332285}, {"current_trial": 65, "trialdata": {"rt": -1, "trial_type": "single-stim", "word": "bullet", "stimulus": "<p id=\"stim\">BULLET</p>", "conditions": [18, 1200, "v", 18000], "internal_node_id": "0.0-47.0", "trial": 1, "time_elapsed": 366625, "serialpos": 10, "key_press": -1, "wordID": 193, "type": "PRES_VIS", "trial_index": 65}, "uniqueid": "MTK2019:338JKRMM276BSHPQZ83IRTVZ153AHI", "dateTime": 1516651334426}, {"current_trial": 66, "trialdata": {"rt": -1, "trial_type": "single-stim", "word": "belly", "stimulus": "<p id=\"stim\">BELLY</p>", "conditions": [18, 1200, "v", 18000], "internal_node_id": "0.0-48.0", "trial": 1, "time_elapsed": 368739, "serialpos": 11, "key_press": -1, "wordID": 118, "type": "PRES_VIS", "trial_index": 66}, "uniqueid": "MTK2019:338JKRMM276BSHPQZ83IRTVZ153AHI", "dateTime": 1516651336540}, {"current_trial": 67, "trialdata": {"rt": -1, "trial_type": "single-stim", "word": "sculpture", "stimulus": "<p id=\"stim\">SCULPTURE</p>", "conditions": [18, 1200, "v", 18000], "internal_node_id": "0.0-49.0", "trial": 1, "time_elapsed": 370772, "serialpos": 12, "key_press": -1, "wordID": 1257, "type": "PRES_VIS", "trial_index": 67}, "uniqueid": "MTK2019:338JKRMM276BSHPQZ83IRTVZ153AHI", "dateTime": 1516651338573}, {"current_trial": 68, "trialdata": {"rt": -1, "trial_type": "single-stim", "word": "rug", "stimulus": "<p id=\"stim\">RUG</p>", "conditions": [18, 1200, "v", 18000], "internal_node_id": "0.0-50.0", "trial": 1, "time_elapsed": 373109, "serialpos": 13, "key_press": -1, "wordID": 1214, "type": "PRES_VIS", "trial_index": 68}, "uniqueid": "MTK2019:338JKRMM276BSHPQZ83IRTVZ153AHI", "dateTime": 1516651340911}, {"current_trial": 69, "trialdata": {"rt": -1, "trial_type": "single-stim", "word": "diver", "stimulus": "<p id=\"stim\">DIVER</p>", "conditions": [18, 1200, "v", 18000], "internal_node_id": "0.0-51.0", "trial": 1, "time_elapsed": 375427, "serialpos": 14, "key_press": -1, "wordID": 475, "type": "PRES_VIS", "trial_index": 69}, "uniqueid": "MTK2019:338JKRMM276BSHPQZ83IRTVZ153AHI", "dateTime": 1516651343228}, {"current_trial": 70, "trialdata": {"rt": -1, "trial_type": "single-stim", "word": "dentist", "stimulus": "<p id=\"stim\">DENTIST</p>", "conditions": [18, 1200, "v", 18000], "internal_node_id": "0.0-52.0", "trial": 1, "time_elapsed": 377807, "serialpos": 15, "key_press": -1, "wordID": 446, "type": "PRES_VIS", "trial_index": 70}, "uniqueid": "MTK2019:338JKRMM276BSHPQZ83IRTVZ153AHI", "dateTime": 1516651345608}, {"current_trial": 71, "trialdata": {"rt": -1, "trial_type": "single-stim", "word": "mammal", "stimulus": "<p id=\"stim\">MAMMAL</p>", "conditions": [18, 1200, "v", 18000], "internal_node_id": "0.0-53.0", "trial": 1, "time_elapsed": 379905, "serialpos": 16, "key_press": -1, "wordID": 860, "type": "PRES_VIS", "trial_index": 71}, "uniqueid": "MTK2019:338JKRMM276BSHPQZ83IRTVZ153AHI", "dateTime": 1516651347706}, {"current_trial": 72, "trialdata": {"rt": -1, "trial_type": "single-stim", "word": "bacon", "stimulus": "<p id=\"stim\">BACON</p>", "conditions": [18, 1200, "v", 18000], "internal_node_id": "0.0-54.0", "trial": 1, "time_elapsed": 382194, "serialpos": 17, "key_press": -1, "wordID": 66, "type": "PRES_VIS", "trial_index": 72}, "uniqueid": "MTK2019:338JKRMM276BSHPQZ83IRTVZ153AHI", "dateTime": 1516651349995}, {"current_trial": 73, "trialdata": {"rt": -1, "trial_type": "single-stim", "stimulus": "", "internal_node_id": "0.0-55.0-0.0", "time_elapsed": 384344, "key_press": -1, "type": "PRE_RECALL_DELAY", "trial_index": 73}, "uniqueid": "MTK2019:338JKRMM276BSHPQZ83IRTVZ153AHI", "dateTime": 1516651352145}, {"current_trial": 74, "trialdata": {"rt": -1000, "trial_type": "single-audio", "stimulus": "/static/audio/400Hz.wav", "internal_node_id": "0.0-56.0", "time_elapsed": 384848, "key_press": -1, "type": "PRE_RECALL_ALERT", "trial_index": 74}, "uniqueid": "MTK2019:338JKRMM276BSHPQZ83IRTVZ153AHI", "dateTime": 1516651352649}, {"current_trial": 75, "trialdata": {"rt": [3391, 6929, 9484, 11162, 13092, 14486, 21776, 25962], "recwords": ["bacon", "diver", "belly", "chest", "lace", "jury", "xerox", "college"], "key_times": [1573, 1832, 2319, 2660, 3018, 3391, 3689, 3849, 4013, 4306, 4707, 4913, 5604, 6050, 6183, 6929, 7664, 8238, 8476, 8651, 8926, 9484, 9844, 9982, 10106, 10314, 10536, 11162, 11492, 11673, 11691, 12398, 12592, 12759, 13092, 13583, 13782, 13988, 14122, 14486, 20541, 20949, 21068, 21288, 21412, 21776, 24788, 24886, 25099, 25244, 25286, 25483, 25672, 25962], "trial_type": "free-recall", "conditions": [18, 1200, "v", 18000], "internal_node_id": "0.0-57.0-0.0", "key_presses": [66, 65, 67, 79, 78, 13, 68, 73, 66, 69, 8, 8, 86, 69, 82, 13, 66, 69, 76, 76, 89, 13, 67, 72, 69, 83, 84, 13, 76, 65, 83, 8, 67, 69, 13, 74, 85, 82, 89, 13, 88, 69, 82, 79, 88, 13, 67, 79, 76, 76, 69, 71, 69, 13], "trial": 1, "time_elapsed": 444851, "type": "FREE_RECALL", "trial_index": 75}, "uniqueid": "MTK2019:338JKRMM276BSHPQZ83IRTVZ153AHI", "dateTime": 1516651412654}, {"current_trial": 76, "trialdata": {"rt": 5667, "trial_type": "text", "internal_node_id": "0.0-58.0", "time_elapsed": 452521, "key_press": 13, "type": "INSTRUCTIONS", "trial_index": 76}, "uniqueid": "MTK2019:338JKRMM276BSHPQZ83IRTVZ153AHI", "dateTime": 1516651420322}, {"current_trial": 77, "trialdata": {"rt": [3891], "trial_type": "math-distractor", "key_times": [2962, 3127, 3891, 11120, 11336], "responses": ["20"], "num2": [6, 6], "num3": [5, 5], "conditions": [24, 800, "v", 12000], "internal_node_id": "0.0-59.0", "key_presses": [98, 96, 13, 98, 96], "trial": 2, "time_elapsed": 465524, "type": "DISTRACTOR", "trial_index": 77, "num1": [9, 9]}, "uniqueid": "MTK2019:338JKRMM276BSHPQZ83IRTVZ153AHI", "dateTime": 1516651433325}, {"current_trial": 78, "trialdata": {"rt": -1, "trial_type": "single-stim", "stimulus": "<p id=\"stim\">10</p>", "internal_node_id": "0.0-60.0-0.0", "time_elapsed": 468525, "key_press": -1, "trial_index": 78}, "uniqueid": "MTK2019:338JKRMM276BSHPQZ83IRTVZ153AHI", "dateTime": 1516651436326}, {"current_trial": 79, "trialdata": {"rt": -1, "trial_type": "single-stim", "stimulus": "<p id=\"stim\">9</p>", "internal_node_id": "0.0-60.0-1.0", "time_elapsed": 469526, "key_press": -1, "trial_index": 79}, "uniqueid": "MTK2019:338JKRMM276BSHPQZ83IRTVZ153AHI", "dateTime": 1516651437327}, {"current_trial": 80, "trialdata": {"rt": -1, "trial_type": "single-stim", "stimulus": "<p id=\"stim\">8</p>", "internal_node_id": "0.0-60.0-2.0", "time_elapsed": 470527, "key_press": -1, "trial_index": 80}, "uniqueid": "MTK2019:338JKRMM276BSHPQZ83IRTVZ153AHI", "dateTime": 1516651438328}, {"current_trial": 81, "trialdata": {"rt": -1, "trial_type": "single-stim", "stimulus": "<p id=\"stim\">7</p>", "internal_node_id": "0.0-60.0-3.0", "time_elapsed": 471527, "key_press": -1, "trial_index": 81}, "uniqueid": "MTK2019:338JKRMM276BSHPQZ83IRTVZ153AHI", "dateTime": 1516651439329}, {"current_trial": 82, "trialdata": {"rt": -1, "trial_type": "single-stim", "stimulus": "<p id=\"stim\">6</p>", "internal_node_id": "0.0-60.0-4.0", "time_elapsed": 472529, "key_press": -1, "trial_index": 82}, "uniqueid": "MTK2019:338JKRMM276BSHPQZ83IRTVZ153AHI", "dateTime": 1516651440330}, {"current_trial": 83, "trialdata": {"rt": -1, "trial_type": "single-stim", "stimulus": "<p id=\"stim\">5</p>", "internal_node_id": "0.0-60.0-5.0", "time_elapsed": 473531, "key_press": -1, "trial_index": 83}, "uniqueid": "MTK2019:338JKRMM276BSHPQZ83IRTVZ153AHI", "dateTime": 1516651441332}, {"current_trial": 84, "trialdata": {"rt": -1, "trial_type": "single-stim", "stimulus": "<p id=\"stim\">4</p>", "internal_node_id": "0.0-60.0-6.0", "time_elapsed": 474531, "key_press": -1, "trial_index": 84}, "uniqueid": "MTK2019:338JKRMM276BSHPQZ83IRTVZ153AHI", "dateTime": 1516651442332}, {"current_trial": 85, "trialdata": {"rt": -1, "trial_type": "single-stim", "stimulus": "<p id=\"stim\">3</p>", "internal_node_id": "0.0-60.0-7.0", "time_elapsed": 475532, "key_press": -1, "trial_index": 85}, "uniqueid": "MTK2019:338JKRMM276BSHPQZ83IRTVZ153AHI", "dateTime": 1516651443333}, {"current_trial": 86, "trialdata": {"rt": -1, "trial_type": "single-stim", "stimulus": "<p id=\"stim\">2</p>", "internal_node_id": "0.0-60.0-8.0", "time_elapsed": 476533, "key_press": -1, "trial_index": 86}, "uniqueid": "MTK2019:338JKRMM276BSHPQZ83IRTVZ153AHI", "dateTime": 1516651444334}, {"current_trial": 87, "trialdata": {"rt": -1, "trial_type": "single-stim", "stimulus": "<p id=\"stim\">1</p>", "internal_node_id": "0.0-60.0-9.0", "time_elapsed": 477533, "key_press": -1, "trial_index": 87}, "uniqueid": "MTK2019:338JKRMM276BSHPQZ83IRTVZ153AHI", "dateTime": 1516651445334}, {"current_trial": 88, "trialdata": {"rt": -1, "trial_type": "single-stim", "stimulus": "<p id=\"stim\">+</p>", "internal_node_id": "0.0-61.0-0.0", "time_elapsed": 479034, "key_press": -1, "type": "FIXATION", "trial_index": 88}, "uniqueid": "MTK2019:338JKRMM276BSHPQZ83IRTVZ153AHI", "dateTime": 1516651446835}, {"current_trial": 89, "trialdata": {"rt": -1, "trial_type": "single-stim", "word": "europe", "stimulus": "<p id=\"stim\">EUROPE</p>", "conditions": [24, 800, "v", 12000], "internal_node_id": "0.0-62.0", "trial": 2, "time_elapsed": 479835, "serialpos": 0, "key_press": -1, "wordID": 540, "type": "PRES_VIS", "trial_index": 89}, "uniqueid": "MTK2019:338JKRMM276BSHPQZ83IRTVZ153AHI", "dateTime": 1516651447637}, {"current_trial": 90, "trialdata": {"rt": -1, "trial_type": "single-stim", "word": "shoulder", "stimulus": "<p id=\"stim\">SHOULDER</p>", "conditions": [24, 800, "v", 12000], "internal_node_id": "0.0-63.0", "trial": 2, "time_elapsed": 481623, "serialpos": 1, "key_press": -1, "wordID": 1293, "type": "PRES_VIS", "trial_index": 90}, "uniqueid": "MTK2019:338JKRMM276BSHPQZ83IRTVZ153AHI", "dateTime": 1516651449424}, {"current_trial": 91, "trialdata": {"rt": -1, "trial_type": "single-stim", "word": "ground", "stimulus": "<p id=\"stim\">GROUND</p>", "conditions": [24, 800, "v", 12000], "internal_node_id": "0.0-64.0", "trial": 2, "time_elapsed": 483551, "serialpos": 2, "key_press": -1, "wordID": 665, "type": "PRES_VIS", "trial_index": 91}, "uniqueid": "MTK2019:338JKRMM276BSHPQZ83IRTVZ153AHI", "dateTime": 1516651451352}, {"current_trial": 92, "trialdata": {"rt": -1, "trial_type": "single-stim", "word": "egypt", "stimulus": "<p id=\"stim\">EGYPT</p>", "conditions": [24, 800, "v", 12000], "internal_node_id": "0.0-65.0", "trial": 2, "time_elapsed": 485539, "serialpos": 3, "key_press": -1, "wordID": 518, "type": "PRES_VIS", "trial_index": 92}, "uniqueid": "MTK2019:338JKRMM276BSHPQZ83IRTVZ153AHI", "dateTime": 1516651453340}, {"current_trial": 93, "trialdata": {"rt": -1, "trial_type": "single-stim", "word": "sticker", "stimulus": "<p id=\"stim\">STICKER</p>", "conditions": [24, 800, "v", 12000], "internal_node_id": "0.0-66.0", "trial": 2, "time_elapsed": 487283, "serialpos": 4, "key_press": -1, "wordID": 1381, "type": "PRES_VIS", "trial_index": 93}, "uniqueid": "MTK2019:338JKRMM276BSHPQZ83IRTVZ153AHI", "dateTime": 1516651455084}, {"current_trial": 94, "trialdata": {"rt": -1, "trial_type": "single-stim", "word": "airport", "stimulus": "<p id=\"stim\">AIRPORT</p>", "conditions": [24, 800, "v", 12000], "internal_node_id": "0.0-67.0", "trial": 2, "time_elapsed": 489088, "serialpos": 5, "key_press": -1, "wordID": 12, "type": "PRES_VIS", "trial_index": 94}, "uniqueid": "MTK2019:338JKRMM276BSHPQZ83IRTVZ153AHI", "dateTime": 1516651456889}, {"current_trial": 95, "trialdata": {"rt": -1, "trial_type": "single-stim", "word": "fireplace", "stimulus": "<p id=\"stim\">FIREPLACE</p>", "conditions": [24, 800, "v", 12000], "internal_node_id": "0.0-68.0", "trial": 2, "time_elapsed": 490877, "serialpos": 6, "key_press": -1, "wordID": 569, "type": "PRES_VIS", "trial_index": 95}, "uniqueid": "MTK2019:338JKRMM276BSHPQZ83IRTVZ153AHI", "dateTime": 1516651458678}, {"current_trial": 96, "trialdata": {"rt": -1, "trial_type": "single-stim", "word": "harp", "stimulus": "<p id=\"stim\">HARP</p>", "conditions": [24, 800, "v", 12000], "internal_node_id": "0.0-69.0", "trial": 2, "time_elapsed": 492552, "serialpos": 7, "key_press": -1, "wordID": 688, "type": "PRES_VIS", "trial_index": 96}, "uniqueid": "MTK2019:338JKRMM276BSHPQZ83IRTVZ153AHI", "dateTime": 1516651460353}, {"current_trial": 97, "trialdata": {"rt": -1, "trial_type": "single-stim", "word": "luggage", "stimulus": "<p id=\"stim\">LUGGAGE</p>", "conditions": [24, 800, "v", 12000], "internal_node_id": "0.0-70.0", "trial": 2, "time_elapsed": 494176, "serialpos": 8, "key_press": -1, "wordID": 846, "type": "PRES_VIS", "trial_index": 97}, "uniqueid": "MTK2019:338JKRMM276BSHPQZ83IRTVZ153AHI", "dateTime": 1516651461977}, {"current_trial": 98, "trialdata": {"rt": -1, "trial_type": "single-stim", "word": "suitcase", "stimulus": "<p id=\"stim\">SUITCASE</p>", "conditions": [24, 800, "v", 12000], "internal_node_id": "0.0-71.0", "trial": 2, "time_elapsed": 495887, "serialpos": 9, "key_press": -1, "wordID": 1402, "type": "PRES_VIS", "trial_index": 98}, "uniqueid": "MTK2019:338JKRMM276BSHPQZ83IRTVZ153AHI", "dateTime": 1516651463688}, {"current_trial": 99, "trialdata": {"rt": -1, "trial_type": "single-stim", "word": "agent", "stimulus": "<p id=\"stim\">AGENT</p>", "conditions": [24, 800, "v", 12000], "internal_node_id": "0.0-72.0", "trial": 2, "time_elapsed": 497608, "serialpos": 10, "key_press": -1, "wordID": 9, "type": "PRES_VIS", "trial_index": 99}, "uniqueid": "MTK2019:338JKRMM276BSHPQZ83IRTVZ153AHI", "dateTime": 1516651465410}, {"current_trial": 100, "trialdata": {"rt": -1, "trial_type": "single-stim", "word": "viking", "stimulus": "<p id=\"stim\">VIKING</p>", "conditions": [24, 800, "v", 12000], "internal_node_id": "0.0-73.0", "trial": 2, "time_elapsed": 499402, "serialpos": 11, "key_press": -1, "wordID": 1564, "type": "PRES_VIS", "trial_index": 100}, "uniqueid": "MTK2019:338JKRMM276BSHPQZ83IRTVZ153AHI", "dateTime": 1516651467203}, {"current_trial": 101, "trialdata": {"rt": -1, "trial_type": "single-stim", "word": "sketch", "stimulus": "<p id=\"stim\">SKETCH</p>", "conditions": [24, 800, "v", 12000], "internal_node_id": "0.0-74.0", "trial": 2, "time_elapsed": 501065, "serialpos": 12, "key_press": -1, "wordID": 1314, "type": "PRES_VIS", "trial_index": 101}, "uniqueid": "MTK2019:338JKRMM276BSHPQZ83IRTVZ153AHI", "dateTime": 1516651468866}, {"current_trial": 102, "trialdata": {"rt": -1, "trial_type": "single-stim", "word": "market", "stimulus": "<p id=\"stim\">MARKET</p>", "conditions": [24, 800, "v", 12000], "internal_node_id": "0.0-75.0", "trial": 2, "time_elapsed": 502759, "serialpos": 13, "key_press": -1, "wordID": 870, "type": "PRES_VIS", "trial_index": 102}, "uniqueid": "MTK2019:338JKRMM276BSHPQZ83IRTVZ153AHI", "dateTime": 1516651470561}, {"current_trial": 103, "trialdata": {"rt": -1, "trial_type": "single-stim", "word": "tortoise", "stimulus": "<p id=\"stim\">TORTOISE</p>", "conditions": [24, 800, "v", 12000], "internal_node_id": "0.0-76.0", "trial": 2, "time_elapsed": 504427, "serialpos": 14, "key_press": -1, "wordID": 1485, "type": "PRES_VIS", "trial_index": 103}, "uniqueid": "MTK2019:338JKRMM276BSHPQZ83IRTVZ153AHI", "dateTime": 1516651472228}, {"current_trial": 104, "trialdata": {"rt": -1, "trial_type": "single-stim", "word": "truck", "stimulus": "<p id=\"stim\">TRUCK</p>", "conditions": [24, 800, "v", 12000], "internal_node_id": "0.0-77.0", "trial": 2, "time_elapsed": 506116, "serialpos": 15, "key_press": -1, "wordID": 1511, "type": "PRES_VIS", "trial_index": 104}, "uniqueid": "MTK2019:338JKRMM276BSHPQZ83IRTVZ153AHI", "dateTime": 1516651473917}, {"current_trial": 105, "trialdata": {"rt": -1, "trial_type": "single-stim", "word": "tractor", "stimulus": "<p id=\"stim\">TRACTOR</p>", "conditions": [24, 800, "v", 12000], "internal_node_id": "0.0-78.0", "trial": 2, "time_elapsed": 508024, "serialpos": 16, "key_press": -1, "wordID": 1492, "type": "PRES_VIS", "trial_index": 105}, "uniqueid": "MTK2019:338JKRMM276BSHPQZ83IRTVZ153AHI", "dateTime": 1516651475826}, {"current_trial": 106, "trialdata": {"rt": -1, "trial_type": "single-stim", "word": "crater", "stimulus": "<p id=\"stim\">CRATER</p>", "conditions": [24, 800, "v", 12000], "internal_node_id": "0.0-79.0", "trial": 2, "time_elapsed": 509771, "serialpos": 17, "key_press": -1, "wordID": 399, "type": "PRES_VIS", "trial_index": 106}, "uniqueid": "MTK2019:338JKRMM276BSHPQZ83IRTVZ153AHI", "dateTime": 1516651477572}, {"current_trial": 107, "trialdata": {"rt": -1, "trial_type": "single-stim", "word": "critic", "stimulus": "<p id=\"stim\">CRITIC</p>", "conditions": [24, 800, "v", 12000], "internal_node_id": "0.0-80.0", "trial": 2, "time_elapsed": 511592, "serialpos": 18, "key_press": -1, "wordID": 409, "type": "PRES_VIS", "trial_index": 107}, "uniqueid": "MTK2019:338JKRMM276BSHPQZ83IRTVZ153AHI", "dateTime": 1516651479393}, {"current_trial": 108, "trialdata": {"rt": -1, "trial_type": "single-stim", "word": "breast", "stimulus": "<p id=\"stim\">BREAST</p>", "conditions": [24, 800, "v", 12000], "internal_node_id": "0.0-81.0", "trial": 2, "time_elapsed": 513553, "serialpos": 19, "key_press": -1, "wordID": 170, "type": "PRES_VIS", "trial_index": 108}, "uniqueid": "MTK2019:338JKRMM276BSHPQZ83IRTVZ153AHI", "dateTime": 1516651481354}, {"current_trial": 109, "trialdata": {"rt": -1, "trial_type": "single-stim", "word": "lava", "stimulus": "<p id=\"stim\">LAVA</p>", "conditions": [24, 800, "v", 12000], "internal_node_id": "0.0-82.0", "trial": 2, "time_elapsed": 515300, "serialpos": 20, "key_press": -1, "wordID": 803, "type": "PRES_VIS", "trial_index": 109}, "uniqueid": "MTK2019:338JKRMM276BSHPQZ83IRTVZ153AHI", "dateTime": 1516651483101}, {"current_trial": 110, "trialdata": {"rt": -1, "trial_type": "single-stim", "word": "teacher", "stimulus": "<p id=\"stim\">TEACHER</p>", "conditions": [24, 800, "v", 12000], "internal_node_id": "0.0-83.0", "trial": 2, "time_elapsed": 517256, "serialpos": 21, "key_press": -1, "wordID": 1439, "type": "PRES_VIS", "trial_index": 110}, "uniqueid": "MTK2019:338JKRMM276BSHPQZ83IRTVZ153AHI", "dateTime": 1516651485057}, {"current_trial": 111, "trialdata": {"rt": -1, "trial_type": "single-stim", "word": "finger", "stimulus": "<p id=\"stim\">FINGER</p>", "conditions": [24, 800, "v", 12000], "internal_node_id": "0.0-84.0", "trial": 2, "time_elapsed": 519246, "serialpos": 22, "key_press": -1, "wordID": 566, "type": "PRES_VIS", "trial_index": 111}, "uniqueid": "MTK2019:338JKRMM276BSHPQZ83IRTVZ153AHI", "dateTime": 1516651487047}, {"current_trial": 112, "trialdata": {"rt": -1, "trial_type": "single-stim", "word": "leg", "stimulus": "<p id=\"stim\">LEG</p>", "conditions": [24, 800, "v", 12000], "internal_node_id": "0.0-85.0", "trial": 2, "time_elapsed": 520897, "serialpos": 23, "key_press": -1, "wordID": 808, "type": "PRES_VIS", "trial_index": 112}, "uniqueid": "MTK2019:338JKRMM276BSHPQZ83IRTVZ153AHI", "dateTime": 1516651488698}, {"current_trial": 113, "trialdata": {"rt": -1, "trial_type": "single-stim", "stimulus": "", "internal_node_id": "0.0-86.0-0.0", "time_elapsed": 523300, "key_press": -1, "type": "PRE_RECALL_DELAY", "trial_index": 113}, "uniqueid": "MTK2019:338JKRMM276BSHPQZ83IRTVZ153AHI", "dateTime": 1516651491101}, {"current_trial": 114, "trialdata": {"rt": -1000, "trial_type": "single-audio", "stimulus": "/static/audio/400Hz.wav", "internal_node_id": "0.0-87.0", "time_elapsed": 523801, "key_press": -1, "type": "PRE_RECALL_ALERT", "trial_index": 114}, "uniqueid": "MTK2019:338JKRMM276BSHPQZ83IRTVZ153AHI", "dateTime": 1516651491602}, {"current_trial": 115, "trialdata": {"rt": [5344, 12213, 14791, 18157, 21078, 22298, 25662, 28701, 30703], "recwords": ["europe", "egypt", "airport", "luggage", "suitcase", "agent", "lava", "breast", "leg"], "key_times": [2371, 2798, 3359, 3700, 3829, 4038, 5344, 6571, 7012, 7392, 7837, 8223, 9310, 9553, 9704, 9853, 10769, 10966, 11564, 11729, 12213, 13054, 13169, 13362, 13700, 13939, 14099, 14318, 14791, 15387, 15636, 16026, 16206, 16377, 17405, 17649, 18157, 18425, 18689, 18979, 19187, 19468, 19787, 19911, 20413, 20603, 20694, 20749, 20858, 21078, 21529, 21706, 21895, 21962, 22121, 22298, 23938, 23998, 25155, 25371, 25662, 26722, 27081, 27163, 27384, 27480, 28271, 28356, 28536, 28701, 29173, 29223, 29659, 30703], "trial_type": "free-recall", "conditions": [24, 800, "v", 12000], "internal_node_id": "0.0-88.0-0.0", "key_presses": [69, 85, 82, 79, 80, 69, 13, 69, 89, 71, 80, 84, 8, 8, 8, 8, 71, 89, 80, 84, 13, 65, 73, 82, 80, 79, 82, 84, 13, 76, 85, 71, 71, 65, 71, 69, 13, 83, 85, 73, 84, 67, 83, 69, 8, 8, 65, 83, 69, 13, 65, 71, 69, 78, 84, 13, 76, 65, 86, 65, 13, 66, 82, 69, 65, 84, 8, 83, 84, 13, 76, 69, 71, 13], "trial": 2, "time_elapsed": 583803, "type": "FREE_RECALL", "trial_index": 115}, "uniqueid": "MTK2019:338JKRMM276BSHPQZ83IRTVZ153AHI", "dateTime": 1516651551606}, {"current_trial": 116, "trialdata": {"rt": 4814, "trial_type": "text", "internal_node_id": "0.0-89.0", "time_elapsed": 590619, "key_press": 13, "type": "INSTRUCTIONS", "trial_index": 116}, "uniqueid": "MTK2019:338JKRMM276BSHPQZ83IRTVZ153AHI", "dateTime": 1516651558420}, {"current_trial": 117, "trialdata": {"rt": [4227, 7773, 11747], "trial_type": "math-distractor", "key_times": [3395, 3592, 4227, 7035, 7282, 7773, 10657, 11029, 11747], "responses": ["20", "13", "13"], "num2": [7, 2, 1, 7], "num3": [6, 6, 5, 3], "conditions": [12, 1600, "v", 12000], "internal_node_id": "0.0-90.0", "key_presses": [98, 96, 13, 97, 99, 13, 97, 99, 13], "trial": 3, "time_elapsed": 604622, "type": "DISTRACTOR", "trial_index": 117, "num1": [7, 5, 7, 4]}, "uniqueid": "MTK2019:338JKRMM276BSHPQZ83IRTVZ153AHI", "dateTime": 1516651572423}, {"current_trial": 118, "trialdata": {"rt": -1, "trial_type": "single-stim", "stimulus": "<p id=\"stim\">10</p>", "internal_node_id": "0.0-91.0-0.0", "time_elapsed": 607624, "key_press": -1, "trial_index": 118}, "uniqueid": "MTK2019:338JKRMM276BSHPQZ83IRTVZ153AHI", "dateTime": 1516651575425}, {"current_trial": 119, "trialdata": {"rt": -1, "trial_type": "single-stim", "stimulus": "<p id=\"stim\">9</p>", "internal_node_id": "0.0-91.0-1.0", "time_elapsed": 608626, "key_press": -1, "trial_index": 119}, "uniqueid": "MTK2019:338JKRMM276BSHPQZ83IRTVZ153AHI", "dateTime": 1516651576427}, {"current_trial": 120, "trialdata": {"rt": -1, "trial_type": "single-stim", "stimulus": "<p id=\"stim\">8</p>", "internal_node_id": "0.0-91.0-2.0", "time_elapsed": 609626, "key_press": -1, "trial_index": 120}, "uniqueid": "MTK2019:338JKRMM276BSHPQZ83IRTVZ153AHI", "dateTime": 1516651577427}, {"current_trial": 121, "trialdata": {"rt": -1, "trial_type": "single-stim", "stimulus": "<p id=\"stim\">7</p>", "internal_node_id": "0.0-91.0-3.0", "time_elapsed": 610628, "key_press": -1, "trial_index": 121}, "uniqueid": "MTK2019:338JKRMM276BSHPQZ83IRTVZ153AHI", "dateTime": 1516651578429}, {"current_trial": 122, "trialdata": {"rt": -1, "trial_type": "single-stim", "stimulus": "<p id=\"stim\">6</p>", "internal_node_id": "0.0-91.0-4.0", "time_elapsed": 611628, "key_press": -1, "trial_index": 122}, "uniqueid": "MTK2019:338JKRMM276BSHPQZ83IRTVZ153AHI", "dateTime": 1516651579429}, {"current_trial": 123, "trialdata": {"rt": -1, "trial_type": "single-stim", "stimulus": "<p id=\"stim\">5</p>", "internal_node_id": "0.0-91.0-5.0", "time_elapsed": 612629, "key_press": -1, "trial_index": 123}, "uniqueid": "MTK2019:338JKRMM276BSHPQZ83IRTVZ153AHI", "dateTime": 1516651580430}, {"current_trial": 124, "trialdata": {"rt": -1, "trial_type": "single-stim", "stimulus": "<p id=\"stim\">4</p>", "internal_node_id": "0.0-91.0-6.0", "time_elapsed": 613629, "key_press": -1, "trial_index": 124}, "uniqueid": "MTK2019:338JKRMM276BSHPQZ83IRTVZ153AHI", "dateTime": 1516651581431}, {"current_trial": 125, "trialdata": {"rt": -1, "trial_type": "single-stim", "stimulus": "<p id=\"stim\">3</p>", "internal_node_id": "0.0-91.0-7.0", "time_elapsed": 614631, "key_press": -1, "trial_index": 125}, "uniqueid": "MTK2019:338JKRMM276BSHPQZ83IRTVZ153AHI", "dateTime": 1516651582432}, {"current_trial": 126, "trialdata": {"rt": -1, "trial_type": "single-stim", "stimulus": "<p id=\"stim\">2</p>", "internal_node_id": "0.0-91.0-8.0", "time_elapsed": 615632, "key_press": -1, "trial_index": 126}, "uniqueid": "MTK2019:338JKRMM276BSHPQZ83IRTVZ153AHI", "dateTime": 1516651583433}, {"current_trial": 127, "trialdata": {"rt": -1, "trial_type": "single-stim", "stimulus": "<p id=\"stim\">1</p>", "internal_node_id": "0.0-91.0-9.0", "time_elapsed": 616633, "key_press": -1, "trial_index": 127}, "uniqueid": "MTK2019:338JKRMM276BSHPQZ83IRTVZ153AHI", "dateTime": 1516651584434}, {"current_trial": 128, "trialdata": {"rt": -1, "trial_type": "single-stim", "stimulus": "<p id=\"stim\">+</p>", "internal_node_id": "0.0-92.0-0.0", "time_elapsed": 618134, "key_press": -1, "type": "FIXATION", "trial_index": 128}, "uniqueid": "MTK2019:338JKRMM276BSHPQZ83IRTVZ153AHI", "dateTime": 1516651585935}, {"current_trial": 129, "trialdata": {"rt": -1, "trial_type": "single-stim", "word": "daisy", "stimulus": "<p id=\"stim\">DAISY</p>", "conditions": [12, 1600, "v", 12000], "internal_node_id": "0.0-93.0", "trial": 3, "time_elapsed": 619736, "serialpos": 0, "key_press": -1, "wordID": 434, "type": "PRES_VIS", "trial_index": 129}, "uniqueid": "MTK2019:338JKRMM276BSHPQZ83IRTVZ153AHI", "dateTime": 1516651587537}, {"current_trial": 130, "trialdata": {"rt": -1, "trial_type": "single-stim", "word": "stove", "stimulus": "<p id=\"stim\">STOVE</p>", "conditions": [12, 1600, "v", 12000], "internal_node_id": "0.0-94.0", "trial": 3, "time_elapsed": 622506, "serialpos": 1, "key_press": -1, "wordID": 1387, "type": "PRES_VIS", "trial_index": 130}, "uniqueid": "MTK2019:338JKRMM276BSHPQZ83IRTVZ153AHI", "dateTime": 1516651590307}, {"current_trial": 131, "trialdata": {"rt": -1, "trial_type": "single-stim", "word": "dress", "stimulus": "<p id=\"stim\">DRESS</p>", "conditions": [12, 1600, "v", 12000], "internal_node_id": "0.0-95.0", "trial": 3, "time_elapsed": 625068, "serialpos": 2, "key_press": -1, "wordID": 494, "type": "PRES_VIS", "trial_index": 131}, "uniqueid": "MTK2019:338JKRMM276BSHPQZ83IRTVZ153AHI", "dateTime": 1516651592869}, {"current_trial": 132, "trialdata": {"rt": -1, "trial_type": "single-stim", "word": "tutu", "stimulus": "<p id=\"stim\">TUTU</p>", "conditions": [12, 1600, "v", 12000], "internal_node_id": "0.0-96.0", "trial": 3, "time_elapsed": 627595, "serialpos": 3, "key_press": -1, "wordID": 1523, "type": "PRES_VIS", "trial_index": 132}, "uniqueid": "MTK2019:338JKRMM276BSHPQZ83IRTVZ153AHI", "dateTime": 1516651595396}, {"current_trial": 133, "trialdata": {"rt": -1, "trial_type": "single-stim", "word": "dust", "stimulus": "<p id=\"stim\">DUST</p>", "conditions": [12, 1600, "v", 12000], "internal_node_id": "0.0-97.0", "trial": 3, "time_elapsed": 630177, "serialpos": 4, "key_press": -1, "wordID": 507, "type": "PRES_VIS", "trial_index": 133}, "uniqueid": "MTK2019:338JKRMM276BSHPQZ83IRTVZ153AHI", "dateTime": 1516651597978}, {"current_trial": 134, "trialdata": {"rt": -1, "trial_type": "single-stim", "word": "glove", "stimulus": "<p id=\"stim\">GLOVE</p>", "conditions": [12, 1600, "v", 12000], "internal_node_id": "0.0-98.0", "trial": 3, "time_elapsed": 632799, "serialpos": 5, "key_press": -1, "wordID": 641, "type": "PRES_VIS", "trial_index": 134}, "uniqueid": "MTK2019:338JKRMM276BSHPQZ83IRTVZ153AHI", "dateTime": 1516651600600}, {"current_trial": 135, "trialdata": {"rt": -1, "trial_type": "single-stim", "word": "razor", "stimulus": "<p id=\"stim\">RAZOR</p>", "conditions": [12, 1600, "v", 12000], "internal_node_id": "0.0-99.0", "trial": 3, "time_elapsed": 635245, "serialpos": 6, "key_press": -1, "wordID": 1170, "type": "PRES_VIS", "trial_index": 135}, "uniqueid": "MTK2019:338JKRMM276BSHPQZ83IRTVZ153AHI", "dateTime": 1516651603046}, {"current_trial": 136, "trialdata": {"rt": -1, "trial_type": "single-stim", "word": "cricket", "stimulus": "<p id=\"stim\">CRICKET</p>", "conditions": [12, 1600, "v", 12000], "internal_node_id": "0.0-100.0", "trial": 3, "time_elapsed": 637969, "serialpos": 7, "key_press": -1, "wordID": 407, "type": "PRES_VIS", "trial_index": 136}, "uniqueid": "MTK2019:338JKRMM276BSHPQZ83IRTVZ153AHI", "dateTime": 1516651605770}, {"current_trial": 137, "trialdata": {"rt": -1, "trial_type": "single-stim", "word": "lily", "stimulus": "<p id=\"stim\">LILY</p>", "conditions": [12, 1600, "v", 12000], "internal_node_id": "0.0-101.0", "trial": 3, "time_elapsed": 640514, "serialpos": 8, "key_press": -1, "wordID": 820, "type": "PRES_VIS", "trial_index": 137}, "uniqueid": "MTK2019:338JKRMM276BSHPQZ83IRTVZ153AHI", "dateTime": 1516651608315}, {"current_trial": 138, "trialdata": {"rt": -1, "trial_type": "single-stim", "word": "dustpan", "stimulus": "<p id=\"stim\">DUSTPAN</p>", "conditions": [12, 1600, "v", 12000], "internal_node_id": "0.0-102.0", "trial": 3, "time_elapsed": 642978, "serialpos": 9, "key_press": -1, "wordID": 508, "type": "PRES_VIS", "trial_index": 138}, "uniqueid": "MTK2019:338JKRMM276BSHPQZ83IRTVZ153AHI", "dateTime": 1516651610779}, {"current_trial": 139, "trialdata": {"rt": -1, "trial_type": "single-stim", "word": "salt", "stimulus": "<p id=\"stim\">SALT</p>", "conditions": [12, 1600, "v", 12000], "internal_node_id": "0.0-103.0", "trial": 3, "time_elapsed": 645442, "serialpos": 10, "key_press": -1, "wordID": 1228, "type": "PRES_VIS", "trial_index": 139}, "uniqueid": "MTK2019:338JKRMM276BSHPQZ83IRTVZ153AHI", "dateTime": 1516651613243}, {"current_trial": 140, "trialdata": {"rt": -1, "trial_type": "single-stim", "word": "atlas", "stimulus": "<p id=\"stim\">ATLAS</p>", "conditions": [12, 1600, "v", 12000], "internal_node_id": "0.0-104.0", "trial": 3, "time_elapsed": 648096, "serialpos": 11, "key_press": -1, "wordID": 52, "type": "PRES_VIS", "trial_index": 140}, "uniqueid": "MTK2019:338JKRMM276BSHPQZ83IRTVZ153AHI", "dateTime": 1516651615897}, {"current_trial": 141, "trialdata": {"rt": -1, "trial_type": "single-stim", "stimulus": "", "internal_node_id": "0.0-105.0-0.0", "time_elapsed": 650463, "key_press": -1, "type": "PRE_RECALL_DELAY", "trial_index": 141}, "uniqueid": "MTK2019:338JKRMM276BSHPQZ83IRTVZ153AHI", "dateTime": 1516651618264}, {"current_trial": 142, "trialdata": {"rt": -1000, "trial_type": "single-audio", "stimulus": "/static/audio/400Hz.wav", "internal_node_id": "0.0-106.0", "time_elapsed": 650971, "key_press": -1, "type": "PRE_RECALL_ALERT", "trial_index": 142}, "uniqueid": "MTK2019:338JKRMM276BSHPQZ83IRTVZ153AHI", "dateTime": 1516651618772}, {"current_trial": 143, "trialdata": {"rt": [5736, 9166, 11111, 16480, 18421, 26637, 36364, 42022], "recwords": ["stove", "dustpan", "atlas", "daisy", "lily", "brush", "dust", "dustpan"], "key_times": [4871, 5068, 5151, 5334, 5544, 5736, 5908, 6082, 6441, 7210, 7452, 7640, 7821, 9166, 9731, 10053, 10267, 10369, 10501, 11111, 14733, 14983, 15119, 15829, 15953, 16480, 17212, 17334, 17508, 18075, 18421, 25427, 26037, 26134, 26268, 26423, 26637, 35603, 35809, 35996, 36180, 36364, 40764, 41001, 41046, 41216, 41458, 41544, 41726, 42022], "trial_type": "free-recall", "conditions": [12, 1600, "v", 12000], "internal_node_id": "0.0-107.0-0.0", "key_presses": [83, 84, 79, 86, 69, 32, 68, 85, 83, 84, 80, 65, 78, 13, 65, 84, 76, 65, 83, 13, 68, 65, 73, 83, 89, 13, 76, 73, 76, 89, 13, 66, 82, 85, 83, 72, 13, 68, 85, 83, 84, 13, 68, 85, 83, 84, 80, 65, 78, 13], "trial": 3, "time_elapsed": 710974, "type": "FREE_RECALL", "trial_index": 143}, "uniqueid": "MTK2019:338JKRMM276BSHPQZ83IRTVZ153AHI", "dateTime": 1516651678777}, {"current_trial": 144, "trialdata": {"rt": 2165, "trial_type": "text", "internal_node_id": "0.0-108.0", "time_elapsed": 715142, "key_press": 13, "type": "INSTRUCTIONS", "trial_index": 144}, "uniqueid": "MTK2019:338JKRMM276BSHPQZ83IRTVZ153AHI", "dateTime": 1516651682944}, {"current_trial": 145, "trialdata": {"rt": [3392, 6031, 8113, 10598, 13221, 15877, 18836, 20965], "trial_type": "math-distractor", "key_times": [2350, 2502, 3392, 5294, 6031, 7634, 7782, 8113, 10115, 10237, 10598, 12748, 12841, 13221, 15355, 15587, 15877, 18314, 18416, 18836, 20478, 20548, 20965], "responses": ["20", "6", "11", "16", "15", "17", "12", "12"], "num2": [2, 4, 7, 5, 7, 4, 5, 9, 6], "num3": [9, 1, 3, 6, 3, 6, 4, 2, 9], "conditions": [12, 1600, "v", 24000], "internal_node_id": "0.0-109.0", "key_presses": [98, 96, 13, 102, 13, 97, 97, 13, 97, 102, 13, 97, 101, 13, 97, 103, 13, 97, 98, 13, 97, 98, 13], "trial": 4, "time_elapsed": 741146, "type": "DISTRACTOR", "trial_index": 145, "num1": [9, 1, 1, 5, 5, 7, 3, 1, 3]}, "uniqueid": "MTK2019:338JKRMM276BSHPQZ83IRTVZ153AHI", "dateTime": 1516651708947}, {"current_trial": 146, "trialdata": {"rt": -1, "trial_type": "single-stim", "stimulus": "<p id=\"stim\">10</p>", "internal_node_id": "0.0-110.0-0.0", "time_elapsed": 744148, "key_press": -1, "trial_index": 146}, "uniqueid": "MTK2019:338JKRMM276BSHPQZ83IRTVZ153AHI", "dateTime": 1516651711949}, {"current_trial": 147, "trialdata": {"rt": -1, "trial_type": "single-stim", "stimulus": "<p id=\"stim\">9</p>", "internal_node_id": "0.0-110.0-1.0", "time_elapsed": 745148, "key_press": -1, "trial_index": 147}, "uniqueid": "MTK2019:338JKRMM276BSHPQZ83IRTVZ153AHI", "dateTime": 1516651712950}, {"current_trial": 148, "trialdata": {"rt": -1, "trial_type": "single-stim", "stimulus": "<p id=\"stim\">8</p>", "internal_node_id": "0.0-110.0-2.0", "time_elapsed": 746149, "key_press": -1, "trial_index": 148}, "uniqueid": "MTK2019:338JKRMM276BSHPQZ83IRTVZ153AHI", "dateTime": 1516651713950}, {"current_trial": 149, "trialdata": {"rt": -1, "trial_type": "single-stim", "stimulus": "<p id=\"stim\">7</p>", "internal_node_id": "0.0-110.0-3.0", "time_elapsed": 747150, "key_press": -1, "trial_index": 149}, "uniqueid": "MTK2019:338JKRMM276BSHPQZ83IRTVZ153AHI", "dateTime": 1516651714951}, {"current_trial": 150, "trialdata": {"rt": -1, "trial_type": "single-stim", "stimulus": "<p id=\"stim\">6</p>", "internal_node_id": "0.0-110.0-4.0", "time_elapsed": 748151, "key_press": -1, "trial_index": 150}, "uniqueid": "MTK2019:338JKRMM276BSHPQZ83IRTVZ153AHI", "dateTime": 1516651715952}, {"current_trial": 151, "trialdata": {"rt": -1, "trial_type": "single-stim", "stimulus": "<p id=\"stim\">5</p>", "internal_node_id": "0.0-110.0-5.0", "time_elapsed": 749152, "key_press": -1, "trial_index": 151}, "uniqueid": "MTK2019:338JKRMM276BSHPQZ83IRTVZ153AHI", "dateTime": 1516651716953}, {"current_trial": 152, "trialdata": {"rt": -1, "trial_type": "single-stim", "stimulus": "<p id=\"stim\">4</p>", "internal_node_id": "0.0-110.0-6.0", "time_elapsed": 750153, "key_press": -1, "trial_index": 152}, "uniqueid": "MTK2019:338JKRMM276BSHPQZ83IRTVZ153AHI", "dateTime": 1516651717954}, {"current_trial": 153, "trialdata": {"rt": -1, "trial_type": "single-stim", "stimulus": "<p id=\"stim\">3</p>", "internal_node_id": "0.0-110.0-7.0", "time_elapsed": 751154, "key_press": -1, "trial_index": 153}, "uniqueid": "MTK2019:338JKRMM276BSHPQZ83IRTVZ153AHI", "dateTime": 1516651718955}, {"current_trial": 154, "trialdata": {"rt": -1, "trial_type": "single-stim", "stimulus": "<p id=\"stim\">2</p>", "internal_node_id": "0.0-110.0-8.0", "time_elapsed": 752155, "key_press": -1, "trial_index": 154}, "uniqueid": "MTK2019:338JKRMM276BSHPQZ83IRTVZ153AHI", "dateTime": 1516651719956}, {"current_trial": 155, "trialdata": {"rt": -1, "trial_type": "single-stim", "stimulus": "<p id=\"stim\">1</p>", "internal_node_id": "0.0-110.0-9.0", "time_elapsed": 753156, "key_press": -1, "trial_index": 155}, "uniqueid": "MTK2019:338JKRMM276BSHPQZ83IRTVZ153AHI", "dateTime": 1516651720957}, {"current_trial": 156, "trialdata": {"rt": -1, "trial_type": "single-stim", "stimulus": "<p id=\"stim\">+</p>", "internal_node_id": "0.0-111.0-0.0", "time_elapsed": 754657, "key_press": -1, "type": "FIXATION", "trial_index": 156}, "uniqueid": "MTK2019:338JKRMM276BSHPQZ83IRTVZ153AHI", "dateTime": 1516651722458}, {"current_trial": 157, "trialdata": {"rt": -1, "trial_type": "single-stim", "word": "loft", "stimulus": "<p id=\"stim\">LOFT</p>", "conditions": [12, 1600, "v", 24000], "internal_node_id": "0.0-112.0", "trial": 4, "time_elapsed": 756258, "serialpos": 0, "key_press": -1, "wordID": 839, "type": "PRES_VIS", "trial_index": 157}, "uniqueid": "MTK2019:338JKRMM276BSHPQZ83IRTVZ153AHI", "dateTime": 1516651724059}, {"current_trial": 158, "trialdata": {"rt": -1, "trial_type": "single-stim", "word": "widow", "stimulus": "<p id=\"stim\">WIDOW</p>", "conditions": [12, 1600, "v", 24000], "internal_node_id": "0.0-113.0", "trial": 4, "time_elapsed": 759003, "serialpos": 1, "key_press": -1, "wordID": 1607, "type": "PRES_VIS", "trial_index": 158}, "uniqueid": "MTK2019:338JKRMM276BSHPQZ83IRTVZ153AHI", "dateTime": 1516651726804}, {"current_trial": 159, "trialdata": {"rt": -1, "trial_type": "single-stim", "word": "spouse", "stimulus": "<p id=\"stim\">SPOUSE</p>", "conditions": [12, 1600, "v", 24000], "internal_node_id": "0.0-114.0", "trial": 4, "time_elapsed": 761638, "serialpos": 2, "key_press": -1, "wordID": 1357, "type": "PRES_VIS", "trial_index": 159}, "uniqueid": "MTK2019:338JKRMM276BSHPQZ83IRTVZ153AHI", "dateTime": 1516651729439}, {"current_trial": 160, "trialdata": {"rt": -1, "trial_type": "single-stim", "word": "victim", "stimulus": "<p id=\"stim\">VICTIM</p>", "conditions": [12, 1600, "v", 24000], "internal_node_id": "0.0-115.0", "trial": 4, "time_elapsed": 764190, "serialpos": 3, "key_press": -1, "wordID": 1561, "type": "PRES_VIS", "trial_index": 160}, "uniqueid": "MTK2019:338JKRMM276BSHPQZ83IRTVZ153AHI", "dateTime": 1516651731991}, {"current_trial": 161, "trialdata": {"rt": -1, "trial_type": "single-stim", "word": "shark", "stimulus": "<p id=\"stim\">SHARK</p>", "conditions": [12, 1600, "v", 24000], "internal_node_id": "0.0-116.0", "trial": 4, "time_elapsed": 766789, "serialpos": 4, "key_press": -1, "wordID": 1274, "type": "PRES_VIS", "trial_index": 161}, "uniqueid": "MTK2019:338JKRMM276BSHPQZ83IRTVZ153AHI", "dateTime": 1516651734590}, {"current_trial": 162, "trialdata": {"rt": -1, "trial_type": "single-stim", "word": "butcher", "stimulus": "<p id=\"stim\">BUTCHER</p>", "conditions": [12, 1600, "v", 24000], "internal_node_id": "0.0-117.0", "trial": 4, "time_elapsed": 769450, "serialpos": 5, "key_press": -1, "wordID": 202, "type": "PRES_VIS", "trial_index": 162}, "uniqueid": "MTK2019:338JKRMM276BSHPQZ83IRTVZ153AHI", "dateTime": 1516651737251}, {"current_trial": 163, "trialdata": {"rt": -1, "trial_type": "single-stim", "word": "banker", "stimulus": "<p id=\"stim\">BANKER</p>", "conditions": [12, 1600, "v", 24000], "internal_node_id": "0.0-118.0", "trial": 4, "time_elapsed": 771934, "serialpos": 6, "key_press": -1, "wordID": 83, "type": "PRES_VIS", "trial_index": 163}, "uniqueid": "MTK2019:338JKRMM276BSHPQZ83IRTVZ153AHI", "dateTime": 1516651739735}, {"current_trial": 164, "trialdata": {"rt": -1, "trial_type": "single-stim", "word": "glass", "stimulus": "<p id=\"stim\">GLASS</p>", "conditions": [12, 1600, "v", 24000], "internal_node_id": "0.0-119.0", "trial": 4, "time_elapsed": 774569, "serialpos": 7, "key_press": -1, "wordID": 638, "type": "PRES_VIS", "trial_index": 164}, "uniqueid": "MTK2019:338JKRMM276BSHPQZ83IRTVZ153AHI", "dateTime": 1516651742370}, {"current_trial": 165, "trialdata": {"rt": -1, "trial_type": "single-stim", "word": "chapel", "stimulus": "<p id=\"stim\">CHAPEL</p>", "conditions": [12, 1600, "v", 24000], "internal_node_id": "0.0-120.0", "trial": 4, "time_elapsed": 777234, "serialpos": 8, "key_press": -1, "wordID": 279, "type": "PRES_VIS", "trial_index": 165}, "uniqueid": "MTK2019:338JKRMM276BSHPQZ83IRTVZ153AHI", "dateTime": 1516651745035}, {"current_trial": 166, "trialdata": {"rt": -1, "trial_type": "single-stim", "word": "church", "stimulus": "<p id=\"stim\">CHURCH</p>", "conditions": [12, 1600, "v", 24000], "internal_node_id": "0.0-121.0", "trial": 4, "time_elapsed": 779955, "serialpos": 9, "key_press": -1, "wordID": 306, "type": "PRES_VIS", "trial_index": 166}, "uniqueid": "MTK2019:338JKRMM276BSHPQZ83IRTVZ153AHI", "dateTime": 1516651747756}, {"current_trial": 167, "trialdata": {"rt": -1, "trial_type": "single-stim", "word": "helmet", "stimulus": "<p id=\"stim\">HELMET</p>", "conditions": [12, 1600, "v", 24000], "internal_node_id": "0.0-122.0", "trial": 4, "time_elapsed": 782447, "serialpos": 10, "key_press": -1, "wordID": 701, "type": "PRES_VIS", "trial_index": 167}, "uniqueid": "MTK2019:338JKRMM276BSHPQZ83IRTVZ153AHI", "dateTime": 1516651750248}, {"current_trial": 168, "trialdata": {"rt": -1, "trial_type": "single-stim", "word": "bank", "stimulus": "<p id=\"stim\">BANK</p>", "conditions": [12, 1600, "v", 24000], "internal_node_id": "0.0-123.0", "trial": 4, "time_elapsed": 785161, "serialpos": 11, "key_press": -1, "wordID": 82, "type": "PRES_VIS", "trial_index": 168}, "uniqueid": "MTK2019:338JKRMM276BSHPQZ83IRTVZ153AHI", "dateTime": 1516651752962}, {"current_trial": 169, "trialdata": {"rt": -1, "trial_type": "single-stim", "stimulus": "", "internal_node_id": "0.0-124.0-0.0", "time_elapsed": 787661, "key_press": -1, "type": "PRE_RECALL_DELAY", "trial_index": 169}, "uniqueid": "MTK2019:338JKRMM276BSHPQZ83IRTVZ153AHI", "dateTime": 1516651755463}, {"current_trial": 170, "trialdata": {"rt": -1000, "trial_type": "single-audio", "stimulus": "/static/audio/400Hz.wav", "internal_node_id": "0.0-125.0", "time_elapsed": 788168, "key_press": -1, "type": "PRE_RECALL_ALERT", "trial_index": 170}, "uniqueid": "MTK2019:338JKRMM276BSHPQZ83IRTVZ153AHI", "dateTime": 1516651755969}, {"current_trial": 171, "trialdata": {"rt": [3209, 6171, 9961, 13811, 17244, 20025, 38730], "recwords": ["bank", "helmet", "butcher", "loft", "shark", "victim", "shark"], "key_times": [2073, 2320, 2615, 2643, 3209, 4176, 4721, 4978, 5289, 5537, 5871, 6171, 6943, 7303, 7548, 8301, 8445, 8752, 9043, 9961, 12411, 12684, 12975, 13267, 13811, 15307, 15513, 15683, 16557, 16896, 17244, 17661, 18038, 18436, 18887, 19186, 19636, 20025, 37667, 37810, 37954, 38318, 38549, 38730], "trial_type": "free-recall", "conditions": [12, 1600, "v", 24000], "internal_node_id": "0.0-126.0-0.0", "key_presses": [66, 65, 78, 75, 13, 72, 69, 76, 77, 69, 84, 13, 66, 85, 84, 67, 72, 69, 82, 13, 76, 79, 70, 84, 13, 83, 72, 65, 82, 75, 13, 86, 73, 67, 84, 73, 77, 13, 83, 72, 65, 82, 75, 13], "trial": 4, "time_elapsed": 848171, "type": "FREE_RECALL", "trial_index": 171}, "uniqueid": "MTK2019:338JKRMM276BSHPQZ83IRTVZ153AHI", "dateTime": 1516651815974}, {"current_trial": 172, "trialdata": {"rt": 1959, "trial_type": "text", "internal_node_id": "0.0-127.0", "time_elapsed": 852133, "key_press": 13, "type": "INSTRUCTIONS", "trial_index": 172}, "uniqueid": "MTK2019:338JKRMM276BSHPQZ83IRTVZ153AHI", "dateTime": 1516651819934}, {"current_trial": 173, "trialdata": {"rt": [2857, 5274, 7788, 14457, 16975, 19313, 22016], "trial_type": "math-distractor", "key_times": [2515, 2857, 4689, 4791, 5274, 7383, 7463, 7788, 13982, 14153, 14457, 16437, 16975, 18832, 18941, 19313, 21532, 21609, 22016, 23521, 23672], "responses": ["7", "12", "15", "18", "7", "13", "12"], "num2": [1, 4, 5, 5, 3, 1, 7, 7], "num3": [2, 3, 5, 8, 3, 8, 1, 7], "conditions": [24, 800, "v", 24000], "internal_node_id": "0.0-128.0", "key_presses": [103, 13, 97, 98, 13, 97, 101, 13, 97, 104, 13, 103, 13, 97, 99, 13, 97, 98, 13, 98, 97], "trial": 5, "time_elapsed": 878136, "type": "DISTRACTOR", "trial_index": 173, "num1": [4, 5, 7, 7, 1, 4, 4, 7]}, "uniqueid": "MTK2019:338JKRMM276BSHPQZ83IRTVZ153AHI", "dateTime": 1516651845937}, {"current_trial": 174, "trialdata": {"rt": -1, "trial_type": "single-stim", "stimulus": "<p id=\"stim\">10</p>", "internal_node_id": "0.0-129.0-0.0", "time_elapsed": 881138, "key_press": -1, "trial_index": 174}, "uniqueid": "MTK2019:338JKRMM276BSHPQZ83IRTVZ153AHI", "dateTime": 1516651848939}, {"current_trial": 175, "trialdata": {"rt": -1, "trial_type": "single-stim", "stimulus": "<p id=\"stim\">9</p>", "internal_node_id": "0.0-129.0-1.0", "time_elapsed": 882139, "key_press": -1, "trial_index": 175}, "uniqueid": "MTK2019:338JKRMM276BSHPQZ83IRTVZ153AHI", "dateTime": 1516651849941}, {"current_trial": 176, "trialdata": {"rt": -1, "trial_type": "single-stim", "stimulus": "<p id=\"stim\">8</p>", "internal_node_id": "0.0-129.0-2.0", "time_elapsed": 883141, "key_press": -1, "trial_index": 176}, "uniqueid": "MTK2019:338JKRMM276BSHPQZ83IRTVZ153AHI", "dateTime": 1516651850942}, {"current_trial": 177, "trialdata": {"rt": -1, "trial_type": "single-stim", "stimulus": "<p id=\"stim\">7</p>", "internal_node_id": "0.0-129.0-3.0", "time_elapsed": 884141, "key_press": -1, "trial_index": 177}, "uniqueid": "MTK2019:338JKRMM276BSHPQZ83IRTVZ153AHI", "dateTime": 1516651851942}, {"current_trial": 178, "trialdata": {"rt": -1, "trial_type": "single-stim", "stimulus": "<p id=\"stim\">6</p>", "internal_node_id": "0.0-129.0-4.0", "time_elapsed": 885143, "key_press": -1, "trial_index": 178}, "uniqueid": "MTK2019:338JKRMM276BSHPQZ83IRTVZ153AHI", "dateTime": 1516651852944}, {"current_trial": 179, "trialdata": {"rt": -1, "trial_type": "single-stim", "stimulus": "<p id=\"stim\">5</p>", "internal_node_id": "0.0-129.0-5.0", "time_elapsed": 886143, "key_press": -1, "trial_index": 179}, "uniqueid": "MTK2019:338JKRMM276BSHPQZ83IRTVZ153AHI", "dateTime": 1516651853944}, {"current_trial": 180, "trialdata": {"rt": -1, "trial_type": "single-stim", "stimulus": "<p id=\"stim\">4</p>", "internal_node_id": "0.0-129.0-6.0", "time_elapsed": 887145, "key_press": -1, "trial_index": 180}, "uniqueid": "MTK2019:338JKRMM276BSHPQZ83IRTVZ153AHI", "dateTime": 1516651854946}, {"current_trial": 181, "trialdata": {"rt": -1, "trial_type": "single-stim", "stimulus": "<p id=\"stim\">3</p>", "internal_node_id": "0.0-129.0-7.0", "time_elapsed": 888147, "key_press": -1, "trial_index": 181}, "uniqueid": "MTK2019:338JKRMM276BSHPQZ83IRTVZ153AHI", "dateTime": 1516651855948}, {"current_trial": 182, "trialdata": {"rt": -1, "trial_type": "single-stim", "stimulus": "<p id=\"stim\">2</p>", "internal_node_id": "0.0-129.0-8.0", "time_elapsed": 889148, "key_press": -1, "trial_index": 182}, "uniqueid": "MTK2019:338JKRMM276BSHPQZ83IRTVZ153AHI", "dateTime": 1516651856949}, {"current_trial": 183, "trialdata": {"rt": -1, "trial_type": "single-stim", "stimulus": "<p id=\"stim\">1</p>", "internal_node_id": "0.0-129.0-9.0", "time_elapsed": 890150, "key_press": -1, "trial_index": 183}, "uniqueid": "MTK2019:338JKRMM276BSHPQZ83IRTVZ153AHI", "dateTime": 1516651857951}, {"current_trial": 184, "trialdata": {"rt": -1, "trial_type": "single-stim", "stimulus": "<p id=\"stim\">+</p>", "internal_node_id": "0.0-130.0-0.0", "time_elapsed": 891651, "key_press": -1, "type": "FIXATION", "trial_index": 184}, "uniqueid": "MTK2019:338JKRMM276BSHPQZ83IRTVZ153AHI", "dateTime": 1516651859452}, {"current_trial": 185, "trialdata": {"rt": -1, "trial_type": "single-stim", "word": "portrait", "stimulus": "<p id=\"stim\">PORTRAIT</p>", "conditions": [24, 800, "v", 24000], "internal_node_id": "0.0-131.0", "trial": 5, "time_elapsed": 892452, "serialpos": 0, "key_press": -1, "wordID": 1110, "type": "PRES_VIS", "trial_index": 185}, "uniqueid": "MTK2019:338JKRMM276BSHPQZ83IRTVZ153AHI", "dateTime": 1516651860253}, {"current_trial": 186, "trialdata": {"rt": -1, "trial_type": "single-stim", "word": "pliers", "stimulus": "<p id=\"stim\">PLIERS</p>", "conditions": [24, 800, "v", 24000], "internal_node_id": "0.0-132.0", "trial": 5, "time_elapsed": 894137, "serialpos": 1, "key_press": -1, "wordID": 1088, "type": "PRES_VIS", "trial_index": 186}, "uniqueid": "MTK2019:338JKRMM276BSHPQZ83IRTVZ153AHI", "dateTime": 1516651861939}, {"current_trial": 187, "trialdata": {"rt": -1, "trial_type": "single-stim", "word": "county", "stimulus": "<p id=\"stim\">COUNTY</p>", "conditions": [24, 800, "v", 24000], "internal_node_id": "0.0-133.0", "trial": 5, "time_elapsed": 896040, "serialpos": 2, "key_press": -1, "wordID": 388, "type": "PRES_VIS", "trial_index": 187}, "uniqueid": "MTK2019:338JKRMM276BSHPQZ83IRTVZ153AHI", "dateTime": 1516651863842}, {"current_trial": 188, "trialdata": {"rt": -1, "trial_type": "single-stim", "word": "camel", "stimulus": "<p id=\"stim\">CAMEL</p>", "conditions": [24, 800, "v", 24000], "internal_node_id": "0.0-134.0", "trial": 5, "time_elapsed": 897886, "serialpos": 3, "key_press": -1, "wordID": 222, "type": "PRES_VIS", "trial_index": 188}, "uniqueid": "MTK2019:338JKRMM276BSHPQZ83IRTVZ153AHI", "dateTime": 1516651865687}, {"current_trial": 189, "trialdata": {"rt": -1, "trial_type": "single-stim", "word": "candy", "stimulus": "<p id=\"stim\">CANDY</p>", "conditions": [24, 800, "v", 24000], "internal_node_id": "0.0-135.0", "trial": 5, "time_elapsed": 899611, "serialpos": 4, "key_press": -1, "wordID": 229, "type": "PRES_VIS", "trial_index": 189}, "uniqueid": "MTK2019:338JKRMM276BSHPQZ83IRTVZ153AHI", "dateTime": 1516651867412}, {"current_trial": 190, "trialdata": {"rt": -1, "trial_type": "single-stim", "word": "flashlight", "stimulus": "<p id=\"stim\">FLASHLIGHT</p>", "conditions": [24, 800, "v", 24000], "internal_node_id": "0.0-136.0", "trial": 5, "time_elapsed": 901400, "serialpos": 5, "key_press": -1, "wordID": 574, "type": "PRES_VIS", "trial_index": 190}, "uniqueid": "MTK2019:338JKRMM276BSHPQZ83IRTVZ153AHI", "dateTime": 1516651869201}, {"current_trial": 191, "trialdata": {"rt": -1, "trial_type": "single-stim", "word": "picture", "stimulus": "<p id=\"stim\">PICTURE</p>", "conditions": [24, 800, "v", 24000], "internal_node_id": "0.0-137.0", "trial": 5, "time_elapsed": 903170, "serialpos": 6, "key_press": -1, "wordID": 1060, "type": "PRES_VIS", "trial_index": 191}, "uniqueid": "MTK2019:338JKRMM276BSHPQZ83IRTVZ153AHI", "dateTime": 1516651870972}, {"current_trial": 192, "trialdata": {"rt": -1, "trial_type": "single-stim", "word": "gymnast", "stimulus": "<p id=\"stim\">GYMNAST</p>", "conditions": [24, 800, "v", 24000], "internal_node_id": "0.0-138.0", "trial": 5, "time_elapsed": 905097, "serialpos": 7, "key_press": -1, "wordID": 674, "type": "PRES_VIS", "trial_index": 192}, "uniqueid": "MTK2019:338JKRMM276BSHPQZ83IRTVZ153AHI", "dateTime": 1516651872898}, {"current_trial": 193, "trialdata": {"rt": -1, "trial_type": "single-stim", "word": "hiker", "stimulus": "<p id=\"stim\">HIKER</p>", "conditions": [24, 800, "v", 24000], "internal_node_id": "0.0-139.0", "trial": 5, "time_elapsed": 906774, "serialpos": 8, "key_press": -1, "wordID": 707, "type": "PRES_VIS", "trial_index": 193}, "uniqueid": "MTK2019:338JKRMM276BSHPQZ83IRTVZ153AHI", "dateTime": 1516651874575}, {"current_trial": 194, "trialdata": {"rt": -1, "trial_type": "single-stim", "word": "sausage", "stimulus": "<p id=\"stim\">SAUSAGE</p>", "conditions": [24, 800, "v", 24000], "internal_node_id": "0.0-140.0", "trial": 5, "time_elapsed": 908532, "serialpos": 9, "key_press": -1, "wordID": 1237, "type": "PRES_VIS", "trial_index": 194}, "uniqueid": "MTK2019:338JKRMM276BSHPQZ83IRTVZ153AHI", "dateTime": 1516651876333}, {"current_trial": 195, "trialdata": {"rt": -1, "trial_type": "single-stim", "word": "pork", "stimulus": "<p id=\"stim\">PORK</p>", "conditions": [24, 800, "v", 24000], "internal_node_id": "0.0-141.0", "trial": 5, "time_elapsed": 910385, "serialpos": 10, "key_press": -1, "wordID": 1107, "type": "PRES_VIS", "trial_index": 195}, "uniqueid": "MTK2019:338JKRMM276BSHPQZ83IRTVZ153AHI", "dateTime": 1516651878186}, {"current_trial": 196, "trialdata": {"rt": -1, "trial_type": "single-stim", "word": "beef", "stimulus": "<p id=\"stim\">BEEF</p>", "conditions": [24, 800, "v", 24000], "internal_node_id": "0.0-142.0", "trial": 5, "time_elapsed": 912304, "serialpos": 11, "key_press": -1, "wordID": 112, "type": "PRES_VIS", "trial_index": 196}, "uniqueid": "MTK2019:338JKRMM276BSHPQZ83IRTVZ153AHI", "dateTime": 1516651880105}, {"current_trial": 197, "trialdata": {"rt": -1, "trial_type": "single-stim", "word": "clothes", "stimulus": "<p id=\"stim\">CLOTHES</p>", "conditions": [24, 800, "v", 24000], "internal_node_id": "0.0-143.0", "trial": 5, "time_elapsed": 914210, "serialpos": 12, "key_press": -1, "wordID": 326, "type": "PRES_VIS", "trial_index": 197}, "uniqueid": "MTK2019:338JKRMM276BSHPQZ83IRTVZ153AHI", "dateTime": 1516651882011}, {"current_trial": 198, "trialdata": {"rt": -1, "trial_type": "single-stim", "word": "apple", "stimulus": "<p id=\"stim\">APPLE</p>", "conditions": [24, 800, "v", 24000], "internal_node_id": "0.0-144.0", "trial": 5, "time_elapsed": 916087, "serialpos": 13, "key_press": -1, "wordID": 32, "type": "PRES_VIS", "trial_index": 198}, "uniqueid": "MTK2019:338JKRMM276BSHPQZ83IRTVZ153AHI", "dateTime": 1516651883888}, {"current_trial": 199, "trialdata": {"rt": -1, "trial_type": "single-stim", "word": "poet", "stimulus": "<p id=\"stim\">POET</p>", "conditions": [24, 800, "v", 24000], "internal_node_id": "0.0-145.0", "trial": 5, "time_elapsed": 917768, "serialpos": 14, "key_press": -1, "wordID": 1094, "type": "PRES_VIS", "trial_index": 199}, "uniqueid": "MTK2019:338JKRMM276BSHPQZ83IRTVZ153AHI", "dateTime": 1516651885569}, {"current_trial": 200, "trialdata": {"rt": -1, "trial_type": "single-stim", "word": "sphinx", "stimulus": "<p id=\"stim\">SPHINX</p>", "conditions": [24, 800, "v", 24000], "internal_node_id": "0.0-146.0", "trial": 5, "time_elapsed": 919659, "serialpos": 15, "key_press": -1, "wordID": 1348, "type": "PRES_VIS", "trial_index": 200}, "uniqueid": "MTK2019:338JKRMM276BSHPQZ83IRTVZ153AHI", "dateTime": 1516651887461}, {"current_trial": 201, "trialdata": {"rt": -1, "trial_type": "single-stim", "word": "wardrobe", "stimulus": "<p id=\"stim\">WARDROBE</p>", "conditions": [24, 800, "v", 24000], "internal_node_id": "0.0-147.0", "trial": 5, "time_elapsed": 921416, "serialpos": 16, "key_press": -1, "wordID": 1586, "type": "PRES_VIS", "trial_index": 201}, "uniqueid": "MTK2019:338JKRMM276BSHPQZ83IRTVZ153AHI", "dateTime": 1516651889217}, {"current_trial": 202, "trialdata": {"rt": -1, "trial_type": "single-stim", "word": "lake", "stimulus": "<p id=\"stim\">LAKE</p>", "conditions": [24, 800, "v", 24000], "internal_node_id": "0.0-148.0", "trial": 5, "time_elapsed": 923206, "serialpos": 17, "key_press": -1, "wordID": 795, "type": "PRES_VIS", "trial_index": 202}, "uniqueid": "MTK2019:338JKRMM276BSHPQZ83IRTVZ153AHI", "dateTime": 1516651891007}, {"current_trial": 203, "trialdata": {"rt": -1, "trial_type": "single-stim", "word": "bureau", "stimulus": "<p id=\"stim\">BUREAU</p>", "conditions": [24, 800, "v", 24000], "internal_node_id": "0.0-149.0", "trial": 5, "time_elapsed": 924861, "serialpos": 18, "key_press": -1, "wordID": 198, "type": "PRES_VIS", "trial_index": 203}, "uniqueid": "MTK2019:338JKRMM276BSHPQZ83IRTVZ153AHI", "dateTime": 1516651892662}, {"current_trial": 204, "trialdata": {"rt": -1, "trial_type": "single-stim", "word": "quarter", "stimulus": "<p id=\"stim\">QUARTER</p>", "conditions": [24, 800, "v", 24000], "internal_node_id": "0.0-150.0", "trial": 5, "time_elapsed": 926524, "serialpos": 19, "key_press": -1, "wordID": 1147, "type": "PRES_VIS", "trial_index": 204}, "uniqueid": "MTK2019:338JKRMM276BSHPQZ83IRTVZ153AHI", "dateTime": 1516651894325}, {"current_trial": 205, "trialdata": {"rt": -1, "trial_type": "single-stim", "word": "garlic", "stimulus": "<p id=\"stim\">GARLIC</p>", "conditions": [24, 800, "v", 24000], "internal_node_id": "0.0-151.0", "trial": 5, "time_elapsed": 928217, "serialpos": 20, "key_press": -1, "wordID": 623, "type": "PRES_VIS", "trial_index": 205}, "uniqueid": "MTK2019:338JKRMM276BSHPQZ83IRTVZ153AHI", "dateTime": 1516651896018}, {"current_trial": 206, "trialdata": {"rt": -1, "trial_type": "single-stim", "word": "lady", "stimulus": "<p id=\"stim\">LADY</p>", "conditions": [24, 800, "v", 24000], "internal_node_id": "0.0-152.0", "trial": 5, "time_elapsed": 929942, "serialpos": 21, "key_press": -1, "wordID": 793, "type": "PRES_VIS", "trial_index": 206}, "uniqueid": "MTK2019:338JKRMM276BSHPQZ83IRTVZ153AHI", "dateTime": 1516651897743}, {"current_trial": 207, "trialdata": {"rt": -1, "trial_type": "single-stim", "word": "woman", "stimulus": "<p id=\"stim\">WOMAN</p>", "conditions": [24, 800, "v", 24000], "internal_node_id": "0.0-153.0", "trial": 5, "time_elapsed": 931740, "serialpos": 22, "key_press": -1, "wordID": 1619, "type": "PRES_VIS", "trial_index": 207}, "uniqueid": "MTK2019:338JKRMM276BSHPQZ83IRTVZ153AHI", "dateTime": 1516651899541}, {"current_trial": 208, "trialdata": {"rt": -1, "trial_type": "single-stim", "word": "army", "stimulus": "<p id=\"stim\">ARMY</p>", "conditions": [24, 800, "v", 24000], "internal_node_id": "0.0-154.0", "trial": 5, "time_elapsed": 933565, "serialpos": 23, "key_press": -1, "wordID": 38, "type": "PRES_VIS", "trial_index": 208}, "uniqueid": "MTK2019:338JKRMM276BSHPQZ83IRTVZ153AHI", "dateTime": 1516651901366}, {"current_trial": 209, "trialdata": {"rt": -1, "trial_type": "single-stim", "stimulus": "", "internal_node_id": "0.0-155.0-0.0", "time_elapsed": 935746, "key_press": -1, "type": "PRE_RECALL_DELAY", "trial_index": 209}, "uniqueid": "MTK2019:338JKRMM276BSHPQZ83IRTVZ153AHI", "dateTime": 1516651903547}, {"current_trial": 210, "trialdata": {"rt": -1000, "trial_type": "single-audio", "stimulus": "/static/audio/400Hz.wav", "internal_node_id": "0.0-156.0", "time_elapsed": 936247, "key_press": -1, "type": "PRE_RECALL_ALERT", "trial_index": 210}, "uniqueid": "MTK2019:338JKRMM276BSHPQZ83IRTVZ153AHI", "dateTime": 1516651904048}, {"current_trial": 211, "trialdata": {"rt": [4065, 6127, 9155, 12000, 16222, 17680, 33702, 43455, 50318, 56993], "recwords": ["garlic", "lady", "woman", "quarter", "army", "lake", "lady", "sphix", "sphinx", "wardrobe"], "key_times": [1120, 1649, 2137, 2538, 2899, 3227, 4065, 4557, 4879, 5255, 5639, 6127, 6605, 6923, 7893, 8563, 8682, 9155, 9940, 10176, 10311, 10704, 10939, 11204, 11450, 12000, 12704, 13058, 13505, 13933, 16222, 16775, 17046, 17215, 17469, 17680, 30505, 30666, 30951, 31120, 31650, 31852, 33209, 33348, 33702, 41680, 41956, 42428, 42711, 43247, 43455, 44740, 45033, 45680, 46230, 46597, 46755, 47550, 47761, 47920, 48058, 48837, 49099, 49447, 49714, 50318, 52476, 52714, 53074, 53334, 54549, 54628, 55328, 56196, 56993], "trial_type": "free-recall", "conditions": [24, 800, "v", 24000], "internal_node_id": "0.0-157.0-0.0", "key_presses": [71, 65, 82, 76, 73, 67, 13, 76, 65, 68, 89, 32, 87, 79, 77, 65, 78, 32, 81, 85, 65, 82, 84, 69, 82, 13, 65, 82, 77, 89, 13, 76, 65, 75, 69, 13, 76, 65, 83, 89, 8, 8, 68, 89, 13, 83, 80, 72, 73, 88, 13, 83, 80, 73, 72, 78, 88, 8, 8, 8, 8, 72, 73, 78, 88, 13, 87, 65, 82, 68, 82, 79, 66, 69, 13], "trial": 5, "time_elapsed": 996251, "type": "FREE_RECALL", "trial_index": 211}, "uniqueid": "MTK2019:338JKRMM276BSHPQZ83IRTVZ153AHI", "dateTime": 1516651964055}, {"current_trial": 212, "trialdata": {"rt": 1768, "trial_type": "text", "internal_node_id": "0.0-158.0", "time_elapsed": 1000022, "key_press": 13, "type": "INSTRUCTIONS", "trial_index": 212}, "uniqueid": "MTK2019:338JKRMM276BSHPQZ83IRTVZ153AHI", "dateTime": 1516651967823}, {"current_trial": 213, "trialdata": {"rt": [2114, 5449, 7407, 10184], "trial_type": "math-distractor", "key_times": [1672, 1871, 2114, 4916, 5084, 5449, 6949, 7151, 7407, 9387, 9659, 10184, 11764, 11972], "responses": ["14", "22", "14", "19"], "num2": [7, 9, 3, 7, 9], "num3": [6, 6, 6, 5, 1], "conditions": [24, 1600, "v", 12000], "internal_node_id": "0.0-159.0", "key_presses": [97, 100, 13, 98, 98, 13, 97, 100, 13, 97, 105, 13, 97, 103], "trial": 6, "time_elapsed": 1014024, "type": "DISTRACTOR", "trial_index": 213, "num1": [1, 7, 5, 7, 7]}, "uniqueid": "MTK2019:338JKRMM276BSHPQZ83IRTVZ153AHI", "dateTime": 1516651981825}, {"current_trial": 214, "trialdata": {"rt": -1, "trial_type": "single-stim", "stimulus": "<p id=\"stim\">10</p>", "internal_node_id": "0.0-160.0-0.0", "time_elapsed": 1017026, "key_press": -1, "trial_index": 214}, "uniqueid": "MTK2019:338JKRMM276BSHPQZ83IRTVZ153AHI", "dateTime": 1516651984827}, {"current_trial": 215, "trialdata": {"rt": -1, "trial_type": "single-stim", "stimulus": "<p id=\"stim\">9</p>", "internal_node_id": "0.0-160.0-1.0", "time_elapsed": 1018026, "key_press": -1, "trial_index": 215}, "uniqueid": "MTK2019:338JKRMM276BSHPQZ83IRTVZ153AHI", "dateTime": 1516651985827}, {"current_trial": 216, "trialdata": {"rt": -1, "trial_type": "single-stim", "stimulus": "<p id=\"stim\">8</p>", "internal_node_id": "0.0-160.0-2.0", "time_elapsed": 1019028, "key_press": -1, "trial_index": 216}, "uniqueid": "MTK2019:338JKRMM276BSHPQZ83IRTVZ153AHI", "dateTime": 1516651986829}, {"current_trial": 217, "trialdata": {"rt": -1, "trial_type": "single-stim", "stimulus": "<p id=\"stim\">7</p>", "internal_node_id": "0.0-160.0-3.0", "time_elapsed": 1020030, "key_press": -1, "trial_index": 217}, "uniqueid": "MTK2019:338JKRMM276BSHPQZ83IRTVZ153AHI", "dateTime": 1516651987831}, {"current_trial": 218, "trialdata": {"rt": -1, "trial_type": "single-stim", "stimulus": "<p id=\"stim\">6</p>", "internal_node_id": "0.0-160.0-4.0", "time_elapsed": 1021030, "key_press": -1, "trial_index": 218}, "uniqueid": "MTK2019:338JKRMM276BSHPQZ83IRTVZ153AHI", "dateTime": 1516651988831}, {"current_trial": 219, "trialdata": {"rt": -1, "trial_type": "single-stim", "stimulus": "<p id=\"stim\">5</p>", "internal_node_id": "0.0-160.0-5.0", "time_elapsed": 1022031, "key_press": -1, "trial_index": 219}, "uniqueid": "MTK2019:338JKRMM276BSHPQZ83IRTVZ153AHI", "dateTime": 1516651989832}, {"current_trial": 220, "trialdata": {"rt": -1, "trial_type": "single-stim", "stimulus": "<p id=\"stim\">4</p>", "internal_node_id": "0.0-160.0-6.0", "time_elapsed": 1023032, "key_press": -1, "trial_index": 220}, "uniqueid": "MTK2019:338JKRMM276BSHPQZ83IRTVZ153AHI", "dateTime": 1516651990834}, {"current_trial": 221, "trialdata": {"rt": -1, "trial_type": "single-stim", "stimulus": "<p id=\"stim\">3</p>", "internal_node_id": "0.0-160.0-7.0", "time_elapsed": 1024033, "key_press": -1, "trial_index": 221}, "uniqueid": "MTK2019:338JKRMM276BSHPQZ83IRTVZ153AHI", "dateTime": 1516651991834}, {"current_trial": 222, "trialdata": {"rt": -1, "trial_type": "single-stim", "stimulus": "<p id=\"stim\">2</p>", "internal_node_id": "0.0-160.0-8.0", "time_elapsed": 1025034, "key_press": -1, "trial_index": 222}, "uniqueid": "MTK2019:338JKRMM276BSHPQZ83IRTVZ153AHI", "dateTime": 1516651992835}, {"current_trial": 223, "trialdata": {"rt": -1, "trial_type": "single-stim", "stimulus": "<p id=\"stim\">1</p>", "internal_node_id": "0.0-160.0-9.0", "time_elapsed": 1026036, "key_press": -1, "trial_index": 223}, "uniqueid": "MTK2019:338JKRMM276BSHPQZ83IRTVZ153AHI", "dateTime": 1516651993837}, {"current_trial": 224, "trialdata": {"rt": -1, "trial_type": "single-stim", "stimulus": "<p id=\"stim\">+</p>", "internal_node_id": "0.0-161.0-0.0", "time_elapsed": 1027537, "key_press": -1, "type": "FIXATION", "trial_index": 224}, "uniqueid": "MTK2019:338JKRMM276BSHPQZ83IRTVZ153AHI", "dateTime": 1516651995338}, {"current_trial": 225, "trialdata": {"rt": -1, "trial_type": "single-stim", "word": "kidney", "stimulus": "<p id=\"stim\">KIDNEY</p>", "conditions": [24, 1600, "v", 12000], "internal_node_id": "0.0-162.0", "trial": 6, "time_elapsed": 1029138, "serialpos": 0, "key_press": -1, "wordID": 775, "type": "PRES_VIS", "trial_index": 225}, "uniqueid": "MTK2019:338JKRMM276BSHPQZ83IRTVZ153AHI", "dateTime": 1516651996939}, {"current_trial": 226, "trialdata": {"rt": -1, "trial_type": "single-stim", "word": "shirt", "stimulus": "<p id=\"stim\">SHIRT</p>", "conditions": [24, 1600, "v", 12000], "internal_node_id": "0.0-163.0", "trial": 6, "time_elapsed": 1031880, "serialpos": 1, "key_press": -1, "wordID": 1286, "type": "PRES_VIS", "trial_index": 226}, "uniqueid": "MTK2019:338JKRMM276BSHPQZ83IRTVZ153AHI", "dateTime": 1516651999681}, {"current_trial": 227, "trialdata": {"rt": -1, "trial_type": "single-stim", "word": "creature", "stimulus": "<p id=\"stim\">CREATURE</p>", "conditions": [24, 1600, "v", 12000], "internal_node_id": "0.0-164.0", "trial": 6, "time_elapsed": 1034502, "serialpos": 2, "key_press": -1, "wordID": 402, "type": "PRES_VIS", "trial_index": 227}, "uniqueid": "MTK2019:338JKRMM276BSHPQZ83IRTVZ153AHI", "dateTime": 1516652002303}, {"current_trial": 228, "trialdata": {"rt": -1, "trial_type": "single-stim", "word": "spider", "stimulus": "<p id=\"stim\">SPIDER</p>", "conditions": [24, 1600, "v", 12000], "internal_node_id": "0.0-165.0", "trial": 6, "time_elapsed": 1037020, "serialpos": 3, "key_press": -1, "wordID": 1350, "type": "PRES_VIS", "trial_index": 228}, "uniqueid": "MTK2019:338JKRMM276BSHPQZ83IRTVZ153AHI", "dateTime": 1516652004821}, {"current_trial": 229, "trialdata": {"rt": -1, "trial_type": "single-stim", "word": "worker", "stimulus": "<p id=\"stim\">WORKER</p>", "conditions": [24, 1600, "v", 12000], "internal_node_id": "0.0-166.0", "trial": 6, "time_elapsed": 1039527, "serialpos": 4, "key_press": -1, "wordID": 1620, "type": "PRES_VIS", "trial_index": 229}, "uniqueid": "MTK2019:338JKRMM276BSHPQZ83IRTVZ153AHI", "dateTime": 1516652007329}, {"current_trial": 230, "trialdata": {"rt": -1, "trial_type": "single-stim", "word": "gavel", "stimulus": "<p id=\"stim\">GAVEL</p>", "conditions": [24, 1600, "v", 12000], "internal_node_id": "0.0-167.0", "trial": 6, "time_elapsed": 1042044, "serialpos": 5, "key_press": -1, "wordID": 626, "type": "PRES_VIS", "trial_index": 230}, "uniqueid": "MTK2019:338JKRMM276BSHPQZ83IRTVZ153AHI", "dateTime": 1516652009845}, {"current_trial": 231, "trialdata": {"rt": -1, "trial_type": "single-stim", "word": "perch", "stimulus": "<p id=\"stim\">PERCH</p>", "conditions": [24, 1600, "v", 12000], "internal_node_id": "0.0-168.0", "trial": 6, "time_elapsed": 1044473, "serialpos": 6, "key_press": -1, "wordID": 1047, "type": "PRES_VIS", "trial_index": 231}, "uniqueid": "MTK2019:338JKRMM276BSHPQZ83IRTVZ153AHI", "dateTime": 1516652012274}, {"current_trial": 232, "trialdata": {"rt": -1, "trial_type": "single-stim", "word": "marrow", "stimulus": "<p id=\"stim\">MARROW</p>", "conditions": [24, 1600, "v", 12000], "internal_node_id": "0.0-169.0", "trial": 6, "time_elapsed": 1047142, "serialpos": 7, "key_press": -1, "wordID": 871, "type": "PRES_VIS", "trial_index": 232}, "uniqueid": "MTK2019:338JKRMM276BSHPQZ83IRTVZ153AHI", "dateTime": 1516652014943}, {"current_trial": 233, "trialdata": {"rt": -1, "trial_type": "single-stim", "word": "honey", "stimulus": "<p id=\"stim\">HONEY</p>", "conditions": [24, 1600, "v", 12000], "internal_node_id": "0.0-170.0", "trial": 6, "time_elapsed": 1049789, "serialpos": 8, "key_press": -1, "wordID": 712, "type": "PRES_VIS", "trial_index": 233}, "uniqueid": "MTK2019:338JKRMM276BSHPQZ83IRTVZ153AHI", "dateTime": 1516652017590}, {"current_trial": 234, "trialdata": {"rt": -1, "trial_type": "single-stim", "word": "costume", "stimulus": "<p id=\"stim\">COSTUME</p>", "conditions": [24, 1600, "v", 12000], "internal_node_id": "0.0-171.0", "trial": 6, "time_elapsed": 1052541, "serialpos": 9, "key_press": -1, "wordID": 382, "type": "PRES_VIS", "trial_index": 234}, "uniqueid": "MTK2019:338JKRMM276BSHPQZ83IRTVZ153AHI", "dateTime": 1516652020342}, {"current_trial": 235, "trialdata": {"rt": -1, "trial_type": "single-stim", "word": "pilot", "stimulus": "<p id=\"stim\">PILOT</p>", "conditions": [24, 1600, "v", 12000], "internal_node_id": "0.0-172.0", "trial": 6, "time_elapsed": 1055135, "serialpos": 10, "key_press": -1, "wordID": 1069, "type": "PRES_VIS", "trial_index": 235}, "uniqueid": "MTK2019:338JKRMM276BSHPQZ83IRTVZ153AHI", "dateTime": 1516652022936}, {"current_trial": 236, "trialdata": {"rt": -1, "trial_type": "single-stim", "word": "transplant", "stimulus": "<p id=\"stim\">TRANSPLANT</p>", "conditions": [24, 1600, "v", 12000], "internal_node_id": "0.0-173.0", "trial": 6, "time_elapsed": 1057929, "serialpos": 11, "key_press": -1, "wordID": 1495, "type": "PRES_VIS", "trial_index": 236}, "uniqueid": "MTK2019:338JKRMM276BSHPQZ83IRTVZ153AHI", "dateTime": 1516652025731}, {"current_trial": 237, "trialdata": {"rt": -1, "trial_type": "single-stim", "word": "blackboard", "stimulus": "<p id=\"stim\">BLACKBOARD</p>", "conditions": [24, 1600, "v", 12000], "internal_node_id": "0.0-174.0", "trial": 6, "time_elapsed": 1060539, "serialpos": 12, "key_press": -1, "wordID": 132, "type": "PRES_VIS", "trial_index": 237}, "uniqueid": "MTK2019:338JKRMM276BSHPQZ83IRTVZ153AHI", "dateTime": 1516652028341}, {"current_trial": 238, "trialdata": {"rt": -1, "trial_type": "single-stim", "word": "neutron", "stimulus": "<p id=\"stim\">NEUTRON</p>", "conditions": [24, 1600, "v", 12000], "internal_node_id": "0.0-175.0", "trial": 6, "time_elapsed": 1062952, "serialpos": 13, "key_press": -1, "wordID": 946, "type": "PRES_VIS", "trial_index": 238}, "uniqueid": "MTK2019:338JKRMM276BSHPQZ83IRTVZ153AHI", "dateTime": 1516652030753}, {"current_trial": 239, "trialdata": {"rt": -1, "trial_type": "single-stim", "word": "window", "stimulus": "<p id=\"stim\">WINDOW</p>", "conditions": [24, 1600, "v", 12000], "internal_node_id": "0.0-176.0", "trial": 6, "time_elapsed": 1065566, "serialpos": 14, "key_press": -1, "wordID": 1610, "type": "PRES_VIS", "trial_index": 239}, "uniqueid": "MTK2019:338JKRMM276BSHPQZ83IRTVZ153AHI", "dateTime": 1516652033367}, {"current_trial": 240, "trialdata": {"rt": -1, "trial_type": "single-stim", "word": "eyelash", "stimulus": "<p id=\"stim\">EYELASH</p>", "conditions": [24, 1600, "v", 12000], "internal_node_id": "0.0-177.0", "trial": 6, "time_elapsed": 1068209, "serialpos": 15, "key_press": -1, "wordID": 545, "type": "PRES_VIS", "trial_index": 240}, "uniqueid": "MTK2019:338JKRMM276BSHPQZ83IRTVZ153AHI", "dateTime": 1516652036010}, {"current_trial": 241, "trialdata": {"rt": -1, "trial_type": "single-stim", "word": "tombstone", "stimulus": "<p id=\"stim\">TOMBSTONE</p>", "conditions": [24, 1600, "v", 12000], "internal_node_id": "0.0-178.0", "trial": 6, "time_elapsed": 1070928, "serialpos": 16, "key_press": -1, "wordID": 1477, "type": "PRES_VIS", "trial_index": 241}, "uniqueid": "MTK2019:338JKRMM276BSHPQZ83IRTVZ153AHI", "dateTime": 1516652038729}, {"current_trial": 242, "trialdata": {"rt": -1, "trial_type": "single-stim", "word": "bathtub", "stimulus": "<p id=\"stim\">BATHTUB</p>", "conditions": [24, 1600, "v", 12000], "internal_node_id": "0.0-179.0", "trial": 6, "time_elapsed": 1073531, "serialpos": 17, "key_press": -1, "wordID": 99, "type": "PRES_VIS", "trial_index": 242}, "uniqueid": "MTK2019:338JKRMM276BSHPQZ83IRTVZ153AHI", "dateTime": 1516652041332}, {"current_trial": 243, "trialdata": {"rt": -1, "trial_type": "single-stim", "word": "blade", "stimulus": "<p id=\"stim\">BLADE</p>", "conditions": [24, 1600, "v", 12000], "internal_node_id": "0.0-180.0", "trial": 6, "time_elapsed": 1076129, "serialpos": 18, "key_press": -1, "wordID": 133, "type": "PRES_VIS", "trial_index": 243}, "uniqueid": "MTK2019:338JKRMM276BSHPQZ83IRTVZ153AHI", "dateTime": 1516652043930}, {"current_trial": 244, "trialdata": {"rt": -1, "trial_type": "single-stim", "word": "citrus", "stimulus": "<p id=\"stim\">CITRUS</p>", "conditions": [24, 1600, "v", 12000], "internal_node_id": "0.0-181.0", "trial": 6, "time_elapsed": 1078667, "serialpos": 19, "key_press": -1, "wordID": 312, "type": "PRES_VIS", "trial_index": 244}, "uniqueid": "MTK2019:338JKRMM276BSHPQZ83IRTVZ153AHI", "dateTime": 1516652046468}, {"current_trial": 245, "trialdata": {"rt": -1, "trial_type": "single-stim", "word": "rabbit", "stimulus": "<p id=\"stim\">RABBIT</p>", "conditions": [24, 1600, "v", 12000], "internal_node_id": "0.0-182.0", "trial": 6, "time_elapsed": 1081431, "serialpos": 20, "key_press": -1, "wordID": 1151, "type": "PRES_VIS", "trial_index": 245}, "uniqueid": "MTK2019:338JKRMM276BSHPQZ83IRTVZ153AHI", "dateTime": 1516652049232}, {"current_trial": 246, "trialdata": {"rt": -1, "trial_type": "single-stim", "word": "beaver", "stimulus": "<p id=\"stim\">BEAVER</p>", "conditions": [24, 1600, "v", 12000], "internal_node_id": "0.0-183.0", "trial": 6, "time_elapsed": 1084157, "serialpos": 21, "key_press": -1, "wordID": 108, "type": "PRES_VIS", "trial_index": 246}, "uniqueid": "MTK2019:338JKRMM276BSHPQZ83IRTVZ153AHI", "dateTime": 1516652051958}, {"current_trial": 247, "trialdata": {"rt": -1, "trial_type": "single-stim", "word": "padding", "stimulus": "<p id=\"stim\">PADDING</p>", "conditions": [24, 1600, "v", 12000], "internal_node_id": "0.0-184.0", "trial": 6, "time_elapsed": 1086563, "serialpos": 22, "key_press": -1, "wordID": 998, "type": "PRES_VIS", "trial_index": 247}, "uniqueid": "MTK2019:338JKRMM276BSHPQZ83IRTVZ153AHI", "dateTime": 1516652054364}, {"current_trial": 248, "trialdata": {"rt": -1, "trial_type": "single-stim", "word": "pecan", "stimulus": "<p id=\"stim\">PECAN</p>", "conditions": [24, 1600, "v", 12000], "internal_node_id": "0.0-185.0", "trial": 6, "time_elapsed": 1089027, "serialpos": 23, "key_press": -1, "wordID": 1035, "type": "PRES_VIS", "trial_index": 248}, "uniqueid": "MTK2019:338JKRMM276BSHPQZ83IRTVZ153AHI", "dateTime": 1516652056828}, {"current_trial": 249, "trialdata": {"rt": -1, "trial_type": "single-stim", "stimulus": "", "internal_node_id": "0.0-186.0-0.0", "time_elapsed": 1091462, "key_press": -1, "type": "PRE_RECALL_DELAY", "trial_index": 249}, "uniqueid": "MTK2019:338JKRMM276BSHPQZ83IRTVZ153AHI", "dateTime": 1516652059263}, {"current_trial": 250, "trialdata": {"rt": -1000, "trial_type": "single-audio", "stimulus": "/static/audio/400Hz.wav", "internal_node_id": "0.0-187.0", "time_elapsed": 1091964, "key_press": -1, "type": "PRE_RECALL_ALERT", "trial_index": 250}, "uniqueid": "MTK2019:338JKRMM276BSHPQZ83IRTVZ153AHI", "dateTime": 1516652059765}, {"current_trial": 251, "trialdata": {"rt": [3230, 5560, 9186, 12007, 16548, 18612, 24114], "recwords": ["pecan", "padding", "citrus", "gavel", "rabbit", "beaver", "blade"], "key_times": [1671, 1856, 2128, 2389, 2538, 3230, 4289, 4420, 4661, 4819, 4908, 5044, 5191, 5560, 5842, 5996, 6307, 6692, 7173, 7316, 7446, 7595, 9186, 9869, 10061, 10282, 10474, 10604, 12007, 15503, 15660, 15906, 16040, 16146, 16331, 16548, 17667, 17749, 17926, 18145, 18356, 18456, 18612, 23224, 23373, 23501, 23799, 23976, 24114], "trial_type": "free-recall", "conditions": [24, 1600, "v", 12000], "internal_node_id": "0.0-188.0-0.0", "key_presses": [80, 69, 67, 65, 78, 13, 80, 65, 68, 68, 73, 78, 71, 13, 67, 73, 84, 85, 8, 82, 85, 83, 13, 71, 65, 86, 69, 76, 13, 82, 65, 66, 66, 73, 84, 13, 66, 69, 65, 86, 69, 82, 13, 66, 76, 65, 68, 69, 13], "trial": 6, "time_elapsed"