{"assignmentId": "3PPTZCWALRRP6IW1UQ6BH0E92XJZQM", "workerId": "MTK2259", "questiondata": {"avail_screen_height": 734, "color_depth": 24, "screen_width": 1360, "pixel_depth": 24, "avail_screen_width": 1360, "screen_height": 768}, "bonus": 0, "hitId": "3M7OI89LVYVH1N4DX133BD0DAMG6CE", "counterbalance": 1997, "useragent": "Mozilla/5.0 (Windows NT 5.1) AppleWebKit/537.36 (KHTML, like Gecko) Chrome/49.0.2623.112 Safari/537.36", "eventdata": [{"eventtype": "initialized", "interval": 0, "value": null, "timestamp": 1516909933558}, {"eventtype": "window_resize", "interval": 0, "value": [1241, 666], "timestamp": 1516909933558}, {"eventtype": "window_resize", "interval": 53161, "value": [1349, 666], "timestamp": 1516909986719}, {"eventtype": "window_resize", "interval": 541, "value": [1339, 666], "timestamp": 1516909987260}, {"eventtype": "focus", "interval": 6084, "value": "off", "timestamp": 1516909993344}, {"eventtype": "focus", "interval": 10105, "value": "on", "timestamp": 1516910003449}, {"eventtype": "window_resize", "interval": 4183, "value": [1279, 630], "timestamp": 1516910007632}, {"eventtype": "focus", "interval": 166325, "value": "off", "timestamp": 1516910173957}, {"eventtype": "focus", "interval": 3766, "value": "on", "timestamp": 1516910177723}, {"eventtype": "focus", "interval": 2612, "value": "off", "timestamp": 1516910180335}, {"eventtype": "focus", "interval": 3419, "value": "on", "timestamp": 1516910183754}, {"eventtype": "focus", "interval": 1492360, "value": "off", "timestamp": 1516911676114}, {"eventtype": "focus", "interval": 4582, "value": "on", "timestamp": 1516911680696}, {"eventtype": "focus", "interval": 351666, "value": "off", "timestamp": 1516912032362}, {"eventtype": "focus", "interval": 3089, "value": "on", "timestamp": 1516912035451}, {"eventtype": "focus", "interval": 527734, "value": "off", "timestamp": 1516912563185}, {"eventtype": "focus", "interval": 3039, "value": "on", "timestamp": 1516912566224}], "data": [{"current_trial": 0, "trialdata": {"rt": 1846, "trial_type": "text", "internal_node_id": "0.0-0.0", "time_elapsed": 1849, "key_press": 32, "type": "INSTRUCTIONS", "trial_index": 0}, "uniqueid": "MTK2259:3PPTZCWALRRP6IW1UQ6BH0E92XJZQM", "dateTime": 1516909936068}, {"current_trial": 1, "trialdata": {"rt": 2871, "trial_type": "text", "internal_node_id": "0.0-1.0", "time_elapsed": 4735, "key_press": 32, "type": "INSTRUCTIONS", "trial_index": 1}, "uniqueid": "MTK2259:3PPTZCWALRRP6IW1UQ6BH0E92XJZQM", "dateTime": 1516909938939}, {"current_trial": 2, "trialdata": {"rt": [7717], "trial_type": "audio-test", "responses": ["ocean"], "internal_node_id": "0.0-2.0", "time_elapsed": 12517, "type": "AUDIO_TEST", "trial_index": 2}, "uniqueid": "MTK2259:3PPTZCWALRRP6IW1UQ6BH0E92XJZQM", "dateTime": 1516909946721}, {"current_trial": 3, "trialdata": {"rt": [4828], "trial_type": "audio-test", "responses": ["crystal"], "internal_node_id": "0.0-3.0", "time_elapsed": 17353, "type": "AUDIO_TEST", "trial_index": 3}, "uniqueid": "MTK2259:3PPTZCWALRRP6IW1UQ6BH0E92XJZQM", "dateTime": 1516909951557}, {"current_trial": 4, "trialdata": {"rt": [6506], "trial_type": "audio-test", "responses": ["spice"], "internal_node_id": "0.0-4.0", "time_elapsed": 23875, "type": "AUDIO_TEST", "trial_index": 4}, "uniqueid": "MTK2259:3PPTZCWALRRP6IW1UQ6BH0E92XJZQM", "dateTime": 1516909958079}, {"current_trial": 5, "trialdata": {"rt": 9074, "trial_type": "survey-text", "responses": "{\"Q0\":\"11pm\",\"Q1\":\"9am\",\"Q2\":\"5\"}", "internal_node_id": "0.0-5.0", "time_elapsed": 33705, "type": "SLEEP_SURVEY", "trial_index": 5}, "uniqueid": "MTK2259:3PPTZCWALRRP6IW1UQ6BH0E92XJZQM", "dateTime": 1516909967909}, {"current_trial": 6, "trialdata": {"rt": 197407, "trial_type": "text", "internal_node_id": "0.0-6.0", "time_elapsed": 232112, "key_press": 32, "type": "INSTRUCTIONS", "trial_index": 6}, "uniqueid": "MTK2259:3PPTZCWALRRP6IW1UQ6BH0E92XJZQM", "dateTime": 1516910166316}, {"current_trial": 7, "trialdata": {"rt": 64886, "trial_type": "text", "internal_node_id": "0.0-7.0", "time_elapsed": 297499, "key_press": 32, "type": "INSTRUCTIONS", "trial_index": 7}, "uniqueid": "MTK2259:3PPTZCWALRRP6IW1UQ6BH0E92XJZQM", "dateTime": 1516910231703}, {"current_trial": 8, "trialdata": {"rt": 19999, "trial_type": "text", "internal_node_id": "0.0-8.0", "time_elapsed": 317999, "key_press": 32, "type": "INSTRUCTIONS", "trial_index": 8}, "uniqueid": "MTK2259:3PPTZCWALRRP6IW1UQ6BH0E92XJZQM", "dateTime": 1516910252203}, {"current_trial": 9, "trialdata": {"rt": [5091, 9348, 11648, 15906], "trial_type": "math-distractor", "key_times": [3857, 4383, 5091, 8770, 9043, 9348, 11154, 11352, 11648, 15058, 15273, 15906], "responses": ["19", "20", "10", "15"], "num2": [4, 9, 7, 9, 4], "num3": [6, 3, 1, 2, 1], "conditions": [18, 1200, "v", 18000], "internal_node_id": "0.0-9.0", "key_presses": [97, 105, 13, 98, 96, 13, 97, 96, 13, 97, 101, 13], "trial": 0, "time_elapsed": 337014, "type": "DISTRACTOR", "trial_index": 9, "num1": [9, 8, 2, 4, 7]}, "uniqueid": "MTK2259:3PPTZCWALRRP6IW1UQ6BH0E92XJZQM", "dateTime": 1516910271218}, {"current_trial": 10, "trialdata": {"rt": -1, "trial_type": "single-stim", "stimulus": "<p id=\"stim\">10</p>", "internal_node_id": "0.0-10.0-0.0", "time_elapsed": 340043, "key_press": -1, "trial_index": 10}, "uniqueid": "MTK2259:3PPTZCWALRRP6IW1UQ6BH0E92XJZQM", "dateTime": 1516910274247}, {"current_trial": 11, "trialdata": {"rt": -1, "trial_type": "single-stim", "stimulus": "<p id=\"stim\">9</p>", "internal_node_id": "0.0-10.0-1.0", "time_elapsed": 341045, "key_press": -1, "trial_index": 11}, "uniqueid": "MTK2259:3PPTZCWALRRP6IW1UQ6BH0E92XJZQM", "dateTime": 1516910275249}, {"current_trial": 12, "trialdata": {"rt": -1, "trial_type": "single-stim", "stimulus": "<p id=\"stim\">8</p>", "internal_node_id": "0.0-10.0-2.0", "time_elapsed": 342061, "key_press": -1, "trial_index": 12}, "uniqueid": "MTK2259:3PPTZCWALRRP6IW1UQ6BH0E92XJZQM", "dateTime": 1516910276265}, {"current_trial": 13, "trialdata": {"rt": -1, "trial_type": "single-stim", "stimulus": "<p id=\"stim\">7</p>", "internal_node_id": "0.0-10.0-3.0", "time_elapsed": 343076, "key_press": -1, "trial_index": 13}, "uniqueid": "MTK2259:3PPTZCWALRRP6IW1UQ6BH0E92XJZQM", "dateTime": 1516910277280}, {"current_trial": 14, "trialdata": {"rt": -1, "trial_type": "single-stim", "stimulus": "<p id=\"stim\">6</p>", "internal_node_id": "0.0-10.0-4.0", "time_elapsed": 344092, "key_press": -1, "trial_index": 14}, "uniqueid": "MTK2259:3PPTZCWALRRP6IW1UQ6BH0E92XJZQM", "dateTime": 1516910278296}, {"current_trial": 15, "trialdata": {"rt": -1, "trial_type": "single-stim", "stimulus": "<p id=\"stim\">5</p>", "internal_node_id": "0.0-10.0-5.0", "time_elapsed": 345102, "key_press": -1, "trial_index": 15}, "uniqueid": "MTK2259:3PPTZCWALRRP6IW1UQ6BH0E92XJZQM", "dateTime": 1516910279306}, {"current_trial": 16, "trialdata": {"rt": -1, "trial_type": "single-stim", "stimulus": "<p id=\"stim\">4</p>", "internal_node_id": "0.0-10.0-6.0", "time_elapsed": 346112, "key_press": -1, "trial_index": 16}, "uniqueid": "MTK2259:3PPTZCWALRRP6IW1UQ6BH0E92XJZQM", "dateTime": 1516910280316}, {"current_trial": 17, "trialdata": {"rt": -1, "trial_type": "single-stim", "stimulus": "<p id=\"stim\">3</p>", "internal_node_id": "0.0-10.0-7.0", "time_elapsed": 347122, "key_press": -1, "trial_index": 17}, "uniqueid": "MTK2259:3PPTZCWALRRP6IW1UQ6BH0E92XJZQM", "dateTime": 1516910281326}, {"current_trial": 18, "trialdata": {"rt": -1, "trial_type": "single-stim", "stimulus": "<p id=\"stim\">2</p>", "internal_node_id": "0.0-10.0-8.0", "time_elapsed": 348123, "key_press": -1, "trial_index": 18}, "uniqueid": "MTK2259:3PPTZCWALRRP6IW1UQ6BH0E92XJZQM", "dateTime": 1516910282327}, {"current_trial": 19, "trialdata": {"rt": -1, "trial_type": "single-stim", "stimulus": "<p id=\"stim\">1</p>", "internal_node_id": "0.0-10.0-9.0", "time_elapsed": 349139, "key_press": -1, "trial_index": 19}, "uniqueid": "MTK2259:3PPTZCWALRRP6IW1UQ6BH0E92XJZQM", "dateTime": 1516910283343}, {"current_trial": 20, "trialdata": {"rt": -1, "trial_type": "single-stim", "stimulus": "<p id=\"stim\">+</p>", "internal_node_id": "0.0-11.0-0.0", "time_elapsed": 350644, "key_press": -1, "type": "FIXATION", "trial_index": 20}, "uniqueid": "MTK2259:3PPTZCWALRRP6IW1UQ6BH0E92XJZQM", "dateTime": 1516910284848}, {"current_trial": 21, "trialdata": {"rt": -1, "trial_type": "single-stim", "word": "swamp", "stimulus": "<p id=\"stim\">SWAMP</p>", "conditions": [18, 1200, "v", 18000], "internal_node_id": "0.0-12.0", "trial": 0, "time_elapsed": 351854, "serialpos": 0, "key_press": -1, "wordID": 1415, "type": "PRES_VIS", "trial_index": 21}, "uniqueid": "MTK2259:3PPTZCWALRRP6IW1UQ6BH0E92XJZQM", "dateTime": 1516910286058}, {"current_trial": 22, "trialdata": {"rt": -1, "trial_type": "single-stim", "word": "sibling", "stimulus": "<p id=\"stim\">SIBLING</p>", "conditions": [18, 1200, "v", 18000], "internal_node_id": "0.0-13.0", "trial": 0, "time_elapsed": 354242, "serialpos": 1, "key_press": -1, "wordID": 1300, "type": "PRES_VIS", "trial_index": 22}, "uniqueid": "MTK2259:3PPTZCWALRRP6IW1UQ6BH0E92XJZQM", "dateTime": 1516910288446}, {"current_trial": 23, "trialdata": {"rt": -1, "trial_type": "single-stim", "word": "beast", "stimulus": "<p id=\"stim\">BEAST</p>", "conditions": [18, 1200, "v", 18000], "internal_node_id": "0.0-14.0", "trial": 0, "time_elapsed": 356528, "serialpos": 2, "key_press": -1, "wordID": 107, "type": "PRES_VIS", "trial_index": 23}, "uniqueid": "MTK2259:3PPTZCWALRRP6IW1UQ6BH0E92XJZQM", "dateTime": 1516910290732}, {"current_trial": 24, "trialdata": {"rt": -1, "trial_type": "single-stim", "word": "chemist", "stimulus": "<p id=\"stim\">CHEMIST</p>", "conditions": [18, 1200, "v", 18000], "internal_node_id": "0.0-15.0", "trial": 0, "time_elapsed": 358711, "serialpos": 3, "key_press": -1, "wordID": 291, "type": "PRES_VIS", "trial_index": 24}, "uniqueid": "MTK2259:3PPTZCWALRRP6IW1UQ6BH0E92XJZQM", "dateTime": 1516910292915}, {"current_trial": 25, "trialdata": {"rt": -1, "trial_type": "single-stim", "word": "wagon", "stimulus": "<p id=\"stim\">WAGON</p>", "conditions": [18, 1200, "v", 18000], "internal_node_id": "0.0-16.0", "trial": 0, "time_elapsed": 360955, "serialpos": 4, "key_press": -1, "wordID": 1577, "type": "PRES_VIS", "trial_index": 25}, "uniqueid": "MTK2259:3PPTZCWALRRP6IW1UQ6BH0E92XJZQM", "dateTime": 1516910295159}, {"current_trial": 26, "trialdata": {"rt": -1, "trial_type": "single-stim", "word": "parent", "stimulus": "<p id=\"stim\">PARENT</p>", "conditions": [18, 1200, "v", 18000], "internal_node_id": "0.0-17.0", "trial": 0, "time_elapsed": 363257, "serialpos": 5, "key_press": -1, "wordID": 1012, "type": "PRES_VIS", "trial_index": 26}, "uniqueid": "MTK2259:3PPTZCWALRRP6IW1UQ6BH0E92XJZQM", "dateTime": 1516910297461}, {"current_trial": 27, "trialdata": {"rt": -1, "trial_type": "single-stim", "word": "playground", "stimulus": "<p id=\"stim\">PLAYGROUND</p>", "conditions": [18, 1200, "v", 18000], "internal_node_id": "0.0-18.0", "trial": 0, "time_elapsed": 365403, "serialpos": 6, "key_press": -1, "wordID": 1086, "type": "PRES_VIS", "trial_index": 27}, "uniqueid": "MTK2259:3PPTZCWALRRP6IW1UQ6BH0E92XJZQM", "dateTime": 1516910299607}, {"current_trial": 28, "trialdata": {"rt": -1, "trial_type": "single-stim", "word": "snack", "stimulus": "<p id=\"stim\">SNACK</p>", "conditions": [18, 1200, "v", 18000], "internal_node_id": "0.0-19.0", "trial": 0, "time_elapsed": 367804, "serialpos": 7, "key_press": -1, "wordID": 1330, "type": "PRES_VIS", "trial_index": 28}, "uniqueid": "MTK2259:3PPTZCWALRRP6IW1UQ6BH0E92XJZQM", "dateTime": 1516910302008}, {"current_trial": 29, "trialdata": {"rt": -1, "trial_type": "single-stim", "word": "slope", "stimulus": "<p id=\"stim\">SLOPE</p>", "conditions": [18, 1200, "v", 18000], "internal_node_id": "0.0-20.0", "trial": 0, "time_elapsed": 370198, "serialpos": 8, "key_press": -1, "wordID": 1327, "type": "PRES_VIS", "trial_index": 29}, "uniqueid": "MTK2259:3PPTZCWALRRP6IW1UQ6BH0E92XJZQM", "dateTime": 1516910304402}, {"current_trial": 30, "trialdata": {"rt": -1, "trial_type": "single-stim", "word": "plaza", "stimulus": "<p id=\"stim\">PLAZA</p>", "conditions": [18, 1200, "v", 18000], "internal_node_id": "0.0-21.0", "trial": 0, "time_elapsed": 372492, "serialpos": 9, "key_press": -1, "wordID": 1087, "type": "PRES_VIS", "trial_index": 30}, "uniqueid": "MTK2259:3PPTZCWALRRP6IW1UQ6BH0E92XJZQM", "dateTime": 1516910306696}, {"current_trial": 31, "trialdata": {"rt": -1, "trial_type": "single-stim", "word": "burglar", "stimulus": "<p id=\"stim\">BURGLAR</p>", "conditions": [18, 1200, "v", 18000], "internal_node_id": "0.0-22.0", "trial": 0, "time_elapsed": 374575, "serialpos": 10, "key_press": -1, "wordID": 199, "type": "PRES_VIS", "trial_index": 31}, "uniqueid": "MTK2259:3PPTZCWALRRP6IW1UQ6BH0E92XJZQM", "dateTime": 1516910308779}, {"current_trial": 32, "trialdata": {"rt": -1, "trial_type": "single-stim", "word": "crutch", "stimulus": "<p id=\"stim\">CRUTCH</p>", "conditions": [18, 1200, "v", 18000], "internal_node_id": "0.0-23.0", "trial": 0, "time_elapsed": 376843, "serialpos": 11, "key_press": -1, "wordID": 416, "type": "PRES_VIS", "trial_index": 32}, "uniqueid": "MTK2259:3PPTZCWALRRP6IW1UQ6BH0E92XJZQM", "dateTime": 1516910311047}, {"current_trial": 33, "trialdata": {"rt": -1, "trial_type": "single-stim", "word": "record", "stimulus": "<p id=\"stim\">RECORD</p>", "conditions": [18, 1200, "v", 18000], "internal_node_id": "0.0-24.0", "trial": 0, "time_elapsed": 379153, "serialpos": 12, "key_press": -1, "wordID": 1175, "type": "PRES_VIS", "trial_index": 33}, "uniqueid": "MTK2259:3PPTZCWALRRP6IW1UQ6BH0E92XJZQM", "dateTime": 1516910313357}, {"current_trial": 34, "trialdata": {"rt": -1, "trial_type": "single-stim", "word": "tuba", "stimulus": "<p id=\"stim\">TUBA</p>", "conditions": [18, 1200, "v", 18000], "internal_node_id": "0.0-25.0", "trial": 0, "time_elapsed": 381430, "serialpos": 13, "key_press": -1, "wordID": 1514, "type": "PRES_VIS", "trial_index": 34}, "uniqueid": "MTK2259:3PPTZCWALRRP6IW1UQ6BH0E92XJZQM", "dateTime": 1516910315634}, {"current_trial": 35, "trialdata": {"rt": -1, "trial_type": "single-stim", "word": "canyon", "stimulus": "<p id=\"stim\">CANYON</p>", "conditions": [18, 1200, "v", 18000], "internal_node_id": "0.0-26.0", "trial": 0, "time_elapsed": 383638, "serialpos": 14, "key_press": -1, "wordID": 234, "type": "PRES_VIS", "trial_index": 35}, "uniqueid": "MTK2259:3PPTZCWALRRP6IW1UQ6BH0E92XJZQM", "dateTime": 1516910317842}, {"current_trial": 36, "trialdata": {"rt": -1, "trial_type": "single-stim", "word": "lettuce", "stimulus": "<p id=\"stim\">LETTUCE</p>", "conditions": [18, 1200, "v", 18000], "internal_node_id": "0.0-27.0", "trial": 0, "time_elapsed": 385981, "serialpos": 15, "key_press": -1, "wordID": 813, "type": "PRES_VIS", "trial_index": 36}, "uniqueid": "MTK2259:3PPTZCWALRRP6IW1UQ6BH0E92XJZQM", "dateTime": 1516910320185}, {"current_trial": 37, "trialdata": {"rt": -1, "trial_type": "single-stim", "word": "basement", "stimulus": "<p id=\"stim\">BASEMENT</p>", "conditions": [18, 1200, "v", 18000], "internal_node_id": "0.0-28.0", "trial": 0, "time_elapsed": 388231, "serialpos": 16, "key_press": -1, "wordID": 93, "type": "PRES_VIS", "trial_index": 37}, "uniqueid": "MTK2259:3PPTZCWALRRP6IW1UQ6BH0E92XJZQM", "dateTime": 1516910322435}, {"current_trial": 38, "trialdata": {"rt": -1, "trial_type": "single-stim", "word": "sparrow", "stimulus": "<p id=\"stim\">SPARROW</p>", "conditions": [18, 1200, "v", 18000], "internal_node_id": "0.0-29.0", "trial": 0, "time_elapsed": 390399, "serialpos": 17, "key_press": -1, "wordID": 1346, "type": "PRES_VIS", "trial_index": 38}, "uniqueid": "MTK2259:3PPTZCWALRRP6IW1UQ6BH0E92XJZQM", "dateTime": 1516910324603}, {"current_trial": 39, "trialdata": {"rt": -1, "trial_type": "single-stim", "stimulus": "", "internal_node_id": "0.0-30.0-0.0", "time_elapsed": 392420, "key_press": -1, "type": "PRE_RECALL_DELAY", "trial_index": 39}, "uniqueid": "MTK2259:3PPTZCWALRRP6IW1UQ6BH0E92XJZQM", "dateTime": 1516910326624}, {"current_trial": 40, "trialdata": {"rt": -1000, "trial_type": "single-audio", "stimulus": "/static/audio/400Hz.wav", "internal_node_id": "0.0-31.0", "time_elapsed": 392922, "key_press": -1, "type": "PRE_RECALL_ALERT", "trial_index": 40}, "uniqueid": "MTK2259:3PPTZCWALRRP6IW1UQ6BH0E92XJZQM", "dateTime": 1516910327126}, {"current_trial": 41, "trialdata": {"rt": [6416, 8498, 12513, 15148, 16897, 18931, 24961, 32542, 51327], "recwords": ["swamp", "sibling", "lettuce", "basement", "parent", "canyon", "tuba", "basement", "playground"], "key_times": [5086, 5319, 5448, 5677, 5938, 6416, 6896, 7183, 7333, 7515, 7681, 7834, 7920, 8498, 11240, 11320, 11526, 11729, 11885, 12060, 12250, 12513, 12742, 12947, 13115, 13406, 13885, 14070, 14461, 14598, 15148, 15642, 15734, 15836, 16302, 16416, 16529, 16897, 17851, 18022, 18128, 18357, 18466, 18632, 18931, 24300, 24479, 24600, 24718, 24961, 31069, 31230, 31410, 31609, 31793, 31947, 32102, 32202, 32542, 48487, 48641, 48853, 49042, 49305, 49527, 49652, 50102, 50350, 50480, 50557, 50676, 51005, 51131, 51327], "trial_type": "free-recall", "conditions": [18, 1200, "v", 18000], "internal_node_id": "0.0-32.0-0.0", "key_presses": [83, 87, 65, 77, 80, 13, 83, 73, 66, 76, 73, 78, 71, 13, 76, 69, 84, 84, 85, 67, 69, 13, 66, 65, 83, 69, 77, 69, 78, 84, 13, 80, 65, 82, 69, 78, 84, 13, 67, 65, 78, 89, 79, 78, 13, 84, 85, 66, 65, 13, 66, 65, 83, 69, 77, 69, 78, 84, 13, 80, 76, 65, 89, 71, 79, 85, 8, 8, 82, 79, 85, 78, 68, 13], "trial": 0, "time_elapsed": 452939, "type": "FREE_RECALL", "trial_index": 41}, "uniqueid": "MTK2259:3PPTZCWALRRP6IW1UQ6BH0E92XJZQM", "dateTime": 1516910387159}, {"current_trial": 42, "trialdata": {"rt": 2461, "trial_type": "text", "internal_node_id": "0.0-33.0", "time_elapsed": 457417, "key_press": 32, "type": "INSTRUCTIONS", "trial_index": 42}, "uniqueid": "MTK2259:3PPTZCWALRRP6IW1UQ6BH0E92XJZQM", "dateTime": 1516910391621}, {"current_trial": 43, "trialdata": {"rt": [5249, 8363, 11264, 13428, 16834], "trial_type": "math-distractor", "key_times": [4488, 4620, 5249, 7986, 8124, 8363, 10841, 11050, 11264, 12972, 13163, 13428, 16435, 16636, 16834], "responses": ["15", "15", "17", "16", "15"], "num2": [6, 2, 5, 6, 5, 8], "num3": [7, 6, 6, 9, 3, 4], "conditions": [18, 1200, "v", 18000], "internal_node_id": "0.0-34.0", "key_presses": [97, 101, 13, 97, 101, 13, 97, 103, 13, 97, 102, 13, 97, 101, 13], "trial": 1, "time_elapsed": 477440, "type": "DISTRACTOR", "trial_index": 43, "num1": [2, 7, 6, 1, 7, 6]}, "uniqueid": "MTK2259:3PPTZCWALRRP6IW1UQ6BH0E92XJZQM", "dateTime": 1516910411645}, {"current_trial": 44, "trialdata": {"rt": -1, "trial_type": "single-stim", "stimulus": "<p id=\"stim\">10</p>", "internal_node_id": "0.0-35.0-0.0", "time_elapsed": 480460, "key_press": -1, "trial_index": 44}, "uniqueid": "MTK2259:3PPTZCWALRRP6IW1UQ6BH0E92XJZQM", "dateTime": 1516910414664}, {"current_trial": 45, "trialdata": {"rt": -1, "trial_type": "single-stim", "stimulus": "<p id=\"stim\">9</p>", "internal_node_id": "0.0-35.0-1.0", "time_elapsed": 481470, "key_press": -1, "trial_index": 45}, "uniqueid": "MTK2259:3PPTZCWALRRP6IW1UQ6BH0E92XJZQM", "dateTime": 1516910415674}, {"current_trial": 46, "trialdata": {"rt": -1, "trial_type": "single-stim", "stimulus": "<p id=\"stim\">8</p>", "internal_node_id": "0.0-35.0-2.0", "time_elapsed": 482480, "key_press": -1, "trial_index": 46}, "uniqueid": "MTK2259:3PPTZCWALRRP6IW1UQ6BH0E92XJZQM", "dateTime": 1516910416684}, {"current_trial": 47, "trialdata": {"rt": -1, "trial_type": "single-stim", "stimulus": "<p id=\"stim\">7</p>", "internal_node_id": "0.0-35.0-3.0", "time_elapsed": 483480, "key_press": -1, "trial_index": 47}, "uniqueid": "MTK2259:3PPTZCWALRRP6IW1UQ6BH0E92XJZQM", "dateTime": 1516910417684}, {"current_trial": 48, "trialdata": {"rt": -1, "trial_type": "single-stim", "stimulus": "<p id=\"stim\">6</p>", "internal_node_id": "0.0-35.0-4.0", "time_elapsed": 484494, "key_press": -1, "trial_index": 48}, "uniqueid": "MTK2259:3PPTZCWALRRP6IW1UQ6BH0E92XJZQM", "dateTime": 1516910418698}, {"current_trial": 49, "trialdata": {"rt": -1, "trial_type": "single-stim", "stimulus": "<p id=\"stim\">5</p>", "internal_node_id": "0.0-35.0-5.0", "time_elapsed": 485496, "key_press": -1, "trial_index": 49}, "uniqueid": "MTK2259:3PPTZCWALRRP6IW1UQ6BH0E92XJZQM", "dateTime": 1516910419700}, {"current_trial": 50, "trialdata": {"rt": -1, "trial_type": "single-stim", "stimulus": "<p id=\"stim\">4</p>", "internal_node_id": "0.0-35.0-6.0", "time_elapsed": 486509, "key_press": -1, "trial_index": 50}, "uniqueid": "MTK2259:3PPTZCWALRRP6IW1UQ6BH0E92XJZQM", "dateTime": 1516910420713}, {"current_trial": 51, "trialdata": {"rt": -1, "trial_type": "single-stim", "stimulus": "<p id=\"stim\">3</p>", "internal_node_id": "0.0-35.0-7.0", "time_elapsed": 487519, "key_press": -1, "trial_index": 51}, "uniqueid": "MTK2259:3PPTZCWALRRP6IW1UQ6BH0E92XJZQM", "dateTime": 1516910421723}, {"current_trial": 52, "trialdata": {"rt": -1, "trial_type": "single-stim", "stimulus": "<p id=\"stim\">2</p>", "internal_node_id": "0.0-35.0-8.0", "time_elapsed": 488527, "key_press": -1, "trial_index": 52}, "uniqueid": "MTK2259:3PPTZCWALRRP6IW1UQ6BH0E92XJZQM", "dateTime": 1516910422731}, {"current_trial": 53, "trialdata": {"rt": -1, "trial_type": "single-stim", "stimulus": "<p id=\"stim\">1</p>", "internal_node_id": "0.0-35.0-9.0", "time_elapsed": 489538, "key_press": -1, "trial_index": 53}, "uniqueid": "MTK2259:3PPTZCWALRRP6IW1UQ6BH0E92XJZQM", "dateTime": 1516910423742}, {"current_trial": 54, "trialdata": {"rt": -1, "trial_type": "single-stim", "stimulus": "<p id=\"stim\">+</p>", "internal_node_id": "0.0-36.0-0.0", "time_elapsed": 491042, "key_press": -1, "type": "FIXATION", "trial_index": 54}, "uniqueid": "MTK2259:3PPTZCWALRRP6IW1UQ6BH0E92XJZQM", "dateTime": 1516910425246}, {"current_trial": 55, "trialdata": {"rt": -1, "trial_type": "single-stim", "word": "journal", "stimulus": "<p id=\"stim\">JOURNAL</p>", "conditions": [18, 1200, "v", 18000], "internal_node_id": "0.0-37.0", "trial": 1, "time_elapsed": 492245, "serialpos": 0, "key_press": -1, "wordID": 759, "type": "PRES_VIS", "trial_index": 55}, "uniqueid": "MTK2259:3PPTZCWALRRP6IW1UQ6BH0E92XJZQM", "dateTime": 1516910426449}, {"current_trial": 56, "trialdata": {"rt": -1, "trial_type": "single-stim", "word": "jelly", "stimulus": "<p id=\"stim\">JELLY</p>", "conditions": [18, 1200, "v", 18000], "internal_node_id": "0.0-38.0", "trial": 1, "time_elapsed": 494339, "serialpos": 1, "key_press": -1, "wordID": 754, "type": "PRES_VIS", "trial_index": 56}, "uniqueid": "MTK2259:3PPTZCWALRRP6IW1UQ6BH0E92XJZQM", "dateTime": 1516910428543}, {"current_trial": 57, "trialdata": {"rt": -1, "trial_type": "single-stim", "word": "bug", "stimulus": "<p id=\"stim\">BUG</p>", "conditions": [18, 1200, "v", 18000], "internal_node_id": "0.0-39.0", "trial": 1, "time_elapsed": 496769, "serialpos": 2, "key_press": -1, "wordID": 186, "type": "PRES_VIS", "trial_index": 57}, "uniqueid": "MTK2259:3PPTZCWALRRP6IW1UQ6BH0E92XJZQM", "dateTime": 1516910430973}, {"current_trial": 58, "trialdata": {"rt": -1, "trial_type": "single-stim", "word": "ketchup", "stimulus": "<p id=\"stim\">KETCHUP</p>", "conditions": [18, 1200, "v", 18000], "internal_node_id": "0.0-40.0", "trial": 1, "time_elapsed": 499042, "serialpos": 3, "key_press": -1, "wordID": 770, "type": "PRES_VIS", "trial_index": 58}, "uniqueid": "MTK2259:3PPTZCWALRRP6IW1UQ6BH0E92XJZQM", "dateTime": 1516910433246}, {"current_trial": 59, "trialdata": {"rt": -1, "trial_type": "single-stim", "word": "leg", "stimulus": "<p id=\"stim\">LEG</p>", "conditions": [18, 1200, "v", 18000], "internal_node_id": "0.0-41.0", "trial": 1, "time_elapsed": 501073, "serialpos": 4, "key_press": -1, "wordID": 808, "type": "PRES_VIS", "trial_index": 59}, "uniqueid": "MTK2259:3PPTZCWALRRP6IW1UQ6BH0E92XJZQM", "dateTime": 1516910435277}, {"current_trial": 60, "trialdata": {"rt": -1, "trial_type": "single-stim", "word": "buggy", "stimulus": "<p id=\"stim\">BUGGY</p>", "conditions": [18, 1200, "v", 18000], "internal_node_id": "0.0-42.0", "trial": 1, "time_elapsed": 503293, "serialpos": 5, "key_press": -1, "wordID": 187, "type": "PRES_VIS", "trial_index": 60}, "uniqueid": "MTK2259:3PPTZCWALRRP6IW1UQ6BH0E92XJZQM", "dateTime": 1516910437497}, {"current_trial": 61, "trialdata": {"rt": -1, "trial_type": "single-stim", "word": "proton", "stimulus": "<p id=\"stim\">PROTON</p>", "conditions": [18, 1200, "v", 18000], "internal_node_id": "0.0-43.0", "trial": 1, "time_elapsed": 505618, "serialpos": 6, "key_press": -1, "wordID": 1131, "type": "PRES_VIS", "trial_index": 61}, "uniqueid": "MTK2259:3PPTZCWALRRP6IW1UQ6BH0E92XJZQM", "dateTime": 1516910439822}, {"current_trial": 62, "trialdata": {"rt": -1, "trial_type": "single-stim", "word": "milk", "stimulus": "<p id=\"stim\">MILK</p>", "conditions": [18, 1200, "v", 18000], "internal_node_id": "0.0-44.0", "trial": 1, "time_elapsed": 507967, "serialpos": 7, "key_press": -1, "wordID": 894, "type": "PRES_VIS", "trial_index": 62}, "uniqueid": "MTK2259:3PPTZCWALRRP6IW1UQ6BH0E92XJZQM", "dateTime": 1516910442171}, {"current_trial": 63, "trialdata": {"rt": -1, "trial_type": "single-stim", "word": "novel", "stimulus": "<p id=\"stim\">NOVEL</p>", "conditions": [18, 1200, "v", 18000], "internal_node_id": "0.0-45.0", "trial": 1, "time_elapsed": 510358, "serialpos": 8, "key_press": -1, "wordID": 959, "type": "PRES_VIS", "trial_index": 63}, "uniqueid": "MTK2259:3PPTZCWALRRP6IW1UQ6BH0E92XJZQM", "dateTime": 1516910444562}, {"current_trial": 64, "trialdata": {"rt": -1, "trial_type": "single-stim", "word": "washer", "stimulus": "<p id=\"stim\">WASHER</p>", "conditions": [18, 1200, "v", 18000], "internal_node_id": "0.0-46.0", "trial": 1, "time_elapsed": 512756, "serialpos": 9, "key_press": -1, "wordID": 1591, "type": "PRES_VIS", "trial_index": 64}, "uniqueid": "MTK2259:3PPTZCWALRRP6IW1UQ6BH0E92XJZQM", "dateTime": 1516910446960}, {"current_trial": 65, "trialdata": {"rt": -1, "trial_type": "single-stim", "word": "dandruff", "stimulus": "<p id=\"stim\">DANDRUFF</p>", "conditions": [18, 1200, "v", 18000], "internal_node_id": "0.0-47.0", "trial": 1, "time_elapsed": 515109, "serialpos": 10, "key_press": -1, "wordID": 438, "type": "PRES_VIS", "trial_index": 65}, "uniqueid": "MTK2259:3PPTZCWALRRP6IW1UQ6BH0E92XJZQM", "dateTime": 1516910449313}, {"current_trial": 66, "trialdata": {"rt": -1, "trial_type": "single-stim", "word": "hornet", "stimulus": "<p id=\"stim\">HORNET</p>", "conditions": [18, 1200, "v", 18000], "internal_node_id": "0.0-48.0", "trial": 1, "time_elapsed": 517349, "serialpos": 11, "key_press": -1, "wordID": 717, "type": "PRES_VIS", "trial_index": 66}, "uniqueid": "MTK2259:3PPTZCWALRRP6IW1UQ6BH0E92XJZQM", "dateTime": 1516910451553}, {"current_trial": 67, "trialdata": {"rt": -1, "trial_type": "single-stim", "word": "flask", "stimulus": "<p id=\"stim\">FLASK</p>", "conditions": [18, 1200, "v", 18000], "internal_node_id": "0.0-49.0", "trial": 1, "time_elapsed": 519624, "serialpos": 12, "key_press": -1, "wordID": 575, "type": "PRES_VIS", "trial_index": 67}, "uniqueid": "MTK2259:3PPTZCWALRRP6IW1UQ6BH0E92XJZQM", "dateTime": 1516910453828}, {"current_trial": 68, "trialdata": {"rt": -1, "trial_type": "single-stim", "word": "casket", "stimulus": "<p id=\"stim\">CASKET</p>", "conditions": [18, 1200, "v", 18000], "internal_node_id": "0.0-50.0", "trial": 1, "time_elapsed": 521848, "serialpos": 13, "key_press": -1, "wordID": 254, "type": "PRES_VIS", "trial_index": 68}, "uniqueid": "MTK2259:3PPTZCWALRRP6IW1UQ6BH0E92XJZQM", "dateTime": 1516910456052}, {"current_trial": 69, "trialdata": {"rt": -1, "trial_type": "single-stim", "word": "human", "stimulus": "<p id=\"stim\">HUMAN</p>", "conditions": [18, 1200, "v", 18000], "internal_node_id": "0.0-51.0", "trial": 1, "time_elapsed": 524047, "serialpos": 14, "key_press": -1, "wordID": 725, "type": "PRES_VIS", "trial_index": 69}, "uniqueid": "MTK2259:3PPTZCWALRRP6IW1UQ6BH0E92XJZQM", "dateTime": 1516910458251}, {"current_trial": 70, "trialdata": {"rt": -1, "trial_type": "single-stim", "word": "grave", "stimulus": "<p id=\"stim\">GRAVE</p>", "conditions": [18, 1200, "v", 18000], "internal_node_id": "0.0-52.0", "trial": 1, "time_elapsed": 526317, "serialpos": 15, "key_press": -1, "wordID": 657, "type": "PRES_VIS", "trial_index": 70}, "uniqueid": "MTK2259:3PPTZCWALRRP6IW1UQ6BH0E92XJZQM", "dateTime": 1516910460521}, {"current_trial": 71, "trialdata": {"rt": -1, "trial_type": "single-stim", "word": "box", "stimulus": "<p id=\"stim\">BOX</p>", "conditions": [18, 1200, "v", 18000], "internal_node_id": "0.0-53.0", "trial": 1, "time_elapsed": 528640, "serialpos": 16, "key_press": -1, "wordID": 158, "type": "PRES_VIS", "trial_index": 71}, "uniqueid": "MTK2259:3PPTZCWALRRP6IW1UQ6BH0E92XJZQM", "dateTime": 1516910462844}, {"current_trial": 72, "trialdata": {"rt": -1, "trial_type": "single-stim", "word": "subway", "stimulus": "<p id=\"stim\">SUBWAY</p>", "conditions": [18, 1200, "v", 18000], "internal_node_id": "0.0-54.0", "trial": 1, "time_elapsed": 530802, "serialpos": 17, "key_press": -1, "wordID": 1399, "type": "PRES_VIS", "trial_index": 72}, "uniqueid": "MTK2259:3PPTZCWALRRP6IW1UQ6BH0E92XJZQM", "dateTime": 1516910465006}, {"current_trial": 73, "trialdata": {"rt": -1, "trial_type": "single-stim", "stimulus": "", "internal_node_id": "0.0-55.0-0.0", "time_elapsed": 533031, "key_press": -1, "type": "PRE_RECALL_DELAY", "trial_index": 73}, "uniqueid": "MTK2259:3PPTZCWALRRP6IW1UQ6BH0E92XJZQM", "dateTime": 1516910467235}, {"current_trial": 74, "trialdata": {"rt": -1000, "trial_type": "single-audio", "stimulus": "/static/audio/400Hz.wav", "internal_node_id": "0.0-56.0", "time_elapsed": 533545, "key_press": -1, "type": "PRE_RECALL_ALERT", "trial_index": 74}, "uniqueid": "MTK2259:3PPTZCWALRRP6IW1UQ6BH0E92XJZQM", "dateTime": 1516910467749}, {"current_trial": 75, "trialdata": {"rt": [2255, 3765, 5454, 7676, 10600, 19066, 21376, 23561, 33501, 35549], "recwords": ["subway", "casket", "gravae", "box", "human", "subway", "bug", "ketchup", "buggy", "hornet"], "key_times": [733, 1041, 1184, 1551, 1686, 1944, 2255, 2517, 2699, 2908, 3333, 3422, 3551, 3765, 3980, 4267, 4770, 4838, 5000, 5168, 5238, 5335, 5454, 7046, 7255, 7422, 7676, 9668, 9866, 10112, 10235, 10380, 10600, 11676, 11801, 11904, 14121, 14418, 14454, 14490, 16759, 16900, 17082, 17316, 17469, 17936, 18141, 18301, 18452, 18618, 19066, 20925, 21018, 21168, 21376, 21673, 22203, 22363, 22610, 22802, 23045, 23198, 23561, 30766, 30853, 31108, 31352, 31766, 31980, 32184, 32350, 32580, 32701, 32868, 33067, 33249, 33501, 34626, 34734, 34869, 35033, 35184, 35366, 35549], "trial_type": "free-recall", "conditions": [18, 1200, "v", 18000], "internal_node_id": "0.0-57.0-0.0", "key_presses": [83, 85, 66, 87, 65, 89, 13, 67, 65, 83, 75, 69, 84, 13, 71, 70, 8, 82, 65, 86, 65, 69, 32, 66, 79, 88, 13, 72, 85, 77, 65, 78, 13, 83, 85, 66, 8, 8, 8, 8, 83, 85, 66, 69, 65, 8, 8, 87, 65, 89, 13, 66, 85, 71, 13, 75, 69, 84, 67, 72, 85, 80, 13, 85, 66, 71, 71, 8, 8, 8, 8, 66, 85, 71, 71, 89, 13, 72, 79, 82, 78, 69, 84, 13], "trial": 1, "time_elapsed": 593548, "type": "FREE_RECALL", "trial_index": 75}, "uniqueid": "MTK2259:3PPTZCWALRRP6IW1UQ6BH0E92XJZQM", "dateTime": 1516910527766}, {"current_trial": 76, "trialdata": {"rt": 5990, "trial_type": "text", "internal_node_id": "0.0-58.0", "time_elapsed": 601558, "key_press": 32, "type": "INSTRUCTIONS", "trial_index": 76}, "uniqueid": "MTK2259:3PPTZCWALRRP6IW1UQ6BH0E92XJZQM", "dateTime": 1516910535762}, {"current_trial": 77, "trialdata": {"rt": [3896, 6469, 8664, 12591, 15673, 20203, 22205], "trial_type": "math-distractor", "key_times": [3436, 3649, 3896, 6113, 6271, 6469, 8294, 8467, 8664, 12265, 12394, 12591, 15319, 15453, 15673, 19705, 19897, 20203, 21792, 21963, 22205], "responses": ["21", "20", "11", "20", "11", "18", "13"], "num2": [8, 3, 2, 8, 2, 9, 1, 7], "num3": [4, 9, 4, 5, 3, 5, 9, 4], "conditions": [24, 800, "v", 24000], "internal_node_id": "0.0-59.0", "key_presses": [98, 97, 13, 98, 96, 13, 97, 97, 13, 98, 96, 13, 97, 97, 13, 97, 104, 13, 97, 99, 13], "trial": 2, "time_elapsed": 626562, "type": "DISTRACTOR", "trial_index": 77, "num1": [9, 8, 5, 7, 6, 4, 3, 4]}, "uniqueid": "MTK2259:3PPTZCWALRRP6IW1UQ6BH0E92XJZQM", "dateTime": 1516910560766}, {"current_trial": 78, "trialdata": {"rt": -1, "trial_type": "single-stim", "stimulus": "<p id=\"stim\">10</p>", "internal_node_id": "0.0-60.0-0.0", "time_elapsed": 629572, "key_press": -1, "trial_index": 78}, "uniqueid": "MTK2259:3PPTZCWALRRP6IW1UQ6BH0E92XJZQM", "dateTime": 1516910563776}, {"current_trial": 79, "trialdata": {"rt": -1, "trial_type": "single-stim", "stimulus": "<p id=\"stim\">9</p>", "internal_node_id": "0.0-60.0-1.0", "time_elapsed": 630582, "key_press": -1, "trial_index": 79}, "uniqueid": "MTK2259:3PPTZCWALRRP6IW1UQ6BH0E92XJZQM", "dateTime": 1516910564786}, {"current_trial": 80, "trialdata": {"rt": -1, "trial_type": "single-stim", "stimulus": "<p id=\"stim\">8</p>", "internal_node_id": "0.0-60.0-2.0", "time_elapsed": 631592, "key_press": -1, "trial_index": 80}, "uniqueid": "MTK2259:3PPTZCWALRRP6IW1UQ6BH0E92XJZQM", "dateTime": 1516910565796}, {"current_trial": 81, "trialdata": {"rt": -1, "trial_type": "single-stim", "stimulus": "<p id=\"stim\">7</p>", "internal_node_id": "0.0-60.0-3.0", "time_elapsed": 632600, "key_press": -1, "trial_index": 81}, "uniqueid": "MTK2259:3PPTZCWALRRP6IW1UQ6BH0E92XJZQM", "dateTime": 1516910566804}, {"current_trial": 82, "trialdata": {"rt": -1, "trial_type": "single-stim", "stimulus": "<p id=\"stim\">6</p>", "internal_node_id": "0.0-60.0-4.0", "time_elapsed": 633611, "key_press": -1, "trial_index": 82}, "uniqueid": "MTK2259:3PPTZCWALRRP6IW1UQ6BH0E92XJZQM", "dateTime": 1516910567815}, {"current_trial": 83, "trialdata": {"rt": -1, "trial_type": "single-stim", "stimulus": "<p id=\"stim\">5</p>", "internal_node_id": "0.0-60.0-5.0", "time_elapsed": 634622, "key_press": -1, "trial_index": 83}, "uniqueid": "MTK2259:3PPTZCWALRRP6IW1UQ6BH0E92XJZQM", "dateTime": 1516910568826}, {"current_trial": 84, "trialdata": {"rt": -1, "trial_type": "single-stim", "stimulus": "<p id=\"stim\">4</p>", "internal_node_id": "0.0-60.0-6.0", "time_elapsed": 635630, "key_press": -1, "trial_index": 84}, "uniqueid": "MTK2259:3PPTZCWALRRP6IW1UQ6BH0E92XJZQM", "dateTime": 1516910569834}, {"current_trial": 85, "trialdata": {"rt": -1, "trial_type": "single-stim", "stimulus": "<p id=\"stim\">3</p>", "internal_node_id": "0.0-60.0-7.0", "time_elapsed": 636632, "key_press": -1, "trial_index": 85}, "uniqueid": "MTK2259:3PPTZCWALRRP6IW1UQ6BH0E92XJZQM", "dateTime": 1516910570836}, {"current_trial": 86, "trialdata": {"rt": -1, "trial_type": "single-stim", "stimulus": "<p id=\"stim\">2</p>", "internal_node_id": "0.0-60.0-8.0", "time_elapsed": 637633, "key_press": -1, "trial_index": 86}, "uniqueid": "MTK2259:3PPTZCWALRRP6IW1UQ6BH0E92XJZQM", "dateTime": 1516910571837}, {"current_trial": 87, "trialdata": {"rt": -1, "trial_type": "single-stim", "stimulus": "<p id=\"stim\">1</p>", "internal_node_id": "0.0-60.0-9.0", "time_elapsed": 638636, "key_press": -1, "trial_index": 87}, "uniqueid": "MTK2259:3PPTZCWALRRP6IW1UQ6BH0E92XJZQM", "dateTime": 1516910572840}, {"current_trial": 88, "trialdata": {"rt": -1, "trial_type": "single-stim", "stimulus": "<p id=\"stim\">+</p>", "internal_node_id": "0.0-61.0-0.0", "time_elapsed": 640145, "key_press": -1, "type": "FIXATION", "trial_index": 88}, "uniqueid": "MTK2259:3PPTZCWALRRP6IW1UQ6BH0E92XJZQM", "dateTime": 1516910574349}, {"current_trial": 89, "trialdata": {"rt": -1, "trial_type": "single-stim", "word": "drill", "stimulus": "<p id=\"stim\">DRILL</p>", "conditions": [24, 800, "v", 24000], "internal_node_id": "0.0-62.0", "trial": 2, "time_elapsed": 640945, "serialpos": 0, "key_press": -1, "wordID": 496, "type": "PRES_VIS", "trial_index": 89}, "uniqueid": "MTK2259:3PPTZCWALRRP6IW1UQ6BH0E92XJZQM", "dateTime": 1516910575150}, {"current_trial": 90, "trialdata": {"rt": -1, "trial_type": "single-stim", "word": "ankle", "stimulus": "<p id=\"stim\">ANKLE</p>", "conditions": [24, 800, "v", 24000], "internal_node_id": "0.0-63.0", "trial": 2, "time_elapsed": 642689, "serialpos": 1, "key_press": -1, "wordID": 23, "type": "PRES_VIS", "trial_index": 90}, "uniqueid": "MTK2259:3PPTZCWALRRP6IW1UQ6BH0E92XJZQM", "dateTime": 1516910576893}, {"current_trial": 91, "trialdata": {"rt": -1, "trial_type": "single-stim", "word": "actor", "stimulus": "<p id=\"stim\">ACTOR</p>", "conditions": [24, 800, "v", 24000], "internal_node_id": "0.0-64.0", "trial": 2, "time_elapsed": 644646, "serialpos": 2, "key_press": -1, "wordID": 4, "type": "PRES_VIS", "trial_index": 91}, "uniqueid": "MTK2259:3PPTZCWALRRP6IW1UQ6BH0E92XJZQM", "dateTime": 1516910578850}, {"current_trial": 92, "trialdata": {"rt": -1, "trial_type": "single-stim", "word": "actress", "stimulus": "<p id=\"stim\">ACTRESS</p>", "conditions": [24, 800, "v", 24000], "internal_node_id": "0.0-65.0", "trial": 2, "time_elapsed": 646425, "serialpos": 3, "key_press": -1, "wordID": 5, "type": "PRES_VIS", "trial_index": 92}, "uniqueid": "MTK2259:3PPTZCWALRRP6IW1UQ6BH0E92XJZQM", "dateTime": 1516910580630}, {"current_trial": 93, "trialdata": {"rt": -1, "trial_type": "single-stim", "word": "gymnast", "stimulus": "<p id=\"stim\">GYMNAST</p>", "conditions": [24, 800, "v", 24000], "internal_node_id": "0.0-66.0", "trial": 2, "time_elapsed": 648241, "serialpos": 4, "key_press": -1, "wordID": 674, "type": "PRES_VIS", "trial_index": 93}, "uniqueid": "MTK2259:3PPTZCWALRRP6IW1UQ6BH0E92XJZQM", "dateTime": 1516910582445}, {"current_trial": 94, "trialdata": {"rt": -1, "trial_type": "single-stim", "word": "mildew", "stimulus": "<p id=\"stim\">MILDEW</p>", "conditions": [24, 800, "v", 24000], "internal_node_id": "0.0-67.0", "trial": 2, "time_elapsed": 650038, "serialpos": 5, "key_press": -1, "wordID": 892, "type": "PRES_VIS", "trial_index": 94}, "uniqueid": "MTK2259:3PPTZCWALRRP6IW1UQ6BH0E92XJZQM", "dateTime": 1516910584242}, {"current_trial": 95, "trialdata": {"rt": -1, "trial_type": "single-stim", "word": "package", "stimulus": "<p id=\"stim\">PACKAGE</p>", "conditions": [24, 800, "v", 24000], "internal_node_id": "0.0-68.0", "trial": 2, "time_elapsed": 651988, "serialpos": 6, "key_press": -1, "wordID": 996, "type": "PRES_VIS", "trial_index": 95}, "uniqueid": "MTK2259:3PPTZCWALRRP6IW1UQ6BH0E92XJZQM", "dateTime": 1516910586192}, {"current_trial": 96, "trialdata": {"rt": -1, "trial_type": "single-stim", "word": "luggage", "stimulus": "<p id=\"stim\">LUGGAGE</p>", "conditions": [24, 800, "v", 24000], "internal_node_id": "0.0-69.0", "trial": 2, "time_elapsed": 653741, "serialpos": 7, "key_press": -1, "wordID": 846, "type": "PRES_VIS", "trial_index": 96}, "uniqueid": "MTK2259:3PPTZCWALRRP6IW1UQ6BH0E92XJZQM", "dateTime": 1516910587945}, {"current_trial": 97, "trialdata": {"rt": -1, "trial_type": "single-stim", "word": "perfume", "stimulus": "<p id=\"stim\">PERFUME</p>", "conditions": [24, 800, "v", 24000], "internal_node_id": "0.0-70.0", "trial": 2, "time_elapsed": 655441, "serialpos": 8, "key_press": -1, "wordID": 1048, "type": "PRES_VIS", "trial_index": 97}, "uniqueid": "MTK2259:3PPTZCWALRRP6IW1UQ6BH0E92XJZQM", "dateTime": 1516910589645}, {"current_trial": 98, "trialdata": {"rt": -1, "trial_type": "single-stim", "word": "seagull", "stimulus": "<p id=\"stim\">SEAGULL</p>", "conditions": [24, 800, "v", 24000], "internal_node_id": "0.0-71.0", "trial": 2, "time_elapsed": 657394, "serialpos": 9, "key_press": -1, "wordID": 1260, "type": "PRES_VIS", "trial_index": 98}, "uniqueid": "MTK2259:3PPTZCWALRRP6IW1UQ6BH0E92XJZQM", "dateTime": 1516910591598}, {"current_trial": 99, "trialdata": {"rt": -1, "trial_type": "single-stim", "word": "fungus", "stimulus": "<p id=\"stim\">FUNGUS</p>", "conditions": [24, 800, "v", 24000], "internal_node_id": "0.0-72.0", "trial": 2, "time_elapsed": 659365, "serialpos": 10, "key_press": -1, "wordID": 613, "type": "PRES_VIS", "trial_index": 99}, "uniqueid": "MTK2259:3PPTZCWALRRP6IW1UQ6BH0E92XJZQM", "dateTime": 1516910593569}, {"current_trial": 100, "trialdata": {"rt": -1, "trial_type": "single-stim", "word": "smog", "stimulus": "<p id=\"stim\">SMOG</p>", "conditions": [24, 800, "v", 24000], "internal_node_id": "0.0-73.0", "trial": 2, "time_elapsed": 661168, "serialpos": 11, "key_press": -1, "wordID": 1329, "type": "PRES_VIS", "trial_index": 100}, "uniqueid": "MTK2259:3PPTZCWALRRP6IW1UQ6BH0E92XJZQM", "dateTime": 1516910595372}, {"current_trial": 101, "trialdata": {"rt": -1, "trial_type": "single-stim", "word": "thief", "stimulus": "<p id=\"stim\">THIEF</p>", "conditions": [24, 800, "v", 24000], "internal_node_id": "0.0-74.0", "trial": 2, "time_elapsed": 662960, "serialpos": 12, "key_press": -1, "wordID": 1455, "type": "PRES_VIS", "trial_index": 101}, "uniqueid": "MTK2259:3PPTZCWALRRP6IW1UQ6BH0E92XJZQM", "dateTime": 1516910597165}, {"current_trial": 102, "trialdata": {"rt": -1, "trial_type": "single-stim", "word": "wardrobe", "stimulus": "<p id=\"stim\">WARDROBE</p>", "conditions": [24, 800, "v", 24000], "internal_node_id": "0.0-75.0", "trial": 2, "time_elapsed": 664859, "serialpos": 13, "key_press": -1, "wordID": 1586, "type": "PRES_VIS", "trial_index": 102}, "uniqueid": "MTK2259:3PPTZCWALRRP6IW1UQ6BH0E92XJZQM", "dateTime": 1516910599063}, {"current_trial": 103, "trialdata": {"rt": -1, "trial_type": "single-stim", "word": "patient", "stimulus": "<p id=\"stim\">PATIENT</p>", "conditions": [24, 800, "v", 24000], "internal_node_id": "0.0-76.0", "trial": 2, "time_elapsed": 666862, "serialpos": 14, "key_press": -1, "wordID": 1023, "type": "PRES_VIS", "trial_index": 103}, "uniqueid": "MTK2259:3PPTZCWALRRP6IW1UQ6BH0E92XJZQM", "dateTime": 1516910601066}, {"current_trial": 104, "trialdata": {"rt": -1, "trial_type": "single-stim", "word": "cobra", "stimulus": "<p id=\"stim\">COBRA</p>", "conditions": [24, 800, "v", 24000], "internal_node_id": "0.0-77.0", "trial": 2, "time_elapsed": 668678, "serialpos": 15, "key_press": -1, "wordID": 335, "type": "PRES_VIS", "trial_index": 104}, "uniqueid": "MTK2259:3PPTZCWALRRP6IW1UQ6BH0E92XJZQM", "dateTime": 1516910602882}, {"current_trial": 105, "trialdata": {"rt": -1, "trial_type": "single-stim", "word": "slug", "stimulus": "<p id=\"stim\">SLUG</p>", "conditions": [24, 800, "v", 24000], "internal_node_id": "0.0-78.0", "trial": 2, "time_elapsed": 670696, "serialpos": 16, "key_press": -1, "wordID": 1328, "type": "PRES_VIS", "trial_index": 105}, "uniqueid": "MTK2259:3PPTZCWALRRP6IW1UQ6BH0E92XJZQM", "dateTime": 1516910604900}, {"current_trial": 106, "trialdata": {"rt": -1, "trial_type": "single-stim", "word": "pimple", "stimulus": "<p id=\"stim\">PIMPLE</p>", "conditions": [24, 800, "v", 24000], "internal_node_id": "0.0-79.0", "trial": 2, "time_elapsed": 672506, "serialpos": 17, "key_press": -1, "wordID": 1070, "type": "PRES_VIS", "trial_index": 106}, "uniqueid": "MTK2259:3PPTZCWALRRP6IW1UQ6BH0E92XJZQM", "dateTime": 1516910606710}, {"current_trial": 107, "trialdata": {"rt": -1, "trial_type": "single-stim", "word": "hostess", "stimulus": "<p id=\"stim\">HOSTESS</p>", "conditions": [24, 800, "v", 24000], "internal_node_id": "0.0-80.0", "trial": 2, "time_elapsed": 674256, "serialpos": 18, "key_press": -1, "wordID": 722, "type": "PRES_VIS", "trial_index": 107}, "uniqueid": "MTK2259:3PPTZCWALRRP6IW1UQ6BH0E92XJZQM", "dateTime": 1516910608460}, {"current_trial": 108, "trialdata": {"rt": -1, "trial_type": "single-stim", "word": "lady", "stimulus": "<p id=\"stim\">LADY</p>", "conditions": [24, 800, "v", 24000], "internal_node_id": "0.0-81.0", "trial": 2, "time_elapsed": 676128, "serialpos": 19, "key_press": -1, "wordID": 793, "type": "PRES_VIS", "trial_index": 108}, "uniqueid": "MTK2259:3PPTZCWALRRP6IW1UQ6BH0E92XJZQM", "dateTime": 1516910610332}, {"current_trial": 109, "trialdata": {"rt": -1, "trial_type": "single-stim", "word": "woman", "stimulus": "<p id=\"stim\">WOMAN</p>", "conditions": [24, 800, "v", 24000], "internal_node_id": "0.0-82.0", "trial": 2, "time_elapsed": 677931, "serialpos": 20, "key_press": -1, "wordID": 1619, "type": "PRES_VIS", "trial_index": 109}, "uniqueid": "MTK2259:3PPTZCWALRRP6IW1UQ6BH0E92XJZQM", "dateTime": 1516910612136}, {"current_trial": 110, "trialdata": {"rt": -1, "trial_type": "single-stim", "word": "umpire", "stimulus": "<p id=\"stim\">UMPIRE</p>", "conditions": [24, 800, "v", 24000], "internal_node_id": "0.0-83.0", "trial": 2, "time_elapsed": 679890, "serialpos": 21, "key_press": -1, "wordID": 1534, "type": "PRES_VIS", "trial_index": 110}, "uniqueid": "MTK2259:3PPTZCWALRRP6IW1UQ6BH0E92XJZQM", "dateTime": 1516910614094}, {"current_trial": 111, "trialdata": {"rt": -1, "trial_type": "single-stim", "word": "softball", "stimulus": "<p id=\"stim\">SOFTBALL</p>", "conditions": [24, 800, "v", 24000], "internal_node_id": "0.0-84.0", "trial": 2, "time_elapsed": 681645, "serialpos": 22, "key_press": -1, "wordID": 1342, "type": "PRES_VIS", "trial_index": 111}, "uniqueid": "MTK2259:3PPTZCWALRRP6IW1UQ6BH0E92XJZQM", "dateTime": 1516910615849}, {"current_trial": 112, "trialdata": {"rt": -1, "trial_type": "single-stim", "word": "nurse", "stimulus": "<p id=\"stim\">NURSE</p>", "conditions": [24, 800, "v", 24000], "internal_node_id": "0.0-85.0", "trial": 2, "time_elapsed": 683487, "serialpos": 23, "key_press": -1, "wordID": 962, "type": "PRES_VIS", "trial_index": 112}, "uniqueid": "MTK2259:3PPTZCWALRRP6IW1UQ6BH0E92XJZQM", "dateTime": 1516910617692}, {"current_trial": 113, "trialdata": {"rt": -1, "trial_type": "single-stim", "stimulus": "", "internal_node_id": "0.0-86.0-0.0", "time_elapsed": 685607, "key_press": -1, "type": "PRE_RECALL_DELAY", "trial_index": 113}, "uniqueid": "MTK2259:3PPTZCWALRRP6IW1UQ6BH0E92XJZQM", "dateTime": 1516910619811}, {"current_trial": 114, "trialdata": {"rt": -1000, "trial_type": "single-audio", "stimulus": "/static/audio/400Hz.wav", "internal_node_id": "0.0-87.0", "time_elapsed": 686121, "key_press": -1, "type": "PRE_RECALL_ALERT", "trial_index": 114}, "uniqueid": "MTK2259:3PPTZCWALRRP6IW1UQ6BH0E92XJZQM", "dateTime": 1516910620325}, {"current_trial": 115, "trialdata": {"rt": [2588, 4488, 9934, 13230, 15949, 19117, 20379, 23727, 25675, 37825, 53559], "recwords": ["softball", "nurse", "lady", "mildew", "wardrobe", "drill", "ankle", "actor", "actress", "slug", "perfume"], "key_times": [831, 980, 1147, 1400, 1939, 2054, 2250, 2468, 2588, 3326, 3581, 3787, 3936, 4196, 4488, 9071, 9204, 9337, 9549, 9934, 11333, 11517, 11698, 12331, 12686, 13029, 13230, 13652, 13754, 13904, 14101, 15053, 15296, 15502, 15730, 15949, 18220, 18385, 18582, 18688, 18904, 19117, 19410, 19519, 19671, 19940, 20143, 20379, 22657, 22785, 22998, 23306, 23452, 23727, 23979, 24197, 24435, 24825, 25092, 25282, 25477, 25675, 36954, 37164, 37421, 37551, 37825, 52059, 52246, 52322, 52559, 52746, 52995, 53333, 53559], "trial_type": "free-recall", "conditions": [24, 800, "v", 24000], "internal_node_id": "0.0-88.0-0.0", "key_presses": [83, 79, 70, 84, 66, 65, 76, 76, 32, 78, 85, 82, 83, 69, 13, 76, 65, 68, 89, 13, 77, 73, 76, 68, 69, 87, 13, 87, 65, 82, 68, 82, 79, 66, 69, 13, 68, 82, 73, 76, 76, 13, 65, 78, 75, 76, 69, 13, 65, 67, 84, 79, 82, 13, 65, 67, 84, 82, 69, 83, 83, 13, 83, 76, 85, 71, 13, 80, 69, 82, 70, 85, 77, 69, 13], "trial": 2, "time_elapsed": 746121, "type": "FREE_RECALL", "trial_index": 115}, "uniqueid": "MTK2259:3PPTZCWALRRP6IW1UQ6BH0E92XJZQM", "dateTime": 1516910680331}, {"current_trial": 116, "trialdata": {"rt": 2608, "trial_type": "text", "internal_node_id": "0.0-89.0", "time_elapsed": 750736, "key_press": 32, "type": "INSTRUCTIONS", "trial_index": 116}, "uniqueid": "MTK2259:3PPTZCWALRRP6IW1UQ6BH0E92XJZQM", "dateTime": 1516910684940}, {"current_trial": 117, "trialdata": {"rt": [3028, 5294, 8492, 13472, 15840, 19960, 22407], "trial_type": "math-distractor", "key_times": [2575, 2690, 3028, 4766, 5003, 5294, 8033, 8279, 8492, 13043, 13230, 13472, 15445, 15612, 15840, 19577, 19776, 19960, 22049, 22199, 22407, 23746], "responses": ["10", "14", "17", "22", "13", "24", "13"], "num2": [5, 8, 7, 8, 3, 8, 2, 1], "num3": [3, 2, 8, 7, 2, 9, 9, 3], "conditions": [12, 1600, "v", 24000], "internal_node_id": "0.0-90.0", "key_presses": [97, 96, 13, 97, 100, 13, 97, 103, 13, 98, 98, 13, 97, 99, 13, 98, 100, 13, 97, 99, 13, 103], "trial": 3, "time_elapsed": 776779, "type": "DISTRACTOR", "trial_index": 117, "num1": [2, 4, 2, 7, 8, 7, 2, 3]}, "uniqueid": "MTK2259:3PPTZCWALRRP6IW1UQ6BH0E92XJZQM", "dateTime": 1516910710983}, {"current_trial": 118, "trialdata": {"rt": -1, "trial_type": "single-stim", "stimulus": "<p id=\"stim\">10</p>", "internal_node_id": "0.0-91.0-0.0", "time_elapsed": 779803, "key_press": -1, "trial_index": 118}, "uniqueid": "MTK2259:3PPTZCWALRRP6IW1UQ6BH0E92XJZQM", "dateTime": 1516910714007}, {"current_trial": 119, "trialdata": {"rt": -1, "trial_type": "single-stim", "stimulus": "<p id=\"stim\">9</p>", "internal_node_id": "0.0-91.0-1.0", "time_elapsed": 780805, "key_press": -1, "trial_index": 119}, "uniqueid": "MTK2259:3PPTZCWALRRP6IW1UQ6BH0E92XJZQM", "dateTime": 1516910715009}, {"current_trial": 120, "trialdata": {"rt": -1, "trial_type": "single-stim", "stimulus": "<p id=\"stim\">8</p>", "internal_node_id": "0.0-91.0-2.0", "time_elapsed": 781813, "key_press": -1, "trial_index": 120}, "uniqueid": "MTK2259:3PPTZCWALRRP6IW1UQ6BH0E92XJZQM", "dateTime": 1516910716017}, {"current_trial": 121, "trialdata": {"rt": -1, "trial_type": "single-stim", "stimulus": "<p id=\"stim\">7</p>", "internal_node_id": "0.0-91.0-3.0", "time_elapsed": 782824, "key_press": -1, "trial_index": 121}, "uniqueid": "MTK2259:3PPTZCWALRRP6IW1UQ6BH0E92XJZQM", "dateTime": 1516910717028}, {"current_trial": 122, "trialdata": {"rt": -1, "trial_type": "single-stim", "stimulus": "<p id=\"stim\">6</p>", "internal_node_id": "0.0-91.0-4.0", "time_elapsed": 783839, "key_press": -1, "trial_index": 122}, "uniqueid": "MTK2259:3PPTZCWALRRP6IW1UQ6BH0E92XJZQM", "dateTime": 1516910718043}, {"current_trial": 123, "trialdata": {"rt": -1, "trial_type": "single-stim", "stimulus": "<p id=\"stim\">5</p>", "internal_node_id": "0.0-91.0-5.0", "time_elapsed": 784842, "key_press": -1, "trial_index": 123}, "uniqueid": "MTK2259:3PPTZCWALRRP6IW1UQ6BH0E92XJZQM", "dateTime": 1516910719046}, {"current_trial": 124, "trialdata": {"rt": -1, "trial_type": "single-stim", "stimulus": "<p id=\"stim\">4</p>", "internal_node_id": "0.0-91.0-6.0", "time_elapsed": 785852, "key_press": -1, "trial_index": 124}, "uniqueid": "MTK2259:3PPTZCWALRRP6IW1UQ6BH0E92XJZQM", "dateTime": 1516910720056}, {"current_trial": 125, "trialdata": {"rt": -1, "trial_type": "single-stim", "stimulus": "<p id=\"stim\">3</p>", "internal_node_id": "0.0-91.0-7.0", "time_elapsed": 786875, "key_press": -1, "trial_index": 125}, "uniqueid": "MTK2259:3PPTZCWALRRP6IW1UQ6BH0E92XJZQM", "dateTime": 1516910721079}, {"current_trial": 126, "trialdata": {"rt": -1, "trial_type": "single-stim", "stimulus": "<p id=\"stim\">2</p>", "internal_node_id": "0.0-91.0-8.0", "time_elapsed": 787886, "key_press": -1, "trial_index": 126}, "uniqueid": "MTK2259:3PPTZCWALRRP6IW1UQ6BH0E92XJZQM", "dateTime": 1516910722090}, {"current_trial": 127, "trialdata": {"rt": -1, "trial_type": "single-stim", "stimulus": "<p id=\"stim\">1</p>", "internal_node_id": "0.0-91.0-9.0", "time_elapsed": 788888, "key_press": -1, "trial_index": 127}, "uniqueid": "MTK2259:3PPTZCWALRRP6IW1UQ6BH0E92XJZQM", "dateTime": 1516910723092}, {"current_trial": 128, "trialdata": {"rt": -1, "trial_type": "single-stim", "stimulus": "<p id=\"stim\">+</p>", "internal_node_id": "0.0-92.0-0.0", "time_elapsed": 790413, "key_press": -1, "type": "FIXATION", "trial_index": 128}, "uniqueid": "MTK2259:3PPTZCWALRRP6IW1UQ6BH0E92XJZQM", "dateTime": 1516910724618}, {"current_trial": 129, "trialdata": {"rt": -1, "trial_type": "single-stim", "word": "stomach", "stimulus": "<p id=\"stim\">STOMACH</p>", "conditions": [12, 1600, "v", 24000], "internal_node_id": "0.0-93.0", "trial": 3, "time_elapsed": 792021, "serialpos": 0, "key_press": -1, "wordID": 1383, "type": "PRES_VIS", "trial_index": 129}, "uniqueid": "MTK2259:3PPTZCWALRRP6IW1UQ6BH0E92XJZQM", "dateTime": 1516910726225}, {"current_trial": 130, "trialdata": {"rt": -1, "trial_type": "single-stim", "word": "balloon", "stimulus": "<p id=\"stim\">BALLOON</p>", "conditions": [12, 1600, "v", 24000], "internal_node_id": "0.0-94.0", "trial": 3, "time_elapsed": 794554, "serialpos": 1, "key_press": -1, "wordID": 74, "type": "PRES_VIS", "trial_index": 130}, "uniqueid": "MTK2259:3PPTZCWALRRP6IW1UQ6BH0E92XJZQM", "dateTime": 1516910728758}, {"current_trial": 131, "trialdata": {"rt": -1, "trial_type": "single-stim", "word": "shortcake", "stimulus": "<p id=\"stim\">SHORTCAKE</p>", "conditions": [12, 1600, "v", 24000], "internal_node_id": "0.0-95.0", "trial": 3, "time_elapsed": 796976, "serialpos": 2, "key_press": -1, "wordID": 1291, "type": "PRES_VIS", "trial_index": 131}, "uniqueid": "MTK2259:3PPTZCWALRRP6IW1UQ6BH0E92XJZQM", "dateTime": 1516910731182}, {"current_trial": 132, "trialdata": {"rt": -1, "trial_type": "single-stim", "word": "valve", "stimulus": "<p id=\"stim\">VALVE</p>", "conditions": [12, 1600, "v", 24000], "internal_node_id": "0.0-96.0", "trial": 3, "time_elapsed": 799656, "serialpos": 3, "key_press": -1, "wordID": 1545, "type": "PRES_VIS", "trial_index": 132}, "uniqueid": "MTK2259:3PPTZCWALRRP6IW1UQ6BH0E92XJZQM", "dateTime": 1516910733860}, {"current_trial": 133, "trialdata": {"rt": -1, "trial_type": "single-stim", "word": "chapel", "stimulus": "<p id=\"stim\">CHAPEL</p>", "conditions": [12, 1600, "v", 24000], "internal_node_id": "0.0-97.0", "trial": 3, "time_elapsed": 802146, "serialpos": 4, "key_press": -1, "wordID": 279, "type": "PRES_VIS", "trial_index": 133}, "uniqueid": "MTK2259:3PPTZCWALRRP6IW1UQ6BH0E92XJZQM", "dateTime": 1516910736350}, {"current_trial": 134, "trialdata": {"rt": -1, "trial_type": "single-stim", "word": "toaster", "stimulus": "<p id=\"stim\">TOASTER</p>", "conditions": [12, 1600, "v", 24000], "internal_node_id": "0.0-98.0", "trial": 3, "time_elapsed": 804654, "serialpos": 5, "key_press": -1, "wordID": 1471, "type": "PRES_VIS", "trial_index": 134}, "uniqueid": "MTK2259:3PPTZCWALRRP6IW1UQ6BH0E92XJZQM", "dateTime": 1516910738858}, {"current_trial": 135, "trialdata": {"rt": -1, "trial_type": "single-stim", "word": "film", "stimulus": "<p id=\"stim\">FILM</p>", "conditions": [12, 1600, "v", 24000], "internal_node_id": "0.0-99.0", "trial": 3, "time_elapsed": 807437, "serialpos": 6, "key_press": -1, "wordID": 564, "type": "PRES_VIS", "trial_index": 135}, "uniqueid": "MTK2259:3PPTZCWALRRP6IW1UQ6BH0E92XJZQM", "dateTime": 1516910741641}, {"current_trial": 136, "trialdata": {"rt": -1, "trial_type": "single-stim", "word": "garlic", "stimulus": "<p id=\"stim\">GARLIC</p>", "conditions": [12, 1600, "v", 24000], "internal_node_id": "0.0-100.0", "trial": 3, "time_elapsed": 810094, "serialpos": 7, "key_press": -1, "wordID": 623, "type": "PRES_VIS", "trial_index": 136}, "uniqueid": "MTK2259:3PPTZCWALRRP6IW1UQ6BH0E92XJZQM", "dateTime": 1516910744298}, {"current_trial": 137, "trialdata": {"rt": -1, "trial_type": "single-stim", "word": "barrel", "stimulus": "<p id=\"stim\">BARREL</p>", "conditions": [12, 1600, "v", 24000], "internal_node_id": "0.0-101.0", "trial": 3, "time_elapsed": 812662, "serialpos": 8, "key_press": -1, "wordID": 90, "type": "PRES_VIS", "trial_index": 137}, "uniqueid": "MTK2259:3PPTZCWALRRP6IW1UQ6BH0E92XJZQM", "dateTime": 1516910746866}, {"current_trial": 138, "trialdata": {"rt": -1, "trial_type": "single-stim", "word": "peach", "stimulus": "<p id=\"stim\">PEACH</p>", "conditions": [12, 1600, "v", 24000], "internal_node_id": "0.0-102.0", "trial": 3, "time_elapsed": 815172, "serialpos": 9, "key_press": -1, "wordID": 1030, "type": "PRES_VIS", "trial_index": 138}, "uniqueid": "MTK2259:3PPTZCWALRRP6IW1UQ6BH0E92XJZQM", "dateTime": 1516910749376}, {"current_trial": 139, "trialdata": {"rt": -1, "trial_type": "single-stim", "word": "grape", "stimulus": "<p id=\"stim\">GRAPE</p>", "conditions": [12, 1600, "v", 24000], "internal_node_id": "0.0-103.0", "trial": 3, "time_elapsed": 817621, "serialpos": 10, "key_press": -1, "wordID": 653, "type": "PRES_VIS", "trial_index": 139}, "uniqueid": "MTK2259:3PPTZCWALRRP6IW1UQ6BH0E92XJZQM", "dateTime": 1516910751825}, {"current_trial": 140, "trialdata": {"rt": -1, "trial_type": "single-stim", "word": "gallon", "stimulus": "<p id=\"stim\">GALLON</p>", "conditions": [12, 1600, "v", 24000], "internal_node_id": "0.0-104.0", "trial": 3, "time_elapsed": 820060, "serialpos": 11, "key_press": -1, "wordID": 617, "type": "PRES_VIS", "trial_index": 140}, "uniqueid": "MTK2259:3PPTZCWALRRP6IW1UQ6BH0E92XJZQM", "dateTime": 1516910754264}, {"current_trial": 141, "trialdata": {"rt": -1, "trial_type": "single-stim", "stimulus": "", "internal_node_id": "0.0-105.0-0.0", "time_elapsed": 822603, "key_press": -1, "type": "PRE_RECALL_DELAY", "trial_index": 141}, "uniqueid": "MTK2259:3PPTZCWALRRP6IW1UQ6BH0E92XJZQM", "dateTime": 1516910756807}, {"current_trial": 142, "trialdata": {"rt": -1000, "trial_type": "single-audio", "stimulus": "/static/audio/400Hz.wav", "internal_node_id": "0.0-106.0", "time_elapsed": 823107, "key_press": -1, "type": "PRE_RECALL_ALERT", "trial_index": 142}, "uniqueid": "MTK2259:3PPTZCWALRRP6IW1UQ6BH0E92XJZQM", "dateTime": 1516910757312}, {"current_trial": 143, "trialdata": {"rt": [1888, 3046, 4428, 7099, 8363, 10408, 12870], "recwords": ["gallon", "peach", "grape", "toaster", "garlic", "stomach", "shortcake"], "key_times": [534, 678, 901, 1092, 1294, 1435, 1888, 2370, 2449, 2538, 2733, 2845, 3046, 3182, 3701, 3816, 3981, 4145, 4428, 6119, 6268, 6351, 6471, 6664, 6823, 6902, 7099, 7281, 7434, 7552, 7726, 7948, 8147, 8363, 8955, 9177, 9330, 9683, 9901, 10051, 10169, 10408, 11121, 11280, 11479, 11658, 11886, 12219, 12377, 12547, 12667, 12870], "trial_type": "free-recall", "conditions": [12, 1600, "v", 24000], "internal_node_id": "0.0-107.0-0.0", "key_presses": [71, 65, 76, 76, 79, 78, 13, 80, 69, 65, 67, 72, 13, 71, 82, 65, 80, 69, 13, 84, 79, 65, 83, 84, 69, 82, 13, 71, 65, 82, 76, 73, 67, 13, 83, 84, 79, 77, 65, 67, 72, 13, 83, 72, 79, 82, 84, 67, 65, 75, 69, 13], "trial": 3, "time_elapsed": 883131, "type": "FREE_RECALL", "trial_index": 143}, "uniqueid": "MTK2259:3PPTZCWALRRP6IW1UQ6BH0E92XJZQM", "dateTime": 1516910817335}, {"current_trial": 144, "trialdata": {"rt": 2156, "trial_type": "text", "internal_node_id": "0.0-108.0", "time_elapsed": 887287, "key_press": 32, "type": "INSTRUCTIONS", "trial_index": 144}, "uniqueid": "MTK2259:3PPTZCWALRRP6IW1UQ6BH0E92XJZQM", "dateTime": 1516910821491}, {"current_trial": 145, "trialdata": {"rt": [2721, 4178, 10462, 12277, 16546, 18047, 20973], "trial_type": "math-distractor", "key_times": [2281, 2475, 2721, 3781, 3971, 4178, 10048, 10257, 10462, 11848, 12058, 12277, 14298, 15486, 16016, 16308, 16546, 17685, 17832, 18047, 20549, 20703, 20973, 23916], "responses": ["10", "11", "19", "14", "15", "11", "14"], "num2": [5, 5, 4, 2, 3, 1, 2, 2], "num3": [4, 1, 7, 8, 6, 9, 7, 5], "conditions": [24, 1600, "v", 24000], "internal_node_id": "0.0-109.0", "key_presses": [97, 96, 13, 97, 97, 13, 97, 105, 13, 97, 100, 13, 101, 8, 97, 101, 13, 97, 97, 13, 97, 100, 13, 97], "trial": 4, "time_elapsed": 913303, "type": "DISTRACTOR", "trial_index": 145, "num1": [1, 5, 8, 4, 6, 1, 5, 4]}, "uniqueid": "MTK2259:3PPTZCWALRRP6IW1UQ6BH0E92XJZQM", "dateTime": 1516910847507}, {"current_trial": 146, "trialdata": {"rt": -1, "trial_type": "single-stim", "stimulus": "<p id=\"stim\">10</p>", "internal_node_id": "0.0-110.0-0.0", "time_elapsed": 916331, "key_press": -1, "trial_index": 146}, "uniqueid": "MTK2259:3PPTZCWALRRP6IW1UQ6BH0E92XJZQM", "dateTime": 1516910850535}, {"current_trial": 147, "trialdata": {"rt": -1, "trial_type": "single-stim", "stimulus": "<p id=\"stim\">9</p>", "internal_node_id": "0.0-110.0-1.0", "time_elapsed": 917333, "key_press": -1, "trial_index": 147}, "uniqueid": "MTK2259:3PPTZCWALRRP6IW1UQ6BH0E92XJZQM", "dateTime": 1516910851537}, {"current_trial": 148, "trialdata": {"rt": -1, "trial_type": "single-stim", "stimulus": "<p id=\"stim\">8</p>", "internal_node_id": "0.0-110.0-2.0", "time_elapsed": 918334, "key_press": -1, "trial_index": 148}, "uniqueid": "MTK2259:3PPTZCWALRRP6IW1UQ6BH0E92XJZQM", "dateTime": 1516910852538}, {"current_trial": 149, "trialdata": {"rt": -1, "trial_type": "single-stim", "stimulus": "<p id=\"stim\">7</p>", "internal_node_id": "0.0-110.0-3.0", "time_elapsed": 919335, "key_press": -1, "trial_index": 149}, "uniqueid": "MTK2259:3PPTZCWALRRP6IW1UQ6BH0E92XJZQM", "dateTime": 1516910853540}, {"current_trial": 150, "trialdata": {"rt": -1, "trial_type": "single-stim", "stimulus": "<p id=\"stim\">6</p>", "internal_node_id": "0.0-110.0-4.0", "time_elapsed": 920349, "key_press": -1, "trial_index": 150}, "uniqueid": "MTK2259:3PPTZCWALRRP6IW1UQ6BH0E92XJZQM", "dateTime": 1516910854553}, {"current_trial": 151, "trialdata": {"rt": -1, "trial_type": "single-stim", "stimulus": "<p id=\"stim\">5</p>", "internal_node_id": "0.0-110.0-5.0", "time_elapsed": 921358, "key_press": -1, "trial_index": 151}, "uniqueid": "MTK2259:3PPTZCWALRRP6IW1UQ6BH0E92XJZQM", "dateTime": 1516910855562}, {"current_trial": 152, "trialdata": {"rt": -1, "trial_type": "single-stim", "stimulus": "<p id=\"stim\">4</p>", "internal_node_id": "0.0-110.0-6.0", "time_elapsed": 922369, "key_press": -1, "trial_index": 152}, "uniqueid": "MTK2259:3PPTZCWALRRP6IW1UQ6BH0E92XJZQM", "dateTime": 1516910856573}, {"current_trial": 153, "trialdata": {"rt": -1, "trial_type": "single-stim", "stimulus": "<p id=\"stim\">3</p>", "internal_node_id": "0.0-110.0-7.0", "time_elapsed": 923378, "key_press": -1, "trial_index": 153}, "uniqueid": "MTK2259:3PPTZCWALRRP6IW1UQ6BH0E92XJZQM", "dateTime": 1516910857582}, {"current_trial": 154, "trialdata": {"rt": -1, "trial_type": "single-stim", "stimulus": "<p id=\"stim\">2</p>", "internal_node_id": "0.0-110.0-8.0", "time_elapsed": 924380, "key_press": -1, "trial_index": 154}, "uniqueid": "MTK2259:3PPTZCWALRRP6IW1UQ6BH0E92XJZQM", "dateTime": 1516910858584}, {"current_trial": 155, "trialdata": {"rt": -1, "trial_type": "single-stim", "stimulus": "<p id=\"stim\">1</p>", "internal_node_id": "0.0-110.0-9.0", "time_elapsed": 925395, "key_press": -1, "trial_index": 155}, "uniqueid": "MTK2259:3PPTZCWALRRP6IW1UQ6BH0E92XJZQM", "dateTime": 1516910859599}, {"current_trial": 156, "trialdata": {"rt": -1, "trial_type": "single-stim", "stimulus": "<p id=\"stim\">+</p>", "internal_node_id": "0.0-111.0-0.0", "time_elapsed": 926905, "key_press": -1, "type": "FIXATION", "trial_index": 156}, "uniqueid": "MTK2259:3PPTZCWALRRP6IW1UQ6BH0E92XJZQM", "dateTime": 1516910861109}, {"current_trial": 157, "trialdata": {"rt": -1, "trial_type": "single-stim", "word": "river", "stimulus": "<p id=\"stim\">RIVER</p>", "conditions": [24, 1600, "v", 24000], "internal_node_id": "0.0-112.0", "trial": 4, "time_elapsed": 928518, "serialpos": 0, "key_press": -1, "wordID": 1193, "type": "PRES_VIS", "trial_index": 157}, "uniqueid": "MTK2259:3PPTZCWALRRP6IW1UQ6BH0E92XJZQM", "dateTime": 1516910862722}, {"current_trial": 158, "trialdata": {"rt": -1, "trial_type": "single-stim", "word": "goblin", "stimulus": "<p id=\"stim\">GOBLIN</p>", "conditions": [24, 1600, "v", 24000], "internal_node_id": "0.0-113.0", "trial": 4, "time_elapsed": 931296, "serialpos": 1, "key_press": -1, "wordID": 644, "type": "PRES_VIS", "trial_index": 158}, "uniqueid": "MTK2259:3PPTZCWALRRP6IW1UQ6BH0E92XJZQM", "dateTime": 1516910865500}, {"current_trial": 159, "trialdata": {"rt": -1, "trial_type": "single-stim", "word": "clam", "stimulus": "<p id=\"stim\">CLAM</p>", "conditions": [24, 1600, "v", 24000], "internal_node_id": "0.0-114.0", "trial": 4, "time_elapsed": 933743, "serialpos": 2, "key_press": -1, "wordID": 314, "type": "PRES_VIS", "trial_index": 159}, "uniqueid": "MTK2259:3PPTZCWALRRP6IW1UQ6BH0E92XJZQM", "dateTime": 1516910867947}, {"current_trial": 160, "trialdata": {"rt": -1, "trial_type": "single-stim", "word": "lily", "stimulus": "<p id=\"stim\">LILY</p>", "conditions": [24, 1600, "v", 24000], "internal_node_id": "0.0-115.0", "trial": 4, "time_elapsed": 936450, "serialpos": 3, "key_press": -1, "wordID": 820, "type": "PRES_VIS", "trial_index": 160}, "uniqueid": "MTK2259:3PPTZCWALRRP6IW1UQ6BH0E92XJZQM", "dateTime": 1516910870655}, {"current_trial": 161, "trialdata": {"rt": -1, "trial_type": "single-stim", "word": "orchid", "stimulus": "<p id=\"stim\">ORCHID</p>", "conditions": [24, 1600, "v", 24000], "internal_node_id": "0.0-116.0", "trial": 4, "time_elapsed": 939116, "serialpos": 4, "key_press": -1, "wordID": 981, "type": "PRES_VIS", "trial_index": 161}, "uniqueid": "MTK2259:3PPTZCWALRRP6IW1UQ6BH0E92XJZQM", "dateTime": 1516910873320}, {"current_trial": 162, "trialdata": {"rt": -1, "trial_type": "single-stim", "word": "crab", "stimulus": "<p id=\"stim\">CRAB</p>", "conditions": [24, 1600, "v", 24000], "internal_node_id": "0.0-117.0", "trial": 4, "time_elapsed": 941907, "serialpos": 5, "key_press": -1, "wordID": 396, "type": "PRES_VIS", "trial_index": 162}, "uniqueid": "MTK2259:3PPTZCWALRRP6IW1UQ6BH0E92XJZQM", "dateTime": 1516910876111}, {"current_trial": 163, "trialdata": {"rt": -1, "trial_type": "single-stim", "word": "rod", "stimulus": "<p id=\"stim\">ROD</p>", "conditions": [24, 1600, "v", 24000], "internal_node_id": "0.0-118.0", "trial": 4, "time_elapsed": 944566, "serialpos": 6, "key_press": -1, "wordID": 1202, "type": "PRES_VIS", "trial_index": 163}, "uniqueid": "MTK2259:3PPTZCWALRRP6IW1UQ6BH0E92XJZQM", "dateTime": 1516910878771}, {"current_trial": 164, "trialdata": {"rt": -1, "trial_type": "single-stim", "word": "racket", "stimulus": "<p id=\"stim\">RACKET</p>", "conditions": [24, 1600, "v", 24000], "internal_node_id": "0.0-119.0", "trial": 4, "time_elapsed": 947247, "serialpos": 7, "key_press": -1, "wordID": 1154, "type": "PRES_VIS", "trial_index": 164}, "uniqueid": "MTK2259:3PPTZCWALRRP6IW1UQ6BH0E92XJZQM", "dateTime": 1516910881452}, {"current_trial": 165, "trialdata": {"rt": -1, "trial_type": "single-stim", "word": "france", "stimulus": "<p id=\"stim\">FRANCE</p>", "conditions": [24, 1600, "v", 24000], "internal_node_id": "0.0-120.0", "trial": 4, "time_elapsed": 949939, "serialpos": 8, "key_press": -1, "wordID": 600, "type": "PRES_VIS", "trial_index": 165}, "uniqueid": "MTK2259:3PPTZCWALRRP6IW1UQ6BH0E92XJZQM", "dateTime": 1516910884143}, {"current_trial": 166, "trialdata": {"rt": -1, "trial_type": "single-stim", "word": "arm", "stimulus": "<p id=\"stim\">ARM</p>", "conditions": [24, 1600, "v", 24000], "internal_node_id": "0.0-121.0", "trial": 4, "time_elapsed": 952444, "serialpos": 9, "key_press": -1, "wordID": 37, "type": "PRES_VIS", "trial_index": 166}, "uniqueid": "MTK2259:3PPTZCWALRRP6IW1UQ6BH0E92XJZQM", "dateTime": 1516910886648}, {"current_trial": 167, "trialdata": {"rt": -1, "trial_type": "single-stim", "word": "lizard", "stimulus": "<p id=\"stim\">LIZARD</p>", "conditions": [24, 1600, "v", 24000], "internal_node_id": "0.0-122.0", "trial": 4, "time_elapsed": 954912, "serialpos": 10, "key_press": -1, "wordID": 833, "type": "PRES_VIS", "trial_index": 167}, "uniqueid": "MTK2259:3PPTZCWALRRP6IW1UQ6BH0E92XJZQM", "dateTime": 1516910889116}, {"current_trial": 168, "trialdata": {"rt": -1, "trial_type": "single-stim", "word": "dresser", "stimulus": "<p id=\"stim\">DRESSER</p>", "conditions": [24, 1600, "v", 24000], "internal_node_id": "0.0-123.0", "trial": 4, "time_elapsed": 957644, "serialpos": 11, "key_press": -1, "wordID": 495, "type": "PRES_VIS", "trial_index": 168}, "uniqueid": "MTK2259:3PPTZCWALRRP6IW1UQ6BH0E92XJZQM", "dateTime": 1516910891848}, {"current_trial": 169, "trialdata": {"rt": -1, "trial_type": "single-stim", "word": "victim", "stimulus": "<p id=\"stim\">VICTIM</p>", "conditions": [24, 1600, "v", 24000], "internal_node_id": "0.0-124.0", "trial": 4, "time_elapsed": 960288, "serialpos": 12, "key_press": -1, "wordID": 1561, "type": "PRES_VIS", "trial_index": 169}, "uniqueid": "MTK2259:3PPTZCWALRRP6IW1UQ6BH0E92XJZQM", "dateTime": 1516910894492}, {"current_trial": 170, "trialdata": {"rt": -1, "trial_type": "single-stim", "word": "dentist", "stimulus": "<p id=\"stim\">DENTIST</p>", "conditions": [24, 1600, "v", 24000], "internal_node_id": "0.0-125.0", "trial": 4, "time_elapsed": 962810, "serialpos": 13, "key_press": -1, "wordID": 446, "type": "PRES_VIS", "trial_index": 170}, "uniqueid": "MTK2259:3PPTZCWALRRP6IW1UQ6BH0E92XJZQM", "dateTime": 1516910897014}, {"current_trial": 171, "trialdata": {"rt": -1, "trial_type": "single-stim", "word": "temple", "stimulus": "<p id=\"stim\">TEMPLE</p>", "conditions": [24, 1600, "v", 24000], "internal_node_id": "0.0-126.0", "trial": 4, "time_elapsed": 965493, "serialpos": 14, "key_press": -1, "wordID": 1447, "type": "PRES_VIS", "trial_index": 171}, "uniqueid": "MTK2259:3PPTZCWALRRP6IW1UQ6BH0E92XJZQM", "dateTime": 1516910899697}, {"current_trial": 172, "trialdata": {"rt": -1, "trial_type": "single-stim", "word": "pecan", "stimulus": "<p id=\"stim\">PECAN</p>", "conditions": [24, 1600, "v", 24000], "internal_node_id": "0.0-127.0", "trial": 4, "time_elapsed": 968306, "serialpos": 15, "key_press": -1, "wordID": 1035, "type": "PRES_VIS", "trial_index": 172}, "uniqueid": "MTK2259:3PPTZCWALRRP6IW1UQ6BH0E92XJZQM", "dateTime": 1516910902510}, {"current_trial": 173, "trialdata": {"rt": -1, "trial_type": "single-stim", "word": "empire", "stimulus": "<p id=\"stim\">EMPIRE</p>", "conditions": [24, 1600, "v", 24000], "internal_node_id": "0.0-128.0", "trial": 4, "time_elapsed": 970799, "serialpos": 16, "key_press": -1, "wordID": 529, "type": "PRES_VIS", "trial_index": 173}, "uniqueid": "MTK2259:3PPTZCWALRRP6IW1UQ6BH0E92XJZQM", "dateTime": 1516910905003}, {"current_trial": 174, "trialdata": {"rt": -1, "trial_type": "single-stim", "word": "suspect", "stimulus": "<p id=\"stim\">SUSPECT</p>", "conditions": [24, 1600, "v", 24000], "internal_node_id": "0.0-129.0", "trial": 4, "time_elapsed": 973563, "serialpos": 17, "key_press": -1, "wordID": 1414, "type": "PRES_VIS", "trial_index": 174}, "uniqueid": "MTK2259:3PPTZCWALRRP6IW1UQ6BH0E92XJZQM", "dateTime": 1516910907767}, {"current_trial": 175, "trialdata": {"rt": -1, "trial_type": "single-stim", "word": "crater", "stimulus": "<p id=\"stim\">CRATER</p>", "conditions": [24, 1600, "v", 24000], "internal_node_id": "0.0-130.0", "trial": 4, "time_elapsed": 976006, "serialpos": 18, "key_press": -1, "wordID": 399, "type": "PRES_VIS", "trial_index": 175}, "uniqueid": "MTK2259:3PPTZCWALRRP6IW1UQ6BH0E92XJZQM", "dateTime": 1516910910210}, {"current_trial": 176, "trialdata": {"rt": -1, "trial_type": "single-stim", "word": "lava", "stimulus": "<p id=\"stim\">LAVA</p>", "conditions": [24, 1600, "v", 24000], "internal_node_id": "0.0-131.0", "trial": 4, "time_elapsed": 978570, "serialpos": 19, "key_press": -1, "wordID": 803, "type": "PRES_VIS", "trial_index": 176}, "uniqueid": "MTK2259:3PPTZCWALRRP6IW1UQ6BH0E92XJZQM", "dateTime": 1516910912774}, {"current_trial": 177, "trialdata": {"rt": -1, "trial_type": "single-stim", "word": "fireman", "stimulus": "<p id=\"stim\">FIREMAN</p>", "conditions": [24, 1600, "v", 24000], "internal_node_id": "0.0-132.0", "trial": 4, "time_elapsed": 981102, "serialpos": 20, "key_press": -1, "wordID": 568, "type": "PRES_VIS", "trial_index": 177}, "uniqueid": "MTK2259:3PPTZCWALRRP6IW1UQ6BH0E92XJZQM", "dateTime": 1516910915306}, {"current_trial": 178, "trialdata": {"rt": -1, "trial_type": "single-stim", "word": "knapsack", "stimulus": "<p id=\"stim\">KNAPSACK</p>", "conditions": [24, 1600, "v", 24000], "internal_node_id": "0.0-133.0", "trial": 4, "time_elapsed": 983696, "serialpos": 21, "key_press": -1, "wordID": 782, "type": "PRES_VIS", "trial_index": 178}, "uniqueid": "MTK2259:3PPTZCWALRRP6IW1UQ6BH0E92XJZQM", "dateTime": 1516910917900}, {"current_trial": 179, "trialdata": {"rt": -1, "trial_type": "single-stim", "word": "diver", "stimulus": "<p id=\"stim\">DIVER</p>", "conditions": [24, 1600, "v", 24000], "internal_node_id": "0.0-134.0", "trial": 4, "time_elapsed": 986492, "serialpos": 22, "key_press": -1, "wordID": 475, "type": "PRES_VIS", "trial_index": 179}, "uniqueid": "MTK2259:3PPTZCWALRRP6IW1UQ6BH0E92XJZQM", "dateTime": 1516910920696}, {"current_trial": 180, "trialdata": {"rt": -1, "trial_type": "single-stim", "word": "sketch", "stimulus": "<p id=\"stim\">SKETCH</p>", "conditions": [24, 1600, "v", 24000], "internal_node_id": "0.0-135.0", "trial": 4, "time_elapsed": 989113, "serialpos": 23, "key_press": -1, "wordID": 1314, "type": "PRES_VIS", "trial_index": 180}, "uniqueid": "MTK2259:3PPTZCWALRRP6IW1UQ6BH0E92XJZQM", "dateTime": 1516910923317}, {"current_trial": 181, "trialdata": {"rt": -1, "trial_type": "single-stim", "stimulus": "", "internal_node_id": "0.0-136.0-0.0", "time_elapsed": 991238, "key_press": -1, "type": "PRE_RECALL_DELAY", "trial_index": 181}, "uniqueid": "MTK2259:3PPTZCWALRRP6IW1UQ6BH0E92XJZQM", "dateTime": 1516910925442}, {"current_trial": 182, "trialdata": {"rt": -1000, "trial_type": "single-audio", "stimulus": "/static/audio/400Hz.wav", "internal_node_id": "0.0-137.0", "time_elapsed": 991740, "key_press": -1, "type": "PRE_RECALL_ALERT", "trial_index": 182}, "uniqueid": "MTK2259:3PPTZCWALRRP6IW1UQ6BH0E92XJZQM", "dateTime": 1516910925944}, {"current_trial": 183, "trialdata": {"rt": [1325, 3244, 5976, 8218, 8787, 13385, 14959], "recwords": ["diver", "sketch", "suspect", "river", "", "victim", "chapel"], "key_times": [560, 755, 877, 1087, 1156, 1325, 1523, 1848, 2125, 2326, 2522, 2689, 3244, 4371, 4518, 4643, 4822, 5168, 5496, 5687, 5976, 7421, 7538, 7680, 7869, 7912, 8218, 8787, 12262, 12392, 12541, 12740, 12829, 12988, 13385, 13879, 13960, 14149, 14276, 14482, 14686, 14959, 59840, 59957], "trial_type": "free-recall", "conditions": [24, 1600, "v", 24000], "internal_node_id": "0.0-138.0-0.0", "key_presses": [68, 73, 86, 69, 82, 32, 83, 75, 69, 84, 67, 72, 13, 83, 85, 83, 80, 69, 67, 84, 13, 82, 73, 86, 69, 82, 32, 13, 86, 73, 67, 84, 73, 77, 13, 67, 72, 65, 80, 69, 76, 13, 75, 78], "trial": 4, "time_elapsed": 1051746, "type": "FREE_RECALL", "trial_index": 183}, "uniqueid": "MTK2259:3PPTZCWALRRP6IW1UQ6BH0E92XJZQM", "dateTime": 1516910985959}, {"current_trial": 184, "trialdata": {"rt": 2778, "trial_type": "text", "internal_node_id": "0.0-139.0", "time_elapsed": 1056545, "key_press": 32, "type": "INSTRUCTIONS", "trial_index": 184}, "uniqueid": "MTK2259:3PPTZCWALRRP6IW1UQ6BH0E92XJZQM", "dateTime": 1516910990749}, {"current_trial": 185, "trialdata": {"rt": [3695, 5484, 7875, 9820, 12002, 14142, 17137, 19838], "trial_type": "math-distractor", "key_times": [2948, 3130, 3695, 4997, 5242, 5484, 7436, 7676, 7875, 9578, 9820, 11549, 11761, 12002, 13699, 13927, 14142, 16696, 16911, 17137, 19423, 19611, 19838, 23751, 23942], "responses": ["15", "12", "15", "7", "13", "18", "17", "11"], "num2": [5, 9, 6, 2, 3, 2, 6, 2, 3], "num3": [8, 1, 2, 4, 4, 8, 9, 3, 8], "conditions": [24, 1600, "v", 24000], "internal_node_id": "0.0-140.0", "key_presses": [97, 101, 13, 97, 98, 13, 97, 101, 13, 103, 13, 97, 99, 13, 97, 104, 13, 97, 103, 13, 97, 97, 13, 97, 100], "trial": 5, "time_elapsed": 1082552, "type": "DISTRACTOR", "trial_index": 185, "num1": [2, 2, 7, 1, 6, 8, 2, 6, 3]}, "uniqueid": "MTK2259:3PPTZCWALRRP6IW1UQ6BH0E92XJZQM", "dateTime": 1516911016756}, {"current_trial": 186, "trialdata": {"rt": -1, "trial_type": "single-stim", "stimulus": "<p id=\"stim\">10</p>", "internal_node_id": "0.0-141.0-0.0", "time_elapsed": 1085565, "key_press": -1, "trial_index": 186}, "uniqueid": "MTK2259:3PPTZCWALRRP6IW1UQ6BH0E92XJZQM", "dateTime": 1516911019769}, {"current_trial": 187, "trialdata": {"rt": -1, "trial_type": "single-stim", "stimulus": "<p id=\"stim\">9</p>", "internal_node_id": "0.0-141.0-1.0", "time_elapsed": 1086565, "key_press": -1, "trial_index": 187}, "uniqueid": "MTK2259:3PPTZCWALRRP6IW1UQ6BH0E92XJZQM", "dateTime": 1516911020769}, {"current_trial": 188, "trialdata": {"rt": -1, "trial_type": "single-stim", "stimulus": "<p id=\"stim\">8</p>", "internal_node_id": "0.0-141.0-2.0", "time_elapsed": 1087565, "key_press": -1, "trial_index": 188}, "uniqueid": "MTK2259:3PPTZCWALRRP6IW1UQ6BH0E92XJZQM", "dateTime": 1516911021769}, {"current_trial": 189, "trialdata": {"rt": -1, "trial_type": "single-stim", "stimulus": "<p id=\"stim\">7</p>", "internal_node_id": "0.0-141.0-3.0", "time_elapsed": 1088567, "key_press": -1, "trial_index": 189}, "uniqueid": "MTK2259:3PPTZCWALRRP6IW1UQ6BH0E92XJZQM", "dateTime": 1516911022771}, {"current_trial": 190, "trialdata": {"rt": -1, "trial_type": "single-stim", "stimulus": "<p id=\"stim\">6</p>", "internal_node_id": "0.0-141.0-4.0", "time_elapsed": 1089578, "key_press": -1, "trial_index": 190}, "uniqueid": "MTK2259:3PPTZCWALRRP6IW1UQ6BH0E92XJZQM", "dateTime": 1516911023782}, {"current_trial": 191, "trialdata": {"rt": -1, "trial_type": "single-stim", "stimulus": "<p id=\"stim\">5</p>", "internal_node_id": "0.0-141.0-5.0", "time_elapsed": 1090589, "key_press": -1, "trial_index": 191}, "uniqueid": "MTK2259:3PPTZCWALRRP6IW1UQ6BH0E92XJZQM", "dateTime": 1516911024793}, {"current_trial": 192, "trialdata": {"rt": -1, "trial_type": "single-stim", "stimulus": "<p id=\"stim\">4</p>", "internal_node_id": "0.0-141.0-6.0", "time_elapsed": 1091597, "key_press": -1, "trial_index": 192}, "uniqueid": "MTK2259:3PPTZCWALRRP6IW1UQ6BH0E92XJZQM", "dateTime": 1516911025801}, {"current_trial": 193, "trialdata": {"rt": -1, "trial_type": "single-stim", "stimulus": "<p id=\"stim\">3</p>", "internal_node_id": "0.0-141.0-7.0", "time_elapsed": 1092606, "key_press": -1, "trial_index": 193}, "uniqueid": "MTK2259:3PPTZCWALRRP6IW1UQ6BH0E92XJZQM", "dateTime": 1516911026810}, {"current_trial": 194, "trialdata": {"rt": -1, "trial_type": "single-stim", "stimulus": "<p id=\"stim\">2</p>", "internal_node_id": "0.0-141.0-8.0", "time_elapsed": 1093617, "key_press": -1, "trial_index": 194}, "uniqueid": "MTK2259:3PPTZCWALRRP6IW1UQ6BH0E92XJZQM", "dateTime": 1516911027821}, {"current_trial": 195, "trialdata": {"rt": -1, "trial_type": "single-stim", "stimulus": "<p id=\"stim\">1</p>", "internal_node_id": "0.0-141.0-9.0", "time_elapsed": 1094623, "key_press": -1, "trial_index": 195}, "uniqueid": "MTK2259:3PPTZCWALRRP6IW1UQ6BH0E92XJZQM", "dateTime": 1516911028827}, {"current_trial": 196, "trialdata": {"rt": -1, "trial_type": "single-stim", "stimulus": "<p id=\"stim\">+</p>", "internal_node_id": "0.0-142.0-0.0", "time_elapsed": 1096125, "key_press": -1, "type": "FIXATION", "trial_index": 196}, "uniqueid": "MTK2259:3PPTZCWALRRP6IW1UQ6BH0E92XJZQM", "dateTime": 1516911030329}, {"current_trial": 197, "trialdata": {"rt": -1, "trial_type": "single-stim", "word": "crib", "stimulus": "<p id=\"stim\">CRIB</p>", "conditions": [24, 1600, "v", 24000], "internal_node_id": "0.0-143.0", "trial": 5, "time_elapsed": 1097727, "serialpos": 0, "key_press": -1, "wordID": 406, "type": "PRES_VIS", "trial_index": 197}, "uniqueid": "MTK2259:3PPTZCWALRRP6IW1UQ6BH0E92XJZQM", "dateTime": 1516911031931}, {"current_trial": 198, "trialdata": {"rt": -1, "trial_type": "single-stim", "word": "infant", "stimulus": "<p id=\"stim\">INFANT</p>", "conditions": [24, 1600, "v", 24000], "internal_node_id": "0.0-144.0", "trial": 5, "time_elapsed": 1100549, "serialpos": 1, "key_press": -1, "wordID": 736, "type": "PRES_VIS", "trial_index": 198}, "uniqueid": "MTK2259:3PPTZCWALRRP6IW1UQ6BH0E92XJZQM", "dateTime": 1516911034753}, {"current_trial": 199, "trialdata": {"rt": -1, "trial_type": "single-stim", "word": "skirt", "stimulus": "<p id=\"stim\">SKIRT</p>", "conditions": [24, 1600, "v", 24000], "internal_node_id": "0.0-145.0", "trial": 5, "time_elapsed": 1103080, "serialpos": 2, "key_press": -1, "wordID": 1318, "type": "PRES_VIS", "trial_index": 199}, "uniqueid": "MTK2259:3PPTZCWALRRP6IW1UQ6BH0E92XJZQM", "dateTime": 1516911037284}, {"current_trial": 200, "trialdata": {"rt": -1, "trial_type": "single-stim", "word": "bouquet", "stimulus": "<p id=\"stim\">BOUQUET</p>", "conditions": [24, 1600, "v", 24000], "internal_node_id": "0.0-146.0", "trial": 5, "time_elapsed": 1105562, "serialpos": 3, "key_press": -1, "wordID": 156, "type": "PRES_VIS", "trial_index": 200}, "uniqueid": "MTK2259:3PPTZCWALRRP6IW1UQ6BH0E92XJZQM", "dateTime": 1516911039766}, {"current_trial": 201, "trialdata": {"rt": -1, "trial_type": "single-stim", "word": "muffin", "stimulus": "<p id=\"stim\">MUFFIN</p>", "conditions": [24, 1600, "v", 24000], "internal_node_id": "0.0-147.0", "trial": 5, "time_elapsed": 1108250, "serialpos": 4, "key_press": -1, "wordID": 928, "type": "PRES_VIS", "trial_index": 201}, "uniqueid": "MTK2259:3PPTZCWALRRP6IW1UQ6BH0E92XJZQM", "dateTime": 1516911042454}, {"current_trial": 202, "trialdata": {"rt": -1, "trial_type": "single-stim", "word": "crown", "stimulus": "<p id=\"stim\">CROWN</p>", "conditions": [24, 1600, "v", 24000], "internal_node_id": "0.0-148.0", "trial": 5, "time_elapsed": 1110983, "serialpos": 5, "key_press": -1, "wordID": 414, "type": "PRES_VIS", "trial_index": 202}, "uniqueid": "MTK2259:3PPTZCWALRRP6IW1UQ6BH0E92XJZQM", "dateTime": 1516911045187}, {"current_trial": 203, "trialdata": {"rt": -1, "trial_type": "single-stim", "word": "stream", "stimulus": "<p id=\"stim\">STREAM</p>", "conditions": [24, 1600, "v", 24000], "internal_node_id": "0.0-149.0", "trial": 5, "time_elapsed": 1113485, "serialpos": 6, "key_press": -1, "wordID": 1391, "type": "PRES_VIS", "trial_index": 203}, "uniqueid": "MTK2259:3PPTZCWALRRP6IW1UQ6BH0E92XJZQM", "dateTime": 1516911047689}, {"current_trial": 204, "trialdata": {"rt": -1, "trial_type": "single-stim", "word": "outdoors", "stimulus": "<p id=\"stim\">OUTDOORS</p>", "conditions": [24, 1600, "v", 24000], "internal_node_id": "0.0-150.0", "trial": 5, "time_elapsed": 1116283, "serialpos": 7, "key_press": -1, "wordID": 986, "type": "PRES_VIS", "trial_index": 204}, "uniqueid": "MTK2259:3PPTZCWALRRP6IW1UQ6BH0E92XJZQM", "dateTime": 1516911050487}, {"current_trial": 205, "trialdata": {"rt": -1, "trial_type": "single-stim", "word": "piano", "stimulus": "<p id=\"stim\">PIANO</p>", "conditions": [24, 1600, "v", 24000], "internal_node_id": "0.0-151.0", "trial": 5, "time_elapsed": 1118799, "serialpos": 8, "key_press": -1, "wordID": 1056, "type": "PRES_VIS", "trial_index": 205}, "uniqueid": "MTK2259:3PPTZCWALRRP6IW1UQ6BH0E92XJZQM", "dateTime": 1516911053003}, {"current_trial": 206, "trialdata": {"rt": -1, "trial_type": "single-stim", "word": "dustpan", "stimulus": "<p id=\"stim\">DUSTPAN</p>", "conditions": [24, 1600, "v", 24000], "internal_node_id": "0.0-152.0", "trial": 5, "time_elapsed": 1121438, "serialpos": 9, "key_press": -1, "wordID": 508, "type": "PRES_VIS", "trial_index": 206}, "uniqueid": "MTK2259:3PPTZCWALRRP6IW1UQ6BH0E92XJZQM", "dateTime": 1516911055642}, {"current_trial": 207, "trialdata": {"rt": -1, "trial_type": "single-stim", "word": "kleenex", "stimulus": "<p id=\"stim\">KLEENEX</p>", "conditions": [24, 1600, "v", 24000], "internal_node_id": "0.0-153.0", "trial": 5, "time_elapsed": 1124204, "serialpos": 10, "key_press": -1, "wordID": 781, "type": "PRES_VIS", "trial_index": 207}, "uniqueid": "MTK2259:3PPTZCWALRRP6IW1UQ6BH0E92XJZQM", "dateTime": 1516911058408}, {"current_trial": 208, "trialdata": {"rt": -1, "trial_type": "single-stim", "word": "blouse", "stimulus": "<p id=\"stim\">BLOUSE</p>", "conditions": [24, 1600, "v", 24000], "internal_node_id": "0.0-154.0", "trial": 5, "time_elapsed": 1126869, "serialpos": 11, "key_press": -1, "wordID": 138, "type": "PRES_VIS", "trial_index": 208}, "uniqueid": "MTK2259:3PPTZCWALRRP6IW1UQ6BH0E92XJZQM", "dateTime": 1516911061073}, {"current_trial": 209, "trialdata": {"rt": -1, "trial_type": "single-stim", "word": "stamp", "stimulus": "<p id=\"stim\">STAMP</p>", "conditions": [24, 1600, "v", 24000], "internal_node_id": "0.0-155.0", "trial": 5, "time_elapsed": 1129495, "serialpos": 12, "key_press": -1, "wordID": 1369, "type": "PRES_VIS", "trial_index": 209}, "uniqueid": "MTK2259:3PPTZCWALRRP6IW1UQ6BH0E92XJZQM", "dateTime": 1516911063699}, {"current_trial": 210, "trialdata": {"rt": -1, "trial_type": "single-stim", "word": "waitress", "stimulus": "<p id=\"stim\">WAITRESS</p>", "conditions": [24, 1600, "v", 24000], "internal_node_id": "0.0-156.0", "trial": 5, "time_elapsed": 1132062, "serialpos": 13, "key_press": -1, "wordID": 1580, "type": "PRES_VIS", "trial_index": 210}, "uniqueid": "MTK2259:3PPTZCWALRRP6IW1UQ6BH0E92XJZQM", "dateTime": 1516911066266}, {"current_trial": 211, "trialdata": {"rt": -1, "trial_type": "single-stim", "word": "flute", "stimulus": "<p id=\"stim\">FLUTE</p>", "conditions": [24, 1600, "v", 24000], "internal_node_id": "0.0-157.0", "trial": 5, "time_elapsed": 1134723, "serialpos": 14, "key_press": -1, "wordID": 584, "type": "PRES_VIS", "trial_index": 211}, "uniqueid": "MTK2259:3PPTZCWALRRP6IW1UQ6BH0E92XJZQM", "dateTime": 1516911068927}, {"current_trial": 212, "trialdata": {"rt": -1, "trial_type": "single-stim", "word": "guitar", "stimulus": "<p id=\"stim\">GUITAR</p>", "conditions": [24, 1600, "v", 24000], "internal_node_id": "0.0-158.0", "trial": 5, "time_elapsed": 1137449, "serialpos": 15, "key_press": -1, "wordID": 669, "type": "PRES_VIS", "trial_index": 212}, "uniqueid": "MTK2259:3PPTZCWALRRP6IW1UQ6BH0E92XJZQM", "dateTime": 1516911071653}, {"current_trial": 213, "trialdata": {"rt": -1, "trial_type": "single-stim", "word": "dime", "stimulus": "<p id=\"stim\">DIME</p>", "conditions": [24, 1600, "v", 24000], "internal_node_id": "0.0-159.0", "trial": 5, "time_elapsed": 1139966, "serialpos": 16, "key_press": -1, "wordID": 465, "type": "PRES_VIS", "trial_index": 213}, "uniqueid": "MTK2259:3PPTZCWALRRP6IW1UQ6BH0E92XJZQM", "dateTime": 1516911074170}, {"current_trial": 214, "trialdata": {"rt": -1, "trial_type": "single-stim", "word": "drawing", "stimulus": "<p id=\"stim\">DRAWING</p>", "conditions": [24, 1600, "v", 24000], "internal_node_id": "0.0-160.0", "trial": 5, "time_elapsed": 1142439, "serialpos": 17, "key_press": -1, "wordID": 493, "type": "PRES_VIS", "trial_index": 214}, "uniqueid": "MTK2259:3PPTZCWALRRP6IW1UQ6BH0E92XJZQM", "dateTime": 1516911076643}, {"current_trial": 215, "trialdata": {"rt": -1, "trial_type": "single-stim", "word": "blackboard", "stimulus": "<p id=\"stim\">BLACKBOARD</p>", "conditions": [24, 1600, "v", 24000], "internal_node_id": "0.0-161.0", "trial": 5, "time_elapsed": 1145192, "serialpos": 18, "key_press": -1, "wordID": 132, "type": "PRES_VIS", "trial_index": 215}, "uniqueid": "MTK2259:3PPTZCWALRRP6IW1UQ6BH0E92XJZQM", "dateTime": 1516911079396}, {"current_trial": 216, "trialdata": {"rt": -1, "trial_type": "single-stim", "word": "jungle", "stimulus": "<p id=\"stim\">JUNGLE</p>", "conditions": [24, 1600, "v", 24000], "internal_node_id": "0.0-162.0", "trial": 5, "time_elapsed": 1147956, "serialpos": 19, "key_press": -1, "wordID": 763, "type": "PRES_VIS", "trial_index": 216}, "uniqueid": "MTK2259:3PPTZCWALRRP6IW1UQ6BH0E92XJZQM", "dateTime": 1516911082161}, {"current_trial": 217, "trialdata": {"rt": -1, "trial_type": "single-stim", "word": "fox", "stimulus": "<p id=\"stim\">FOX</p>", "conditions": [24, 1600, "v", 24000], "internal_node_id": "0.0-163.0", "trial": 5, "time_elapsed": 1150451, "serialpos": 20, "key_press": -1, "wordID": 597, "type": "PRES_VIS", "trial_index": 217}, "uniqueid": "MTK2259:3PPTZCWALRRP6IW1UQ6BH0E92XJZQM", "dateTime": 1516911084655}, {"current_trial": 218, "trialdata": {"rt": -1, "trial_type": "single-stim", "word": "market", "stimulus": "<p id=\"stim\">MARKET</p>", "conditions": [24, 1600, "v", 24000], "internal_node_id": "0.0-164.0", "trial": 5, "time_elapsed": 1152999, "serialpos": 21, "key_press": -1, "wordID": 870, "type": "PRES_VIS", "trial_index": 218}, "uniqueid": "MTK2259:3PPTZCWALRRP6IW1UQ6BH0E92XJZQM", "dateTime": 1516911087203}, {"current_trial": 219, "trialdata": {"rt": -1, "trial_type": "single-stim", "word": "leader", "stimulus": "<p id=\"stim\">LEADER</p>", "conditions": [24, 1600, "v", 24000], "internal_node_id": "0.0-165.0", "trial": 5, "time_elapsed": 1155588, "serialpos": 22, "key_press": -1, "wordID": 806, "type": "PRES_VIS", "trial_index": 219}, "uniqueid": "MTK2259:3PPTZCWALRRP6IW1UQ6BH0E92XJZQM", "dateTime": 1516911089792}, {"current_trial": 220, "trialdata": {"rt": -1, "trial_type": "single-stim", "word": "pigeon", "stimulus": "<p id=\"stim\">PIGEON</p>", "conditions": [24, 1600, "v", 24000], "internal_node_id": "0.0-166.0", "trial": 5, "time_elapsed": 1158172, "serialpos": 23, "key_press": -1, "wordID": 1064, "type": "PRES_VIS", "trial_index": 220}, "uniqueid": "MTK2259:3PPTZCWALRRP6IW1UQ6BH0E92XJZQM", "dateTime": 1516911092376}, {"current_trial": 221, "trialdata": {"rt": -1, "trial_type": "single-stim", "stimulus": "", "internal_node_id": "0.0-167.0-0.0", "time_elapsed": 1160453, "key_press": -1, "type": "PRE_RECALL_DELAY", "trial_index": 221}, "uniqueid": "MTK2259:3PPTZCWALRRP6IW1UQ6BH0E92XJZQM", "dateTime": 1516911094657}, {"current_trial": 222, "trialdata": {"rt": -1000, "trial_type": "single-audio", "stimulus": "/static/audio/400Hz.wav", "internal_node_id": "0.0-168.0", "time_elapsed": 1160958, "key_press": -1, "type": "PRE_RECALL_ALERT", "trial_index": 222}, "uniqueid": "MTK2259:3PPTZCWALRRP6IW1UQ6BH0E92XJZQM", "dateTime": 1516911095162}, {"current_trial": 223, "trialdata": {"rt": [3343, 5266, 7491, 9474, 11018, 13396, 15116, 19055, 22508, 26715, 32570, 39237, 45859, 53162, 58000], "recwords": ["pigeon", "crib", "infant", "stream", "skirt", "muffin", "dustpan", "kleenex", "waitress", "stamp", "guitar", "skirt", "piano", "bouquet", "outdoors"], "key_times": [797, 1195, 1608, 1827, 2148, 2336, 2625, 2859, 3343, 4639, 4846, 4969, 5085, 5266, 5608, 6631, 6824, 6921, 7072, 7190, 7491, 8178, 8366, 8606, 8705, 8868, 9194, 9474, 9977, 10098, 10278, 10389, 10613, 11018, 12371, 12551, 12672, 12834, 12940, 13108, 13396, 13939, 14087, 14190, 14347, 14550, 14699, 14884, 15116, 17623, 17846, 18071, 18251, 18420, 18539, 18794, 19055, 20102, 20370, 20904, 21532, 21746, 21853, 22038, 22186, 22508, 25516, 25668, 25849, 26146, 26393, 26715, 31206, 31417, 31617, 31754, 31889, 32211, 32570, 36657, 36782, 37014, 37104, 37323, 39237, 44745, 44915, 45099, 45279, 45552, 45859, 49590, 49799, 50052, 52202, 52492, 52617, 52846, 53162, 56689, 56848, 56949, 57155, 57331, 57499, 57604, 57754, 58000], "trial_type": "free-recall", "conditions": [24, 1600, "v", 24000], "internal_node_id": "0.0-169.0-0.0", "key_presses": [80, 69, 8, 73, 71, 69, 79, 78, 13, 67, 82, 73, 66, 32, 73, 78, 70, 65, 78, 84, 13, 83, 84, 82, 69, 65, 77, 13, 83, 75, 73, 82, 84, 13, 77, 85, 70, 70, 73, 78, 13, 68, 85, 83, 84, 80, 65, 78, 13, 75, 76, 69, 69, 78, 69, 88, 13, 87, 65, 73, 84, 82, 69, 83, 83, 13, 83, 84, 65, 77, 80, 13, 71, 85, 73, 84, 65, 82, 13, 83, 75, 73, 82, 84, 13, 80, 73, 65, 78, 79, 13, 66, 79, 85, 81, 85, 69, 84, 13, 79, 85, 84, 68, 79, 79, 82, 83, 13], "trial": 5, "time_elapsed": 1220950, "type": "FREE_RECALL", "trial_index": 223}, "uniqueid": "MTK2259:3PPTZCWALRRP6IW1UQ6BH0E92XJZQM", "dateTime": 1516911155171}, {"current_trial": 224, "trialdata": {"rt": 1639, "trial_type": "text", "internal_node_id": "0.0-170.0", "time_elapsed": 1224636, "key_press": 32, "type": "INSTRUCTIONS", "trial_index": 224}, "uniqueid": "MTK2259:3PPTZCWALRRP6IW1UQ6BH0E92XJZQM", "dateTime": 1516911158840}, {"current_trial": 225, "trialdata": {"rt": [2107, 4045, 7372, 11867, 13662, 15512, 17897, 19259], "trial_type": "math-distractor", "key_times": [1766, 1882, 2107, 3606, 3830, 4045, 6909, 7098, 7372, 10486, 10681, 11867, 13245, 13448, 13662, 15314, 15512, 17463, 17686, 17897, 19004, 19259, 20952, 21132, 22655, 23137], "responses": ["10", "14", "13", "19", "17", "9", "15", "5"], "num2": [5, 4, 7, 9, 9, 1, 3, 1, 5], "num3": [1, 2, 4, 5, 1, 6, 9, 3, 4], "conditions": [12, 800, "v", 24000], "internal_node_id": "0.0-171.0", "key_presses": [97, 96, 13, 97, 100, 13, 97, 99, 13, 97, 105, 13, 97, 103, 13, 105, 13, 97, 101, 13, 101, 13, 97, 100, 8, 99], "trial": 6, "time_elapsed": 1250660, "type": "DISTRACTOR", "trial_index": 225, "num1": [4, 8, 2, 5, 7, 2, 3, 1, 4]}, "uniqueid": "MTK2259:3PPTZCWALRRP6IW1UQ6BH0E92XJZQM", "dateTime": 1516911184864}, {"current_trial": 226, "trialdata": {"rt": -1, "trial_type": "single-stim", "stimulus": "<p id=\"stim\">10</p>", "internal_node_id": "0.0-172.0-0.0", "time_elapsed": 1253669, "key_press": -1, "trial_index": 226}, "uniqueid": "MTK2259:3PPTZCWALRRP6IW1UQ6BH0E92XJZQM", "dateTime": 1516911187873}, {"current_trial": 227, "trialdata": {"rt": -1, "trial_type": "single-stim", "stimulus": "<p id=\"stim\">9</p>", "internal_node_id": "0.0-172.0-1.0", "time_elapsed": 1254679, "key_press": -1, "trial_index": 227}, "uniqueid": "MTK2259:3PPTZCWALRRP6IW1UQ6BH0E92XJZQM", "dateTime": 1516911188883}, {"current_trial": 228, "trialdata": {"rt": -1, "trial_type": "single-stim", "stimulus": "<p id=\"stim\">8</p>", "internal_node_id": "0.0-172.0-2.0", "time_elapsed": 1255688, "key_press": -1, "trial_index": 228}, "uniqueid": "MTK2259:3PPTZCWALRRP6IW1UQ6BH0E92XJZQM", "dateTime": 1516911189892}, {"current_trial": 229, "trialdata": {"rt": -1, "trial_type": "single-stim", "stimulus": "<p id=\"stim\">7</p>", "internal_node_id": "0.0-172.0-3.0", "time_elapsed": 1256699, "key_press": -1, "trial_index": 229}, "uniqueid": "MTK2259:3PPTZCWALRRP6IW1UQ6BH0E92XJZQM", "dateTime": 1516911190904}, {"current_trial": 230, "trialdata": {"rt": -1, "trial_type": "single-stim", "stimulus": "<p id=\"stim\">6</p>", "internal_node_id": "0.0-172.0-4.0", "time_elapsed": 1257702, "key_press": -1, "trial_index": 230}, "uniqueid": "MTK2259:3PPTZCWALRRP6IW1UQ6BH0E92XJZQM", "dateTime": 1516911191906}, {"current_trial": 231, "trialdata": {"rt": -1, "trial_type": "single-stim", "stimulus": "<p id=\"stim\">5</p>", "internal_node_id": "0.0-172.0-5.0", "time_elapsed": 1258710, "key_press": -1, "trial_index": 231}, "uniqueid": "MTK2259:3PPTZCWALRRP6IW1UQ6BH0E92XJZQM", "dateTime": 1516911192914}, {"current_trial": 232, "trialdata": {"rt": -1, "trial_type": "single-stim", "stimulus": "<p id=\"stim\">4</p>", "internal_node_id": "0.0-172.0-6.0", "time_elapsed": 1259719, "key_press": -1, "trial_index": 232}, "uniqueid": "MTK2259:3PPTZCWALRRP6IW1UQ6BH0E92XJZQM", "dateTime": 1516911193923}, {"current_trial": 233, "trialdata": {"rt": -1, "trial_type": "single-stim", "stimulus": "<p id=\"stim\">3</p>", "internal_node_id": "0.0-172.0-7.0", "time_elapsed": 1260728, "key_press": -1, "trial_index": 233}, "uniqueid": "MTK2259:3PPTZCWALRRP6IW1UQ6BH0E92XJZQM", "dateTime": 1516911194932}, {"current_trial": 234, "trialdata": {"rt": -1, "trial_type": "single-stim", "stimulus": "<p id=\"stim\">2</p>", "internal_node_id": "0.0-172.0-8.0", "time_elapsed": 1261738, "key_press": -1, "trial_index": 234}, "uniqueid": "MTK2259:3PPTZCWALRRP6IW1UQ6BH0E92XJZQM", "dateTime": 1516911195942}, {"current_trial": 235, "trialdata": {"rt": -1, "trial_type": "single-stim", "stimulus": "<p id=\"stim\">1</p>", "internal_node_id": "0.0-172.0-9.0", "time_elapsed": 1262746, "key_press": -1, "trial_index": 235}, "uniqueid": "MTK2259:3PPTZCWALRRP6IW1UQ6BH0E92XJZQM", "dateTime": 1516911196950}, {"current_trial": 236, "trialdata": {"rt": -1, "trial_type": "single-stim", "stimulus": "<p id=\"stim\">+</p>", "internal_node_id": "0.0-173.0-0.0", "time_elapsed": 1264250, "key_press": -1, "type": "FIXATION", "trial_index": 236}, "uniqueid": "MTK2259:3PPTZCWALRRP6IW1UQ6BH0E92XJZQM", "dateTime": 1516911198454}, {"current_trial": 237, "trialdata": {"rt": -1, "trial_type": "single-stim", "word": "dragon", "stimulus": "<p id=\"stim\">DRAGON</p>", "conditions": [12, 800, "v", 24000], "internal_node_id": "0.0-174.0", "trial": 6, "time_elapsed": 1265058, "serialpos": 0, "key_press": -1, "wordID": 491, "type": "PRES_VIS", "trial_index": 237}, "uniqueid": "MTK2259:3PPTZCWALRRP6IW1UQ6BH0E92XJZQM", "dateTime": 1516911199262}, {"current_trial": 238, "trialdata": {"rt": -1, "trial_type": "single-stim", "word": "venus", "stimulus": "<p id=\"stim\">VENUS</p>", "conditions": [12, 800, "v", 24000], "internal_node_id": "0.0-175.0", "trial": 6, "time_elapsed": 1266948, "serialpos": 1, "key_press": -1, "wordID": 1556, "type": "PRES_VIS", "trial_index": 238}, "uniqueid": "MTK2259:3PPTZCWALRRP6IW1UQ6BH0E92XJZQM", "dateTime": 1516911201153}, {"current_trial": 239, "trialdata": {"rt": -1, "trial_type": "single-stim", "word": "scissors", "stimulus": "<p id=\"stim\">SCISSORS</p>", "conditions": [12, 800, "v", 24000], "internal_node_id": "0.0-176.0", "trial": 6, "time_elapsed": 1268717, "serialpos": 2, "key_press": -1, "wordID": 1249, "type": "PRES_VIS", "trial_index": 239}, "uniqueid": "MTK2259:3PPTZCWALRRP6IW1UQ6BH0E92XJZQM", "dateTime": 1516911202921}, {"current_trial": 240, "trialdata": {"rt": -1, "trial_type": "single-stim", "word": "termite", "stimulus": "<p id=\"stim\">TERMITE</p>", "conditions": [12, 800, "v", 24000], "internal_node_id": "0.0-177.0", "trial": 6, "time_elapsed": 1270370, "serialpos": 3, "key_press": -1, "wordID": 1450, "type": "PRES_VIS", "trial_index": 240}, "uniqueid": "MTK2259:3PPTZCWALRRP6IW1UQ6BH0E92XJZQM", "dateTime": 1516911204575}, {"current_trial": 241, "trialdata": {"rt": -1, "trial_type": "single-stim", "word": "salmon", "stimulus": "<p id=\"stim\">SALMON</p>", "conditions": [12, 800, "v", 24000], "internal_node_id": "0.0-178.0", "trial": 6, "time_elapsed": 1272135, "serialpos": 4, "key_press": -1, "wordID": 1226, "type": "PRES_VIS", "trial_index": 241}, "uniqueid": "MTK2259:3PPTZCWALRRP6IW1UQ6BH0E92XJZQM", "dateTime": 1516911206339}, {"current_trial": 242, "trialdata": {"rt": -1, "trial_type": "single-stim", "word": "banjo", "stimulus": "<p id=\"stim\">BANJO</p>", "conditions": [12, 800, "v", 24000], "internal_node_id": "0.0-179.0", "trial": 6, "time_elapsed": 1273846, "serialpos": 5, "key_press": -1, "wordID": 81, "type": "PRES_VIS", "trial_index": 242}, "uniqueid": "MTK2259:3PPTZCWALRRP6IW1UQ6BH0E92XJZQM", "dateTime": 1516911208050}, {"current_trial": 243, "trialdata": {"rt": -1, "trial_type": "single-stim", "word": "fiddle", "stimulus": "<p id=\"stim\">FIDDLE</p>", "conditions": [12, 800, "v", 24000], "internal_node_id": "0.0-180.0", "trial": 6, "time_elapsed": 1275478, "serialpos": 6, "key_press": -1, "wordID": 560, "type": "PRES_VIS", "trial_index": 243}, "uniqueid": "MTK2259:3PPTZCWALRRP6IW1UQ6BH0E92XJZQM", "dateTime": 1516911209682}, {"current_trial": 244, "trialdata": {"rt": -1, "trial_type": "single-stim", "word": "pliers", "stimulus": "<p id=\"stim\">PLIERS</p>", "conditions": [12, 800, "v", 24000], "internal_node_id": "0.0-181.0", "trial": 6, "time_elapsed": 1277245, "serialpos": 7, "key_press": -1, "wordID": 1088, "type": "PRES_VIS", "trial_index": 244}, "uniqueid": "MTK2259:3PPTZCWALRRP6IW1UQ6BH0E92XJZQM", "dateTime": 1516911211449}, {"current_trial": 245, "trialdata": {"rt": -1, "trial_type": "single-stim", "word": "liver", "stimulus": "<p id=\"stim\">LIVER</p>", "conditions": [12, 800, "v", 24000], "internal_node_id": "0.0-182.0", "trial": 6, "time_elapsed": 1278914, "serialpos": 8, "key_press": -1, "wordID": 832, "type": "PRES_VIS", "trial_index": 245}, "uniqueid": "MTK2259:3PPTZCWALRRP6IW1UQ6BH0E92XJZQM", "dateTime": 1516911213118}, {"current_trial": 246, "trialdata": {"rt": -1, "trial_type": "single-stim", "word": "forehead", "stimulus": "<p id=\"stim\">FOREHEAD</p>", "conditions": [12, 800, "v", 24000], "internal_node_id": "0.0-183.0", "trial": 6, "time_elapsed": 1280558, "serialpos": 9, "key_press": -1, "wordID": 591, "type": "PRES_VIS", "trial_index": 246}, "uniqueid": "MTK2259:3PPTZCWALRRP6IW1UQ6BH0E92XJZQM", "dateTime": 1516911214762}, {"current_trial": 247, "trialdata": {"rt": -1, "trial_type": "single-stim", "word": "icing", "stimulus": "<p id=\"stim\">ICING</p>", "conditions": [12, 800, "v", 24000], "internal_node_id": "0.0-184.0", "trial": 6, "time_elapsed": 1282389, "serialpos": 10, "key_press": -1, "wordID": 731, "type": "PRES_VIS", "trial_index": 247}, "uniqueid": "MTK2259:3PPTZCWALRRP6IW1UQ6BH0E92XJZQM", "dateTime": 1516911216593}, {"current_trial": 248, "trialdata": {"rt": -1, "trial_type": "single-stim", "word": "judge", "stimulus": "<p id=\"stim\">JUDGE</p>", "conditions": [12, 800, "v", 24000], "internal_node_id": "0.0-185.0", "trial": 6, "time_elapsed": 1284166, "serialpos": 11, "key_press": -1, "wordID": 760, "type": "PRES_VIS", "trial_index": 248}, "uniqueid": "MTK2259:3PPTZCWALRRP6IW1UQ6BH0E92XJZQM", "dateTime": 1516911218370}, {"current_trial": 249, "trialdata": {"rt": -1, "trial_type": "single-stim", "stimulus": "", "i