{"assignmentId": "3EFVCAY5L4GT0ZR1QAMP7F5JPYE8J3", "workerId": "MTK2350", "questiondata": {"origin": "Albania", "strat-rehearsal": "100", "marital": "Married/Domestic Partnership", "education": "Master's degree", "ethnicity": "Not Hispanic", "color_depth": 24, "distracted": "No", "wrote-notes": "No", "strat-other": "no other that trying to memorize the words", "screen_width": 1280, "avail_screen_width": 1280, "avail_screen_height": 680, "strat-image": "55", "language": "albanian", "gender": "Female", "age": "33", "gender_other": "", "race": ["White"], "strat-categorize": "45", "pixel_depth": 24, "strat-spatial": "34", "strat-story": "21", "race_other": "", "screen_height": 720}, "bonus": 0, "hitId": "37Y5RYYI0PCARJD5VA2TQVHFTVCSX3", "counterbalance": 1468, "useragent": "Mozilla/5.0 (Windows NT 10.0; Win64; x64) AppleWebKit/537.36 (KHTML, like Gecko) Chrome/63.0.3239.132 Safari/537.36", "eventdata": [{"eventtype": "initialized", "interval": 0, "value": null, "timestamp": 1516996273673}, {"eventtype": "window_resize", "interval": 0, "value": [1283, 672], "timestamp": 1516996273673}, {"eventtype": "focus", "interval": 47944, "value": "off", "timestamp": 1516996321617}, {"eventtype": "focus", "interval": 6864, "value": "on", "timestamp": 1516996328481}, {"eventtype": "focus", "interval": 15097, "value": "off", "timestamp": 1516996343578}, {"eventtype": "focus", "interval": 4435, "value": "on", "timestamp": 1516996348013}, {"eventtype": "focus", "interval": 35447, "value": "off", "timestamp": 1516996383460}, {"eventtype": "focus", "interval": 9034, "value": "on", "timestamp": 1516996392494}, {"eventtype": "focus", "interval": 2089332, "value": "off", "timestamp": 1516998481826}, {"eventtype": "focus", "interval": 1641149, "value": "on", "timestamp": 1517000122975}, {"eventtype": "focus", "interval": 1456839, "value": "off", "timestamp": 1517001579814}, {"eventtype": "focus", "interval": 196484, "value": "on", "timestamp": 1517001776298}], "data": [{"current_trial": 0, "trialdata": {"rt": 2970, "trial_type": "text", "internal_node_id": "0.0-0.0", "time_elapsed": 2975, "key_press": 32, "type": "INSTRUCTIONS", "trial_index": 0}, "uniqueid": "MTK2350:3EFVCAY5L4GT0ZR1QAMP7F5JPYE8J3", "dateTime": 1516996279034}, {"current_trial": 1, "trialdata": {"rt": 35339, "trial_type": "text", "internal_node_id": "0.0-1.0", "time_elapsed": 38318, "key_press": 32, "type": "INSTRUCTIONS", "trial_index": 1}, "uniqueid": "MTK2350:3EFVCAY5L4GT0ZR1QAMP7F5JPYE8J3", "dateTime": 1516996314375}, {"current_trial": 2, "trialdata": {"rt": [22548], "trial_type": "audio-test", "responses": ["ocean"], "internal_node_id": "0.0-2.0", "time_elapsed": 60881, "type": "AUDIO_TEST", "trial_index": 2}, "uniqueid": "MTK2350:3EFVCAY5L4GT0ZR1QAMP7F5JPYE8J3", "dateTime": 1516996336938}, {"current_trial": 3, "trialdata": {"rt": [17881], "trial_type": "audio-test", "responses": ["crystal"], "internal_node_id": "0.0-3.0", "time_elapsed": 78765, "type": "AUDIO_TEST", "trial_index": 3}, "uniqueid": "MTK2350:3EFVCAY5L4GT0ZR1QAMP7F5JPYE8J3", "dateTime": 1516996354822}, {"current_trial": 4, "trialdata": {"rt": [50804], "trial_type": "audio-test", "responses": ["spice"], "internal_node_id": "0.0-4.0", "time_elapsed": 129573, "type": "AUDIO_TEST", "trial_index": 4}, "uniqueid": "MTK2350:3EFVCAY5L4GT0ZR1QAMP7F5JPYE8J3", "dateTime": 1516996405630}, {"current_trial": 5, "trialdata": {"rt": 51530, "trial_type": "survey-text", "responses": "{\"Q0\":\"11:30 pm\",\"Q1\":\"6:30 am\",\"Q2\":\"5\\n5\"}", "internal_node_id": "0.0-5.0", "time_elapsed": 181858, "type": "SLEEP_SURVEY", "trial_index": 5}, "uniqueid": "MTK2350:3EFVCAY5L4GT0ZR1QAMP7F5JPYE8J3", "dateTime": 1516996457915}, {"current_trial": 6, "trialdata": {"rt": 478417, "trial_type": "text", "internal_node_id": "0.0-6.0", "time_elapsed": 661278, "key_press": 32, "type": "INSTRUCTIONS", "trial_index": 6}, "uniqueid": "MTK2350:3EFVCAY5L4GT0ZR1QAMP7F5JPYE8J3", "dateTime": 1516996937335}, {"current_trial": 7, "trialdata": {"rt": 23647, "trial_type": "text", "internal_node_id": "0.0-7.0", "time_elapsed": 685427, "key_press": 32, "type": "INSTRUCTIONS", "trial_index": 7}, "uniqueid": "MTK2350:3EFVCAY5L4GT0ZR1QAMP7F5JPYE8J3", "dateTime": 1516996961484}, {"current_trial": 8, "trialdata": {"rt": 11048, "trial_type": "text", "internal_node_id": "0.0-8.0", "time_elapsed": 696978, "key_press": 32, "type": "INSTRUCTIONS", "trial_index": 8}, "uniqueid": "MTK2350:3EFVCAY5L4GT0ZR1QAMP7F5JPYE8J3", "dateTime": 1516996973035}, {"current_trial": 9, "trialdata": {"rt": [4563, 6109, 8982, 11371, 13940, 15706, 17834], "trial_type": "math-distractor", "key_times": [4148, 4356, 4563, 5933, 6109, 8589, 8775, 8982, 11007, 11166, 11371, 13589, 13761, 13940, 15337, 15463, 15706, 17421, 17599, 17834], "responses": ["14", "6", "26", "14", "21", "15", "12"], "num2": [2, 2, 9, 3, 9, 8, 8, 3], "num3": [5, 2, 9, 3, 6, 5, 3, 8], "conditions": [18, 1200, "v", 18000], "internal_node_id": "0.0-9.0", "key_presses": [97, 100, 13, 102, 13, 98, 102, 13, 97, 100, 13, 98, 97, 13, 97, 101, 13, 97, 98, 13], "trial": 0, "time_elapsed": 715990, "type": "DISTRACTOR", "trial_index": 9, "num1": [7, 2, 8, 8, 6, 2, 1, 3]}, "uniqueid": "MTK2350:3EFVCAY5L4GT0ZR1QAMP7F5JPYE8J3", "dateTime": 1516996992047}, {"current_trial": 10, "trialdata": {"rt": -1, "trial_type": "single-stim", "stimulus": "<p id=\"stim\">10</p>", "internal_node_id": "0.0-10.0-0.0", "time_elapsed": 718994, "key_press": -1, "trial_index": 10}, "uniqueid": "MTK2350:3EFVCAY5L4GT0ZR1QAMP7F5JPYE8J3", "dateTime": 1516996995051}, {"current_trial": 11, "trialdata": {"rt": -1, "trial_type": "single-stim", "stimulus": "<p id=\"stim\">9</p>", "internal_node_id": "0.0-10.0-1.0", "time_elapsed": 719997, "key_press": -1, "trial_index": 11}, "uniqueid": "MTK2350:3EFVCAY5L4GT0ZR1QAMP7F5JPYE8J3", "dateTime": 1516996996054}, {"current_trial": 12, "trialdata": {"rt": -1, "trial_type": "single-stim", "stimulus": "<p id=\"stim\">8</p>", "internal_node_id": "0.0-10.0-2.0", "time_elapsed": 721000, "key_press": -1, "trial_index": 12}, "uniqueid": "MTK2350:3EFVCAY5L4GT0ZR1QAMP7F5JPYE8J3", "dateTime": 1516996997057}, {"current_trial": 13, "trialdata": {"rt": -1, "trial_type": "single-stim", "stimulus": "<p id=\"stim\">7</p>", "internal_node_id": "0.0-10.0-3.0", "time_elapsed": 722002, "key_press": -1, "trial_index": 13}, "uniqueid": "MTK2350:3EFVCAY5L4GT0ZR1QAMP7F5JPYE8J3", "dateTime": 1516996998059}, {"current_trial": 14, "trialdata": {"rt": -1, "trial_type": "single-stim", "stimulus": "<p id=\"stim\">6</p>", "internal_node_id": "0.0-10.0-4.0", "time_elapsed": 723004, "key_press": -1, "trial_index": 14}, "uniqueid": "MTK2350:3EFVCAY5L4GT0ZR1QAMP7F5JPYE8J3", "dateTime": 1516996999061}, {"current_trial": 15, "trialdata": {"rt": -1, "trial_type": "single-stim", "stimulus": "<p id=\"stim\">5</p>", "internal_node_id": "0.0-10.0-5.0", "time_elapsed": 724006, "key_press": -1, "trial_index": 15}, "uniqueid": "MTK2350:3EFVCAY5L4GT0ZR1QAMP7F5JPYE8J3", "dateTime": 1516997000063}, {"current_trial": 16, "trialdata": {"rt": -1, "trial_type": "single-stim", "stimulus": "<p id=\"stim\">4</p>", "internal_node_id": "0.0-10.0-6.0", "time_elapsed": 725007, "key_press": -1, "trial_index": 16}, "uniqueid": "MTK2350:3EFVCAY5L4GT0ZR1QAMP7F5JPYE8J3", "dateTime": 1516997001064}, {"current_trial": 17, "trialdata": {"rt": -1, "trial_type": "single-stim", "stimulus": "<p id=\"stim\">3</p>", "internal_node_id": "0.0-10.0-7.0", "time_elapsed": 726008, "key_press": -1, "trial_index": 17}, "uniqueid": "MTK2350:3EFVCAY5L4GT0ZR1QAMP7F5JPYE8J3", "dateTime": 1516997002066}, {"current_trial": 18, "trialdata": {"rt": -1, "trial_type": "single-stim", "stimulus": "<p id=\"stim\">2</p>", "internal_node_id": "0.0-10.0-8.0", "time_elapsed": 727010, "key_press": -1, "trial_index": 18}, "uniqueid": "MTK2350:3EFVCAY5L4GT0ZR1QAMP7F5JPYE8J3", "dateTime": 1516997003067}, {"current_trial": 19, "trialdata": {"rt": -1, "trial_type": "single-stim", "stimulus": "<p id=\"stim\">1</p>", "internal_node_id": "0.0-10.0-9.0", "time_elapsed": 728012, "key_press": -1, "trial_index": 19}, "uniqueid": "MTK2350:3EFVCAY5L4GT0ZR1QAMP7F5JPYE8J3", "dateTime": 1516997004070}, {"current_trial": 20, "trialdata": {"rt": -1, "trial_type": "single-stim", "stimulus": "<p id=\"stim\">+</p>", "internal_node_id": "0.0-11.0-0.0", "time_elapsed": 729516, "key_press": -1, "type": "FIXATION", "trial_index": 20}, "uniqueid": "MTK2350:3EFVCAY5L4GT0ZR1QAMP7F5JPYE8J3", "dateTime": 1516997005573}, {"current_trial": 21, "trialdata": {"rt": -1, "trial_type": "single-stim", "word": "fireman", "stimulus": "<p id=\"stim\">FIREMAN</p>", "conditions": [18, 1200, "v", 18000], "internal_node_id": "0.0-12.0", "trial": 0, "time_elapsed": 730718, "serialpos": 0, "key_press": -1, "wordID": 568, "type": "PRES_VIS", "trial_index": 21}, "uniqueid": "MTK2350:3EFVCAY5L4GT0ZR1QAMP7F5JPYE8J3", "dateTime": 1516997006776}, {"current_trial": 22, "trialdata": {"rt": -1, "trial_type": "single-stim", "word": "hound", "stimulus": "<p id=\"stim\">HOUND</p>", "conditions": [18, 1200, "v", 18000], "internal_node_id": "0.0-13.0", "trial": 0, "time_elapsed": 732928, "serialpos": 1, "key_press": -1, "wordID": 723, "type": "PRES_VIS", "trial_index": 22}, "uniqueid": "MTK2350:3EFVCAY5L4GT0ZR1QAMP7F5JPYE8J3", "dateTime": 1516997008985}, {"current_trial": 23, "trialdata": {"rt": -1, "trial_type": "single-stim", "word": "rug", "stimulus": "<p id=\"stim\">RUG</p>", "conditions": [18, 1200, "v", 18000], "internal_node_id": "0.0-14.0", "trial": 0, "time_elapsed": 735023, "serialpos": 2, "key_press": -1, "wordID": 1214, "type": "PRES_VIS", "trial_index": 23}, "uniqueid": "MTK2350:3EFVCAY5L4GT0ZR1QAMP7F5JPYE8J3", "dateTime": 1516997011080}, {"current_trial": 24, "trialdata": {"rt": -1, "trial_type": "single-stim", "word": "chemist", "stimulus": "<p id=\"stim\">CHEMIST</p>", "conditions": [18, 1200, "v", 18000], "internal_node_id": "0.0-15.0", "trial": 0, "time_elapsed": 737210, "serialpos": 3, "key_press": -1, "wordID": 291, "type": "PRES_VIS", "trial_index": 24}, "uniqueid": "MTK2350:3EFVCAY5L4GT0ZR1QAMP7F5JPYE8J3", "dateTime": 1516997013267}, {"current_trial": 25, "trialdata": {"rt": -1, "trial_type": "single-stim", "word": "cyclone", "stimulus": "<p id=\"stim\">CYCLONE</p>", "conditions": [18, 1200, "v", 18000], "internal_node_id": "0.0-16.0", "trial": 0, "time_elapsed": 739362, "serialpos": 4, "key_press": -1, "wordID": 430, "type": "PRES_VIS", "trial_index": 25}, "uniqueid": "MTK2350:3EFVCAY5L4GT0ZR1QAMP7F5JPYE8J3", "dateTime": 1516997015419}, {"current_trial": 26, "trialdata": {"rt": -1, "trial_type": "single-stim", "word": "omelet", "stimulus": "<p id=\"stim\">OMELET</p>", "conditions": [18, 1200, "v", 18000], "internal_node_id": "0.0-17.0", "trial": 0, "time_elapsed": 741487, "serialpos": 5, "key_press": -1, "wordID": 975, "type": "PRES_VIS", "trial_index": 26}, "uniqueid": "MTK2350:3EFVCAY5L4GT0ZR1QAMP7F5JPYE8J3", "dateTime": 1516997017544}, {"current_trial": 27, "trialdata": {"rt": -1, "trial_type": "single-stim", "word": "lava", "stimulus": "<p id=\"stim\">LAVA</p>", "conditions": [18, 1200, "v", 18000], "internal_node_id": "0.0-18.0", "trial": 0, "time_elapsed": 743639, "serialpos": 6, "key_press": -1, "wordID": 803, "type": "PRES_VIS", "trial_index": 27}, "uniqueid": "MTK2350:3EFVCAY5L4GT0ZR1QAMP7F5JPYE8J3", "dateTime": 1516997019696}, {"current_trial": 28, "trialdata": {"rt": -1, "trial_type": "single-stim", "word": "flower", "stimulus": "<p id=\"stim\">FLOWER</p>", "conditions": [18, 1200, "v", 18000], "internal_node_id": "0.0-19.0", "trial": 0, "time_elapsed": 745783, "serialpos": 7, "key_press": -1, "wordID": 583, "type": "PRES_VIS", "trial_index": 28}, "uniqueid": "MTK2350:3EFVCAY5L4GT0ZR1QAMP7F5JPYE8J3", "dateTime": 1516997021840}, {"current_trial": 29, "trialdata": {"rt": -1, "trial_type": "single-stim", "word": "parrot", "stimulus": "<p id=\"stim\">PARROT</p>", "conditions": [18, 1200, "v", 18000], "internal_node_id": "0.0-20.0", "trial": 0, "time_elapsed": 747808, "serialpos": 8, "key_press": -1, "wordID": 1014, "type": "PRES_VIS", "trial_index": 29}, "uniqueid": "MTK2350:3EFVCAY5L4GT0ZR1QAMP7F5JPYE8J3", "dateTime": 1516997023865}, {"current_trial": 30, "trialdata": {"rt": -1, "trial_type": "single-stim", "word": "servant", "stimulus": "<p id=\"stim\">SERVANT</p>", "conditions": [18, 1200, "v", 18000], "internal_node_id": "0.0-21.0", "trial": 0, "time_elapsed": 749946, "serialpos": 9, "key_press": -1, "wordID": 1270, "type": "PRES_VIS", "trial_index": 30}, "uniqueid": "MTK2350:3EFVCAY5L4GT0ZR1QAMP7F5JPYE8J3", "dateTime": 1516997026003}, {"current_trial": 31, "trialdata": {"rt": -1, "trial_type": "single-stim", "word": "scissors", "stimulus": "<p id=\"stim\">SCISSORS</p>", "conditions": [18, 1200, "v", 18000], "internal_node_id": "0.0-22.0", "trial": 0, "time_elapsed": 752097, "serialpos": 10, "key_press": -1, "wordID": 1249, "type": "PRES_VIS", "trial_index": 31}, "uniqueid": "MTK2350:3EFVCAY5L4GT0ZR1QAMP7F5JPYE8J3", "dateTime": 1516997028154}, {"current_trial": 32, "trialdata": {"rt": -1, "trial_type": "single-stim", "word": "glass", "stimulus": "<p id=\"stim\">GLASS</p>", "conditions": [18, 1200, "v", 18000], "internal_node_id": "0.0-23.0", "trial": 0, "time_elapsed": 754369, "serialpos": 11, "key_press": -1, "wordID": 638, "type": "PRES_VIS", "trial_index": 32}, "uniqueid": "MTK2350:3EFVCAY5L4GT0ZR1QAMP7F5JPYE8J3", "dateTime": 1516997030426}, {"current_trial": 33, "trialdata": {"rt": -1, "trial_type": "single-stim", "word": "mailman", "stimulus": "<p id=\"stim\">MAILMAN</p>", "conditions": [18, 1200, "v", 18000], "internal_node_id": "0.0-24.0", "trial": 0, "time_elapsed": 756400, "serialpos": 12, "key_press": -1, "wordID": 857, "type": "PRES_VIS", "trial_index": 33}, "uniqueid": "MTK2350:3EFVCAY5L4GT0ZR1QAMP7F5JPYE8J3", "dateTime": 1516997032457}, {"current_trial": 34, "trialdata": {"rt": -1, "trial_type": "single-stim", "word": "friend", "stimulus": "<p id=\"stim\">FRIEND</p>", "conditions": [18, 1200, "v", 18000], "internal_node_id": "0.0-25.0", "trial": 0, "time_elapsed": 758599, "serialpos": 13, "key_press": -1, "wordID": 605, "type": "PRES_VIS", "trial_index": 34}, "uniqueid": "MTK2350:3EFVCAY5L4GT0ZR1QAMP7F5JPYE8J3", "dateTime": 1516997034656}, {"current_trial": 35, "trialdata": {"rt": -1, "trial_type": "single-stim", "word": "dustpan", "stimulus": "<p id=\"stim\">DUSTPAN</p>", "conditions": [18, 1200, "v", 18000], "internal_node_id": "0.0-26.0", "trial": 0, "time_elapsed": 760603, "serialpos": 14, "key_press": -1, "wordID": 508, "type": "PRES_VIS", "trial_index": 35}, "uniqueid": "MTK2350:3EFVCAY5L4GT0ZR1QAMP7F5JPYE8J3", "dateTime": 1516997036660}, {"current_trial": 36, "trialdata": {"rt": -1, "trial_type": "single-stim", "word": "dancer", "stimulus": "<p id=\"stim\">DANCER</p>", "conditions": [18, 1200, "v", 18000], "internal_node_id": "0.0-27.0", "trial": 0, "time_elapsed": 762923, "serialpos": 15, "key_press": -1, "wordID": 436, "type": "PRES_VIS", "trial_index": 36}, "uniqueid": "MTK2350:3EFVCAY5L4GT0ZR1QAMP7F5JPYE8J3", "dateTime": 1516997038980}, {"current_trial": 37, "trialdata": {"rt": -1, "trial_type": "single-stim", "word": "dime", "stimulus": "<p id=\"stim\">DIME</p>", "conditions": [18, 1200, "v", 18000], "internal_node_id": "0.0-28.0", "trial": 0, "time_elapsed": 764993, "serialpos": 16, "key_press": -1, "wordID": 465, "type": "PRES_VIS", "trial_index": 37}, "uniqueid": "MTK2350:3EFVCAY5L4GT0ZR1QAMP7F5JPYE8J3", "dateTime": 1516997041050}, {"current_trial": 38, "trialdata": {"rt": -1, "trial_type": "single-stim", "word": "lily", "stimulus": "<p id=\"stim\">LILY</p>", "conditions": [18, 1200, "v", 18000], "internal_node_id": "0.0-29.0", "trial": 0, "time_elapsed": 767063, "serialpos": 17, "key_press": -1, "wordID": 820, "type": "PRES_VIS", "trial_index": 38}, "uniqueid": "MTK2350:3EFVCAY5L4GT0ZR1QAMP7F5JPYE8J3", "dateTime": 1516997043121}, {"current_trial": 39, "trialdata": {"rt": -1, "trial_type": "single-stim", "stimulus": "", "internal_node_id": "0.0-30.0-0.0", "time_elapsed": 769422, "key_press": -1, "type": "PRE_RECALL_DELAY", "trial_index": 39}, "uniqueid": "MTK2350:3EFVCAY5L4GT0ZR1QAMP7F5JPYE8J3", "dateTime": 1516997045480}, {"current_trial": 40, "trialdata": {"rt": -1000, "trial_type": "single-audio", "stimulus": "/static/audio/400Hz.wav", "internal_node_id": "0.0-31.0", "time_elapsed": 769985, "key_press": -1, "type": "PRE_RECALL_ALERT", "trial_index": 40}, "uniqueid": "MTK2350:3EFVCAY5L4GT0ZR1QAMP7F5JPYE8J3", "dateTime": 1516997046042}, {"current_trial": 41, "trialdata": {"rt": [6534, 12151, 19661, 22860, 27839, 33007, 41332, 45148, 51912, 58491], "recwords": ["lily", "dime", "dustpan", "dancer", "friend", "mailman", "scissors", "glass", "parrot", "flower"], "key_times": [4088, 4806, 5019, 5272, 6534, 8420, 8900, 10037, 11539, 12151, 15954, 16945, 17243, 17486, 18028, 18500, 18973, 19661, 20663, 20900, 21475, 21840, 22049, 22218, 22860, 24875, 25048, 25460, 25775, 26204, 26518, 27839, 30363, 30751, 31292, 31476, 31730, 32191, 32608, 33007, 36916, 37155, 37633, 38494, 38655, 39306, 39666, 39894, 41332, 43217, 43687, 44065, 44400, 44537, 45148, 48937, 49312, 49581, 49735, 50356, 50890, 51912, 53860, 54366, 54555, 54991, 55191, 56582, 56797, 57530, 57696, 57878, 58491, 59311, 59491, 59663, 59962], "trial_type": "free-recall", "conditions": [18, 1200, "v", 18000], "internal_node_id": "0.0-32.0-0.0", "key_presses": [76, 73, 76, 89, 13, 68, 73, 77, 69, 13, 68, 85, 83, 84, 80, 65, 78, 13, 68, 65, 78, 67, 69, 82, 13, 70, 82, 73, 69, 78, 68, 13, 77, 65, 73, 76, 77, 65, 78, 13, 83, 67, 73, 83, 83, 79, 82, 83, 13, 71, 76, 65, 83, 83, 13, 80, 65, 82, 82, 79, 84, 13, 70, 76, 79, 69, 82, 8, 8, 87, 69, 82, 13, 83, 69, 82, 86], "trial": 0, "time_elapsed": 829991, "type": "FREE_RECALL", "trial_index": 41}, "uniqueid": "MTK2350:3EFVCAY5L4GT0ZR1QAMP7F5JPYE8J3", "dateTime": 1516997106053}, {"current_trial": 42, "trialdata": {"rt": 11928, "trial_type": "text", "internal_node_id": "0.0-33.0", "time_elapsed": 843925, "key_press": 32, "type": "INSTRUCTIONS", "trial_index": 42}, "uniqueid": "MTK2350:3EFVCAY5L4GT0ZR1QAMP7F5JPYE8J3", "dateTime": 1516997119982}, {"current_trial": 43, "trialdata": {"rt": [2490, 5778, 7974, 10634, 12347, 14337, 16657], "trial_type": "math-distractor", "key_times": [2109, 2295, 2490, 4869, 5035, 5778, 7502, 7676, 7974, 10068, 10305, 10634, 11896, 12079, 12347, 13938, 14107, 14337, 16265, 16438, 16657], "responses": ["20", "14", "18", "13", "19", "13", "16"], "num2": [8, 5, 7, 6, 9, 4, 7, 9], "num3": [3, 2, 7, 5, 4, 8, 7, 5], "conditions": [18, 1200, "v", 18000], "internal_node_id": "0.0-34.0", "key_presses": [98, 96, 13, 97, 100, 13, 97, 104, 13, 97, 99, 13, 97, 105, 13, 97, 99, 13, 97, 102, 13], "trial": 1, "time_elapsed": 863931, "type": "DISTRACTOR", "trial_index": 43, "num1": [9, 7, 4, 2, 6, 1, 2, 9]}, "uniqueid": "MTK2350:3EFVCAY5L4GT0ZR1QAMP7F5JPYE8J3", "dateTime": 1516997139988}, {"current_trial": 44, "trialdata": {"rt": -1, "trial_type": "single-stim", "stimulus": "<p id=\"stim\">10</p>", "internal_node_id": "0.0-35.0-0.0", "time_elapsed": 866933, "key_press": -1, "trial_index": 44}, "uniqueid": "MTK2350:3EFVCAY5L4GT0ZR1QAMP7F5JPYE8J3", "dateTime": 1516997142991}, {"current_trial": 45, "trialdata": {"rt": -1, "trial_type": "single-stim", "stimulus": "<p id=\"stim\">9</p>", "internal_node_id": "0.0-35.0-1.0", "time_elapsed": 867936, "key_press": -1, "trial_index": 45}, "uniqueid": "MTK2350:3EFVCAY5L4GT0ZR1QAMP7F5JPYE8J3", "dateTime": 1516997143993}, {"current_trial": 46, "trialdata": {"rt": -1, "trial_type": "single-stim", "stimulus": "<p id=\"stim\">8</p>", "internal_node_id": "0.0-35.0-2.0", "time_elapsed": 868937, "key_press": -1, "trial_index": 46}, "uniqueid": "MTK2350:3EFVCAY5L4GT0ZR1QAMP7F5JPYE8J3", "dateTime": 1516997144994}, {"current_trial": 47, "trialdata": {"rt": -1, "trial_type": "single-stim", "stimulus": "<p id=\"stim\">7</p>", "internal_node_id": "0.0-35.0-3.0", "time_elapsed": 869939, "key_press": -1, "trial_index": 47}, "uniqueid": "MTK2350:3EFVCAY5L4GT0ZR1QAMP7F5JPYE8J3", "dateTime": 1516997145997}, {"current_trial": 48, "trialdata": {"rt": -1, "trial_type": "single-stim", "stimulus": "<p id=\"stim\">6</p>", "internal_node_id": "0.0-35.0-4.0", "time_elapsed": 870941, "key_press": -1, "trial_index": 48}, "uniqueid": "MTK2350:3EFVCAY5L4GT0ZR1QAMP7F5JPYE8J3", "dateTime": 1516997146998}, {"current_trial": 49, "trialdata": {"rt": -1, "trial_type": "single-stim", "stimulus": "<p id=\"stim\">5</p>", "internal_node_id": "0.0-35.0-5.0", "time_elapsed": 871943, "key_press": -1, "trial_index": 49}, "uniqueid": "MTK2350:3EFVCAY5L4GT0ZR1QAMP7F5JPYE8J3", "dateTime": 1516997148000}, {"current_trial": 50, "trialdata": {"rt": -1, "trial_type": "single-stim", "stimulus": "<p id=\"stim\">4</p>", "internal_node_id": "0.0-35.0-6.0", "time_elapsed": 872945, "key_press": -1, "trial_index": 50}, "uniqueid": "MTK2350:3EFVCAY5L4GT0ZR1QAMP7F5JPYE8J3", "dateTime": 1516997149003}, {"current_trial": 51, "trialdata": {"rt": -1, "trial_type": "single-stim", "stimulus": "<p id=\"stim\">3</p>", "internal_node_id": "0.0-35.0-7.0", "time_elapsed": 873947, "key_press": -1, "trial_index": 51}, "uniqueid": "MTK2350:3EFVCAY5L4GT0ZR1QAMP7F5JPYE8J3", "dateTime": 1516997150004}, {"current_trial": 52, "trialdata": {"rt": -1, "trial_type": "single-stim", "stimulus": "<p id=\"stim\">2</p>", "internal_node_id": "0.0-35.0-8.0", "time_elapsed": 874949, "key_press": -1, "trial_index": 52}, "uniqueid": "MTK2350:3EFVCAY5L4GT0ZR1QAMP7F5JPYE8J3", "dateTime": 1516997151006}, {"current_trial": 53, "trialdata": {"rt": -1, "trial_type": "single-stim", "stimulus": "<p id=\"stim\">1</p>", "internal_node_id": "0.0-35.0-9.0", "time_elapsed": 875951, "key_press": -1, "trial_index": 53}, "uniqueid": "MTK2350:3EFVCAY5L4GT0ZR1QAMP7F5JPYE8J3", "dateTime": 1516997152008}, {"current_trial": 54, "trialdata": {"rt": -1, "trial_type": "single-stim", "stimulus": "<p id=\"stim\">+</p>", "internal_node_id": "0.0-36.0-0.0", "time_elapsed": 877452, "key_press": -1, "type": "FIXATION", "trial_index": 54}, "uniqueid": "MTK2350:3EFVCAY5L4GT0ZR1QAMP7F5JPYE8J3", "dateTime": 1516997153509}, {"current_trial": 55, "trialdata": {"rt": -1, "trial_type": "single-stim", "word": "cabin", "stimulus": "<p id=\"stim\">CABIN</p>", "conditions": [18, 1200, "v", 18000], "internal_node_id": "0.0-37.0", "trial": 1, "time_elapsed": 878654, "serialpos": 0, "key_press": -1, "wordID": 210, "type": "PRES_VIS", "trial_index": 55}, "uniqueid": "MTK2350:3EFVCAY5L4GT0ZR1QAMP7F5JPYE8J3", "dateTime": 1516997154711}, {"current_trial": 56, "trialdata": {"rt": -1, "trial_type": "single-stim", "word": "drug", "stimulus": "<p id=\"stim\">DRUG</p>", "conditions": [18, 1200, "v", 18000], "internal_node_id": "0.0-38.0", "trial": 1, "time_elapsed": 880769, "serialpos": 1, "key_press": -1, "wordID": 500, "type": "PRES_VIS", "trial_index": 56}, "uniqueid": "MTK2350:3EFVCAY5L4GT0ZR1QAMP7F5JPYE8J3", "dateTime": 1516997156826}, {"current_trial": 57, "trialdata": {"rt": -1, "trial_type": "single-stim", "word": "driver", "stimulus": "<p id=\"stim\">DRIVER</p>", "conditions": [18, 1200, "v", 18000], "internal_node_id": "0.0-39.0", "trial": 1, "time_elapsed": 882798, "serialpos": 2, "key_press": -1, "wordID": 498, "type": "PRES_VIS", "trial_index": 57}, "uniqueid": "MTK2350:3EFVCAY5L4GT0ZR1QAMP7F5JPYE8J3", "dateTime": 1516997158855}, {"current_trial": 58, "trialdata": {"rt": -1, "trial_type": "single-stim", "word": "subway", "stimulus": "<p id=\"stim\">SUBWAY</p>", "conditions": [18, 1200, "v", 18000], "internal_node_id": "0.0-40.0", "trial": 1, "time_elapsed": 884937, "serialpos": 3, "key_press": -1, "wordID": 1399, "type": "PRES_VIS", "trial_index": 58}, "uniqueid": "MTK2350:3EFVCAY5L4GT0ZR1QAMP7F5JPYE8J3", "dateTime": 1516997160995}, {"current_trial": 59, "trialdata": {"rt": -1, "trial_type": "single-stim", "word": "child", "stimulus": "<p id=\"stim\">CHILD</p>", "conditions": [18, 1200, "v", 18000], "internal_node_id": "0.0-41.0", "trial": 1, "time_elapsed": 886947, "serialpos": 4, "key_press": -1, "wordID": 298, "type": "PRES_VIS", "trial_index": 59}, "uniqueid": "MTK2350:3EFVCAY5L4GT0ZR1QAMP7F5JPYE8J3", "dateTime": 1516997163004}, {"current_trial": 60, "trialdata": {"rt": -1, "trial_type": "single-stim", "word": "xerox", "stimulus": "<p id=\"stim\">XEROX</p>", "conditions": [18, 1200, "v", 18000], "internal_node_id": "0.0-42.0", "trial": 1, "time_elapsed": 889298, "serialpos": 5, "key_press": -1, "wordID": 1627, "type": "PRES_VIS", "trial_index": 60}, "uniqueid": "MTK2350:3EFVCAY5L4GT0ZR1QAMP7F5JPYE8J3", "dateTime": 1516997165355}, {"current_trial": 61, "trialdata": {"rt": -1, "trial_type": "single-stim", "word": "outdoors", "stimulus": "<p id=\"stim\">OUTDOORS</p>", "conditions": [18, 1200, "v", 18000], "internal_node_id": "0.0-43.0", "trial": 1, "time_elapsed": 891351, "serialpos": 6, "key_press": -1, "wordID": 986, "type": "PRES_VIS", "trial_index": 61}, "uniqueid": "MTK2350:3EFVCAY5L4GT0ZR1QAMP7F5JPYE8J3", "dateTime": 1516997167408}, {"current_trial": 62, "trialdata": {"rt": -1, "trial_type": "single-stim", "word": "plate", "stimulus": "<p id=\"stim\">PLATE</p>", "conditions": [18, 1200, "v", 18000], "internal_node_id": "0.0-44.0", "trial": 1, "time_elapsed": 893637, "serialpos": 7, "key_press": -1, "wordID": 1085, "type": "PRES_VIS", "trial_index": 62}, "uniqueid": "MTK2350:3EFVCAY5L4GT0ZR1QAMP7F5JPYE8J3", "dateTime": 1516997169694}, {"current_trial": 63, "trialdata": {"rt": -1, "trial_type": "single-stim", "word": "daisy", "stimulus": "<p id=\"stim\">DAISY</p>", "conditions": [18, 1200, "v", 18000], "internal_node_id": "0.0-45.0", "trial": 1, "time_elapsed": 896026, "serialpos": 8, "key_press": -1, "wordID": 434, "type": "PRES_VIS", "trial_index": 63}, "uniqueid": "MTK2350:3EFVCAY5L4GT0ZR1QAMP7F5JPYE8J3", "dateTime": 1516997172083}, {"current_trial": 64, "trialdata": {"rt": -1, "trial_type": "single-stim", "word": "forest", "stimulus": "<p id=\"stim\">FOREST</p>", "conditions": [18, 1200, "v", 18000], "internal_node_id": "0.0-46.0", "trial": 1, "time_elapsed": 898118, "serialpos": 9, "key_press": -1, "wordID": 592, "type": "PRES_VIS", "trial_index": 64}, "uniqueid": "MTK2350:3EFVCAY5L4GT0ZR1QAMP7F5JPYE8J3", "dateTime": 1516997174175}, {"current_trial": 65, "trialdata": {"rt": -1, "trial_type": "single-stim", "word": "rocket", "stimulus": "<p id=\"stim\">ROCKET</p>", "conditions": [18, 1200, "v", 18000], "internal_node_id": "0.0-47.0", "trial": 1, "time_elapsed": 900387, "serialpos": 10, "key_press": -1, "wordID": 1201, "type": "PRES_VIS", "trial_index": 65}, "uniqueid": "MTK2350:3EFVCAY5L4GT0ZR1QAMP7F5JPYE8J3", "dateTime": 1516997176444}, {"current_trial": 66, "trialdata": {"rt": -1, "trial_type": "single-stim", "word": "whiskers", "stimulus": "<p id=\"stim\">WHISKERS</p>", "conditions": [18, 1200, "v", 18000], "internal_node_id": "0.0-48.0", "trial": 1, "time_elapsed": 902769, "serialpos": 11, "key_press": -1, "wordID": 1604, "type": "PRES_VIS", "trial_index": 66}, "uniqueid": "MTK2350:3EFVCAY5L4GT0ZR1QAMP7F5JPYE8J3", "dateTime": 1516997178826}, {"current_trial": 67, "trialdata": {"rt": -1, "trial_type": "single-stim", "word": "church", "stimulus": "<p id=\"stim\">CHURCH</p>", "conditions": [18, 1200, "v", 18000], "internal_node_id": "0.0-49.0", "trial": 1, "time_elapsed": 904979, "serialpos": 12, "key_press": -1, "wordID": 306, "type": "PRES_VIS", "trial_index": 67}, "uniqueid": "MTK2350:3EFVCAY5L4GT0ZR1QAMP7F5JPYE8J3", "dateTime": 1516997181037}, {"current_trial": 68, "trialdata": {"rt": -1, "trial_type": "single-stim", "word": "patrol", "stimulus": "<p id=\"stim\">PATROL</p>", "conditions": [18, 1200, "v", 18000], "internal_node_id": "0.0-50.0", "trial": 1, "time_elapsed": 907344, "serialpos": 13, "key_press": -1, "wordID": 1026, "type": "PRES_VIS", "trial_index": 68}, "uniqueid": "MTK2350:3EFVCAY5L4GT0ZR1QAMP7F5JPYE8J3", "dateTime": 1516997183406}, {"current_trial": 69, "trialdata": {"rt": -1, "trial_type": "single-stim", "word": "gangster", "stimulus": "<p id=\"stim\">GANGSTER</p>", "conditions": [18, 1200, "v", 18000], "internal_node_id": "0.0-51.0", "trial": 1, "time_elapsed": 909459, "serialpos": 14, "key_press": -1, "wordID": 619, "type": "PRES_VIS", "trial_index": 69}, "uniqueid": "MTK2350:3EFVCAY5L4GT0ZR1QAMP7F5JPYE8J3", "dateTime": 1516997185517}, {"current_trial": 70, "trialdata": {"rt": -1, "trial_type": "single-stim", "word": "sunrise", "stimulus": "<p id=\"stim\">SUNRISE</p>", "conditions": [18, 1200, "v", 18000], "internal_node_id": "0.0-52.0", "trial": 1, "time_elapsed": 911628, "serialpos": 15, "key_press": -1, "wordID": 1406, "type": "PRES_VIS", "trial_index": 70}, "uniqueid": "MTK2350:3EFVCAY5L4GT0ZR1QAMP7F5JPYE8J3", "dateTime": 1516997187685}, {"current_trial": 71, "trialdata": {"rt": -1, "trial_type": "single-stim", "word": "mailbox", "stimulus": "<p id=\"stim\">MAILBOX</p>", "conditions": [18, 1200, "v", 18000], "internal_node_id": "0.0-53.0", "trial": 1, "time_elapsed": 913863, "serialpos": 16, "key_press": -1, "wordID": 856, "type": "PRES_VIS", "trial_index": 71}, "uniqueid": "MTK2350:3EFVCAY5L4GT0ZR1QAMP7F5JPYE8J3", "dateTime": 1516997189920}, {"current_trial": 72, "trialdata": {"rt": -1, "trial_type": "single-stim", "word": "iceberg", "stimulus": "<p id=\"stim\">ICEBERG</p>", "conditions": [18, 1200, "v", 18000], "internal_node_id": "0.0-54.0", "trial": 1, "time_elapsed": 915965, "serialpos": 17, "key_press": -1, "wordID": 730, "type": "PRES_VIS", "trial_index": 72}, "uniqueid": "MTK2350:3EFVCAY5L4GT0ZR1QAMP7F5JPYE8J3", "dateTime": 1516997192022}, {"current_trial": 73, "trialdata": {"rt": -1, "trial_type": "single-stim", "stimulus": "", "internal_node_id": "0.0-55.0-0.0", "time_elapsed": 918339, "key_press": -1, "type": "PRE_RECALL_DELAY", "trial_index": 73}, "uniqueid": "MTK2350:3EFVCAY5L4GT0ZR1QAMP7F5JPYE8J3", "dateTime": 1516997194396}, {"current_trial": 74, "trialdata": {"rt": -1000, "trial_type": "single-audio", "stimulus": "/static/audio/400Hz.wav", "internal_node_id": "0.0-56.0", "time_elapsed": 918848, "key_press": -1, "type": "PRE_RECALL_ALERT", "trial_index": 74}, "uniqueid": "MTK2350:3EFVCAY5L4GT0ZR1QAMP7F5JPYE8J3", "dateTime": 1516997194905}, {"current_trial": 75, "trialdata": {"rt": [3893, 7979, 11978, 15696, 20185, 24087, 29091, 32661, 35296, 42081, 47563, 52884, 56589], "recwords": ["iceberg", "mailbox", "sunrise", "patrol", "gangster", "church", "whiskers", "forest", "daisy", "rocket", "plate", "outdors", "xerox"], "key_times": [2503, 2698, 2890, 3207, 3278, 3443, 3589, 3893, 5925, 6018, 6138, 6333, 7303, 7540, 7843, 7979, 10383, 10602, 10785, 11413, 11620, 11699, 11883, 11978, 14573, 14695, 14968, 15132, 15254, 15410, 15696, 17886, 17998, 18131, 18337, 19360, 19499, 19582, 19766, 20185, 22338, 22535, 22737, 22898, 23166, 23839, 24087, 25963, 26058, 26236, 26373, 26893, 27032, 28548, 28609, 28782, 28971, 29091, 31343, 31718, 31814, 31993, 32207, 32414, 32661, 34546, 34740, 34893, 34974, 35159, 35296, 37854, 38220, 38363, 38557, 38659, 38855, 39803, 39969, 40118, 40264, 40889, 41271, 41397, 41593, 41647, 41877, 42081, 46752, 46910, 46956, 47212, 47301, 47563, 49487, 49697, 50049, 50491, 50618, 51336, 51672, 52476, 52740, 52884, 55590, 55772, 55945, 56160, 56445, 56589, 59734], "trial_type": "free-recall", "conditions": [18, 1200, "v", 18000], "internal_node_id": "0.0-57.0-0.0", "key_presses": [73, 67, 69, 66, 69, 82, 71, 13, 77, 65, 73, 76, 66, 79, 88, 13, 83, 85, 78, 82, 73, 83, 69, 13, 80, 65, 84, 82, 79, 76, 13, 71, 65, 78, 71, 83, 84, 69, 82, 13, 67, 72, 85, 82, 67, 72, 13, 87, 72, 73, 67, 8, 83, 75, 69, 82, 83, 13, 70, 79, 82, 69, 83, 84, 13, 68, 65, 73, 83, 89, 32, 82, 79, 86, 75, 69, 84, 8, 8, 8, 8, 86, 8, 67, 75, 69, 84, 13, 80, 76, 65, 84, 69, 13, 79, 85, 82, 8, 84, 68, 79, 82, 83, 13, 88, 69, 82, 79, 88, 13, 83], "trial": 1, "time_elapsed": 978853, "type": "FREE_RECALL", "trial_index": 75}, "uniqueid": "MTK2350:3EFVCAY5L4GT0ZR1QAMP7F5JPYE8J3", "dateTime": 1516997254914}, {"current_trial": 76, "trialdata": {"rt": 33337, "trial_type": "text", "internal_node_id": "0.0-58.0", "time_elapsed": 1014195, "key_press": 13, "type": "INSTRUCTIONS", "trial_index": 76}, "uniqueid": "MTK2350:3EFVCAY5L4GT0ZR1QAMP7F5JPYE8J3", "dateTime": 1516997290252}, {"current_trial": 77, "trialdata": {"rt": [2080, 3949, 6714, 8308, 11977], "trial_type": "math-distractor", "key_times": [1690, 1855, 2080, 3724, 3949, 6385, 6538, 6714, 7926, 8073, 8308, 11628, 11783, 11977], "responses": ["19", "7", "20", "15", "24"], "num2": [8, 1, 5, 5, 6, 1], "num3": [8, 2, 9, 2, 9, 7], "conditions": [12, 1600, "v", 12000], "internal_node_id": "0.0-59.0", "key_presses": [97, 105, 13, 103, 13, 98, 96, 13, 97, 101, 13, 98, 100, 13], "trial": 2, "time_elapsed": 1027200, "type": "DISTRACTOR", "trial_index": 77, "num1": [3, 4, 6, 8, 9, 6]}, "uniqueid": "MTK2350:3EFVCAY5L4GT0ZR1QAMP7F5JPYE8J3", "dateTime": 1516997303257}, {"current_trial": 78, "trialdata": {"rt": -1, "trial_type": "single-stim", "stimulus": "<p id=\"stim\">10</p>", "internal_node_id": "0.0-60.0-0.0", "time_elapsed": 1030203, "key_press": -1, "trial_index": 78}, "uniqueid": "MTK2350:3EFVCAY5L4GT0ZR1QAMP7F5JPYE8J3", "dateTime": 1516997306260}, {"current_trial": 79, "trialdata": {"rt": -1, "trial_type": "single-stim", "stimulus": "<p id=\"stim\">9</p>", "internal_node_id": "0.0-60.0-1.0", "time_elapsed": 1031205, "key_press": -1, "trial_index": 79}, "uniqueid": "MTK2350:3EFVCAY5L4GT0ZR1QAMP7F5JPYE8J3", "dateTime": 1516997307263}, {"current_trial": 80, "trialdata": {"rt": -1, "trial_type": "single-stim", "stimulus": "<p id=\"stim\">8</p>", "internal_node_id": "0.0-60.0-2.0", "time_elapsed": 1032207, "key_press": -1, "trial_index": 80}, "uniqueid": "MTK2350:3EFVCAY5L4GT0ZR1QAMP7F5JPYE8J3", "dateTime": 1516997308264}, {"current_trial": 81, "trialdata": {"rt": -1, "trial_type": "single-stim", "stimulus": "<p id=\"stim\">7</p>", "internal_node_id": "0.0-60.0-3.0", "time_elapsed": 1033208, "key_press": -1, "trial_index": 81}, "uniqueid": "MTK2350:3EFVCAY5L4GT0ZR1QAMP7F5JPYE8J3", "dateTime": 1516997309266}, {"current_trial": 82, "trialdata": {"rt": -1, "trial_type": "single-stim", "stimulus": "<p id=\"stim\">6</p>", "internal_node_id": "0.0-60.0-4.0", "time_elapsed": 1034210, "key_press": -1, "trial_index": 82}, "uniqueid": "MTK2350:3EFVCAY5L4GT0ZR1QAMP7F5JPYE8J3", "dateTime": 1516997310267}, {"current_trial": 83, "trialdata": {"rt": -1, "trial_type": "single-stim", "stimulus": "<p id=\"stim\">5</p>", "internal_node_id": "0.0-60.0-5.0", "time_elapsed": 1035212, "key_press": -1, "trial_index": 83}, "uniqueid": "MTK2350:3EFVCAY5L4GT0ZR1QAMP7F5JPYE8J3", "dateTime": 1516997311269}, {"current_trial": 84, "trialdata": {"rt": -1, "trial_type": "single-stim", "stimulus": "<p id=\"stim\">4</p>", "internal_node_id": "0.0-60.0-6.0", "time_elapsed": 1036214, "key_press": -1, "trial_index": 84}, "uniqueid": "MTK2350:3EFVCAY5L4GT0ZR1QAMP7F5JPYE8J3", "dateTime": 1516997312272}, {"current_trial": 85, "trialdata": {"rt": -1, "trial_type": "single-stim", "stimulus": "<p id=\"stim\">3</p>", "internal_node_id": "0.0-60.0-7.0", "time_elapsed": 1037216, "key_press": -1, "trial_index": 85}, "uniqueid": "MTK2350:3EFVCAY5L4GT0ZR1QAMP7F5JPYE8J3", "dateTime": 1516997313273}, {"current_trial": 86, "trialdata": {"rt": -1, "trial_type": "single-stim", "stimulus": "<p id=\"stim\">2</p>", "internal_node_id": "0.0-60.0-8.0", "time_elapsed": 1038217, "key_press": -1, "trial_index": 86}, "uniqueid": "MTK2350:3EFVCAY5L4GT0ZR1QAMP7F5JPYE8J3", "dateTime": 1516997314274}, {"current_trial": 87, "trialdata": {"rt": -1, "trial_type": "single-stim", "stimulus": "<p id=\"stim\">1</p>", "internal_node_id": "0.0-60.0-9.0", "time_elapsed": 1039219, "key_press": -1, "trial_index": 87}, "uniqueid": "MTK2350:3EFVCAY5L4GT0ZR1QAMP7F5JPYE8J3", "dateTime": 1516997315276}, {"current_trial": 88, "trialdata": {"rt": -1, "trial_type": "single-stim", "stimulus": "<p id=\"stim\">+</p>", "internal_node_id": "0.0-61.0-0.0", "time_elapsed": 1040720, "key_press": -1, "type": "FIXATION", "trial_index": 88}, "uniqueid": "MTK2350:3EFVCAY5L4GT0ZR1QAMP7F5JPYE8J3", "dateTime": 1516997316778}, {"current_trial": 89, "trialdata": {"rt": -1, "trial_type": "single-stim", "word": "dress", "stimulus": "<p id=\"stim\">DRESS</p>", "conditions": [12, 1600, "v", 12000], "internal_node_id": "0.0-62.0", "trial": 2, "time_elapsed": 1042323, "serialpos": 0, "key_press": -1, "wordID": 494, "type": "PRES_VIS", "trial_index": 89}, "uniqueid": "MTK2350:3EFVCAY5L4GT0ZR1QAMP7F5JPYE8J3", "dateTime": 1516997318380}, {"current_trial": 90, "trialdata": {"rt": -1, "trial_type": "single-stim", "word": "jello", "stimulus": "<p id=\"stim\">JELLO</p>", "conditions": [12, 1600, "v", 12000], "internal_node_id": "0.0-63.0", "trial": 2, "time_elapsed": 1044950, "serialpos": 1, "key_press": -1, "wordID": 753, "type": "PRES_VIS", "trial_index": 90}, "uniqueid": "MTK2350:3EFVCAY5L4GT0ZR1QAMP7F5JPYE8J3", "dateTime": 1516997321007}, {"current_trial": 91, "trialdata": {"rt": -1, "trial_type": "single-stim", "word": "antler", "stimulus": "<p id=\"stim\">ANTLER</p>", "conditions": [12, 1600, "v", 12000], "internal_node_id": "0.0-64.0", "trial": 2, "time_elapsed": 1047565, "serialpos": 2, "key_press": -1, "wordID": 28, "type": "PRES_VIS", "trial_index": 91}, "uniqueid": "MTK2350:3EFVCAY5L4GT0ZR1QAMP7F5JPYE8J3", "dateTime": 1516997323622}, {"current_trial": 92, "trialdata": {"rt": -1, "trial_type": "single-stim", "word": "picture", "stimulus": "<p id=\"stim\">PICTURE</p>", "conditions": [12, 1600, "v", 12000], "internal_node_id": "0.0-65.0", "trial": 2, "time_elapsed": 1050262, "serialpos": 3, "key_press": -1, "wordID": 1060, "type": "PRES_VIS", "trial_index": 92}, "uniqueid": "MTK2350:3EFVCAY5L4GT0ZR1QAMP7F5JPYE8J3", "dateTime": 1516997326319}, {"current_trial": 93, "trialdata": {"rt": -1, "trial_type": "single-stim", "word": "notebook", "stimulus": "<p id=\"stim\">NOTEBOOK</p>", "conditions": [12, 1600, "v", 12000], "internal_node_id": "0.0-66.0", "trial": 2, "time_elapsed": 1052865, "serialpos": 4, "key_press": -1, "wordID": 958, "type": "PRES_VIS", "trial_index": 93}, "uniqueid": "MTK2350:3EFVCAY5L4GT0ZR1QAMP7F5JPYE8J3", "dateTime": 1516997328923}, {"current_trial": 94, "trialdata": {"rt": -1, "trial_type": "single-stim", "word": "kidney", "stimulus": "<p id=\"stim\">KIDNEY</p>", "conditions": [12, 1600, "v", 12000], "internal_node_id": "0.0-67.0", "trial": 2, "time_elapsed": 1055418, "serialpos": 5, "key_press": -1, "wordID": 775, "type": "PRES_VIS", "trial_index": 94}, "uniqueid": "MTK2350:3EFVCAY5L4GT0ZR1QAMP7F5JPYE8J3", "dateTime": 1516997331475}, {"current_trial": 95, "trialdata": {"rt": -1, "trial_type": "single-stim", "word": "marrow", "stimulus": "<p id=\"stim\">MARROW</p>", "conditions": [12, 1600, "v", 12000], "internal_node_id": "0.0-68.0", "trial": 2, "time_elapsed": 1058205, "serialpos": 6, "key_press": -1, "wordID": 871, "type": "PRES_VIS", "trial_index": 95}, "uniqueid": "MTK2350:3EFVCAY5L4GT0ZR1QAMP7F5JPYE8J3", "dateTime": 1516997334262}, {"current_trial": 96, "trialdata": {"rt": -1, "trial_type": "single-stim", "word": "denim", "stimulus": "<p id=\"stim\">DENIM</p>", "conditions": [12, 1600, "v", 12000], "internal_node_id": "0.0-69.0", "trial": 2, "time_elapsed": 1060720, "serialpos": 7, "key_press": -1, "wordID": 445, "type": "PRES_VIS", "trial_index": 96}, "uniqueid": "MTK2350:3EFVCAY5L4GT0ZR1QAMP7F5JPYE8J3", "dateTime": 1516997336777}, {"current_trial": 97, "trialdata": {"rt": -1, "trial_type": "single-stim", "word": "journal", "stimulus": "<p id=\"stim\">JOURNAL</p>", "conditions": [12, 1600, "v", 12000], "internal_node_id": "0.0-70.0", "trial": 2, "time_elapsed": 1063298, "serialpos": 8, "key_press": -1, "wordID": 759, "type": "PRES_VIS", "trial_index": 97}, "uniqueid": "MTK2350:3EFVCAY5L4GT0ZR1QAMP7F5JPYE8J3", "dateTime": 1516997339356}, {"current_trial": 98, "trialdata": {"rt": -1, "trial_type": "single-stim", "word": "casket", "stimulus": "<p id=\"stim\">CASKET</p>", "conditions": [12, 1600, "v", 12000], "internal_node_id": "0.0-71.0", "trial": 2, "time_elapsed": 1065836, "serialpos": 9, "key_press": -1, "wordID": 254, "type": "PRES_VIS", "trial_index": 98}, "uniqueid": "MTK2350:3EFVCAY5L4GT0ZR1QAMP7F5JPYE8J3", "dateTime": 1516997341893}, {"current_trial": 99, "trialdata": {"rt": -1, "trial_type": "single-stim", "word": "briefcase", "stimulus": "<p id=\"stim\">BRIEFCASE</p>", "conditions": [12, 1600, "v", 12000], "internal_node_id": "0.0-72.0", "trial": 2, "time_elapsed": 1068501, "serialpos": 10, "key_press": -1, "wordID": 174, "type": "PRES_VIS", "trial_index": 99}, "uniqueid": "MTK2350:3EFVCAY5L4GT0ZR1QAMP7F5JPYE8J3", "dateTime": 1516997344558}, {"current_trial": 100, "trialdata": {"rt": -1, "trial_type": "single-stim", "word": "shark", "stimulus": "<p id=\"stim\">SHARK</p>", "conditions": [12, 1600, "v", 12000], "internal_node_id": "0.0-73.0", "trial": 2, "time_elapsed": 1071018, "serialpos": 11, "key_press": -1, "wordID": 1274, "type": "PRES_VIS", "trial_index": 100}, "uniqueid": "MTK2350:3EFVCAY5L4GT0ZR1QAMP7F5JPYE8J3", "dateTime": 1516997347076}, {"current_trial": 101, "trialdata": {"rt": -1, "trial_type": "single-stim", "stimulus": "", "internal_node_id": "0.0-74.0-0.0", "time_elapsed": 1073231, "key_press": -1, "type": "PRE_RECALL_DELAY", "trial_index": 101}, "uniqueid": "MTK2350:3EFVCAY5L4GT0ZR1QAMP7F5JPYE8J3", "dateTime": 1516997349288}, {"current_trial": 102, "trialdata": {"rt": -1000, "trial_type": "single-audio", "stimulus": "/static/audio/400Hz.wav", "internal_node_id": "0.0-75.0", "time_elapsed": 1073733, "key_press": -1, "type": "PRE_RECALL_ALERT", "trial_index": 102}, "uniqueid": "MTK2350:3EFVCAY5L4GT0ZR1QAMP7F5JPYE8J3", "dateTime": 1516997349791}, {"current_trial": 103, "trialdata": {"rt": [2797, 6925, 9927, 13569, 16994, 18563, 22931, 25673, 29120, 32732, 35438, 40975, 56772], "recwords": ["shark", "briefcase", "casket", "journal", "marrow", "denim", "notebook", "kidney", "picture", "jello", "dress", "antler", "jorunal"], "key_times": [1844, 1994, 2066, 2313, 2507, 2797, 4833, 5211, 5535, 5678, 5872, 6346, 6447, 6649, 6802, 6925, 8953, 9057, 9279, 9515, 9579, 9812, 9927, 11687, 11845, 12514, 12661, 13076, 13181, 13301, 13569, 16012, 16101, 16379, 16524, 16646, 16799, 16994, 17666, 17852, 17990, 18158, 18322, 18563, 21205, 21379, 21531, 21755, 22195, 22367, 22511, 22679, 22931, 23671, 24018, 24265, 24978, 25081, 25287, 25673, 27396, 27624, 28118, 28518, 28732, 28806, 28989, 29120, 31938, 32018, 32199, 32344, 32486, 32732, 34086, 34577, 34651, 34822, 34965, 35180, 35323, 35438, 39952, 40117, 40322, 40599, 40676, 40844, 40975, 54054, 54204, 54318, 54753, 55043, 55140, 55278, 56772], "trial_type": "free-recall", "conditions": [12, 1600, "v", 12000], "internal_node_id": "0.0-76.0-0.0", "key_presses": [83, 72, 65, 82, 75, 13, 66, 82, 73, 69, 70, 67, 65, 83, 69, 13, 67, 65, 83, 75, 69, 84, 13, 74, 79, 85, 82, 78, 65, 76, 13, 77, 65, 82, 82, 79, 87, 13, 68, 69, 78, 73, 77, 13, 78, 79, 84, 69, 66, 79, 79, 75, 13, 75, 73, 68, 78, 69, 89, 13, 80, 73, 67, 84, 85, 82, 69, 13, 74, 69, 76, 76, 79, 13, 70, 8, 68, 82, 69, 83, 83, 13, 65, 78, 84, 76, 69, 82, 13, 74, 79, 82, 85, 78, 65, 76, 13], "trial": 2, "time_elapsed": 1133738, "type": "FREE_RECALL", "trial_index": 103}, "uniqueid": "MTK2350:3EFVCAY5L4GT0ZR1QAMP7F5JPYE8J3", "dateTime": 1516997409800}, {"current_trial": 104, "trialdata": {"rt": 2702, "trial_type": "text", "internal_node_id": "0.0-77.0", "time_elapsed": 1138446, "key_press": 32, "type": "INSTRUCTIONS", "trial_index": 104}, "uniqueid": "MTK2350:3EFVCAY5L4GT0ZR1QAMP7F5JPYE8J3", "dateTime": 1516997414503}, {"current_trial": 105, "trialdata": {"rt": [3631, 10133, 15793, 17948, 20485, 22435], "trial_type": "math-distractor", "key_times": [3178, 3403, 3631, 9868, 10003, 10133, 14334, 14998, 15352, 15578, 15793, 17741, 17948, 19984, 20237, 20485, 22095, 22241, 22435, 23635, 23809], "responses": ["21", "22", "27", "9", "13", "14"], "num2": [7, 7, 9, 3, 1, 4, 3], "num3": [6, 9, 9, 5, 6, 4, 9], "conditions": [12, 1600, "v", 24000], "internal_node_id": "0.0-78.0", "key_presses": [98, 97, 13, 98, 98, 13, 105, 8, 98, 103, 13, 105, 13, 97, 99, 13, 97, 100, 13, 97, 105], "trial": 3, "time_elapsed": 1164451, "type": "DISTRACTOR", "trial_index": 105, "num1": [8, 6, 9, 1, 6, 6, 7]}, "uniqueid": "MTK2350:3EFVCAY5L4GT0ZR1QAMP7F5JPYE8J3", "dateTime": 1516997440508}, {"current_trial": 106, "trialdata": {"rt": -1, "trial_type": "single-stim", "stimulus": "<p id=\"stim\">10</p>", "internal_node_id": "0.0-79.0-0.0", "time_elapsed": 1167454, "key_press": -1, "trial_index": 106}, "uniqueid": "MTK2350:3EFVCAY5L4GT0ZR1QAMP7F5JPYE8J3", "dateTime": 1516997443511}, {"current_trial": 107, "trialdata": {"rt": -1, "trial_type": "single-stim", "stimulus": "<p id=\"stim\">9</p>", "internal_node_id": "0.0-79.0-1.0", "time_elapsed": 1168455, "key_press": -1, "trial_index": 107}, "uniqueid": "MTK2350:3EFVCAY5L4GT0ZR1QAMP7F5JPYE8J3", "dateTime": 1516997444512}, {"current_trial": 108, "trialdata": {"rt": -1, "trial_type": "single-stim", "stimulus": "<p id=\"stim\">8</p>", "internal_node_id": "0.0-79.0-2.0", "time_elapsed": 1169456, "key_press": -1, "trial_index": 108}, "uniqueid": "MTK2350:3EFVCAY5L4GT0ZR1QAMP7F5JPYE8J3", "dateTime": 1516997445514}, {"current_trial": 109, "trialdata": {"rt": -1, "trial_type": "single-stim", "stimulus": "<p id=\"stim\">7</p>", "internal_node_id": "0.0-79.0-3.0", "time_elapsed": 1170458, "key_press": -1, "trial_index": 109}, "uniqueid": "MTK2350:3EFVCAY5L4GT0ZR1QAMP7F5JPYE8J3", "dateTime": 1516997446516}, {"current_trial": 110, "trialdata": {"rt": -1, "trial_type": "single-stim", "stimulus": "<p id=\"stim\">6</p>", "internal_node_id": "0.0-79.0-4.0", "time_elapsed": 1171461, "key_press": -1, "trial_index": 110}, "uniqueid": "MTK2350:3EFVCAY5L4GT0ZR1QAMP7F5JPYE8J3", "dateTime": 1516997447518}, {"current_trial": 111, "trialdata": {"rt": -1, "trial_type": "single-stim", "stimulus": "<p id=\"stim\">5</p>", "internal_node_id": "0.0-79.0-5.0", "time_elapsed": 1172462, "key_press": -1, "trial_index": 111}, "uniqueid": "MTK2350:3EFVCAY5L4GT0ZR1QAMP7F5JPYE8J3", "dateTime": 1516997448520}, {"current_trial": 112, "trialdata": {"rt": -1, "trial_type": "single-stim", "stimulus": "<p id=\"stim\">4</p>", "internal_node_id": "0.0-79.0-6.0", "time_elapsed": 1173465, "key_press": -1, "trial_index": 112}, "uniqueid": "MTK2350:3EFVCAY5L4GT0ZR1QAMP7F5JPYE8J3", "dateTime": 1516997449522}, {"current_trial": 113, "trialdata": {"rt": -1, "trial_type": "single-stim", "stimulus": "<p id=\"stim\">3</p>", "internal_node_id": "0.0-79.0-7.0", "time_elapsed": 1174466, "key_press": -1, "trial_index": 113}, "uniqueid": "MTK2350:3EFVCAY5L4GT0ZR1QAMP7F5JPYE8J3", "dateTime": 1516997450524}, {"current_trial": 114, "trialdata": {"rt": -1, "trial_type": "single-stim", "stimulus": "<p id=\"stim\">2</p>", "internal_node_id": "0.0-79.0-8.0", "time_elapsed": 1175468, "key_press": -1, "trial_index": 114}, "uniqueid": "MTK2350:3EFVCAY5L4GT0ZR1QAMP7F5JPYE8J3", "dateTime": 1516997451525}, {"current_trial": 115, "trialdata": {"rt": -1, "trial_type": "single-stim", "stimulus": "<p id=\"stim\">1</p>", "internal_node_id": "0.0-79.0-9.0", "time_elapsed": 1176469, "key_press": -1, "trial_index": 115}, "uniqueid": "MTK2350:3EFVCAY5L4GT0ZR1QAMP7F5JPYE8J3", "dateTime": 1516997452527}, {"current_trial": 116, "trialdata": {"rt": -1, "trial_type": "single-stim", "stimulus": "<p id=\"stim\">+</p>", "internal_node_id": "0.0-80.0-0.0", "time_elapsed": 1177971, "key_press": -1, "type": "FIXATION", "trial_index": 116}, "uniqueid": "MTK2350:3EFVCAY5L4GT0ZR1QAMP7F5JPYE8J3", "dateTime": 1516997454028}, {"current_trial": 117, "trialdata": {"rt": -1, "trial_type": "single-stim", "word": "piston", "stimulus": "<p id=\"stim\">PISTON</p>", "conditions": [12, 1600, "v", 24000], "internal_node_id": "0.0-81.0", "trial": 3, "time_elapsed": 1179573, "serialpos": 0, "key_press": -1, "wordID": 1075, "type": "PRES_VIS", "trial_index": 117}, "uniqueid": "MTK2350:3EFVCAY5L4GT0ZR1QAMP7F5JPYE8J3", "dateTime": 1516997455630}, {"current_trial": 118, "trialdata": {"rt": -1, "trial_type": "single-stim", "word": "tractor", "stimulus": "<p id=\"stim\">TRACTOR</p>", "conditions": [12, 1600, "v", 24000], "internal_node_id": "0.0-82.0", "trial": 3, "time_elapsed": 1182193, "serialpos": 1, "key_press": -1, "wordID": 1492, "type": "PRES_VIS", "trial_index": 118}, "uniqueid": "MTK2350:3EFVCAY5L4GT0ZR1QAMP7F5JPYE8J3", "dateTime": 1516997458250}, {"current_trial": 119, "trialdata": {"rt": -1, "trial_type": "single-stim", "word": "fungus", "stimulus": "<p id=\"stim\">FUNGUS</p>", "conditions": [12, 1600, "v", 24000], "internal_node_id": "0.0-83.0", "trial": 3, "time_elapsed": 1184901, "serialpos": 2, "key_press": -1, "wordID": 613, "type": "PRES_VIS", "trial_index": 119}, "uniqueid": "MTK2350:3EFVCAY5L4GT0ZR1QAMP7F5JPYE8J3", "dateTime": 1516997460958}, {"current_trial": 120, "trialdata": {"rt": -1, "trial_type": "single-stim", "word": "puppy", "stimulus": "<p id=\"stim\">PUPPY</p>", "conditions": [12, 1600, "v", 24000], "internal_node_id": "0.0-84.0", "trial": 3, "time_elapsed": 1187612, "serialpos": 3, "key_press": -1, "wordID": 1143, "type": "PRES_VIS", "trial_index": 120}, "uniqueid": "MTK2350:3EFVCAY5L4GT0ZR1QAMP7F5JPYE8J3", "dateTime": 1516997463669}, {"current_trial": 121, "trialdata": {"rt": -1, "trial_type": "single-stim", "word": "baby", "stimulus": "<p id=\"stim\">BABY</p>", "conditions": [12, 1600, "v", 24000], "internal_node_id": "0.0-85.0", "trial": 3, "time_elapsed": 1190039, "serialpos": 4, "key_press": -1, "wordID": 63, "type": "PRES_VIS", "trial_index": 121}, "uniqueid": "MTK2350:3EFVCAY5L4GT0ZR1QAMP7F5JPYE8J3", "dateTime": 1516997466096}, {"current_trial": 122, "trialdata": {"rt": -1, "trial_type": "single-stim", "word": "supper", "stimulus": "<p id=\"stim\">SUPPER</p>", "conditions": [12, 1600, "v", 24000], "internal_node_id": "0.0-86.0", "trial": 3, "time_elapsed": 1192640, "serialpos": 5, "key_press": -1, "wordID": 1410, "type": "PRES_VIS", "trial_index": 122}, "uniqueid": "MTK2350:3EFVCAY5L4GT0ZR1QAMP7F5JPYE8J3", "dateTime": 1516997468697}, {"current_trial": 123, "trialdata": {"rt": -1, "trial_type": "single-stim", "word": "forehead", "stimulus": "<p id=\"stim\">FOREHEAD</p>", "conditions": [12, 1600, "v", 24000], "internal_node_id": "0.0-87.0", "trial": 3, "time_elapsed": 1195279, "serialpos": 6, "key_press": -1, "wordID": 591, "type": "PRES_VIS", "trial_index": 123}, "uniqueid": "MTK2350:3EFVCAY5L4GT0ZR1QAMP7F5JPYE8J3", "dateTime": 1516997471336}, {"current_trial": 124, "trialdata": {"rt": -1, "trial_type": "single-stim", "word": "valley", "stimulus": "<p id=\"stim\">VALLEY</p>", "conditions": [12, 1600, "v", 24000], "internal_node_id": "0.0-88.0", "trial": 3, "time_elapsed": 1197975, "serialpos": 7, "key_press": -1, "wordID": 1544, "type": "PRES_VIS", "trial_index": 124}, "uniqueid": "MTK2350:3EFVCAY5L4GT0ZR1QAMP7F5JPYE8J3", "dateTime": 1516997474032}, {"current_trial": 125, "trialdata": {"rt": -1, "trial_type": "single-stim", "word": "gravel", "stimulus": "<p id=\"stim\">GRAVEL</p>", "conditions": [12, 1600, "v", 24000], "internal_node_id": "0.0-89.0", "trial": 3, "time_elapsed": 1200749, "serialpos": 8, "key_press": -1, "wordID": 658, "type": "PRES_VIS", "trial_index": 125}, "uniqueid": "MTK2350:3EFVCAY5L4GT0ZR1QAMP7F5JPYE8J3", "dateTime": 1516997476806}, {"current_trial": 126, "trialdata": {"rt": -1, "trial_type": "single-stim", "word": "quarter", "stimulus": "<p id=\"stim\">QUARTER</p>", "conditions": [12, 1600, "v", 24000], "internal_node_id": "0.0-90.0", "trial": 3, "time_elapsed": 1203322, "serialpos": 9, "key_press": -1, "wordID": 1147, "type": "PRES_VIS", "trial_index": 126}, "uniqueid": "MTK2350:3EFVCAY5L4GT0ZR1QAMP7F5JPYE8J3", "dateTime": 1516997479379}, {"current_trial": 127, "trialdata": {"rt": -1, "trial_type": "single-stim", "word": "trench", "stimulus": "<p id=\"stim\">TRENCH</p>", "conditions": [12, 1600, "v", 24000], "internal_node_id": "0.0-91.0", "trial": 3, "time_elapsed": 1206089, "serialpos": 10, "key_press": -1, "wordID": 1502, "type": "PRES_VIS", "trial_index": 127}, "uniqueid": "MTK2350:3EFVCAY5L4GT0ZR1QAMP7F5JPYE8J3", "dateTime": 1516997482147}, {"current_trial": 128, "trialdata": {"rt": -1, "trial_type": "single-stim", "word": "valve", "stimulus": "<p id=\"stim\">VALVE</p>", "conditions": [12, 1600, "v", 24000], "internal_node_id": "0.0-92.0", "trial": 3, "time_elapsed": 1208538, "serialpos": 11, "key_press": -1, "wordID": 1545, "type": "PRES_VIS", "trial_index": 128}, "uniqueid": "MTK2350:3EFVCAY5L4GT0ZR1QAMP7F5JPYE8J3", "dateTime": 1516997484595}, {"current_trial": 129, "trialdata": {"rt": -1, "trial_type": "single-stim", "stimulus": "", "internal_node_id": "0.0-93.0-0.0", "time_elapsed": 1210728, "key_press": -1, "type": "PRE_RECALL_DELAY", "trial_index": 129}, "uniqueid": "MTK2350:3EFVCAY5L4GT0ZR1QAMP7F5JPYE8J3", "dateTime": 1516997486785}, {"current_trial": 130, "trialdata": {"rt": -1000, "trial_type": "single-audio", "stimulus": "/static/audio/400Hz.wav", "internal_node_id": "0.0-94.0", "time_elapsed": 1211230, "key_press": -1, "type": "PRE_RECALL_ALERT", "trial_index": 130}, "uniqueid": "MTK2350:3EFVCAY5L4GT0ZR1QAMP7F5JPYE8J3", "dateTime": 1516997487287}, {"current_trial": 131, "trialdata": {"rt": [2641, 5576, 8801, 11400, 15089, 18075, 20826, 23425, 26746, 30854, 32540, 35873, 38723, 39021, 52593], "recwords": ["valve", "trench", "quarter", "gravel", "forehead", "vaelly", "super", "baby", "puppy", "tractor", "fungus", "pistion", "shark", "", "briefcase"], "key_times": [1518, 1613, 1996, 2325, 2397, 2641, 4304, 4495, 4668, 4962, 5120, 5303, 5576, 7648, 7890, 8061, 8241, 8389, 8481, 8665, 8801, 10295, 10493, 10589, 10753, 10828, 11192, 11400, 13836, 14014, 14098, 14273, 14457, 14534, 14748, 14954, 15089, 15553, 15640, 15902, 16228, 16340, 16685, 18075, 19592, 19804, 20387, 20479, 20672, 20826, 22731, 22811, 22914, 23106, 23425, 25178, 25465, 25703, 25914, 26462, 26746, 29439, 29622, 29732, 29977, 30254, 30451, 30593, 30854, 31465, 31633, 31822, 32010, 32201, 32315, 32540, 34271, 34528, 34629, 34890, 35001, 35006, 35188, 35873, 37786, 37969, 38032, 38448, 38561, 38723, 39021, 49679, 49864, 50111, 50182, 50417, 51115, 51188, 51403, 51986, 52593], "trial_type": "free-recall", "conditions": [12, 1600, "v", 24000], "internal_node_id": "0.0-95.0-0.0", "key_presses": [86, 65, 76, 86, 69, 13, 84, 82, 69, 78, 67, 72, 13, 81, 85, 65, 82, 84, 69, 82, 13, 71, 82, 65, 86, 69, 76, 13, 70, 79, 82, 69, 72, 69, 65, 68, 13, 86, 65, 69, 76, 76, 89, 13, 83, 85, 80, 69, 82, 13, 66, 65, 66, 89, 13, 80, 85, 80, 80, 89, 13, 84, 82, 65, 67, 84, 79, 82, 13, 70, 85, 78, 71, 85, 83, 13, 80, 73, 83, 84, 73, 79, 78, 13, 83, 72, 65, 82, 75, 32, 13, 66, 82, 73, 69, 70, 67, 65, 83, 69, 13], "trial": 3, "time_elapsed": 1271236, "type": "FREE_RECALL", "trial_index": 131}, "uniqueid": "MTK2350:3EFVCAY5L4GT0ZR1QAMP7F5JPYE8J3", "dateTime": 1516997547300}, {"current_trial": 132, "trialdata": {"rt": 12133, "trial_type": "text", "internal_node_id": "0.0-96.0", "time_elapsed": 1285378, "key_press": 32, "type": "INSTRUCTIONS", "trial_index": 132}, "uniqueid": "MTK2350:3EFVCAY5L4GT0ZR1QAMP7F5JPYE8J3", "dateTime": 1516997561435}, {"current_trial": 133, "trialdata": {"rt": [1784, 4312, 6554, 8532, 11947], "trial_type": "math-distractor", "key_times": [1376, 1549, 1784, 3871, 4059, 4312, 6195, 6370, 6554, 8147, 8304, 8532, 11571, 11734, 11947], "responses": ["19", "17", "11", "10", "17"], "num2": [4, 6, 1, 7, 8, 4], "num3": [6, 8, 6, 2, 8, 7], "conditions": [24, 1600, "v", 12000], "internal_node_id": "0.0-97.0", "key_presses": [97, 105, 13, 97, 103, 13, 97, 97, 13, 97, 96, 13, 97, 103, 13], "trial": 4, "time_elapsed": 1299382, "type": "DISTRACTOR", "trial_index": 133, "num1": [9, 3, 4, 1, 1, 8]}, "uniqueid": "MTK2350:3EFVCAY5L4GT0ZR1QAMP7F5JPYE8J3", "dateTime": 1516997575439}, {"current_trial": 134, "trialdata": {"rt": -1, "trial_type": "single-stim", "stimulus": "<p id=\"stim\">10</p>", "internal_node_id": "0.0-98.0-0.0", "time_elapsed": 1302387, "key_press": -1, "trial_index": 134}, "uniqueid": "MTK2350:3EFVCAY5L4GT0ZR1QAMP7F5JPYE8J3", "dateTime": 1516997578444}, {"current_trial": 135, "trialdata": {"rt": -1, "trial_type": "single-stim", "stimulus": "<p id=\"stim\">9</p>", "internal_node_id": "0.0-98.0-1.0", "time_elapsed": 1303390, "key_press": -1, "trial_index": 135}, "uniqueid": "MTK2350:3EFVCAY5L4GT0ZR1QAMP7F5JPYE8J3", "dateTime": 1516997579447}, {"current_trial": 136, "trialdata": {"rt": -1, "trial_type": "single-stim", "stimulus": "<p id=\"stim\">8</p>", "internal_node_id": "0.0-98.0-2.0", "time_elapsed": 1304392, "key_press": -1, "trial_index": 136}, "uniqueid": "MTK2350:3EFVCAY5L4GT0ZR1QAMP7F5JPYE8J3", "dateTime": 1516997580449}, {"current_trial": 137, "trialdata": {"rt": -1, "trial_type": "single-stim", "stimulus": "<p id=\"stim\">7</p>", "internal_node_id": "0.0-98.0-3.0", "time_elapsed": 1305394, "key_press": -1, "trial_index": 137}, "uniqueid": "MTK2350:3EFVCAY5L4GT0ZR1QAMP7F5JPYE8J3", "dateTime": 1516997581451}, {"current_trial": 138, "trialdata": {"rt": -1, "trial_type": "single-stim", "stimulus": "<p id=\"stim\">6</p>", "internal_node_id": "0.0-98.0-4.0", "time_elapsed": 1306397, "key_press": -1, "trial_index": 138}, "uniqueid": "MTK2350:3EFVCAY5L4GT0ZR1QAMP7F5JPYE8J3", "dateTime": 1516997582454}, {"current_trial": 139, "trialdata": {"rt": -1, "trial_type": "single-stim", "stimulus": "<p id=\"stim\">5</p>", "internal_node_id": "0.0-98.0-5.0", "time_elapsed": 1307399, "key_press": -1, "trial_index": 139}, "uniqueid": "MTK2350:3EFVCAY5L4GT0ZR1QAMP7F5JPYE8J3", "dateTime": 1516997583456}, {"current_trial": 140, "trialdata": {"rt": -1, "trial_type": "single-stim", "stimulus": "<p id=\"stim\">4</p>", "internal_node_id": "0.0-98.0-6.0", "time_elapsed": 1308400, "key_press": -1, "trial_index": 140}, "uniqueid": "MTK2350:3EFVCAY5L4GT0ZR1QAMP7F5JPYE8J3", "dateTime": 1516997584458}, {"current_trial": 141, "trialdata": {"rt": -1, "trial_type": "single-stim", "stimulus": "<p id=\"stim\">3</p>", "internal_node_id": "0.0-98.0-7.0", "time_elapsed": 1309403, "key_press": -1, "trial_index": 141}, "uniqueid": "MTK2350:3EFVCAY5L4GT0ZR1QAMP7F5JPYE8J3", "dateTime": 1516997585460}, {"current_trial": 142, "trialdata": {"rt": -1, "trial_type": "single-stim", "stimulus": "<p id=\"stim\">2</p>", "internal_node_id": "0.0-98.0-8.0", "time_elapsed": 1310405, "key_press": -1, "trial_index": 142}, "uniqueid": "MTK2350:3EFVCAY5L4GT0ZR1QAMP7F5JPYE8J3", "dateTime": 1516997586463}, {"current_trial": 143, "trialdata": {"rt": -1, "trial_type": "single-stim", "stimulus": "<p id=\"stim\">1</p>", "internal_node_id": "0.0-98.0-9.0", "time_elapsed": 1311407, "key_press": -1, "trial_index": 143}, "uniqueid": "MTK2350:3EFVCAY5L4GT0ZR1QAMP7F5JPYE8J3", "dateTime": 1516997587465}, {"current_trial": 144, "trialdata": {"rt": -1, "trial_type": "single-stim", "stimulus": "<p id=\"stim\">+</p>", "internal_node_id": "0.0-99.0-0.0", "time_elapsed": 1312910, "key_press": -1, "type": "FIXATION", "trial_index": 144}, "uniqueid": "MTK2350:3EFVCAY5L4GT0ZR1QAMP7F5JPYE8J3", "dateTime": 1516997588967}, {"current_trial": 145, "trialdata": {"rt": -1, "trial_type": "single-stim", "word": "grape", "stimulus": "<p id=\"stim\">GRAPE</p>", "conditions": [24, 1600, "v", 12000], "internal_node_id": "0.0-100.0", "trial": 4, "time_elapsed": 1314512, "serialpos": 0, "key_press": -1, "wordID": 653, "type": "PRES_VIS", "trial_index": 145}, "uniqueid": "MTK2350:3EFVCAY5L4GT0ZR1QAMP7F5JPYE8J3", "dateTime": 1516997590569}, {"current_trial": 146, "trialdata": {"rt": -1, "trial_type": "single-stim", "word": "fruit", "stimulus": "<p id=\"stim\">FRUIT</p>", "conditions": [24, 1600, "v", 12000], "internal_node_id": "0.0-101.0", "trial": 4, "time_elapsed": 1317127, "serialpos": 1, "key_press": -1, "wordID": 609, "type": "PRES_VIS", "trial_index": 146}, "uniqueid": "MTK2350:3EFVCAY5L4GT0ZR1QAMP7F5JPYE8J3", "dateTime": 1516997593184}, {"current_trial": 147, "trialdata": {"rt": -1, "trial_type": "single-stim", "word": "pizza", "stimulus": "<p id=\"stim\">PIZZA</p>", "conditions": [24, 1600, "v", 12000], "internal_node_id": "0.0-102.0", "trial": 4, "time_elapsed": 1319599, "serialpos": 2, "key_press": -1, "wordID": 1078, "type": "PRES_VIS", "trial_index": 147}, "uniqueid": "MTK2350:3EFVCAY5L4GT0ZR1QAMP7F5JPYE8J3", "dateTime": 1516997595656}, {"current_trial": 148, "trialdata": {"rt": -1, "trial_type": "single-stim", "word": "zebra", "stimulus": "<p id=\"stim\">ZEBRA</p>", "conditions": [24, 1600, "v", 12000], "internal_node_id": "0.0-103.0", "trial": 4, "time_elapsed": 1322189, "serialpos": 3, "key_press": -1, "wordID": 1634, "type": "PRES_VIS", "trial_index": 148}, "uniqueid": "MTK2350:3EFVCAY5L4GT0ZR1QAMP7F5JPYE8J3", "dateTime": 1516997598246}, {"current_trial": 149, "trialdata": {"rt": -1, "trial_type": "single-stim", "word": "plaster", "stimulus": "<p id=\"stim\">PLASTER</p>", "conditions": [24, 1600, "v", 12000], "internal_node_id": "0.0-104.0", "trial": 4, "time_elapsed": 1324737, "serialpos": 4, "key_press": -1, "wordID": 1084, "type": "PRES_VIS", "trial_index": 149}, "uniqueid": "MTK2350:3EFVCAY5L4GT0ZR1QAMP7F5JPYE8J3", "dateTime": 1516997600794}, {"current_trial": 150, "trialdata": {"rt": -1, "trial_type": "single-stim", "word": "woman", "stimulus": "<p id=\"stim\">WOMAN</p>", "conditions": [24, 1600, "v", 12000], "internal_node_id": "0.0-105.0", "trial": 4, "time_elapsed": 1327536, "serialpos": 5, "key_press": -1, "wordID": 1619, "type": "PRES_VIS", "trial_index": 150}, "uniqueid": "MTK2350:3EFVCAY5L4GT0ZR1QAMP7F5JPYE8J3", "dateTime": 1516997603593}, {"current_trial": 151, "trialdata": {"rt": -1, "trial_type": "single-stim", "word": "crevice", "stimulus": "<p id=\"stim\">CREVICE</p>", "conditions": [24, 1600, "v", 12000], "internal_node_id": "0.0-106.0", "trial": 4, "time_elapsed": 1330255, "serialpos": 6, "key_press": -1, "wordID": 404, "type": "PRES_VIS", "trial_index": 151}, "uniqueid": "MTK2350:3EFVCAY5L4GT0ZR1QAMP7F5JPYE8J3", "dateTime": 1516997606312}, {"current_trial": 152, "trialdata": {"rt": -1, "trial_type": "single-stim", "word": "doughnut", "stimulus": "<p id=\"stim\">DOUGHNUT</p>", "conditions": [24, 1600, "v", 12000], "internal_node_id": "0.0-107.0", "trial": 4, "time_elapsed": 1332926, "serialpos": 7, "key_press": -1, "wordID": 489, "type": "PRES_VIS", "trial_index": 152}, "uniqueid": "MTK2350:3EFVCAY5L4GT0ZR1QAMP7F5JPYE8J3", "dateTime": 1516997608983}, {"current_trial": 153, "trialdata": {"rt": -1, "trial_type": "single-stim", "word": "sibling", "stimulus": "<p id=\"stim\">SIBLING</p>", "conditions": [24, 1600, "v", 12000], "internal_node_id": "0.0-108.0", "trial": 4, "time_elapsed": 1335351, "serialpos": 8, "key_press": -1, "wordID": 1300, "type": "PRES_VIS", "trial_index": 153}, "uniqueid": "MTK2350:3EFVCAY5L4GT0ZR1QAMP7F5JPYE8J3", "dateTime": 1516997611408}, {"current_trial": 154, "trialdata": {"rt": -1, "trial_type": "single-stim", "word": "police", "stimulus": "<p id=\"stim\">POLICE</p>", "conditions": [24, 1600, "v", 12000], "internal_node_id": "0.0-109.0", "trial": 4, "time_elapsed": 1338052, "serialpos": 9, "key_press": -1, "wordID": 1097, "type": "PRES_VIS", "trial_index": 154}, "uniqueid": "MTK2350:3EFVCAY5L4GT0ZR1QAMP7F5JPYE8J3", "dateTime": 1516997614109}, {"current_trial": 155, "trialdata": {"rt": -1, "trial_type": "single-stim", "word": "worker", "stimulus": "<p id=\"stim\">WORKER</p>", "conditions": [24, 1600, "v", 12000], "internal_node_id": "0.0-110.0", "trial": 4, "time_elapsed": 1340807, "serialpos": 10, "key_press": -1, "wordID": 1620, "type": "PRES_VIS", "trial_index": 155}, "uniqueid": "MTK2350:3EFVCAY5L4GT0ZR1QAMP7F5JPYE8J3", "dateTime": 1516997616865}, {"current_trial": 156, "trialdata": {"rt": -1, "trial_type": "single-stim", "word": "tile", "stimulus": "<p id=\"stim\">TILE</p>", "conditions": [24, 1600, "v", 12000], "internal_node_id": "0.0-111.0", "trial": 4, "time_elapsed": 1343457, "serialpos": 11, "key_press": -1, "wordID": 1467, "type": "PRES_VIS", "trial_index": 156}, "uniqueid": "MTK2350:3EFVCAY5L4GT0ZR1QAMP7F5JPYE8J3", "dateTime": 1516997619514}, {"current_trial": 157, "trialdata": {"rt": -1, "trial_type": "single-stim", "word": "yarn", "stimulus": "<p id=\"stim\">YARN</p>", "conditions": [24, 1600, "v", 12000], "internal_node_id": "0.0-112.0", "trial": 4, "time_elapsed": 1346018, "serialpos": 12, "key_press": -1, "wordID": 1630, "type": "PRES_VIS", "trial_index": 157}, "uniqueid": "MTK2350:3EFVCAY5L4GT0ZR1QAMP7F5JPYE8J3", "dateTime": 1516997622075}, {"current_trial": 158, "trialdata": {"rt": -1, "trial_type": "single-stim", "word": "country", "stimulus": "<p id=\"stim\">COUNTRY</p>", "conditions": [24, 1600, "v", 12000], "internal_node_id": "0.0-113.0", "trial": 4, "time_elapsed": 1348509, "serialpos": 13, "key_press": -1, "wordID": 387, "type": "PRES_VIS", "trial_index": 158}, "uniqueid": "MTK2350:3EFVCAY5L4GT0ZR1QAMP7F5JPYE8J3", "dateTime": 1516997624566}, {"current_trial": 159, "trialdata": {"rt": -1, "trial_type": "single-stim", "word": "wrist", "stimulus": "<p id=\"stim\">WRIST</p>", "conditions": [24, 1600, "v", 12000], "internal_node_id": "0.0-114.0", "trial": 4, "time_elapsed": 1350916, "serialpos": 14, "key_press": -1, "wordID": 1625, "type": "PRES_VIS", "trial_index": 159}, "uniqueid": "MTK2350:3EFVCAY5L4GT0ZR1QAMP7F5JPYE8J3", "dateTime": 1516997626973}, {"current_trial": 160, "trialdata": {"rt": -1, "trial_type": "single-stim", "word": "leg", "stimulus": "<p id=\"stim\">LEG</p>", "conditions": [24, 1600, "v", 12000], "internal_node_id": "0.0-115.0", "trial": 4, "time_elapsed": 1353612, "serialpos": 15, "key_press": -1, "wordID": 808, "type": "PRES_VIS", "trial_index": 160}, "uniqueid": "MTK2350:3EFVCAY5L4GT0ZR1QAMP7F5JPYE8J3", "dateTime": 1516997629670}, {"current_trial": 161, "trialdata": {"rt": -1, "trial_type": "single-stim", "word": "lizard", "stimulus": "<p id=\"stim\">LIZARD</p>", "conditions": [24, 1600, "v", 12000], "internal_node_id": "0.0-116.0", "trial": 4, "time_elapsed": 1356122, "serialpos": 16, "key_press": -1, "wordID": 833, "type": "PRES_VIS", "trial_index": 161}, "uniqueid": "MTK2350:3EFVCAY5L4GT0ZR1QAMP7F5JPYE8J3", "dateTime": 1516997632179}, {"current_trial": 162, "trialdata": {"rt": -1, "trial_type": "single-stim", "word": "outlaw", "stimulus": "<p id=\"stim\">OUTLAW</p>", "conditions": [24, 1600, "v", 12000], "internal_node_id": "0.0-117.0", "trial": 4, "time_elapsed": 1358601, "serialpos": 17, "key_press": -1, "wordID": 988, "type": "PRES_VIS", "trial_index": 162}, "uniqueid": "MTK2350:3EFVCAY5L4GT0ZR1QAMP7F5JPYE8J3", "dateTime": 1516997634659}, {"current_trial": 163, "trialdata": {"rt": -1, "trial_type": "single-stim", "word": "shortcake", "stimulus": "<p id=\"stim\">SHORTCAKE</p>", "conditions": [24, 1600, "v", 12000], "internal_node_id": "0.0-118.0", "trial": 4, "time_elapsed": 1361360, "serialpos": 18, "key_press": -1, "wordID": 1291, "type": "PRES_VIS", "trial_index": 163}, "uniqueid": "MTK2350:3EFVCAY5L4GT0ZR1QAMP7F5JPYE8J3", "dateTime": 1516997637418}, {"current_trial": 164, "trialdata": {"rt": -1, "trial_type": "single-stim", "word": "ground", "stimulus": "<p id=\"stim\">GROUND</p>", "conditions": [24, 1600, "v", 12000], "internal_node_id": "0.0-119.0", "trial": 4, "time_elapsed": 1363869, "serialpos": 19, "key_press": -1, "wordID": 665, "type": "PRES_VIS", "trial_index": 164}, "uniqueid": "MTK2350:3EFVCAY5L4GT0ZR1QAMP7F5JPYE8J3", "dateTime": 1516997639926}, {"current_trial": 165, "trialdata": {"rt": -1, "trial_type": "single-stim", "word": "shovel", "stimulus": "<p id=\"stim\">SHOVEL</p>", "conditions": [24, 1600, "v", 12000], "internal_node_id": "0.0-120.0", "trial": 4, "time_elapsed": 1366579, "serialpos": 20, "key_press": -1, "wordID": 1294, "type": "PRES_VIS", "trial_index": 165}, "uniqueid": "MTK2350:3EFVCAY5L4GT0ZR1QAMP7F5JPYE8J3", "dateTime": 1516997642636}, {"current_trial": 166, "trialdata": {"rt": -1, "trial_type": "single-stim", "word": "stamp", "stimulus": "<p id=\"stim\">STAMP</p>", "conditions": [24, 1600, "v", 12000], "internal_node_id": "0.0-121.0", "trial": 4, "time_elapsed": 1369159, "serialpos": 21, "key_press": -1, "wordID": 1369, "type": "PRES_VIS", "trial_index": 166}, "uniqueid": "MTK2350:3EFVCAY5L4GT0ZR1QAMP7F5JPYE8J3", "dateTime": 1516997645217}, {"current_trial": 167, "trialdata": {"rt": -1, "trial_type": "single-stim", "word": "girl", "stimulus": "<p id=\"stim\">GIRL</p>", "conditions": [24, 1600, "v", 12000], "internal_node_id": "0.0-122.0", "trial": 4, "time_elapsed": 1371892, "serialpos": 22, "key_press": -1, "wordID": 636, "type": "PRES_VIS", "trial_index": 167}, "uniqueid": "MTK2350:3EFVCAY5L4GT0ZR1QAMP7F5JPYE8J3", "dateTime": 1516997647949}, {"current_trial": 168, "trialdata": {"rt": -1, "trial_type": "single-stim", "word": "panther", "stimulus": "<p id=\"stim\">PANTHER</p>", "conditions": [24, 1600, "v", 12000], "internal_node_id": "0.0-123.0", "trial": 4, "time_elapsed": 1374582, "serialpos": 23, "key_press": -1, "wordID": 1008, "type": "PRES_VIS", "trial_index": 168}, "uniqueid": "MTK2350:3EFVCAY5L4GT0ZR1QAMP7F5JPYE8J3", "dateTime": 1516997650639}, {"current_trial": 169, "trialdata": {"rt": -1, "trial_type": "single-stim", "stimulus": "", "internal_node_id": "0.0-124.0-0.0", "time_elapsed": 1376676, "key_press": -1, "type": "PRE_RECALL_DELAY", "trial_index": 169}, "uniqueid": "MTK2350:3EFVCAY5L4GT0ZR1QAMP7F5JPYE8J3", "dateTime": 1516997652734}, {"current_trial": 170, "trialdata": {"rt": -1000, "trial_type": "single-audio", "stimulus": "/static/audio/400Hz.wav", "internal_node_id": "0.0-125.0", "time_elapsed": 1377187, "key_press": -1, "type": "PRE_RECALL_ALERT", "trial_index": 170}, "uniqueid": "MTK2350:3EFVCAY5L4GT0ZR1QAMP7F5JPYE8J3", "dateTime": 1516997653244}, {"current_trial": 171, "trialdata": {"rt": [3009, 5702, 8073, 11485, 13462, 19161, 22051, 24784, 27352, 30456, 30758, 35033, 37210, 40563, 42455, 45441, 48824, 56946, 59985], "recwords": ["panther", "girl", "stamp", "ground", "shavel", "outlaw", "shortcake", "lizard", "leg", "wrist", "", "yarn", "tile", "worker", "country", "police", "sibling", "woman", "plaster"], "key_times": [1958, 2030, 2242, 2456, 2627, 2693, 2866, 3009, 4797, 5106, 5189, 5355, 5702, 7083, 7273, 7380, 7594, 7856, 8073, 10338, 10490, 10801, 11020, 11193, 11295, 11485, 12151, 12330, 12444, 12606, 12688, 13121, 13462, 17831, 18058, 18346, 18646, 18801, 19017, 19161, 19758, 19970, 20402, 20666, 20839, 21367, 21450, 21776, 21858, 22051, 23766, 23946, 24050, 24254, 24487, 24659, 24784, 26756, 26811, 27057, 27352, 29535, 29754, 30049, 30113, 30314, 30456, 30758, 34108, 34219, 34520, 34645, 35033, 36549, 36740, 36936, 36998, 37210, 38773, 39218, 39711, 39931, 40017, 40143, 40214, 40390, 40563, 41121, 41346, 41577, 41764, 41857, 42032, 42121, 42455, 44202, 44385, 44752, 44956, 45075, 45258, 45441, 47336, 47548, 47767, 47990, 48182, 48365, 48528, 48824, 56047, 56240, 56449, 56543, 56666, 56946, 58586, 58787, 59083, 59299, 59534, 59604, 59790, 59985], "trial_type": "free-recall", "conditions": [24, 1600, "v", 12000], "internal_node_id": "0.0-126.0-0.0", "key_presses": [80, 65, 78, 84, 72, 69, 82, 13, 71, 73, 82, 76, 13, 83, 84, 65, 77, 80, 13, 71, 82, 79, 85, 78, 68, 13, 83, 72, 65, 86, 69, 76, 13, 79, 85, 84, 76, 65, 87, 13, 83, 72, 79, 82, 84, 67, 65, 75, 69, 13, 76, 73, 90, 65, 82, 68, 13, 76, 69, 71, 13, 87, 82, 73, 83, 84, 32, 13, 89, 65, 82, 78, 13, 84, 73, 76, 69, 13, 87, 82, 8, 79, 82, 75, 69, 82, 13, 67, 79, 85, 78, 84, 82, 89, 13, 80, 79, 76, 73, 67, 69, 13, 83, 73, 66, 76, 73, 78, 71, 13, 87, 79, 77, 65, 78, 13, 80, 76, 65, 83, 84, 69, 82, 13], "trial": 4, "time_elapsed": 1437192, "type": "FREE_RECALL", "trial_index": 171}, "uniqueid": "MTK2350:3EFVCAY5L4GT0ZR1QAMP7F5JPYE8J3", "dateTime": 1516997713251}, {"current_trial": 172, "trialdata": {"rt": 271721, "trial_type": "text", "internal_node_id": "0.0-127.0", "time_elapsed": 1710917, "key_press": 32, "type": "INSTRUCTIONS", "trial_index": 172}, "uniqueid": "MTK2350:3EFVCAY5L4GT0ZR1QAMP7F5JPYE8J3", "dateTime": 1516997986975}, {"current_trial": 173, "trialdata": {"rt": [2023, 3837, 6544, 8419, 11755], "trial_type": "math-distractor", "key_times": [1694, 1839, 2023, 3428, 3622, 3837, 6136, 6349, 6544, 7980, 8190, 8419, 11332, 11536, 11755], "responses": ["20", "17", "24", "17", "17"], "num2": [3, 7, 6, 5, 5, 9], "num3": [8, 8, 9, 4, 6, 9], "conditions": [24, 800, "v", 12000], "internal_node_id": "0.0-128.0", "key_presses": [98, 96, 13, 97, 103, 13, 98, 100, 13, 97, 103, 13, 97, 103, 13], "trial": 5, "time_elapsed": 1724924, "type": "DISTRACTOR", "trial_index": 173, "num1": [9, 2, 9, 8, 6, 3]}, "uniqueid": "MTK2350:3EFVCAY5L4GT0ZR1QAMP7F5JPYE8J3", "dateTime": 1516998000981}, {"current_trial": 174, "trialdata": {"rt": -1, "trial_type": "single-stim", "stimulus": "<p id=\"stim\">10</p>", "internal_node_id": "0.0-129.0-0.0", "time_elapsed": 1727927, "key_press": -1, "trial_index": 174}, "uniqueid": "MTK2350:3EFVCAY5L4GT0ZR1QAMP7F5JPYE8J3", "dateTime": 1516998003984}, {"current_trial": 175, "trialdata": {"rt": -1, "trial_type": "single-stim", "stimulus": "<p id=\"stim\">9</p>", "internal_node_id": "0.0-129.0-1.0", "time_elapsed": 1728928, "key_press": -1, "trial_index": 175}, "uniqueid": "MTK2350:3EFVCAY5L4GT0ZR1QAMP7F5JPYE8J3", "dateTime": 1516998004986}, {"current_trial": 176, "trialdata": {"rt": -1, "trial_type": "single-stim", "stimulus": "<p id=\"stim\">8</p>", "internal_node_id": "0.0-129.0-2.0", "time_elapsed": 1729931, "key_press": -1, "trial_index": 176}, "uniqueid": "MTK2350:3EFVCAY5L4GT0ZR1QAMP7F5JPYE8J3", "dateTime": 1516998005988}, {"current_trial": 177, "trialdata": {"rt": -1, "trial_type": "single-stim", "stimulus": "<p id=\"stim\">7</p>", "internal_node_id": "0.0-129.0-3.0", "time_elapsed": 1730934, "key_press": -1, "trial_index": 177}, "uniqueid": "MTK2350:3EFVCAY5L4GT0ZR1QAMP7F5JPYE8J3", "dateTime": 1516998006991}, {"current_trial": 178, "trialdata": {"rt": -1, "trial_type": "single-stim", "stimulus": "<p id=\"stim\">6</p>", "internal_node_id": "0.0-129.0-4.0", "time_elapsed": 1731935, "key_press": -1, "trial_index": 178}, "uniqueid": "MTK2350:3EFVCAY5L4GT0ZR1QAMP7F5JPYE8J3", "dateTime": 1516998007992}, {"current_trial": 179, "trialdata": {"rt": -1, "trial_type": "single-stim", "stimulus": "<p id=\"stim\">5</p>", "internal_node_id": "0.0-129.0-5.0", "time_elapsed": 1732937, "key_press": -1, "trial_index": 179}, "uniqueid": "MTK2350:3EFVCAY5L4GT0ZR1QAMP7F5JPYE8J3", "dateTime": 1516998008994}, {"current_trial": 180, "trialdata": {"rt": -1, "trial_type": "single-stim", "stimulus": "<p id=\"stim\">4</p>", "internal_node_id": "0.0-129.0-6.0", "time_elapsed": 1733938, "key_press": -1, "trial_index": 180}, "uniqueid": "MTK2350:3EFVCAY5L4GT0ZR1QAMP7F5JPYE8J3", "dateTime": 1516998009996}, {"current_trial": 181, "trialdata": {"rt": -1, "trial_type": "single-stim", "stimulus": "<p id=\"stim\">3</p>", "internal_node_id": "0.0-129.0-7.0", "time_elapsed": 1734941, "key_press": -1, "trial_index": 181}, "uniqueid": "MTK2350:3EFVCAY5L4GT0ZR1QAMP7F5JPYE8J3", "dateTime": 1516998010998}, {"current_trial": 182, "trialdata": {"rt": -1, "trial_type": "single-stim", "stimulus": "<p id=\"stim\">2</p>", "internal_node_id": "0.0-129.0-8.0", "time_elapsed": 1735943, "key_press": -1, "trial_index": 182}, "uniqueid": "MTK2350:3EFVCAY5L4GT0ZR1QAMP7F5JPYE8J3", "dateTime": 1516998012000}, {"current_trial": 183, "trialdata": {"rt": -1, "trial_type": "single-stim", "stimulus": "<p id=\"stim\">1</p>", "internal_node_id": "0.0-129.0-9.0", "time_elapsed": 1736944, "key_press": -1, "trial_index": 183}, "uniqueid": "MTK2350:3EFVCAY5L4GT0ZR1QAMP7F5JPYE8J3", "dateTime": 1516998013001}, {"current_trial": 184, "trialdata": {"rt": -1, "trial_type": "single-stim", "stimulus": "<p id=\"stim\">+</p>", "internal_node_id": "0.0-130.0-0.0", "time_elapsed": 1738446, "key_press": -1, "type": "FIXATION", "trial_index": 184}, "uniqueid": "MTK2350:3EFVCAY5L4GT0ZR1QAMP7F5JPYE8J3", "dateTime": 1516998014503}, {"current_trial": 185, "trialdata": {"rt": -1, "trial_type": "single-stim", "word": "cookbook", "stimulus": "<p id=\"stim\">COOKBOOK</p>", "conditions": [24, 800, "v", 12000], "internal_node_id": "0.0-131.0", "trial": 5, "time_elapsed": 1739250, "serialpos": 0, "key_press": -1, "wordID": 372, "type": "PRES_VIS", "trial_index": 185}, "uniqueid": "MTK2350:3EFVCAY5L4GT0ZR1QAMP7F5JPYE8J3", "dateTime": 1516998015307}, {"current_trial": 186, "trialdata": {"rt": -1, "trial_type": "single-stim", "word": "kleenex", "stimulus": "<p id=\"stim\">KLEENEX</p>", "conditions": [24, 800, "v", 12000], "internal_node_id": "0.0-132.0", "trial": 5, "time_elapsed": 1741122, "serialpos": 1, "key_press": -1, "wordID": 781, "type": "PRES_VIS", "trial_index": 186}, "uniqueid": "MTK2350:3EFVCAY5L4GT0ZR1QAMP7F5JPYE8J3", "dateTime": 1516998017179}, {"current_trial": 187, "trialdata": {"rt": -1, "trial_type": "single-stim", "word": "partner", "stimulus": "<p id=\"stim\">PARTNER</p>", "conditions": [24, 800, "v", 12000], "internal_node_id": "0.0-133.0", "trial": 5, "time_elapsed": 1742965, "serialpos": 2, "key_press": -1, "wordID": 1016, "type": "PRES_VIS", "trial_index": 187}, "uniqueid": "MTK2350:3EFVCAY5L4GT0ZR1QAMP7F5JPYE8J3", "dateTime": 1516998019023}, {"current_trial": 188, "trialdata": {"rt": -1, "trial_type": "single-stim", "word": "queen", "stimulus": "<p id=\"stim\">QUEEN</p>", "conditions": [24, 800, "v", 12000], "internal_node_id": "0.0-134.0", "trial": 5, "time_elapsed": 1744611, "serialpos": 3, "key_press": -1, "wordID": 1148, "type": "PRES_VIS", "trial_index": 188}, "uniqueid": "MTK2350:3EFVCAY5L4GT0ZR1QAMP7F5JPYE8J3", "dateTime": 1516998020668}, {"current_trial": 189, "trialdata": {"rt": -1, "trial_type": "single-stim", "word": "student", "stimulus": "<p id=\"stim\">STUDENT</p>", "conditions": [24, 800, "v", 12000], "internal_node_id": "0.0-135.0", "trial": 5, "time_elapsed": 1746593, "serialpos": 4, "key_press": -1, "wordID": 1394, "type": "PRES_VIS", "trial_index": 189}, "uniqueid": "MTK2350:3EFVCAY5L4GT0ZR1QAMP7F5JPYE8J3", "dateTime": 1516998022650}, {"current_trial": 190, "trialdata": {"rt": -1, "trial_type": "single-stim", "word": "dorm", "stimulus": "<p id=\"stim\">DORM</p>", "conditions": [24, 800, "v", 12000], "internal_node_id": "0.0-136.0", "trial": 5, "time_elapsed": 1748227, "serialpos": 5, "key_press": -1, "wordID": 487, "type": "PRES_VIS", "trial_index": 190}, "uniqueid": "MTK2350:3EFVCAY5L4GT0ZR1QAMP7F5JPYE8J3", "dateTime": 1516998024284}, {"current_trial": 191, "trialdata": {"rt": -1, "trial_type": "single-stim", "word": "critic", "stimulus": "<p id=\"stim\">CRITIC</p>", "conditions": [24, 800, "v", 12000], "internal_node_id": "0.0-137.0", "trial": 5, "time_elapsed": 1750037, "serialpos": 6, "key_press": -1, "wordID": 409, "type": "PRES_VIS", "trial_index": 191}, "uniqueid": "MTK2350:3EFVCAY5L4GT0ZR1QAMP7F5JPYE8J3", "dateTime": 1516998026094}, {"current_trial": 192, "trialdata": {"rt": -1, "trial_type": "single-stim", "word": "fleet", "stimulus": "<p id=\"stim\">FLEET</p>", "conditions": [24, 800, "v", 12000], "internal_node_id": "0.0-138.0", "trial": 5, "time_elapsed": 1751693, "serialpos": 7, "key_press": -1, "wordID": 577, "type": "PRES_VIS", "trial_index": 192}, "uniqueid": "MTK2350:3EFVCAY5L4GT0ZR1QAMP7F5JPYE8J3", "dateTime": 1516998027750}, {"current_trial": 193, "trialdata": {"rt": -1, "trial_type": "single-stim", "word": "scarf", "stimulus": "<p id=\"stim\">SCARF</p>", "conditions": [24, 800, "v", 12000], "internal_node_id": "0.0-139.0", "trial": 5, "time_elapsed": 1753438, "serialpos": 8, "key_press": -1, "wordID": 1245, "type": "PRES_VIS", "trial_index": 193}, "uniqueid": "MTK2350:3EFVCAY5L4GT0ZR1QAMP7F5JPYE8J3", "dateTime": 1516998029495}, {"current_trial": 194, "trialdata": {"rt": -1, "trial_type": "single-stim", "word": "clamp", "stimulus": "<p id=\"stim\">CLAMP</p>", "conditions": [24, 800, "v", 12000], "internal_node_id": "0.0-140.0", "trial": 5, "time_elapsed": 1755235, "serialpos": 9, "key_press": -1, "wordID": 315, "type": "PRES_VIS", "trial_index": 194}, "uniqueid": "MTK2350:3EFVCAY5L4GT0ZR1QAMP7F5JPYE8J3", "dateTime": 1516998031293}, {"current_trial": 195, "trialdata": {"rt": -1, "trial_type": "single-stim", "word": "princess", "stimulus": "<p id=\"stim\">PRINCESS</p>", "conditions": [24, 800, "v", 12000], "internal_node_id": "0.0-141.0", "trial": 5, "time_elapsed": 1756902, "serialpos": 10, "key_press": -1, "wordID": 1124, "type": "PRES_VIS", "trial_index": 195}, "uniqueid": "MTK2350:3EFVCAY5L4GT0ZR1QAMP7F5JPYE8J3", "dateTime": 1516998032960}, {"current_trial": 196, "trialdata": {"rt": -1, "trial_type": "single-stim", "word": "honey", "stimulus": "<p id=\"stim\">HONEY</p>", "conditions": [24, 800, "v", 12000], "internal_node_id": "0.0-142.0", "trial": 5, "time_elapsed": 1758883, "serialpos": 11, "key_press": -1, "wordID": 712, "type": "PRES_VIS", "trial_index": 196}, "uniqueid": "MTK2350:3EFVCAY5L4GT0ZR1QAMP7F5JPYE8J3", "dateTime": 1516998034941}, {"current_trial": 197, "trialdata": {"rt": -1, "trial_type": "single-stim", "word": "clothes", "stimulus": "<p id=\"stim\">CLOTHES</p>", "conditions": [24, 800, "v", 12000], "internal_node_id": "0.0-143.0", "trial": 5, "time_elapsed": 1760769, "serialpos": 12, "key_press": -1, "wordID": 326, "type": "PRES_VIS", "trial_index": 197}, "uniqueid": "MTK2350:3EFVCAY5L4GT0ZR1QAMP7F5JPYE8J3", "dateTime": 1516998036826}, {"current_trial": 198, "trialdata": {"rt": -1, "trial_type": "single-stim", "word": "seal", "stimulus": "<p id=\"stim\">SEAL</p>", "conditions": [24, 800, "v", 12000], "internal_node_id": "0.0-144.0", "trial": 5, "time_elapsed": 1762604, "serialpos": 13, "key_press": -1, "wordID": 1261, "type": "PRES_VIS", "trial_index": 198}, "uniqueid": "MTK2350:3EFVCAY5L4GT0ZR1QAMP7F5JPYE8J3", "dateTime": 1516998038661}, {"current_trial": 199, "trialdata": {"rt": -1, "trial_type": "single-stim", "word": "shrub", "stimulus": "<p id=\"stim\">SHRUB</p>", "conditions": [24, 800, "v", 12000], "internal_node_id": "0.0-145.0", "trial": 5, "time_elapsed": 1764285, "serialpos": 14, "key_press": -1, "wordID": 1298, "type": "PRES_VIS", "trial_index": 199}, "uniqueid": "MTK2350:3EFVCAY5L4GT0ZR1QAMP7F5JPYE8J3", "dateTime": 1516998040343}, {"current_trial": 200, "trialdata": {"rt": -1, "trial_type": "single-stim", "word": "bug", "stimulus": "<p id=\"stim\">BUG</p>", "conditions": [24, 800, "v", 12000], "internal_node_id": "0.0-146.0", "trial": 5, "time_elapsed": 1766054, "serialpos": 15, "key_press": -1, "wordID": 186, "type": "PRES_VIS", "trial_index": 200}, "uniqueid": "MTK2350:3EFVCAY5L4GT0ZR1QAMP7F5JPYE8J3", "dateTime": 1516998042111}, {"current_trial": 201, "trialdata": {"rt": -1, "trial_type": "single-stim", "word": "tombstone", "stimulus": "<p id=\"stim\">TOMBSTONE</p>", "conditions": [24, 800, "v", 12000], "internal_node_id": "0.0-147.0", "trial": 5, "time_elapsed": 1767905, "serialpos": 16, "key_press": -1, "wordID": 1477, "type": "PRES_VIS", "trial_index": 201}, "uniqueid": "MTK2350:3EFVCAY5L4GT0ZR1QAMP7F5JPYE8J3", "dateTime": 1516998043963}, {"current_trial": 202, "trialdata": {"rt": -1, "trial_type": "single-stim", "word": "statue", "stimulus": "<p id=\"stim\">STATUE</p>", "conditions": [24, 800, "v", 12000], "internal_node_id": "0.0-148.0", "trial": 5, "time_elapsed": 1769902, "serialpos": 17, "key_press": -1, "wordID": 1373, "type": "PRES_VIS", "trial_index": 202}, "uniqueid": "MTK2350:3EFVCAY5L4GT0ZR1QAMP7F5JPYE8J3", "dateTime": 1516998045960}, {"current_trial": 203, "trialdata": {"rt": -1, "trial_type": "single-stim", "word": "guitar", "stimulus": "<p id=\"stim\">GUITAR</p>", "conditions": [24, 800, "v", 12000], "internal_node_id": "0.0-149.0", "trial": 5, "time_elapsed": 1771830, "serialpos": 18, "key_press": -1, "wordID": 669, "type": "PRES_VIS", "trial_index": 203}, "uniqueid": "MTK2350:3EFVCAY5L4GT0ZR1QAMP7F5JPYE8J3", "dateTime": 1516998047887}, {"current_trial": 204, "trialdata": {"rt": -1, "trial_type": "single-stim", "word": "chapel", "stimulus": "<p id=\"stim\">CHAPEL</p>", "conditions": [24, 800, "v", 12000], "internal_node_id": "0.0-150.0", "trial": 5, "time_elapsed": 1773443, "serialpos": 19, "key_press": -1, "wordID": 279, "type": "PRES_VIS", "trial_index": 204}, "uniqueid": "MTK2350:3EFVCAY5L4GT0ZR1QAMP7F5JPYE8J3", "dateTime": 1516998049500}, {"current_trial": 205, "trialdata": {"rt": -1, "trial_type": "single-stim", "word": "lettuce", "stimulus": "<p id=\"stim\">LETTUCE</p>", "conditions": [24, 800, "v", 12000], "internal_node_id": "0.0-151.0", "trial": 5, "time_elapsed": 1775158, "serialpos": 20, "key_press": -1, "wordID": 813, "type": "PRES_VIS", "trial_index": 205}, "uniqueid": "MTK2350:3EFVCAY5L4GT0ZR1QAMP7F5JPYE8J3", "dateTime": 1516998051215}, {"current_trial": 206, "trialdata": {"rt": -1, "trial_type": "single-stim", "word": "lace", "stimulus": "<p id=\"stim\">LACE</p>", "conditions": [24, 800, "v", 12000], "internal_node_id": "0.0-152.0", "trial": 5, "time_elapsed": 1776993, "serialpos": 21, "key_press": -1, "wordID": 791, "type": "PRES_VIS", "trial_index": 206}, "uniqueid": "MTK2350:3EFVCAY5L4GT0ZR1QAMP7F5JPYE8J3", "dateTime": 1516998053051}, {"current_trial": 207, "trialdata": {"rt": -1, "trial_type": "single-stim", "word": "piano", "stimulus": "<p id=\"stim\">PIANO</p>", "conditions": [24, 800, "v", 12000], "internal_node_id": "0.0-153.0", "trial": 5, "time_elapsed": 1778933, "serialpos": 22, "key_press": -1, "wordID": 1056, "type": "PRES_VIS", "trial_index": 207}, "uniqueid": "MTK2350:3EFVCAY5L4GT0ZR1QAMP7F5JPYE8J3", "dateTime": 1516998054990}, {"current_trial": 208, "trialdata": {"rt": -1, "trial_type": "single-stim", "word": "cashier", "stimulus": "<p id=\"stim\">CASHIER</p>", "conditions": [24, 800, "v", 12000], "internal_node_id": "0.0-154.0", "trial": 5, "time_elapsed": 1780832, "serialpos": 23, "key_press": -1, "wordID": 253, "type": "PRES_VIS", "trial_index": 208}, "uniqueid": "MTK2350:3EFVCAY5L4GT0ZR1QAMP7F5JPYE8J3", "dateTime": 1516998056890}, {"current_trial": 209, "trialdata": {"rt": -1, "trial_type": "single-stim", "stimulus": "", "internal_node_id": "0.0-155.0-0.0", "time_elapsed": 1782957, "key_press": -1, "type": "PRE_RECALL_DELAY", "trial_index": 209}, "uniqueid": "MTK2350:3EFVCAY5L4GT0ZR1QAMP7F5JPYE8J3", "dateTime": 1516998059014}, {"current_trial": 210, "trialdata": {"rt": -1000, "trial_type": "single-audio", "stimulus": "/static/audio/400Hz.wav", "internal_node_id": "0.0-156.0", "time_elapsed": 1783464, "key_press": -1, "type": "PRE_RECALL_ALERT", "trial_index": 210}, "uniqueid": "MTK2350:3EFVCAY5L4GT0ZR1QAMP7F5JPYE8J3", "dateTime": 1516998059522}, {"current_trial": 211, "trialdata": {"rt": [6170, 9240, 11477, 13832, 16311, 19174, 21741, 27174, 30141, 32929, 35056, 42078, 44533, 47493, 51433, 55852, 57640], "recwords": ["cahier", "piano", "lace", "lettuce", "chapel", "guitar", "statue", "yombstone", "bug", "shrub", "seal", "honey", "clothes", "princess", "clamp", "critic", "flee"], "key_times": [5158, 5459, 5619, 5777, 5872, 6064, 6170, 8324, 8527, 8676, 8800, 8953, 9240, 10836, 10924, 11165, 11259, 11477, 12842, 12927, 13177, 13309, 13399, 13597, 13771, 13832, 15277, 15462, 15564, 15759, 15859, 16115, 16311, 17969, 18173, 18331, 18616, 18724, 18840, 19174, 20789, 20919, 21031, 21213, 21427, 21503, 21741, 24434, 25240, 25449, 25856, 26334, 26570, 26732, 26907, 26966, 27174, 29619, 29804, 29894, 30141, 32009, 32192, 32296, 32508, 32674, 32929, 34224, 34385, 34591, 34834, 35056, 39386, 39595, 39791, 39872, 40005, 40876, 41140, 41707, 41892, 42078, 43106, 43231, 43397, 43688, 43841, 43884, 44351, 44533, 46271, 46404, 46536, 46717, 46832, 47034, 47225, 47350, 47493, 50531, 50747, 50859, 51012, 51203, 51433, 54133, 54337, 55125, 55266, 55467, 55610, 55852, 56559, 56777, 56997, 57160, 57640], "trial_type": "free-recall", "conditions": [24, 800, "v", 12000], "internal_node_id": "0.0-157.0-0.0", "key_presses": [67, 65, 72, 73, 69, 82, 13, 80, 73, 65, 78, 79, 13, 76, 65, 67, 69, 13, 76, 69, 84, 84, 85, 67, 69, 13, 67, 72, 65, 80, 69, 76, 13, 71, 85, 73, 84, 65, 82, 13, 83, 84, 65, 84, 85, 69, 13, 89, 79, 77, 66, 83, 84, 79, 78, 69, 13, 66, 85, 71, 13, 83, 72, 82, 85, 66, 13, 83, 69, 65, 76, 13, 72, 79, 78, 69, 76, 8, 85, 8, 89, 13, 67, 76, 79, 84, 72, 69, 83, 13, 80, 82, 73, 78, 67, 69, 83, 83, 13, 67, 76, 65, 77, 80, 13, 67, 82, 73, 84, 73, 67, 13, 70, 76, 69, 69, 13], "trial": 5, "time_elapsed": 1843469, "type": "FREE_RECALL", "trial_index": 211}, "uniqueid": "MTK2350:3EFVCAY5L4GT0ZR1QAMP7F5JPYE8J3", "dateTime": 1516998119533}, {"current_trial": 212, "trialdata": {"rt": 208812, "trial_type": "text", "internal_node_id": "0.0-158.0", "time_elapsed": 2054291, "key_press": 32, "type": "INSTRUCTIONS", "trial_index": 212}, "uniqueid": "MTK2350:3EFVCAY5L4GT0ZR1QAMP7F5JPYE8J3", "dateTime": 1516998330350}, {"current_trial": 213, "trialdata": {"rt": [4288, 6223, 9228, 10854, 13571, 15690, 17240, 18823, 21056, 22683], "trial_type": "math-distractor", "key_times": [3675, 4093, 4288, 5874, 6026, 6223, 8812, 9015, 9228, 10653, 10854, 13108, 13283, 13571, 15279, 15444, 15690, 16815, 16985, 17240, 18411, 18546, 18823, 20632, 20810, 21056, 22312, 22461, 22683], "responses": ["15", "14", "17", "9", "16", "16", "19", "15", "16", "14"], "num2": [9, 5, 9, 4, 7, 2, 5, 2, 7, 1, 6], "num3": [1, 2, 2, 4, 7, 5, 9, 5, 8, 7, 3], "conditions": [24, 800, "v", 24000], "internal_node_id": "0.0-159.0", "key_presses": [97, 101, 13, 97, 100, 13, 97, 103, 13, 105, 13, 97, 102, 13, 97, 102, 13, 97, 105, 13, 97, 101, 13, 97, 102, 13, 97, 100, 13], "trial": 6, "time_elapsed": 2080301, "type": "DISTRACTOR", "trial_index": 213, "num1": [5, 7, 7, 1, 2, 9, 5, 8, 1, 6, 9]}, "uniqueid": "MTK2350:3EFVCAY5L4GT0ZR1QAMP7F5JPYE8J3", "dateTime": 1516998356358}, {"current_trial": 214, "trialdata": {"rt": -1, "trial_type": "single-stim", "stimulus": "<p id=\"stim\">10</p>", "internal_node_id": "0.0-160.0-0.0", "time_elapsed": 2083305, "key_press": -1, "trial_index": 214}, "uniqueid": "MTK2350:3EFVCAY5L4GT0ZR1QAMP7F5JPYE8J3", "dateTime": 1516998359362}, {"current_trial": 215, "trialdata": {"rt": -1, "trial_type": "single-stim", "stimulus": "<p id=\"stim\">9</p>", "internal_node_id": "0.0-160.0-1.0", "time_elapsed": 2084307, "key_press": -1, "trial_index": 215}, "uniqueid": "MTK2350:3EFVCAY5L4GT0ZR1QAMP7F5JPYE8J3", "dateTime": 1516998360364}, {"current_trial": 216, "trialdata": {"rt": -1, "trial_type": "single-stim", "stimulus": "<p id=\"stim\">8</p>", "internal_node_id": "0.0-160.0-2.0", "time_elapsed": 2085310, "key_press": -1, "trial_index": 216}, "uniqueid": "MTK2350:3EFVCAY5L4GT0ZR1QAMP7F5JPYE8J3", "dateTime": 1516998361368}, {"current_trial": 217, "trialdata": {"rt": -1, "trial_type": "single-stim", "stimulus": "<p id=\"stim\">7</p>", "internal_node_id": "0.0-160.0-3.0", "time_elapsed": 2086313, "key_press": -1, "trial_index": 217}, "uniqueid": "MTK2350:3EFVCAY5L4GT0ZR1QAMP7F5JPYE8J3", "dateTime": 1516998362371}, {"current_trial": 218, "trialdata": {"rt": -1, "trial_type": "single-stim", "stimulus": "<p id=\"stim\">6</p>", "internal_node_id": "0.0-160.0-4.0", "time_elapsed": 2087315, "key_press": -1, "trial_index": 218}, "uniqueid": "MTK2350:3EFVCAY5L4GT0ZR1QAMP7F5JPYE8J3", "dateTime": 1516998363372}, {"current_trial": 219, "trialdata": {"rt": -1, "trial_type": "single-stim", "stimulus": "<p id=\"stim\">5</p>", "internal_node_id": "0.0-160.0-5.0", "time_elapsed": 2088317, "key_press": -1, "trial_index": 219}, "uniqueid": "MTK2350:3EFVCAY5L4GT0ZR1QAMP7F5JPYE8J3", "dateTime": 1516998364374}, {"current_trial": 220, "trialdata": {"rt": -1, "trial_type": "single-stim", "stimulus": "<p id=\"stim\">4</p>", "internal_node_id": "0.0-160.0-6.0", "time_elapsed": 2089320, "key_press": -1, "trial_index": 220}, "uniqueid": "MTK2350:3EFVCAY5L4GT0ZR1QAMP7F5JPYE8J3", "dateTime": 1516998365379}, {"current_trial": 221, "trialdata": {"rt": -1, "trial_type": "single-stim", "stimulus": "<p id=\"stim\">3</p>", "internal_node_id": "0.0-160.0-7.0", "time_elapsed": 2090324, "key_press": -1, "trial_index": 221}, "uniqueid": "MTK2350:3EFVCAY5L4GT0ZR1QAMP7F5JPYE8J3", "dateTime": 1516998366382}, {"current_trial": 222, "trialdata": {"rt": -1, "trial_type": "single-stim", "stimulus": "<p id=\"stim\">2</p>", "internal_node_id": "0.0-160.0-8.0", "time_elapsed": 2091326, "key_press": -1, "trial_index": 222}, "uniqueid": "MTK2350:3EFVCAY5L4GT0ZR1QAMP7F5JPYE8J3", "dateTime": 1516998367383}, {"current_trial": 223, "trialdata": {"rt": -1, "trial_type": "single-stim", "stimulus": "<p id=\"stim\">1</p>", "internal_node_id": "0.0-160.0-9.0", "time_elapsed": 2092328, "key_press": -1, "trial_index": 223}, "uniqueid": "MTK2350:3EFVCAY5L4GT0ZR1QAMP7F5JPYE8J3", "dateTime": 1516998368385}, {"current_trial": 224, "trialdata": {"rt": -1, "trial_type": "single-stim", "stimulus": "<p id=\"stim\">+</p>", "internal_node_id": "0.0-161.0-0.0", "time_elapsed": 2093830, "key_press": -1, "type": "FIXATION", "trial_index": 224}, "uniqueid": "MTK2350:3EFVCAY5L4GT0ZR1QAMP7F5JPYE8J3", "dateTime": 1516998369888}, {"current_trial": 225, "trialdata": {"rt": -1, "trial_type": "single-stim", "word": "contract", "stimulus": "<p id=\"stim\">CONTRACT</p>", "conditions": [24, 800, "v", 24000], "internal_node_id": "0.0-162.0", "trial": 6, "time_elapsed": 2094633, "serialpos": 0, "key_press": -1, "wordID": 367, "type": "PRES_VIS", "trial_index": 225}, "uniqueid": "MTK2350:3EFVCAY5L4GT0ZR1QAMP7F5JPYE8J3", "dateTime": 1516998370690}, {"current_trial": 226, "trialdata": {"rt": -1, "trial_type": "single-stim", "word": "cousin", "stimulus": "<p id=\"stim\">COUSIN</p>", "conditions": [24, 800, "v", 24000], "internal_node_id": "0.0-163.0", "trial": 6, "time_elapsed": 2096508, "serialpos": 1, "key_press": -1, "wordID": 391, "type": "PRES_VIS", "trial_index": 226}, "uniqueid": "MTK2350:3EFVCAY5L4GT0ZR1QAMP7F5JPYE8J3", "dateTime": 1516998372566}, {"current_trial": 227, "trialdata": {"rt": -1, "trial_type": "single-stim", "word": "boyfriend", "stimulus": "<p id=\"stim\">BOYFRIEND</p>", "conditions": [24, 800, "v", 24000], "internal_node_id": "0.0-164.0", "trial": 6, "time_elapsed": 2098400, "serialpos": 2, "key_press": -1, "wordID": 161, "type": "PRES_VIS", "trial_index": 227}, "uniqueid": "MTK2350:3EFVCAY5L4GT0ZR1QAMP7F5JPYE8J3", "dateTime": 1516998374458}, {"current_trial": 228, "trialdata": {"rt": -1, "trial_type": "single-stim", "word": "ozone", "stimulus": "<p id=\"stim\">OZONE</p>", "conditions": [24, 800, "v", 24000], "internal_node_id": "0.0-165.0", "trial": 6, "time_elapsed": 2100030, "serialpos": 3, "key_press": -1, "wordID": 995, "type": "PRES_VIS", "trial_index": 228}, "uniqueid": "MTK2350:3EFVCAY5L4GT0ZR1QAMP7F5JPYE8J3", "dateTime": 1516998376088}, {"current_trial": 229, "trialdata": {"rt": -1, "trial_type": "single-stim", "word": "sword", "stimulus": "<p id=\"stim\">SWORD</p>", "conditions": [24, 800, "v", 24000], "internal_node_id": "0.0-166.0", "trial": 6, "time_elapsed": 2101664, "serialpos": 4, "key_press": -1, "wordID": 1422, "type": "PRES_VIS", "trial_index": 229}, "uniqueid": "MTK2350:3EFVCAY5L4GT0ZR1QAMP7F5JPYE8J3", "dateTime": 1516998377722}, {"current_trial": 230, "trialdata": {"rt": -1, "trial_type": "single-stim", "word": "leader", "stimulus": "<p id=\"stim\">LEADER</p>", "conditions": [24, 800, "v", 24000], "internal_node_id": "0.0-167.0", "trial": 6, "time_elapsed": 2103472, "serialpos": 5, "key_press": -1, "wordID": 806, "type": "PRES_VIS", "trial_index": 230}, "uniqueid": "MTK2350:3EFVCAY5L4GT0ZR1QAMP7F5JPYE8J3", "dateTime": 1516998379529}, {"current_trial": 231, "trialdata": {"rt": -1, "trial_type": "single-stim", "word": "preacher", "stimulus": "<p id=\"stim\">PREACHER</p>", "conditions": [24, 800, "v", 24000], "internal_node_id": "0.0-168.0", "trial": 6, "time_elapsed": 2105308, "serialpos": 6, "key_press": -1, "wordID": 1118, "type": "PRES_VIS", "trial_index": 231}, "uniqueid": "MTK2350:3EFVCAY5L4GT0ZR1QAMP7F5JPYE8J3", "dateTime": 1516998381365}, {"current_trial": 232, "trialdata": {"rt": -1, "trial_type": "single-stim", "word": "knife", "stimulus": "<p id=\"stim\">KNIFE</p>", "conditions": [24, 800, "v", 24000], "internal_node_id": "0.0-169.0", "trial": 6, "time_elapsed": 2107165, "serialpos": 7, "key_press": -1, "wordID": 784, "type": "PRES_VIS", "trial_index": 232}, "uniqueid": "MTK2350:3EFVCAY5L4GT0ZR1QAMP7F5JPYE8J3", "dateTime": 1516998383222}, {"current_trial": 233, "trialdata": {"rt": -1, "trial_type": "single-stim", "word": "palace", "stimulus": "<p id=\"stim\">PALACE</p>", "conditions": [24, 800, "v", 24000], "internal_node_id": "0.0-170.0", "trial": 6, "time_elapsed": 2108883, "serialpos": 8, "key_press": -1, "wordID": 1005, "type": "PRES_VIS", "trial_index": 233}, "uniqueid": "MTK2350:3EFVCAY5L4GT0ZR1QAMP7F5JPYE8J3", "dateTime": 1516998384940}, {"current_trial": 234, "trialdata": {"rt": -1, "trial_type": "single-stim", "word": "twister", "stimulus": "<p id=\"stim\">TWISTER</p>", "conditions": [24, 800, "v", 24000], "internal_node_id": "0.0-171.0", "trial": 6, "time_elapsed": 2110524, "serialpos": 9, "key_press": -1, "wordID": 1529, "type": "PRES_VIS", "trial_index": 234}, "uniqueid": "MTK2350:3EFVCAY5L4GT0ZR1QAMP7F5JPYE8J3", "dateTime": 1516998386582}, {"current_trial": 235, "trialdata": {"rt": -1, "trial_type": "single-stim", "word": "termite", "stimulus": "<p id=\"stim\">TERMITE</p>", "conditions": [24, 800, "v", 24000], "internal_node_id": "0.0-172.0", "trial": 6, "time_elapsed": 2112163, "serialpos": 10, "key_press": -1, "wordID": 1450, "type": "PRES_VIS", "trial_index": 235}, "uniqueid": "MTK2350:3EFVCAY5L4GT0ZR1QAMP7F5JPYE8J3", "dateTime": 1516998388221}, {"current_trial": 236, "trialdata": {"rt": -1, "trial_type": "single-stim", "word": "flute", "stimulus": "<p id=\"stim\">FLUTE</p>", "conditions": [24, 800, "v", 24000], "internal_node_id": "0.0-173.0", "trial": 6, "time_elapsed": 2114046, "serialpos": 11, "key_press": -1, "wordID": 584, "type": "PRES_VIS", "trial_index": 236}, "uniqueid": "MTK2350:3EFVCAY5L4GT0ZR1QAMP7F5JPYE8J3", "dateTime": 1516998390104}, {"current_trial": 237, "trialdata": {"rt": -1, "trial_type": "single-stim", "word": "pimple", "stimulus": "<p id=\"stim\">PIMPLE</p>", "conditions": [24, 800, "v", 24000], "internal_node_id": "0.0-174.0", "trial": 6, "time_elapsed": 2115937, "serialpos": 12, "key_press": -1, "wordID": 1070, "type": "PRES_VIS", "trial_index": 237}, "uniqueid": "MTK2350:3EFVCAY5L4GT0ZR1QAMP7F5JPYE8J3", "dateTime": 1516998391994}, {"current_trial": 238, "trialdata": {"rt": -1, "trial_type": "single-stim", "word": "custard", "stimulus": "<p id=\"stim\">CUSTARD</p>", "conditions": [24, 800, "v", 24000], "internal_node_id": "0.0-175.0", "trial": 6, "time_elapsed": 2117665, "serialpos": 13, "key_press": -1, "wordID": 428, "type": "PRES_VIS", "trial_index": 238}, "uniqueid": "MTK2350:3EFVCAY5L4GT0ZR1QAMP7F5JPYE8J3", "dateTime": 1516998393722}, {"current_trial": 239, "trialdata": {"rt": -1, "trial_type": "single-stim", "word": "thief", "stimulus": "<p id=\"stim\">THIEF</p>", "conditions": [24, 800, "v", 24000], "internal_node_id": "0.0-176.0", "trial": 6, "time_elapsed": 2119362, "serialpos": 14, "key_press": -1, "wordID": 1455, "type": "PRES_VIS", "trial_index": 239}, "uniqueid": "MTK2350:3EFVCAY5L4GT0ZR1QAMP7F5JPYE8J3", "dateTime": 1516998395420}, {"current_trial": 240, "trialdata": {"rt": -1, "trial_type": "single-stim", "word": "europe", "stimulus": "<p id=\"stim\">EUROPE</p>", "conditions": [24, 800, "v", 24000], "internal_node_id": "0.0-177.0", "trial": 6, "time_elapsed": 2121351, "serialpos": 15, "key_press": -1, "wordID": 540, "type": "PRES_VIS", "trial_index": 240}, "uniqueid": "MTK2350:3EFVCAY5L4GT0ZR1QAMP7F5JPYE8J3", "dateTime": 1516998397410}, {"current_trial": 241, "trialdata": {"rt": -1, "trial_type": "single-stim", "word": "sponge", "stimulus": "<p id=\"stim\">SPONGE</p>", "conditions": [24, 800, "v", 24000], "internal_node_id": "0.0-178.0", "trial": 6, "time_elapsed": 2123208, "serialpos": 16, "key_press": -1, "wordID": 1354, "type": "PRES_VIS", "trial_index": 241}, "uniqueid": "MTK2350:3EFVCAY5L4GT0ZR1QAMP7F5JPYE8J3", "dateTime": 1516998399266}, {"current_trial": 242, "trialdata": {"rt": -1, "trial_type": "single-stim", "word": "peanut", "stimulus": "<p id=\"stim\">PEANUT</p>", "conditions": [24, 800, "v", 24000], "internal_node_id": "0.0-179.0", "trial": 6, "time_elapsed": 2125092, "serialpos": 17, "key_press": -1, "wordID": 1031, "type": "PRES_VIS", "trial_index":