{"assignmentId": "31N2WW6R9SXRU0ZZV308105GHXPF3K", "workerId": "MTK2635", "questiondata": {"origin": "United States", "strat-rehearsal": "9", "marital": "Divorced", "education": "Bachelor's degree", "ethnicity": "Not Hispanic", "color_depth": 24, "distracted": "No", "wrote-notes": "No", "strat-other": "rooms with objects in them", "screen_width": 1366, "avail_screen_width": 1366, "avail_screen_height": 728, "strat-image": "100", "language": "english", "gender": "Male", "age": "60", "gender_other": "", "race": ["White"], "strat-categorize": "70", "pixel_depth": 24, "strat-spatial": "45", "strat-story": "90", "race_other": "", "screen_height": 768}, "bonus": 0, "hitId": "3PGQRAZX02RZRO3F06OV99OOVIDSYE", "counterbalance": 1254, "useragent": "Mozilla/5.0 (Windows NT 10.0; Win64; x64) AppleWebKit/537.36 (KHTML, like Gecko) Chrome/64.0.3282.167 Safari/537.36", "eventdata": [{"eventtype": "initialized", "interval": 0, "value": null, "timestamp": 1519165230459}, {"eventtype": "window_resize", "interval": 0, "value": [1366, 721], "timestamp": 1519165230459}, {"eventtype": "window_resize", "interval": 132544, "value": [1517, 801], "timestamp": 1519165363003}, {"eventtype": "focus", "interval": 1637216, "value": "off", "timestamp": 1519167000219}, {"eventtype": "focus", "interval": 14614, "value": "on", "timestamp": 1519167014833}], "data": [{"current_trial": 0, "trialdata": {"rt": 2186, "trial_type": "text", "internal_node_id": "0.0-0.0", "time_elapsed": 2187, "key_press": 74, "type": "INSTRUCTIONS", "trial_index": 0}, "uniqueid": "MTK2635:31N2WW6R9SXRU0ZZV308105GHXPF3K", "dateTime": 1519165238522}, {"current_trial": 1, "trialdata": {"rt": 1878, "trial_type": "text", "internal_node_id": "0.0-1.0", "time_elapsed": 4067, "key_press": 13, "type": "INSTRUCTIONS", "trial_index": 1}, "uniqueid": "MTK2635:31N2WW6R9SXRU0ZZV308105GHXPF3K", "dateTime": 1519165240401}, {"current_trial": 2, "trialdata": {"rt": [11163], "trial_type": "audio-test", "responses": ["ocean"], "internal_node_id": "0.0-2.0", "time_elapsed": 15235, "type": "AUDIO_TEST", "trial_index": 2}, "uniqueid": "MTK2635:31N2WW6R9SXRU0ZZV308105GHXPF3K", "dateTime": 1519165251569}, {"current_trial": 3, "trialdata": {"rt": [10740], "trial_type": "audio-test", "responses": ["crystal"], "internal_node_id": "0.0-3.0", "time_elapsed": 25979, "type": "AUDIO_TEST", "trial_index": 3}, "uniqueid": "MTK2635:31N2WW6R9SXRU0ZZV308105GHXPF3K", "dateTime": 1519165262313}, {"current_trial": 4, "trialdata": {"rt": [31886], "trial_type": "audio-test", "responses": ["spice"], "internal_node_id": "0.0-4.0", "time_elapsed": 57868, "type": "AUDIO_TEST", "trial_index": 4}, "uniqueid": "MTK2635:31N2WW6R9SXRU0ZZV308105GHXPF3K", "dateTime": 1519165294202}, {"current_trial": 5, "trialdata": {"rt": 26235, "trial_type": "survey-text", "responses": "{\"Q0\":\"2:30\",\"Q1\":\"8:30\",\"Q2\":\"4\"}", "internal_node_id": "0.0-5.0", "time_elapsed": 84855, "type": "SLEEP_SURVEY", "trial_index": 5}, "uniqueid": "MTK2635:31N2WW6R9SXRU0ZZV308105GHXPF3K", "dateTime": 1519165321189}, {"current_trial": 6, "trialdata": {"rt": 39534, "trial_type": "text", "internal_node_id": "0.0-6.0", "time_elapsed": 125390, "key_press": 17, "type": "INSTRUCTIONS", "trial_index": 6}, "uniqueid": "MTK2635:31N2WW6R9SXRU0ZZV308105GHXPF3K", "dateTime": 1519165361724}, {"current_trial": 7, "trialdata": {"rt": 546, "trial_type": "text", "internal_node_id": "0.0-7.0", "time_elapsed": 126438, "key_press": 189, "type": "INSTRUCTIONS", "trial_index": 7}, "uniqueid": "MTK2635:31N2WW6R9SXRU0ZZV308105GHXPF3K", "dateTime": 1519165362772}, {"current_trial": 8, "trialdata": {"rt": 4306, "trial_type": "text", "internal_node_id": "0.0-8.0", "time_elapsed": 131246, "key_press": 75, "type": "INSTRUCTIONS", "trial_index": 8}, "uniqueid": "MTK2635:31N2WW6R9SXRU0ZZV308105GHXPF3K", "dateTime": 1519165367580}, {"current_trial": 9, "trialdata": {"rt": [5263, 10088, 13589, 17404], "trial_type": "math-distractor", "key_times": [3390, 3699, 5263, 7619, 8064, 10088, 12326, 12840, 13589, 15840, 16215, 17404], "responses": ["15", "17", "16", "18"], "num2": [5, 6, 5, 7, 3], "num3": [3, 7, 5, 3, 2], "conditions": [18, 1200, "a", 18000], "internal_node_id": "0.0-9.0", "key_presses": [49, 53, 13, 49, 55, 13, 49, 54, 13, 49, 56, 13], "trial": 0, "time_elapsed": 150251, "type": "DISTRACTOR", "trial_index": 9, "num1": [7, 4, 6, 8, 3]}, "uniqueid": "MTK2635:31N2WW6R9SXRU0ZZV308105GHXPF3K", "dateTime": 1519165386585}, {"current_trial": 10, "trialdata": {"rt": -1, "trial_type": "single-stim", "stimulus": "<p id=\"stim\">10</p>", "internal_node_id": "0.0-10.0-0.0", "time_elapsed": 153254, "key_press": -1, "trial_index": 10}, "uniqueid": "MTK2635:31N2WW6R9SXRU0ZZV308105GHXPF3K", "dateTime": 1519165389588}, {"current_trial": 11, "trialdata": {"rt": -1, "trial_type": "single-stim", "stimulus": "<p id=\"stim\">9</p>", "internal_node_id": "0.0-10.0-1.0", "time_elapsed": 154255, "key_press": -1, "trial_index": 11}, "uniqueid": "MTK2635:31N2WW6R9SXRU0ZZV308105GHXPF3K", "dateTime": 1519165390589}, {"current_trial": 12, "trialdata": {"rt": -1, "trial_type": "single-stim", "stimulus": "<p id=\"stim\">8</p>", "internal_node_id": "0.0-10.0-2.0", "time_elapsed": 155256, "key_press": -1, "trial_index": 12}, "uniqueid": "MTK2635:31N2WW6R9SXRU0ZZV308105GHXPF3K", "dateTime": 1519165391590}, {"current_trial": 13, "trialdata": {"rt": -1, "trial_type": "single-stim", "stimulus": "<p id=\"stim\">7</p>", "internal_node_id": "0.0-10.0-3.0", "time_elapsed": 156259, "key_press": -1, "trial_index": 13}, "uniqueid": "MTK2635:31N2WW6R9SXRU0ZZV308105GHXPF3K", "dateTime": 1519165392593}, {"current_trial": 14, "trialdata": {"rt": -1, "trial_type": "single-stim", "stimulus": "<p id=\"stim\">6</p>", "internal_node_id": "0.0-10.0-4.0", "time_elapsed": 157261, "key_press": -1, "trial_index": 14}, "uniqueid": "MTK2635:31N2WW6R9SXRU0ZZV308105GHXPF3K", "dateTime": 1519165393595}, {"current_trial": 15, "trialdata": {"rt": -1, "trial_type": "single-stim", "stimulus": "<p id=\"stim\">5</p>", "internal_node_id": "0.0-10.0-5.0", "time_elapsed": 158263, "key_press": -1, "trial_index": 15}, "uniqueid": "MTK2635:31N2WW6R9SXRU0ZZV308105GHXPF3K", "dateTime": 1519165394597}, {"current_trial": 16, "trialdata": {"rt": -1, "trial_type": "single-stim", "stimulus": "<p id=\"stim\">4</p>", "internal_node_id": "0.0-10.0-6.0", "time_elapsed": 159264, "key_press": -1, "trial_index": 16}, "uniqueid": "MTK2635:31N2WW6R9SXRU0ZZV308105GHXPF3K", "dateTime": 1519165395598}, {"current_trial": 17, "trialdata": {"rt": -1, "trial_type": "single-stim", "stimulus": "<p id=\"stim\">3</p>", "internal_node_id": "0.0-10.0-7.0", "time_elapsed": 160267, "key_press": -1, "trial_index": 17}, "uniqueid": "MTK2635:31N2WW6R9SXRU0ZZV308105GHXPF3K", "dateTime": 1519165396601}, {"current_trial": 18, "trialdata": {"rt": -1, "trial_type": "single-stim", "stimulus": "<p id=\"stim\">2</p>", "internal_node_id": "0.0-10.0-8.0", "time_elapsed": 161267, "key_press": -1, "trial_index": 18}, "uniqueid": "MTK2635:31N2WW6R9SXRU0ZZV308105GHXPF3K", "dateTime": 1519165397601}, {"current_trial": 19, "trialdata": {"rt": -1, "trial_type": "single-stim", "stimulus": "<p id=\"stim\">1</p>", "internal_node_id": "0.0-10.0-9.0", "time_elapsed": 162269, "key_press": -1, "trial_index": 19}, "uniqueid": "MTK2635:31N2WW6R9SXRU0ZZV308105GHXPF3K", "dateTime": 1519165398603}, {"current_trial": 20, "trialdata": {"rt": -1, "trial_type": "single-stim", "stimulus": "<p id=\"stim\">+</p>", "internal_node_id": "0.0-11.0-0.0", "time_elapsed": 163771, "key_press": -1, "type": "FIXATION", "trial_index": 20}, "uniqueid": "MTK2635:31N2WW6R9SXRU0ZZV308105GHXPF3K", "dateTime": 1519165400105}, {"current_trial": 21, "trialdata": {"rt": -1000, "trial_type": "single-audio", "word": "world", "stimulus": "/static/audio/wordpool/WORLD.wav", "conditions": [18, 1200, "a", 18000], "internal_node_id": "0.0-12.0", "trial": 0, "time_elapsed": 166039, "serialpos": 0, "key_press": -1, "wordID": 1621, "type": "PRES_AUD", "trial_index": 21}, "uniqueid": "MTK2635:31N2WW6R9SXRU0ZZV308105GHXPF3K", "dateTime": 1519165402373}, {"current_trial": 22, "trialdata": {"rt": -1000, "trial_type": "single-audio", "word": "contract", "stimulus": "/static/audio/wordpool/CONTRACT.wav", "conditions": [18, 1200, "a", 18000], "internal_node_id": "0.0-13.0", "trial": 0, "time_elapsed": 168146, "serialpos": 1, "key_press": -1, "wordID": 367, "type": "PRES_AUD", "trial_index": 22}, "uniqueid": "MTK2635:31N2WW6R9SXRU0ZZV308105GHXPF3K", "dateTime": 1519165404480}, {"current_trial": 23, "trialdata": {"rt": -1000, "trial_type": "single-audio", "word": "toaster", "stimulus": "/static/audio/wordpool/TOASTER.wav", "conditions": [18, 1200, "a", 18000], "internal_node_id": "0.0-14.0", "trial": 0, "time_elapsed": 170409, "serialpos": 2, "key_press": -1, "wordID": 1471, "type": "PRES_AUD", "trial_index": 23}, "uniqueid": "MTK2635:31N2WW6R9SXRU0ZZV308105GHXPF3K", "dateTime": 1519165406743}, {"current_trial": 24, "trialdata": {"rt": -1000, "trial_type": "single-audio", "word": "cyclone", "stimulus": "/static/audio/wordpool/CYCLONE.wav", "conditions": [18, 1200, "a", 18000], "internal_node_id": "0.0-15.0", "trial": 0, "time_elapsed": 172527, "serialpos": 3, "key_press": -1, "wordID": 430, "type": "PRES_AUD", "trial_index": 24}, "uniqueid": "MTK2635:31N2WW6R9SXRU0ZZV308105GHXPF3K", "dateTime": 1519165408861}, {"current_trial": 25, "trialdata": {"rt": -1000, "trial_type": "single-audio", "word": "country", "stimulus": "/static/audio/wordpool/COUNTRY.wav", "conditions": [18, 1200, "a", 18000], "internal_node_id": "0.0-16.0", "trial": 0, "time_elapsed": 174554, "serialpos": 4, "key_press": -1, "wordID": 387, "type": "PRES_AUD", "trial_index": 25}, "uniqueid": "MTK2635:31N2WW6R9SXRU0ZZV308105GHXPF3K", "dateTime": 1519165410888}, {"current_trial": 26, "trialdata": {"rt": -1000, "trial_type": "single-audio", "word": "princess", "stimulus": "/static/audio/wordpool/PRINCESS.wav", "conditions": [18, 1200, "a", 18000], "internal_node_id": "0.0-17.0", "trial": 0, "time_elapsed": 176678, "serialpos": 5, "key_press": -1, "wordID": 1124, "type": "PRES_AUD", "trial_index": 26}, "uniqueid": "MTK2635:31N2WW6R9SXRU0ZZV308105GHXPF3K", "dateTime": 1519165413012}, {"current_trial": 27, "trialdata": {"rt": -1000, "trial_type": "single-audio", "word": "liver", "stimulus": "/static/audio/wordpool/LIVER.wav", "conditions": [18, 1200, "a", 18000], "internal_node_id": "0.0-18.0", "trial": 0, "time_elapsed": 178715, "serialpos": 6, "key_press": -1, "wordID": 832, "type": "PRES_AUD", "trial_index": 27}, "uniqueid": "MTK2635:31N2WW6R9SXRU0ZZV308105GHXPF3K", "dateTime": 1519165415049}, {"current_trial": 28, "trialdata": {"rt": -1000, "trial_type": "single-audio", "word": "yacht", "stimulus": "/static/audio/wordpool/YACHT.wav", "conditions": [18, 1200, "a", 18000], "internal_node_id": "0.0-19.0", "trial": 0, "time_elapsed": 180841, "serialpos": 7, "key_press": -1, "wordID": 1628, "type": "PRES_AUD", "trial_index": 28}, "uniqueid": "MTK2635:31N2WW6R9SXRU0ZZV308105GHXPF3K", "dateTime": 1519165417175}, {"current_trial": 29, "trialdata": {"rt": -1000, "trial_type": "single-audio", "word": "football", "stimulus": "/static/audio/wordpool/FOOTBALL.wav", "conditions": [18, 1200, "a", 18000], "internal_node_id": "0.0-20.0", "trial": 0, "time_elapsed": 183087, "serialpos": 8, "key_press": -1, "wordID": 590, "type": "PRES_AUD", "trial_index": 29}, "uniqueid": "MTK2635:31N2WW6R9SXRU0ZZV308105GHXPF3K", "dateTime": 1519165419421}, {"current_trial": 30, "trialdata": {"rt": -1000, "trial_type": "single-audio", "word": "possum", "stimulus": "/static/audio/wordpool/POSSUM.wav", "conditions": [18, 1200, "a", 18000], "internal_node_id": "0.0-21.0", "trial": 0, "time_elapsed": 185230, "serialpos": 9, "key_press": -1, "wordID": 1111, "type": "PRES_AUD", "trial_index": 30}, "uniqueid": "MTK2635:31N2WW6R9SXRU0ZZV308105GHXPF3K", "dateTime": 1519165421564}, {"current_trial": 31, "trialdata": {"rt": -1000, "trial_type": "single-audio", "word": "treat", "stimulus": "/static/audio/wordpool/TREAT.wav", "conditions": [18, 1200, "a", 18000], "internal_node_id": "0.0-22.0", "trial": 0, "time_elapsed": 187563, "serialpos": 10, "key_press": -1, "wordID": 1500, "type": "PRES_AUD", "trial_index": 31}, "uniqueid": "MTK2635:31N2WW6R9SXRU0ZZV308105GHXPF3K", "dateTime": 1519165423897}, {"current_trial": 32, "trialdata": {"rt": -1000, "trial_type": "single-audio", "word": "velvet", "stimulus": "/static/audio/wordpool/VELVET.wav", "conditions": [18, 1200, "a", 18000], "internal_node_id": "0.0-23.0", "trial": 0, "time_elapsed": 189661, "serialpos": 11, "key_press": -1, "wordID": 1554, "type": "PRES_AUD", "trial_index": 32}, "uniqueid": "MTK2635:31N2WW6R9SXRU0ZZV308105GHXPF3K", "dateTime": 1519165425995}, {"current_trial": 33, "trialdata": {"rt": -1000, "trial_type": "single-audio", "word": "lapel", "stimulus": "/static/audio/wordpool/LAPEL.wav", "conditions": [18, 1200, "a", 18000], "internal_node_id": "0.0-24.0", "trial": 0, "time_elapsed": 191786, "serialpos": 12, "key_press": -1, "wordID": 799, "type": "PRES_AUD", "trial_index": 33}, "uniqueid": "MTK2635:31N2WW6R9SXRU0ZZV308105GHXPF3K", "dateTime": 1519165428120}, {"current_trial": 34, "trialdata": {"rt": -1000, "trial_type": "single-audio", "word": "egypt", "stimulus": "/static/audio/wordpool/EGYPT.wav", "conditions": [18, 1200, "a", 18000], "internal_node_id": "0.0-25.0", "trial": 0, "time_elapsed": 193983, "serialpos": 13, "key_press": -1, "wordID": 518, "type": "PRES_AUD", "trial_index": 34}, "uniqueid": "MTK2635:31N2WW6R9SXRU0ZZV308105GHXPF3K", "dateTime": 1519165430318}, {"current_trial": 35, "trialdata": {"rt": -1000, "trial_type": "single-audio", "word": "lily", "stimulus": "/static/audio/wordpool/LILY.wav", "conditions": [18, 1200, "a", 18000], "internal_node_id": "0.0-26.0", "trial": 0, "time_elapsed": 196335, "serialpos": 14, "key_press": -1, "wordID": 820, "type": "PRES_AUD", "trial_index": 35}, "uniqueid": "MTK2635:31N2WW6R9SXRU0ZZV308105GHXPF3K", "dateTime": 1519165432669}, {"current_trial": 36, "trialdata": {"rt": -1000, "trial_type": "single-audio", "word": "termite", "stimulus": "/static/audio/wordpool/TERMITE.wav", "conditions": [18, 1200, "a", 18000], "internal_node_id": "0.0-27.0", "trial": 0, "time_elapsed": 198530, "serialpos": 15, "key_press": -1, "wordID": 1450, "type": "PRES_AUD", "trial_index": 36}, "uniqueid": "MTK2635:31N2WW6R9SXRU0ZZV308105GHXPF3K", "dateTime": 1519165434864}, {"current_trial": 37, "trialdata": {"rt": -1000, "trial_type": "single-audio", "word": "cellar", "stimulus": "/static/audio/wordpool/CELLAR.wav", "conditions": [18, 1200, "a", 18000], "internal_node_id": "0.0-28.0", "trial": 0, "time_elapsed": 200689, "serialpos": 16, "key_press": -1, "wordID": 266, "type": "PRES_AUD", "trial_index": 37}, "uniqueid": "MTK2635:31N2WW6R9SXRU0ZZV308105GHXPF3K", "dateTime": 1519165437023}, {"current_trial": 38, "trialdata": {"rt": -1000, "trial_type": "single-audio", "word": "permit", "stimulus": "/static/audio/wordpool/PERMIT.wav", "conditions": [18, 1200, "a", 18000], "internal_node_id": "0.0-29.0", "trial": 0, "time_elapsed": 203061, "serialpos": 17, "key_press": -1, "wordID": 1050, "type": "PRES_AUD", "trial_index": 38}, "uniqueid": "MTK2635:31N2WW6R9SXRU0ZZV308105GHXPF3K", "dateTime": 1519165439395}, {"current_trial": 39, "trialdata": {"rt": -1, "trial_type": "single-stim", "stimulus": "", "internal_node_id": "0.0-30.0-0.0", "time_elapsed": 204311, "key_press": -1, "type": "PRE_RECALL_DELAY", "trial_index": 39}, "uniqueid": "MTK2635:31N2WW6R9SXRU0ZZV308105GHXPF3K", "dateTime": 1519165440645}, {"current_trial": 40, "trialdata": {"rt": -1000, "trial_type": "single-audio", "stimulus": "/static/audio/400Hz.wav", "internal_node_id": "0.0-31.0", "time_elapsed": 204813, "key_press": -1, "type": "PRE_RECALL_ALERT", "trial_index": 40}, "uniqueid": "MTK2635:31N2WW6R9SXRU0ZZV308105GHXPF3K", "dateTime": 1519165441147}, {"current_trial": 41, "trialdata": {"rt": [5174, 11615, 16916, 22218, 29271, 34401, 40845, 50810, 55953], "recwords": ["cellar", "termte", "hermit", "world", "egypt", "princess", "country", "hurricane", "liver"], "key_times": [2645, 2886, 3498, 3681, 3878, 4165, 5174, 6661, 7083, 7228, 7811, 8359, 9838, 10065, 10500, 11615, 14622, 14745, 14958, 15357, 15667, 16024, 16916, 17720, 17910, 18974, 19601, 19957, 20379, 20689, 22218, 23652, 23820, 24357, 24889, 25713, 26403, 29271, 30033, 30188, 30832, 31126, 31408, 31699, 32099, 32270, 34401, 34796, 35048, 36046, 37915, 38291, 38596, 39042, 39319, 39556, 40845, 45651, 46275, 46462, 46641, 46957, 47226, 47585, 47842, 48141, 50810, 54020, 54291, 54908, 55054, 55275, 55953, 59699, 59901], "trial_type": "free-recall", "conditions": [18, 1200, "a", 18000], "internal_node_id": "0.0-32.0-0.0", "key_presses": [67, 69, 76, 76, 65, 82, 13, 84, 69, 82, 77, 89, 8, 84, 69, 13, 72, 69, 82, 77, 73, 84, 13, 87, 80, 8, 79, 82, 76, 68, 13, 16, 69, 71, 89, 80, 84, 13, 80, 82, 73, 78, 67, 69, 83, 83, 13, 67, 80, 8, 79, 85, 78, 84, 82, 89, 13, 72, 85, 82, 82, 73, 67, 65, 78, 69, 13, 76, 73, 86, 69, 82, 13, 84, 79], "trial": 0, "time_elapsed": 264816, "type": "FREE_RECALL", "trial_index": 41}, "uniqueid": "MTK2635:31N2WW6R9SXRU0ZZV308105GHXPF3K", "dateTime": 1519165501151}, {"current_trial": 42, "trialdata": {"rt": 3484, "trial_type": "text", "internal_node_id": "0.0-33.0", "time_elapsed": 270302, "key_press": 13, "type": "INSTRUCTIONS", "trial_index": 42}, "uniqueid": "MTK2635:31N2WW6R9SXRU0ZZV308105GHXPF3K", "dateTime": 1519165506636}, {"current_trial": 43, "trialdata": {"rt": [7569, 11161, 14755, 17826], "trial_type": "math-distractor", "key_times": [2915, 3144, 4838, 6302, 7569, 9968, 10487, 11161, 13444, 13865, 14755, 16398, 16796, 17826], "responses": ["17 '", "15", "19", "18"], "num2": [5, 8, 7, 6, 1], "num3": [7, 2, 3, 6, 8], "conditions": [18, 1200, "a", 18000], "internal_node_id": "0.0-34.0", "key_presses": [49, 55, 32, 222, 13, 49, 53, 13, 49, 57, 13, 49, 56, 13], "trial": 1, "time_elapsed": 290305, "type": "DISTRACTOR", "trial_index": 43, "num1": [5, 5, 9, 6, 2]}, "uniqueid": "MTK2635:31N2WW6R9SXRU0ZZV308105GHXPF3K", "dateTime": 1519165526639}, {"current_trial": 44, "trialdata": {"rt": -1, "trial_type": "single-stim", "stimulus": "<p id=\"stim\">10</p>", "internal_node_id": "0.0-35.0-0.0", "time_elapsed": 293307, "key_press": -1, "trial_index": 44}, "uniqueid": "MTK2635:31N2WW6R9SXRU0ZZV308105GHXPF3K", "dateTime": 1519165529641}, {"current_trial": 45, "trialdata": {"rt": -1, "trial_type": "single-stim", "stimulus": "<p id=\"stim\">9</p>", "internal_node_id": "0.0-35.0-1.0", "time_elapsed": 294308, "key_press": -1, "trial_index": 45}, "uniqueid": "MTK2635:31N2WW6R9SXRU0ZZV308105GHXPF3K", "dateTime": 1519165530642}, {"current_trial": 46, "trialdata": {"rt": -1, "trial_type": "single-stim", "stimulus": "<p id=\"stim\">8</p>", "internal_node_id": "0.0-35.0-2.0", "time_elapsed": 295310, "key_press": -1, "trial_index": 46}, "uniqueid": "MTK2635:31N2WW6R9SXRU0ZZV308105GHXPF3K", "dateTime": 1519165531644}, {"current_trial": 47, "trialdata": {"rt": -1, "trial_type": "single-stim", "stimulus": "<p id=\"stim\">7</p>", "internal_node_id": "0.0-35.0-3.0", "time_elapsed": 296312, "key_press": -1, "trial_index": 47}, "uniqueid": "MTK2635:31N2WW6R9SXRU0ZZV308105GHXPF3K", "dateTime": 1519165532646}, {"current_trial": 48, "trialdata": {"rt": -1, "trial_type": "single-stim", "stimulus": "<p id=\"stim\">6</p>", "internal_node_id": "0.0-35.0-4.0", "time_elapsed": 297313, "key_press": -1, "trial_index": 48}, "uniqueid": "MTK2635:31N2WW6R9SXRU0ZZV308105GHXPF3K", "dateTime": 1519165533647}, {"current_trial": 49, "trialdata": {"rt": -1, "trial_type": "single-stim", "stimulus": "<p id=\"stim\">5</p>", "internal_node_id": "0.0-35.0-5.0", "time_elapsed": 298315, "key_press": -1, "trial_index": 49}, "uniqueid": "MTK2635:31N2WW6R9SXRU0ZZV308105GHXPF3K", "dateTime": 1519165534649}, {"current_trial": 50, "trialdata": {"rt": -1, "trial_type": "single-stim", "stimulus": "<p id=\"stim\">4</p>", "internal_node_id": "0.0-35.0-6.0", "time_elapsed": 299366, "key_press": -1, "trial_index": 50}, "uniqueid": "MTK2635:31N2WW6R9SXRU0ZZV308105GHXPF3K", "dateTime": 1519165535700}, {"current_trial": 51, "trialdata": {"rt": -1, "trial_type": "single-stim", "stimulus": "<p id=\"stim\">3</p>", "internal_node_id": "0.0-35.0-7.0", "time_elapsed": 300368, "key_press": -1, "trial_index": 51}, "uniqueid": "MTK2635:31N2WW6R9SXRU0ZZV308105GHXPF3K", "dateTime": 1519165536702}, {"current_trial": 52, "trialdata": {"rt": -1, "trial_type": "single-stim", "stimulus": "<p id=\"stim\">2</p>", "internal_node_id": "0.0-35.0-8.0", "time_elapsed": 301370, "key_press": -1, "trial_index": 52}, "uniqueid": "MTK2635:31N2WW6R9SXRU0ZZV308105GHXPF3K", "dateTime": 1519165537704}, {"current_trial": 53, "trialdata": {"rt": -1, "trial_type": "single-stim", "stimulus": "<p id=\"stim\">1</p>", "internal_node_id": "0.0-35.0-9.0", "time_elapsed": 302371, "key_press": -1, "trial_index": 53}, "uniqueid": "MTK2635:31N2WW6R9SXRU0ZZV308105GHXPF3K", "dateTime": 1519165538705}, {"current_trial": 54, "trialdata": {"rt": -1, "trial_type": "single-stim", "stimulus": "<p id=\"stim\">+</p>", "internal_node_id": "0.0-36.0-0.0", "time_elapsed": 303871, "key_press": -1, "type": "FIXATION", "trial_index": 54}, "uniqueid": "MTK2635:31N2WW6R9SXRU0ZZV308105GHXPF3K", "dateTime": 1519165540206}, {"current_trial": 55, "trialdata": {"rt": -1000, "trial_type": "single-audio", "word": "shovel", "stimulus": "/static/audio/wordpool/SHOVEL.wav", "conditions": [18, 1200, "a", 18000], "internal_node_id": "0.0-37.0", "trial": 1, "time_elapsed": 306091, "serialpos": 0, "key_press": -1, "wordID": 1294, "type": "PRES_AUD", "trial_index": 55}, "uniqueid": "MTK2635:31N2WW6R9SXRU0ZZV308105GHXPF3K", "dateTime": 1519165542425}, {"current_trial": 56, "trialdata": {"rt": -1000, "trial_type": "single-audio", "word": "crayon", "stimulus": "/static/audio/wordpool/CRAYON.wav", "conditions": [18, 1200, "a", 18000], "internal_node_id": "0.0-38.0", "trial": 1, "time_elapsed": 308232, "serialpos": 1, "key_press": -1, "wordID": 400, "type": "PRES_AUD", "trial_index": 56}, "uniqueid": "MTK2635:31N2WW6R9SXRU0ZZV308105GHXPF3K", "dateTime": 1519165544566}, {"current_trial": 57, "trialdata": {"rt": -1000, "trial_type": "single-audio", "word": "laser", "stimulus": "/static/audio/wordpool/LASER.wav", "conditions": [18, 1200, "a", 18000], "internal_node_id": "0.0-39.0", "trial": 1, "time_elapsed": 310449, "serialpos": 2, "key_press": -1, "wordID": 800, "type": "PRES_AUD", "trial_index": 57}, "uniqueid": "MTK2635:31N2WW6R9SXRU0ZZV308105GHXPF3K", "dateTime": 1519165546783}, {"current_trial": 58, "trialdata": {"rt": -1000, "trial_type": "single-audio", "word": "slope", "stimulus": "/static/audio/wordpool/SLOPE.wav", "conditions": [18, 1200, "a", 18000], "internal_node_id": "0.0-40.0", "trial": 1, "time_elapsed": 312736, "serialpos": 3, "key_press": -1, "wordID": 1327, "type": "PRES_AUD", "trial_index": 58}, "uniqueid": "MTK2635:31N2WW6R9SXRU0ZZV308105GHXPF3K", "dateTime": 1519165549070}, {"current_trial": 59, "trialdata": {"rt": -1000, "trial_type": "single-audio", "word": "proton", "stimulus": "/static/audio/wordpool/PROTON.wav", "conditions": [18, 1200, "a", 18000], "internal_node_id": "0.0-41.0", "trial": 1, "time_elapsed": 314878, "serialpos": 4, "key_press": -1, "wordID": 1131, "type": "PRES_AUD", "trial_index": 59}, "uniqueid": "MTK2635:31N2WW6R9SXRU0ZZV308105GHXPF3K", "dateTime": 1519165551212}, {"current_trial": 60, "trialdata": {"rt": -1000, "trial_type": "single-audio", "word": "hawk", "stimulus": "/static/audio/wordpool/HAWK.wav", "conditions": [18, 1200, "a", 18000], "internal_node_id": "0.0-42.0", "trial": 1, "time_elapsed": 316904, "serialpos": 5, "key_press": -1, "wordID": 691, "type": "PRES_AUD", "trial_index": 60}, "uniqueid": "MTK2635:31N2WW6R9SXRU0ZZV308105GHXPF3K", "dateTime": 1519165553238}, {"current_trial": 61, "trialdata": {"rt": -1000, "trial_type": "single-audio", "word": "flashlight", "stimulus": "/static/audio/wordpool/FLASHLIGHT.wav", "conditions": [18, 1200, "a", 18000], "internal_node_id": "0.0-43.0", "trial": 1, "time_elapsed": 319062, "serialpos": 6, "key_press": -1, "wordID": 574, "type": "PRES_AUD", "trial_index": 61}, "uniqueid": "MTK2635:31N2WW6R9SXRU0ZZV308105GHXPF3K", "dateTime": 1519165555396}, {"current_trial": 62, "trialdata": {"rt": -1000, "trial_type": "single-audio", "word": "receipt", "stimulus": "/static/audio/wordpool/RECEIPT.wav", "conditions": [18, 1200, "a", 18000], "internal_node_id": "0.0-44.0", "trial": 1, "time_elapsed": 321275, "serialpos": 7, "key_press": -1, "wordID": 1172, "type": "PRES_AUD", "trial_index": 62}, "uniqueid": "MTK2635:31N2WW6R9SXRU0ZZV308105GHXPF3K", "dateTime": 1519165557609}, {"current_trial": 63, "trialdata": {"rt": -1000, "trial_type": "single-audio", "word": "iceberg", "stimulus": "/static/audio/wordpool/ICEBERG.wav", "conditions": [18, 1200, "a", 18000], "internal_node_id": "0.0-45.0", "trial": 1, "time_elapsed": 323575, "serialpos": 8, "key_press": -1, "wordID": 730, "type": "PRES_AUD", "trial_index": 63}, "uniqueid": "MTK2635:31N2WW6R9SXRU0ZZV308105GHXPF3K", "dateTime": 1519165559909}, {"current_trial": 64, "trialdata": {"rt": -1000, "trial_type": "single-audio", "word": "market", "stimulus": "/static/audio/wordpool/MARKET.wav", "conditions": [18, 1200, "a", 18000], "internal_node_id": "0.0-46.0", "trial": 1, "time_elapsed": 325815, "serialpos": 9, "key_press": -1, "wordID": 870, "type": "PRES_AUD", "trial_index": 64}, "uniqueid": "MTK2635:31N2WW6R9SXRU0ZZV308105GHXPF3K", "dateTime": 1519165562149}, {"current_trial": 65, "trialdata": {"rt": -1000, "trial_type": "single-audio", "word": "oyster", "stimulus": "/static/audio/wordpool/OYSTER.wav", "conditions": [18, 1200, "a", 18000], "internal_node_id": "0.0-47.0", "trial": 1, "time_elapsed": 327838, "serialpos": 10, "key_press": -1, "wordID": 994, "type": "PRES_AUD", "trial_index": 65}, "uniqueid": "MTK2635:31N2WW6R9SXRU0ZZV308105GHXPF3K", "dateTime": 1519165564173}, {"current_trial": 66, "trialdata": {"rt": -1000, "trial_type": "single-audio", "word": "lizard", "stimulus": "/static/audio/wordpool/LIZARD.wav", "conditions": [18, 1200, "a", 18000], "internal_node_id": "0.0-48.0", "trial": 1, "time_elapsed": 329844, "serialpos": 11, "key_press": -1, "wordID": 833, "type": "PRES_AUD", "trial_index": 66}, "uniqueid": "MTK2635:31N2WW6R9SXRU0ZZV308105GHXPF3K", "dateTime": 1519165566178}, {"current_trial": 67, "trialdata": {"rt": -1000, "trial_type": "single-audio", "word": "diver", "stimulus": "/static/audio/wordpool/DIVER.wav", "conditions": [18, 1200, "a", 18000], "internal_node_id": "0.0-49.0", "trial": 1, "time_elapsed": 332089, "serialpos": 12, "key_press": -1, "wordID": 475, "type": "PRES_AUD", "trial_index": 67}, "uniqueid": "MTK2635:31N2WW6R9SXRU0ZZV308105GHXPF3K", "dateTime": 1519165568423}, {"current_trial": 68, "trialdata": {"rt": -1000, "trial_type": "single-audio", "word": "flag", "stimulus": "/static/audio/wordpool/FLAG.wav", "conditions": [18, 1200, "a", 18000], "internal_node_id": "0.0-50.0", "trial": 1, "time_elapsed": 334098, "serialpos": 13, "key_press": -1, "wordID": 572, "type": "PRES_AUD", "trial_index": 68}, "uniqueid": "MTK2635:31N2WW6R9SXRU0ZZV308105GHXPF3K", "dateTime": 1519165570432}, {"current_trial": 69, "trialdata": {"rt": -1000, "trial_type": "single-audio", "word": "antler", "stimulus": "/static/audio/wordpool/ANTLER.wav", "conditions": [18, 1200, "a", 18000], "internal_node_id": "0.0-51.0", "trial": 1, "time_elapsed": 336213, "serialpos": 14, "key_press": -1, "wordID": 28, "type": "PRES_AUD", "trial_index": 69}, "uniqueid": "MTK2635:31N2WW6R9SXRU0ZZV308105GHXPF3K", "dateTime": 1519165572547}, {"current_trial": 70, "trialdata": {"rt": -1000, "trial_type": "single-audio", "word": "peanut", "stimulus": "/static/audio/wordpool/PEANUT.wav", "conditions": [18, 1200, "a", 18000], "internal_node_id": "0.0-52.0", "trial": 1, "time_elapsed": 338610, "serialpos": 15, "key_press": -1, "wordID": 1031, "type": "PRES_AUD", "trial_index": 70}, "uniqueid": "MTK2635:31N2WW6R9SXRU0ZZV308105GHXPF3K", "dateTime": 1519165574944}, {"current_trial": 71, "trialdata": {"rt": -1000, "trial_type": "single-audio", "word": "hatchet", "stimulus": "/static/audio/wordpool/HATCHET.wav", "conditions": [18, 1200, "a", 18000], "internal_node_id": "0.0-53.0", "trial": 1, "time_elapsed": 340967, "serialpos": 16, "key_press": -1, "wordID": 690, "type": "PRES_AUD", "trial_index": 71}, "uniqueid": "MTK2635:31N2WW6R9SXRU0ZZV308105GHXPF3K", "dateTime": 1519165577301}, {"current_trial": 72, "trialdata": {"rt": -1000, "trial_type": "single-audio", "word": "forest", "stimulus": "/static/audio/wordpool/FOREST.wav", "conditions": [18, 1200, "a", 18000], "internal_node_id": "0.0-54.0", "trial": 1, "time_elapsed": 343062, "serialpos": 17, "key_press": -1, "wordID": 592, "type": "PRES_AUD", "trial_index": 72}, "uniqueid": "MTK2635:31N2WW6R9SXRU0ZZV308105GHXPF3K", "dateTime": 1519165579396}, {"current_trial": 73, "trialdata": {"rt": -1, "trial_type": "single-stim", "stimulus": "", "internal_node_id": "0.0-55.0-0.0", "time_elapsed": 344331, "key_press": -1, "type": "PRE_RECALL_DELAY", "trial_index": 73}, "uniqueid": "MTK2635:31N2WW6R9SXRU0ZZV308105GHXPF3K", "dateTime": 1519165580665}, {"current_trial": 74, "trialdata": {"rt": -1000, "trial_type": "single-audio", "stimulus": "/static/audio/400Hz.wav", "internal_node_id": "0.0-56.0", "time_elapsed": 344831, "key_press": -1, "type": "PRE_RECALL_ALERT", "trial_index": 74}, "uniqueid": "MTK2635:31N2WW6R9SXRU0ZZV308105GHXPF3K", "dateTime": 1519165581166}, {"current_trial": 75, "trialdata": {"rt": [5647, 10752, 22848, 28123, 37733, 42367, 47370, 54442, 56558], "recwords": ["forest", "hatchet", "shovel", "slope", "receipt", "lizard", "caulk", "market", "laser"], "key_times": [3098, 3240, 4093, 4265, 4516, 4739, 5647, 6893, 7026, 7396, 8011, 8201, 8845, 9142, 10752, 18618, 18980, 19455, 20500, 20643, 21318, 22848, 26170, 26340, 26561, 26759, 26986, 28123, 29642, 29831, 30237, 30466, 31203, 31507, 32580, 37733, 39417, 39697, 40594, 40824, 41115, 41372, 42367, 44645, 44862, 45210, 45624, 46182, 47370, 51480, 51596, 51859, 52261, 52408, 52734, 53829, 53991, 54442, 54691, 54845, 55333, 55560, 56073, 56558], "trial_type": "free-recall", "conditions": [18, 1200, "a", 18000], "internal_node_id": "0.0-57.0-0.0", "key_presses": [70, 79, 82, 69, 83, 84, 13, 72, 65, 84, 67, 72, 69, 84, 13, 83, 72, 79, 86, 69, 76, 13, 83, 76, 79, 80, 69, 13, 82, 69, 67, 69, 73, 80, 84, 13, 76, 73, 90, 65, 82, 68, 13, 67, 65, 85, 76, 75, 13, 77, 65, 82, 75, 69, 89, 8, 84, 32, 76, 65, 83, 69, 82, 32], "trial": 1, "time_elapsed": 404833, "type": "FREE_RECALL", "trial_index": 75}, "uniqueid": "MTK2635:31N2WW6R9SXRU0ZZV308105GHXPF3K", "dateTime": 1519165641169}, {"current_trial": 76, "trialdata": {"rt": 7, "trial_type": "text", "internal_node_id": "0.0-58.0", "time_elapsed": 406842, "key_press": 79, "type": "INSTRUCTIONS", "trial_index": 76}, "uniqueid": "MTK2635:31N2WW6R9SXRU0ZZV308105GHXPF3K", "dateTime": 1519165643176}, {"current_trial": 77, "trialdata": {"rt": [6068, 9687], "trial_type": "math-distractor", "key_times": [4687, 4900, 6068, 8589, 8933, 9687, 11310, 11827], "responses": ["24", "14"], "num2": [9, 4, 3], "num3": [6, 3, 6], "conditions": [24, 1600, "a", 12000], "internal_node_id": "0.0-59.0", "key_presses": [50, 52, 13, 49, 52, 13, 49, 54], "trial": 2, "time_elapsed": 419846, "type": "DISTRACTOR", "trial_index": 77, "num1": [9, 7, 7]}, "uniqueid": "MTK2635:31N2WW6R9SXRU0ZZV308105GHXPF3K", "dateTime": 1519165656180}, {"current_trial": 78, "trialdata": {"rt": -1, "trial_type": "single-stim", "stimulus": "<p id=\"stim\">10</p>", "internal_node_id": "0.0-60.0-0.0", "time_elapsed": 422850, "key_press": -1, "trial_index": 78}, "uniqueid": "MTK2635:31N2WW6R9SXRU0ZZV308105GHXPF3K", "dateTime": 1519165659184}, {"current_trial": 79, "trialdata": {"rt": -1, "trial_type": "single-stim", "stimulus": "<p id=\"stim\">9</p>", "internal_node_id": "0.0-60.0-1.0", "time_elapsed": 423851, "key_press": -1, "trial_index": 79}, "uniqueid": "MTK2635:31N2WW6R9SXRU0ZZV308105GHXPF3K", "dateTime": 1519165660185}, {"current_trial": 80, "trialdata": {"rt": -1, "trial_type": "single-stim", "stimulus": "<p id=\"stim\">8</p>", "internal_node_id": "0.0-60.0-2.0", "time_elapsed": 424852, "key_press": -1, "trial_index": 80}, "uniqueid": "MTK2635:31N2WW6R9SXRU0ZZV308105GHXPF3K", "dateTime": 1519165661186}, {"current_trial": 81, "trialdata": {"rt": -1, "trial_type": "single-stim", "stimulus": "<p id=\"stim\">7</p>", "internal_node_id": "0.0-60.0-3.0", "time_elapsed": 425853, "key_press": -1, "trial_index": 81}, "uniqueid": "MTK2635:31N2WW6R9SXRU0ZZV308105GHXPF3K", "dateTime": 1519165662187}, {"current_trial": 82, "trialdata": {"rt": -1, "trial_type": "single-stim", "stimulus": "<p id=\"stim\">6</p>", "internal_node_id": "0.0-60.0-4.0", "time_elapsed": 426855, "key_press": -1, "trial_index": 82}, "uniqueid": "MTK2635:31N2WW6R9SXRU0ZZV308105GHXPF3K", "dateTime": 1519165663189}, {"current_trial": 83, "trialdata": {"rt": -1, "trial_type": "single-stim", "stimulus": "<p id=\"stim\">5</p>", "internal_node_id": "0.0-60.0-5.0", "time_elapsed": 427855, "key_press": -1, "trial_index": 83}, "uniqueid": "MTK2635:31N2WW6R9SXRU0ZZV308105GHXPF3K", "dateTime": 1519165664189}, {"current_trial": 84, "trialdata": {"rt": -1, "trial_type": "single-stim", "stimulus": "<p id=\"stim\">4</p>", "internal_node_id": "0.0-60.0-6.0", "time_elapsed": 428858, "key_press": -1, "trial_index": 84}, "uniqueid": "MTK2635:31N2WW6R9SXRU0ZZV308105GHXPF3K", "dateTime": 1519165665192}, {"current_trial": 85, "trialdata": {"rt": -1, "trial_type": "single-stim", "stimulus": "<p id=\"stim\">3</p>", "internal_node_id": "0.0-60.0-7.0", "time_elapsed": 429860, "key_press": -1, "trial_index": 85}, "uniqueid": "MTK2635:31N2WW6R9SXRU0ZZV308105GHXPF3K", "dateTime": 1519165666194}, {"current_trial": 86, "trialdata": {"rt": -1, "trial_type": "single-stim", "stimulus": "<p id=\"stim\">2</p>", "internal_node_id": "0.0-60.0-8.0", "time_elapsed": 430861, "key_press": -1, "trial_index": 86}, "uniqueid": "MTK2635:31N2WW6R9SXRU0ZZV308105GHXPF3K", "dateTime": 1519165667195}, {"current_trial": 87, "trialdata": {"rt": -1, "trial_type": "single-stim", "stimulus": "<p id=\"stim\">1</p>", "internal_node_id": "0.0-60.0-9.0", "time_elapsed": 431862, "key_press": -1, "trial_index": 87}, "uniqueid": "MTK2635:31N2WW6R9SXRU0ZZV308105GHXPF3K", "dateTime": 1519165668196}, {"current_trial": 88, "trialdata": {"rt": -1, "trial_type": "single-stim", "stimulus": "<p id=\"stim\">+</p>", "internal_node_id": "0.0-61.0-0.0", "time_elapsed": 433363, "key_press": -1, "type": "FIXATION", "trial_index": 88}, "uniqueid": "MTK2635:31N2WW6R9SXRU0ZZV308105GHXPF3K", "dateTime": 1519165669697}, {"current_trial": 89, "trialdata": {"rt": -1000, "trial_type": "single-audio", "word": "wagon", "stimulus": "/static/audio/wordpool/WAGON.wav", "conditions": [24, 1600, "a", 12000], "internal_node_id": "0.0-62.0", "trial": 2, "time_elapsed": 435789, "serialpos": 0, "key_press": -1, "wordID": 1577, "type": "PRES_AUD", "trial_index": 89}, "uniqueid": "MTK2635:31N2WW6R9SXRU0ZZV308105GHXPF3K", "dateTime": 1519165672123}, {"current_trial": 90, "trialdata": {"rt": -1000, "trial_type": "single-audio", "word": "cashier", "stimulus": "/static/audio/wordpool/CASHIER.wav", "conditions": [24, 1600, "a", 12000], "internal_node_id": "0.0-63.0", "trial": 2, "time_elapsed": 438544, "serialpos": 1, "key_press": -1, "wordID": 253, "type": "PRES_AUD", "trial_index": 90}, "uniqueid": "MTK2635:31N2WW6R9SXRU0ZZV308105GHXPF3K", "dateTime": 1519165674878}, {"current_trial": 91, "trialdata": {"rt": -1000, "trial_type": "single-audio", "word": "robber", "stimulus": "/static/audio/wordpool/ROBBER.wav", "conditions": [24, 1600, "a", 12000], "internal_node_id": "0.0-64.0", "trial": 2, "time_elapsed": 441029, "serialpos": 2, "key_press": -1, "wordID": 1196, "type": "PRES_AUD", "trial_index": 91}, "uniqueid": "MTK2635:31N2WW6R9SXRU0ZZV308105GHXPF3K", "dateTime": 1519165677364}, {"current_trial": 92, "trialdata": {"rt": -1000, "trial_type": "single-audio", "word": "cupboard", "stimulus": "/static/audio/wordpool/CUPBOARD.wav", "conditions": [24, 1600, "a", 12000], "internal_node_id": "0.0-65.0", "trial": 2, "time_elapsed": 443681, "serialpos": 3, "key_press": -1, "wordID": 424, "type": "PRES_AUD", "trial_index": 92}, "uniqueid": "MTK2635:31N2WW6R9SXRU0ZZV308105GHXPF3K", "dateTime": 1519165680015}, {"current_trial": 93, "trialdata": {"rt": -1000, "trial_type": "single-audio", "word": "pimple", "stimulus": "/static/audio/wordpool/PIMPLE.wav", "conditions": [24, 1600, "a", 12000], "internal_node_id": "0.0-66.0", "trial": 2, "time_elapsed": 446171, "serialpos": 4, "key_press": -1, "wordID": 1070, "type": "PRES_AUD", "trial_index": 93}, "uniqueid": "MTK2635:31N2WW6R9SXRU0ZZV308105GHXPF3K", "dateTime": 1519165682506}, {"current_trial": 94, "trialdata": {"rt": -1000, "trial_type": "single-audio", "word": "mop", "stimulus": "/static/audio/wordpool/MOP.wav", "conditions": [24, 1600, "a", 12000], "internal_node_id": "0.0-67.0", "trial": 2, "time_elapsed": 448941, "serialpos": 5, "key_press": -1, "wordID": 915, "type": "PRES_AUD", "trial_index": 94}, "uniqueid": "MTK2635:31N2WW6R9SXRU0ZZV308105GHXPF3K", "dateTime": 1519165685275}, {"current_trial": 95, "trialdata": {"rt": -1000, "trial_type": "single-audio", "word": "vagrant", "stimulus": "/static/audio/wordpool/VAGRANT.wav", "conditions": [24, 1600, "a", 12000], "internal_node_id": "0.0-68.0", "trial": 2, "time_elapsed": 451487, "serialpos": 6, "key_press": -1, "wordID": 1543, "type": "PRES_AUD", "trial_index": 95}, "uniqueid": "MTK2635:31N2WW6R9SXRU0ZZV308105GHXPF3K", "dateTime": 1519165687821}, {"current_trial": 96, "trialdata": {"rt": -1000, "trial_type": "single-audio", "word": "agent", "stimulus": "/static/audio/wordpool/AGENT.wav", "conditions": [24, 1600, "a", 12000], "internal_node_id": "0.0-69.0", "trial": 2, "time_elapsed": 453907, "serialpos": 7, "key_press": -1, "wordID": 9, "type": "PRES_AUD", "trial_index": 96}, "uniqueid": "MTK2635:31N2WW6R9SXRU0ZZV308105GHXPF3K", "dateTime": 1519165690241}, {"current_trial": 97, "trialdata": {"rt": -1000, "trial_type": "single-audio", "word": "mustard", "stimulus": "/static/audio/wordpool/MUSTARD.wav", "conditions": [24, 1600, "a", 12000], "internal_node_id": "0.0-70.0", "trial": 2, "time_elapsed": 456409, "serialpos": 8, "key_press": -1, "wordID": 934, "type": "PRES_AUD", "trial_index": 97}, "uniqueid": "MTK2635:31N2WW6R9SXRU0ZZV308105GHXPF3K", "dateTime": 1519165692743}, {"current_trial": 98, "trialdata": {"rt": -1000, "trial_type": "single-audio", "word": "supper", "stimulus": "/static/audio/wordpool/SUPPER.wav", "conditions": [24, 1600, "a", 12000], "internal_node_id": "0.0-71.0", "trial": 2, "time_elapsed": 459007, "serialpos": 9, "key_press": -1, "wordID": 1410, "type": "PRES_AUD", "trial_index": 98}, "uniqueid": "MTK2635:31N2WW6R9SXRU0ZZV308105GHXPF3K", "dateTime": 1519165695342}, {"current_trial": 99, "trialdata": {"rt": -1000, "trial_type": "single-audio", "word": "dresser", "stimulus": "/static/audio/wordpool/DRESSER.wav", "conditions": [24, 1600, "a", 12000], "internal_node_id": "0.0-72.0", "trial": 2, "time_elapsed": 461640, "serialpos": 10, "key_press": -1, "wordID": 495, "type": "PRES_AUD", "trial_index": 99}, "uniqueid": "MTK2635:31N2WW6R9SXRU0ZZV308105GHXPF3K", "dateTime": 1519165697974}, {"current_trial": 100, "trialdata": {"rt": -1000, "trial_type": "single-audio", "word": "badge", "stimulus": "/static/audio/wordpool/BADGE.wav", "conditions": [24, 1600, "a", 12000], "internal_node_id": "0.0-73.0", "trial": 2, "time_elapsed": 464336, "serialpos": 11, "key_press": -1, "wordID": 67, "type": "PRES_AUD", "trial_index": 100}, "uniqueid": "MTK2635:31N2WW6R9SXRU0ZZV308105GHXPF3K", "dateTime": 1519165700670}, {"current_trial": 101, "trialdata": {"rt": -1000, "trial_type": "single-audio", "word": "outfit", "stimulus": "/static/audio/wordpool/OUTFIT.wav", "conditions": [24, 1600, "a", 12000], "internal_node_id": "0.0-74.0", "trial": 2, "time_elapsed": 466861, "serialpos": 12, "key_press": -1, "wordID": 987, "type": "PRES_AUD", "trial_index": 101}, "uniqueid": "MTK2635:31N2WW6R9SXRU0ZZV308105GHXPF3K", "dateTime": 1519165703195}, {"current_trial": 102, "trialdata": {"rt": -1000, "trial_type": "single-audio", "word": "zipper", "stimulus": "/static/audio/wordpool/ZIPPER.wav", "conditions": [24, 1600, "a", 12000], "internal_node_id": "0.0-75.0", "trial": 2, "time_elapsed": 469581, "serialpos": 13, "key_press": -1, "wordID": 1635, "type": "PRES_AUD", "trial_index": 102}, "uniqueid": "MTK2635:31N2WW6R9SXRU0ZZV308105GHXPF3K", "dateTime": 1519165705915}, {"current_trial": 103, "trialdata": {"rt": -1000, "trial_type": "single-audio", "word": "couch", "stimulus": "/static/audio/wordpool/COUCH.wav", "conditions": [24, 1600, "a", 12000], "internal_node_id": "0.0-76.0", "trial": 2, "time_elapsed": 472065, "serialpos": 14, "key_press": -1, "wordID": 385, "type": "PRES_AUD", "trial_index": 103}, "uniqueid": "MTK2635:31N2WW6R9SXRU0ZZV308105GHXPF3K", "dateTime": 1519165708399}, {"current_trial": 104, "trialdata": {"rt": -1000, "trial_type": "single-audio", "word": "igloo", "stimulus": "/static/audio/wordpool/IGLOO.wav", "conditions": [24, 1600, "a", 12000], "internal_node_id": "0.0-77.0", "trial": 2, "time_elapsed": 474466, "serialpos": 15, "key_press": -1, "wordID": 733, "type": "PRES_AUD", "trial_index": 104}, "uniqueid": "MTK2635:31N2WW6R9SXRU0ZZV308105GHXPF3K", "dateTime": 1519165710800}, {"current_trial": 105, "trialdata": {"rt": -1000, "trial_type": "single-audio", "word": "europe", "stimulus": "/static/audio/wordpool/EUROPE.wav", "conditions": [24, 1600, "a", 12000], "internal_node_id": "0.0-78.0", "trial": 2, "time_elapsed": 476887, "serialpos": 16, "key_press": -1, "wordID": 540, "type": "PRES_AUD", "trial_index": 105}, "uniqueid": "MTK2635:31N2WW6R9SXRU0ZZV308105GHXPF3K", "dateTime": 1519165713221}, {"current_trial": 106, "trialdata": {"rt": -1000, "trial_type": "single-audio", "word": "branch", "stimulus": "/static/audio/wordpool/BRANCH.wav", "conditions": [24, 1600, "a", 12000], "internal_node_id": "0.0-79.0", "trial": 2, "time_elapsed": 479555, "serialpos": 17, "key_press": -1, "wordID": 167, "type": "PRES_AUD", "trial_index": 106}, "uniqueid": "MTK2635:31N2WW6R9SXRU0ZZV308105GHXPF3K", "dateTime": 1519165715890}, {"current_trial": 107, "trialdata": {"rt": -1000, "trial_type": "single-audio", "word": "bank", "stimulus": "/static/audio/wordpool/BANK.wav", "conditions": [24, 1600, "a", 12000], "internal_node_id": "0.0-80.0", "trial": 2, "time_elapsed": 482046, "serialpos": 18, "key_press": -1, "wordID": 82, "type": "PRES_AUD", "trial_index": 107}, "uniqueid": "MTK2635:31N2WW6R9SXRU0ZZV308105GHXPF3K", "dateTime": 1519165718380}, {"current_trial": 108, "trialdata": {"rt": -1000, "trial_type": "single-audio", "word": "beef", "stimulus": "/static/audio/wordpool/BEEF.wav", "conditions": [24, 1600, "a", 12000], "internal_node_id": "0.0-81.0", "trial": 2, "time_elapsed": 484643, "serialpos": 19, "key_press": -1, "wordID": 112, "type": "PRES_AUD", "trial_index": 108}, "uniqueid": "MTK2635:31N2WW6R9SXRU0ZZV308105GHXPF3K", "dateTime": 1519165720977}, {"current_trial": 109, "trialdata": {"rt": -1000, "trial_type": "single-audio", "word": "penguin", "stimulus": "/static/audio/wordpool/PENGUIN.wav", "conditions": [24, 1600, "a", 12000], "internal_node_id": "0.0-82.0", "trial": 2, "time_elapsed": 487200, "serialpos": 20, "key_press": -1, "wordID": 1043, "type": "PRES_AUD", "trial_index": 109}, "uniqueid": "MTK2635:31N2WW6R9SXRU0ZZV308105GHXPF3K", "dateTime": 1519165723534}, {"current_trial": 110, "trialdata": {"rt": -1000, "trial_type": "single-audio", "word": "crevice", "stimulus": "/static/audio/wordpool/CREVICE.wav", "conditions": [24, 1600, "a", 12000], "internal_node_id": "0.0-83.0", "trial": 2, "time_elapsed": 489994, "serialpos": 21, "key_press": -1, "wordID": 404, "type": "PRES_AUD", "trial_index": 110}, "uniqueid": "MTK2635:31N2WW6R9SXRU0ZZV308105GHXPF3K", "dateTime": 1519165726328}, {"current_trial": 111, "trialdata": {"rt": -1000, "trial_type": "single-audio", "word": "cattle", "stimulus": "/static/audio/wordpool/CATTLE.wav", "conditions": [24, 1600, "a", 12000], "internal_node_id": "0.0-84.0", "trial": 2, "time_elapsed": 492764, "serialpos": 22, "key_press": -1, "wordID": 260, "type": "PRES_AUD", "trial_index": 111}, "uniqueid": "MTK2635:31N2WW6R9SXRU0ZZV308105GHXPF3K", "dateTime": 1519165729098}, {"current_trial": 112, "trialdata": {"rt": -1000, "trial_type": "single-audio", "word": "blouse", "stimulus": "/static/audio/wordpool/BLOUSE.wav", "conditions": [24, 1600, "a", 12000], "internal_node_id": "0.0-85.0", "trial": 2, "time_elapsed": 495393, "serialpos": 23, "key_press": -1, "wordID": 138, "type": "PRES_AUD", "trial_index": 112}, "uniqueid": "MTK2635:31N2WW6R9SXRU0ZZV308105GHXPF3K", "dateTime": 1519165731727}, {"current_trial": 113, "trialdata": {"rt": -1, "trial_type": "single-stim", "stimulus": "", "internal_node_id": "0.0-86.0-0.0", "time_elapsed": 496715, "key_press": -1, "type": "PRE_RECALL_DELAY", "trial_index": 113}, "uniqueid": "MTK2635:31N2WW6R9SXRU0ZZV308105GHXPF3K", "dateTime": 1519165733049}, {"current_trial": 114, "trialdata": {"rt": -1000, "trial_type": "single-audio", "stimulus": "/static/audio/400Hz.wav", "internal_node_id": "0.0-87.0", "time_elapsed": 497216, "key_press": -1, "type": "PRE_RECALL_ALERT", "trial_index": 114}, "uniqueid": "MTK2635:31N2WW6R9SXRU0ZZV308105GHXPF3K", "dateTime": 1519165733550}, {"current_trial": 115, "trialdata": {"rt": [6472, 9614, 12926, 13911, 17294, 20381, 21813, 25308, 25925, 28826, 39530, 55481], "recwords": ["robber", "wagon", "cashier", "", "bank", "branch", "", "cabinet", "", "dresser", "pimple", "couch"], "key_times": [3643, 3914, 4410, 4570, 4707, 4935, 6472, 7183, 7422, 7887, 8497, 8852, 9614, 10727, 10974, 11134, 11608, 12170, 12387, 12746, 12926, 13911, 15076, 15181, 15791, 16144, 17294, 18150, 18389, 18708, 19146, 19854, 20099, 20381, 21813, 22625, 22779, 23242, 24208, 24473, 24770, 25105, 25308, 25925, 26564, 26813, 26992, 27351, 27506, 27757, 27993, 28826, 29322, 29575, 30749, 31175, 31440, 32338, 39530, 53242, 53473, 53783, 54452, 54708, 55481, 58858, 59334, 59801, 59962], "trial_type": "free-recall", "conditions": [24, 1600, "a", 12000], "internal_node_id": "0.0-88.0-0.0", "key_presses": [82, 79, 66, 66, 69, 82, 13, 87, 65, 71, 79, 78, 13, 67, 65, 83, 72, 73, 69, 82, 32, 13, 66, 65, 78, 75, 13, 66, 82, 65, 78, 67, 72, 32, 13, 67, 65, 66, 73, 78, 69, 84, 32, 13, 68, 82, 69, 83, 83, 69, 82, 32, 80, 73, 77, 80, 76, 69, 13, 67, 79, 85, 67, 72, 13, 90, 73, 80, 80], "trial": 2, "time_elapsed": 557218, "type": "FREE_RECALL", "trial_index": 115}, "uniqueid": "MTK2635:31N2WW6R9SXRU0ZZV308105GHXPF3K", "dateTime": 1519165793554}, {"current_trial": 116, "trialdata": {"rt": 2450, "trial_type": "text", "internal_node_id": "0.0-89.0", "time_elapsed": 561670, "key_press": 76, "type": "INSTRUCTIONS", "trial_index": 116}, "uniqueid": "MTK2635:31N2WW6R9SXRU0ZZV308105GHXPF3K", "dateTime": 1519165798004}, {"current_trial": 117, "trialdata": {"rt": [3148, 5868, 8784, 11155, 15993, 19059, 22495], "trial_type": "math-distractor", "key_times": [1995, 2156, 3148, 4522, 5251, 5868, 7372, 7940, 8784, 10163, 10339, 11155, 14804, 15112, 15993, 17815, 18409, 19059, 21426, 21768, 22495], "responses": ["11", "16", "17", "11", "18", "14", "14"], "num2": [1, 4, 3, 9, 7, 6, 4, 8], "num3": [6, 6, 7, 1, 9, 1, 1, 6], "conditions": [12, 1600, "a", 24000], "internal_node_id": "0.0-90.0", "key_presses": [49, 49, 13, 49, 54, 13, 49, 55, 13, 49, 49, 13, 49, 56, 13, 49, 52, 13, 49, 52, 13], "trial": 3, "time_elapsed": 587674, "type": "DISTRACTOR", "trial_index": 117, "num1": [4, 6, 7, 1, 2, 7, 9, 3]}, "uniqueid": "MTK2635:31N2WW6R9SXRU0ZZV308105GHXPF3K", "dateTime": 1519165824008}, {"current_trial": 118, "trialdata": {"rt": 533, "trial_type": "single-stim", "stimulus": "<p id=\"stim\">10</p>", "internal_node_id": "0.0-91.0-0.0", "time_elapsed": 590702, "key_press": 13, "trial_index": 118}, "uniqueid": "MTK2635:31N2WW6R9SXRU0ZZV308105GHXPF3K", "dateTime": 1519165827036}, {"current_trial": 119, "trialdata": {"rt": -1, "trial_type": "single-stim", "stimulus": "<p id=\"stim\">9</p>", "internal_node_id": "0.0-91.0-1.0", "time_elapsed": 591703, "key_press": -1, "trial_index": 119}, "uniqueid": "MTK2635:31N2WW6R9SXRU0ZZV308105GHXPF3K", "dateTime": 1519165828037}, {"current_trial": 120, "trialdata": {"rt": -1, "trial_type": "single-stim", "stimulus": "<p id=\"stim\">8</p>", "internal_node_id": "0.0-91.0-2.0", "time_elapsed": 592705, "key_press": -1, "trial_index": 120}, "uniqueid": "MTK2635:31N2WW6R9SXRU0ZZV308105GHXPF3K", "dateTime": 1519165829039}, {"current_trial": 121, "trialdata": {"rt": -1, "trial_type": "single-stim", "stimulus": "<p id=\"stim\">7</p>", "internal_node_id": "0.0-91.0-3.0", "time_elapsed": 593706, "key_press": -1, "trial_index": 121}, "uniqueid": "MTK2635:31N2WW6R9SXRU0ZZV308105GHXPF3K", "dateTime": 1519165830040}, {"current_trial": 122, "trialdata": {"rt": -1, "trial_type": "single-stim", "stimulus": "<p id=\"stim\">6</p>", "internal_node_id": "0.0-91.0-4.0", "time_elapsed": 594707, "key_press": -1, "trial_index": 122}, "uniqueid": "MTK2635:31N2WW6R9SXRU0ZZV308105GHXPF3K", "dateTime": 1519165831041}, {"current_trial": 123, "trialdata": {"rt": -1, "trial_type": "single-stim", "stimulus": "<p id=\"stim\">5</p>", "internal_node_id": "0.0-91.0-5.0", "time_elapsed": 595708, "key_press": -1, "trial_index": 123}, "uniqueid": "MTK2635:31N2WW6R9SXRU0ZZV308105GHXPF3K", "dateTime": 1519165832042}, {"current_trial": 124, "trialdata": {"rt": -1, "trial_type": "single-stim", "stimulus": "<p id=\"stim\">4</p>", "internal_node_id": "0.0-91.0-6.0", "time_elapsed": 596710, "key_press": -1, "trial_index": 124}, "uniqueid": "MTK2635:31N2WW6R9SXRU0ZZV308105GHXPF3K", "dateTime": 1519165833044}, {"current_trial": 125, "trialdata": {"rt": -1, "trial_type": "single-stim", "stimulus": "<p id=\"stim\">3</p>", "internal_node_id": "0.0-91.0-7.0", "time_elapsed": 597713, "key_press": -1, "trial_index": 125}, "uniqueid": "MTK2635:31N2WW6R9SXRU0ZZV308105GHXPF3K", "dateTime": 1519165834047}, {"current_trial": 126, "trialdata": {"rt": -1, "trial_type": "single-stim", "stimulus": "<p id=\"stim\">2</p>", "internal_node_id": "0.0-91.0-8.0", "time_elapsed": 598714, "key_press": -1, "trial_index": 126}, "uniqueid": "MTK2635:31N2WW6R9SXRU0ZZV308105GHXPF3K", "dateTime": 1519165835049}, {"current_trial": 127, "trialdata": {"rt": -1, "trial_type": "single-stim", "stimulus": "<p id=\"stim\">1</p>", "internal_node_id": "0.0-91.0-9.0", "time_elapsed": 599717, "key_press": -1, "trial_index": 127}, "uniqueid": "MTK2635:31N2WW6R9SXRU0ZZV308105GHXPF3K", "dateTime": 1519165836051}, {"current_trial": 128, "trialdata": {"rt": -1, "trial_type": "single-stim", "stimulus": "<p id=\"stim\">+</p>", "internal_node_id": "0.0-92.0-0.0", "time_elapsed": 601218, "key_press": -1, "type": "FIXATION", "trial_index": 128}, "uniqueid": "MTK2635:31N2WW6R9SXRU0ZZV308105GHXPF3K", "dateTime": 1519165837552}, {"current_trial": 129, "trialdata": {"rt": -1000, "trial_type": "single-audio", "word": "flower", "stimulus": "/static/audio/wordpool/FLOWER.wav", "conditions": [12, 1600, "a", 24000], "internal_node_id": "0.0-93.0", "trial": 3, "time_elapsed": 603895, "serialpos": 0, "key_press": -1, "wordID": 583, "type": "PRES_AUD", "trial_index": 129}, "uniqueid": "MTK2635:31N2WW6R9SXRU0ZZV308105GHXPF3K", "dateTime": 1519165840229}, {"current_trial": 130, "trialdata": {"rt": -1000, "trial_type": "single-audio", "word": "garden", "stimulus": "/static/audio/wordpool/GARDEN.wav", "conditions": [12, 1600, "a", 24000], "internal_node_id": "0.0-94.0", "trial": 3, "time_elapsed": 606497, "serialpos": 1, "key_press": -1, "wordID": 622, "type": "PRES_AUD", "trial_index": 130}, "uniqueid": "MTK2635:31N2WW6R9SXRU0ZZV308105GHXPF3K", "dateTime": 1519165842831}, {"current_trial": 131, "trialdata": {"rt": -1000, "trial_type": "single-audio", "word": "france", "stimulus": "/static/audio/wordpool/FRANCE.wav", "conditions": [12, 1600, "a", 24000], "internal_node_id": "0.0-95.0", "trial": 3, "time_elapsed": 609008, "serialpos": 2, "key_press": -1, "wordID": 600, "type": "PRES_AUD", "trial_index": 131}, "uniqueid": "MTK2635:31N2WW6R9SXRU0ZZV308105GHXPF3K", "dateTime": 1519165845342}, {"current_trial": 132, "trialdata": {"rt": -1000, "trial_type": "single-audio", "word": "globe", "stimulus": "/static/audio/wordpool/GLOBE.wav", "conditions": [12, 1600, "a", 24000], "internal_node_id": "0.0-96.0", "trial": 3, "time_elapsed": 611745, "serialpos": 3, "key_press": -1, "wordID": 640, "type": "PRES_AUD", "trial_index": 132}, "uniqueid": "MTK2635:31N2WW6R9SXRU0ZZV308105GHXPF3K", "dateTime": 1519165848079}, {"current_trial": 133, "trialdata": {"rt": -1000, "trial_type": "single-audio", "word": "cafe", "stimulus": "/static/audio/wordpool/CAFE.wav", "conditions": [12, 1600, "a", 24000], "internal_node_id": "0.0-97.0", "trial": 3, "time_elapsed": 614221, "serialpos": 4, "key_press": -1, "wordID": 215, "type": "PRES_AUD", "trial_index": 133}, "uniqueid": "MTK2635:31N2WW6R9SXRU0ZZV308105GHXPF3K", "dateTime": 1519165850555}, {"current_trial": 134, "trialdata": {"rt": -1000, "trial_type": "single-audio", "word": "passage", "stimulus": "/static/audio/wordpool/PASSAGE.wav", "conditions": [12, 1600, "a", 24000], "internal_node_id": "0.0-98.0", "trial": 3, "time_elapsed": 616660, "serialpos": 5, "key_press": -1, "wordID": 1018, "type": "PRES_AUD", "trial_index": 134}, "uniqueid": "MTK2635:31N2WW6R9SXRU0ZZV308105GHXPF3K", "dateTime": 1519165852995}, {"current_trial": 135, "trialdata": {"rt": -1000, "trial_type": "single-audio", "word": "concert", "stimulus": "/static/audio/wordpool/CONCERT.wav", "conditions": [12, 1600, "a", 24000], "internal_node_id": "0.0-99.0", "trial": 3, "time_elapsed": 619310, "serialpos": 6, "key_press": -1, "wordID": 359, "type": "PRES_AUD", "trial_index": 135}, "uniqueid": "MTK2635:31N2WW6R9SXRU0ZZV308105GHXPF3K", "dateTime": 1519165855644}, {"current_trial": 136, "trialdata": {"rt": -1000, "trial_type": "single-audio", "word": "shrub", "stimulus": "/static/audio/wordpool/SHRUB.wav", "conditions": [12, 1600, "a", 24000], "internal_node_id": "0.0-100.0", "trial": 3, "time_elapsed": 621970, "serialpos": 7, "key_press": -1, "wordID": 1298, "type": "PRES_AUD", "trial_index": 136}, "uniqueid": "MTK2635:31N2WW6R9SXRU0ZZV308105GHXPF3K", "dateTime": 1519165858304}, {"current_trial": 137, "trialdata": {"rt": -1000, "trial_type": "single-audio", "word": "pecan", "stimulus": "/static/audio/wordpool/PECAN.wav", "conditions": [12, 1600, "a", 24000], "internal_node_id": "0.0-101.0", "trial": 3, "time_elapsed": 624666, "serialpos": 8, "key_press": -1, "wordID": 1035, "type": "PRES_AUD", "trial_index": 137}, "uniqueid": "MTK2635:31N2WW6R9SXRU0ZZV308105GHXPF3K", "dateTime": 1519165861001}, {"current_trial": 138, "trialdata": {"rt": -1000, "trial_type": "single-audio", "word": "film", "stimulus": "/static/audio/wordpool/FILM.wav", "conditions": [12, 1600, "a", 24000], "internal_node_id": "0.0-102.0", "trial": 3, "time_elapsed": 627439, "serialpos": 9, "key_press": -1, "wordID": 564, "type": "PRES_AUD", "trial_index": 138}, "uniqueid": "MTK2635:31N2WW6R9SXRU0ZZV308105GHXPF3K", "dateTime": 1519165863773}, {"current_trial": 139, "trialdata": {"rt": -1000, "trial_type": "single-audio", "word": "dragon", "stimulus": "/static/audio/wordpool/DRAGON.wav", "conditions": [12, 1600, "a", 24000], "internal_node_id": "0.0-103.0", "trial": 3, "time_elapsed": 630074, "serialpos": 10, "key_press": -1, "wordID": 491, "type": "PRES_AUD", "trial_index": 139}, "uniqueid": "MTK2635:31N2WW6R9SXRU0ZZV308105GHXPF3K", "dateTime": 1519165866408}, {"current_trial": 140, "trialdata": {"rt": -1000, "trial_type": "single-audio", "word": "japan", "stimulus": "/static/audio/wordpool/JAPAN.wav", "conditions": [12, 1600, "a", 24000], "internal_node_id": "0.0-104.0", "trial": 3, "time_elapsed": 632791, "serialpos": 11, "key_press": -1, "wordID": 748, "type": "PRES_AUD", "trial_index": 140}, "uniqueid": "MTK2635:31N2WW6R9SXRU0ZZV308105GHXPF3K", "dateTime": 1519165869125}, {"current_trial": 141, "trialdata": {"rt": -1, "trial_type": "single-stim", "stimulus": "", "internal_node_id": "0.0-105.0-0.0", "time_elapsed": 634122, "key_press": -1, "type": "PRE_RECALL_DELAY", "trial_index": 141}, "uniqueid": "MTK2635:31N2WW6R9SXRU0ZZV308105GHXPF3K", "dateTime": 1519165870456}, {"current_trial": 142, "trialdata": {"rt": -1000, "trial_type": "single-audio", "stimulus": "/static/audio/400Hz.wav", "internal_node_id": "0.0-106.0", "time_elapsed": 634624, "key_press": -1, "type": "PRE_RECALL_ALERT", "trial_index": 142}, "uniqueid": "MTK2635:31N2WW6R9SXRU0ZZV308105GHXPF3K", "dateTime": 1519165870958}, {"current_trial": 143, "trialdata": {"rt": [4517, 8284, 14956, 31311, 34664, 40559, 44200, 46979], "recwords": ["japan", "dragon", "globe", "france", "cafe", "flower", "chrub", "garden"], "key_times": [2979, 3186, 3333, 3792, 3937, 4322, 4517, 4808, 6216, 6476, 6972, 7610, 7993, 8284, 10901, 11212, 11629, 12167, 12355, 14956, 28304, 28418, 28618, 28760, 29750, 29981, 30230, 31311, 33383, 33614, 33885, 34040, 34664, 38168, 38427, 38621, 39023, 39264, 39489, 40559, 41638, 41899, 42267, 42782, 43386, 44200, 44922, 45109, 45362, 45597, 45811, 46373, 46979], "trial_type": "free-recall", "conditions": [12, 1600, "a", 24000], "internal_node_id": "0.0-107.0-0.0", "key_presses": [16, 74, 65, 80, 65, 78, 32, 68, 82, 65, 71, 79, 78, 32, 71, 76, 79, 66, 69, 13, 16, 70, 82, 65, 78, 67, 69, 13, 67, 65, 70, 69, 13, 70, 76, 79, 87, 69, 82, 13, 67, 72, 82, 85, 66, 13, 71, 65, 82, 68, 69, 78, 13], "trial": 3, "time_elapsed": 694627, "type": "FREE_RECALL", "trial_index": 143}, "uniqueid": "MTK2635:31N2WW6R9SXRU0ZZV308105GHXPF3K", "dateTime": 1519165930963}, {"current_trial": 144, "trialdata": {"rt": 30094, "trial_type": "text", "internal_node_id": "0.0-108.0", "time_elapsed": 726724, "key_press": 75, "type": "INSTRUCTIONS", "trial_index": 144}, "uniqueid": "MTK2635:31N2WW6R9SXRU0ZZV308105GHXPF3K", "dateTime": 1519165963058}, {"current_trial": 145, "trialdata": {"rt": [6146, 9330], "trial_type": "math-distractor", "key_times": [4770, 5034, 6146, 8034, 8412, 9330, 11957], "responses": ["21", "14"], "num2": [9, 6, 3], "num3": [6, 5, 1], "conditions": [12, 1600, "a", 12000], "internal_node_id": "0.0-109.0", "key_presses": [50, 49, 13, 49, 52, 13, 55], "trial": 4, "time_elapsed": 740728, "type": "DISTRACTOR", "trial_index": 145, "num1": [6, 4, 3]}, "uniqueid": "MTK2635:31N2WW6R9SXRU0ZZV308105GHXPF3K", "dateTime": 1519165977062}, {"current_trial": 146, "trialdata": {"rt": -1, "trial_type": "single-stim", "stimulus": "<p id=\"stim\">10</p>", "internal_node_id": "0.0-110.0-0.0", "time_elapsed": 743729, "key_press": -1, "trial_index": 146}, "uniqueid": "MTK2635:31N2WW6R9SXRU0ZZV308105GHXPF3K", "dateTime": 1519165980064}, {"current_trial": 147, "trialdata": {"rt": -1, "trial_type": "single-stim", "stimulus": "<p id=\"stim\">9</p>", "internal_node_id": "0.0-110.0-1.0", "time_elapsed": 744731, "key_press": -1, "trial_index": 147}, "uniqueid": "MTK2635:31N2WW6R9SXRU0ZZV308105GHXPF3K", "dateTime": 1519165981065}, {"current_trial": 148, "trialdata": {"rt": -1, "trial_type": "single-stim", "stimulus": "<p id=\"stim\">8</p>", "internal_node_id": "0.0-110.0-2.0", "time_elapsed": 745734, "key_press": -1, "trial_index": 148}, "uniqueid": "MTK2635:31N2WW6R9SXRU0ZZV308105GHXPF3K", "dateTime": 1519165982068}, {"current_trial": 149, "trialdata": {"rt": -1, "trial_type": "single-stim", "stimulus": "<p id=\"stim\">7</p>", "internal_node_id": "0.0-110.0-3.0", "time_elapsed": 746736, "key_press": -1, "trial_index": 149}, "uniqueid": "MTK2635:31N2WW6R9SXRU0ZZV308105GHXPF3K", "dateTime": 1519165983070}, {"current_trial": 150, "trialdata": {"rt": -1, "trial_type": "single-stim", "stimulus": "<p id=\"stim\">6</p>", "internal_node_id": "0.0-110.0-4.0", "time_elapsed": 747738, "key_press": -1, "trial_index": 150}, "uniqueid": "MTK2635:31N2WW6R9SXRU0ZZV308105GHXPF3K", "dateTime": 1519165984072}, {"current_trial": 151, "trialdata": {"rt": -1, "trial_type": "single-stim", "stimulus": "<p id=\"stim\">5</p>", "internal_node_id": "0.0-110.0-5.0", "time_elapsed": 748739, "key_press": -1, "trial_index": 151}, "uniqueid": "MTK2635:31N2WW6R9SXRU0ZZV308105GHXPF3K", "dateTime": 1519165985074}, {"current_trial": 152, "trialdata": {"rt": -1, "trial_type": "single-stim", "stimulus": "<p id=\"stim\">4</p>", "internal_node_id": "0.0-110.0-6.0", "time_elapsed": 749742, "key_press": -1, "trial_index": 152}, "uniqueid": "MTK2635:31N2WW6R9SXRU0ZZV308105GHXPF3K", "dateTime": 1519165986077}, {"current_trial": 153, "trialdata": {"rt": -1, "trial_type": "single-stim", "stimulus": "<p id=\"stim\">3</p>", "internal_node_id": "0.0-110.0-7.0", "time_elapsed": 750743, "key_press": -1, "trial_index": 153}, "uniqueid": "MTK2635:31N2WW6R9SXRU0ZZV308105GHXPF3K", "dateTime": 1519165987077}, {"current_trial": 154, "trialdata": {"rt": -1, "trial_type": "single-stim", "stimulus": "<p id=\"stim\">2</p>", "internal_node_id": "0.0-110.0-8.0", "time_elapsed": 751746, "key_press": -1, "trial_index": 154}, "uniqueid": "MTK2635:31N2WW6R9SXRU0ZZV308105GHXPF3K", "dateTime": 1519165988080}, {"current_trial": 155, "trialdata": {"rt": -1, "trial_type": "single-stim", "stimulus": "<p id=\"stim\">1</p>", "internal_node_id": "0.0-110.0-9.0", "time_elapsed": 752746, "key_press": -1, "trial_index": 155}, "uniqueid": "MTK2635:31N2WW6R9SXRU0ZZV308105GHXPF3K", "dateTime": 1519165989080}, {"current_trial": 156, "trialdata": {"rt": -1, "trial_type": "single-stim", "stimulus": "<p id=\"stim\">+</p>", "internal_node_id": "0.0-111.0-0.0", "time_elapsed": 754247, "key_press": -1, "type": "FIXATION", "trial_index": 156}, "uniqueid": "MTK2635:31N2WW6R9SXRU0ZZV308105GHXPF3K", "dateTime": 1519165990581}, {"current_trial": 157, "trialdata": {"rt": -1000, "trial_type": "single-audio", "word": "quarter", "stimulus": "/static/audio/wordpool/QUARTER.wav", "conditions": [12, 1600, "a", 12000], "internal_node_id": "0.0-112.0", "trial": 4, "time_elapsed": 756829, "serialpos": 0, "key_press": -1, "wordID": 1147, "type": "PRES_AUD", "trial_index": 157}, "uniqueid": "MTK2635:31N2WW6R9SXRU0ZZV308105GHXPF3K", "dateTime": 1519165993164}, {"current_trial": 158, "trialdata": {"rt": -1000, "trial_type": "single-audio", "word": "fiddle", "stimulus": "/static/audio/wordpool/FIDDLE.wav", "conditions": [12, 1600, "a", 12000], "internal_node_id": "0.0-113.0", "trial": 4, "time_elapsed": 759254, "serialpos": 1, "key_press": -1, "wordID": 560, "type": "PRES_AUD", "trial_index": 158}, "uniqueid": "MTK2635:31N2WW6R9SXRU0ZZV308105GHXPF3K", "dateTime": 1519165995588}, {"current_trial": 159, "trialdata": {"rt": -1000, "trial_type": "single-audio", "word": "human", "stimulus": "/static/audio/wordpool/HUMAN.wav", "conditions": [12, 1600, "a", 12000], "internal_node_id": "0.0-114.0", "trial": 4, "time_elapsed": 761662, "serialpos": 2, "key_press": -1, "wordID": 725, "type": "PRES_AUD", "trial_index": 159}, "uniqueid": "MTK2635:31N2WW6R9SXRU0ZZV308105GHXPF3K", "dateTime": 1519165997996}, {"current_trial": 160, "trialdata": {"rt": -1000, "trial_type": "single-audio", "word": "dust", "stimulus": "/static/audio/wordpool/DUST.wav", "conditions": [12, 1600, "a", 12000], "internal_node_id": "0.0-115.0", "trial": 4, "time_elapsed": 764113, "serialpos": 3, "key_press": -1, "wordID": 507, "type": "PRES_AUD", "trial_index": 160}, "uniqueid": "MTK2635:31N2WW6R9SXRU0ZZV308105GHXPF3K", "dateTime": 1519166000447}, {"current_trial": 161, "trialdata": {"rt": -1000, "trial_type": "single-audio", "word": "jello", "stimulus": "/static/audio/wordpool/JELLO.wav", "conditions": [12, 1600, "a", 12000], "internal_node_id": "0.0-116.0", "trial": 4, "time_elapsed": 766751, "serialpos": 4, "key_press": -1, "wordID": 753, "type": "PRES_AUD", "trial_index": 161}, "uniqueid": "MTK2635:31N2WW6R9SXRU0ZZV308105GHXPF3K", "dateTime": 1519166003085}, {"current_trial": 162, "trialdata": {"rt": -1000, "trial_type": "single-audio", "word": "actress", "stimulus": "/static/audio/wordpool/ACTRESS.wav", "conditions": [12, 1600, "a", 12000], "internal_node_id": "0.0-117.0", "trial": 4, "time_elapsed": 769519, "serialpos": 5, "key_press": -1, "wordID": 5, "type": "PRES_AUD", "trial_index": 162}, "uniqueid": "MTK2635:31N2WW6R9SXRU0ZZV308105GHXPF3K", "dateTime": 1519166005853}, {"current_trial": 163, "trialdata": {"rt": -1000, "trial_type": "single-audio", "word": "lipstick", "stimulus": "/static/audio/wordpool/LIPSTICK.wav", "conditions": [12, 1600, "a", 12000], "internal_node_id": "0.0-118.0", "trial": 4, "time_elapsed": 772086, "serialpos": 6, "key_press": -1, "wordID": 828, "type": "PRES_AUD", "trial_index": 163}, "uniqueid": "MTK2635:31N2WW6R9SXRU0ZZV308105GHXPF3K", "dateTime": 1519166008420}, {"current_trial": 164, "trialdata": {"rt": -1000, "trial_type": "single-audio", "word": "jelly", "stimulus": "/static/audio/wordpool/JELLY.wav", "conditions": [12, 1600, "a", 12000], "internal_node_id": "0.0-119.0", "trial": 4, "time_elapsed": 774882, "serialpos": 7, "key_press": -1, "wordID": 754, "type": "PRES_AUD", "trial_index": 164}, "uniqueid": "MTK2635:31N2WW6R9SXRU0ZZV308105GHXPF3K", "dateTime": 1519166011216}, {"current_trial": 165, "trialdata": {"rt": -1000, "trial_type": "single-audio", "word": "shirt", "stimulus": "/static/audio/wordpool/SHIRT.wav", "conditions": [12, 1600, "a", 12000], "internal_node_id": "0.0-120.0", "trial": 4, "time_elapsed": 777569, "serialpos": 8, "key_press": -1, "wordID": 1286, "type": "PRES_AUD", "trial_index": 165}, "uniqueid": "MTK2635:31N2WW6R9SXRU0ZZV308105GHXPF3K", "dateTime": 1519166013903}, {"current_trial": 166, "trialdata": {"rt": -1000, "trial_type": "single-audio", "word": "scarf", "stimulus": "/static/audio/wordpool/SCARF.wav", "conditions": [12, 1600, "a", 12000], "internal_node_id": "0.0-121.0", "trial": 4, "time_elapsed": 779972, "serialpos": 9, "key_press": -1, "wordID": 1245, "type": "PRES_AUD", "trial_index": 166}, "uniqueid": "MTK2635:31N2WW6R9SXRU0ZZV308105GHXPF3K", "dateTime": 1519166016306}, {"current_trial": 167, "trialdata": {"rt": -1000, "trial_type": "single-audio", "word": "grave", "stimulus": "/static/audio/wordpool/GRAVE.wav", "conditions": [12, 1600, "a", 12000], "internal_node_id": "0.0-122.0", "trial": 4, "time_elapsed": 782486, "serialpos": 10, "key_press": -1, "wordID": 657, "type": "PRES_AUD", "trial_index": 167}, "uniqueid": "MTK2635:31N2WW6R9SXRU0ZZV308105GHXPF3K", "dateTime": 1519166018820}, {"current_trial": 168, "trialdata": {"rt": -1000, "trial_type": "single-audio", "word": "worker", "stimulus": "/static/audio/wordpool/WORKER.wav", "conditions": [12, 1600, "a", 12000], "internal_node_id": "0.0-123.0", "trial": 4, "time_elapsed": 785015, "serialpos": 11, "key_press": -1, "wordID": 1620, "type": "PRES_AUD", "trial_index": 168}, "uniqueid": "MTK2635:31N2WW6R9SXRU0ZZV308105GHXPF3K", "dateTime": 1519166021349}, {"current_trial": 169, "trialdata": {"rt": -1, "trial_type": "single-stim", "stimulus": "", "internal_node_id": "0.0-124.0-0.0", "time_elapsed": 786412, "key_press": -1, "type": "PRE_RECALL_DELAY", "trial_index": 169}, "uniqueid": "MTK2635:31N2WW6R9SXRU0ZZV308105GHXPF3K", "dateTime": 1519166022746}, {"current_trial": 170, "trialdata": {"rt": -1000, "trial_type": "single-audio", "stimulus": "/static/audio/400Hz.wav", "internal_node_id": "0.0-125.0", "time_elapsed": 786914, "key_press": -1, "type": "PRE_RECALL_ALERT", "trial_index": 170}, "uniqueid": "MTK2635:31N2WW6R9SXRU0ZZV308105GHXPF3K", "dateTime": 1519166023248}, {"current_trial": 171, "trialdata": {"rt": [5534, 8494, 11917, 14997, 17689, 33496, 37197, 40466, 44799, 47717, 56208], "recwords": ["worker", "grave", "actress", "jellow", "dusk", "quarter", "fiddle", "jello", "scarf", "shirt", "human"], "key_times": [2475, 2689, 2936, 3708, 3910, 4151, 5534, 5868, 6595, 6759, 7125, 7341, 8494, 9721, 10128, 10377, 10630, 10826, 11143, 11344, 11917, 12621, 12832, 13330, 13525, 13771, 14092, 14997, 15573, 15813, 16168, 16670, 17689, 30938, 31158, 31372, 31983, 32167, 32352, 32525, 33496, 34071, 34414, 34737, 34910, 35346, 35709, 37197, 38073, 38305, 38847, 39044, 40257, 40466, 42435, 42890, 43029, 43412, 44140, 44799, 45513, 45669, 46100, 46431, 46866, 47717, 54274, 54628, 55064, 55223, 55409, 56208], "trial_type": "free-recall", "conditions": [12, 1600, "a", 12000], "internal_node_id": "0.0-126.0-0.0", "key_presses": [87, 79, 82, 75, 69, 82, 13, 71, 82, 65, 86, 69, 13, 65, 67, 84, 82, 69, 83, 83, 13, 74, 69, 76, 76, 79, 87, 13, 68, 85, 83, 75, 13, 81, 85, 65, 82, 84, 69, 82, 13, 70, 73, 68, 68, 76, 69, 32, 74, 69, 76, 76, 79, 32, 83, 67, 65, 82, 70, 32, 83, 72, 73, 82, 84, 32, 72, 85, 77, 65, 78, 13], "trial": 4, "time_elapsed": 846916, "type": "FREE_RECALL", "trial_index": 171}, "uniqueid": "MTK2635:31N2WW6R9SXRU0ZZV308105GHXPF3K", "dateTime": 1519166083253}, {"current_trial": 172, "trialdata": {"rt": 1868, "trial_type": "text", "internal_node_id": "0.0-127.0", "time_elapsed": 850789, "key_press": 70, "type": "INSTRUCTIONS", "trial_index": 172}, "uniqueid": "MTK2635:31N2WW6R9SXRU0ZZV308105GHXPF3K", "dateTime": 1519166087123}, {"current_trial": 173, "trialdata": {"rt": [6206, 9453, 16349, 20637, 23626], "trial_type": "math-distractor", "key_times": [4542, 5211, 6206, 8479, 9453, 14726, 15173, 16349, 19505, 19683, 20637, 22220, 22855, 23626], "responses": ["24", "8", "10", "22", "16"], "num2": [8, 2, 2, 8, 4, 1], "num3": [9, 2, 2, 6, 4, 7], "conditions": [24, 1600, "a", 24000], "internal_node_id": "0.0-128.0", "key_presses": [50, 52, 13, 56, 13, 49, 48, 13, 50, 50, 13, 49, 54, 13], "trial": 5, "time_elapsed": 876794, "type": "DISTRACTOR", "trial_index": 173, "num1": [7, 4, 8, 8, 8, 5]}, "uniqueid": "MTK2635:31N2WW6R9SXRU0ZZV308105GHXPF3K", "dateTime": 1519166113129}, {"current_trial": 174, "trialdata": {"rt": -1, "trial_type": "single-stim", "stimulus": "<p id=\"stim\">10</p>", "internal_node_id": "0.0-129.0-0.0", "time_elapsed": 879796, "key_press": -1, "trial_index": 174}, "uniqueid": "MTK2635:31N2WW6R9SXRU0ZZV308105GHXPF3K", "dateTime": 1519166116131}, {"current_trial": 175, "trialdata": {"rt": -1, "trial_type": "single-stim", "stimulus": "<p id=\"stim\">9</p>", "internal_node_id": "0.0-129.0-1.0", "time_elapsed": 880798, "key_press": -1, "trial_index": 175}, "uniqueid": "MTK2635:31N2WW6R9SXRU0ZZV308105GHXPF3K", "dateTime": 1519166117132}, {"current_trial": 176, "trialdata": {"rt": -1, "trial_type": "single-stim", "stimulus": "<p id=\"stim\">8</p>", "internal_node_id": "0.0-129.0-2.0", "time_elapsed": 881799, "key_press": -1, "trial_index": 176}, "uniqueid": "MTK2635:31N2WW6R9SXRU0ZZV308105GHXPF3K", "dateTime": 1519166118134}, {"current_trial": 177, "trialdata": {"rt": -1, "trial_type": "single-stim", "stimulus": "<p id=\"stim\">7</p>", "internal_node_id": "0.0-129.0-3.0", "time_elapsed": 882801, "key_press": -1, "trial_index": 177}, "uniqueid": "MTK2635:31N2WW6R9SXRU0ZZV308105GHXPF3K", "dateTime": 1519166119135}, {"current_trial": 178, "trialdata": {"rt": -1, "trial_type": "single-stim", "stimulus": "<p id=\"stim\">6</p>", "internal_node_id": "0.0-129.0-4.0", "time_elapsed": 883803, "key_press": -1, "trial_index": 178}, "uniqueid": "MTK2635:31N2WW6R9SXRU0ZZV308105GHXPF3K", "dateTime": 1519166120137}, {"current_trial": 179, "trialdata": {"rt": -1, "trial_type": "single-stim", "stimulus": "<p id=\"stim\">5</p>", "internal_node_id": "0.0-129.0-5.0", "time_elapsed": 884805, "key_press": -1, "trial_index": 179}, "uniqueid": "MTK2635:31N2WW6R9SXRU0ZZV308105GHXPF3K", "dateTime": 1519166121139}, {"current_trial": 180, "trialdata": {"rt": -1, "trial_type": "single-stim", "stimulus": "<p id=\"stim\">4</p>", "internal_node_id": "0.0-129.0-6.0", "time_elapsed": 885806, "key_press": -1, "trial_index": 180}, "uniqueid": "MTK2635:31N2WW6R9SXRU0ZZV308105GHXPF3K", "dateTime": 1519166122140}, {"current_trial": 181, "trialdata": {"rt": -1, "trial_type": "single-stim", "stimulus": "<p id=\"stim\">3</p>", "internal_node_id": "0.0-129.0-7.0", "time_elapsed": 886807, "key_press": -1, "trial_index": 181}, "uniqueid": "MTK2635:31N2WW6R9SXRU0ZZV308105GHXPF3K", "dateTime": 1519166123141}, {"current_trial": 182, "trialdata": {"rt": -1, "trial_type": "single-stim", "stimulus": "<p id=\"stim\">2</p>", "internal_node_id": "0.0-129.0-8.0", "time_elapsed": 887809, "key_press": -1, "trial_index": 182}, "uniqueid": "MTK2635:31N2WW6R9SXRU0ZZV308105GHXPF3K", "dateTime": 1519166124143}, {"current_trial": 183, "trialdata": {"rt": -1, "trial_type": "single-stim", "stimulus": "<p id=\"stim\">1</p>", "internal_node_id": "0.0-129.0-9.0", "time_elapsed": 888810, "key_press": -1, "trial_index": 183}, "uniqueid": "MTK2635:31N2WW6R9SXRU0ZZV308105GHXPF3K", "dateTime": 1519166125144}, {"current_trial": 184, "trialdata": {"rt": -1, "trial_type": "single-stim", "stimulus": "<p id=\"stim\">+</p>", "internal_node_id": "0.0-130.0-0.0", "time_elapsed": 890313, "key_press": -1, "type": "FIXATION", "trial_index": 184}, "uniqueid": "MTK2635:31N2WW6R9SXRU0ZZV308105GHXPF3K", "dateTime": 1519166126647}, {"current_trial": 185, "trialdata": {"rt": -1000, "trial_type": "single-audio", "word": "woman", "stimulus": "/static/audio/wordpool/WOMAN.wav", "conditions": [24, 1600, "a", 24000], "internal_node_id": "0.0-131.0", "trial": 5, "time_elapsed": 892967, "serialpos": 0, "key_press": -1, "wordID": 1619, "type": "PRES_AUD", "trial_index": 185}, "uniqueid": "MTK2635:31N2WW6R9SXRU0ZZV308105GHXPF3K", "dateTime": 1519166129301}, {"current_trial": 186, "trialdata": {"rt": -1000, "trial_type": "single-audio", "word": "sibling", "stimulus": "/static/audio/wordpool/SIBLING.wav", "conditions": [24, 1600, "a", 24000], "internal_node_id": "0.0-132.0", "trial": 5, "time_elapsed": 895707, "serialpos": 1, "key_press": -1, "wordID": 1300, "type": "PRES_AUD", "trial_index": 186}, "uniqueid": "MTK2635:31N2WW6R9SXRU0ZZV308105GHXPF3K", "dateTime": 1519166132042}, {"current_trial": 187, "trialdata": {"rt": -1000, "trial_type": "single-audio", "word": "missile", "stimulus": "/static/audio/wordpool/MISSILE.wav", "conditions": [24, 1600, "a", 24000], "internal_node_id": "0.0-133.0", "trial": 5, "time_elapsed": 898179, "serialpos": 2, "key_press": -1, "wordID": 899, "type": "PRES_AUD", "trial_index": 187}, "uniqueid": "MTK2635:31N2WW6R9SXRU0ZZV308105GHXPF3K", "dateTime": 1519166134513}, {"current_trial": 188, "trialdata": {"rt": -1000, "trial_type": "single-audio", "word": "trench", "stimulus": "/static/audio/wordpool/TRENCH.wav", "conditions": [24, 1600, "a", 24000], "internal_node_id": "0.0-134.0", "trial": 5, "time_elapsed": 900589, "serialpos": 3, "key_press": -1, "wordID": 1502, "type": "PRES_AUD", "trial_index": 188}, "uniqueid": "MTK2635:31N2WW6R9SXRU0ZZV308105GHXPF3K", "dateTime": 1519166136923}, {"current_trial": 189, "trialdata": {"rt": -1000, "trial_type": "single-audio", "word": "canal", "stimulus": "/static/audio/wordpool/CANAL.wav", "conditions": [24, 1600, "a", 24000], "internal_node_id": "0.0-135.0", "trial": 5, "time_elapsed": 903371, "serialpos": 4, "key_press": -1, "wordID": 225, "type": "PRES_AUD", "trial_index": 189}, "uniqueid": "MTK2635:31N2WW6R9SXRU0ZZV308105GHXPF3K", "dateTime": 1519166139705}, {"current_trial": 190, "trialdata": {"rt": -1000, "trial_type": "single-audio", "word": "onion", "stimulus": "/static/audio/wordpool/ONION.wav", "conditions": [24, 1600, "a", 24000], "internal_node_id": "0.0-136.0", "trial": 5, "time_elapsed": 905899, "serialpos": 5, "key_press": -1, "wordID": 976, "type": "PRES_AUD", "trial_index": 190}, "uniqueid": "MTK2635:31N2WW6R9SXRU0ZZV308105GHXPF3K", "dateTime": 1519166142233}, {"current_trial": 191, "trialdata": {"rt": -1000, "trial_type": "single-audio", "word": "chipmunk", "stimulus": "/static/audio/wordpool/CHIPMUNK.wav", "conditions": [24, 1600, "a", 24000], "internal_node_id": "0.0-137.0", "trial": 5, "time_elapsed": 908577, "serialpos": 6, "key_press": -1, "wordID": 303, "type": "PRES_AUD", "trial_index": 191}, "uniqueid": "MTK2635:31N2WW6R9SXRU0ZZV308105GHXPF3K", "dateTime": 1519166144911}, {"current_trial": 192, "trialdata": {"rt": -1000, "trial_type": "single-audio", "word": "rabbit", "stimulus": "/static/audio/wordpool/RABBIT.wav", "conditions": [24, 1600, "a", 24000], "internal_node_id": "0.0-138.0", "trial": 5, "time_elapsed": 911062, "serialpos": 7, "key_press": -1, "wordID": 1151, "type": "PRES_AUD", "trial_index": 192}, "uniqueid": "MTK2635:31N2WW6R9SXRU0ZZV308105GHXPF3K", "dateTime": 1519166147396}, {"current_trial": 193, "trialdata": {"rt": -1000, "trial_type": "single-audio", "word": "crown", "stimulus": "/static/audio/wordpool/CROWN.wav", "conditions": [24, 1600, "a", 24000], "internal_node_id": "0.0-139.0", "trial": 5, "time_elapsed": 913617, "serialpos": 8, "key_press": -1, "wordID": 414, "type": "PRES_AUD", "trial_index": 193}, "uniqueid": "MTK2635:31N2WW6R9SXRU0ZZV308105GHXPF3K", "dateTime": 1519166149951}, {"current_trial": 194, "trialdata": {"rt": -1000, "trial_type": "single-audio", "word": "garlic", "stimulus": "/static/audio/wordpool/GARLIC.wav", "conditions": [24, 1600, "a", 24000], "internal_node_id": "0.0-140.0", "trial": 5, "time_elapsed": 916208, "serialpos": 9, "key_press": -1, "wordID": 623, "type": "PRES_AUD", "trial_index": 194}, "uniqueid": "MTK2635:31N2WW6R9SXRU0ZZV308105GHXPF3K", "dateTime": 1519166152542}, {"current_trial": 195, "trialdata": {"rt": -1000, "trial_type": "single-audio", "word": "female", "stimulus": "/static/audio/wordpool/FEMALE.wav", "conditions": [24, 1600, "a", 24000], "internal_node_id": "0.0-141.0", "trial": 5, "time_elapsed": 918709, "serialpos": 10, "key_press": -1, "wordID": 558, "type": "PRES_AUD", "trial_index": 195}, "uniqueid": "MTK2635:31N2WW6R9SXRU0ZZV308105GHXPF3K", "dateTime": 1519166155043}, {"current_trial": 196, "trialdata": {"rt": -1000, "trial_type": "single-audio", "word": "motel", "stimulus": "/static/audio/wordpool/MOTEL.wav", "conditions": [24, 1600, "a", 24000], "internal_node_id": "0.0-142.0", "trial": 5, "time_elapsed": 921412, "serialpos": 11, "key_press": -1, "wordID": 918, "type": "PRES_AUD", "trial_index": 196}, "uniqueid": "MTK2635:31N2WW6R9SXRU0ZZV308105GHXPF3K", "dateTime": 1519166157746}, {"current_trial": 197, "trialdata": {"rt": -1000, "trial_type": "single-audio", "word": "gallon", "stimulus": "/static/audio/wordpool/GALLON.wav", "conditions": [24, 1600, "a", 24000], "internal_node_id": "0.0-143.0", "trial": 5, "time_elapsed": 923939, "serialpos": 12, "key_press": -1, "wordID": 617, "type": "PRES_AUD", "trial_index": 197}, "uniqueid": "MTK2635:31N2WW6R9SXRU0ZZV308105GHXPF3K", "dateTime": 1519166160274}, {"current_trial": 198, "trialdata": {"rt": -1000, "trial_type": "single-audio", "word": "mammal", "stimulus": "/static/audio/wordpool/MAMMAL.wav", "conditions": [24, 1600, "a", 24000], "internal_node_id": "0.0-144.0", "trial": 5, "time_elapsed": 926474, "serialpos": 13, "key_press": -1, "wordID": 860, "type": "PRES_AUD", "trial_index": 198}, "uniqueid": "MTK2635:31N2WW6R9SXRU0ZZV308105GHXPF3K", "dateTime": 1519166162808}, {"current_trial": 199, "trialdata": {"rt": -1000, "trial_type": "single-audio", "word": "fox", "stimulus": "/static/audio/wordpool/FOX.wav", "conditions": [24, 1600, "a", 24000], "internal_node_id": "0.0-145.0", "trial": 5, "time_elapsed": 928953, "serialpos": 14, "key_press": -1, "wordID": 597, "type": "PRES_AUD", "trial_index": 199}, "uniqueid": "MTK2635:31N2WW6R9SXRU0ZZV308105GHXPF3K", "dateTime": 1519166165287}, {"current_trial": 200, "trialdata": {"rt": -1000, "trial_type": "single-audio", "word": "coffee", "stimulus": "/static/audio/wordpool/COFFEE.wav", "conditions": [24, 1600, "a", 24000], "internal_node_id": "0.0-146.0", "trial": 5, "time_elapsed": 931409, "serialpos": 15, "key_press": -1, "wordID": 340, "type": "PRES_AUD", "trial_index": 200}, "uniqueid": "MTK2635:31N2WW6R9SXRU0ZZV308105GHXPF3K", "dateTime": 1519166167743}, {"current_trial": 201, "trialdata": {"rt": -1000, "trial_type": "single-audio", "word": "seagull", "stimulus": "/static/audio/wordpool/SEAGULL.wav", "conditions": [24, 1600, "a", 24000], "internal_node_id": "0.0-147.0", "trial": 5, "time_elapsed": 934106, "serialpos": 16, "key_press": -1, "wordID": 1260, "type": "PRES_AUD", "trial_index": 201}, "uniqueid": "MTK2635:31N2WW6R9SXRU0ZZV308105GHXPF3K", "dateTime": 1519166170440}, {"current_trial": 202, "trialdata": {"rt": -1000, "trial_type": "single-audio", "word": "cross", "stimulus": "/static/audio/wordpool/CROSS.wav", "conditions": [24, 1600, "a", 24000], "internal_node_id": "0.0-148.0", "trial": 5, "time_elapsed": 936699, "serialpos": 17, "key_press": -1, "wordID": 412, "type": "PRES_AUD", "trial_index": 202}, "uniqueid": "MTK2635:31N2WW6R9SXRU0ZZV308105GHXPF3K", "dateTime": 1519166173033}, {"current_trial": 203, "trialdata": {"rt": -1000, "trial_type": "single-audio", "word": "marsh", "stimulus": "/static/audio/wordpool/MARSH.wav", "conditions": [24, 1600, "a", 24000], "internal_node_id": "0.0-149.0", "trial": 5, "time_elapsed": 939240, "serialpos": 18, "key_press": -1, "wordID": 873, "type": "PRES_AUD", "trial_index": 203}, "uniqueid": "MTK2635:31N2WW6R9SXRU0ZZV308105GHXPF3K", "dateTime": 1519166175574}, {"current_trial": 204, "trialdata": {"rt": -1000, "trial_type": "single-audio", "word": "salad", "stimulus": "/static/audio/wordpool/SALAD.wav", "conditions": [24, 1600, "a", 24000], "internal_node_id": "0.0-150.0", "trial": 5, "time_elapsed": 941874, "serialpos": 19, "key_press": -1, "wordID": 1223, "type": "PRES_AUD", "trial_index": 204}, "uniqueid": "MTK2635:31N2WW6R9SXRU0ZZV308105GHXPF3K", "dateTime": 1519166178208}, {"current_trial": 205, "trialdata": {"rt": -1000, "trial_type": "single-audio", "word": "picture", "stimulus": "/static/audio/wordpool/PICTURE.wav", "conditions": [24, 1600, "a", 24000], "internal_node_id": "0.0-151.0", "trial": 5, "time_elapsed": 944311, "serialpos": 20, "key_press": -1, "wordID": 1060, "type": "PRES_AUD", "trial_index": 205}, "uniqueid": "MTK2635:31N2WW6R9SXRU0ZZV308105GHXPF3K", "dateTime": 1519166180645}, {"current_trial": 206, "trialdata": {"rt": -1000, "trial_type": "single-audio", "word": "ankle", "stimulus": "/static/audio/wordpool/ANKLE.wav", "conditions": [24, 1600, "a", 24000], "internal_node_id": "0.0-152.0", "trial": 5, "time_elapsed": 946949, "serialpos": 21, "key_press": -1, "wordID": 23, "type": "PRES_AUD", "trial_index": 206}, "uniqueid": "MTK2635:31N2WW6R9SXRU0ZZV308105GHXPF3K", "dateTime": 1519166183284}, {"current_trial": 207, "trialdata": {"rt": -1000, "trial_type": "single-audio", "word": "elbow", "stimulus": "/static/audio/wordpool/ELBOW.wav", "conditions": [24, 1600, "a", 24000], "internal_node_id": "0.0-153.0", "trial": 5, "time_elapsed": 949444, "serialpos": 22, "key_press": -1, "wordID": 519, "type": "PRES_AUD", "trial_index": 207}, "uniqueid": "MTK2635:31N2WW6R9SXRU0ZZV308105GHXPF3K", "dateTime": 1519166185778}, {"current_trial": 208, "trialdata": {"rt": -1000, "trial_type": "single-audio", "word": "barrel", "stimulus": "/static/audio/wordpool/BARREL.wav", "conditions": [24, 1600, "a", 24000], "internal_node_id": "0.0-154.0", "trial": 5, "time_elapsed": 951996, "serialpos": 23, "key_press": -1, "wordID": 90, "type": "PRES_AUD", "trial_index": 208}, "uniqueid": "MTK2635:31N2WW6R9SXRU0ZZV308105GHXPF3K", "dateTime": 1519166188331}, {"current_trial": 209, "trialdata": {"rt": -1, "trial_type": "single-stim", "stimulus": "", "internal_node_id": "0.0-155.0-0.0", "time_elapsed": 953359, "key_press": -1, "type": "PRE_RECALL_DELAY", "trial_index": 209}, "uniqueid": "MTK2635:31N2WW6R9SXRU0ZZV308105GHXPF3K", "dateTime": 1519166189693}, {"current_trial": 210, "trialdata": {"rt": -1000, "trial_type": "single-audio", "stimulus": "/static/audio/400Hz.wav", "internal_node_id": "0.0-156.0", "time_elapsed": 953861, "key_press": -1, "type": "PRE_RECALL_ALERT", "trial_index": 210}, "uniqueid": "MTK2635:31N2WW6R9SXRU0ZZV308105GHXPF3K", "dateTime": 1519166190195}, {"current_trial": 211, "trialdata": {"rt": [3966, 6679, 9703, 13193, 16328, 23870, 29942, 34744, 37633], "recwords": ["sibling", "wome", "ankle", "elbow", "cross", "salad", "trench", "onion", "missle"], "key_times": [1274, 1409, 1830, 2359, 2643, 3042, 3352, 3966, 5011, 5229, 5595, 5890, 6679, 7227, 7474, 7862, 8141, 8484, 9703, 10189, 10884, 11701, 11995, 12494, 13193, 14048, 14305, 14772, 15094, 15309, 16328, 20796, 20955, 22593, 22740, 23116, 23870, 28123, 28269, 28576, 28970, 29299, 29584, 29942, 30913, 31316, 31658, 33564, 33939, 34744, 35589, 35889, 36205, 36366, 36776, 37077, 37633], "trial_type": "free-recall", "conditions": [24, 1600, "a", 24000], "internal_node_id": "0.0-157.0-0.0", "key_presses": [83, 73, 66, 76, 73, 78, 71, 32, 87, 79, 77, 69, 32, 65, 78, 75, 76, 69, 32, 69, 76, 66, 79, 87, 32, 67, 82, 79, 83, 83, 32, 83, 65, 76, 65, 68, 32, 84, 82, 69, 78, 67, 72, 32, 79, 78, 73, 79, 78, 32, 77, 73, 83, 83, 76, 69, 32], "trial": 5, "time_elapsed": 1013865, "type": "FREE_RECALL", "trial_index": 211}, "uniqueid": "MTK2635:31N2WW6R9SXRU0ZZV308105GHXPF3K", "dateTime": 1519166250201}, {"current_trial": 212, "trialdata": {"rt": 5768, "trial_type": "text", "internal_node_id": "0.0-158.0", "time_elapsed": 1021637, "key_press": 13, "type": "INSTRUCTIONS", "trial_index": 212}, "uniqueid": "MTK2635:31N2WW6R9SXRU0ZZV308105GHXPF3K", "dateTime": 1519166257971}, {"current_trial": 213, "trialdata": {"rt": [5843, 9168], "trial_type": "math-distractor", "key_times": [5052, 5181, 5843, 7380, 8179, 9168, 10940, 11456], "responses": ["15", "19"], "num2": [1, 3, 9], "num3": [8, 9, 6], "conditions": [24, 1600, "a", 12000], "internal_node_id": "0.0-159.0", "key_presses": [49, 53, 13, 49, 57, 13, 49, 56], "trial": 6, "time_elapsed": 1035640, "type": "DISTRACTOR", "trial_index": 213, "num1": [6, 7, 3]}, "uniqueid": "MTK2635:31N2WW6R9SXRU0ZZV308105GHXPF3K", "dateTime": 1519166271974}, {"current_trial": 214, "trialdata": {"rt": -1, "trial_type": "single-stim", "stimulus": "<p id=\"stim\">10</p>", "internal_node_id": "0.0-160.0-0.0", "time_elapsed": 1038643, "key_press": -1, "trial_index": 214}, "uniqueid": "MTK2635:31N2WW6R9SXRU0ZZV308105GHXPF3K", "dateTime": 1519166274977}, {"current_trial": 215, "trialdata": {"rt": -1, "trial_type": "single-stim", "stimulus": "<p id=\"stim\">9</p>", "internal_node_id": "0.0-160.0-1.0", "time_elapsed": 1039645, "key_press": -1, "trial_index": 215}, "uniqueid": "MTK2635:31N2WW6R9SXRU0ZZV308105GHXPF3K", "dateTime": 1519166275979}, {"current_trial": 216, "trialdata": {"rt": -1, "trial_type": "single-stim", "stimulus": "<p id=\"stim\">8</p>", "internal_node_id": "0.0-160.0-2.0", "time_elapsed": 1040646, "key_press": -1, "trial_index": 216}, "uniqueid": "MTK2635:31N2WW6R9SXRU0ZZV308105GHXPF3K", "dateTime": 1519166276980}, {"current_trial": 217, "trialdata": {"rt": -1, "trial_type": "single-stim", "stimulus": "<p id=\"stim\">7</p>", "internal_node_id": "0.0-160.0-3.0", "time_elapsed": 1041647, "key_press": -1, "trial_index": 217}, "uniqueid": "MTK2635:31N2WW6R9SXRU0ZZV308105GHXPF3K", "dateTime": 1519166277982}, {"current_trial": 218, "trialdata": {"rt": -1, "trial_type": "single-stim", "stimulus": "<p id=\"stim\">6</p>", "internal_node_id": "0.0-160.0-4.0", "time_elapsed": 1042649, "key_press": -1, "trial_index": 218}, "uniqueid": "MTK2635:31N2WW6R9SXRU0ZZV308105GHXPF3K", "dateTime": 1519166278983}, {"current_trial": 219, "trialdata": {"rt": -1, "trial_type": "single-stim", "stimulus": "<p id=\"stim\">5</p>", "internal_node_id": "0.0-160.0-5.0", "time_elapsed": 1043649, "key_press": -1, "trial_index": 219}, "uniqueid": "MTK2635:31N2WW6R9SXRU0ZZV308105GHXPF3K", "dateTime": 1519166279983}, {"current_trial": 220, "trialdata": {"rt": -1, "trial_type": "single-stim", "stimulus": "<p id=\"stim\">4</p>", "internal_node_id": "0.0-160.0-6.0", "time_elapsed": 1044651, "key_press": -1, "trial_index": 220}, "uniqueid": "MTK2635:31N2WW6R9SXRU0ZZV308105GHXPF3K", "dateTime": 1519166280985}, {"current_trial": 221, "trialdata": {"rt": -1, "trial_type": "single-stim", "stimulus": "<p id=\"stim\">3</p>", "internal_node_id": "0.0-160.0-7.0", "time_elapsed": 1045652, "key_press": -1, "trial_index": 221}, "uniqueid": "MTK2635:31N2WW6R9SXRU0ZZV308105GHXPF3K", "dateTime": 1519166281986}, {"current_trial": 222, "trialdata": {"rt": -1, "trial_type": "single-stim", "stimulus": "<p id=\"stim\">2</p>", "internal_node_id": "0.0-160.0-8.0", "time_elapsed": 1046654, "key_press": -1, "trial_index": 222}, "uniqueid": "MTK2635:31N2WW6R9SXRU0ZZV308105GHXPF3K", "dateTime": 1519166282988}, {"current_trial": 223, "trialdata": {"rt": -1, "trial_type": "single-stim", "stimulus": "<p id=\"stim\">1</p>", "internal_node_id": "0.0-160.0-9.0", "time_elapsed": 1047655, "key_press": -1, "trial_index": 223}, "uniqueid": "MTK2635:31N2WW6R9SXRU0ZZV308105GHXPF3K", "dateTime": 1519166283990}, {"current_trial": 224, "trialdata": {"rt": -1, "trial_type": "single-stim", "stimulus": "<p id=\"stim\">+</p>", "internal_node_id": "0.0-161.0-0.0", "time_elapsed": 1049157, "key_press": -1, "type": "FIXATION", "trial_index": 224}, "uniqueid": "MTK2635:31N2WW6R9SXRU0ZZV308105GHXPF3K", "dateTime": 1519166285491}, {"current_trial": 225, "trialdata": {"rt": -1000, "trial_type": "single-audio", "word": "stomach", "stimulus": "/static/audio/wordpool/STOMACH.wav", "conditions": [24, 1600, "a", 12000], "internal_node_id": "0.0-162.0", "trial": 6, "time_elapsed": 1051631, "serialpos": 0, "key_press": -1, "wordID": 1383, "type": "PRES_AUD", "trial_index": 225}, "uniqueid": "MTK2635:31N2WW6R9SXRU0ZZV308105GHXPF3K", "dateTime": 1519166287965}, {"current_trial": 226, "trialdata": {"rt": -1000, "trial_type": "single-audio", "word": "infant", "stimulus": "/static/audio/wordpool/INFANT.wav", "conditions": [24, 1600, "a", 12000], "internal_node_id": "0.0-163.0", "trial": 6, "time_elapsed": 1054181, "serialpos": 1, "key_press": -1, "wordID": 736, "type": "PRES_AUD", "trial_index": 226}, "uniqueid": "MTK2635:31N2WW6R9SXRU0ZZV308105GHXPF3K", "dateTime": 1519166290515}, {"current_trial": 227, "trialdata": {"rt": -1000, "trial_type": "single-audio", "word": "baby", "stimulus": "/static/audio/wordpool/BABY.wav", "conditions": [24, 1600, "a", 12000], "internal_node_id": "0.0-164.0", "trial": 6, "time_elapsed": 1056826, "serialpos": 2, "key_press": -1, "wordID": 63, "type": "PRES_AUD", "trial_index": 227}, "uniqueid": "MTK2635:31N2WW6R9SXRU0ZZV308105GHXPF3K", "dateTime": 1519166293160}, {"current_trial": 228, "trialdata": {"rt": -1000, "trial_type": "single-audio", "word": "farmer", "stimulus": "/static/audio/wordpool/FARMER.wav", "conditions": [24, 1600, "a", 12000], "internal_node_id": "0.0-165.0", "trial": 6, "time_elapsed": 1059229, "serialpos": 3, "key_press": -1, "wordID": 552, "type": "PRES_AUD", "trial_index": 228}, "uniqueid": "MTK2635:31N2WW6R9SXRU0ZZV308105GHXPF3K", "dateTime": 1519166295563}, {"current_trial": 229, "trialdata": {"rt": -1000, "trial_type": "single-audio", "word": "trombone", "stimulus": "/static/audio/wordpool/TROMBONE.wav", "conditions": [24, 1600, "a", 12000], "internal_node_id": "0.0-166.0", "trial": 6, "time_elapsed": 1061979, "serialpos": 4, "key_press": -1, "wordID": 1507, "type": "PRES_AUD", "trial_index": 229}, "uniqueid": "MTK2635:31N2WW6R9SXRU0ZZV308105GHXPF3K", "dateTime": 1519166298313}, {"current_trial": 230, "trialdata": {"rt": -1000, "trial_type": "single-audio", "word": "blueprint", "stimulus": "/static/audio/wordpool/BLUEPRINT.wav", "conditions": [24, 1600, "a", 12000], "internal_node_id": "0.0-167.0", "trial": 6, "time_elapsed": 1064614, "serialpos": 5, "key_press": -1, "wordID": 141, "type": "PRES_AUD", "trial_index": 230}, "uniqueid": "MTK2635:31N2WW6R9SXRU0ZZV308105GHXPF3K", "dateTime": 1519166300948}, {"current_trial": 231, "trialdata": {"rt": -1000, "trial_type": "single-audio", "word": "rooster", "stimulus": "/static/audio/wordpool/ROOSTER.wav", "conditions": [24, 1600, "a", 12000], "internal_node_id": "0.0-168.0", "trial": 6, "time_elapsed": 1067082, "serialpos": 6, "key_press": -1, "wordID": 1208, "type": "PRES_AUD", "trial_index": 231}, "uniqueid": "MTK2635:31N2WW6R9SXRU0ZZV308105GHXPF3K", "dateTime": 1519166303416}, {"current_trial": 232, "trialdata": {"rt": -1000, "trial_type": "single-audio", "word": "boyfriend", "stimulus": "/static/audio/wordpool/BOYFRIEND.wav", "conditions": [24, 1600, "a", 12000], "internal_node_id": "0.0-169.0", "trial": 6, "time_elapsed": 1069777, "serialpos": 7, "key_press": -1, "wordID": 161, "type": "PRES_AUD", "trial_index": 232}, "uniqueid": "MTK2635:31N2WW6R9SXRU0ZZV308105GHXPF3K", "dateTime": 1519166306111}, {"current_trial": 233, "trialdata": {"rt": -1000, "trial_type": "single-audio", "word": "marker", "stimulus": "/static/audio/wordpool/MARKER.wav", "conditions": [24, 1600, "a", 12000], "internal_node_id": "0.0-170.0", "trial": 6, "time_elapsed": 1072558, "serialpos": 8, "key_press": -1, "wordID": 869, "type": "PRES_AUD", "trial_index": 233}, "uniqueid": "MTK2635:31N2WW6R9SXRU0ZZV308105GHXPF3K", "dateTime": 1519166308892}, {"current_trial": 234, "trialdata": {"rt": -1000, "trial_type": "single-audio", "word": "keeper", "stimulus": "/static/audio/wordpool/KEEPER.wav", "conditions": [24, 1600, "a", 12000], "internal_node_id": "0.0-171.0", "trial": 6, "time_elapsed": 1075254, "serialpos": 9, "key_press": -1, "wordID": 768, "type": "PRES_AUD", "trial_index": 234}, "uniqueid": "MTK2635:31N2WW6R9SXRU0ZZV308105GHXPF3K", "dateTime": 1519166311588}, {"current_trial": 235, "trialdata": {"rt": -1000, "trial_type": "single-audio", "word": "parrot", "stimulus": "/static/audio/wordpool/PARROT.wav", "conditions": [24, 1600, "a", 12000], "internal_node_id": "0.0-172.0", "trial": 6, "time_elapsed": 1078029, "serialpos": 10, "key_press": -1, "wordID": 1014, "type": "PRES_AUD", "trial_index": 235}, "uniqueid": "MTK2635:31N2WW6R9SXRU0ZZV308105GHXPF3K", "dateTime": 1519166314363}, {"current_trial": 236, "trialdata": {"rt": -1000, "trial_type": "single-audio", "word": "forehead", "stimulus": "/static/audio/wordpool/FOREHEAD.wav", "conditions": [24, 1600, "a", 12000], "internal_node_id": "0.0-173.0", "trial": 6, "time_elapsed": 1080504, "serialpos": 11, "key_press": -1, "wordID": 591, "type": "PRES_AUD", "trial_index": 236}, "uniqueid": "MTK2635:31N2WW6R9SXRU0ZZV308105GHXPF3K", "dateTime": 1519166316838}, {"current_trial": 237, "trialdata": {"rt": -1000, "trial_type": "single-audio", "word": "hostess", "stimulus": "/static/audio/wordpool/HOSTESS.wav", "conditions": [24, 1600, "a", 12000], "internal_node_id": "0.0-174.0", "trial": 6, "time_elapsed": 1083006, "serialpos": 12, "key_press": -1, "wordID": 722, "type": "PRES_AUD", "trial_index": 237}, "uniqueid": "MTK2635:31N2WW6R9SXRU0ZZV308105GHXPF3K", "dateTime": 1519166319340}, {"current_trial": 238, "trialdata": {"rt": -1000, "trial_type": "single-audio", "word": "robin", "stimulus": "/static/audio/wordpool/ROBIN.wav", "conditions": [24, 1600, "a", 12000], "internal_node_id": "0.0-175.0", "trial": 6, "time_elapsed": 1085713, "serialpos": 13, "key_press": -1, "wordID": 1198, "type": "PRES_AUD", "trial_index": 238}, "uniqueid": "MTK2635:31N2WW6R9SXRU0ZZV308105GHXPF3K", "dateTime": 1519166322047}, {"current_trial": 239, "trialdata": {"rt": -1000, "trial_type": "single-audio", "word": "spouse", "stimulus": "/static/audio/wordpool/SPOUSE.wav", "conditions": [24, 1600, "a", 12000], "internal_node_id": "0.0-176.0", "trial": 6, "time_elapsed": 1088222, "serialpos": 14, "key_press": -1, "wordID": 1357, "type": "PRES_AUD", "trial_index": 239}, "uniqueid": "MTK2635:31N2WW6R9SXRU0ZZV308105GHXPF3K", "dateTime": 1519166324556}, {"current_trial": 240, "trialdata": {"rt": -1000, "trial_type": "single-audio", "word": "snail", "stimulus": "/static/audio/wordpool/SNAIL.wav", "conditions": [24, 1600, "a", 12000], "internal_node_id": "0.0-177.0", "trial": 6, "time_elapsed": 1090993, "serialpos": 15, "key_press": -1, "wordID": 1331, "type": "PRES_AUD", "trial_index": 240}, "uniqueid": "MTK2635:31N2WW6R9SXRU0ZZV308105GHXPF3K", "dateTime": 1519166327327}, {"current_trial": 241, "trialdata": {"rt": -1000, "trial_type": "single-audio", "word": "tortoise", "stimulus": "/static/audio/wordpool/TORTOISE.wav", "conditions": [24, 1600, "a", 12000], "internal_node_id": "0.0-178.0", "trial": 6, "time_elapsed": 1093751, "serialpos": 16, "key_press": -1, "wordID": 1485, "type": "PRES_AUD", "trial_index": 241}, "uniqueid": "MTK2635:31N2WW6R9SXRU0ZZV308105GHXPF3K", "dateTime": 1519166330085}, {"current_trial": 242, "trialdata": {"rt": -1000, "trial_type": "single-audio", "word": "wife", "stimulus": "/static/audio/wordpool/WIFE.wav", "conditions": [24, 1600, "a", 12000], "internal_node_id": "0.0-179.0", "trial": 6, "time_elapsed": 1096532, "serialpos": 17, "key_press": -1, "wordID": 1608, "type": "PRES_AUD", "trial_index": 242}, "uniqueid": "MTK2635:31N2WW6R9SXRU0ZZV308105GHXPF3K", "dateTime": 1519166332866}, {"current_trial": 243, "trialdata": {"rt": -1000, "trial_type": "single-audio", "word": "breast", "stimulus": "/static/audio/wordpool/BREAST.wav", "conditions": [24, 1600, "a", 12000], "internal_node_id": "0.0-180.0", "trial": 6, "time_elapsed": 1098976, "serialpos": 18, "key_press": -1, "wordID": 170, "type": "PRES_AUD", "trial_index": 243}, "uniqueid": "MTK2635:31N2WW6R9SXRU0ZZV308105GHXPF3K", "dateTime": 1519166335310}, {"current_trial": 244, "trialdata": {"rt": -1000, "trial_type": "single-audio", "word": "pork", "stimulus": "/static/audio/wordpool/PORK.wav", "conditions": [24, 1600, "a", 12000], "internal_node_id": "0.0-181.0", "trial": 6, "time_elapsed": 1101418, "serialpos": 19, "key_press": -1, "wordID": 1107, "type": "PRES_AUD", "trial_index": 244}, "uniqueid": "MTK2635:31N2WW6R9SXRU0ZZV308105GHXPF3K", "dateTime": 1519166337752}, {"current_trial": 245, "trialdata": {"rt": -1000, "trial_type": "single-audio", "word": "flesh", "stimulus": "/static/audio/wordpool/FLESH.wav", "conditions": [24, 1600, "a", 12000], "internal_node_id": "0.0-182.0", "trial": 6, "time_elapsed": 1103960, "serialpos": 20, "key_press": -1, "wordID": 578, "type": "PRES_AUD", "trial_index": 245}, "uniqueid": "MTK2635:31N2WW6R9SXRU0ZZV308105GHXPF3K", "dateTime": 1519166340294}, {"current_trial": 246, "trialdata": {"rt": -1000, "trial_type": "single-audio", "word": "leopard", "stimulus": "/static/audio/wordpool/LEOPARD.wav", "conditions": [24, 1600, "a", 12000], "internal_node_id": "0.0-183.0", "trial": 6, "time_elapsed": 1106620, "serialpos": 21, "key_press": -1, "wordID": 811, "type": "PRES_AUD", "trial_index": 246}, "uniqueid": "MTK2635:31N2WW6R9SXRU0ZZV308105GHXPF3K", "dateTime": 1519166342954}, {"current_trial": 247, "trialdata": {"rt": -1000, "trial_type": "single-audio", "word": "slug", "stimulus": "/static/audio/wordpool/SLUG.wav", "conditions": [24, 1600, "a", 12000], "internal_node_id": "0.0-184.0", "trial": 6, "time_elapsed": 1109417, "serialpos": 22, "key_press": -1, "wordID": 1328, "type": "PRES_AUD", "trial_index": 247}, "uniqueid": "MTK2635:31N2WW6R9SXRU0ZZV308105GHXPF3K", "dateTime": 1519166345751}, {"current_trial": 248, "trialdata": {"rt": -1000, "trial_type": "single-audio", "word": "softball", "stimulus": "/static/audio/wordpool/SOFTBALL.wav", "conditions": [24, 1600, "a", 12000], "internal_node_id": "0.0-185.0", "trial": 6, "time_elapsed": 1111977, "serialpos": 23, "key_press": -1, "wordID": 1342, "type": "PRES_AUD", "trial_index": 248}, "uniqueid": "MTK2635:31N2WW6R9SXRU0ZZV308105GHXPF3K", "dateTime": 1519166348311}, {"current_trial": 249, "trialdata": {"rt": -1, "trial_type": "single-stim", "stimulus": "", "internal_node_id": "0.0-186.0-0.0", "time_elapsed": 1113373, "key_press": -1, "type": "PRE_RECALL_DELAY", "trial_index": 249}, "uniqueid": "MTK2635:31N2WW6R9SXRU0ZZV308105GHXPF3K", "dateTime": 1519166349707}, {"current_trial": 250, "trialdata": {"rt": -1000, "trial_type": "single-audio", "stimulus": "/static/audio/400Hz.wav", "internal_node_id": "0.0-187.0", "time_elapsed": 1113875, "key_press": -1, "type": "PRE_RECALL_ALERT", "trial_index": 250}, "uniqueid": "MTK2635:31N2WW6R9SXRU0ZZV308105GHXPF3K", "dateTime": 1519166350209}, {"current_trial": 251, "trialdata": {"rt": [4847