{"assignmentId": "3BXQMRHWK05HZ44ZWA0MJZFPPZSMUN", "workerId": "MTK2075", "questiondata": {"origin": "United States", "strat-rehearsal": "30", "marital": "Single", "education": "Some college", "ethnicity": "Not Hispanic", "color_depth": 24, "distracted": "No", "wrote-notes": "No", "strat-other": "", "screen_width": 1920, "avail_screen_width": 1920, "avail_screen_height": 1040, "strat-image": "98", "language": "English", "gender": "Female", "age": "24", "gender_other": "", "race": ["White"], "strat-categorize": "30", "pixel_depth": 24, "strat-spatial": "97", "strat-story": "98", "race_other": "", "screen_height": 1080}, "bonus": 0, "hitId": "3W5PY7V3UPE6SLKPDCFHH8X1Z9OJYX", "counterbalance": 2116, "useragent": "Mozilla/5.0 (Windows NT 10.0; Win64; x64) AppleWebKit/537.36 (KHTML, like Gecko) Chrome/63.0.3239.132 Safari/537.36", "eventdata": [{"eventtype": "initialized", "interval": 0, "value": null, "timestamp": 1516683040402}, {"eventtype": "window_resize", "interval": 0, "value": [1920, 1033], "timestamp": 1516683040402}, {"eventtype": "window_resize", "interval": 2556, "value": [1920, 989], "timestamp": 1516683042958}], "data": [{"current_trial": 0, "trialdata": {"rt": 2129, "trial_type": "text", "internal_node_id": "0.0-0.0", "time_elapsed": 2129, "key_press": 32, "type": "INSTRUCTIONS", "trial_index": 0}, "uniqueid": "MTK2075:3BXQMRHWK05HZ44ZWA0MJZFPPZSMUN", "dateTime": 1516683054007}, {"current_trial": 1, "trialdata": {"rt": 15095, "trial_type": "text", "internal_node_id": "0.0-1.0", "time_elapsed": 17225, "key_press": 32, "type": "INSTRUCTIONS", "trial_index": 1}, "uniqueid": "MTK2075:3BXQMRHWK05HZ44ZWA0MJZFPPZSMUN", "dateTime": 1516683069102}, {"current_trial": 2, "trialdata": {"rt": [6013], "trial_type": "audio-test", "responses": ["ocean"], "internal_node_id": "0.0-2.0", "time_elapsed": 23241, "type": "AUDIO_TEST", "trial_index": 2}, "uniqueid": "MTK2075:3BXQMRHWK05HZ44ZWA0MJZFPPZSMUN", "dateTime": 1516683075118}, {"current_trial": 3, "trialdata": {"rt": [5566], "trial_type": "audio-test", "responses": ["crystal"], "internal_node_id": "0.0-3.0", "time_elapsed": 28810, "type": "AUDIO_TEST", "trial_index": 3}, "uniqueid": "MTK2075:3BXQMRHWK05HZ44ZWA0MJZFPPZSMUN", "dateTime": 1516683080687}, {"current_trial": 4, "trialdata": {"rt": [4021], "trial_type": "audio-test", "responses": ["spice"], "internal_node_id": "0.0-4.0", "time_elapsed": 32833, "type": "AUDIO_TEST", "trial_index": 4}, "uniqueid": "MTK2075:3BXQMRHWK05HZ44ZWA0MJZFPPZSMUN", "dateTime": 1516683084710}, {"current_trial": 5, "trialdata": {"rt": 65185, "trial_type": "survey-text", "responses": "{\"Q0\":\"6:00AM\",\"Q1\":\"3:00PM\",\"Q2\":\"5\"}", "internal_node_id": "0.0-5.0", "time_elapsed": 98771, "type": "SLEEP_SURVEY", "trial_index": 5}, "uniqueid": "MTK2075:3BXQMRHWK05HZ44ZWA0MJZFPPZSMUN", "dateTime": 1516683150648}, {"current_trial": 6, "trialdata": {"rt": 35582, "trial_type": "text", "internal_node_id": "0.0-6.0", "time_elapsed": 135353, "key_press": 32, "type": "INSTRUCTIONS", "trial_index": 6}, "uniqueid": "MTK2075:3BXQMRHWK05HZ44ZWA0MJZFPPZSMUN", "dateTime": 1516683187230}, {"current_trial": 7, "trialdata": {"rt": 26962, "trial_type": "text", "internal_node_id": "0.0-7.0", "time_elapsed": 162817, "key_press": 32, "type": "INSTRUCTIONS", "trial_index": 7}, "uniqueid": "MTK2075:3BXQMRHWK05HZ44ZWA0MJZFPPZSMUN", "dateTime": 1516683214694}, {"current_trial": 8, "trialdata": {"rt": 19851, "trial_type": "text", "internal_node_id": "0.0-8.0", "time_elapsed": 183168, "key_press": 32, "type": "INSTRUCTIONS", "trial_index": 8}, "uniqueid": "MTK2075:3BXQMRHWK05HZ44ZWA0MJZFPPZSMUN", "dateTime": 1516683235046}, {"current_trial": 9, "trialdata": {"rt": [6517, 14877, 16862], "trial_type": "math-distractor", "key_times": [5830, 6078, 6517, 14446, 14597, 14877, 16381, 16582, 16862], "responses": ["16", "22", "16"], "num2": [6, 7, 7, 1], "num3": [5, 7, 8, 9], "conditions": [18, 1200, "a", 18000], "internal_node_id": "0.0-9.0", "key_presses": [97, 102, 13, 98, 98, 13, 97, 102, 13], "trial": 0, "time_elapsed": 202172, "type": "DISTRACTOR", "trial_index": 9, "num1": [5, 8, 1, 8]}, "uniqueid": "MTK2075:3BXQMRHWK05HZ44ZWA0MJZFPPZSMUN", "dateTime": 1516683254049}, {"current_trial": 10, "trialdata": {"rt": -1, "trial_type": "single-stim", "stimulus": "<p id=\"stim\">10</p>", "internal_node_id": "0.0-10.0-0.0", "time_elapsed": 205174, "key_press": -1, "trial_index": 10}, "uniqueid": "MTK2075:3BXQMRHWK05HZ44ZWA0MJZFPPZSMUN", "dateTime": 1516683257051}, {"current_trial": 11, "trialdata": {"rt": -1, "trial_type": "single-stim", "stimulus": "<p id=\"stim\">9</p>", "internal_node_id": "0.0-10.0-1.0", "time_elapsed": 206175, "key_press": -1, "trial_index": 11}, "uniqueid": "MTK2075:3BXQMRHWK05HZ44ZWA0MJZFPPZSMUN", "dateTime": 1516683258052}, {"current_trial": 12, "trialdata": {"rt": -1, "trial_type": "single-stim", "stimulus": "<p id=\"stim\">8</p>", "internal_node_id": "0.0-10.0-2.0", "time_elapsed": 207176, "key_press": -1, "trial_index": 12}, "uniqueid": "MTK2075:3BXQMRHWK05HZ44ZWA0MJZFPPZSMUN", "dateTime": 1516683259053}, {"current_trial": 13, "trialdata": {"rt": -1, "trial_type": "single-stim", "stimulus": "<p id=\"stim\">7</p>", "internal_node_id": "0.0-10.0-3.0", "time_elapsed": 208176, "key_press": -1, "trial_index": 13}, "uniqueid": "MTK2075:3BXQMRHWK05HZ44ZWA0MJZFPPZSMUN", "dateTime": 1516683260054}, {"current_trial": 14, "trialdata": {"rt": -1, "trial_type": "single-stim", "stimulus": "<p id=\"stim\">6</p>", "internal_node_id": "0.0-10.0-4.0", "time_elapsed": 209177, "key_press": -1, "trial_index": 14}, "uniqueid": "MTK2075:3BXQMRHWK05HZ44ZWA0MJZFPPZSMUN", "dateTime": 1516683261054}, {"current_trial": 15, "trialdata": {"rt": -1, "trial_type": "single-stim", "stimulus": "<p id=\"stim\">5</p>", "internal_node_id": "0.0-10.0-5.0", "time_elapsed": 210178, "key_press": -1, "trial_index": 15}, "uniqueid": "MTK2075:3BXQMRHWK05HZ44ZWA0MJZFPPZSMUN", "dateTime": 1516683262055}, {"current_trial": 16, "trialdata": {"rt": -1, "trial_type": "single-stim", "stimulus": "<p id=\"stim\">4</p>", "internal_node_id": "0.0-10.0-6.0", "time_elapsed": 211181, "key_press": -1, "trial_index": 16}, "uniqueid": "MTK2075:3BXQMRHWK05HZ44ZWA0MJZFPPZSMUN", "dateTime": 1516683263058}, {"current_trial": 17, "trialdata": {"rt": -1, "trial_type": "single-stim", "stimulus": "<p id=\"stim\">3</p>", "internal_node_id": "0.0-10.0-7.0", "time_elapsed": 212182, "key_press": -1, "trial_index": 17}, "uniqueid": "MTK2075:3BXQMRHWK05HZ44ZWA0MJZFPPZSMUN", "dateTime": 1516683264059}, {"current_trial": 18, "trialdata": {"rt": -1, "trial_type": "single-stim", "stimulus": "<p id=\"stim\">2</p>", "internal_node_id": "0.0-10.0-8.0", "time_elapsed": 213183, "key_press": -1, "trial_index": 18}, "uniqueid": "MTK2075:3BXQMRHWK05HZ44ZWA0MJZFPPZSMUN", "dateTime": 1516683265060}, {"current_trial": 19, "trialdata": {"rt": -1, "trial_type": "single-stim", "stimulus": "<p id=\"stim\">1</p>", "internal_node_id": "0.0-10.0-9.0", "time_elapsed": 214184, "key_press": -1, "trial_index": 19}, "uniqueid": "MTK2075:3BXQMRHWK05HZ44ZWA0MJZFPPZSMUN", "dateTime": 1516683266061}, {"current_trial": 20, "trialdata": {"rt": -1, "trial_type": "single-stim", "stimulus": "<p id=\"stim\">+</p>", "internal_node_id": "0.0-11.0-0.0", "time_elapsed": 215685, "key_press": -1, "type": "FIXATION", "trial_index": 20}, "uniqueid": "MTK2075:3BXQMRHWK05HZ44ZWA0MJZFPPZSMUN", "dateTime": 1516683267562}, {"current_trial": 21, "trialdata": {"rt": -1000, "trial_type": "single-audio", "word": "sunset", "stimulus": "/static/audio/wordpool/SUNSET.wav", "conditions": [18, 1200, "a", 18000], "internal_node_id": "0.0-12.0", "trial": 0, "time_elapsed": 217871, "serialpos": 0, "key_press": -1, "wordID": 1407, "type": "PRES_AUD", "trial_index": 21}, "uniqueid": "MTK2075:3BXQMRHWK05HZ44ZWA0MJZFPPZSMUN", "dateTime": 1516683269748}, {"current_trial": 22, "trialdata": {"rt": -1000, "trial_type": "single-audio", "word": "motel", "stimulus": "/static/audio/wordpool/MOTEL.wav", "conditions": [18, 1200, "a", 18000], "internal_node_id": "0.0-13.0", "trial": 0, "time_elapsed": 220145, "serialpos": 1, "key_press": -1, "wordID": 918, "type": "PRES_AUD", "trial_index": 22}, "uniqueid": "MTK2075:3BXQMRHWK05HZ44ZWA0MJZFPPZSMUN", "dateTime": 1516683272022}, {"current_trial": 23, "trialdata": {"rt": -1000, "trial_type": "single-audio", "word": "brandy", "stimulus": "/static/audio/wordpool/BRANDY.wav", "conditions": [18, 1200, "a", 18000], "internal_node_id": "0.0-14.0", "trial": 0, "time_elapsed": 222301, "serialpos": 2, "key_press": -1, "wordID": 168, "type": "PRES_AUD", "trial_index": 23}, "uniqueid": "MTK2075:3BXQMRHWK05HZ44ZWA0MJZFPPZSMUN", "dateTime": 1516683274178}, {"current_trial": 24, "trialdata": {"rt": -1000, "trial_type": "single-audio", "word": "cod", "stimulus": "/static/audio/wordpool/COD.wav", "conditions": [18, 1200, "a", 18000], "internal_node_id": "0.0-15.0", "trial": 0, "time_elapsed": 224359, "serialpos": 3, "key_press": -1, "wordID": 339, "type": "PRES_AUD", "trial_index": 24}, "uniqueid": "MTK2075:3BXQMRHWK05HZ44ZWA0MJZFPPZSMUN", "dateTime": 1516683276236}, {"current_trial": 25, "trialdata": {"rt": -1000, "trial_type": "single-audio", "word": "sibling", "stimulus": "/static/audio/wordpool/SIBLING.wav", "conditions": [18, 1200, "a", 18000], "internal_node_id": "0.0-16.0", "trial": 0, "time_elapsed": 226679, "serialpos": 4, "key_press": -1, "wordID": 1300, "type": "PRES_AUD", "trial_index": 25}, "uniqueid": "MTK2075:3BXQMRHWK05HZ44ZWA0MJZFPPZSMUN", "dateTime": 1516683278556}, {"current_trial": 26, "trialdata": {"rt": -1000, "trial_type": "single-audio", "word": "twister", "stimulus": "/static/audio/wordpool/TWISTER.wav", "conditions": [18, 1200, "a", 18000], "internal_node_id": "0.0-17.0", "trial": 0, "time_elapsed": 228779, "serialpos": 5, "key_press": -1, "wordID": 1529, "type": "PRES_AUD", "trial_index": 26}, "uniqueid": "MTK2075:3BXQMRHWK05HZ44ZWA0MJZFPPZSMUN", "dateTime": 1516683280656}, {"current_trial": 27, "trialdata": {"rt": -1000, "trial_type": "single-audio", "word": "donkey", "stimulus": "/static/audio/wordpool/DONKEY.wav", "conditions": [18, 1200, "a", 18000], "internal_node_id": "0.0-18.0", "trial": 0, "time_elapsed": 231006, "serialpos": 6, "key_press": -1, "wordID": 483, "type": "PRES_AUD", "trial_index": 27}, "uniqueid": "MTK2075:3BXQMRHWK05HZ44ZWA0MJZFPPZSMUN", "dateTime": 1516683282883}, {"current_trial": 28, "trialdata": {"rt": -1000, "trial_type": "single-audio", "word": "swamp", "stimulus": "/static/audio/wordpool/SWAMP.wav", "conditions": [18, 1200, "a", 18000], "internal_node_id": "0.0-19.0", "trial": 0, "time_elapsed": 233288, "serialpos": 7, "key_press": -1, "wordID": 1415, "type": "PRES_AUD", "trial_index": 28}, "uniqueid": "MTK2075:3BXQMRHWK05HZ44ZWA0MJZFPPZSMUN", "dateTime": 1516683285165}, {"current_trial": 29, "trialdata": {"rt": -1000, "trial_type": "single-audio", "word": "zebra", "stimulus": "/static/audio/wordpool/ZEBRA.wav", "conditions": [18, 1200, "a", 18000], "internal_node_id": "0.0-20.0", "trial": 0, "time_elapsed": 235547, "serialpos": 8, "key_press": -1, "wordID": 1634, "type": "PRES_AUD", "trial_index": 29}, "uniqueid": "MTK2075:3BXQMRHWK05HZ44ZWA0MJZFPPZSMUN", "dateTime": 1516683287424}, {"current_trial": 30, "trialdata": {"rt": -1000, "trial_type": "single-audio", "word": "lagoon", "stimulus": "/static/audio/wordpool/LAGOON.wav", "conditions": [18, 1200, "a", 18000], "internal_node_id": "0.0-21.0", "trial": 0, "time_elapsed": 237709, "serialpos": 9, "key_press": -1, "wordID": 794, "type": "PRES_AUD", "trial_index": 30}, "uniqueid": "MTK2075:3BXQMRHWK05HZ44ZWA0MJZFPPZSMUN", "dateTime": 1516683289586}, {"current_trial": 31, "trialdata": {"rt": -1000, "trial_type": "single-audio", "word": "powder", "stimulus": "/static/audio/wordpool/POWDER.wav", "conditions": [18, 1200, "a", 18000], "internal_node_id": "0.0-22.0", "trial": 0, "time_elapsed": 239915, "serialpos": 10, "key_press": -1, "wordID": 1116, "type": "PRES_AUD", "trial_index": 31}, "uniqueid": "MTK2075:3BXQMRHWK05HZ44ZWA0MJZFPPZSMUN", "dateTime": 1516683291792}, {"current_trial": 32, "trialdata": {"rt": -1000, "trial_type": "single-audio", "word": "slide", "stimulus": "/static/audio/wordpool/SLIDE.wav", "conditions": [18, 1200, "a", 18000], "internal_node_id": "0.0-23.0", "trial": 0, "time_elapsed": 242195, "serialpos": 11, "key_press": -1, "wordID": 1325, "type": "PRES_AUD", "trial_index": 32}, "uniqueid": "MTK2075:3BXQMRHWK05HZ44ZWA0MJZFPPZSMUN", "dateTime": 1516683294072}, {"current_trial": 33, "trialdata": {"rt": -1000, "trial_type": "single-audio", "word": "diver", "stimulus": "/static/audio/wordpool/DIVER.wav", "conditions": [18, 1200, "a", 18000], "internal_node_id": "0.0-24.0", "trial": 0, "time_elapsed": 244516, "serialpos": 12, "key_press": -1, "wordID": 475, "type": "PRES_AUD", "trial_index": 33}, "uniqueid": "MTK2075:3BXQMRHWK05HZ44ZWA0MJZFPPZSMUN", "dateTime": 1516683296393}, {"current_trial": 34, "trialdata": {"rt": -1000, "trial_type": "single-audio", "word": "tunnel", "stimulus": "/static/audio/wordpool/TUNNEL.wav", "conditions": [18, 1200, "a", 18000], "internal_node_id": "0.0-25.0", "trial": 0, "time_elapsed": 246828, "serialpos": 13, "key_press": -1, "wordID": 1518, "type": "PRES_AUD", "trial_index": 34}, "uniqueid": "MTK2075:3BXQMRHWK05HZ44ZWA0MJZFPPZSMUN", "dateTime": 1516683298705}, {"current_trial": 35, "trialdata": {"rt": -1000, "trial_type": "single-audio", "word": "mattress", "stimulus": "/static/audio/wordpool/MATTRESS.wav", "conditions": [18, 1200, "a", 18000], "internal_node_id": "0.0-26.0", "trial": 0, "time_elapsed": 248970, "serialpos": 14, "key_press": -1, "wordID": 878, "type": "PRES_AUD", "trial_index": 35}, "uniqueid": "MTK2075:3BXQMRHWK05HZ44ZWA0MJZFPPZSMUN", "dateTime": 1516683300847}, {"current_trial": 36, "trialdata": {"rt": -1000, "trial_type": "single-audio", "word": "barley", "stimulus": "/static/audio/wordpool/BARLEY.wav", "conditions": [18, 1200, "a", 18000], "internal_node_id": "0.0-27.0", "trial": 0, "time_elapsed": 251321, "serialpos": 15, "key_press": -1, "wordID": 87, "type": "PRES_AUD", "trial_index": 36}, "uniqueid": "MTK2075:3BXQMRHWK05HZ44ZWA0MJZFPPZSMUN", "dateTime": 1516683303198}, {"current_trial": 37, "trialdata": {"rt": -1000, "trial_type": "single-audio", "word": "antler", "stimulus": "/static/audio/wordpool/ANTLER.wav", "conditions": [18, 1200, "a", 18000], "internal_node_id": "0.0-28.0", "trial": 0, "time_elapsed": 253585, "serialpos": 16, "key_press": -1, "wordID": 28, "type": "PRES_AUD", "trial_index": 37}, "uniqueid": "MTK2075:3BXQMRHWK05HZ44ZWA0MJZFPPZSMUN", "dateTime": 1516683305462}, {"current_trial": 38, "trialdata": {"rt": -1000, "trial_type": "single-audio", "word": "tart", "stimulus": "/static/audio/wordpool/TART.wav", "conditions": [18, 1200, "a", 18000], "internal_node_id": "0.0-29.0", "trial": 0, "time_elapsed": 255933, "serialpos": 17, "key_press": -1, "wordID": 1435, "type": "PRES_AUD", "trial_index": 38}, "uniqueid": "MTK2075:3BXQMRHWK05HZ44ZWA0MJZFPPZSMUN", "dateTime": 1516683307810}, {"current_trial": 39, "trialdata": {"rt": -1, "trial_type": "single-stim", "stimulus": "", "internal_node_id": "0.0-30.0-0.0", "time_elapsed": 257187, "key_press": -1, "type": "PRE_RECALL_DELAY", "trial_index": 39}, "uniqueid": "MTK2075:3BXQMRHWK05HZ44ZWA0MJZFPPZSMUN", "dateTime": 1516683309064}, {"current_trial": 40, "trialdata": {"rt": -1000, "trial_type": "single-audio", "stimulus": "/static/audio/400Hz.wav", "internal_node_id": "0.0-31.0", "time_elapsed": 257688, "key_press": -1, "type": "PRE_RECALL_ALERT", "trial_index": 40}, "uniqueid": "MTK2075:3BXQMRHWK05HZ44ZWA0MJZFPPZSMUN", "dateTime": 1516683309565}, {"current_trial": 41, "trialdata": {"rt": [2208, 4232, 5616, 6575, 7256, 8407, 9959, 11560, 14264, 15415, 22135, 31528, 32487, 40599, 49688], "recwords": ["sunset", "lagoon", "antler", "motel", "cod", "tarte", "diver", "swamp", "barley", "donkey", "tunnel", "sibling", "zebra", "brandy", "mattress"], "key_times": [1511, 1600, 1728, 1824, 2031, 2127, 2208, 2344, 2464, 2656, 2743, 2895, 3192, 4232, 4672, 4791, 5048, 5143, 5255, 5360, 5616, 6031, 6160, 6208, 6304, 6375, 6575, 6904, 6976, 7152, 7256, 7616, 7791, 7944, 8160, 8255, 8407, 9343, 9416, 9576, 9703, 9872, 9959, 10152, 10343, 10504, 10720, 11104, 11560, 12552, 12624, 12815, 12904, 12960, 13327, 13439, 13671, 13751, 13960, 14264, 14464, 14543, 14680, 14855, 14927, 15128, 15415, 21239, 21295, 21399, 21543, 21687, 21784, 22135, 30551, 30719, 30927, 31015, 31199, 31271, 31337, 31528, 31736, 31983, 32032, 32143, 32343, 32487, 39807, 39880, 40015, 40071, 40215, 40271, 40599, 48503, 48663, 48815, 48944, 49031, 49120, 49295, 49416, 49688], "trial_type": "free-recall", "conditions": [18, 1200, "a", 18000], "internal_node_id": "0.0-32.0-0.0", "key_presses": [83, 85, 78, 83, 69, 84, 32, 76, 65, 71, 79, 79, 78, 32, 65, 78, 84, 76, 69, 82, 13, 77, 79, 84, 69, 76, 13, 67, 79, 68, 13, 84, 65, 82, 84, 69, 13, 68, 73, 86, 69, 82, 13, 83, 87, 65, 77, 80, 13, 66, 65, 82, 69, 76, 8, 8, 76, 69, 89, 13, 68, 79, 78, 75, 69, 89, 13, 84, 85, 78, 78, 69, 76, 13, 83, 73, 66, 76, 73, 78, 71, 13, 90, 69, 66, 82, 65, 13, 66, 82, 65, 78, 68, 89, 13, 77, 65, 84, 84, 82, 69, 83, 83, 13], "trial": 0, "time_elapsed": 317690, "type": "FREE_RECALL", "trial_index": 41}, "uniqueid": "MTK2075:3BXQMRHWK05HZ44ZWA0MJZFPPZSMUN", "dateTime": 1516683369568}, {"current_trial": 42, "trialdata": {"rt": 1868, "trial_type": "text", "internal_node_id": "0.0-33.0", "time_elapsed": 321561, "key_press": 32, "type": "INSTRUCTIONS", "trial_index": 42}, "uniqueid": "MTK2075:3BXQMRHWK05HZ44ZWA0MJZFPPZSMUN", "dateTime": 1516683373438}, {"current_trial": 43, "trialdata": {"rt": [2213, 6373, 9517, 15005, 17133], "trial_type": "math-distractor", "key_times": [1805, 1862, 2213, 5997, 6149, 6373, 9213, 9325, 9517, 14774, 14885, 15005, 16821, 16910, 17133], "responses": ["12", "15", "13", "21", "18"], "num2": [6, 6, 6, 7, 8, 5], "num3": [3, 2, 2, 8, 3, 4], "conditions": [18, 1200, "a", 18000], "internal_node_id": "0.0-34.0", "key_presses": [97, 98, 13, 97, 101, 13, 97, 99, 13, 98, 97, 13, 97, 104, 13], "trial": 1, "time_elapsed": 341565, "type": "DISTRACTOR", "trial_index": 43, "num1": [3, 7, 5, 6, 7, 8]}, "uniqueid": "MTK2075:3BXQMRHWK05HZ44ZWA0MJZFPPZSMUN", "dateTime": 1516683393442}, {"current_trial": 44, "trialdata": {"rt": -1, "trial_type": "single-stim", "stimulus": "<p id=\"stim\">10</p>", "internal_node_id": "0.0-35.0-0.0", "time_elapsed": 344567, "key_press": -1, "trial_index": 44}, "uniqueid": "MTK2075:3BXQMRHWK05HZ44ZWA0MJZFPPZSMUN", "dateTime": 1516683396444}, {"current_trial": 45, "trialdata": {"rt": -1, "trial_type": "single-stim", "stimulus": "<p id=\"stim\">9</p>", "internal_node_id": "0.0-35.0-1.0", "time_elapsed": 345568, "key_press": -1, "trial_index": 45}, "uniqueid": "MTK2075:3BXQMRHWK05HZ44ZWA0MJZFPPZSMUN", "dateTime": 1516683397445}, {"current_trial": 46, "trialdata": {"rt": -1, "trial_type": "single-stim", "stimulus": "<p id=\"stim\">8</p>", "internal_node_id": "0.0-35.0-2.0", "time_elapsed": 346569, "key_press": -1, "trial_index": 46}, "uniqueid": "MTK2075:3BXQMRHWK05HZ44ZWA0MJZFPPZSMUN", "dateTime": 1516683398446}, {"current_trial": 47, "trialdata": {"rt": -1, "trial_type": "single-stim", "stimulus": "<p id=\"stim\">7</p>", "internal_node_id": "0.0-35.0-3.0", "time_elapsed": 347569, "key_press": -1, "trial_index": 47}, "uniqueid": "MTK2075:3BXQMRHWK05HZ44ZWA0MJZFPPZSMUN", "dateTime": 1516683399446}, {"current_trial": 48, "trialdata": {"rt": -1, "trial_type": "single-stim", "stimulus": "<p id=\"stim\">6</p>", "internal_node_id": "0.0-35.0-4.0", "time_elapsed": 348572, "key_press": -1, "trial_index": 48}, "uniqueid": "MTK2075:3BXQMRHWK05HZ44ZWA0MJZFPPZSMUN", "dateTime": 1516683400449}, {"current_trial": 49, "trialdata": {"rt": -1, "trial_type": "single-stim", "stimulus": "<p id=\"stim\">5</p>", "internal_node_id": "0.0-35.0-5.0", "time_elapsed": 349572, "key_press": -1, "trial_index": 49}, "uniqueid": "MTK2075:3BXQMRHWK05HZ44ZWA0MJZFPPZSMUN", "dateTime": 1516683401449}, {"current_trial": 50, "trialdata": {"rt": -1, "trial_type": "single-stim", "stimulus": "<p id=\"stim\">4</p>", "internal_node_id": "0.0-35.0-6.0", "time_elapsed": 350573, "key_press": -1, "trial_index": 50}, "uniqueid": "MTK2075:3BXQMRHWK05HZ44ZWA0MJZFPPZSMUN", "dateTime": 1516683402450}, {"current_trial": 51, "trialdata": {"rt": -1, "trial_type": "single-stim", "stimulus": "<p id=\"stim\">3</p>", "internal_node_id": "0.0-35.0-7.0", "time_elapsed": 351574, "key_press": -1, "trial_index": 51}, "uniqueid": "MTK2075:3BXQMRHWK05HZ44ZWA0MJZFPPZSMUN", "dateTime": 1516683403451}, {"current_trial": 52, "trialdata": {"rt": -1, "trial_type": "single-stim", "stimulus": "<p id=\"stim\">2</p>", "internal_node_id": "0.0-35.0-8.0", "time_elapsed": 352575, "key_press": -1, "trial_index": 52}, "uniqueid": "MTK2075:3BXQMRHWK05HZ44ZWA0MJZFPPZSMUN", "dateTime": 1516683404452}, {"current_trial": 53, "trialdata": {"rt": -1, "trial_type": "single-stim", "stimulus": "<p id=\"stim\">1</p>", "internal_node_id": "0.0-35.0-9.0", "time_elapsed": 353575, "key_press": -1, "trial_index": 53}, "uniqueid": "MTK2075:3BXQMRHWK05HZ44ZWA0MJZFPPZSMUN", "dateTime": 1516683405452}, {"current_trial": 54, "trialdata": {"rt": -1, "trial_type": "single-stim", "stimulus": "<p id=\"stim\">+</p>", "internal_node_id": "0.0-36.0-0.0", "time_elapsed": 355076, "key_press": -1, "type": "FIXATION", "trial_index": 54}, "uniqueid": "MTK2075:3BXQMRHWK05HZ44ZWA0MJZFPPZSMUN", "dateTime": 1516683406953}, {"current_trial": 55, "trialdata": {"rt": -1000, "trial_type": "single-audio", "word": "chest", "stimulus": "/static/audio/wordpool/CHEST.wav", "conditions": [18, 1200, "a", 18000], "internal_node_id": "0.0-37.0", "trial": 1, "time_elapsed": 357213, "serialpos": 0, "key_press": -1, "wordID": 294, "type": "PRES_AUD", "trial_index": 55}, "uniqueid": "MTK2075:3BXQMRHWK05HZ44ZWA0MJZFPPZSMUN", "dateTime": 1516683409090}, {"current_trial": 56, "trialdata": {"rt": -1000, "trial_type": "single-audio", "word": "lamp", "stimulus": "/static/audio/wordpool/LAMP.wav", "conditions": [18, 1200, "a", 18000], "internal_node_id": "0.0-38.0", "trial": 1, "time_elapsed": 359256, "serialpos": 1, "key_press": -1, "wordID": 797, "type": "PRES_AUD", "trial_index": 56}, "uniqueid": "MTK2075:3BXQMRHWK05HZ44ZWA0MJZFPPZSMUN", "dateTime": 1516683411133}, {"current_trial": 57, "trialdata": {"rt": -1000, "trial_type": "single-audio", "word": "concert", "stimulus": "/static/audio/wordpool/CONCERT.wav", "conditions": [18, 1200, "a", 18000], "internal_node_id": "0.0-39.0", "trial": 1, "time_elapsed": 361257, "serialpos": 2, "key_press": -1, "wordID": 359, "type": "PRES_AUD", "trial_index": 57}, "uniqueid": "MTK2075:3BXQMRHWK05HZ44ZWA0MJZFPPZSMUN", "dateTime": 1516683413134}, {"current_trial": 58, "trialdata": {"rt": -1000, "trial_type": "single-audio", "word": "tweezers", "stimulus": "/static/audio/wordpool/TWEEZERS.wav", "conditions": [18, 1200, "a", 18000], "internal_node_id": "0.0-40.0", "trial": 1, "time_elapsed": 363361, "serialpos": 3, "key_press": -1, "wordID": 1525, "type": "PRES_AUD", "trial_index": 58}, "uniqueid": "MTK2075:3BXQMRHWK05HZ44ZWA0MJZFPPZSMUN", "dateTime": 1516683415238}, {"current_trial": 59, "trialdata": {"rt": -1000, "trial_type": "single-audio", "word": "pilot", "stimulus": "/static/audio/wordpool/PILOT.wav", "conditions": [18, 1200, "a", 18000], "internal_node_id": "0.0-41.0", "trial": 1, "time_elapsed": 365406, "serialpos": 4, "key_press": -1, "wordID": 1069, "type": "PRES_AUD", "trial_index": 59}, "uniqueid": "MTK2075:3BXQMRHWK05HZ44ZWA0MJZFPPZSMUN", "dateTime": 1516683417283}, {"current_trial": 60, "trialdata": {"rt": -1000, "trial_type": "single-audio", "word": "student", "stimulus": "/static/audio/wordpool/STUDENT.wav", "conditions": [18, 1200, "a", 18000], "internal_node_id": "0.0-42.0", "trial": 1, "time_elapsed": 367473, "serialpos": 5, "key_press": -1, "wordID": 1394, "type": "PRES_AUD", "trial_index": 60}, "uniqueid": "MTK2075:3BXQMRHWK05HZ44ZWA0MJZFPPZSMUN", "dateTime": 1516683419350}, {"current_trial": 61, "trialdata": {"rt": -1000, "trial_type": "single-audio", "word": "milk", "stimulus": "/static/audio/wordpool/MILK.wav", "conditions": [18, 1200, "a", 18000], "internal_node_id": "0.0-43.0", "trial": 1, "time_elapsed": 369508, "serialpos": 6, "key_press": -1, "wordID": 894, "type": "PRES_AUD", "trial_index": 61}, "uniqueid": "MTK2075:3BXQMRHWK05HZ44ZWA0MJZFPPZSMUN", "dateTime": 1516683421385}, {"current_trial": 62, "trialdata": {"rt": -1000, "trial_type": "single-audio", "word": "jungle", "stimulus": "/static/audio/wordpool/JUNGLE.wav", "conditions": [18, 1200, "a", 18000], "internal_node_id": "0.0-44.0", "trial": 1, "time_elapsed": 371852, "serialpos": 7, "key_press": -1, "wordID": 763, "type": "PRES_AUD", "trial_index": 62}, "uniqueid": "MTK2075:3BXQMRHWK05HZ44ZWA0MJZFPPZSMUN", "dateTime": 1516683423729}, {"current_trial": 63, "trialdata": {"rt": -1000, "trial_type": "single-audio", "word": "ointment", "stimulus": "/static/audio/wordpool/OINTMENT.wav", "conditions": [18, 1200, "a", 18000], "internal_node_id": "0.0-45.0", "trial": 1, "time_elapsed": 374211, "serialpos": 8, "key_press": -1, "wordID": 973, "type": "PRES_AUD", "trial_index": 63}, "uniqueid": "MTK2075:3BXQMRHWK05HZ44ZWA0MJZFPPZSMUN", "dateTime": 1516683426088}, {"current_trial": 64, "trialdata": {"rt": -1000, "trial_type": "single-audio", "word": "pebble", "stimulus": "/static/audio/wordpool/PEBBLE.wav", "conditions": [18, 1200, "a", 18000], "internal_node_id": "0.0-46.0", "trial": 1, "time_elapsed": 376377, "serialpos": 9, "key_press": -1, "wordID": 1034, "type": "PRES_AUD", "trial_index": 64}, "uniqueid": "MTK2075:3BXQMRHWK05HZ44ZWA0MJZFPPZSMUN", "dateTime": 1516683428254}, {"current_trial": 65, "trialdata": {"rt": -1000, "trial_type": "single-audio", "word": "scalpel", "stimulus": "/static/audio/wordpool/SCALPEL.wav", "conditions": [18, 1200, "a", 18000], "internal_node_id": "0.0-47.0", "trial": 1, "time_elapsed": 378472, "serialpos": 10, "key_press": -1, "wordID": 1242, "type": "PRES_AUD", "trial_index": 65}, "uniqueid": "MTK2075:3BXQMRHWK05HZ44ZWA0MJZFPPZSMUN", "dateTime": 1516683430349}, {"current_trial": 66, "trialdata": {"rt": -1000, "trial_type": "single-audio", "word": "jello", "stimulus": "/static/audio/wordpool/JELLO.wav", "conditions": [18, 1200, "a", 18000], "internal_node_id": "0.0-48.0", "trial": 1, "time_elapsed": 380474, "serialpos": 11, "key_press": -1, "wordID": 753, "type": "PRES_AUD", "trial_index": 66}, "uniqueid": "MTK2075:3BXQMRHWK05HZ44ZWA0MJZFPPZSMUN", "dateTime": 1516683432351}, {"current_trial": 67, "trialdata": {"rt": -1000, "trial_type": "single-audio", "word": "briefcase", "stimulus": "/static/audio/wordpool/BRIEFCASE.wav", "conditions": [18, 1200, "a", 18000], "internal_node_id": "0.0-49.0", "trial": 1, "time_elapsed": 382855, "serialpos": 12, "key_press": -1, "wordID": 174, "type": "PRES_AUD", "trial_index": 67}, "uniqueid": "MTK2075:3BXQMRHWK05HZ44ZWA0MJZFPPZSMUN", "dateTime": 1516683434732}, {"current_trial": 68, "trialdata": {"rt": -1000, "trial_type": "single-audio", "word": "guitar", "stimulus": "/static/audio/wordpool/GUITAR.wav", "conditions": [18, 1200, "a", 18000], "internal_node_id": "0.0-50.0", "trial": 1, "time_elapsed": 385024, "serialpos": 13, "key_press": -1, "wordID": 669, "type": "PRES_AUD", "trial_index": 68}, "uniqueid": "MTK2075:3BXQMRHWK05HZ44ZWA0MJZFPPZSMUN", "dateTime": 1516683436902}, {"current_trial": 69, "trialdata": {"rt": -1000, "trial_type": "single-audio", "word": "lunch", "stimulus": "/static/audio/wordpool/LUNCH.wav", "conditions": [18, 1200, "a", 18000], "internal_node_id": "0.0-51.0", "trial": 1, "time_elapsed": 387250, "serialpos": 14, "key_press": -1, "wordID": 848, "type": "PRES_AUD", "trial_index": 69}, "uniqueid": "MTK2075:3BXQMRHWK05HZ44ZWA0MJZFPPZSMUN", "dateTime": 1516683439127}, {"current_trial": 70, "trialdata": {"rt": -1000, "trial_type": "single-audio", "word": "human", "stimulus": "/static/audio/wordpool/HUMAN.wav", "conditions": [18, 1200, "a", 18000], "internal_node_id": "0.0-52.0", "trial": 1, "time_elapsed": 389513, "serialpos": 15, "key_press": -1, "wordID": 725, "type": "PRES_AUD", "trial_index": 70}, "uniqueid": "MTK2075:3BXQMRHWK05HZ44ZWA0MJZFPPZSMUN", "dateTime": 1516683441390}, {"current_trial": 71, "trialdata": {"rt": -1000, "trial_type": "single-audio", "word": "plaster", "stimulus": "/static/audio/wordpool/PLASTER.wav", "conditions": [18, 1200, "a", 18000], "internal_node_id": "0.0-53.0", "trial": 1, "time_elapsed": 391557, "serialpos": 16, "key_press": -1, "wordID": 1084, "type": "PRES_AUD", "trial_index": 71}, "uniqueid": "MTK2075:3BXQMRHWK05HZ44ZWA0MJZFPPZSMUN", "dateTime": 1516683443434}, {"current_trial": 72, "trialdata": {"rt": -1000, "trial_type": "single-audio", "word": "football", "stimulus": "/static/audio/wordpool/FOOTBALL.wav", "conditions": [18, 1200, "a", 18000], "internal_node_id": "0.0-54.0", "trial": 1, "time_elapsed": 393617, "serialpos": 17, "key_press": -1, "wordID": 590, "type": "PRES_AUD", "trial_index": 72}, "uniqueid": "MTK2075:3BXQMRHWK05HZ44ZWA0MJZFPPZSMUN", "dateTime": 1516683445494}, {"current_trial": 73, "trialdata": {"rt": -1, "trial_type": "single-stim", "stimulus": "", "internal_node_id": "0.0-55.0-0.0", "time_elapsed": 394850, "key_press": -1, "type": "PRE_RECALL_DELAY", "trial_index": 73}, "uniqueid": "MTK2075:3BXQMRHWK05HZ44ZWA0MJZFPPZSMUN", "dateTime": 1516683446727}, {"current_trial": 74, "trialdata": {"rt": -1000, "trial_type": "single-audio", "stimulus": "/static/audio/400Hz.wav", "internal_node_id": "0.0-56.0", "time_elapsed": 395351, "key_press": -1, "type": "PRE_RECALL_ALERT", "trial_index": 74}, "uniqueid": "MTK2075:3BXQMRHWK05HZ44ZWA0MJZFPPZSMUN", "dateTime": 1516683447228}, {"current_trial": 75, "trialdata": {"rt": [1841, 3584, 4672, 7201, 8369, 9736, 12177, 15441, 24784, 47785], "recwords": ["football", "plaster", "human", "tweezers", "concert", "pilot", "football", "pebble", "ointment", "jello"], "key_times": [889, 968, 1096, 1200, 1288, 1464, 1513, 1617, 1841, 2185, 2689, 2896, 2968, 3016, 3097, 3289, 3401, 3497, 3584, 3896, 3985, 4217, 4337, 4401, 4672, 5297, 5561, 5680, 5817, 6256, 6561, 6633, 6849, 6905, 7088, 7201, 7425, 7513, 7656, 7713, 7825, 7960, 8137, 8369, 8777, 8944, 9040, 9209, 9376, 9736, 10048, 10120, 10264, 10384, 10496, 10665, 10872, 11417, 12177, 14688, 14785, 14984, 15096, 15176, 15321, 15441, 23864, 24064, 24193, 24256, 24409, 24512, 24568, 24680, 24784, 47098, 47289, 47344, 47489, 47649, 47785], "trial_type": "free-recall", "conditions": [18, 1200, "a", 18000], "internal_node_id": "0.0-57.0-0.0", "key_presses": [70, 79, 79, 84, 66, 65, 76, 76, 13, 219, 8, 80, 76, 65, 83, 84, 69, 82, 13, 72, 85, 77, 65, 78, 13, 84, 87, 69, 69, 69, 8, 90, 69, 82, 83, 13, 67, 79, 78, 67, 69, 82, 84, 13, 80, 73, 76, 79, 84, 13, 70, 79, 79, 84, 66, 65, 76, 76, 13, 80, 69, 66, 66, 76, 69, 13, 79, 73, 78, 84, 77, 69, 78, 84, 13, 74, 69, 76, 76, 79, 13], "trial": 1, "time_elapsed": 455353, "type": "FREE_RECALL", "trial_index": 75}, "uniqueid": "MTK2075:3BXQMRHWK05HZ44ZWA0MJZFPPZSMUN", "dateTime": 1516683507231}, {"current_trial": 76, "trialdata": {"rt": 1645, "trial_type": "text", "internal_node_id": "0.0-58.0", "time_elapsed": 459000, "key_press": 32, "type": "INSTRUCTIONS", "trial_index": 76}, "uniqueid": "MTK2075:3BXQMRHWK05HZ44ZWA0MJZFPPZSMUN", "dateTime": 1516683510877}, {"current_trial": 77, "trialdata": {"rt": [1983, 5880, 7920, 10167], "trial_type": "math-distractor", "key_times": [1719, 1784, 1983, 5639, 5743, 5880, 7664, 7807, 7920, 9839, 9935, 10167, 11968], "responses": ["15", "20", "11", "15"], "num2": [8, 4, 4, 8, 2], "num3": [5, 7, 2, 6, 3], "conditions": [12, 1600, "a", 12000], "internal_node_id": "0.0-59.0", "key_presses": [97, 101, 13, 98, 96, 13, 97, 97, 13, 97, 101, 13, 97], "trial": 2, "time_elapsed": 472002, "type": "DISTRACTOR", "trial_index": 77, "num1": [2, 9, 5, 1, 5]}, "uniqueid": "MTK2075:3BXQMRHWK05HZ44ZWA0MJZFPPZSMUN", "dateTime": 1516683523879}, {"current_trial": 78, "trialdata": {"rt": -1, "trial_type": "single-stim", "stimulus": "<p id=\"stim\">10</p>", "internal_node_id": "0.0-60.0-0.0", "time_elapsed": 475005, "key_press": -1, "trial_index": 78}, "uniqueid": "MTK2075:3BXQMRHWK05HZ44ZWA0MJZFPPZSMUN", "dateTime": 1516683526882}, {"current_trial": 79, "trialdata": {"rt": -1, "trial_type": "single-stim", "stimulus": "<p id=\"stim\">9</p>", "internal_node_id": "0.0-60.0-1.0", "time_elapsed": 476006, "key_press": -1, "trial_index": 79}, "uniqueid": "MTK2075:3BXQMRHWK05HZ44ZWA0MJZFPPZSMUN", "dateTime": 1516683527883}, {"current_trial": 80, "trialdata": {"rt": -1, "trial_type": "single-stim", "stimulus": "<p id=\"stim\">8</p>", "internal_node_id": "0.0-60.0-2.0", "time_elapsed": 477007, "key_press": -1, "trial_index": 80}, "uniqueid": "MTK2075:3BXQMRHWK05HZ44ZWA0MJZFPPZSMUN", "dateTime": 1516683528884}, {"current_trial": 81, "trialdata": {"rt": -1, "trial_type": "single-stim", "stimulus": "<p id=\"stim\">7</p>", "internal_node_id": "0.0-60.0-3.0", "time_elapsed": 478009, "key_press": -1, "trial_index": 81}, "uniqueid": "MTK2075:3BXQMRHWK05HZ44ZWA0MJZFPPZSMUN", "dateTime": 1516683529886}, {"current_trial": 82, "trialdata": {"rt": -1, "trial_type": "single-stim", "stimulus": "<p id=\"stim\">6</p>", "internal_node_id": "0.0-60.0-4.0", "time_elapsed": 479010, "key_press": -1, "trial_index": 82}, "uniqueid": "MTK2075:3BXQMRHWK05HZ44ZWA0MJZFPPZSMUN", "dateTime": 1516683530887}, {"current_trial": 83, "trialdata": {"rt": -1, "trial_type": "single-stim", "stimulus": "<p id=\"stim\">5</p>", "internal_node_id": "0.0-60.0-5.0", "time_elapsed": 480011, "key_press": -1, "trial_index": 83}, "uniqueid": "MTK2075:3BXQMRHWK05HZ44ZWA0MJZFPPZSMUN", "dateTime": 1516683531889}, {"current_trial": 84, "trialdata": {"rt": -1, "trial_type": "single-stim", "stimulus": "<p id=\"stim\">4</p>", "internal_node_id": "0.0-60.0-6.0", "time_elapsed": 481012, "key_press": -1, "trial_index": 84}, "uniqueid": "MTK2075:3BXQMRHWK05HZ44ZWA0MJZFPPZSMUN", "dateTime": 1516683532889}, {"current_trial": 85, "trialdata": {"rt": -1, "trial_type": "single-stim", "stimulus": "<p id=\"stim\">3</p>", "internal_node_id": "0.0-60.0-7.0", "time_elapsed": 482015, "key_press": -1, "trial_index": 85}, "uniqueid": "MTK2075:3BXQMRHWK05HZ44ZWA0MJZFPPZSMUN", "dateTime": 1516683533892}, {"current_trial": 86, "trialdata": {"rt": -1, "trial_type": "single-stim", "stimulus": "<p id=\"stim\">2</p>", "internal_node_id": "0.0-60.0-8.0", "time_elapsed": 483015, "key_press": -1, "trial_index": 86}, "uniqueid": "MTK2075:3BXQMRHWK05HZ44ZWA0MJZFPPZSMUN", "dateTime": 1516683534893}, {"current_trial": 87, "trialdata": {"rt": -1, "trial_type": "single-stim", "stimulus": "<p id=\"stim\">1</p>", "internal_node_id": "0.0-60.0-9.0", "time_elapsed": 484016, "key_press": -1, "trial_index": 87}, "uniqueid": "MTK2075:3BXQMRHWK05HZ44ZWA0MJZFPPZSMUN", "dateTime": 1516683535893}, {"current_trial": 88, "trialdata": {"rt": -1, "trial_type": "single-stim", "stimulus": "<p id=\"stim\">+</p>", "internal_node_id": "0.0-61.0-0.0", "time_elapsed": 485517, "key_press": -1, "type": "FIXATION", "trial_index": 88}, "uniqueid": "MTK2075:3BXQMRHWK05HZ44ZWA0MJZFPPZSMUN", "dateTime": 1516683537394}, {"current_trial": 89, "trialdata": {"rt": -1000, "trial_type": "single-audio", "word": "truck", "stimulus": "/static/audio/wordpool/TRUCK.wav", "conditions": [12, 1600, "a", 12000], "internal_node_id": "0.0-62.0", "trial": 2, "time_elapsed": 487949, "serialpos": 0, "key_press": -1, "wordID": 1511, "type": "PRES_AUD", "trial_index": 89}, "uniqueid": "MTK2075:3BXQMRHWK05HZ44ZWA0MJZFPPZSMUN", "dateTime": 1516683539827}, {"current_trial": 90, "trialdata": {"rt": -1000, "trial_type": "single-audio", "word": "smog", "stimulus": "/static/audio/wordpool/SMOG.wav", "conditions": [12, 1600, "a", 12000], "internal_node_id": "0.0-63.0", "trial": 2, "time_elapsed": 490523, "serialpos": 1, "key_press": -1, "wordID": 1329, "type": "PRES_AUD", "trial_index": 90}, "uniqueid": "MTK2075:3BXQMRHWK05HZ44ZWA0MJZFPPZSMUN", "dateTime": 1516683542400}, {"current_trial": 91, "trialdata": {"rt": -1000, "trial_type": "single-audio", "word": "child", "stimulus": "/static/audio/wordpool/CHILD.wav", "conditions": [12, 1600, "a", 12000], "internal_node_id": "0.0-64.0", "trial": 2, "time_elapsed": 493242, "serialpos": 2, "key_press": -1, "wordID": 298, "type": "PRES_AUD", "trial_index": 91}, "uniqueid": "MTK2075:3BXQMRHWK05HZ44ZWA0MJZFPPZSMUN", "dateTime": 1516683545119}, {"current_trial": 92, "trialdata": {"rt": -1000, "trial_type": "single-audio", "word": "daughter", "stimulus": "/static/audio/wordpool/DAUGHTER.wav", "conditions": [12, 1600, "a", 12000], "internal_node_id": "0.0-65.0", "trial": 2, "time_elapsed": 495943, "serialpos": 3, "key_press": -1, "wordID": 441, "type": "PRES_AUD", "trial_index": 92}, "uniqueid": "MTK2075:3BXQMRHWK05HZ44ZWA0MJZFPPZSMUN", "dateTime": 1516683547820}, {"current_trial": 93, "trialdata": {"rt": -1000, "trial_type": "single-audio", "word": "shelter", "stimulus": "/static/audio/wordpool/SHELTER.wav", "conditions": [12, 1600, "a", 12000], "internal_node_id": "0.0-66.0", "trial": 2, "time_elapsed": 498385, "serialpos": 4, "key_press": -1, "wordID": 1281, "type": "PRES_AUD", "trial_index": 93}, "uniqueid": "MTK2075:3BXQMRHWK05HZ44ZWA0MJZFPPZSMUN", "dateTime": 1516683550262}, {"current_trial": 94, "trialdata": {"rt": -1000, "trial_type": "single-audio", "word": "outdoors", "stimulus": "/static/audio/wordpool/OUTDOORS.wav", "conditions": [12, 1600, "a", 12000], "internal_node_id": "0.0-67.0", "trial": 2, "time_elapsed": 500928, "serialpos": 5, "key_press": -1, "wordID": 986, "type": "PRES_AUD", "trial_index": 94}, "uniqueid": "MTK2075:3BXQMRHWK05HZ44ZWA0MJZFPPZSMUN", "dateTime": 1516683552806}, {"current_trial": 95, "trialdata": {"rt": -1000, "trial_type": "single-audio", "word": "driver", "stimulus": "/static/audio/wordpool/DRIVER.wav", "conditions": [12, 1600, "a", 12000], "internal_node_id": "0.0-68.0", "trial": 2, "time_elapsed": 503399, "serialpos": 6, "key_press": -1, "wordID": 498, "type": "PRES_AUD", "trial_index": 95}, "uniqueid": "MTK2075:3BXQMRHWK05HZ44ZWA0MJZFPPZSMUN", "dateTime": 1516683555276}, {"current_trial": 96, "trialdata": {"rt": -1000, "trial_type": "single-audio", "word": "clothes", "stimulus": "/static/audio/wordpool/CLOTHES.wav", "conditions": [12, 1600, "a", 12000], "internal_node_id": "0.0-69.0", "trial": 2, "time_elapsed": 506094, "serialpos": 7, "key_press": -1, "wordID": 326, "type": "PRES_AUD", "trial_index": 96}, "uniqueid": "MTK2075:3BXQMRHWK05HZ44ZWA0MJZFPPZSMUN", "dateTime": 1516683557971}, {"current_trial": 97, "trialdata": {"rt": -1000, "trial_type": "single-audio", "word": "garbage", "stimulus": "/static/audio/wordpool/GARBAGE.wav", "conditions": [12, 1600, "a", 12000], "internal_node_id": "0.0-70.0", "trial": 2, "time_elapsed": 508824, "serialpos": 8, "key_press": -1, "wordID": 621, "type": "PRES_AUD", "trial_index": 97}, "uniqueid": "MTK2075:3BXQMRHWK05HZ44ZWA0MJZFPPZSMUN", "dateTime": 1516683560701}, {"current_trial": 98, "trialdata": {"rt": -1000, "trial_type": "single-audio", "word": "suitcase", "stimulus": "/static/audio/wordpool/SUITCASE.wav", "conditions": [12, 1600, "a", 12000], "internal_node_id": "0.0-71.0", "trial": 2, "time_elapsed": 511363, "serialpos": 9, "key_press": -1, "wordID": 1402, "type": "PRES_AUD", "trial_index": 98}, "uniqueid": "MTK2075:3BXQMRHWK05HZ44ZWA0MJZFPPZSMUN", "dateTime": 1516683563240}, {"current_trial": 99, "trialdata": {"rt": -1000, "trial_type": "single-audio", "word": "soda", "stimulus": "/static/audio/wordpool/SODA.wav", "conditions": [12, 1600, "a", 12000], "internal_node_id": "0.0-72.0", "trial": 2, "time_elapsed": 514130, "serialpos": 10, "key_press": -1, "wordID": 1340, "type": "PRES_AUD", "trial_index": 99}, "uniqueid": "MTK2075:3BXQMRHWK05HZ44ZWA0MJZFPPZSMUN", "dateTime": 1516683566007}, {"current_trial": 100, "trialdata": {"rt": -1000, "trial_type": "single-audio", "word": "drill", "stimulus": "/static/audio/wordpool/DRILL.wav", "conditions": [12, 1600, "a", 12000], "internal_node_id": "0.0-73.0", "trial": 2, "time_elapsed": 516672, "serialpos": 11, "key_press": -1, "wordID": 496, "type": "PRES_AUD", "trial_index": 100}, "uniqueid": "MTK2075:3BXQMRHWK05HZ44ZWA0MJZFPPZSMUN", "dateTime": 1516683568549}, {"current_trial": 101, "trialdata": {"rt": -1, "trial_type": "single-stim", "stimulus": "", "internal_node_id": "0.0-74.0-0.0", "time_elapsed": 518056, "key_press": -1, "type": "PRE_RECALL_DELAY", "trial_index": 101}, "uniqueid": "MTK2075:3BXQMRHWK05HZ44ZWA0MJZFPPZSMUN", "dateTime": 1516683569934}, {"current_trial": 102, "trialdata": {"rt": -1000, "trial_type": "single-audio", "stimulus": "/static/audio/400Hz.wav", "internal_node_id": "0.0-75.0", "time_elapsed": 518557, "key_press": -1, "type": "PRE_RECALL_ALERT", "trial_index": 102}, "uniqueid": "MTK2075:3BXQMRHWK05HZ44ZWA0MJZFPPZSMUN", "dateTime": 1516683570434}, {"current_trial": 103, "trialdata": {"rt": [1531, 2907, 5194, 7034, 8818, 11747, 16010, 18635, 27675, 32138], "recwords": ["drill", "suitcase", "garbage", "soda", "child", "daughter", "clothes", "suitcase", "driver", "smog"], "key_times": [706, 890, 940, 1090, 1210, 1531, 1826, 1922, 2066, 2130, 2330, 2459, 2539, 2747, 2907, 4506, 4554, 4683, 4738, 4858, 5011, 5098, 5194, 6051, 6139, 6498, 6907, 7034, 8187, 8315, 8418, 8602, 8699, 8818, 8978, 9074, 9298, 9427, 9578, 9850, 9978, 10082, 10636, 10749, 10810, 10939, 11114, 11202, 11747, 15034, 15147, 15291, 15387, 15490, 15619, 15722, 16010, 16442, 16506, 16659, 16731, 16971, 17107, 17187, 17419, 18635, 26907, 27074, 27203, 27306, 27466, 27562, 27675, 31618, 31738, 31851, 31955, 32138], "trial_type": "free-recall", "conditions": [12, 1600, "a", 12000], "internal_node_id": "0.0-76.0-0.0", "key_presses": [68, 82, 73, 76, 76, 13, 83, 85, 73, 84, 67, 65, 83, 69, 13, 71, 65, 82, 66, 65, 71, 69, 13, 83, 79, 68, 65, 13, 67, 72, 73, 76, 68, 13, 68, 65, 73, 71, 72, 8, 8, 8, 85, 71, 72, 84, 69, 82, 13, 67, 76, 79, 84, 72, 69, 83, 13, 83, 85, 73, 84, 67, 65, 83, 69, 13, 68, 82, 73, 86, 69, 82, 13, 83, 77, 79, 71, 13], "trial": 2, "time_elapsed": 578559, "type": "FREE_RECALL", "trial_index": 103}, "uniqueid": "MTK2075:3BXQMRHWK05HZ44ZWA0MJZFPPZSMUN", "dateTime": 1516683630437}, {"current_trial": 104, "trialdata": {"rt": 1704, "trial_type": "text", "internal_node_id": "0.0-77.0", "time_elapsed": 582265, "key_press": 32, "type": "INSTRUCTIONS", "trial_index": 104}, "uniqueid": "MTK2075:3BXQMRHWK05HZ44ZWA0MJZFPPZSMUN", "dateTime": 1516683634142}, {"current_trial": 105, "trialdata": {"rt": [2463, 5631, 7118, 11550, 16966, 21766], "trial_type": "math-distractor", "key_times": [2143, 2255, 2463, 5311, 5399, 5631, 6854, 6966, 7118, 11182, 11366, 11550, 16654, 16742, 16966, 21390, 21663, 21766, 23823, 23959], "responses": ["13", "15", "14", "17", "19", "18"], "num2": [3, 8, 2, 9, 8, 7, 6], "num3": [1, 4, 4, 6, 4, 5, 4], "conditions": [24, 800, "a", 24000], "internal_node_id": "0.0-78.0", "key_presses": [97, 99, 13, 97, 101, 13, 97, 100, 13, 97, 103, 13, 97, 105, 13, 97, 104, 13, 97, 97], "trial": 3, "time_elapsed": 608267, "type": "DISTRACTOR", "trial_index": 105, "num1": [9, 3, 8, 2, 7, 6, 1]}, "uniqueid": "MTK2075:3BXQMRHWK05HZ44ZWA0MJZFPPZSMUN", "dateTime": 1516683660144}, {"current_trial": 106, "trialdata": {"rt": -1, "trial_type": "single-stim", "stimulus": "<p id=\"stim\">10</p>", "internal_node_id": "0.0-79.0-0.0", "time_elapsed": 611268, "key_press": -1, "trial_index": 106}, "uniqueid": "MTK2075:3BXQMRHWK05HZ44ZWA0MJZFPPZSMUN", "dateTime": 1516683663145}, {"current_trial": 107, "trialdata": {"rt": -1, "trial_type": "single-stim", "stimulus": "<p id=\"stim\">9</p>", "internal_node_id": "0.0-79.0-1.0", "time_elapsed": 612269, "key_press": -1, "trial_index": 107}, "uniqueid": "MTK2075:3BXQMRHWK05HZ44ZWA0MJZFPPZSMUN", "dateTime": 1516683664146}, {"current_trial": 108, "trialdata": {"rt": -1, "trial_type": "single-stim", "stimulus": "<p id=\"stim\">8</p>", "internal_node_id": "0.0-79.0-2.0", "time_elapsed": 613269, "key_press": -1, "trial_index": 108}, "uniqueid": "MTK2075:3BXQMRHWK05HZ44ZWA0MJZFPPZSMUN", "dateTime": 1516683665146}, {"current_trial": 109, "trialdata": {"rt": -1, "trial_type": "single-stim", "stimulus": "<p id=\"stim\">7</p>", "internal_node_id": "0.0-79.0-3.0", "time_elapsed": 614271, "key_press": -1, "trial_index": 109}, "uniqueid": "MTK2075:3BXQMRHWK05HZ44ZWA0MJZFPPZSMUN", "dateTime": 1516683666148}, {"current_trial": 110, "trialdata": {"rt": -1, "trial_type": "single-stim", "stimulus": "<p id=\"stim\">6</p>", "internal_node_id": "0.0-79.0-4.0", "time_elapsed": 615272, "key_press": -1, "trial_index": 110}, "uniqueid": "MTK2075:3BXQMRHWK05HZ44ZWA0MJZFPPZSMUN", "dateTime": 1516683667149}, {"current_trial": 111, "trialdata": {"rt": -1, "trial_type": "single-stim", "stimulus": "<p id=\"stim\">5</p>", "internal_node_id": "0.0-79.0-5.0", "time_elapsed": 616273, "key_press": -1, "trial_index": 111}, "uniqueid": "MTK2075:3BXQMRHWK05HZ44ZWA0MJZFPPZSMUN", "dateTime": 1516683668150}, {"current_trial": 112, "trialdata": {"rt": -1, "trial_type": "single-stim", "stimulus": "<p id=\"stim\">4</p>", "internal_node_id": "0.0-79.0-6.0", "time_elapsed": 617274, "key_press": -1, "trial_index": 112}, "uniqueid": "MTK2075:3BXQMRHWK05HZ44ZWA0MJZFPPZSMUN", "dateTime": 1516683669151}, {"current_trial": 113, "trialdata": {"rt": -1, "trial_type": "single-stim", "stimulus": "<p id=\"stim\">3</p>", "internal_node_id": "0.0-79.0-7.0", "time_elapsed": 618275, "key_press": -1, "trial_index": 113}, "uniqueid": "MTK2075:3BXQMRHWK05HZ44ZWA0MJZFPPZSMUN", "dateTime": 1516683670152}, {"current_trial": 114, "trialdata": {"rt": -1, "trial_type": "single-stim", "stimulus": "<p id=\"stim\">2</p>", "internal_node_id": "0.0-79.0-8.0", "time_elapsed": 619276, "key_press": -1, "trial_index": 114}, "uniqueid": "MTK2075:3BXQMRHWK05HZ44ZWA0MJZFPPZSMUN", "dateTime": 1516683671153}, {"current_trial": 115, "trialdata": {"rt": -1, "trial_type": "single-stim", "stimulus": "<p id=\"stim\">1</p>", "internal_node_id": "0.0-79.0-9.0", "time_elapsed": 620277, "key_press": -1, "trial_index": 115}, "uniqueid": "MTK2075:3BXQMRHWK05HZ44ZWA0MJZFPPZSMUN", "dateTime": 1516683672154}, {"current_trial": 116, "trialdata": {"rt": -1, "trial_type": "single-stim", "stimulus": "<p id=\"stim\">+</p>", "internal_node_id": "0.0-80.0-0.0", "time_elapsed": 621778, "key_press": -1, "type": "FIXATION", "trial_index": 116}, "uniqueid": "MTK2075:3BXQMRHWK05HZ44ZWA0MJZFPPZSMUN", "dateTime": 1516683673655}, {"current_trial": 117, "trialdata": {"rt": -1000, "trial_type": "single-audio", "word": "badge", "stimulus": "/static/audio/wordpool/BADGE.wav", "conditions": [24, 800, "a", 24000], "internal_node_id": "0.0-81.0", "trial": 3, "time_elapsed": 623447, "serialpos": 0, "key_press": -1, "wordID": 67, "type": "PRES_AUD", "trial_index": 117}, "uniqueid": "MTK2075:3BXQMRHWK05HZ44ZWA0MJZFPPZSMUN", "dateTime": 1516683675324}, {"current_trial": 118, "trialdata": {"rt": -1000, "trial_type": "single-audio", "word": "spool", "stimulus": "/static/audio/wordpool/SPOOL.wav", "conditions": [24, 800, "a", 24000], "internal_node_id": "0.0-82.0", "trial": 3, "time_elapsed": 625157, "serialpos": 1, "key_press": -1, "wordID": 1355, "type": "PRES_AUD", "trial_index": 118}, "uniqueid": "MTK2075:3BXQMRHWK05HZ44ZWA0MJZFPPZSMUN", "dateTime": 1516683677034}, {"current_trial": 119, "trialdata": {"rt": -1000, "trial_type": "single-audio", "word": "expert", "stimulus": "/static/audio/wordpool/EXPERT.wav", "conditions": [24, 800, "a", 24000], "internal_node_id": "0.0-83.0", "trial": 3, "time_elapsed": 626834, "serialpos": 2, "key_press": -1, "wordID": 542, "type": "PRES_AUD", "trial_index": 119}, "uniqueid": "MTK2075:3BXQMRHWK05HZ44ZWA0MJZFPPZSMUN", "dateTime": 1516683678711}, {"current_trial": 120, "trialdata": {"rt": -1000, "trial_type": "single-audio", "word": "agent", "stimulus": "/static/audio/wordpool/AGENT.wav", "conditions": [24, 800, "a", 24000], "internal_node_id": "0.0-84.0", "trial": 3, "time_elapsed": 628486, "serialpos": 3, "key_press": -1, "wordID": 9, "type": "PRES_AUD", "trial_index": 120}, "uniqueid": "MTK2075:3BXQMRHWK05HZ44ZWA0MJZFPPZSMUN", "dateTime": 1516683680363}, {"current_trial": 121, "trialdata": {"rt": -1000, "trial_type": "single-audio", "word": "sticker", "stimulus": "/static/audio/wordpool/STICKER.wav", "conditions": [24, 800, "a", 24000], "internal_node_id": "0.0-85.0", "trial": 3, "time_elapsed": 630195, "serialpos": 4, "key_press": -1, "wordID": 1381, "type": "PRES_AUD", "trial_index": 121}, "uniqueid": "MTK2075:3BXQMRHWK05HZ44ZWA0MJZFPPZSMUN", "dateTime": 1516683682072}, {"current_trial": 122, "trialdata": {"rt": -1000, "trial_type": "single-audio", "word": "trench", "stimulus": "/static/audio/wordpool/TRENCH.wav", "conditions": [24, 800, "a", 24000], "internal_node_id": "0.0-86.0", "trial": 3, "time_elapsed": 632023, "serialpos": 5, "key_press": -1, "wordID": 1502, "type": "PRES_AUD", "trial_index": 122}, "uniqueid": "MTK2075:3BXQMRHWK05HZ44ZWA0MJZFPPZSMUN", "dateTime": 1516683683900}, {"current_trial": 123, "trialdata": {"rt": -1000, "trial_type": "single-audio", "word": "lava", "stimulus": "/static/audio/wordpool/LAVA.wav", "conditions": [24, 800, "a", 24000], "internal_node_id": "0.0-87.0", "trial": 3, "time_elapsed": 633916, "serialpos": 6, "key_press": -1, "wordID": 803, "type": "PRES_AUD", "trial_index": 123}, "uniqueid": "MTK2075:3BXQMRHWK05HZ44ZWA0MJZFPPZSMUN", "dateTime": 1516683685793}, {"current_trial": 124, "trialdata": {"rt": -1000, "trial_type": "single-audio", "word": "crater", "stimulus": "/static/audio/wordpool/CRATER.wav", "conditions": [24, 800, "a", 24000], "internal_node_id": "0.0-88.0", "trial": 3, "time_elapsed": 635678, "serialpos": 7, "key_press": -1, "wordID": 399, "type": "PRES_AUD", "trial_index": 124}, "uniqueid": "MTK2075:3BXQMRHWK05HZ44ZWA0MJZFPPZSMUN", "dateTime": 1516683687555}, {"current_trial": 125, "trialdata": {"rt": -1000, "trial_type": "single-audio", "word": "dustpan", "stimulus": "/static/audio/wordpool/DUSTPAN.wav", "conditions": [24, 800, "a", 24000], "internal_node_id": "0.0-89.0", "trial": 3, "time_elapsed": 637512, "serialpos": 8, "key_press": -1, "wordID": 508, "type": "PRES_AUD", "trial_index": 125}, "uniqueid": "MTK2075:3BXQMRHWK05HZ44ZWA0MJZFPPZSMUN", "dateTime": 1516683689389}, {"current_trial": 126, "trialdata": {"rt": -1000, "trial_type": "single-audio", "word": "virus", "stimulus": "/static/audio/wordpool/VIRUS.wav", "conditions": [24, 800, "a", 24000], "internal_node_id": "0.0-90.0", "trial": 3, "time_elapsed": 639467, "serialpos": 9, "key_press": -1, "wordID": 1571, "type": "PRES_AUD", "trial_index": 126}, "uniqueid": "MTK2075:3BXQMRHWK05HZ44ZWA0MJZFPPZSMUN", "dateTime": 1516683691344}, {"current_trial": 127, "trialdata": {"rt": -1000, "trial_type": "single-audio", "word": "beaver", "stimulus": "/static/audio/wordpool/BEAVER.wav", "conditions": [24, 800, "a", 24000], "internal_node_id": "0.0-91.0", "trial": 3, "time_elapsed": 641098, "serialpos": 10, "key_press": -1, "wordID": 108, "type": "PRES_AUD", "trial_index": 127}, "uniqueid": "MTK2075:3BXQMRHWK05HZ44ZWA0MJZFPPZSMUN", "dateTime": 1516683692975}, {"current_trial": 128, "trialdata": {"rt": -1000, "trial_type": "single-audio", "word": "costume", "stimulus": "/static/audio/wordpool/COSTUME.wav", "conditions": [24, 800, "a", 24000], "internal_node_id": "0.0-92.0", "trial": 3, "time_elapsed": 642896, "serialpos": 11, "key_press": -1, "wordID": 382, "type": "PRES_AUD", "trial_index": 128}, "uniqueid": "MTK2075:3BXQMRHWK05HZ44ZWA0MJZFPPZSMUN", "dateTime": 1516683694773}, {"current_trial": 129, "trialdata": {"rt": -1000, "trial_type": "single-audio", "word": "spoon", "stimulus": "/static/audio/wordpool/SPOON.wav", "conditions": [24, 800, "a", 24000], "internal_node_id": "0.0-93.0", "trial": 3, "time_elapsed": 644851, "serialpos": 12, "key_press": -1, "wordID": 1356, "type": "PRES_AUD", "trial_index": 129}, "uniqueid": "MTK2075:3BXQMRHWK05HZ44ZWA0MJZFPPZSMUN", "dateTime": 1516683696728}, {"current_trial": 130, "trialdata": {"rt": -1000, "trial_type": "single-audio", "word": "lizard", "stimulus": "/static/audio/wordpool/LIZARD.wav", "conditions": [24, 800, "a", 24000], "internal_node_id": "0.0-94.0", "trial": 3, "time_elapsed": 646839, "serialpos": 13, "key_press": -1, "wordID": 833, "type": "PRES_AUD", "trial_index": 130}, "uniqueid": "MTK2075:3BXQMRHWK05HZ44ZWA0MJZFPPZSMUN", "dateTime": 1516683698716}, {"current_trial": 131, "trialdata": {"rt": -1000, "trial_type": "single-audio", "word": "climber", "stimulus": "/static/audio/wordpool/CLIMBER.wav", "conditions": [24, 800, "a", 24000], "internal_node_id": "0.0-95.0", "trial": 3, "time_elapsed": 648656, "serialpos": 14, "key_press": -1, "wordID": 322, "type": "PRES_AUD", "trial_index": 131}, "uniqueid": "MTK2075:3BXQMRHWK05HZ44ZWA0MJZFPPZSMUN", "dateTime": 1516683700533}, {"current_trial": 132, "trialdata": {"rt": -1000, "trial_type": "single-audio", "word": "buggy", "stimulus": "/static/audio/wordpool/BUGGY.wav", "conditions": [24, 800, "a", 24000], "internal_node_id": "0.0-96.0", "trial": 3, "time_elapsed": 650507, "serialpos": 15, "key_press": -1, "wordID": 187, "type": "PRES_AUD", "trial_index": 132}, "uniqueid": "MTK2075:3BXQMRHWK05HZ44ZWA0MJZFPPZSMUN", "dateTime": 1516683702384}, {"current_trial": 133, "trialdata": {"rt": -1000, "trial_type": "single-audio", "word": "rooster", "stimulus": "/static/audio/wordpool/ROOSTER.wav", "conditions": [24, 800, "a", 24000], "internal_node_id": "0.0-97.0", "trial": 3, "time_elapsed": 652123, "serialpos": 16, "key_press": -1, "wordID": 1208, "type": "PRES_AUD", "trial_index": 133}, "uniqueid": "MTK2075:3BXQMRHWK05HZ44ZWA0MJZFPPZSMUN", "dateTime": 1516683704000}, {"current_trial": 134, "trialdata": {"rt": -1000, "trial_type": "single-audio", "word": "label", "stimulus": "/static/audio/wordpool/LABEL.wav", "conditions": [24, 800, "a", 24000], "internal_node_id": "0.0-98.0", "trial": 3, "time_elapsed": 653948, "serialpos": 17, "key_press": -1, "wordID": 789, "type": "PRES_AUD", "trial_index": 134}, "uniqueid": "MTK2075:3BXQMRHWK05HZ44ZWA0MJZFPPZSMUN", "dateTime": 1516683705825}, {"current_trial": 135, "trialdata": {"rt": -1000, "trial_type": "single-audio", "word": "marsh", "stimulus": "/static/audio/wordpool/MARSH.wav", "conditions": [24, 800, "a", 24000], "internal_node_id": "0.0-99.0", "trial": 3, "time_elapsed": 655712, "serialpos": 18, "key_press": -1, "wordID": 873, "type": "PRES_AUD", "trial_index": 135}, "uniqueid": "MTK2075:3BXQMRHWK05HZ44ZWA0MJZFPPZSMUN", "dateTime": 1516683707589}, {"current_trial": 136, "trialdata": {"rt": -1000, "trial_type": "single-audio", "word": "actress", "stimulus": "/static/audio/wordpool/ACTRESS.wav", "conditions": [24, 800, "a", 24000], "internal_node_id": "0.0-100.0", "trial": 3, "time_elapsed": 657596, "serialpos": 19, "key_press": -1, "wordID": 5, "type": "PRES_AUD", "trial_index": 136}, "uniqueid": "MTK2075:3BXQMRHWK05HZ44ZWA0MJZFPPZSMUN", "dateTime": 1516683709473}, {"current_trial": 137, "trialdata": {"rt": -1000, "trial_type": "single-audio", "word": "parrot", "stimulus": "/static/audio/wordpool/PARROT.wav", "conditions": [24, 800, "a", 24000], "internal_node_id": "0.0-101.0", "trial": 3, "time_elapsed": 659381, "serialpos": 20, "key_press": -1, "wordID": 1014, "type": "PRES_AUD", "trial_index": 137}, "uniqueid": "MTK2075:3BXQMRHWK05HZ44ZWA0MJZFPPZSMUN", "dateTime": 1516683711258}, {"current_trial": 138, "trialdata": {"rt": -1000, "trial_type": "single-audio", "word": "record", "stimulus": "/static/audio/wordpool/RECORD.wav", "conditions": [24, 800, "a", 24000], "internal_node_id": "0.0-102.0", "trial": 3, "time_elapsed": 661169, "serialpos": 21, "key_press": -1, "wordID": 1175, "type": "PRES_AUD", "trial_index": 138}, "uniqueid": "MTK2075:3BXQMRHWK05HZ44ZWA0MJZFPPZSMUN", "dateTime": 1516683713046}, {"current_trial": 139, "trialdata": {"rt": -1000, "trial_type": "single-audio", "word": "snack", "stimulus": "/static/audio/wordpool/SNACK.wav", "conditions": [24, 800, "a", 24000], "internal_node_id": "0.0-103.0", "trial": 3, "time_elapsed": 663050, "serialpos": 22, "key_press": -1, "wordID": 1330, "type": "PRES_AUD", "trial_index": 139}, "uniqueid": "MTK2075:3BXQMRHWK05HZ44ZWA0MJZFPPZSMUN", "dateTime": 1516683714927}, {"current_trial": 140, "trialdata": {"rt": -1000, "trial_type": "single-audio", "word": "candy", "stimulus": "/static/audio/wordpool/CANDY.wav", "conditions": [24, 800, "a", 24000], "internal_node_id": "0.0-104.0", "trial": 3, "time_elapsed": 664773, "serialpos": 23, "key_press": -1, "wordID": 229, "type": "PRES_AUD", "trial_index": 140}, "uniqueid": "MTK2075:3BXQMRHWK05HZ44ZWA0MJZFPPZSMUN", "dateTime": 1516683716650}, {"current_trial": 141, "trialdata": {"rt": -1, "trial_type": "single-stim", "stimulus": "", "internal_node_id": "0.0-105.0-0.0", "time_elapsed": 666099, "key_press": -1, "type": "PRE_RECALL_DELAY", "trial_index": 141}, "uniqueid": "MTK2075:3BXQMRHWK05HZ44ZWA0MJZFPPZSMUN", "dateTime": 1516683717976}, {"current_trial": 142, "trialdata": {"rt": -1000, "trial_type": "single-audio", "stimulus": "/static/audio/400Hz.wav", "internal_node_id": "0.0-106.0", "time_elapsed": 666601, "key_press": -1, "type": "PRE_RECALL_ALERT", "trial_index": 142}, "uniqueid": "MTK2075:3BXQMRHWK05HZ44ZWA0MJZFPPZSMUN", "dateTime": 1516683718478}, {"current_trial": 143, "trialdata": {"rt": [1046, 2111, 2982, 4894, 6399, 17255, 28863, 42966], "recwords": ["snack", "candy", "label", "marsh", "badge", "record", "buggy", "parrot"], "key_times": [359, 438, 551, 679, 702, 1046, 1286, 1414, 1503, 1638, 1734, 2111, 2382, 2422, 2582, 2695, 2750, 2982, 3319, 3519, 3670, 3879, 3879, 3926, 4247, 4382, 4518, 4894, 5446, 5518, 5775, 5991, 6079, 6399, 15991, 16086, 16303, 16374, 16511, 16887, 17255, 27846, 27998, 28167, 28278, 28358, 28863, 41727, 41814, 41974, 42120, 42214, 42350, 42966], "trial_type": "free-recall", "conditions": [24, 800, "a", 24000], "internal_node_id": "0.0-107.0-0.0", "key_presses": [83, 78, 65, 67, 75, 13, 67, 65, 78, 68, 89, 13, 76, 65, 66, 69, 76, 13, 77, 65, 82, 83, 68, 72, 8, 8, 72, 13, 66, 65, 68, 71, 69, 13, 82, 69, 67, 79, 82, 68, 13, 66, 85, 71, 71, 89, 13, 80, 65, 82, 82, 79, 84, 13], "trial": 3, "time_elapsed": 726603, "type": "FREE_RECALL", "trial_index": 143}, "uniqueid": "MTK2075:3BXQMRHWK05HZ44ZWA0MJZFPPZSMUN", "dateTime": 1516683778482}, {"current_trial": 144, "trialdata": {"rt": 1129, "trial_type": "text", "internal_node_id": "0.0-108.0", "time_elapsed": 729736, "key_press": 32, "type": "INSTRUCTIONS", "trial_index": 144}, "uniqueid": "MTK2075:3BXQMRHWK05HZ44ZWA0MJZFPPZSMUN", "dateTime": 1516683781614}, {"current_trial": 145, "trialdata": {"rt": [1863, 4030, 5334, 7030, 9334, 11534, 14006, 18447, 20414, 22294], "trial_type": "math-distractor", "key_times": [1630, 1863, 3735, 3798, 4030, 5102, 5334, 6742, 6894, 7030, 8998, 9110, 9334, 10822, 10950, 11534, 13711, 13799, 14006, 18174, 18310, 18447, 20086, 20286, 20414, 21966, 22046, 22294], "responses": ["6", "15", "5", "17", "12", "11", "16", "14", "10", "12"], "num2": [3, 2, 2, 8, 8, 3, 6, 5, 7, 1, 1], "num3": [2, 6, 1, 8, 3, 7, 8, 3, 1, 2, 6], "conditions": [24, 800, "a", 24000], "internal_node_id": "0.0-109.0", "key_presses": [102, 13, 97, 101, 13, 101, 13, 97, 103, 13, 97, 98, 13, 97, 97, 13, 97, 102, 13, 97, 100, 13, 97, 96, 13, 97, 98, 13], "trial": 4, "time_elapsed": 755738, "type": "DISTRACTOR", "trial_index": 145, "num1": [1, 7, 2, 1, 1, 1, 2, 6, 2, 9, 6]}, "uniqueid": "MTK2075:3BXQMRHWK05HZ44ZWA0MJZFPPZSMUN", "dateTime": 1516683807615}, {"current_trial": 146, "trialdata": {"rt": -1, "trial_type": "single-stim", "stimulus": "<p id=\"stim\">10</p>", "internal_node_id": "0.0-110.0-0.0", "time_elapsed": 758740, "key_press": -1, "trial_index": 146}, "uniqueid": "MTK2075:3BXQMRHWK05HZ44ZWA0MJZFPPZSMUN", "dateTime": 1516683810617}, {"current_trial": 147, "trialdata": {"rt": -1, "trial_type": "single-stim", "stimulus": "<p id=\"stim\">9</p>", "internal_node_id": "0.0-110.0-1.0", "time_elapsed": 759741, "key_press": -1, "trial_index": 147}, "uniqueid": "MTK2075:3BXQMRHWK05HZ44ZWA0MJZFPPZSMUN", "dateTime": 1516683811618}, {"current_trial": 148, "trialdata": {"rt": -1, "trial_type": "single-stim", "stimulus": "<p id=\"stim\">8</p>", "internal_node_id": "0.0-110.0-2.0", "time_elapsed": 760742, "key_press": -1, "trial_index": 148}, "uniqueid": "MTK2075:3BXQMRHWK05HZ44ZWA0MJZFPPZSMUN", "dateTime": 1516683812619}, {"current_trial": 149, "trialdata": {"rt": -1, "trial_type": "single-stim", "stimulus": "<p id=\"stim\">7</p>", "internal_node_id": "0.0-110.0-3.0", "time_elapsed": 761743, "key_press": -1, "trial_index": 149}, "uniqueid": "MTK2075:3BXQMRHWK05HZ44ZWA0MJZFPPZSMUN", "dateTime": 1516683813620}, {"current_trial": 150, "trialdata": {"rt": -1, "trial_type": "single-stim", "stimulus": "<p id=\"stim\">6</p>", "internal_node_id": "0.0-110.0-4.0", "time_elapsed": 762743, "key_press": -1, "trial_index": 150}, "uniqueid": "MTK2075:3BXQMRHWK05HZ44ZWA0MJZFPPZSMUN", "dateTime": 1516683814620}, {"current_trial": 151, "trialdata": {"rt": -1, "trial_type": "single-stim", "stimulus": "<p id=\"stim\">5</p>", "internal_node_id": "0.0-110.0-5.0", "time_elapsed": 763744, "key_press": -1, "trial_index": 151}, "uniqueid": "MTK2075:3BXQMRHWK05HZ44ZWA0MJZFPPZSMUN", "dateTime": 1516683815621}, {"current_trial": 152, "trialdata": {"rt": -1, "trial_type": "single-stim", "stimulus": "<p id=\"stim\">4</p>", "internal_node_id": "0.0-110.0-6.0", "time_elapsed": 764746, "key_press": -1, "trial_index": 152}, "uniqueid": "MTK2075:3BXQMRHWK05HZ44ZWA0MJZFPPZSMUN", "dateTime": 1516683816623}, {"current_trial": 153, "trialdata": {"rt": -1, "trial_type": "single-stim", "stimulus": "<p id=\"stim\">3</p>", "internal_node_id": "0.0-110.0-7.0", "time_elapsed": 765746, "key_press": -1, "trial_index": 153}, "uniqueid": "MTK2075:3BXQMRHWK05HZ44ZWA0MJZFPPZSMUN", "dateTime": 1516683817623}, {"current_trial": 154, "trialdata": {"rt": -1, "trial_type": "single-stim", "stimulus": "<p id=\"stim\">2</p>", "internal_node_id": "0.0-110.0-8.0", "time_elapsed": 766748, "key_press": -1, "trial_index": 154}, "uniqueid": "MTK2075:3BXQMRHWK05HZ44ZWA0MJZFPPZSMUN", "dateTime": 1516683818625}, {"current_trial": 155, "trialdata": {"rt": -1, "trial_type": "single-stim", "stimulus": "<p id=\"stim\">1</p>", "internal_node_id": "0.0-110.0-9.0", "time_elapsed": 767749, "key_press": -1, "trial_index": 155}, "uniqueid": "MTK2075:3BXQMRHWK05HZ44ZWA0MJZFPPZSMUN", "dateTime": 1516683819626}, {"current_trial": 156, "trialdata": {"rt": -1, "trial_type": "single-stim", "stimulus": "<p id=\"stim\">+</p>", "internal_node_id": "0.0-111.0-0.0", "time_elapsed": 769250, "key_press": -1, "type": "FIXATION", "trial_index": 156}, "uniqueid": "MTK2075:3BXQMRHWK05HZ44ZWA0MJZFPPZSMUN", "dateTime": 1516683821127}, {"current_trial": 157, "trialdata": {"rt": -1000, "trial_type": "single-audio", "word": "sculpture", "stimulus": "/static/audio/wordpool/SCULPTURE.wav", "conditions": [24, 800, "a", 24000], "internal_node_id": "0.0-112.0", "trial": 4, "time_elapsed": 770905, "serialpos": 0, "key_press": -1, "wordID": 1257, "type": "PRES_AUD", "trial_index": 157}, "uniqueid": "MTK2075:3BXQMRHWK05HZ44ZWA0MJZFPPZSMUN", "dateTime": 1516683822782}, {"current_trial": 158, "trialdata": {"rt": -1000, "trial_type": "single-audio", "word": "actor", "stimulus": "/static/audio/wordpool/ACTOR.wav", "conditions": [24, 800, "a", 24000], "internal_node_id": "0.0-113.0", "trial": 4, "time_elapsed": 772657, "serialpos": 1, "key_press": -1, "wordID": 4, "type": "PRES_AUD", "trial_index": 158}, "uniqueid": "MTK2075:3BXQMRHWK05HZ44ZWA0MJZFPPZSMUN", "dateTime": 1516683824534}, {"current_trial": 159, "trialdata": {"rt": -1000, "trial_type": "single-audio", "word": "scallop", "stimulus": "/static/audio/wordpool/SCALLOP.wav", "conditions": [24, 800, "a", 24000], "internal_node_id": "0.0-114.0", "trial": 4, "time_elapsed": 774330, "serialpos": 2, "key_press": -1, "wordID": 1241, "type": "PRES_AUD", "trial_index": 159}, "uniqueid": "MTK2075:3BXQMRHWK05HZ44ZWA0MJZFPPZSMUN", "dateTime": 1516683826207}, {"current_trial": 160, "trialdata": {"rt": -1000, "trial_type": "single-audio", "word": "shovel", "stimulus": "/static/audio/wordpool/SHOVEL.wav", "conditions": [24, 800, "a", 24000], "internal_node_id": "0.0-115.0", "trial": 4, "time_elapsed": 776050, "serialpos": 3, "key_press": -1, "wordID": 1294, "type": "PRES_AUD", "trial_index": 160}, "uniqueid": "MTK2075:3BXQMRHWK05HZ44ZWA0MJZFPPZSMUN", "dateTime": 1516683827927}, {"current_trial": 161, "trialdata": {"rt": -1000, "trial_type": "single-audio", "word": "skillet", "stimulus": "/static/audio/wordpool/SKILLET.wav", "conditions": [24, 800, "a", 24000], "internal_node_id": "0.0-116.0", "trial": 4, "time_elapsed": 777757, "serialpos": 4, "key_press": -1, "wordID": 1316, "type": "PRES_AUD", "trial_index": 161}, "uniqueid": "MTK2075:3BXQMRHWK05HZ44ZWA0MJZFPPZSMUN", "dateTime": 1516683829634}, {"current_trial": 162, "trialdata": {"rt": -1000, "trial_type": "single-audio", "word": "binder", "stimulus": "/static/audio/wordpool/BINDER.wav", "conditions": [24, 800, "a", 24000], "internal_node_id": "0.0-117.0", "trial": 4, "time_elapsed": 779453, "serialpos": 5, "key_press": -1, "wordID": 126, "type": "PRES_AUD", "trial_index": 162}, "uniqueid": "MTK2075:3BXQMRHWK05HZ44ZWA0MJZFPPZSMUN", "dateTime": 1516683831330}, {"current_trial": 163, "trialdata": {"rt": -1000, "trial_type": "single-audio", "word": "crayon", "stimulus": "/static/audio/wordpool/CRAYON.wav", "conditions": [24, 800, "a", 24000], "internal_node_id": "0.0-118.0", "trial": 4, "time_elapsed": 781359, "serialpos": 6, "key_press": -1, "wordID": 400, "type": "PRES_AUD", "trial_index": 163}, "uniqueid": "MTK2075:3BXQMRHWK05HZ44ZWA0MJZFPPZSMUN", "dateTime": 1516683833236}, {"current_trial": 164, "trialdata": {"rt": -1000, "trial_type": "single-audio", "word": "grill", "stimulus": "/static/audio/wordpool/GRILL.wav", "conditions": [24, 800, "a", 24000], "internal_node_id": "0.0-119.0", "trial": 4, "time_elapsed": 783341, "serialpos": 7, "key_press": -1, "wordID": 660, "type": "PRES_AUD", "trial_index": 164}, "uniqueid": "MTK2075:3BXQMRHWK05HZ44ZWA0MJZFPPZSMUN", "dateTime": 1516683835218}, {"current_trial": 165, "trialdata": {"rt": -1000, "trial_type": "single-audio", "word": "possum", "stimulus": "/static/audio/wordpool/POSSUM.wav", "conditions": [24, 800, "a", 24000], "internal_node_id": "0.0-120.0", "trial": 4, "time_elapsed": 785150, "serialpos": 8, "key_press": -1, "wordID": 1111, "type": "PRES_AUD", "trial_index": 165}, "uniqueid": "MTK2075:3BXQMRHWK05HZ44ZWA0MJZFPPZSMUN", "dateTime": 1516683837027}, {"current_trial": 166, "trialdata": {"rt": -1000, "trial_type": "single-audio", "word": "rabbit", "stimulus": "/static/audio/wordpool/RABBIT.wav", "conditions": [24, 800, "a", 24000], "internal_node_id": "0.0-121.0", "trial": 4, "time_elapsed": 786982, "serialpos": 9, "key_press": -1, "wordID": 1151, "type": "PRES_AUD", "trial_index": 166}, "uniqueid": "MTK2075:3BXQMRHWK05HZ44ZWA0MJZFPPZSMUN", "dateTime": 1516683838859}, {"current_trial": 167, "trialdata": {"rt": -1000, "trial_type": "single-audio", "word": "atlas", "stimulus": "/static/audio/wordpool/ATLAS.wav", "conditions": [24, 800, "a", 24000], "internal_node_id": "0.0-122.0", "trial": 4, "time_elapsed": 788924, "serialpos": 10, "key_press": -1, "wordID": 52, "type": "PRES_AUD", "trial_index": 167}, "uniqueid": "MTK2075:3BXQMRHWK05HZ44ZWA0MJZFPPZSMUN", "dateTime": 1516683840801}, {"current_trial": 168, "trialdata": {"rt": -1000, "trial_type": "single-audio", "word": "infant", "stimulus": "/static/audio/wordpool/INFANT.wav", "conditions": [24, 800, "a", 24000], "internal_node_id": "0.0-123.0", "trial": 4, "time_elapsed": 790804, "serialpos": 11, "key_press": -1, "wordID": 736, "type": "PRES_AUD", "trial_index": 168}, "uniqueid": "MTK2075:3BXQMRHWK05HZ44ZWA0MJZFPPZSMUN", "dateTime": 1516683842681}, {"current_trial": 169, "trialdata": {"rt": -1000, "trial_type": "single-audio", "word": "cafe", "stimulus": "/static/audio/wordpool/CAFE.wav", "conditions": [24, 800, "a", 24000], "internal_node_id": "0.0-124.0", "trial": 4, "time_elapsed": 792714, "serialpos": 12, "key_press": -1, "wordID": 215, "type": "PRES_AUD", "trial_index": 169}, "uniqueid": "MTK2075:3BXQMRHWK05HZ44ZWA0MJZFPPZSMUN", "dateTime": 1516683844591}, {"current_trial": 170, "trialdata": {"rt": -1000, "trial_type": "single-audio", "word": "sister", "stimulus": "/static/audio/wordpool/SISTER.wav", "conditions": [24, 800, "a", 24000], "internal_node_id": "0.0-125.0", "trial": 4, "time_elapsed": 794363, "serialpos": 13, "key_press": -1, "wordID": 1311, "type": "PRES_AUD", "trial_index": 170}, "uniqueid": "MTK2075:3BXQMRHWK05HZ44ZWA0MJZFPPZSMUN", "dateTime": 1516683846240}, {"current_trial": 171, "trialdata": {"rt": -1000, "trial_type": "single-audio", "word": "contract", "stimulus": "/static/audio/wordpool/CONTRACT.wav", "conditions": [24, 800, "a", 24000], "internal_node_id": "0.0-126.0", "trial": 4, "time_elapsed": 795981, "serialpos": 14, "key_press": -1, "wordID": 367, "type": "PRES_AUD", "trial_index": 171}, "uniqueid": "MTK2075:3BXQMRHWK05HZ44ZWA0MJZFPPZSMUN", "dateTime": 1516683847858}, {"current_trial": 172, "trialdata": {"rt": -1000, "trial_type": "single-audio", "word": "citrus", "stimulus": "/static/audio/wordpool/CITRUS.wav", "conditions": [24, 800, "a", 24000], "internal_node_id": "0.0-127.0", "trial": 4, "time_elapsed": 797651, "serialpos": 15, "key_press": -1, "wordID": 312, "type": "PRES_AUD", "trial_index": 172}, "uniqueid": "MTK2075:3BXQMRHWK05HZ44ZWA0MJZFPPZSMUN", "dateTime": 1516683849528}, {"current_trial": 173, "trialdata": {"rt": -1000, "trial_type": "single-audio", "word": "fruit", "stimulus": "/static/audio/wordpool/FRUIT.wav", "conditions": [24, 800, "a", 24000], "internal_node_id": "0.0-128.0", "trial": 4, "time_elapsed": 799649, "serialpos": 16, "key_press": -1, "wordID": 609, "type": "PRES_AUD", "trial_index": 173}, "uniqueid": "MTK2075:3BXQMRHWK05HZ44ZWA0MJZFPPZSMUN", "dateTime": 1516683851526}, {"current_trial": 174, "trialdata": {"rt": -1000, "trial_type": "single-audio", "word": "outlaw", "stimulus": "/static/audio/wordpool/OUTLAW.wav", "conditions": [24, 800, "a", 24000], "internal_node_id": "0.0-129.0", "trial": 4, "time_elapsed": 801541, "serialpos": 17, "key_press": -1, "wordID": 988, "type": "PRES_AUD", "trial_index": 174}, "uniqueid": "MTK2075:3BXQMRHWK05HZ44ZWA0MJZFPPZSMUN", "dateTime": 1516683853418}, {"current_trial": 175, "trialdata": {"rt": -1000, "trial_type": "single-audio", "word": "grape", "stimulus": "/static/audio/wordpool/GRAPE.wav", "conditions": [24, 800, "a", 24000], "internal_node_id": "0.0-130.0", "trial": 4, "time_elapsed": 803427, "serialpos": 18, "key_press": -1, "wordID": 653, "type": "PRES_AUD", "trial_index": 175}, "uniqueid": "MTK2075:3BXQMRHWK05HZ44ZWA0MJZFPPZSMUN", "dateTime": 1516683855304}, {"current_trial": 176, "trialdata": {"rt": -1000, "trial_type": "single-audio", "word": "garden", "stimulus": "/static/audio/wordpool/GARDEN.wav", "conditions": [24, 800, "a", 24000], "internal_node_id": "0.0-131.0", "trial": 4, "time_elapsed": 805340, "serialpos": 19, "key_press": -1, "wordID": 622, "type": "PRES_AUD", "trial_index": 176}, "uniqueid": "MTK2075:3BXQMRHWK05HZ44ZWA0MJZFPPZSMUN", "dateTime": 1516683857217}, {"current_trial": 177, "trialdata": {"rt": -1000, "trial_type": "single-audio", "word": "wife", "stimulus": "/static/audio/wordpool/WIFE.wav", "conditions": [24, 800, "a", 24000], "internal_node_id": "0.0-132.0", "trial": 4, "time_elapsed": 806958, "serialpos": 20, "key_press": -1, "wordID": 1608, "type": "PRES_AUD", "trial_index": 177}, "uniqueid": "MTK2075:3BXQMRHWK05HZ44ZWA0MJZFPPZSMUN", "dateTime": 1516683858835}, {"current_trial": 178, "trialdata": {"rt": -1000, "trial_type": "single-audio", "word": "cottage", "stimulus": "/static/audio/wordpool/COTTAGE.wav", "conditions": [24, 800, "a", 24000], "internal_node_id": "0.0-133.0", "trial": 4, "time_elapsed": 808956, "serialpos": 21, "key_press": -1, "wordID": 383, "type": "PRES_AUD", "trial_index": 178}, "uniqueid": "MTK2075:3BXQMRHWK05HZ44ZWA0MJZFPPZSMUN", "dateTime": 1516683860833}, {"current_trial": 179, "trialdata": {"rt": -1000, "trial_type": "single-audio", "word": "orchid", "stimulus": "/static/audio/wordpool/ORCHID.wav", "conditions": [24, 800, "a", 24000], "internal_node_id": "0.0-134.0", "trial": 4, "time_elapsed": 810923, "serialpos": 22, "key_press": -1, "wordID": 981, "type": "PRES_AUD", "trial_index": 179}, "uniqueid": "MTK2075:3BXQMRHWK05HZ44ZWA0MJZFPPZSMUN", "dateTime": 1516683862800}, {"current_trial": 180, "trialdata": {"rt": -1000, "trial_type": "single-audio", "word": "tribe", "stimulus": "/static/audio/wordpool/TRIBE.wav", "conditions": [24, 800, "a", 24000], "internal_node_id": "0.0-135.0", "trial": 4, "time_elapsed": 812531, "serialpos": 23, "key_press": -1, "wordID": 1504, "type": "PRES_AUD", "trial_index": 180}, "uniqueid": "MTK2075:3BXQMRHWK05HZ44ZWA0MJZFPPZSMUN", "dateTime": 1516683864408}, {"current_trial": 181, "trialdata": {"rt": -1, "trial_type": "single-stim", "stimulus": "", "internal_node_id": "0.0-136.0-0.0", "time_elapsed": 813808, "key_press": -1, "type": "PRE_RECALL_DELAY", "trial_index": 181}, "uniqueid": "MTK2075:3BXQMRHWK05HZ44ZWA0MJZFPPZSMUN", "dateTime": 1516683865685}, {"current_trial": 182, "trialdata": {"rt": -1000, "trial_type": "single-audio", "stimulus": "/static/audio/400Hz.wav", "internal_node_id": "0.0-137.0", "time_elapsed": 814309, "key_press": -1, "type": "PRE_RECALL_ALERT", "trial_index": 182}, "uniqueid": "MTK2075:3BXQMRHWK05HZ44ZWA0MJZFPPZSMUN", "dateTime": 1516683866186}, {"current_trial": 183, "trialdata": {"rt": [1307, 2363, 3867, 5475, 10155, 11500, 13707, 20404, 30012, 35611, 37212, 47747, 52515], "recwords": ["orchard", "tribe", "outlaw", "contract", "sculpture", "scallop", "actress", "tribe", "infant", "citrus", "grape", "grill", "shovel"], "key_times": [404, 491, 691, 771, 923, 1060, 1220, 1307, 1475, 1571, 1660, 1787, 2003, 2363, 3027, 3147, 3227, 3395, 3555, 3667, 3867, 4396, 4491, 4603, 4676, 4843, 5004, 5115, 5339, 5475, 6867, 7011, 7131, 7356, 7539, 8131, 8283, 8819, 9027, 9243, 9340, 9524, 9643, 10155, 10435, 10612, 10747, 10796, 10915, 11060, 11219, 11500, 12580, 12740, 12996, 13171, 13251, 13435, 13572, 13707, 15683, 15788, 15940, 16123, 16227, 16947, 17448, 17481, 17514, 17987, 18308, 18371, 18468, 18603, 18732, 20404, 29427, 29499, 29555, 29683, 29724, 29883, 30012, 34019, 34131, 34283, 34467, 34603, 34915, 35052, 35155, 35283, 35379, 35611, 36371, 36563, 36739, 36788, 36939, 37212, 46884, 46979, 47067, 47227, 47315, 47747, 51619, 51795, 51932, 51995, 52100, 52163, 52515], "trial_type": "free-recall", "conditions": [24, 800, "a", 24000], "internal_node_id": "0.0-138.0-0.0", "key_presses": [79, 82, 67, 72, 65, 82, 68, 13, 84, 82, 73, 66, 69, 13, 79, 85, 84, 76, 65, 87, 13, 67, 79, 78, 84, 82, 65, 67, 84, 13, 83, 67, 85, 76, 84, 8, 8, 76, 80, 84, 85, 82, 69, 13, 83, 67, 65, 76, 76, 79, 80, 13, 65, 67, 84, 82, 69, 83, 83, 13, 73, 78, 70, 65, 78, 8, 8, 8, 8, 8, 84, 82, 73, 66, 69, 13, 73, 78, 70, 65, 78, 84, 13, 67, 73, 84, 85, 82, 8, 8, 82, 85, 83, 13, 71, 82, 65, 80, 69, 13, 71, 82, 73, 76, 76, 13, 83, 72, 79, 86, 69, 76, 13], "trial": 4, "time_elapsed": 874310, "type": "FREE_RECALL", "trial_index": 183}, "uniqueid": "MTK2075:3BXQMRHWK05HZ44ZWA0MJZFPPZSMUN", "dateTime": 1516683926188}, {"current_trial": 184, "trialdata": {"rt": 1136, "trial_type": "text", "internal_node_id": "0.0-139.0", "time_elapsed": 877448, "key_press": 32, "type": "INSTRUCTIONS", "trial_index": 184}, "uniqueid": "MTK2075:3BXQMRHWK05HZ44ZWA0MJZFPPZSMUN", "dateTime": 1516683929325}, {"current_trial": 185, "trialdata": {"rt": [1550, 3287, 6991, 10295], "trial_type": "math-distractor", "key_times": [1358, 1470, 1550, 3087, 3198, 3287, 6662, 6894, 6991, 10046, 10214, 10295], "responses": ["17", "17", "15", "15"], "num2": [8, 1, 8, 4, 2], "num3": [8, 8, 7, 8, 6], "conditions": [24, 1600, "a", 12000], "internal_node_id": "0.0-140.0", "key_presses": [97, 103, 13, 97, 103, 13, 97, 101, 13, 97, 101, 13], "trial": 5, "time_elapsed": 891450, "type": "DISTRACTOR", "trial_index": 185, "num1": [1, 8, 4, 3, 2]}, "uniqueid": "MTK2075:3BXQMRHWK05HZ44ZWA0MJZFPPZSMUN", "dateTime": 1516683943328}, {"current_trial": 186, "trialdata": {"rt": -1, "trial_type": "single-stim", "stimulus": "<p id=\"stim\">10</p>", "internal_node_id": "0.0-141.0-0.0", "time_elapsed": 894454, "key_press": -1, "trial_index": 186}, "uniqueid": "MTK2075:3BXQMRHWK05HZ44ZWA0MJZFPPZSMUN", "dateTime": 1516683946331}, {"current_trial": 187, "trialdata": {"rt": -1, "trial_type": "single-stim", "stimulus": "<p id=\"stim\">9</p>", "internal_node_id": "0.0-141.0-1.0", "time_elapsed": 895455, "key_press": -1, "trial_index": 187}, "uniqueid": "MTK2075:3BXQMRHWK05HZ44ZWA0MJZFPPZSMUN", "dateTime": 1516683947332}, {"current_trial": 188, "trialdata": {"rt": -1, "trial_type": "single-stim", "stimulus": "<p id=\"stim\">8</p>", "internal_node_id": "0.0-141.0-2.0", "time_elapsed": 896455, "key_press": -1, "trial_index": 188}, "uniqueid": "MTK2075:3BXQMRHWK05HZ44ZWA0MJZFPPZSMUN", "dateTime": 1516683948332}, {"current_trial": 189, "trialdata": {"rt": -1, "trial_type": "single-stim", "stimulus": "<p id=\"stim\">7</p>", "internal_node_id": "0.0-141.0-3.0", "time_elapsed": 897456, "key_press": -1, "trial_index": 189}, "uniqueid": "MTK2075:3BXQMRHWK05HZ44ZWA0MJZFPPZSMUN", "dateTime": 1516683949333}, {"current_trial": 190, "trialdata": {"rt": -1, "trial_type": "single-stim", "stimulus": "<p id=\"stim\">6</p>", "internal_node_id": "0.0-141.0-4.0", "time_elapsed": 898457, "key_press": -1, "trial_index": 190}, "uniqueid": "MTK2075:3BXQMRHWK05HZ44ZWA0MJZFPPZSMUN", "dateTime": 1516683950334}, {"current_trial": 191, "trialdata": {"rt": -1, "trial_type": "single-stim", "stimulus": "<p id=\"stim\">5</p>", "internal_node_id": "0.0-141.0-5.0", "time_elapsed": 899458, "key_press": -1, "trial_index": 191}, "uniqueid": "MTK2075:3BXQMRHWK05HZ44ZWA0MJZFPPZSMUN", "dateTime": 1516683951335}, {"current_trial": 192, "trialdata": {"rt": -1, "trial_type": "single-stim", "stimulus": "<p id=\"stim\">4</p>", "internal_node_id": "0.0-141.0-6.0", "time_elapsed": 900459, "key_press": -1, "trial_index": 192}, "uniqueid": "MTK2075:3BXQMRHWK05HZ44ZWA0MJZFPPZSMUN", "dateTime": 1516683952336}, {"current_trial": 193, "trialdata": {"rt": -1, "trial_type": "single-stim", "stimulus": "<p id=\"stim\">3</p>", "internal_node_id": "0.0-141.0-7.0", "time_elapsed": 901460, "key_press": -1, "trial_index": 193}, "uniqueid": "MTK2075:3BXQMRHWK05HZ44ZWA0MJZFPPZSMUN", "dateTime": 1516683953337}, {"current_trial": 194, "trialdata": {"rt": -1, "trial_type": "single-stim", "stimulus": "<p id=\"stim\">2</p>", "internal_node_id": "0.0-141.0-8.0", "time_elapsed": 902460, "key_press": -1, "trial_index": 194}, "uniqueid": "MTK2075:3BXQMRHWK05HZ44ZWA0MJZFPPZSMUN", "dateTime": 1516683954337}, {"current_trial": 195, "trialdata": {"rt": -1, "trial_type": "single-stim", "stimulus": "<p id=\"stim\">1</p>", "internal_node_id": "0.0-141.0-9.0", "time_elapsed": 903461, "key_press": -1, "trial_index": 195}, "uniqueid": "MTK2075:3BXQMRHWK05HZ44ZWA0MJZFPPZSMUN", "dateTime": 1516683955338}, {"current_trial": 196, "trialdata": {"rt": -1, "trial_type": "single-stim", "stimulus": "<p id=\"stim\">+</p>", "internal_node_id": "0.0-142.0-0.0", "time_elapsed": 904962, "key_press": -1, "type": "FIXATION", "trial_index": 196}, "uniqueid": "MTK2075:3BXQMRHWK05HZ44ZWA0MJZFPPZSMUN", "dateTime": 1516683956839}, {"current_trial": 197, "trialdata": {"rt": -1000, "trial_type": "single-audio", "word": "widow", "stimulus": "/static/audio/wordpool/WIDOW.wav", "conditions": [24, 1600, "a", 12000], "internal_node_id": "0.0-143.0", "trial": 5, "time_elapsed": 907728, "serialpos": 0, "key_press": -1, "wordID": 1607, "type": "PRES_AUD", "trial_index": 197}, "uniqueid": "MTK2075:3BXQMRHWK05HZ44ZWA0MJZFPPZSMUN", "dateTime": 1516683959605}, {"current_trial": 198, "trialdata": {"rt": -1000, "trial_type": "single-audio", "word": "leg", "stimulus": "/static/audio/wordpool/LEG.wav", "conditions": [24, 1600, "a", 12000], "internal_node_id": "0.0-144.0", "trial": 5, "time_elapsed": 910283, "serialpos": 1, "key_press": -1, "wordID": 808, "type": "PRES_AUD", "trial_index": 198}, "uniqueid": "MTK2075:3BXQMRHWK05HZ44ZWA0MJZFPPZSMUN", "dateTime": 1516683962161}, {"current_trial": 199, "trialdata": {"rt": -1000, "trial_type": "single-audio", "word": "ketchup", "stimulus": "/static/audio/wordpool/KETCHUP.wav", "conditions": [24, 1600, "a", 12000], "internal_node_id": "0.0-145.0", "trial": 5, "time_elapsed": 913005, "serialpos": 2, "key_press": -1, "wordID": 770, "type": "PRES_AUD", "trial_index": 199}, "uniqueid": "MTK2075:3BXQMRHWK05HZ44ZWA0MJZFPPZSMUN", "dateTime": 1516683964882}, {"current_trial": 200, "trialdata": {"rt": -1000, "trial_type": "single-audio", "word": "film", "stimulus": "/static/audio/wordpool/FILM.wav", "conditions": [24, 1600, "a", 12000], "internal_node_id": "0.0-146.0", "trial": 5, "time_elapsed": 915639, "serialpos": 3, "key_press": -1, "wordID": 564, "type": "PRES_AUD", "trial_index": 200}, "uniqueid": "MTK2075:3BXQMRHWK05HZ44ZWA0MJZFPPZSMUN", "dateTime": 1516683967516}, {"current_trial": 201, "trialdata": {"rt": -1000, "trial_type": "single-audio", "word": "fireplace", "stimulus": "/static/audio/wordpool/FIREPLACE.wav", "conditions": [24, 1600, "a", 12000], "internal_node_id": "0.0-147.0", "trial": 5, "time_elapsed": 918304, "serialpos": 4, "key_press": -1, "wordID": 569, "type": "PRES_AUD", "trial_index": 201}, "uniqueid": "MTK2075:3BXQMRHWK05HZ44ZWA0MJZFPPZSMUN", "dateTime": 1516683970181}, {"current_trial": 202, "trialdata": {"rt": -1000, "trial_type": "single-audio", "word": "snake", "stimulus": "/static/audio/wordpool/SNAKE.wav", "conditions": [24, 1600, "a", 12000], "internal_node_id": "0.0-148.0", "trial": 5, "time_elapsed": 920950, "serialpos": 5, "key_press": -1, "wordID": 1332, "type": "PRES_AUD", "trial_index": 202}, "uniqueid": "MTK2075:3BXQMRHWK05HZ44ZWA0MJZFPPZSMUN", "dateTime": 1516683972827}, {"current_trial": 203, "trialdata": {"rt": -1000, "trial_type": "single-audio", "word": "beef", "stimulus": "/static/audio/wordpool/BEEF.wav", "conditions": [24, 1600, "a", 12000], "internal_node_id": "0.0-149.0", "trial": 5, "time_elapsed": 923420, "serialpos": 6, "key_press": -1, "wordID": 112, "type": "PRES_AUD", "trial_index": 203}, "uniqueid": "MTK2075:3BXQMRHWK05HZ44ZWA0MJZFPPZSMUN", "dateTime": 1516683975297}, {"current_trial": 204, "trialdata": {"rt": -1000, "trial_type": "single-audio", "word": "pork", "stimulus": "/static/audio/wordpool/PORK.wav", "conditions": [24, 1600, "a", 12000], "internal_node_id": "0.0-150.0", "trial": 5, "time_elapsed": 925965, "serialpos": 7, "key_press": -1, "wordID": 1107, "type": "PRES_AUD", "trial_index": 204}, "uniqueid": "MTK2075:3BXQMRHWK05HZ44ZWA0MJZFPPZSMUN", "dateTime": 1516683977842}, {"current_trial": 205, "trialdata": {"rt": -1000, "trial_type": "single-audio", "word": "shoulder", "stimulus": "/static/audio/wordpool/SHOULDER.wav", "conditions": [24, 1600, "a", 12000], "internal_node_id": "0.0-151.0", "trial": 5, "time_elapsed": 928515, "serialpos": 8, "key_press": -1, "wordID": 1293, "type": "PRES_AUD", "trial_index": 205}, "uniqueid": "MTK2075:3BXQMRHWK05HZ44ZWA0MJZFPPZSMUN", "dateTime": 1516683980392}, {"current_trial": 206, "trialdata": {"rt": -1000, "trial_type": "single-audio", "word": "salad", "stimulus": "/static/audio/wordpool/SALAD.wav", "conditions": [24, 1600, "a", 12000], "internal_node_id": "0.0-152.0", "trial": 5, "time_elapsed": 930943, "serialpos": 9, "key_press": -1, "wordID": 1223, "type": "PRES_AUD", "trial_index": 206}, "uniqueid": "MTK2075:3BXQMRHWK05HZ44ZWA0MJZFPPZSMUN", "dateTime": 1516683982820}, {"current_trial": 207, "trialdata": {"rt": -1000, "trial_type": "single-audio", "word": "waiter", "stimulus": "/static/audio/wordpool/WAITER.wav", "conditions": [24, 1600, "a", 12000], "internal_node_id": "0.0-153.0", "trial": 5, "time_elapsed": 933372, "serialpos": 10, "key_press": -1, "wordID": 1579, "type": "PRES_AUD", "trial_index": 207}, "uniqueid": "MTK2075:3BXQMRHWK05HZ44ZWA0MJZFPPZSMUN", "dateTime": 1516683985249}, {"current_trial": 208, "trialdata": {"rt": -1000, "trial_type": "single-audio", "word": "pudding", "stimulus": "/static/audio/wordpool/PUDDING.wav", "conditions": [24, 1600, "a", 12000], "internal_node_id": "0.0-154.0", "trial": 5, "time_elapsed": 935854, "serialpos": 11, "key_press": -1, "wordID": 1138, "type": "PRES_AUD", "trial_index": 208}, "uniqueid": "MTK2075:3BXQMRHWK05HZ44ZWA0MJZFPPZSMUN", "dateTime": 1516683987731}, {"current_trial": 209, "trialdata": {"rt": -1000, "trial_type": "single-audio", "word": "airport", "stimulus": "/static/audio/wordpool/AIRPORT.wav", "conditions": [24, 1600, "a", 12000], "internal_node_id": "0.0-155.0", "trial": 5, "time_elapsed": 938371, "serialpos": 12, "key_press": -1, "wordID": 12, "type": "PRES_AUD", "trial_index": 209}, "uniqueid": "MTK2075:3BXQMRHWK05HZ44ZWA0MJZFPPZSMUN", "dateTime": 1516683990248}, {"current_trial": 210, "trialdata": {"rt": -1000, "trial_type": "single-audio", "word": "dragon", "stimulus": "/static/audio/wordpool/DRAGON.wav", "conditions": [24, 1600, "a", 12000], "internal_node_id": "0.0-156.0", "trial": 5, "time_elapsed": 941071, "serialpos": 13, "key_press": -1, "wordID": 491, "type": "PRES_AUD", "trial_index": 210}, "uniqueid": "MTK2075:3BXQMRHWK05HZ44ZWA0MJZFPPZSMUN", "dateTime": 1516683992948}, {"current_trial": 211, "trialdata": {"rt": -1000, "trial_type": "single-audio", "word": "cook", "stimulus": "/static/audio/wordpool/COOK.wav", "conditions": [24, 1600, "a", 12000], "internal_node_id": "0.0-157.0", "trial": 5, "time_elapsed": 943535, "serialpos": 14, "key_press": -1, "wordID": 371, "type": "PRES_AUD", "trial_index": 211}, "uniqueid": "MTK2075:3BXQMRHWK05HZ44ZWA0MJZFPPZSMUN", "dateTime": 1516683995412}, {"current_trial": 212, "trialdata": {"rt": -1000, "trial_type": "single-audio", "word": "lettuce", "stimulus": "/static/audio/wordpool/LETTUCE.wav", "conditions": [24, 1600, "a", 12000], "internal_node_id": "0.0-158.0", "trial": 5, "time_elapsed": 946164, "serialpos": 15, "key_press": -1, "wordID": 813, "type": "PRES_AUD", "trial_index": 212}, "uniqueid": "MTK2075:3BXQMRHWK05HZ44ZWA0MJZFPPZSMUN", "dateTime": 1516683998041}, {"current_trial": 213, "trialdata": {"rt": -1000, "trial_type": "single-audio", "word": "cashier", "stimulus": "/static/audio/wordpool/CASHIER.wav", "conditions": [24, 1600, "a", 12000], "internal_node_id": "0.0-159.0", "trial": 5, "time_elapsed": 948631, "serialpos": 16, "key_press": -1, "wordID": 253, "type": "PRES_AUD", "trial_index": 213}, "uniqueid": "MTK2075:3BXQMRHWK05HZ44ZWA0MJZFPPZSMUN", "dateTime": 1516684000508}, {"current_trial": 214, "trialdata": {"rt": -1000, "trial_type": "single-audio", "word": "robber", "stimulus": "/static/audio/wordpool/ROBBER.wav", "conditions": [24, 1600, "a", 12000], "internal_node_id": "0.0-160.0", "trial": 5, "time_elapsed": 951220, "serialpos": 17, "key_press": -1, "wordID": 1196, "type": "PRES_AUD", "trial_index": 214}, "uniqueid": "MTK2075:3BXQMRHWK05HZ44ZWA0MJZFPPZSMUN", "dateTime": 1516684003098}, {"current_trial": 215, "trialdata": {"rt": -1000, "trial_type": "single-audio", "word": "suspect", "stimulus": "/static/audio/wordpool/SUSPECT.wav", "conditions": [24, 1600, "a", 12000], "internal_node_id": "0.0-161.0", "trial": 5, "time_elapsed": 953754, "serialpos": 18, "key_press": -1, "wordID": 1414, "type": "PRES_AUD", "trial_index": 215}, "uniqueid": "MTK2075:3BXQMRHWK05HZ44ZWA0MJZFPPZSMUN", "dateTime": 1516684005631}, {"current_trial": 216, "trialdata": {"rt": -1000, "trial_type": "single-audio", "word": "body", "stimulus": "/static/audio/wordpool/BODY.wav", "conditions": [24, 1600, "a", 12000], "internal_node_id": "0.0-162.0", "trial": 5, "time_elapsed": 956488, "serialpos": 19, "key_press": -1, "wordID": 144, "type": "PRES_AUD", "trial_index": 216}, "uniqueid": "MTK2075:3BXQMRHWK05HZ44ZWA0MJZFPPZSMUN", "dateTime": 1516684008365}, {"current_trial": 217, "trialdata": {"rt": -1000, "trial_type": "single-audio", "word": "cousin", "stimulus": "/static/audio/wordpool/COUSIN.wav", "conditions": [24, 1600, "a", 12000], "internal_node_id": "0.0-163.0", "trial": 5, "time_elapsed": 959175, "serialpos": 20, "key_press": -1, "wordID": 391, "type": "PRES_AUD", "trial_index": 217}, "uniqueid": "MTK2075:3BXQMRHWK05HZ44ZWA0MJZFPPZSMUN", "dateTime": 1516684011052}, {"current_trial": 218, "trialdata": {"rt": -1000, "trial_type": "single-audio", "word": "lightning", "stimulus": "/static/audio/wordpool/LIGHTNING.wav", "conditions": [24, 1600, "a", 12000], "internal_node_id": "0.0-164.0", "trial": 5, "time_elapsed": 961849, "serialpos": 21, "key_press": -1, "wordID": 819, "type": "PRES_AUD", "trial_index": 218}, "uniqueid": "MTK2075:3BXQMRHWK05HZ44ZWA0MJZFPPZSMUN", "dateTime": 1516684013726}, {"current_trial": 219, "trialdata": {"rt": -1000, "trial_type": "single-audio", "word": "neutron", "stimulus": "/static/audio/wordpool/NEUTRON.wav", "conditions": [24, 1600, "a", 12000], "internal_node_id": "0.0-165.0", "trial": 5, "time_elapsed": 964454, "serialpos": 22, "key_press": -1, "wordID": 946, "type": "PRES_AUD", "trial_index": 219}, "uniqueid": "MTK2075:3BXQMRHWK05HZ44ZWA0MJZFPPZSMUN", "dateTime": 1516684016331}, {"current_trial": 220, "trialdata": {"rt": -1000, "trial_type": "single-audio", "word": "stove", "stimulus": "/static/audio/wordpool/STOVE.wav", "conditions": [24, 1600, "a", 12000], "internal_node_id": "0.0-166.0", "trial": 5, "time_elapsed": 966943, "serialpos": 23, "key_press": -1, "wordID": 1387, "type": "PRES_AUD", "trial_index": 220}, "uniqueid": "MTK2075:3BXQMRHWK05HZ44ZWA0MJZFPPZSMUN", "dateTime": 1516684018820}, {"current_trial": 221, "trialdata": {"rt": -1, "trial_type": "single-stim", "stimulus": "", "internal_node_id": "0.0-167.0-0.0", "time_elapsed": 968293, "key_press": -1, "type": "PRE_RECALL_DELAY", "trial_index": 221}, "uniqueid": "MTK2075:3BXQMRHWK05HZ44ZWA0MJZFPPZSMUN", "dateTime": 1516684020170}, {"current_trial": 222, "trialdata": {"rt": -1000, "trial_type": "single-audio", "stimulus": "/static/audio/400Hz.wav", "internal_node_id": "0.0-168.0", "time_elapsed": 968794, "key_press": -1, "type": "PRE_RECALL_ALERT", "trial_index": 222}, "uniqueid": "MTK2075:3BXQMRHWK05HZ44ZWA0MJZFPPZSMUN", "dateTime": 1516684020671}, {"current_trial": 223, "trialdata": {"rt": [2797, 4517, 5262, 6037, 8381, 10965, 11901, 13325, 14389, 15709, 17438, 21773], "recwords": ["stove", "lightning", "widow", "leg", "waitress", "pork", "beef", "shoulder", "cashier", "ketchup", "stove", "neutron"], "key_times": [429, 582, 717, 989, 1125, 1189, 1333, 1421, 1549, 1805, 1917, 2021, 2509, 2613, 2669, 2797, 3006, 3181, 3253, 3349, 3885, 3989, 4205, 4269, 4366, 4517, 4733, 4821, 4941, 5045, 5133, 5262, 5453, 5541, 5685, 6037, 7054, 7253, 7301, 7501, 7685, 7798, 7981, 8125, 8381, 9613, 9733, 9821, 10262, 10389, 10591, 10677, 10749, 10965, 11214, 11293, 11557, 11717, 11901, 12117, 12189, 12374, 12437, 12613, 12693, 12806, 12917, 13325, 13661, 13813, 13861, 13933, 14046, 14141, 14237, 14389, 14638, 14709, 14797, 14989, 15061, 15127, 15389, 15709, 16965, 17109, 17158, 17309, 17389, 17438, 20589, 20694, 20853, 21261, 21437, 21526, 21629, 21773], "trial_type": "free-recall", "conditions": [24, 1600, "a", 12000], "internal_node_id": "0.0-169.0-0.0", "key_presses": [83, 79, 84, 8, 8, 84, 80, 86, 69, 8, 8, 8, 79, 86, 69, 13, 76, 73, 71, 72, 84, 78, 73, 78, 71, 13, 87, 73, 68, 79, 87, 13, 76, 69, 71, 13, 87, 65, 73, 84, 82, 69, 83, 83, 13, 80, 82, 79, 8, 8, 79, 82, 75, 13, 66, 69, 69, 70, 13, 83, 72, 79, 85, 76, 68, 69, 82, 13, 67, 65, 83, 72, 73, 69, 82, 13, 75, 69, 84, 67, 72, 85, 80, 13, 83, 84, 79, 86, 69, 13, 78, 69, 85, 84, 82, 79, 78, 13], "trial": 5, "time_elapsed": 1028796, "type": "FREE_RECALL", "trial_index": 223}, "uniqueid": "MTK2075:3BXQMRHWK05HZ44ZWA0MJZFPPZSMUN", "dateTime": 1516684080674}, {"current_trial": 224, "trialdata": {"rt": 1002, "trial_type": "text", "internal_node_id": "0.0-170.0", "time_elapsed": 1031800, "key_press": 32, "type": "INSTRUCTIONS", "trial_index": 224}, "uniqueid": "MTK2075:3BXQMRHWK05HZ44ZWA0MJZFPPZSMUN", "dateTime": 1516684083677}, {"current_trial": 225, "trialdata": {"rt": [5000, 7911], "trial_type": "math-distractor", "key_times": [4551, 4904, 5000, 7607, 7679, 7911, 11824, 11935], "responses": ["18", "15"], "num2": [3, 2, 7], "num3": [7, 9, 8], "conditions": [24, 1600, "a", 12000], "internal_node_id": "0.0-171.0", "key_presses": [97, 104, 13, 97, 101, 13, 98, 99], "trial": 6, "time_elapsed": 1045802, "type": "DISTRACTOR", "trial_index": 225, "num1": [8, 4, 8]}, "uniqueid": "MTK2075:3BXQMRHWK05HZ44ZWA0MJZFPPZSMUN", "dateTime": 1516684097679}, {"current_trial": 226, "trialdata": {"rt": -1, "trial_type": "single-stim", "stimulus": "<p id=\"stim\">10</p>", "internal_node_id": "0.0-172.0-0.0", "time_elapsed": 1048804, "key_press": -1, "trial_index": 226}, "uniqueid": "MTK2075:3BXQMRHWK05HZ44ZWA0MJZFPPZSMUN", "dateTime": 1516684100681}, {"current_trial": 227, "trialdata": {"rt": -1, "trial_type": "single-stim", "stimulus": "<p id=\"stim\">9</p>", "internal_node_id": "0.0-172.0-1.0", "time_elapsed": 1049805, "key_press": -1, "trial_index": 227}, "uniqueid": "MTK2075:3BXQMRHWK05HZ44ZWA0MJZFPPZSMUN", "dateTime": 1516684101682}, {"current_trial": 228, "trialdata": {"rt": -1, "trial_type": "single-stim", "stimulus": "<p id=\"stim\">8</p>", "internal_node_id": "0.0-172.0-2.0", "time_elapsed": 1050806, "key_press": -1, "trial_index": 228}, "uniqueid": "MTK2075:3BXQMRHWK05HZ44ZWA0MJZFPPZSMUN", "dateTime": 1516684102683}, {"current_trial": 229, "trialdata": {"rt": -1, "trial_type": "single-stim", "stimulus": "<p id=\"stim\">7</p>", "internal_node_id": "0.0-172.0-3.0", "time_elapsed": 1051806, "key_press": -1, "trial_index": 229}, "uniqueid": "MTK2075:3BXQMRHWK05HZ44ZWA0MJZFPPZSMUN", "dateTime": 1516684103684}, {"current_trial": 230, "trialdata": {"rt": -1, "trial_type": "single-stim", "stimulus": "<p id=\"stim\">6</p>", "internal_node_id": "0.0-172.0-4.0", "time_elapsed": 1052807, "key_press": -1, "trial_index": 230}, "uniqueid": "MTK2075:3BXQMRHWK05HZ44ZWA0MJZFPPZSMUN", "dateTime": 1516684104685}, {"current_trial": 231, "trialdata": {"rt": -1, "trial_type": "single-stim", "stimulus": "<p id=\"stim\">5</p>", "internal_node_id": "0.0-172.0-5.0", "time_elapsed": 1053808, "key_press": -1, "trial_index": 231}, "uniqueid": "MTK2075:3BXQMRHWK05HZ44ZWA0MJZFPPZSMUN", "dateTime": 1516684105685}, {"current_trial": 232, "trialdata": {"rt": -1, "trial_type": "single-stim", "stimulus": "<p id=\"stim\">4</p>", "internal_node_id": "0.0-172.0-6.0", "time_elapsed": 1054809, "key_press": -1, "trial_index": 232}, "uniqueid": "MTK2075:3BXQMRHWK05HZ44ZWA0MJZFPPZSMUN", "dateTime": 1516684106686}, {"current_trial": 233, "trialdata": {"rt": -1, "trial_type": "single-stim", "stimulus": "<p id=\"stim\">3</p>", "internal_node_id": "0.0-172.0-7.0", "time_elapsed": 1055810, "key_press": -1, "trial_index": 233}, "uniqueid": "MTK2075:3BXQMRHWK05HZ44ZWA0MJZFPPZSMUN", "dateTime": 1516684107687}, {"current_trial": 234, "trialdata": {"rt": -1, "trial_type": "single-stim", "stimulus": "<p id=\"stim\">2</p>", "internal_node_id": "0.0-172.0-8.0", "time_elapsed": 1056811, "key_press": -1, "trial_index": 234}, "uniqueid": "MTK2075:3BXQMRHWK05HZ44ZWA0MJZFPPZSMUN", "dateTime": 1516684108688}, {"current_trial": 235, "trialdata": {"rt": -1, "trial_type": "single-stim", "stimulus": "<p id=\"stim\">1</p>", "internal_node_id": "0.0-172.0-9.0", "time_elapsed": 1057812, "key_press": -1, "trial_index": 235}, "uniqueid": "MTK2075:3BXQMRHWK05HZ44ZWA0MJZFPPZSMUN", "dateTime": 1516684109689}, {"current_trial": 236, "trialdata": {"rt": -1, "trial_type": "single-stim", "stimulus": "<p id=\"stim\">+</p>", "internal_node_id": "0.0-173.0-0.0", "time_elapsed": 1059313, "key_press": -1, "type": "FIXATION", "trial_index": 236}, "uniqueid": "MTK2075:3BXQMRHWK05HZ44ZWA0MJZFPPZSMUN", "dateTime": 1516684111190}, {"current_trial": 237, "trialdata": {"rt": -1000, "trial_type": "single-audio", "word": "marine", "stimulus": "/static/audio/wordpool/MARINE.wav", "conditions": [24, 1600, "a", 12000], "internal_node_id": "0.0-174.0", "trial": 6, "time_elapsed": 1061832, "serialpos": 0, "key_press": -1, "wordID": 868, "type": "PRES_AUD", "trial_index": 237}, "uniqueid": "MTK2075:3BXQMRHWK05HZ44ZWA0MJZFPPZSMUN", "dateTime": 1516684113709}, {"current_trial": 238, "trialdata": {"rt": -1000, "trial_type": "single-audio", "word": "portrait", "stimulus": "/static/audio/wordpool/PORTRAIT.wav", "conditions": [24, 1600, "a", 12000], "internal_node_id": "0.0-175.0", "trial": 6, "time_elapsed": 1064326, "serialpos": 1, "key_press": -1, "wordID": 1110, "type": "PRES_AUD", "trial_index": 238}, "uniqueid": "MTK2075:3BXQMRHWK05HZ44ZWA0MJZFPPZSMUN", "dateTime": 1516684116204}, {"current_trial": 239, "trialdata": {"rt": -1000, "trial_type": "single-audio", "word": "gavel", "stimulus": "/static/audio/wordpool/GAVEL.wav", "conditions": [24, 1600, "a", 12000], "internal_node_id": "0.0-176.0", "trial": 6, "time_elapsed": 1066971, "serialpos": 2, "key_press": -1, "wordID": 626, "type": "PRES_AUD", "trial_index": 239}, "uniqueid": "MTK2075:3BXQMRHWK05HZ44ZWA0MJZFPPZSMUN", "dateTime": 1516684118848}, {"current_trial": 240, "trialdata": {"rt": -1000, "trial_type": "single-audio", "word": "peach", "stimulus": "/static/audio/wordpool/PEACH.wav", "conditions": [24, 1600, "a", 12000], "internal_node_id": "0.0-177.0", "trial": 6, "time_elapsed": 1069661, "serialpos": 3, "key_press": -1, "wordID": 1030, "type": "PRES_AUD", "trial_index": 240}, "uniqueid": "MTK2075:3BXQMRHWK05HZ44ZWA0MJZFPPZSMUN", "dateTime": 1516684121538}, {"current_trial": 241, "trialdata": {"rt": -1000, "trial_type": "single-audio", "word": "pecan", "stimulus": "/static/audio/wordpool/PECAN.wav", "conditions": [24, 1600, "a", 12000], "internal_node_id": "0.0-178.0", "trial": 6, "time_elapsed": 1072285, "serialpos": 4, "key_press": -1, "wordID": 1035, "type": "PRES_AUD", "trial_index": 241}, "uniqueid": "MTK2075:3BXQMRHWK05HZ44ZWA0MJZFPPZSMUN", "dateTime": 1516684124162}, {"current_trial": 242, "trialdata": {"rt": -1000, "trial_type": "single-audio", "word": "handbag", "stimulus": "/static/audio/wordpool/HANDBAG.wav", "conditions": [24, 1600, "a", 12000], "internal_node_id": "0.0-179.0", "trial": 6, "time_elapsed": 1074969, "serialpos": 5, "key_press": -1, "wordID": 683, "type": "PRES_AUD", "trial_index": 242}, "uniqueid": "MTK2075:3BXQMRHWK05HZ44ZWA0MJZFPPZSMUN", "dateTime": 1516684126846}, {"current_trial": 243, "trialdata": {"rt": -1000, "trial_type": "single-audio", "word": "canyon", "stimulus": "/static/audio/wordpool/CANYON.wav", "conditions": [24, 1600, "a", 12000], "internal_node_id": "0.0-180.0", "trial": 6, "time_elapsed": 1077720, "serialpos": 6, "key_press": -1, "wordID": 234, "type": "PRES_AUD", "trial_index": 243}, "uniqueid": "MTK2075:3BXQMRHWK05HZ44ZWA0MJZFPPZSMUN", "dateTime": 1516684129597}, {"current_trial": 244, "trialdata": {"rt": -1000, "trial_type": "single-audio", "word": "gravel", "stimulus": "/static/audio/wordpool/GRAVEL.wav", "conditions": [24, 1600, "a", 12000], "internal_node_id": "0.0-181.0", "trial": 6, "time_elapsed": 1080239, "serialpos": 7, "key_press": -1, "wordID": 658, "type": "PRES_AUD", "trial_index": 244}, "uniqueid": "MTK2075:3BXQMRHWK05HZ44ZWA0MJZFPPZSMUN", "dateTime": 1516684132116}, {"current_trial": 245, "trialdata": {"rt": -1000, "trial_type": "single-audio", "word": "whiskers", "stimulus": "/static/audio/wordpool/WHISKERS.wav", "conditions": [24, 1600, "a", 12000], "internal_node_id": "0.0-182.0", "trial": 6, "time_elapsed": 1082839, "serialpos": 8, "key_press": -1, "wordID": 1604, "type": "PRES_AUD", "trial_index": 245}, "uniqueid": "MTK2075:3BXQMRHWK05HZ44ZWA0MJZFPPZSMUN", "dateTime": 1516684134716}, {"current_trial": 246, "trialdata": {"rt": -1000, "trial_type": "single-audio", "word": "atom", "stimulus": "/static/audio/wordpool/ATOM.wav", "conditions": [24, 1600, "a", 12000], "internal_node_id": "0.0-183.0", "trial": 6, "time_elapsed": 1085549, "serialpos": 9, "key_press": -1, "wordID": 54, "type": "PRES_A