{"assignmentId": "39GHHAVOMGYSHY4ZE7WCQ3PEPFQ4J8", "workerId": "MTK2943", "questiondata": {"origin": "United States", "strat-rehearsal": "5", "marital": "Single", "education": "Bachelor's degree", "ethnicity": "Not Hispanic", "color_depth": 24, "distracted": "No", "wrote-notes": "No", "strat-other": "", "screen_width": 1366, "avail_screen_width": 1366, "avail_screen_height": 728, "strat-image": "70", "language": "English", "gender": "Male", "age": "29", "gender_other": "", "race": ["White"], "strat-categorize": "80", "pixel_depth": 24, "strat-spatial": "0", "strat-story": "50", "race_other": "", "screen_height": 768}, "bonus": 0, "hitId": "3ZICQFRS31PWXQZYRKKMJ9UTOWSZZ2", "counterbalance": 1058, "useragent": "Mozilla/5.0 (Windows NT 10.0; Win64; x64) AppleWebKit/537.36 (KHTML, like Gecko) Chrome/64.0.3282.167 Safari/537.36", "eventdata": [{"eventtype": "initialized", "interval": 0, "value": null, "timestamp": 1519593668185}, {"eventtype": "window_resize", "interval": 0, "value": [1366, 677], "timestamp": 1519593668185}, {"eventtype": "focus", "interval": 398092, "value": "off", "timestamp": 1519594066277}, {"eventtype": "focus", "interval": 6804, "value": "on", "timestamp": 1519594073081}], "data": [{"current_trial": 0, "trialdata": {"rt": 1460, "trial_type": "text", "internal_node_id": "0.0-0.0", "time_elapsed": 1471, "key_press": 32, "type": "INSTRUCTIONS", "trial_index": 0}, "uniqueid": "MTK2943:39GHHAVOMGYSHY4ZE7WCQ3PEPFQ4J8", "dateTime": 1519593670275}, {"current_trial": 1, "trialdata": {"rt": 16079, "trial_type": "text", "internal_node_id": "0.0-1.0", "time_elapsed": 17565, "key_press": 32, "type": "INSTRUCTIONS", "trial_index": 1}, "uniqueid": "MTK2943:39GHHAVOMGYSHY4ZE7WCQ3PEPFQ4J8", "dateTime": 1519593686363}, {"current_trial": 2, "trialdata": {"rt": [7136], "trial_type": "audio-test", "responses": ["ocean"], "internal_node_id": "0.0-2.0", "time_elapsed": 24788, "type": "AUDIO_TEST", "trial_index": 2}, "uniqueid": "MTK2943:39GHHAVOMGYSHY4ZE7WCQ3PEPFQ4J8", "dateTime": 1519593693585}, {"current_trial": 3, "trialdata": {"rt": [6755], "trial_type": "audio-test", "responses": ["crystal"], "internal_node_id": "0.0-3.0", "time_elapsed": 31561, "type": "AUDIO_TEST", "trial_index": 3}, "uniqueid": "MTK2943:39GHHAVOMGYSHY4ZE7WCQ3PEPFQ4J8", "dateTime": 1519593700357}, {"current_trial": 4, "trialdata": {"rt": [6138], "trial_type": "audio-test", "responses": ["spice"], "internal_node_id": "0.0-4.0", "time_elapsed": 37718, "type": "AUDIO_TEST", "trial_index": 4}, "uniqueid": "MTK2943:39GHHAVOMGYSHY4ZE7WCQ3PEPFQ4J8", "dateTime": 1519593706515}, {"current_trial": 5, "trialdata": {"rt": 18397, "trial_type": "survey-text", "responses": "{\"Q0\":\"11PM\",\"Q1\":\"7AM\",\"Q2\":\"5\"}", "internal_node_id": "0.0-5.0", "time_elapsed": 56881, "type": "SLEEP_SURVEY", "trial_index": 5}, "uniqueid": "MTK2943:39GHHAVOMGYSHY4ZE7WCQ3PEPFQ4J8", "dateTime": 1519593725677}, {"current_trial": 6, "trialdata": {"rt": 39731, "trial_type": "text", "internal_node_id": "0.0-6.0", "time_elapsed": 97619, "key_press": 32, "type": "INSTRUCTIONS", "trial_index": 6}, "uniqueid": "MTK2943:39GHHAVOMGYSHY4ZE7WCQ3PEPFQ4J8", "dateTime": 1519593766415}, {"current_trial": 7, "trialdata": {"rt": 12808, "trial_type": "text", "internal_node_id": "0.0-7.0", "time_elapsed": 110933, "key_press": 32, "type": "INSTRUCTIONS", "trial_index": 7}, "uniqueid": "MTK2943:39GHHAVOMGYSHY4ZE7WCQ3PEPFQ4J8", "dateTime": 1519593779729}, {"current_trial": 8, "trialdata": {"rt": 10114, "trial_type": "text", "internal_node_id": "0.0-8.0", "time_elapsed": 121551, "key_press": 32, "type": "INSTRUCTIONS", "trial_index": 8}, "uniqueid": "MTK2943:39GHHAVOMGYSHY4ZE7WCQ3PEPFQ4J8", "dateTime": 1519593790347}, {"current_trial": 9, "trialdata": {"rt": [4125, 7506, 10075, 11516, 12731, 14229, 16195], "trial_type": "math-distractor", "key_times": [2792, 3130, 4125, 6957, 7356, 7506, 9647, 9847, 10075, 11119, 11275, 11516, 12462, 12731, 13903, 14035, 14229, 15576, 15765, 16195], "responses": ["15", "17", "12", "10", "6", "11", "14"], "num2": [6, 3, 8, 6, 2, 4, 9, 4], "num3": [2, 6, 1, 3, 2, 2, 4, 7], "conditions": [18, 1200, "v", 18000], "internal_node_id": "0.0-9.0", "key_presses": [49, 53, 13, 49, 55, 13, 97, 98, 13, 97, 96, 13, 102, 13, 97, 97, 13, 97, 100, 13], "trial": 0, "time_elapsed": 140631, "type": "DISTRACTOR", "trial_index": 9, "num1": [7, 8, 3, 1, 2, 5, 1, 2]}, "uniqueid": "MTK2943:39GHHAVOMGYSHY4ZE7WCQ3PEPFQ4J8", "dateTime": 1519593809427}, {"current_trial": 10, "trialdata": {"rt": -1, "trial_type": "single-stim", "stimulus": "<p id=\"stim\">10</p>", "internal_node_id": "0.0-10.0-0.0", "time_elapsed": 143641, "key_press": -1, "trial_index": 10}, "uniqueid": "MTK2943:39GHHAVOMGYSHY4ZE7WCQ3PEPFQ4J8", "dateTime": 1519593812439}, {"current_trial": 11, "trialdata": {"rt": -1, "trial_type": "single-stim", "stimulus": "<p id=\"stim\">9</p>", "internal_node_id": "0.0-10.0-1.0", "time_elapsed": 144647, "key_press": -1, "trial_index": 11}, "uniqueid": "MTK2943:39GHHAVOMGYSHY4ZE7WCQ3PEPFQ4J8", "dateTime": 1519593813444}, {"current_trial": 12, "trialdata": {"rt": -1, "trial_type": "single-stim", "stimulus": "<p id=\"stim\">8</p>", "internal_node_id": "0.0-10.0-2.0", "time_elapsed": 145651, "key_press": -1, "trial_index": 12}, "uniqueid": "MTK2943:39GHHAVOMGYSHY4ZE7WCQ3PEPFQ4J8", "dateTime": 1519593814447}, {"current_trial": 13, "trialdata": {"rt": -1, "trial_type": "single-stim", "stimulus": "<p id=\"stim\">7</p>", "internal_node_id": "0.0-10.0-3.0", "time_elapsed": 146659, "key_press": -1, "trial_index": 13}, "uniqueid": "MTK2943:39GHHAVOMGYSHY4ZE7WCQ3PEPFQ4J8", "dateTime": 1519593815455}, {"current_trial": 14, "trialdata": {"rt": -1, "trial_type": "single-stim", "stimulus": "<p id=\"stim\">6</p>", "internal_node_id": "0.0-10.0-4.0", "time_elapsed": 147663, "key_press": -1, "trial_index": 14}, "uniqueid": "MTK2943:39GHHAVOMGYSHY4ZE7WCQ3PEPFQ4J8", "dateTime": 1519593816459}, {"current_trial": 15, "trialdata": {"rt": -1, "trial_type": "single-stim", "stimulus": "<p id=\"stim\">5</p>", "internal_node_id": "0.0-10.0-5.0", "time_elapsed": 148667, "key_press": -1, "trial_index": 15}, "uniqueid": "MTK2943:39GHHAVOMGYSHY4ZE7WCQ3PEPFQ4J8", "dateTime": 1519593817463}, {"current_trial": 16, "trialdata": {"rt": -1, "trial_type": "single-stim", "stimulus": "<p id=\"stim\">4</p>", "internal_node_id": "0.0-10.0-6.0", "time_elapsed": 149673, "key_press": -1, "trial_index": 16}, "uniqueid": "MTK2943:39GHHAVOMGYSHY4ZE7WCQ3PEPFQ4J8", "dateTime": 1519593818469}, {"current_trial": 17, "trialdata": {"rt": -1, "trial_type": "single-stim", "stimulus": "<p id=\"stim\">3</p>", "internal_node_id": "0.0-10.0-7.0", "time_elapsed": 150682, "key_press": -1, "trial_index": 17}, "uniqueid": "MTK2943:39GHHAVOMGYSHY4ZE7WCQ3PEPFQ4J8", "dateTime": 1519593819479}, {"current_trial": 18, "trialdata": {"rt": -1, "trial_type": "single-stim", "stimulus": "<p id=\"stim\">2</p>", "internal_node_id": "0.0-10.0-8.0", "time_elapsed": 151688, "key_press": -1, "trial_index": 18}, "uniqueid": "MTK2943:39GHHAVOMGYSHY4ZE7WCQ3PEPFQ4J8", "dateTime": 1519593820484}, {"current_trial": 19, "trialdata": {"rt": -1, "trial_type": "single-stim", "stimulus": "<p id=\"stim\">1</p>", "internal_node_id": "0.0-10.0-9.0", "time_elapsed": 152692, "key_press": -1, "trial_index": 19}, "uniqueid": "MTK2943:39GHHAVOMGYSHY4ZE7WCQ3PEPFQ4J8", "dateTime": 1519593821489}, {"current_trial": 20, "trialdata": {"rt": -1, "trial_type": "single-stim", "stimulus": "<p id=\"stim\">+</p>", "internal_node_id": "0.0-11.0-0.0", "time_elapsed": 154201, "key_press": -1, "type": "FIXATION", "trial_index": 20}, "uniqueid": "MTK2943:39GHHAVOMGYSHY4ZE7WCQ3PEPFQ4J8", "dateTime": 1519593822997}, {"current_trial": 21, "trialdata": {"rt": -1, "trial_type": "single-stim", "word": "thread", "stimulus": "<p id=\"stim\">THREAD</p>", "conditions": [18, 1200, "v", 18000], "internal_node_id": "0.0-12.0", "trial": 0, "time_elapsed": 155408, "serialpos": 0, "key_press": -1, "wordID": 1459, "type": "PRES_VIS", "trial_index": 21}, "uniqueid": "MTK2943:39GHHAVOMGYSHY4ZE7WCQ3PEPFQ4J8", "dateTime": 1519593824204}, {"current_trial": 22, "trialdata": {"rt": -1, "trial_type": "single-stim", "word": "subway", "stimulus": "<p id=\"stim\">SUBWAY</p>", "conditions": [18, 1200, "v", 18000], "internal_node_id": "0.0-13.0", "trial": 0, "time_elapsed": 157463, "serialpos": 1, "key_press": -1, "wordID": 1399, "type": "PRES_VIS", "trial_index": 22}, "uniqueid": "MTK2943:39GHHAVOMGYSHY4ZE7WCQ3PEPFQ4J8", "dateTime": 1519593826260}, {"current_trial": 23, "trialdata": {"rt": -1, "trial_type": "single-stim", "word": "neutron", "stimulus": "<p id=\"stim\">NEUTRON</p>", "conditions": [18, 1200, "v", 18000], "internal_node_id": "0.0-14.0", "trial": 0, "time_elapsed": 159723, "serialpos": 2, "key_press": -1, "wordID": 946, "type": "PRES_VIS", "trial_index": 23}, "uniqueid": "MTK2943:39GHHAVOMGYSHY4ZE7WCQ3PEPFQ4J8", "dateTime": 1519593828520}, {"current_trial": 24, "trialdata": {"rt": -1, "trial_type": "single-stim", "word": "paddle", "stimulus": "<p id=\"stim\">PADDLE</p>", "conditions": [18, 1200, "v", 18000], "internal_node_id": "0.0-15.0", "trial": 0, "time_elapsed": 161743, "serialpos": 3, "key_press": -1, "wordID": 999, "type": "PRES_VIS", "trial_index": 24}, "uniqueid": "MTK2943:39GHHAVOMGYSHY4ZE7WCQ3PEPFQ4J8", "dateTime": 1519593830539}, {"current_trial": 25, "trialdata": {"rt": -1, "trial_type": "single-stim", "word": "kleenex", "stimulus": "<p id=\"stim\">KLEENEX</p>", "conditions": [18, 1200, "v", 18000], "internal_node_id": "0.0-16.0", "trial": 0, "time_elapsed": 164082, "serialpos": 4, "key_press": -1, "wordID": 781, "type": "PRES_VIS", "trial_index": 25}, "uniqueid": "MTK2943:39GHHAVOMGYSHY4ZE7WCQ3PEPFQ4J8", "dateTime": 1519593832879}, {"current_trial": 26, "trialdata": {"rt": -1, "trial_type": "single-stim", "word": "army", "stimulus": "<p id=\"stim\">ARMY</p>", "conditions": [18, 1200, "v", 18000], "internal_node_id": "0.0-17.0", "trial": 0, "time_elapsed": 166148, "serialpos": 5, "key_press": -1, "wordID": 38, "type": "PRES_VIS", "trial_index": 26}, "uniqueid": "MTK2943:39GHHAVOMGYSHY4ZE7WCQ3PEPFQ4J8", "dateTime": 1519593834944}, {"current_trial": 27, "trialdata": {"rt": -1, "trial_type": "single-stim", "word": "motor", "stimulus": "<p id=\"stim\">MOTOR</p>", "conditions": [18, 1200, "v", 18000], "internal_node_id": "0.0-18.0", "trial": 0, "time_elapsed": 168212, "serialpos": 6, "key_press": -1, "wordID": 921, "type": "PRES_VIS", "trial_index": 27}, "uniqueid": "MTK2943:39GHHAVOMGYSHY4ZE7WCQ3PEPFQ4J8", "dateTime": 1519593837009}, {"current_trial": 28, "trialdata": {"rt": -1, "trial_type": "single-stim", "word": "bunny", "stimulus": "<p id=\"stim\">BUNNY</p>", "conditions": [18, 1200, "v", 18000], "internal_node_id": "0.0-19.0", "trial": 0, "time_elapsed": 170319, "serialpos": 7, "key_press": -1, "wordID": 197, "type": "PRES_VIS", "trial_index": 28}, "uniqueid": "MTK2943:39GHHAVOMGYSHY4ZE7WCQ3PEPFQ4J8", "dateTime": 1519593839115}, {"current_trial": 29, "trialdata": {"rt": -1, "trial_type": "single-stim", "word": "hedge", "stimulus": "<p id=\"stim\">HEDGE</p>", "conditions": [18, 1200, "v", 18000], "internal_node_id": "0.0-20.0", "trial": 0, "time_elapsed": 172366, "serialpos": 8, "key_press": -1, "wordID": 698, "type": "PRES_VIS", "trial_index": 29}, "uniqueid": "MTK2943:39GHHAVOMGYSHY4ZE7WCQ3PEPFQ4J8", "dateTime": 1519593841164}, {"current_trial": 30, "trialdata": {"rt": -1, "trial_type": "single-stim", "word": "gymnast", "stimulus": "<p id=\"stim\">GYMNAST</p>", "conditions": [18, 1200, "v", 18000], "internal_node_id": "0.0-21.0", "trial": 0, "time_elapsed": 174488, "serialpos": 9, "key_press": -1, "wordID": 674, "type": "PRES_VIS", "trial_index": 30}, "uniqueid": "MTK2943:39GHHAVOMGYSHY4ZE7WCQ3PEPFQ4J8", "dateTime": 1519593843284}, {"current_trial": 31, "trialdata": {"rt": -1, "trial_type": "single-stim", "word": "daughter", "stimulus": "<p id=\"stim\">DAUGHTER</p>", "conditions": [18, 1200, "v", 18000], "internal_node_id": "0.0-22.0", "trial": 0, "time_elapsed": 176638, "serialpos": 10, "key_press": -1, "wordID": 441, "type": "PRES_VIS", "trial_index": 31}, "uniqueid": "MTK2943:39GHHAVOMGYSHY4ZE7WCQ3PEPFQ4J8", "dateTime": 1519593845435}, {"current_trial": 32, "trialdata": {"rt": -1, "trial_type": "single-stim", "word": "curtain", "stimulus": "<p id=\"stim\">CURTAIN</p>", "conditions": [18, 1200, "v", 18000], "internal_node_id": "0.0-23.0", "trial": 0, "time_elapsed": 178742, "serialpos": 11, "key_press": -1, "wordID": 426, "type": "PRES_VIS", "trial_index": 32}, "uniqueid": "MTK2943:39GHHAVOMGYSHY4ZE7WCQ3PEPFQ4J8", "dateTime": 1519593847539}, {"current_trial": 33, "trialdata": {"rt": -1, "trial_type": "single-stim", "word": "panther", "stimulus": "<p id=\"stim\">PANTHER</p>", "conditions": [18, 1200, "v", 18000], "internal_node_id": "0.0-24.0", "trial": 0, "time_elapsed": 181017, "serialpos": 12, "key_press": -1, "wordID": 1008, "type": "PRES_VIS", "trial_index": 33}, "uniqueid": "MTK2943:39GHHAVOMGYSHY4ZE7WCQ3PEPFQ4J8", "dateTime": 1519593849813}, {"current_trial": 34, "trialdata": {"rt": -1, "trial_type": "single-stim", "word": "omelet", "stimulus": "<p id=\"stim\">OMELET</p>", "conditions": [18, 1200, "v", 18000], "internal_node_id": "0.0-25.0", "trial": 0, "time_elapsed": 183352, "serialpos": 13, "key_press": -1, "wordID": 975, "type": "PRES_VIS", "trial_index": 34}, "uniqueid": "MTK2943:39GHHAVOMGYSHY4ZE7WCQ3PEPFQ4J8", "dateTime": 1519593852148}, {"current_trial": 35, "trialdata": {"rt": -1, "trial_type": "single-stim", "word": "tortoise", "stimulus": "<p id=\"stim\">TORTOISE</p>", "conditions": [18, 1200, "v", 18000], "internal_node_id": "0.0-26.0", "trial": 0, "time_elapsed": 185401, "serialpos": 14, "key_press": -1, "wordID": 1485, "type": "PRES_VIS", "trial_index": 35}, "uniqueid": "MTK2943:39GHHAVOMGYSHY4ZE7WCQ3PEPFQ4J8", "dateTime": 1519593854198}, {"current_trial": 36, "trialdata": {"rt": -1, "trial_type": "single-stim", "word": "orange", "stimulus": "<p id=\"stim\">ORANGE</p>", "conditions": [18, 1200, "v", 18000], "internal_node_id": "0.0-27.0", "trial": 0, "time_elapsed": 187762, "serialpos": 15, "key_press": -1, "wordID": 979, "type": "PRES_VIS", "trial_index": 36}, "uniqueid": "MTK2943:39GHHAVOMGYSHY4ZE7WCQ3PEPFQ4J8", "dateTime": 1519593856558}, {"current_trial": 37, "trialdata": {"rt": -1, "trial_type": "single-stim", "word": "banjo", "stimulus": "<p id=\"stim\">BANJO</p>", "conditions": [18, 1200, "v", 18000], "internal_node_id": "0.0-28.0", "trial": 0, "time_elapsed": 189945, "serialpos": 16, "key_press": -1, "wordID": 81, "type": "PRES_VIS", "trial_index": 37}, "uniqueid": "MTK2943:39GHHAVOMGYSHY4ZE7WCQ3PEPFQ4J8", "dateTime": 1519593858742}, {"current_trial": 38, "trialdata": {"rt": -1, "trial_type": "single-stim", "word": "box", "stimulus": "<p id=\"stim\">BOX</p>", "conditions": [18, 1200, "v", 18000], "internal_node_id": "0.0-29.0", "trial": 0, "time_elapsed": 192171, "serialpos": 17, "key_press": -1, "wordID": 158, "type": "PRES_VIS", "trial_index": 38}, "uniqueid": "MTK2943:39GHHAVOMGYSHY4ZE7WCQ3PEPFQ4J8", "dateTime": 1519593860967}, {"current_trial": 39, "trialdata": {"rt": -1, "trial_type": "single-stim", "stimulus": "", "internal_node_id": "0.0-30.0-0.0", "time_elapsed": 194681, "key_press": -1, "type": "PRE_RECALL_DELAY", "trial_index": 39}, "uniqueid": "MTK2943:39GHHAVOMGYSHY4ZE7WCQ3PEPFQ4J8", "dateTime": 1519593863477}, {"current_trial": 40, "trialdata": {"rt": -1000, "trial_type": "single-audio", "stimulus": "/static/audio/400Hz.wav", "internal_node_id": "0.0-31.0", "time_elapsed": 195199, "key_press": -1, "type": "PRE_RECALL_ALERT", "trial_index": 40}, "uniqueid": "MTK2943:39GHHAVOMGYSHY4ZE7WCQ3PEPFQ4J8", "dateTime": 1519593863995}, {"current_trial": 41, "trialdata": {"rt": [2648, 4082, 5588, 7863, 10170, 11510, 14336, 16174, 29221, 37289, 53436, 58242], "recwords": ["box", "panther", "orange", "banjo", "kleenex", "army", "daughter", "bunny", "box", "rugby", "paddle", "tortoise"], "key_times": [1783, 1917, 2233, 2648, 3282, 3397, 3524, 3628, 3711, 3838, 3998, 4082, 4601, 4706, 4870, 4965, 5120, 5321, 5588, 6746, 6820, 6951, 7468, 7554, 7863, 8381, 8576, 8788, 8974, 9114, 9233, 9785, 10170, 10704, 10907, 10985, 11149, 11510, 13150, 13354, 13399, 13562, 13615, 13758, 13963, 14127, 14336, 14977, 15034, 15212, 15342, 15522, 16174, 28281, 28411, 28686, 29221, 36398, 36695, 36796, 36954, 36993, 37289, 52643, 52719, 52863, 53027, 53074, 53244, 53436, 57164, 57270, 57404, 57629, 57698, 57846, 57897, 58099, 58242], "trial_type": "free-recall", "conditions": [18, 1200, "v", 18000], "internal_node_id": "0.0-32.0-0.0", "key_presses": [66, 79, 88, 13, 80, 65, 78, 84, 72, 69, 82, 13, 79, 82, 65, 78, 71, 69, 13, 66, 65, 78, 74, 79, 13, 75, 76, 69, 69, 78, 69, 88, 13, 65, 82, 77, 89, 13, 68, 65, 85, 71, 72, 84, 69, 82, 13, 66, 85, 78, 78, 89, 13, 66, 79, 88, 13, 82, 85, 71, 66, 89, 13, 80, 65, 68, 68, 76, 69, 13, 84, 79, 82, 84, 79, 73, 83, 69, 13], "trial": 0, "time_elapsed": 255213, "type": "FREE_RECALL", "trial_index": 41}, "uniqueid": "MTK2943:39GHHAVOMGYSHY4ZE7WCQ3PEPFQ4J8", "dateTime": 1519593924023}, {"current_trial": 42, "trialdata": {"rt": 1499, "trial_type": "text", "internal_node_id": "0.0-33.0", "time_elapsed": 258731, "key_press": 32, "type": "INSTRUCTIONS", "trial_index": 42}, "uniqueid": "MTK2943:39GHHAVOMGYSHY4ZE7WCQ3PEPFQ4J8", "dateTime": 1519593927528}, {"current_trial": 43, "trialdata": {"rt": [2151, 4487, 6341, 10902, 12360, 14090, 16061, 17714], "trial_type": "math-distractor", "key_times": [1661, 1901, 2151, 3942, 4185, 4487, 5975, 6134, 6341, 10560, 10700, 10902, 11957, 12168, 12360, 13701, 13900, 14090, 15696, 15872, 16061, 17496, 17714], "responses": ["13", "19", "21", "22", "12", "17", "17", "8"], "num2": [9, 6, 8, 5, 6, 2, 2, 3, 1], "num3": [1, 7, 8, 8, 4, 6, 5, 3, 3], "conditions": [18, 1200, "v", 18000], "internal_node_id": "0.0-34.0", "key_presses": [97, 99, 13, 97, 105, 13, 98, 97, 13, 98, 98, 13, 97, 98, 13, 97, 103, 13, 97, 103, 13, 104, 13], "trial": 1, "time_elapsed": 278748, "type": "DISTRACTOR", "trial_index": 43, "num1": [3, 6, 5, 9, 2, 9, 8, 2, 7]}, "uniqueid": "MTK2943:39GHHAVOMGYSHY4ZE7WCQ3PEPFQ4J8", "dateTime": 1519593947545}, {"current_trial": 44, "trialdata": {"rt": -1, "trial_type": "single-stim", "stimulus": "<p id=\"stim\">10</p>", "internal_node_id": "0.0-35.0-0.0", "time_elapsed": 281754, "key_press": -1, "trial_index": 44}, "uniqueid": "MTK2943:39GHHAVOMGYSHY4ZE7WCQ3PEPFQ4J8", "dateTime": 1519593950550}, {"current_trial": 45, "trialdata": {"rt": -1, "trial_type": "single-stim", "stimulus": "<p id=\"stim\">9</p>", "internal_node_id": "0.0-35.0-1.0", "time_elapsed": 282759, "key_press": -1, "trial_index": 45}, "uniqueid": "MTK2943:39GHHAVOMGYSHY4ZE7WCQ3PEPFQ4J8", "dateTime": 1519593951555}, {"current_trial": 46, "trialdata": {"rt": -1, "trial_type": "single-stim", "stimulus": "<p id=\"stim\">8</p>", "internal_node_id": "0.0-35.0-2.0", "time_elapsed": 283765, "key_press": -1, "trial_index": 46}, "uniqueid": "MTK2943:39GHHAVOMGYSHY4ZE7WCQ3PEPFQ4J8", "dateTime": 1519593952562}, {"current_trial": 47, "trialdata": {"rt": -1, "trial_type": "single-stim", "stimulus": "<p id=\"stim\">7</p>", "internal_node_id": "0.0-35.0-3.0", "time_elapsed": 284771, "key_press": -1, "trial_index": 47}, "uniqueid": "MTK2943:39GHHAVOMGYSHY4ZE7WCQ3PEPFQ4J8", "dateTime": 1519593953568}, {"current_trial": 48, "trialdata": {"rt": -1, "trial_type": "single-stim", "stimulus": "<p id=\"stim\">6</p>", "internal_node_id": "0.0-35.0-4.0", "time_elapsed": 285775, "key_press": -1, "trial_index": 48}, "uniqueid": "MTK2943:39GHHAVOMGYSHY4ZE7WCQ3PEPFQ4J8", "dateTime": 1519593954572}, {"current_trial": 49, "trialdata": {"rt": -1, "trial_type": "single-stim", "stimulus": "<p id=\"stim\">5</p>", "internal_node_id": "0.0-35.0-5.0", "time_elapsed": 286781, "key_press": -1, "trial_index": 49}, "uniqueid": "MTK2943:39GHHAVOMGYSHY4ZE7WCQ3PEPFQ4J8", "dateTime": 1519593955577}, {"current_trial": 50, "trialdata": {"rt": -1, "trial_type": "single-stim", "stimulus": "<p id=\"stim\">4</p>", "internal_node_id": "0.0-35.0-6.0", "time_elapsed": 287785, "key_press": -1, "trial_index": 50}, "uniqueid": "MTK2943:39GHHAVOMGYSHY4ZE7WCQ3PEPFQ4J8", "dateTime": 1519593956582}, {"current_trial": 51, "trialdata": {"rt": -1, "trial_type": "single-stim", "stimulus": "<p id=\"stim\">3</p>", "internal_node_id": "0.0-35.0-7.0", "time_elapsed": 288790, "key_press": -1, "trial_index": 51}, "uniqueid": "MTK2943:39GHHAVOMGYSHY4ZE7WCQ3PEPFQ4J8", "dateTime": 1519593957586}, {"current_trial": 52, "trialdata": {"rt": -1, "trial_type": "single-stim", "stimulus": "<p id=\"stim\">2</p>", "internal_node_id": "0.0-35.0-8.0", "time_elapsed": 289793, "key_press": -1, "trial_index": 52}, "uniqueid": "MTK2943:39GHHAVOMGYSHY4ZE7WCQ3PEPFQ4J8", "dateTime": 1519593958590}, {"current_trial": 53, "trialdata": {"rt": -1, "trial_type": "single-stim", "stimulus": "<p id=\"stim\">1</p>", "internal_node_id": "0.0-35.0-9.0", "time_elapsed": 290799, "key_press": -1, "trial_index": 53}, "uniqueid": "MTK2943:39GHHAVOMGYSHY4ZE7WCQ3PEPFQ4J8", "dateTime": 1519593959595}, {"current_trial": 54, "trialdata": {"rt": -1, "trial_type": "single-stim", "stimulus": "<p id=\"stim\">+</p>", "internal_node_id": "0.0-36.0-0.0", "time_elapsed": 292303, "key_press": -1, "type": "FIXATION", "trial_index": 54}, "uniqueid": "MTK2943:39GHHAVOMGYSHY4ZE7WCQ3PEPFQ4J8", "dateTime": 1519593961099}, {"current_trial": 55, "trialdata": {"rt": -1, "trial_type": "single-stim", "word": "proton", "stimulus": "<p id=\"stim\">PROTON</p>", "conditions": [18, 1200, "v", 18000], "internal_node_id": "0.0-37.0", "trial": 1, "time_elapsed": 293508, "serialpos": 0, "key_press": -1, "wordID": 1131, "type": "PRES_VIS", "trial_index": 55}, "uniqueid": "MTK2943:39GHHAVOMGYSHY4ZE7WCQ3PEPFQ4J8", "dateTime": 1519593962305}, {"current_trial": 56, "trialdata": {"rt": -1, "trial_type": "single-stim", "word": "grill", "stimulus": "<p id=\"stim\">GRILL</p>", "conditions": [18, 1200, "v", 18000], "internal_node_id": "0.0-38.0", "trial": 1, "time_elapsed": 295708, "serialpos": 1, "key_press": -1, "wordID": 660, "type": "PRES_VIS", "trial_index": 56}, "uniqueid": "MTK2943:39GHHAVOMGYSHY4ZE7WCQ3PEPFQ4J8", "dateTime": 1519593964505}, {"current_trial": 57, "trialdata": {"rt": -1, "trial_type": "single-stim", "word": "canal", "stimulus": "<p id=\"stim\">CANAL</p>", "conditions": [18, 1200, "v", 18000], "internal_node_id": "0.0-39.0", "trial": 1, "time_elapsed": 297945, "serialpos": 2, "key_press": -1, "wordID": 225, "type": "PRES_VIS", "trial_index": 57}, "uniqueid": "MTK2943:39GHHAVOMGYSHY4ZE7WCQ3PEPFQ4J8", "dateTime": 1519593966741}, {"current_trial": 58, "trialdata": {"rt": -1, "trial_type": "single-stim", "word": "cocktail", "stimulus": "<p id=\"stim\">COCKTAIL</p>", "conditions": [18, 1200, "v", 18000], "internal_node_id": "0.0-40.0", "trial": 1, "time_elapsed": 300073, "serialpos": 3, "key_press": -1, "wordID": 337, "type": "PRES_VIS", "trial_index": 58}, "uniqueid": "MTK2943:39GHHAVOMGYSHY4ZE7WCQ3PEPFQ4J8", "dateTime": 1519593968870}, {"current_trial": 59, "trialdata": {"rt": -1, "trial_type": "single-stim", "word": "suitcase", "stimulus": "<p id=\"stim\">SUITCASE</p>", "conditions": [18, 1200, "v", 18000], "internal_node_id": "0.0-41.0", "trial": 1, "time_elapsed": 302179, "serialpos": 4, "key_press": -1, "wordID": 1402, "type": "PRES_VIS", "trial_index": 59}, "uniqueid": "MTK2943:39GHHAVOMGYSHY4ZE7WCQ3PEPFQ4J8", "dateTime": 1519593970976}, {"current_trial": 60, "trialdata": {"rt": -1, "trial_type": "single-stim", "word": "egypt", "stimulus": "<p id=\"stim\">EGYPT</p>", "conditions": [18, 1200, "v", 18000], "internal_node_id": "0.0-42.0", "trial": 1, "time_elapsed": 304503, "serialpos": 5, "key_press": -1, "wordID": 518, "type": "PRES_VIS", "trial_index": 60}, "uniqueid": "MTK2943:39GHHAVOMGYSHY4ZE7WCQ3PEPFQ4J8", "dateTime": 1519593973299}, {"current_trial": 61, "trialdata": {"rt": -1, "trial_type": "single-stim", "word": "transplant", "stimulus": "<p id=\"stim\">TRANSPLANT</p>", "conditions": [18, 1200, "v", 18000], "internal_node_id": "0.0-43.0", "trial": 1, "time_elapsed": 306511, "serialpos": 6, "key_press": -1, "wordID": 1495, "type": "PRES_VIS", "trial_index": 61}, "uniqueid": "MTK2943:39GHHAVOMGYSHY4ZE7WCQ3PEPFQ4J8", "dateTime": 1519593975309}, {"current_trial": 62, "trialdata": {"rt": -1, "trial_type": "single-stim", "word": "heart", "stimulus": "<p id=\"stim\">HEART</p>", "conditions": [18, 1200, "v", 18000], "internal_node_id": "0.0-44.0", "trial": 1, "time_elapsed": 308586, "serialpos": 7, "key_press": -1, "wordID": 696, "type": "PRES_VIS", "trial_index": 62}, "uniqueid": "MTK2943:39GHHAVOMGYSHY4ZE7WCQ3PEPFQ4J8", "dateTime": 1519593977382}, {"current_trial": 63, "trialdata": {"rt": -1, "trial_type": "single-stim", "word": "survey", "stimulus": "<p id=\"stim\">SURVEY</p>", "conditions": [18, 1200, "v", 18000], "internal_node_id": "0.0-45.0", "trial": 1, "time_elapsed": 310723, "serialpos": 8, "key_press": -1, "wordID": 1413, "type": "PRES_VIS", "trial_index": 63}, "uniqueid": "MTK2943:39GHHAVOMGYSHY4ZE7WCQ3PEPFQ4J8", "dateTime": 1519593979520}, {"current_trial": 64, "trialdata": {"rt": -1, "trial_type": "single-stim", "word": "marker", "stimulus": "<p id=\"stim\">MARKER</p>", "conditions": [18, 1200, "v", 18000], "internal_node_id": "0.0-46.0", "trial": 1, "time_elapsed": 312921, "serialpos": 9, "key_press": -1, "wordID": 869, "type": "PRES_VIS", "trial_index": 64}, "uniqueid": "MTK2943:39GHHAVOMGYSHY4ZE7WCQ3PEPFQ4J8", "dateTime": 1519593981718}, {"current_trial": 65, "trialdata": {"rt": -1, "trial_type": "single-stim", "word": "brother", "stimulus": "<p id=\"stim\">BROTHER</p>", "conditions": [18, 1200, "v", 18000], "internal_node_id": "0.0-47.0", "trial": 1, "time_elapsed": 315043, "serialpos": 10, "key_press": -1, "wordID": 178, "type": "PRES_VIS", "trial_index": 65}, "uniqueid": "MTK2943:39GHHAVOMGYSHY4ZE7WCQ3PEPFQ4J8", "dateTime": 1519593983840}, {"current_trial": 66, "trialdata": {"rt": -1, "trial_type": "single-stim", "word": "stallion", "stimulus": "<p id=\"stim\">STALLION</p>", "conditions": [18, 1200, "v", 18000], "internal_node_id": "0.0-48.0", "trial": 1, "time_elapsed": 317214, "serialpos": 11, "key_press": -1, "wordID": 1368, "type": "PRES_VIS", "trial_index": 66}, "uniqueid": "MTK2943:39GHHAVOMGYSHY4ZE7WCQ3PEPFQ4J8", "dateTime": 1519593986010}, {"current_trial": 67, "trialdata": {"rt": -1, "trial_type": "single-stim", "word": "yacht", "stimulus": "<p id=\"stim\">YACHT</p>", "conditions": [18, 1200, "v", 18000], "internal_node_id": "0.0-49.0", "trial": 1, "time_elapsed": 319290, "serialpos": 12, "key_press": -1, "wordID": 1628, "type": "PRES_VIS", "trial_index": 67}, "uniqueid": "MTK2943:39GHHAVOMGYSHY4ZE7WCQ3PEPFQ4J8", "dateTime": 1519593988087}, {"current_trial": 68, "trialdata": {"rt": -1, "trial_type": "single-stim", "word": "jello", "stimulus": "<p id=\"stim\">JELLO</p>", "conditions": [18, 1200, "v", 18000], "internal_node_id": "0.0-50.0", "trial": 1, "time_elapsed": 321329, "serialpos": 13, "key_press": -1, "wordID": 753, "type": "PRES_VIS", "trial_index": 68}, "uniqueid": "MTK2943:39GHHAVOMGYSHY4ZE7WCQ3PEPFQ4J8", "dateTime": 1519593990137}, {"current_trial": 69, "trialdata": {"rt": -1, "trial_type": "single-stim", "word": "garbage", "stimulus": "<p id=\"stim\">GARBAGE</p>", "conditions": [18, 1200, "v", 18000], "internal_node_id": "0.0-51.0", "trial": 1, "time_elapsed": 323435, "serialpos": 14, "key_press": -1, "wordID": 621, "type": "PRES_VIS", "trial_index": 69}, "uniqueid": "MTK2943:39GHHAVOMGYSHY4ZE7WCQ3PEPFQ4J8", "dateTime": 1519593992232}, {"current_trial": 70, "trialdata": {"rt": -1, "trial_type": "single-stim", "word": "orchid", "stimulus": "<p id=\"stim\">ORCHID</p>", "conditions": [18, 1200, "v", 18000], "internal_node_id": "0.0-52.0", "trial": 1, "time_elapsed": 325746, "serialpos": 15, "key_press": -1, "wordID": 981, "type": "PRES_VIS", "trial_index": 70}, "uniqueid": "MTK2943:39GHHAVOMGYSHY4ZE7WCQ3PEPFQ4J8", "dateTime": 1519593994542}, {"current_trial": 71, "trialdata": {"rt": -1, "trial_type": "single-stim", "word": "mask", "stimulus": "<p id=\"stim\">MASK</p>", "conditions": [18, 1200, "v", 18000], "internal_node_id": "0.0-53.0", "trial": 1, "time_elapsed": 327933, "serialpos": 16, "key_press": -1, "wordID": 875, "type": "PRES_VIS", "trial_index": 71}, "uniqueid": "MTK2943:39GHHAVOMGYSHY4ZE7WCQ3PEPFQ4J8", "dateTime": 1519593996729}, {"current_trial": 72, "trialdata": {"rt": -1, "trial_type": "single-stim", "word": "scallop", "stimulus": "<p id=\"stim\">SCALLOP</p>", "conditions": [18, 1200, "v", 18000], "internal_node_id": "0.0-54.0", "trial": 1, "time_elapsed": 330195, "serialpos": 17, "key_press": -1, "wordID": 1241, "type": "PRES_VIS", "trial_index": 72}, "uniqueid": "MTK2943:39GHHAVOMGYSHY4ZE7WCQ3PEPFQ4J8", "dateTime": 1519593998991}, {"current_trial": 73, "trialdata": {"rt": -1, "trial_type": "single-stim", "stimulus": "", "internal_node_id": "0.0-55.0-0.0", "time_elapsed": 332499, "key_press": -1, "type": "PRE_RECALL_DELAY", "trial_index": 73}, "uniqueid": "MTK2943:39GHHAVOMGYSHY4ZE7WCQ3PEPFQ4J8", "dateTime": 1519594001296}, {"current_trial": 74, "trialdata": {"rt": -1000, "trial_type": "single-audio", "stimulus": "/static/audio/400Hz.wav", "internal_node_id": "0.0-56.0", "time_elapsed": 333007, "key_press": -1, "type": "PRE_RECALL_ALERT", "trial_index": 74}, "uniqueid": "MTK2943:39GHHAVOMGYSHY4ZE7WCQ3PEPFQ4J8", "dateTime": 1519594001803}, {"current_trial": 75, "trialdata": {"rt": [2659, 4193, 5946, 7882, 11311, 16957, 42471], "recwords": ["scallop", "mask", "brother", "stallion", "suitcase", "garbage", "egypt"], "key_times": [1300, 1512, 1730, 1774, 1914, 2129, 2352, 2659, 3345, 3481, 3655, 3731, 4193, 4853, 5046, 5127, 5241, 5330, 5522, 5691, 5946, 6336, 6541, 6731, 6791, 6943, 7121, 7295, 7494, 7882, 10151, 10233, 10392, 10472, 10676, 10867, 11033, 11217, 11311, 16016, 16121, 16295, 16366, 16489, 16566, 16712, 16957, 40542, 41041, 41455, 41937, 42039, 42471], "trial_type": "free-recall", "conditions": [18, 1200, "v", 18000], "internal_node_id": "0.0-57.0-0.0", "key_presses": [83, 67, 65, 76, 76, 79, 80, 13, 77, 65, 83, 75, 13, 66, 82, 79, 84, 72, 69, 82, 13, 83, 84, 65, 76, 76, 73, 79, 78, 13, 83, 85, 73, 84, 67, 65, 83, 69, 13, 71, 65, 82, 66, 65, 71, 69, 13, 69, 71, 89, 80, 84, 13], "trial": 1, "time_elapsed": 393022, "type": "FREE_RECALL", "trial_index": 75}, "uniqueid": "MTK2943:39GHHAVOMGYSHY4ZE7WCQ3PEPFQ4J8", "dateTime": 1519594061828}, {"current_trial": 76, "trialdata": {"rt": 10281, "trial_type": "text", "internal_node_id": "0.0-58.0", "time_elapsed": 405317, "key_press": 32, "type": "INSTRUCTIONS", "trial_index": 76}, "uniqueid": "MTK2943:39GHHAVOMGYSHY4ZE7WCQ3PEPFQ4J8", "dateTime": 1519594074114}, {"current_trial": 77, "trialdata": {"rt": [4451, 6380, 8479, 10400, 12386, 13639, 16312, 18371, 21478, 23232], "trial_type": "math-distractor", "key_times": [3370, 3809, 4451, 6044, 6196, 6380, 8112, 8289, 8479, 10035, 10220, 10400, 12029, 12182, 12386, 13419, 13639, 15927, 16110, 16312, 17919, 18153, 18371, 21132, 21272, 21478, 22880, 23036, 23232], "responses": ["21", "14", "15", "12", "21", "8", "15", "16", "22", "11"], "num2": [9, 4, 4, 3, 4, 1, 4, 5, 8, 3, 7], "num3": [6, 6, 9, 3, 8, 6, 8, 9, 5, 2, 6], "conditions": [12, 800, "v", 24000], "internal_node_id": "0.0-59.0", "key_presses": [98, 97, 13, 97, 100, 13, 97, 101, 13, 97, 98, 13, 98, 97, 13, 104, 13, 97, 101, 13, 97, 102, 13, 98, 98, 13, 97, 97, 13], "trial": 2, "time_elapsed": 430331, "type": "DISTRACTOR", "trial_index": 77, "num1": [7, 4, 2, 6, 9, 1, 3, 2, 9, 6, 2]}, "uniqueid": "MTK2943:39GHHAVOMGYSHY4ZE7WCQ3PEPFQ4J8", "dateTime": 1519594099127}, {"current_trial": 78, "trialdata": {"rt": -1, "trial_type": "single-stim", "stimulus": "<p id=\"stim\">10</p>", "internal_node_id": "0.0-60.0-0.0", "time_elapsed": 433336, "key_press": -1, "trial_index": 78}, "uniqueid": "MTK2943:39GHHAVOMGYSHY4ZE7WCQ3PEPFQ4J8", "dateTime": 1519594102132}, {"current_trial": 79, "trialdata": {"rt": -1, "trial_type": "single-stim", "stimulus": "<p id=\"stim\">9</p>", "internal_node_id": "0.0-60.0-1.0", "time_elapsed": 434340, "key_press": -1, "trial_index": 79}, "uniqueid": "MTK2943:39GHHAVOMGYSHY4ZE7WCQ3PEPFQ4J8", "dateTime": 1519594103137}, {"current_trial": 80, "trialdata": {"rt": -1, "trial_type": "single-stim", "stimulus": "<p id=\"stim\">8</p>", "internal_node_id": "0.0-60.0-2.0", "time_elapsed": 435348, "key_press": -1, "trial_index": 80}, "uniqueid": "MTK2943:39GHHAVOMGYSHY4ZE7WCQ3PEPFQ4J8", "dateTime": 1519594104144}, {"current_trial": 81, "trialdata": {"rt": -1, "trial_type": "single-stim", "stimulus": "<p id=\"stim\">7</p>", "internal_node_id": "0.0-60.0-3.0", "time_elapsed": 436354, "key_press": -1, "trial_index": 81}, "uniqueid": "MTK2943:39GHHAVOMGYSHY4ZE7WCQ3PEPFQ4J8", "dateTime": 1519594105150}, {"current_trial": 82, "trialdata": {"rt": -1, "trial_type": "single-stim", "stimulus": "<p id=\"stim\">6</p>", "internal_node_id": "0.0-60.0-4.0", "time_elapsed": 437361, "key_press": -1, "trial_index": 82}, "uniqueid": "MTK2943:39GHHAVOMGYSHY4ZE7WCQ3PEPFQ4J8", "dateTime": 1519594106157}, {"current_trial": 83, "trialdata": {"rt": -1, "trial_type": "single-stim", "stimulus": "<p id=\"stim\">5</p>", "internal_node_id": "0.0-60.0-5.0", "time_elapsed": 438369, "key_press": -1, "trial_index": 83}, "uniqueid": "MTK2943:39GHHAVOMGYSHY4ZE7WCQ3PEPFQ4J8", "dateTime": 1519594107165}, {"current_trial": 84, "trialdata": {"rt": -1, "trial_type": "single-stim", "stimulus": "<p id=\"stim\">4</p>", "internal_node_id": "0.0-60.0-6.0", "time_elapsed": 439376, "key_press": -1, "trial_index": 84}, "uniqueid": "MTK2943:39GHHAVOMGYSHY4ZE7WCQ3PEPFQ4J8", "dateTime": 1519594108172}, {"current_trial": 85, "trialdata": {"rt": -1, "trial_type": "single-stim", "stimulus": "<p id=\"stim\">3</p>", "internal_node_id": "0.0-60.0-7.0", "time_elapsed": 440380, "key_press": -1, "trial_index": 85}, "uniqueid": "MTK2943:39GHHAVOMGYSHY4ZE7WCQ3PEPFQ4J8", "dateTime": 1519594109177}, {"current_trial": 86, "trialdata": {"rt": -1, "trial_type": "single-stim", "stimulus": "<p id=\"stim\">2</p>", "internal_node_id": "0.0-60.0-8.0", "time_elapsed": 441385, "key_press": -1, "trial_index": 86}, "uniqueid": "MTK2943:39GHHAVOMGYSHY4ZE7WCQ3PEPFQ4J8", "dateTime": 1519594110181}, {"current_trial": 87, "trialdata": {"rt": -1, "trial_type": "single-stim", "stimulus": "<p id=\"stim\">1</p>", "internal_node_id": "0.0-60.0-9.0", "time_elapsed": 442391, "key_press": -1, "trial_index": 87}, "uniqueid": "MTK2943:39GHHAVOMGYSHY4ZE7WCQ3PEPFQ4J8", "dateTime": 1519594111187}, {"current_trial": 88, "trialdata": {"rt": -1, "trial_type": "single-stim", "stimulus": "<p id=\"stim\">+</p>", "internal_node_id": "0.0-61.0-0.0", "time_elapsed": 443894, "key_press": -1, "type": "FIXATION", "trial_index": 88}, "uniqueid": "MTK2943:39GHHAVOMGYSHY4ZE7WCQ3PEPFQ4J8", "dateTime": 1519594112691}, {"current_trial": 89, "trialdata": {"rt": -1, "trial_type": "single-stim", "word": "jelly", "stimulus": "<p id=\"stim\">JELLY</p>", "conditions": [12, 800, "v", 24000], "internal_node_id": "0.0-62.0", "trial": 2, "time_elapsed": 444698, "serialpos": 0, "key_press": -1, "wordID": 754, "type": "PRES_VIS", "trial_index": 89}, "uniqueid": "MTK2943:39GHHAVOMGYSHY4ZE7WCQ3PEPFQ4J8", "dateTime": 1519594113494}, {"current_trial": 90, "trialdata": {"rt": -1, "trial_type": "single-stim", "word": "dust", "stimulus": "<p id=\"stim\">DUST</p>", "conditions": [12, 800, "v", 24000], "internal_node_id": "0.0-63.0", "trial": 2, "time_elapsed": 446687, "serialpos": 1, "key_press": -1, "wordID": 507, "type": "PRES_VIS", "trial_index": 90}, "uniqueid": "MTK2943:39GHHAVOMGYSHY4ZE7WCQ3PEPFQ4J8", "dateTime": 1519594115483}, {"current_trial": 91, "trialdata": {"rt": -1, "trial_type": "single-stim", "word": "cocoon", "stimulus": "<p id=\"stim\">COCOON</p>", "conditions": [12, 800, "v", 24000], "internal_node_id": "0.0-64.0", "trial": 2, "time_elapsed": 448463, "serialpos": 2, "key_press": -1, "wordID": 338, "type": "PRES_VIS", "trial_index": 91}, "uniqueid": "MTK2943:39GHHAVOMGYSHY4ZE7WCQ3PEPFQ4J8", "dateTime": 1519594117260}, {"current_trial": 92, "trialdata": {"rt": -1, "trial_type": "single-stim", "word": "camel", "stimulus": "<p id=\"stim\">CAMEL</p>", "conditions": [12, 800, "v", 24000], "internal_node_id": "0.0-65.0", "trial": 2, "time_elapsed": 450331, "serialpos": 3, "key_press": -1, "wordID": 222, "type": "PRES_VIS", "trial_index": 92}, "uniqueid": "MTK2943:39GHHAVOMGYSHY4ZE7WCQ3PEPFQ4J8", "dateTime": 1519594119127}, {"current_trial": 93, "trialdata": {"rt": -1, "trial_type": "single-stim", "word": "donkey", "stimulus": "<p id=\"stim\">DONKEY</p>", "conditions": [12, 800, "v", 24000], "internal_node_id": "0.0-66.0", "trial": 2, "time_elapsed": 452320, "serialpos": 4, "key_press": -1, "wordID": 483, "type": "PRES_VIS", "trial_index": 93}, "uniqueid": "MTK2943:39GHHAVOMGYSHY4ZE7WCQ3PEPFQ4J8", "dateTime": 1519594121116}, {"current_trial": 94, "trialdata": {"rt": -1, "trial_type": "single-stim", "word": "wrench", "stimulus": "<p id=\"stim\">WRENCH</p>", "conditions": [12, 800, "v", 24000], "internal_node_id": "0.0-67.0", "trial": 2, "time_elapsed": 454309, "serialpos": 5, "key_press": -1, "wordID": 1624, "type": "PRES_VIS", "trial_index": 94}, "uniqueid": "MTK2943:39GHHAVOMGYSHY4ZE7WCQ3PEPFQ4J8", "dateTime": 1519594123105}, {"current_trial": 95, "trialdata": {"rt": -1, "trial_type": "single-stim", "word": "label", "stimulus": "<p id=\"stim\">LABEL</p>", "conditions": [12, 800, "v", 24000], "internal_node_id": "0.0-68.0", "trial": 2, "time_elapsed": 455985, "serialpos": 6, "key_press": -1, "wordID": 789, "type": "PRES_VIS", "trial_index": 95}, "uniqueid": "MTK2943:39GHHAVOMGYSHY4ZE7WCQ3PEPFQ4J8", "dateTime": 1519594124781}, {"current_trial": 96, "trialdata": {"rt": -1, "trial_type": "single-stim", "word": "inmate", "stimulus": "<p id=\"stim\">INMATE</p>", "conditions": [12, 800, "v", 24000], "internal_node_id": "0.0-69.0", "trial": 2, "time_elapsed": 457778, "serialpos": 7, "key_press": -1, "wordID": 737, "type": "PRES_VIS", "trial_index": 96}, "uniqueid": "MTK2943:39GHHAVOMGYSHY4ZE7WCQ3PEPFQ4J8", "dateTime": 1519594126575}, {"current_trial": 97, "trialdata": {"rt": -1, "trial_type": "single-stim", "word": "ankle", "stimulus": "<p id=\"stim\">ANKLE</p>", "conditions": [12, 800, "v", 24000], "internal_node_id": "0.0-70.0", "trial": 2, "time_elapsed": 459613, "serialpos": 8, "key_press": -1, "wordID": 23, "type": "PRES_VIS", "trial_index": 97}, "uniqueid": "MTK2943:39GHHAVOMGYSHY4ZE7WCQ3PEPFQ4J8", "dateTime": 1519594128409}, {"current_trial": 98, "trialdata": {"rt": -1, "trial_type": "single-stim", "word": "stone", "stimulus": "<p id=\"stim\">STONE</p>", "conditions": [12, 800, "v", 24000], "internal_node_id": "0.0-71.0", "trial": 2, "time_elapsed": 461233, "serialpos": 9, "key_press": -1, "wordID": 1384, "type": "PRES_VIS", "trial_index": 98}, "uniqueid": "MTK2943:39GHHAVOMGYSHY4ZE7WCQ3PEPFQ4J8", "dateTime": 1519594130029}, {"current_trial": 99, "trialdata": {"rt": -1, "trial_type": "single-stim", "word": "custard", "stimulus": "<p id=\"stim\">CUSTARD</p>", "conditions": [12, 800, "v", 24000], "internal_node_id": "0.0-72.0", "trial": 2, "time_elapsed": 463016, "serialpos": 10, "key_press": -1, "wordID": 428, "type": "PRES_VIS", "trial_index": 99}, "uniqueid": "MTK2943:39GHHAVOMGYSHY4ZE7WCQ3PEPFQ4J8", "dateTime": 1519594131812}, {"current_trial": 100, "trialdata": {"rt": -1, "trial_type": "single-stim", "word": "tablet", "stimulus": "<p id=\"stim\">TABLET</p>", "conditions": [12, 800, "v", 24000], "internal_node_id": "0.0-73.0", "trial": 2, "time_elapsed": 464771, "serialpos": 11, "key_press": -1, "wordID": 1426, "type": "PRES_VIS", "trial_index": 100}, "uniqueid": "MTK2943:39GHHAVOMGYSHY4ZE7WCQ3PEPFQ4J8", "dateTime": 1519594133567}, {"current_trial": 101, "trialdata": {"rt": -1, "trial_type": "single-stim", "stimulus": "", "internal_node_id": "0.0-74.0-0.0", "time_elapsed": 467138, "key_press": -1, "type": "PRE_RECALL_DELAY", "trial_index": 101}, "uniqueid": "MTK2943:39GHHAVOMGYSHY4ZE7WCQ3PEPFQ4J8", "dateTime": 1519594135935}, {"current_trial": 102, "trialdata": {"rt": -1000, "trial_type": "single-audio", "stimulus": "/static/audio/400Hz.wav", "internal_node_id": "0.0-75.0", "time_elapsed": 467643, "key_press": -1, "type": "PRE_RECALL_ALERT", "trial_index": 102}, "uniqueid": "MTK2943:39GHHAVOMGYSHY4ZE7WCQ3PEPFQ4J8", "dateTime": 1519594136439}, {"current_trial": 103, "trialdata": {"rt": [2348, 3406, 4834, 6099, 7846, 9011, 10296, 13218, 18837, 42430], "recwords": ["tablet", "stone", "custard", "ankle", "inmate", "camel", "wrench", "cocoon", "label", "jelly"], "key_times": [1305, 1529, 1777, 1874, 2022, 2204, 2348, 2613, 2809, 2886, 3096, 3175, 3406, 3666, 3825, 3972, 4194, 4396, 4564, 4740, 4834, 5082, 5224, 5558, 5777, 5882, 6099, 6401, 6587, 6995, 7131, 7363, 7535, 7846, 8069, 8261, 8319, 8576, 8665, 9011, 9231, 9426, 9607, 9696, 9811, 9887, 10296, 12020, 12138, 12318, 12465, 12601, 12736, 13218, 17942, 18042, 18309, 18517, 18606, 18837, 41734, 41891, 42015, 42151, 42241, 42430], "trial_type": "free-recall", "conditions": [12, 800, "v", 24000], "internal_node_id": "0.0-76.0-0.0", "key_presses": [84, 65, 66, 76, 69, 84, 13, 83, 84, 79, 78, 69, 13, 67, 85, 83, 84, 65, 82, 68, 13, 65, 78, 75, 76, 69, 13, 73, 78, 77, 65, 84, 69, 13, 67, 65, 77, 69, 76, 13, 87, 82, 69, 78, 67, 72, 13, 67, 79, 67, 79, 79, 78, 13, 76, 65, 66, 69, 76, 13, 74, 69, 76, 76, 89, 13], "trial": 2, "time_elapsed": 527654, "type": "FREE_RECALL", "trial_index": 103}, "uniqueid": "MTK2943:39GHHAVOMGYSHY4ZE7WCQ3PEPFQ4J8", "dateTime": 1519594196462}, {"current_trial": 104, "trialdata": {"rt": 1143, "trial_type": "text", "internal_node_id": "0.0-77.0", "time_elapsed": 530812, "key_press": 32, "type": "INSTRUCTIONS", "trial_index": 104}, "uniqueid": "MTK2943:39GHHAVOMGYSHY4ZE7WCQ3PEPFQ4J8", "dateTime": 1519594199608}, {"current_trial": 105, "trialdata": {"rt": [1703, 3783, 5784, 7112, 8846, 13337, 14902, 16442, 18013, 19528, 21514, 23590], "trial_type": "math-distractor", "key_times": [1217, 1453, 1703, 3325, 3560, 3783, 5336, 5551, 5784, 6862, 7112, 8407, 8624, 8846, 13008, 13160, 13337, 14561, 14723, 14902, 16073, 16259, 16442, 17632, 17789, 18013, 19077, 19301, 19528, 21095, 21319, 21514, 23217, 23409, 23590], "responses": ["13", "16", "18", "6", "16", "21", "15", "15", "20", "19", "19", "17"], "num2": [6, 3, 7, 1, 9, 5, 1, 7, 4, 7, 7, 6, 8], "num3": [3, 8, 3, 3, 3, 7, 7, 6, 7, 5, 9, 8, 9], "conditions": [24, 1600, "v", 24000], "internal_node_id": "0.0-78.0", "key_presses": [97, 99, 13, 97, 102, 13, 97, 104, 13, 102, 13, 97, 102, 13, 98, 97, 13, 97, 101, 13, 97, 101, 13, 98, 96, 13, 97, 105, 13, 97, 105, 13, 97, 103, 13], "trial": 3, "time_elapsed": 556824, "type": "DISTRACTOR", "trial_index": 105, "num1": [4, 5, 8, 2, 4, 9, 7, 2, 9, 7, 5, 3, 9]}, "uniqueid": "MTK2943:39GHHAVOMGYSHY4ZE7WCQ3PEPFQ4J8", "dateTime": 1519594225620}, {"current_trial": 106, "trialdata": {"rt": -1, "trial_type": "single-stim", "stimulus": "<p id=\"stim\">10</p>", "internal_node_id": "0.0-79.0-0.0", "time_elapsed": 559834, "key_press": -1, "trial_index": 106}, "uniqueid": "MTK2943:39GHHAVOMGYSHY4ZE7WCQ3PEPFQ4J8", "dateTime": 1519594228630}, {"current_trial": 107, "trialdata": {"rt": -1, "trial_type": "single-stim", "stimulus": "<p id=\"stim\">9</p>", "internal_node_id": "0.0-79.0-1.0", "time_elapsed": 560839, "key_press": -1, "trial_index": 107}, "uniqueid": "MTK2943:39GHHAVOMGYSHY4ZE7WCQ3PEPFQ4J8", "dateTime": 1519594229635}, {"current_trial": 108, "trialdata": {"rt": -1, "trial_type": "single-stim", "stimulus": "<p id=\"stim\">8</p>", "internal_node_id": "0.0-79.0-2.0", "time_elapsed": 561842, "key_press": -1, "trial_index": 108}, "uniqueid": "MTK2943:39GHHAVOMGYSHY4ZE7WCQ3PEPFQ4J8", "dateTime": 1519594230639}, {"current_trial": 109, "trialdata": {"rt": -1, "trial_type": "single-stim", "stimulus": "<p id=\"stim\">7</p>", "internal_node_id": "0.0-79.0-3.0", "time_elapsed": 562847, "key_press": -1, "trial_index": 109}, "uniqueid": "MTK2943:39GHHAVOMGYSHY4ZE7WCQ3PEPFQ4J8", "dateTime": 1519594231644}, {"current_trial": 110, "trialdata": {"rt": -1, "trial_type": "single-stim", "stimulus": "<p id=\"stim\">6</p>", "internal_node_id": "0.0-79.0-4.0", "time_elapsed": 563854, "key_press": -1, "trial_index": 110}, "uniqueid": "MTK2943:39GHHAVOMGYSHY4ZE7WCQ3PEPFQ4J8", "dateTime": 1519594232650}, {"current_trial": 111, "trialdata": {"rt": -1, "trial_type": "single-stim", "stimulus": "<p id=\"stim\">5</p>", "internal_node_id": "0.0-79.0-5.0", "time_elapsed": 564858, "key_press": -1, "trial_index": 111}, "uniqueid": "MTK2943:39GHHAVOMGYSHY4ZE7WCQ3PEPFQ4J8", "dateTime": 1519594233654}, {"current_trial": 112, "trialdata": {"rt": -1, "trial_type": "single-stim", "stimulus": "<p id=\"stim\">4</p>", "internal_node_id": "0.0-79.0-6.0", "time_elapsed": 565863, "key_press": -1, "trial_index": 112}, "uniqueid": "MTK2943:39GHHAVOMGYSHY4ZE7WCQ3PEPFQ4J8", "dateTime": 1519594234659}, {"current_trial": 113, "trialdata": {"rt": -1, "trial_type": "single-stim", "stimulus": "<p id=\"stim\">3</p>", "internal_node_id": "0.0-79.0-7.0", "time_elapsed": 566870, "key_press": -1, "trial_index": 113}, "uniqueid": "MTK2943:39GHHAVOMGYSHY4ZE7WCQ3PEPFQ4J8", "dateTime": 1519594235666}, {"current_trial": 114, "trialdata": {"rt": -1, "trial_type": "single-stim", "stimulus": "<p id=\"stim\">2</p>", "internal_node_id": "0.0-79.0-8.0", "time_elapsed": 567873, "key_press": -1, "trial_index": 114}, "uniqueid": "MTK2943:39GHHAVOMGYSHY4ZE7WCQ3PEPFQ4J8", "dateTime": 1519594236669}, {"current_trial": 115, "trialdata": {"rt": -1, "trial_type": "single-stim", "stimulus": "<p id=\"stim\">1</p>", "internal_node_id": "0.0-79.0-9.0", "time_elapsed": 568879, "key_press": -1, "trial_index": 115}, "uniqueid": "MTK2943:39GHHAVOMGYSHY4ZE7WCQ3PEPFQ4J8", "dateTime": 1519594237675}, {"current_trial": 116, "trialdata": {"rt": -1, "trial_type": "single-stim", "stimulus": "<p id=\"stim\">+</p>", "internal_node_id": "0.0-80.0-0.0", "time_elapsed": 570383, "key_press": -1, "type": "FIXATION", "trial_index": 116}, "uniqueid": "MTK2943:39GHHAVOMGYSHY4ZE7WCQ3PEPFQ4J8", "dateTime": 1519594239179}, {"current_trial": 117, "trialdata": {"rt": -1, "trial_type": "single-stim", "word": "slide", "stimulus": "<p id=\"stim\">SLIDE</p>", "conditions": [24, 1600, "v", 24000], "internal_node_id": "0.0-81.0", "trial": 3, "time_elapsed": 571987, "serialpos": 0, "key_press": -1, "wordID": 1325, "type": "PRES_VIS", "trial_index": 117}, "uniqueid": "MTK2943:39GHHAVOMGYSHY4ZE7WCQ3PEPFQ4J8", "dateTime": 1519594240783}, {"current_trial": 118, "trialdata": {"rt": -1, "trial_type": "single-stim", "word": "plaza", "stimulus": "<p id=\"stim\">PLAZA</p>", "conditions": [24, 1600, "v", 24000], "internal_node_id": "0.0-82.0", "trial": 3, "time_elapsed": 574730, "serialpos": 1, "key_press": -1, "wordID": 1087, "type": "PRES_VIS", "trial_index": 118}, "uniqueid": "MTK2943:39GHHAVOMGYSHY4ZE7WCQ3PEPFQ4J8", "dateTime": 1519594243527}, {"current_trial": 119, "trialdata": {"rt": -1, "trial_type": "single-stim", "word": "waiter", "stimulus": "<p id=\"stim\">WAITER</p>", "conditions": [24, 1600, "v", 24000], "internal_node_id": "0.0-83.0", "trial": 3, "time_elapsed": 577408, "serialpos": 2, "key_press": -1, "wordID": 1579, "type": "PRES_VIS", "trial_index": 119}, "uniqueid": "MTK2943:39GHHAVOMGYSHY4ZE7WCQ3PEPFQ4J8", "dateTime": 1519594246204}, {"current_trial": 120, "trialdata": {"rt": -1, "trial_type": "single-stim", "word": "office", "stimulus": "<p id=\"stim\">OFFICE</p>", "conditions": [24, 1600, "v", 24000], "internal_node_id": "0.0-84.0", "trial": 3, "time_elapsed": 580154, "serialpos": 3, "key_press": -1, "wordID": 971, "type": "PRES_VIS", "trial_index": 120}, "uniqueid": "MTK2943:39GHHAVOMGYSHY4ZE7WCQ3PEPFQ4J8", "dateTime": 1519594248950}, {"current_trial": 121, "trialdata": {"rt": -1, "trial_type": "single-stim", "word": "window", "stimulus": "<p id=\"stim\">WINDOW</p>", "conditions": [24, 1600, "v", 24000], "internal_node_id": "0.0-85.0", "trial": 3, "time_elapsed": 582631, "serialpos": 4, "key_press": -1, "wordID": 1610, "type": "PRES_VIS", "trial_index": 121}, "uniqueid": "MTK2943:39GHHAVOMGYSHY4ZE7WCQ3PEPFQ4J8", "dateTime": 1519594251427}, {"current_trial": 122, "trialdata": {"rt": -1, "trial_type": "single-stim", "word": "woman", "stimulus": "<p id=\"stim\">WOMAN</p>", "conditions": [24, 1600, "v", 24000], "internal_node_id": "0.0-86.0", "trial": 3, "time_elapsed": 585271, "serialpos": 5, "key_press": -1, "wordID": 1619, "type": "PRES_VIS", "trial_index": 122}, "uniqueid": "MTK2943:39GHHAVOMGYSHY4ZE7WCQ3PEPFQ4J8", "dateTime": 1519594254068}, {"current_trial": 123, "trialdata": {"rt": -1, "trial_type": "single-stim", "word": "tuba", "stimulus": "<p id=\"stim\">TUBA</p>", "conditions": [24, 1600, "v", 24000], "internal_node_id": "0.0-87.0", "trial": 3, "time_elapsed": 588024, "serialpos": 6, "key_press": -1, "wordID": 1514, "type": "PRES_VIS", "trial_index": 123}, "uniqueid": "MTK2943:39GHHAVOMGYSHY4ZE7WCQ3PEPFQ4J8", "dateTime": 1519594256820}, {"current_trial": 124, "trialdata": {"rt": -1, "trial_type": "single-stim", "word": "fragrance", "stimulus": "<p id=\"stim\">FRAGRANCE</p>", "conditions": [24, 1600, "v", 24000], "internal_node_id": "0.0-88.0", "trial": 3, "time_elapsed": 590677, "serialpos": 7, "key_press": -1, "wordID": 598, "type": "PRES_VIS", "trial_index": 124}, "uniqueid": "MTK2943:39GHHAVOMGYSHY4ZE7WCQ3PEPFQ4J8", "dateTime": 1519594259473}, {"current_trial": 125, "trialdata": {"rt": -1, "trial_type": "single-stim", "word": "shovel", "stimulus": "<p id=\"stim\">SHOVEL</p>", "conditions": [24, 1600, "v", 24000], "internal_node_id": "0.0-89.0", "trial": 3, "time_elapsed": 593259, "serialpos": 8, "key_press": -1, "wordID": 1294, "type": "PRES_VIS", "trial_index": 125}, "uniqueid": "MTK2943:39GHHAVOMGYSHY4ZE7WCQ3PEPFQ4J8", "dateTime": 1519594262055}, {"current_trial": 126, "trialdata": {"rt": -1, "trial_type": "single-stim", "word": "sidewalk", "stimulus": "<p id=\"stim\">SIDEWALK</p>", "conditions": [24, 1600, "v", 24000], "internal_node_id": "0.0-90.0", "trial": 3, "time_elapsed": 595662, "serialpos": 9, "key_press": -1, "wordID": 1302, "type": "PRES_VIS", "trial_index": 126}, "uniqueid": "MTK2943:39GHHAVOMGYSHY4ZE7WCQ3PEPFQ4J8", "dateTime": 1519594264459}, {"current_trial": 127, "trialdata": {"rt": -1, "trial_type": "single-stim", "word": "liver", "stimulus": "<p id=\"stim\">LIVER</p>", "conditions": [24, 1600, "v", 24000], "internal_node_id": "0.0-91.0", "trial": 3, "time_elapsed": 598465, "serialpos": 10, "key_press": -1, "wordID": 832, "type": "PRES_VIS", "trial_index": 127}, "uniqueid": "MTK2943:39GHHAVOMGYSHY4ZE7WCQ3PEPFQ4J8", "dateTime": 1519594267261}, {"current_trial": 128, "trialdata": {"rt": -1, "trial_type": "single-stim", "word": "kidney", "stimulus": "<p id=\"stim\">KIDNEY</p>", "conditions": [24, 1600, "v", 24000], "internal_node_id": "0.0-92.0", "trial": 3, "time_elapsed": 601215, "serialpos": 11, "key_press": -1, "wordID": 775, "type": "PRES_VIS", "trial_index": 128}, "uniqueid": "MTK2943:39GHHAVOMGYSHY4ZE7WCQ3PEPFQ4J8", "dateTime": 1519594270012}, {"current_trial": 129, "trialdata": {"rt": -1, "trial_type": "single-stim", "word": "dress", "stimulus": "<p id=\"stim\">DRESS</p>", "conditions": [24, 1600, "v", 24000], "internal_node_id": "0.0-93.0", "trial": 3, "time_elapsed": 603711, "serialpos": 12, "key_press": -1, "wordID": 494, "type": "PRES_VIS", "trial_index": 129}, "uniqueid": "MTK2943:39GHHAVOMGYSHY4ZE7WCQ3PEPFQ4J8", "dateTime": 1519594272507}, {"current_trial": 130, "trialdata": {"rt": -1, "trial_type": "single-stim", "word": "wardrobe", "stimulus": "<p id=\"stim\">WARDROBE</p>", "conditions": [24, 1600, "v", 24000], "internal_node_id": "0.0-94.0", "trial": 3, "time_elapsed": 606331, "serialpos": 13, "key_press": -1, "wordID": 1586, "type": "PRES_VIS", "trial_index": 130}, "uniqueid": "MTK2943:39GHHAVOMGYSHY4ZE7WCQ3PEPFQ4J8", "dateTime": 1519594275127}, {"current_trial": 131, "trialdata": {"rt": -1, "trial_type": "single-stim", "word": "truck", "stimulus": "<p id=\"stim\">TRUCK</p>", "conditions": [24, 1600, "v", 24000], "internal_node_id": "0.0-95.0", "trial": 3, "time_elapsed": 608969, "serialpos": 14, "key_press": -1, "wordID": 1511, "type": "PRES_VIS", "trial_index": 131}, "uniqueid": "MTK2943:39GHHAVOMGYSHY4ZE7WCQ3PEPFQ4J8", "dateTime": 1519594277766}, {"current_trial": 132, "trialdata": {"rt": -1, "trial_type": "single-stim", "word": "rifle", "stimulus": "<p id=\"stim\">RIFLE</p>", "conditions": [24, 1600, "v", 24000], "internal_node_id": "0.0-96.0", "trial": 3, "time_elapsed": 611525, "serialpos": 15, "key_press": -1, "wordID": 1191, "type": "PRES_VIS", "trial_index": 132}, "uniqueid": "MTK2943:39GHHAVOMGYSHY4ZE7WCQ3PEPFQ4J8", "dateTime": 1519594280321}, {"current_trial": 133, "trialdata": {"rt": -1, "trial_type": "single-stim", "word": "rattle", "stimulus": "<p id=\"stim\">RATTLE</p>", "conditions": [24, 1600, "v", 24000], "internal_node_id": "0.0-97.0", "trial": 3, "time_elapsed": 613978, "serialpos": 16, "key_press": -1, "wordID": 1169, "type": "PRES_VIS", "trial_index": 133}, "uniqueid": "MTK2943:39GHHAVOMGYSHY4ZE7WCQ3PEPFQ4J8", "dateTime": 1519594282775}, {"current_trial": 134, "trialdata": {"rt": -1, "trial_type": "single-stim", "word": "compass", "stimulus": "<p id=\"stim\">COMPASS</p>", "conditions": [24, 1600, "v", 24000], "internal_node_id": "0.0-98.0", "trial": 3, "time_elapsed": 616771, "serialpos": 17, "key_press": -1, "wordID": 357, "type": "PRES_VIS", "trial_index": 134}, "uniqueid": "MTK2943:39GHHAVOMGYSHY4ZE7WCQ3PEPFQ4J8", "dateTime": 1519594285568}, {"current_trial": 135, "trialdata": {"rt": -1, "trial_type": "single-stim", "word": "helmet", "stimulus": "<p id=\"stim\">HELMET</p>", "conditions": [24, 1600, "v", 24000], "internal_node_id": "0.0-99.0", "trial": 3, "time_elapsed": 619224, "serialpos": 18, "key_press": -1, "wordID": 701, "type": "PRES_VIS", "trial_index": 135}, "uniqueid": "MTK2943:39GHHAVOMGYSHY4ZE7WCQ3PEPFQ4J8", "dateTime": 1519594288021}, {"current_trial": 136, "trialdata": {"rt": -1, "trial_type": "single-stim", "word": "piston", "stimulus": "<p id=\"stim\">PISTON</p>", "conditions": [24, 1600, "v", 24000], "internal_node_id": "0.0-100.0", "trial": 3, "time_elapsed": 621770, "serialpos": 19, "key_press": -1, "wordID": 1075, "type": "PRES_VIS", "trial_index": 136}, "uniqueid": "MTK2943:39GHHAVOMGYSHY4ZE7WCQ3PEPFQ4J8", "dateTime": 1519594290566}, {"current_trial": 137, "trialdata": {"rt": -1, "trial_type": "single-stim", "word": "robin", "stimulus": "<p id=\"stim\">ROBIN</p>", "conditions": [24, 1600, "v", 24000], "internal_node_id": "0.0-101.0", "trial": 3, "time_elapsed": 624491, "serialpos": 20, "key_press": -1, "wordID": 1198, "type": "PRES_VIS", "trial_index": 137}, "uniqueid": "MTK2943:39GHHAVOMGYSHY4ZE7WCQ3PEPFQ4J8", "dateTime": 1519594293287}, {"current_trial": 138, "trialdata": {"rt": -1, "trial_type": "single-stim", "word": "hiker", "stimulus": "<p id=\"stim\">HIKER</p>", "conditions": [24, 1600, "v", 24000], "internal_node_id": "0.0-102.0", "trial": 3, "time_elapsed": 627144, "serialpos": 21, "key_press": -1, "wordID": 707, "type": "PRES_VIS", "trial_index": 138}, "uniqueid": "MTK2943:39GHHAVOMGYSHY4ZE7WCQ3PEPFQ4J8", "dateTime": 1519594295940}, {"current_trial": 139, "trialdata": {"rt": -1, "trial_type": "single-stim", "word": "wagon", "stimulus": "<p id=\"stim\">WAGON</p>", "conditions": [24, 1600, "v", 24000], "internal_node_id": "0.0-103.0", "trial": 3, "time_elapsed": 629767, "serialpos": 22, "key_press": -1, "wordID": 1577, "type": "PRES_VIS", "trial_index": 139}, "uniqueid": "MTK2943:39GHHAVOMGYSHY4ZE7WCQ3PEPFQ4J8", "dateTime": 1519594298563}, {"current_trial": 140, "trialdata": {"rt": -1, "trial_type": "single-stim", "word": "mummy", "stimulus": "<p id=\"stim\">MUMMY</p>", "conditions": [24, 1600, "v", 24000], "internal_node_id": "0.0-104.0", "trial": 3, "time_elapsed": 632346, "serialpos": 23, "key_press": -1, "wordID": 931, "type": "PRES_VIS", "trial_index": 140}, "uniqueid": "MTK2943:39GHHAVOMGYSHY4ZE7WCQ3PEPFQ4J8", "dateTime": 1519594301143}, {"current_trial": 141, "trialdata": {"rt": -1, "trial_type": "single-stim", "stimulus": "", "internal_node_id": "0.0-105.0-0.0", "time_elapsed": 634586, "key_press": -1, "type": "PRE_RECALL_DELAY", "trial_index": 141}, "uniqueid": "MTK2943:39GHHAVOMGYSHY4ZE7WCQ3PEPFQ4J8", "dateTime": 1519594303383}, {"current_trial": 142, "trialdata": {"rt": -1000, "trial_type": "single-audio", "stimulus": "/static/audio/400Hz.wav", "internal_node_id": "0.0-106.0", "time_elapsed": 635092, "key_press": -1, "type": "PRE_RECALL_ALERT", "trial_index": 142}, "uniqueid": "MTK2943:39GHHAVOMGYSHY4ZE7WCQ3PEPFQ4J8", "dateTime": 1519594303888}, {"current_trial": 143, "trialdata": {"rt": [2205, 3810, 5449, 6781, 8039, 9687, 11302, 20561, 22030, 27547, 32250, 33873, 39080, 40330], "recwords": ["mummy", "wagon", "hiker", "robin", "rifle", "piston", "truck", "liver", "kidney", "frangrance", "window", "sidewalk", "waiter", "plaza"], "key_times": [1175, 1403, 1603, 1739, 1824, 2205, 2700, 2950, 3201, 3259, 3464, 3810, 4628, 4822, 4985, 5074, 5246, 5449, 5880, 5975, 6148, 6220, 6396, 6781, 7305, 7380, 7508, 7596, 7750, 8039, 8490, 8705, 8807, 9023, 9097, 9275, 9687, 10331, 10513, 10561, 10706, 10787, 11302, 19842, 20002, 20099, 20307, 20459, 20561, 20980, 21158, 21259, 21385, 21513, 21616, 22030, 24977, 25164, 25360, 25432, 26016, 26193, 26358, 26398, 26557, 26758, 27547, 31101, 31179, 31394, 31549, 31664, 32035, 32250, 32536, 32619, 32747, 32939, 33127, 33302, 33359, 33506, 33873, 38002, 38193, 38268, 38447, 38648, 38806, 39080, 39589, 39769, 39842, 40004, 40197, 40330], "trial_type": "free-recall", "conditions": [24, 1600, "v", 24000], "internal_node_id": "0.0-107.0-0.0", "key_presses": [77, 85, 77, 77, 89, 13, 87, 65, 71, 79, 78, 13, 72, 73, 75, 69, 82, 13, 82, 79, 66, 73, 78, 13, 82, 73, 70, 76, 69, 13, 80, 73, 83, 84, 79, 78, 13, 84, 82, 85, 67, 75, 13, 76, 73, 86, 69, 82, 13, 75, 73, 68, 78, 69, 89, 13, 70, 82, 65, 78, 71, 82, 65, 78, 67, 69, 13, 87, 73, 78, 68, 79, 87, 13, 83, 73, 68, 69, 87, 65, 76, 75, 13, 87, 65, 73, 84, 69, 82, 13, 80, 76, 65, 90, 65, 13], "trial": 3, "time_elapsed": 695104, "type": "FREE_RECALL", "trial_index": 143}, "uniqueid": "MTK2943:39GHHAVOMGYSHY4ZE7WCQ3PEPFQ4J8", "dateTime": 1519594363913}, {"current_trial": 144, "trialdata": {"rt": 1423, "trial_type": "text", "internal_node_id": "0.0-108.0", "time_elapsed": 698548, "key_press": 32, "type": "INSTRUCTIONS", "trial_index": 144}, "uniqueid": "MTK2943:39GHHAVOMGYSHY4ZE7WCQ3PEPFQ4J8", "dateTime": 1519594367344}, {"current_trial": 145, "trialdata": {"rt": [3163, 4671, 6533, 8543, 10635], "trial_type": "math-distractor", "key_times": [2618, 2838, 3163, 4301, 4438, 4671, 6263, 6533, 8064, 8299, 8543, 10161, 10330, 10635, 11988], "responses": ["23", "11", "8", "16", "10"], "num2": [8, 4, 5, 2, 6, 6], "num3": [7, 2, 2, 8, 3, 3], "conditions": [24, 1600, "v", 12000], "internal_node_id": "0.0-109.0", "key_presses": [98, 99, 13, 97, 97, 13, 104, 13, 97, 102, 13, 97, 96, 13, 97], "trial": 4, "time_elapsed": 712558, "type": "DISTRACTOR", "trial_index": 145, "num1": [8, 5, 1, 6, 1, 3]}, "uniqueid": "MTK2943:39GHHAVOMGYSHY4ZE7WCQ3PEPFQ4J8", "dateTime": 1519594381354}, {"current_trial": 146, "trialdata": {"rt": -1, "trial_type": "single-stim", "stimulus": "<p id=\"stim\">10</p>", "internal_node_id": "0.0-110.0-0.0", "time_elapsed": 715567, "key_press": -1, "trial_index": 146}, "uniqueid": "MTK2943:39GHHAVOMGYSHY4ZE7WCQ3PEPFQ4J8", "dateTime": 1519594384363}, {"current_trial": 147, "trialdata": {"rt": -1, "trial_type": "single-stim", "stimulus": "<p id=\"stim\">9</p>", "internal_node_id": "0.0-110.0-1.0", "time_elapsed": 716572, "key_press": -1, "trial_index": 147}, "uniqueid": "MTK2943:39GHHAVOMGYSHY4ZE7WCQ3PEPFQ4J8", "dateTime": 1519594385368}, {"current_trial": 148, "trialdata": {"rt": -1, "trial_type": "single-stim", "stimulus": "<p id=\"stim\">8</p>", "internal_node_id": "0.0-110.0-2.0", "time_elapsed": 717578, "key_press": -1, "trial_index": 148}, "uniqueid": "MTK2943:39GHHAVOMGYSHY4ZE7WCQ3PEPFQ4J8", "dateTime": 1519594386375}, {"current_trial": 149, "trialdata": {"rt": -1, "trial_type": "single-stim", "stimulus": "<p id=\"stim\">7</p>", "internal_node_id": "0.0-110.0-3.0", "time_elapsed": 718583, "key_press": -1, "trial_index": 149}, "uniqueid": "MTK2943:39GHHAVOMGYSHY4ZE7WCQ3PEPFQ4J8", "dateTime": 1519594387379}, {"current_trial": 150, "trialdata": {"rt": -1, "trial_type": "single-stim", "stimulus": "<p id=\"stim\">6</p>", "internal_node_id": "0.0-110.0-4.0", "time_elapsed": 719590, "key_press": -1, "trial_index": 150}, "uniqueid": "MTK2943:39GHHAVOMGYSHY4ZE7WCQ3PEPFQ4J8", "dateTime": 1519594388386}, {"current_trial": 151, "trialdata": {"rt": -1, "trial_type": "single-stim", "stimulus": "<p id=\"stim\">5</p>", "internal_node_id": "0.0-110.0-5.0", "time_elapsed": 720595, "key_press": -1, "trial_index": 151}, "uniqueid": "MTK2943:39GHHAVOMGYSHY4ZE7WCQ3PEPFQ4J8", "dateTime": 1519594389391}, {"current_trial": 152, "trialdata": {"rt": -1, "trial_type": "single-stim", "stimulus": "<p id=\"stim\">4</p>", "internal_node_id": "0.0-110.0-6.0", "time_elapsed": 721599, "key_press": -1, "trial_index": 152}, "uniqueid": "MTK2943:39GHHAVOMGYSHY4ZE7WCQ3PEPFQ4J8", "dateTime": 1519594390395}, {"current_trial": 153, "trialdata": {"rt": -1, "trial_type": "single-stim", "stimulus": "<p id=\"stim\">3</p>", "internal_node_id": "0.0-110.0-7.0", "time_elapsed": 722602, "key_press": -1, "trial_index": 153}, "uniqueid": "MTK2943:39GHHAVOMGYSHY4ZE7WCQ3PEPFQ4J8", "dateTime": 1519594391399}, {"current_trial": 154, "trialdata": {"rt": -1, "trial_type": "single-stim", "stimulus": "<p id=\"stim\">2</p>", "internal_node_id": "0.0-110.0-8.0", "time_elapsed": 723608, "key_press": -1, "trial_index": 154}, "uniqueid": "MTK2943:39GHHAVOMGYSHY4ZE7WCQ3PEPFQ4J8", "dateTime": 1519594392405}, {"current_trial": 155, "trialdata": {"rt": -1, "trial_type": "single-stim", "stimulus": "<p id=\"stim\">1</p>", "internal_node_id": "0.0-110.0-9.0", "time_elapsed": 724614, "key_press": -1, "trial_index": 155}, "uniqueid": "MTK2943:39GHHAVOMGYSHY4ZE7WCQ3PEPFQ4J8", "dateTime": 1519594393411}, {"current_trial": 156, "trialdata": {"rt": -1, "trial_type": "single-stim", "stimulus": "<p id=\"stim\">+</p>", "internal_node_id": "0.0-111.0-0.0", "time_elapsed": 726120, "key_press": -1, "type": "FIXATION", "trial_index": 156}, "uniqueid": "MTK2943:39GHHAVOMGYSHY4ZE7WCQ3PEPFQ4J8", "dateTime": 1519594394916}, {"current_trial": 157, "trialdata": {"rt": -1, "trial_type": "single-stim", "word": "trombone", "stimulus": "<p id=\"stim\">TROMBONE</p>", "conditions": [24, 1600, "v", 12000], "internal_node_id": "0.0-112.0", "trial": 4, "time_elapsed": 727727, "serialpos": 0, "key_press": -1, "wordID": 1507, "type": "PRES_VIS", "trial_index": 157}, "uniqueid": "MTK2943:39GHHAVOMGYSHY4ZE7WCQ3PEPFQ4J8", "dateTime": 1519594396523}, {"current_trial": 158, "trialdata": {"rt": -1, "trial_type": "single-stim", "word": "scribble", "stimulus": "<p id=\"stim\">SCRIBBLE</p>", "conditions": [24, 1600, "v", 12000], "internal_node_id": "0.0-113.0", "trial": 4, "time_elapsed": 730170, "serialpos": 1, "key_press": -1, "wordID": 1255, "type": "PRES_VIS", "trial_index": 158}, "uniqueid": "MTK2943:39GHHAVOMGYSHY4ZE7WCQ3PEPFQ4J8", "dateTime": 1519594398966}, {"current_trial": 159, "trialdata": {"rt": -1, "trial_type": "single-stim", "word": "mattress", "stimulus": "<p id=\"stim\">MATTRESS</p>", "conditions": [24, 1600, "v", 12000], "internal_node_id": "0.0-114.0", "trial": 4, "time_elapsed": 732879, "serialpos": 2, "key_press": -1, "wordID": 878, "type": "PRES_VIS", "trial_index": 159}, "uniqueid": "MTK2943:39GHHAVOMGYSHY4ZE7WCQ3PEPFQ4J8", "dateTime": 1519594401675}, {"current_trial": 160, "trialdata": {"rt": -1, "trial_type": "single-stim", "word": "spoon", "stimulus": "<p id=\"stim\">SPOON</p>", "conditions": [24, 1600, "v", 12000], "internal_node_id": "0.0-115.0", "trial": 4, "time_elapsed": 735600, "serialpos": 3, "key_press": -1, "wordID": 1356, "type": "PRES_VIS", "trial_index": 160}, "uniqueid": "MTK2943:39GHHAVOMGYSHY4ZE7WCQ3PEPFQ4J8", "dateTime": 1519594404396}, {"current_trial": 161, "trialdata": {"rt": -1, "trial_type": "single-stim", "word": "hound", "stimulus": "<p id=\"stim\">HOUND</p>", "conditions": [24, 1600, "v", 12000], "internal_node_id": "0.0-116.0", "trial": 4, "time_elapsed": 738083, "serialpos": 4, "key_press": -1, "wordID": 723, "type": "PRES_VIS", "trial_index": 161}, "uniqueid": "MTK2943:39GHHAVOMGYSHY4ZE7WCQ3PEPFQ4J8", "dateTime": 1519594406879}, {"current_trial": 162, "trialdata": {"rt": -1, "trial_type": "single-stim", "word": "hood", "stimulus": "<p id=\"stim\">HOOD</p>", "conditions": [24, 1600, "v", 12000], "internal_node_id": "0.0-117.0", "trial": 4, "time_elapsed": 740775, "serialpos": 5, "key_press": -1, "wordID": 713, "type": "PRES_VIS", "trial_index": 162}, "uniqueid": "MTK2943:39GHHAVOMGYSHY4ZE7WCQ3PEPFQ4J8", "dateTime": 1519594409571}, {"current_trial": 163, "trialdata": {"rt": -1, "trial_type": "single-stim", "word": "crib", "stimulus": "<p id=\"stim\">CRIB</p>", "conditions": [24, 1600, "v", 12000], "internal_node_id": "0.0-118.0", "trial": 4, "time_elapsed": 743485, "serialpos": 6, "key_press": -1, "wordID": 406, "type": "PRES_VIS", "trial_index": 163}, "uniqueid": "MTK2943:39GHHAVOMGYSHY4ZE7WCQ3PEPFQ4J8", "dateTime": 1519594412281}, {"current_trial": 164, "trialdata": {"rt": -1, "trial_type": "single-stim", "word": "buggy", "stimulus": "<p id=\"stim\">BUGGY</p>", "conditions": [24, 1600, "v", 12000], "internal_node_id": "0.0-119.0", "trial": 4, "time_elapsed": 746144, "serialpos": 7, "key_press": -1, "wordID": 187, "type": "PRES_VIS", "trial_index": 164}, "uniqueid": "MTK2943:39GHHAVOMGYSHY4ZE7WCQ3PEPFQ4J8", "dateTime": 1519594414941}, {"current_trial": 165, "trialdata": {"rt": -1, "trial_type": "single-stim", "word": "baby", "stimulus": "<p id=\"stim\">BABY</p>", "conditions": [24, 1600, "v", 12000], "internal_node_id": "0.0-120.0", "trial": 4, "time_elapsed": 748675, "serialpos": 8, "key_press": -1, "wordID": 63, "type": "PRES_VIS", "trial_index": 165}, "uniqueid": "MTK2943:39GHHAVOMGYSHY4ZE7WCQ3PEPFQ4J8", "dateTime": 1519594417471}, {"current_trial": 166, "trialdata": {"rt": -1, "trial_type": "single-stim", "word": "child", "stimulus": "<p id=\"stim\">CHILD</p>", "conditions": [24, 1600, "v", 12000], "internal_node_id": "0.0-121.0", "trial": 4, "time_elapsed": 751203, "serialpos": 9, "key_press": -1, "wordID": 298, "type": "PRES_VIS", "trial_index": 166}, "uniqueid": "MTK2943:39GHHAVOMGYSHY4ZE7WCQ3PEPFQ4J8", "dateTime": 1519594420000}, {"current_trial": 167, "trialdata": {"rt": -1, "trial_type": "single-stim", "word": "binder", "stimulus": "<p id=\"stim\">BINDER</p>", "conditions": [24, 1600, "v", 12000], "internal_node_id": "0.0-122.0", "trial": 4, "time_elapsed": 753909, "serialpos": 10, "key_press": -1, "wordID": 126, "type": "PRES_VIS", "trial_index": 167}, "uniqueid": "MTK2943:39GHHAVOMGYSHY4ZE7WCQ3PEPFQ4J8", "dateTime": 1519594422706}, {"current_trial": 168, "trialdata": {"rt": -1, "trial_type": "single-stim", "word": "blade", "stimulus": "<p id=\"stim\">BLADE</p>", "conditions": [24, 1600, "v", 12000], "internal_node_id": "0.0-123.0", "trial": 4, "time_elapsed": 756599, "serialpos": 11, "key_press": -1, "wordID": 133, "type": "PRES_VIS", "trial_index": 168}, "uniqueid": "MTK2943:39GHHAVOMGYSHY4ZE7WCQ3PEPFQ4J8", "dateTime": 1519594425396}, {"current_trial": 169, "trialdata": {"rt": -1, "trial_type": "single-stim", "word": "crab", "stimulus": "<p id=\"stim\">CRAB</p>", "conditions": [24, 1600, "v", 12000], "internal_node_id": "0.0-124.0", "trial": 4, "time_elapsed": 759100, "serialpos": 12, "key_press": -1, "wordID": 396, "type": "PRES_VIS", "trial_index": 169}, "uniqueid": "MTK2943:39GHHAVOMGYSHY4ZE7WCQ3PEPFQ4J8", "dateTime": 1519594427896}, {"current_trial": 170, "trialdata": {"rt": -1, "trial_type": "single-stim", "word": "wasp", "stimulus": "<p id=\"stim\">WASP</p>", "conditions": [24, 1600, "v", 12000], "internal_node_id": "0.0-125.0", "trial": 4, "time_elapsed": 761717, "serialpos": 13, "key_press": -1, "wordID": 1592, "type": "PRES_VIS", "trial_index": 170}, "uniqueid": "MTK2943:39GHHAVOMGYSHY4ZE7WCQ3PEPFQ4J8", "dateTime": 1519594430514}, {"current_trial": 171, "trialdata": {"rt": -1, "trial_type": "single-stim", "word": "staple", "stimulus": "<p id=\"stim\">STAPLE</p>", "conditions": [24, 1600, "v", 12000], "internal_node_id": "0.0-126.0", "trial": 4, "time_elapsed": 764492, "serialpos": 14, "key_press": -1, "wordID": 1370, "type": "PRES_VIS", "trial_index": 171}, "uniqueid": "MTK2943:39GHHAVOMGYSHY4ZE7WCQ3PEPFQ4J8", "dateTime": 1519594433289}, {"current_trial": 172, "trialdata": {"rt": -1, "trial_type": "single-stim", "word": "mop", "stimulus": "<p id=\"stim\">MOP</p>", "conditions": [24, 1600, "v", 12000], "internal_node_id": "0.0-127.0", "trial": 4, "time_elapsed": 766936, "serialpos": 15, "key_press": -1, "wordID": 915, "type": "PRES_VIS", "trial_index": 172}, "uniqueid": "MTK2943:39GHHAVOMGYSHY4ZE7WCQ3PEPFQ4J8", "dateTime": 1519594435732}, {"current_trial": 173, "trialdata": {"rt": -1, "trial_type": "single-stim", "word": "washer", "stimulus": "<p id=\"stim\">WASHER</p>", "conditions": [24, 1600, "v", 12000], "internal_node_id": "0.0-128.0", "trial": 4, "time_elapsed": 769573, "serialpos": 16, "key_press": -1, "wordID": 1591, "type": "PRES_VIS", "trial_index": 173}, "uniqueid": "MTK2943:39GHHAVOMGYSHY4ZE7WCQ3PEPFQ4J8", "dateTime": 1519594438369}, {"current_trial": 174, "trialdata": {"rt": -1, "trial_type": "single-stim", "word": "comet", "stimulus": "<p id=\"stim\">COMET</p>", "conditions": [24, 1600, "v", 12000], "internal_node_id": "0.0-129.0", "trial": 4, "time_elapsed": 772358, "serialpos": 17, "key_press": -1, "wordID": 352, "type": "PRES_VIS", "trial_index": 174}, "uniqueid": "MTK2943:39GHHAVOMGYSHY4ZE7WCQ3PEPFQ4J8", "dateTime": 1519594441155}, {"current_trial": 175, "trialdata": {"rt": -1, "trial_type": "single-stim", "word": "zipper", "stimulus": "<p id=\"stim\">ZIPPER</p>", "conditions": [24, 1600, "v", 12000], "internal_node_id": "0.0-130.0", "trial": 4, "time_elapsed": 775139, "serialpos": 18, "key_press": -1, "wordID": 1635, "type": "PRES_VIS", "trial_index": 175}, "uniqueid": "MTK2943:39GHHAVOMGYSHY4ZE7WCQ3PEPFQ4J8", "dateTime": 1519594443939}, {"current_trial": 176, "trialdata": {"rt": -1, "trial_type": "single-stim", "word": "rabbit", "stimulus": "<p id=\"stim\">RABBIT</p>", "conditions": [24, 1600, "v", 12000], "internal_node_id": "0.0-131.0", "trial": 4, "time_elapsed": 777830, "serialpos": 19, "key_press": -1, "wordID": 1151, "type": "PRES_VIS", "trial_index": 176}, "uniqueid": "MTK2943:39GHHAVOMGYSHY4ZE7WCQ3PEPFQ4J8", "dateTime": 1519594446627}, {"current_trial": 177, "trialdata": {"rt": -1, "trial_type": "single-stim", "word": "rooster", "stimulus": "<p id=\"stim\">ROOSTER</p>", "conditions": [24, 1600, "v", 12000], "internal_node_id": "0.0-132.0", "trial": 4, "time_elapsed": 780259, "serialpos": 20, "key_press": -1, "wordID": 1208, "type": "PRES_VIS", "trial_index": 177}, "uniqueid": "MTK2943:39GHHAVOMGYSHY4ZE7WCQ3PEPFQ4J8", "dateTime": 1519594449056}, {"current_trial": 178, "trialdata": {"rt": -1, "trial_type": "single-stim", "word": "nightgown", "stimulus": "<p id=\"stim\">NIGHTGOWN</p>", "conditions": [24, 1600, "v", 12000], "internal_node_id": "0.0-133.0", "trial": 4, "time_elapsed": 782706, "serialpos": 21, "key_press": -1, "wordID": 952, "type": "PRES_VIS", "trial_index": 178}, "uniqueid": "MTK2943:39GHHAVOMGYSHY4ZE7WCQ3PEPFQ4J8", "dateTime": 1519594451503}, {"current_trial": 179, "trialdata": {"rt": -1, "trial_type": "single-stim", "word": "cashier", "stimulus": "<p id=\"stim\">CASHIER</p>", "conditions": [24, 1600, "v", 12000], "internal_node_id": "0.0-134.0", "trial": 4, "time_elapsed": 785338, "serialpos": 22, "key_press": -1, "wordID": 253, "type": "PRES_VIS", "trial_index": 179}, "uniqueid": "MTK2943:39GHHAVOMGYSHY4ZE7WCQ3PEPFQ4J8", "dateTime": 1519594454135}, {"current_trial": 180, "trialdata": {"rt": -1, "trial_type": "single-stim", "word": "salmon", "stimulus": "<p id=\"stim\">SALMON</p>", "conditions": [24, 1600, "v", 12000], "internal_node_id": "0.0-135.0", "trial": 4, "time_elapsed": 787803, "serialpos": 23, "key_press": -1, "wordID": 1226, "type": "PRES_VIS", "trial_index": 180}, "uniqueid": "MTK2943:39GHHAVOMGYSHY4ZE7WCQ3PEPFQ4J8", "dateTime": 1519594456599}, {"current_trial": 181, "trialdata": {"rt": -1, "trial_type": "single-stim", "stimulus": "", "internal_node_id": "0.0-136.0-0.0", "time_elapsed": 789990, "key_press": -1, "type": "PRE_RECALL_DELAY", "trial_index": 181}, "uniqueid": "MTK2943:39GHHAVOMGYSHY4ZE7WCQ3PEPFQ4J8", "dateTime": 1519594458786}, {"current_trial": 182, "trialdata": {"rt": -1000, "trial_type": "single-audio", "stimulus": "/static/audio/400Hz.wav", "internal_node_id": "0.0-137.0", "time_elapsed": 790507, "key_press": -1, "type": "PRE_RECALL_ALERT", "trial_index": 182}, "uniqueid": "MTK2943:39GHHAVOMGYSHY4ZE7WCQ3PEPFQ4J8", "dateTime": 1519594459304}, {"current_trial": 183, "trialdata": {"rt": [3229, 4548, 5666, 6785, 8198, 9603, 10959, 16701, 42476], "recwords": ["nightgown", "dress", "robe", "baby", "child", "rooster", "rabbit", "tuba", "buggy"], "key_times": [1199, 1426, 1504, 1620, 1710, 2581, 2646, 2805, 2872, 3229, 3582, 3800, 4005, 4165, 4312, 4548, 4779, 4935, 5075, 5295, 5666, 6184, 6248, 6329, 6496, 6785, 7075, 7173, 7364, 7566, 7710, 8198, 8644, 8817, 8949, 9004, 9190, 9374, 9518, 9603, 9861, 10044, 10287, 10410, 10497, 10629, 10959, 16035, 16120, 16319, 16431, 16701, 41540, 41608, 41741, 41875, 41922, 42476], "trial_type": "free-recall", "conditions": [24, 1600, "v", 12000], "internal_node_id": "0.0-138.0-0.0", "key_presses": [78, 73, 71, 72, 84, 71, 79, 87, 78, 13, 68, 82, 69, 83, 83, 13, 82, 79, 66, 69, 13, 66, 65, 66, 89, 13, 67, 72, 73, 76, 68, 13, 82, 79, 79, 83, 84, 69, 82, 13, 82, 65, 66, 66, 73, 84, 13, 84, 85, 66, 65, 13, 66, 85, 71, 71, 89, 13], "trial": 4, "time_elapsed": 850518, "type": "FREE_RECALL", "trial_index": 183}, "uniqueid": "MTK2943:39GHHAVOMGYSHY4ZE7WCQ3PEPFQ4J8", "dateTime": 1519594519328}, {"current_trial": 184, "trialdata": {"rt": 1054, "trial_type": "text", "internal_node_id": "0.0-139.0", "time_elapsed": 853590, "key_press": 32, "type": "INSTRUCTIONS", "trial_index": 184}, "uniqueid": "MTK2943:39GHHAVOMGYSHY4ZE7WCQ3PEPFQ4J8", "dateTime": 1519594522387}, {"current_trial": 185, "trialdata": {"rt": [1360, 3493, 5458, 8014, 10059, 11648, 12907, 14474, 17726, 19523, 21511, 22955], "trial_type": "math-distractor", "key_times": [1075, 1360, 3116, 3279, 3493, 4960, 5238, 5458, 7486, 7645, 8014, 9852, 10059, 10972, 11128, 11648, 12487, 12664, 12907, 14252, 14474, 17342, 17502, 17726, 18830, 19281, 19523, 21086, 21296, 21511, 22563, 22763, 22955, 23958], "responses": ["8", "12", "16", "20", "9", "10", "10", "9", "25", "10", "16", "16"], "num2": [6, 9, 2, 6, 3, 2, 5, 4, 7, 2, 5, 7, 3], "num3": [1, 1, 7, 6, 5, 1, 1, 3, 9, 3, 2, 7, 5], "conditions": [24, 1600, "v", 24000], "internal_node_id": "0.0-140.0", "key_presses": [104, 13, 97, 98, 13, 97, 102, 13, 98, 96, 13, 105, 13, 97, 96, 13, 97, 96, 13, 105, 13, 98, 101, 13, 97, 96, 13, 97, 102, 13, 97, 102, 13, 105], "trial": 5, "time_elapsed": 879607, "type": "DISTRACTOR", "trial_index": 185, "num1": [1, 2, 7, 8, 1, 7, 4, 2, 9, 5, 9, 2, 1]}, "uniqueid": "MTK2943:39GHHAVOMGYSHY4ZE7WCQ3PEPFQ4J8", "dateTime": 1519594548404}, {"current_trial": 186, "trialdata": {"rt": -1, "trial_type": "single-stim", "stimulus": "<p id=\"stim\">10</p>", "internal_node_id": "0.0-141.0-0.0", "time_elapsed": 882619, "key_press": -1, "trial_index": 186}, "uniqueid": "MTK2943:39GHHAVOMGYSHY4ZE7WCQ3PEPFQ4J8", "dateTime": 1519594551415}, {"current_trial": 187, "trialdata": {"rt": -1, "trial_type": "single-stim", "stimulus": "<p id=\"stim\">9</p>", "internal_node_id": "0.0-141.0-1.0", "time_elapsed": 883627, "key_press": -1, "trial_index": 187}, "uniqueid": "MTK2943:39GHHAVOMGYSHY4ZE7WCQ3PEPFQ4J8", "dateTime": 1519594552423}, {"current_trial": 188, "trialdata": {"rt": -1, "trial_type": "single-stim", "stimulus": "<p id=\"stim\">8</p>", "internal_node_id": "0.0-141.0-2.0", "time_elapsed": 884630, "key_press": -1, "trial_index": 188}, "uniqueid": "MTK2943:39GHHAVOMGYSHY4ZE7WCQ3PEPFQ4J8", "dateTime": 1519594553426}, {"current_trial": 189, "trialdata": {"rt": -1, "trial_type": "single-stim", "stimulus": "<p id=\"stim\">7</p>", "internal_node_id": "0.0-141.0-3.0", "time_elapsed": 885635, "key_press": -1, "trial_index": 189}, "uniqueid": "MTK2943:39GHHAVOMGYSHY4ZE7WCQ3PEPFQ4J8", "dateTime": 1519594554431}, {"current_trial": 190, "trialdata": {"rt": -1, "trial_type": "single-stim", "stimulus": "<p id=\"stim\">6</p>", "internal_node_id": "0.0-141.0-4.0", "time_elapsed": 886641, "key_press": -1, "trial_index": 190}, "uniqueid": "MTK2943:39GHHAVOMGYSHY4ZE7WCQ3PEPFQ4J8", "dateTime": 1519594555437}, {"current_trial": 191, "trialdata": {"rt": -1, "trial_type": "single-stim", "stimulus": "<p id=\"stim\">5</p>", "internal_node_id": "0.0-141.0-5.0", "time_elapsed": 887643, "key_press": -1, "trial_index": 191}, "uniqueid": "MTK2943:39GHHAVOMGYSHY4ZE7WCQ3PEPFQ4J8", "dateTime": 1519594556440}, {"current_trial": 192, "trialdata": {"rt": -1, "trial_type": "single-stim", "stimulus": "<p id=\"stim\">4</p>", "internal_node_id": "0.0-141.0-6.0", "time_elapsed": 888650, "key_press": -1, "trial_index": 192}, "uniqueid": "MTK2943:39GHHAVOMGYSHY4ZE7WCQ3PEPFQ4J8", "dateTime": 1519594557447}, {"current_trial": 193, "trialdata": {"rt": -1, "trial_type": "single-stim", "stimulus": "<p id=\"stim\">3</p>", "internal_node_id": "0.0-141.0-7.0", "time_elapsed": 889656, "key_press": -1, "trial_index": 193}, "uniqueid": "MTK2943:39GHHAVOMGYSHY4ZE7WCQ3PEPFQ4J8", "dateTime": 1519594558452}, {"current_trial": 194, "trialdata": {"rt": -1, "trial_type": "single-stim", "stimulus": "<p id=\"stim\">2</p>", "internal_node_id": "0.0-141.0-8.0", "time_elapsed": 890661, "key_press": -1, "trial_index": 194}, "uniqueid": "MTK2943:39GHHAVOMGYSHY4ZE7WCQ3PEPFQ4J8", "dateTime": 1519594559458}, {"current_trial": 195, "trialdata": {"rt": -1, "trial_type": "single-stim", "stimulus": "<p id=\"stim\">1</p>", "internal_node_id": "0.0-141.0-9.0", "time_elapsed": 891663, "key_press": -1, "trial_index": 195}, "uniqueid": "MTK2943:39GHHAVOMGYSHY4ZE7WCQ3PEPFQ4J8", "dateTime": 1519594560460}, {"current_trial": 196, "trialdata": {"rt": -1, "trial_type": "single-stim", "stimulus": "<p id=\"stim\">+</p>", "internal_node_id": "0.0-142.0-0.0", "time_elapsed": 893167, "key_press": -1, "type": "FIXATION", "trial_index": 196}, "uniqueid": "MTK2943:39GHHAVOMGYSHY4ZE7WCQ3PEPFQ4J8", "dateTime": 1519594561964}, {"current_trial": 197, "trialdata": {"rt": -1, "trial_type": "single-stim", "word": "garden", "stimulus": "<p id=\"stim\">GARDEN</p>", "conditions": [24, 1600, "v", 24000], "internal_node_id": "0.0-143.0", "trial": 5, "time_elapsed": 894773, "serialpos": 0, "key_press": -1, "wordID": 622, "type": "PRES_VIS", "trial_index": 197}, "uniqueid": "MTK2943:39GHHAVOMGYSHY4ZE7WCQ3PEPFQ4J8", "dateTime": 1519594563569}, {"current_trial": 198, "trialdata": {"rt": -1, "trial_type": "single-stim", "word": "flower", "stimulus": "<p id=\"stim\">FLOWER</p>", "conditions": [24, 1600, "v", 24000], "internal_node_id": "0.0-144.0", "trial": 5, "time_elapsed": 897424, "serialpos": 1, "key_press": -1, "wordID": 583, "type": "PRES_VIS", "trial_index": 198}, "uniqueid": "MTK2943:39GHHAVOMGYSHY4ZE7WCQ3PEPFQ4J8", "dateTime": 1519594566221}, {"current_trial": 199, "trialdata": {"rt": -1, "trial_type": "single-stim", "word": "preacher", "stimulus": "<p id=\"stim\">PREACHER</p>", "conditions": [24, 1600, "v", 24000], "internal_node_id": "0.0-145.0", "trial": 5, "time_elapsed": 900030, "serialpos": 2, "key_press": -1, "wordID": 1118, "type": "PRES_VIS", "trial_index": 199}, "uniqueid": "MTK2943:39GHHAVOMGYSHY4ZE7WCQ3PEPFQ4J8", "dateTime": 1519594568826}, {"current_trial": 200, "trialdata": {"rt": -1, "trial_type": "single-stim", "word": "stomach", "stimulus": "<p id=\"stim\">STOMACH</p>", "conditions": [24, 1600, "v", 24000], "internal_node_id": "0.0-146.0", "trial": 5, "time_elapsed": 902809, "serialpos": 3, "key_press": -1, "wordID": 1383, "type": "PRES_VIS", "trial_index": 200}, "uniqueid": "MTK2943:39GHHAVOMGYSHY4ZE7WCQ3PEPFQ4J8", "dateTime": 1519594571606}, {"current_trial": 201, "trialdata": {"rt": -1, "trial_type": "single-stim", "word": "river", "stimulus": "<p id=\"stim\">RIVER</p>", "conditions": [24, 1600, "v", 24000], "internal_node_id": "0.0-147.0", "trial": 5, "time_elapsed": 905385, "serialpos": 4, "key_press": -1, "wordID": 1193, "type": "PRES_VIS", "trial_index": 201}, "uniqueid": "MTK2943:39GHHAVOMGYSHY4ZE7WCQ3PEPFQ4J8", "dateTime": 1519594574181}, {"current_trial": 202, "trialdata": {"rt": -1, "trial_type": "single-stim", "word": "sister", "stimulus": "<p id=\"stim\">SISTER</p>", "conditions": [24, 1600, "v", 24000], "internal_node_id": "0.0-148.0", "trial": 5, "time_elapsed": 907992, "serialpos": 5, "key_press": -1, "wordID": 1311, "type": "PRES_VIS", "trial_index": 202}, "uniqueid": "MTK2943:39GHHAVOMGYSHY4ZE7WCQ3PEPFQ4J8", "dateTime": 1519594576789}, {"current_trial": 203, "trialdata": {"rt": -1, "trial_type": "single-stim", "word": "doughnut", "stimulus": "<p id=\"stim\">DOUGHNUT</p>", "conditions": [24, 1600, "v", 24000], "internal_node_id": "0.0-149.0", "trial": 5, "time_elapsed": 910630, "serialpos": 6, "key_press": -1, "wordID": 489, "type": "PRES_VIS", "trial_index": 203}, "uniqueid": "MTK2943:39GHHAVOMGYSHY4ZE7WCQ3PEPFQ4J8", "dateTime": 1519594579426}, {"current_trial": 204, "trialdata": {"rt": -1, "trial_type": "single-stim", "word": "cod", "stimulus": "<p id=\"stim\">COD</p>", "conditions": [24, 1600, "v", 24000], "internal_node_id": "0.0-150.0", "trial": 5, "time_elapsed": 913278, "serialpos": 7, "key_press": -1, "wordID": 339, "type": "PRES_VIS", "trial_index": 204}, "uniqueid": "MTK2943:39GHHAVOMGYSHY4ZE7WCQ3PEPFQ4J8", "dateTime": 1519594582075}, {"current_trial": 205, "trialdata": {"rt": -1, "trial_type": "single-stim", "word": "fruit", "stimulus": "<p id=\"stim\">FRUIT</p>", "conditions": [24, 1600, "v", 24000], "internal_node_id": "0.0-151.0", "trial": 5, "time_elapsed": 915847, "serialpos": 8, "key_press": -1, "wordID": 609, "type": "PRES_VIS", "trial_index": 205}, "uniqueid": "MTK2943:39GHHAVOMGYSHY4ZE7WCQ3PEPFQ4J8", "dateTime": 1519594584644}, {"current_trial": 206, "trialdata": {"rt": -1, "trial_type": "single-stim", "word": "glove", "stimulus": "<p id=\"stim\">GLOVE</p>", "conditions": [24, 1600, "v", 24000], "internal_node_id": "0.0-152.0", "trial": 5, "time_elapsed": 918422, "serialpos": 9, "key_press": -1, "wordID": 641, "type": "PRES_VIS", "trial_index": 206}, "uniqueid": "MTK2943:39GHHAVOMGYSHY4ZE7WCQ3PEPFQ4J8", "dateTime": 1519594587219}, {"current_trial": 207, "trialdata": {"rt": -1, "trial_type": "single-stim", "word": "twig", "stimulus": "<p id=\"stim\">TWIG</p>", "conditions": [24, 1600, "v", 24000], "internal_node_id": "0.0-153.0", "trial": 5, "time_elapsed": 920881, "serialpos": 10, "key_press": -1, "wordID": 1526, "type": "PRES_VIS", "trial_index": 207}, "uniqueid": "MTK2943:39GHHAVOMGYSHY4ZE7WCQ3PEPFQ4J8", "dateTime": 1519594589681}, {"current_trial": 208, "trialdata": {"rt": -1, "trial_type": "single-stim", "word": "marsh", "stimulus": "<p id=\"stim\">MARSH</p>", "conditions": [24, 1600, "v", 24000], "internal_node_id": "0.0-154.0", "trial": 5, "time_elapsed": 923521, "serialpos": 11, "key_press": -1, "wordID": 873, "type": "PRES_VIS", "trial_index": 208}, "uniqueid": "MTK2943:39GHHAVOMGYSHY4ZE7WCQ3PEPFQ4J8", "dateTime": 1519594592318}, {"current_trial": 209, "trialdata": {"rt": -1, "trial_type": "single-stim", "word": "world", "stimulus": "<p id=\"stim\">WORLD</p>", "conditions": [24, 1600, "v", 24000], "internal_node_id": "0.0-155.0", "trial": 5, "time_elapsed": 926298, "serialpos": 12, "key_press": -1, "wordID": 1621, "type": "PRES_VIS", "trial_index": 209}, "uniqueid": "MTK2943:39GHHAVOMGYSHY4ZE7WCQ3PEPFQ4J8", "dateTime": 1519594595094}, {"current_trial": 210, "trialdata": {"rt": -1, "trial_type": "single-stim", "word": "husband", "stimulus": "<p id=\"stim\">HUSBAND</p>", "conditions": [24, 1600, "v", 24000], "internal_node_id": "0.0-156.0", "trial": 5, "time_elapsed": 928982, "serialpos": 13, "key_press": -1, "wordID": 727, "type": "PRES_VIS", "trial_index": 210}, "uniqueid": "MTK2943:39GHHAVOMGYSHY4ZE7WCQ3PEPFQ4J8", "dateTime": 1519594597778}, {"current_trial": 211, "trialdata": {"rt": -1, "trial_type": "single-stim", "word": "piano", "stimulus": "<p id=\"stim\">PIANO</p>", "conditions": [24, 1600, "v", 24000], "internal_node_id": "0.0-157.0", "trial": 5, "time_elapsed": 931579, "serialpos": 14, "key_press": -1, "wordID": 1056, "type": "PRES_VIS", "trial_index": 211}, "uniqueid": "MTK2943:39GHHAVOMGYSHY4ZE7WCQ3PEPFQ4J8", "dateTime": 1519594600376}, {"current_trial": 212, "trialdata": {"rt": -1, "trial_type": "single-stim", "word": "tart", "stimulus": "<p id=\"stim\">TART</p>", "conditions": [24, 1600, "v", 24000], "internal_node_id": "0.0-158.0", "trial": 5, "time_elapsed": 934025, "serialpos": 15, "key_press": -1, "wordID": 1435, "type": "PRES_VIS", "trial_index": 212}, "uniqueid": "MTK2943:39GHHAVOMGYSHY4ZE7WCQ3PEPFQ4J8", "dateTime": 1519594602821}, {"current_trial": 213, "trialdata": {"rt": -1, "trial_type": "single-stim", "word": "basement", "stimulus": "<p id=\"stim\">BASEMENT</p>", "conditions": [24, 1600, "v", 24000], "internal_node_id": "0.0-159.0", "trial": 5, "time_elapsed": 936561, "serialpos": 16, "key_press": -1, "wordID": 93, "type": "PRES_VIS", "trial_index": 213}, "uniqueid": "MTK2943:39GHHAVOMGYSHY4ZE7WCQ3PEPFQ4J8", "dateTime": 1519594605358}, {"current_trial": 214, "trialdata": {"rt": -1, "trial_type": "single-stim", "word": "asia", "stimulus": "<p id=\"stim\">ASIA</p>", "conditions": [24, 1600, "v", 24000], "internal_node_id": "0.0-160.0", "trial": 5, "time_elapsed": 938983, "serialpos": 17, "key_press": -1, "wordID": 45, "type": "PRES_VIS", "trial_index": 214}, "uniqueid": "MTK2943:39GHHAVOMGYSHY4ZE7WCQ3PEPFQ4J8", "dateTime": 1519594607779}, {"current_trial": 215, "trialdata": {"rt": -1, "trial_type": "single-stim", "word": "japan", "stimulus": "<p id=\"stim\">JAPAN</p>", "conditions": [24, 1600, "v", 24000], "internal_node_id": "0.0-161.0", "trial": 5, "time_elapsed": 941743, "serialpos": 18, "key_press": -1, "wordID": 748, "type": "PRES_VIS", "trial_index": 215}, "uniqueid": "MTK2943:39GHHAVOMGYSHY4ZE7WCQ3PEPFQ4J8", "dateTime": 1519594610540}, {"current_trial": 216, "trialdata": {"rt": -1, "trial_type": "single-stim", "word": "uncle", "stimulus": "<p id=\"stim\">UNCLE</p>", "conditions": [24, 1600, "v", 24000], "internal_node_id": "0.0-162.0", "trial": 5, "time_elapsed": 944273, "serialpos": 19, "key_press": -1, "wordID": 1535, "type": "PRES_VIS", "trial_index": 216}, "uniqueid": "MTK2943:39GHHAVOMGYSHY4ZE7WCQ3PEPFQ4J8", "dateTime": 1519594613070}, {"current_trial": 217, "trialdata": {"rt": -1, "trial_type": "single-stim", "word": "silk", "stimulus": "<p id=\"stim\">SILK</p>", "conditions": [24, 1600, "v", 24000], "internal_node_id": "0.0-163.0", "trial": 5, "time_elapsed": 946976, "serialpos": 20, "key_press": -1, "wordID": 1306, "type": "PRES_VIS", "trial_index": 217}, "uniqueid": "MTK2943:39GHHAVOMGYSHY4ZE7WCQ3PEPFQ4J8", "dateTime": 1519594615773}, {"current_trial": 218, "trialdata": {"rt": -1, "trial_type": "single-stim", "word": "drawing", "stimulus": "<p id=\"stim\">DRAWING</p>", "conditions": [24, 1600, "v", 24000], "internal_node_id": "0.0-164.0", "trial": 5, "time_elapsed": 949746, "serialpos": 21, "key_press": -1, "wordID": 493, "type": "PRES_VIS", "trial_index": 218}, "uniqueid": "MTK2943:39GHHAVOMGYSHY4ZE7WCQ3PEPFQ4J8", "dateTime": 1519594618542}, {"current_trial": 219, "trialdata": {"rt": -1, "trial_type": "single-stim", "word": "shoulder", "stimulus": "<p id=\"stim\">SHOULDER</p>", "conditions": [24, 1600, "v", 24000], "internal_node_id": "0.0-165.0", "trial": 5, "time_elapsed": 952469, "serialpos": 22, "key_press": -1, "wordID": 1293, "type": "PRES_VIS", "trial_index": 219}, "uniqueid": "MTK2943:39GHHAVOMGYSHY4ZE7WCQ3PEPFQ4J8", "dateTime": 1519594621265}, {"current_trial": 220, "trialdata": {"rt": -1, "trial_type": "single-stim", "word": "cabin", "stimulus": "<p id=\"stim\">CABIN</p>", "conditions": [24, 1600, "v", 24000], "internal_node_id": "0.0-166.0", "trial": 5, "time_elapsed": 955191, "serialpos": 23, "key_press": -1, "wordID": 210, "type": "PRES_VIS", "trial_index": 220}, "uniqueid": "MTK2943:39GHHAVOMGYSHY4ZE7WCQ3PEPFQ4J8", "dateTime": 1519594623988}, {"current_trial": 221, "trialdata": {"rt": -1, "trial_type": "single-stim", "stimulus": "", "internal_node_id": "0.0-167.0-0.0", "time_elapsed": 957579, "key_press": -1, "type": "PRE_RECALL_DELAY", "trial_index": 221}, "uniqueid": "MTK2943:39GHHAVOMGYSHY4ZE7WCQ3PEPFQ4J8", "dateTime": 1519594626376}, {"current_trial": 222, "trialdata": {"rt": -1000, "trial_type": "single-audio", "stimulus": "/static/audio/400Hz.wav", "internal_node_id": "0.0-168.0", "time_elapsed": 958086, "key_press": -1, "type": "PRE_RECALL_ALERT", "trial_index": 222}, "uniqueid": "MTK2943:39GHHAVOMGYSHY4ZE7WCQ3PEPFQ4J8", "dateTime": 1519594626882}, {"current_trial": 223, "trialdata": {"rt": [2005, 3587, 4829, 6567, 7560, 8803, 9951, 11944, 16230, 18787], "recwords": ["cabin", "shoulder", "stomach", "garden", "flower", "river", "asia", "japan", "silk", "cabin"], "key_times": [825, 1045, 1425, 1475, 1675, 2005, 2319, 2458, 2664, 2828, 3025, 3072, 3255, 3446, 3587, 3741, 3925, 4003, 4177, 4246, 4417, 4488, 4829, 5056, 5261, 5437, 5579, 5925, 6061, 6237, 6268, 6567, 6747, 6848, 7024, 7080, 7260, 7451, 7560, 7772, 7885, 7998, 8227, 8397, 8803, 9465, 9625, 9682, 9820, 9951, 10668, 10817, 10937, 11035, 11159, 11944, 15595, 15651, 15851, 15991, 16230, 17887, 18082, 18286, 18335, 18535, 18787], "trial_type": "free-recall", "conditions": [24, 1600, "v", 24000], "internal_node_id": "0.0-169.0-0.0", "key_presses": [67, 65, 66, 73, 78, 13, 83, 72, 79, 85, 76, 68, 69, 82, 13, 83, 84, 79, 77, 65, 67, 72, 13, 71, 65, 82, 78, 8, 68, 69, 78, 13, 70, 76, 79, 87, 69, 82, 13, 82, 73, 86, 69, 82, 13, 65, 83, 73, 65, 13, 74, 65, 80, 65, 78, 13, 83, 73, 76, 75, 13, 67, 65, 66, 73, 78, 13], "trial": 5, "time_elapsed": 1018098, "type": "FREE_RECALL", "trial_index": 223}, "uniqueid": "MTK2943:39GHHAVOMGYSHY4ZE7WCQ3PEPFQ4J8", "dateTime": 1519594686914}, {"current_trial": 224, "trialdata": {"rt": 9210, "trial_type": "text", "internal_node_id": "0.0-170.0", "time_elapsed": 1029335, "key_press": 32, "type": "INSTRUCTIONS", "trial_index": 224}, "uniqueid": "MTK2943:39GHHAVOMGYSHY4ZE7WCQ3PEPFQ4J8", "dateTime": 1519594698131}, {"current_trial": 225, "trialdata": {"rt": [1196, 2776, 4499, 5907, 8553, 11661], "trial_type": "math-distractor", "key_times": [975, 1196, 2368, 2560, 2776, 4119, 4267, 4499, 5459, 5644, 5907, 8133, 8363, 8553, 11295, 11449, 11661], "responses": ["6", "16", "14", "10", "20", "20"], "num2": [1, 2, 2, 4, 6, 8, 1], "num3": [4, 6, 6, 4, 5, 3, 6], "conditions": [12, 800, "v", 12000], "internal_node_id": "0.0-171.0", "key_presses": [102, 13, 97, 102, 13, 97, 100, 13, 97, 96, 13, 98, 96, 13, 98, 96, 13], "trial": 6, "time_elapsed": 1043347, "type": "DISTRACTOR", "trial_index": 225, "num1": [1, 8, 6, 2, 9, 9, 2]}, "uniqueid": "MTK2943:39GHHAVOMGYSHY4ZE7WCQ3PEPFQ4J8", "dateTime": 1519594712143}, {"current_trial": 226, "trialdata": {"rt": -1, "trial_type": "single-stim", "stimulus": "<p id=\"stim\">10</p>", "internal_node_id": "0.0-172.0-0.0", "time_elapsed": 1046356, "key_press": -1, "trial_index": 226}, "uniqueid": "MTK2943:39GHHAVOMGYSHY4ZE7WCQ3PEPFQ4J8", "dateTime": 1519594715153}, {"current_trial": 227, "trialdata": {"rt": -1, "trial_type": "single-stim", "stimulus": "<p id=\"stim\">9</p>", "internal_node_id": "0.0-172.0-1.0", "time_elapsed": 1047363, "key_press": -1, "trial_index": 227}, "uniqueid": "MTK2943:39GHHAVOMGYSHY4ZE7WCQ3PEPFQ4J8", "dateTime": 1519594716159}, {"current_trial": 228, "trialdata": {"rt": -1, "trial_type": "single-stim", "stimulus": "<p id=\"stim\">8</p>", "internal_node_id": "0.0-172.0-2.0", "time_elapsed": 1048371, "key_press": -1, "trial_index": 228}, "uniqueid": "MTK2943:39GHHAVOMGYSHY4ZE7WCQ3PEPFQ4J8", "dateTime": 1519594717167}, {"current_trial": 229, "trialdata": {"rt": -1, "trial_type": "single-stim", "stimulus": "<p id=\"stim\">7</p>", "internal_node_id": "0.0-172.0-3.0", "time_elapsed": 1049378, "key_press": -1, "trial_index": 229}, "uniqueid": "MTK2943:39GHHAVOMGYSHY4ZE7WCQ3PEPFQ4J8", "dateTime": 1519594718175}, {"current_trial": 230, "trialdata": {"rt": -1, "trial_type": "single-stim", "stimulus": "<p id=\"stim\">6</p>", "internal_node_id": "0.0-172.0-4.0", "time_elapsed": 1050385, "key_press": -1, "trial_index": 230}, "uniqueid": "MTK2943:39GHHAVOMGYSHY4ZE7WCQ3PEPFQ4J8", "dateTime": 1519594719182}, {"current_trial": 231, "trialdata": {"rt": -1, "trial_type": "single-stim", "stimulus": "<p id=\"stim\">5</p>", "internal_node_id": "0.0-172.0-5.0", "time_elapsed": 1051392, "key_press": -1, "trial_index": 231}, "uniqueid": "MTK2943:39GHHAVOMGYSHY4ZE7WCQ3PEPFQ4J8", "dateTime": 1519594720189}, {"current_trial": 232, "trialdata": {"rt": -1, "trial_type": "single-stim", "stimulus": "<p id=\"stim\">4</p>", "internal_node_id": "0.0-172.0-6.0", "time_elapsed": 1052402, "key_press": -1, "trial_index": 232}, "uniqueid": "MTK2943:39GHHAVOMGYSHY4ZE7WCQ3PEPFQ4J8", "dateTime": 1519594721198}, {"current_trial": 233, "trialdata": {"rt": -1, "trial_type": "single-stim", "stimulus": "<p id=\"stim\">3</p>", "internal_node_id": "0.0-172.0-7.0", "time_elapsed": 1053408, "key_press": -1, "trial_index": 233}, "uniqueid": "MTK2943:39GHHAVOMGYSHY4ZE7WCQ3PEPFQ4J8", "dateTime": 1519594722204}, {"current_trial": 234, "trialdata": {"rt": -1, "trial_type": "single-stim", "stimulus": "<p id=\"stim\">2</p>", "internal_node_id": "0.0-172.0-8.0", "time_elapsed": 1054414, "key_press": -1, "trial_index": 234}, "uniqueid": "MTK2943:39GHHAVOMGYSHY4ZE7WCQ3PEPFQ4J8", "dateTime": 1519594723211}, {"current_trial": 235, "trialdata": {"rt": -1, "trial_type": "single-stim", "stimulus": "<p id=\"stim\">1</p>", "internal_node_id": "0.0-172.0-9.0", "time_elapsed": 1055422, "key_press": -1, "trial_index": 235}, "uniqueid": "MTK2943:39GHHAVOMGYSHY4ZE7WCQ3PEPFQ4J8", "dateTime": 1519594724219}, {"current_trial": 236, "trialdata": {"rt": -1, "trial_type": "single-stim", "stimulus": "<p id=\"stim\">+</p>", "internal_node_id": "0.0-173.0-0.0", "time_elapsed": 1056928, "key_press": -1, "type": "FIXATION", "trial_index": 236}, "uniqueid": "MTK2943:39GHHAVOMGYSHY4ZE7WCQ3PEPFQ4J8", "dateTime": 1519594725724}, {"current_trial": 237, "trialdata": {"rt": -1, "trial_type": "single-stim", "word": "bison", "stimulus": "<p id=\"stim\">BISON</p>", "conditions": [12, 800, "v", 12000], "internal_node_id": "0.0-174.0", "trial": 6, "time_elapsed": 1057735, "serialpos": 0, "key_press": -1, "wordID": 130, "type": "PRES_VIS", "trial_index": 237}, "uniqueid": "MTK2943:39GHHAVOMGYSHY4ZE7WCQ3PEPFQ4J8", "dateTime": 1519594726531}, {"current_trial": 238, "trialdata": {"rt": -1, "trial_type": "single-stim", "word": "france", "stimulus": "<p id=\"stim\">FRANCE</p>", "conditions": [12, 800, "v", 12000], "internal_node_id": "0.0-175.0", "trial": 6, "time_elapsed": 1059551, "serialpos": 1, "key_press": -1, "wordID": 600, "type": "PRES_VIS", "trial_index": 238}, "uniqueid": "MTK2943:39GHHAVOMGYSHY4ZE7WCQ3PEPFQ4J8", "dateTime": 1519594728347}, {"current_trial": 239, "trialdata": {"rt": -1, "trial_type": "single-stim", "word": "market", "stimulus": "<p id=\"stim\">MARKET</p>", "conditions": [12, 800, "v", 12000], "internal_node_id": "0.0-176.0", "trial": 6, "time_elapsed": 1061325, "serialpos": 2, "key_press": -1, "wordID": 870, "type": "PRES_VIS", "trial_index": 239}, "uniqueid": "MTK2943:39GHHAVOMGYSHY4ZE7WCQ3PEPFQ4J8", "dateTime": 1519594730121}, {"current_trial": 240, "trialdata": {"rt": -1, "trial_type": "single-stim", "word": "stove", "stimulus": "<p id=\"stim\">STOVE</p>", "conditions": [12, 800, "v", 12000], "internal_node_id": "0.0-177.0", "trial": 6, "time_elapsed": 1063159, "serialpos": 3, "key_press": -1, "wordID": 1387, "type": "PRES_VIS", "trial_index": 240}, "uniqueid": "MTK2943:39GHHAVOMGYSHY4ZE7WCQ3PEPFQ4J8", "dateTime": 1519594731955}, {"current_trial": 241, "trialdata": {"rt": -1, "trial_type": "single-stim", "word": "fireplace", "stimulus": "<p id=\"stim\">FIREPLACE</p>", "conditions": [12, 800, "v", 12000], "internal_node_id": "0.0-178.0", "trial": 6, "time_elapsed": 1065057, "serialpos": 4, "key_press": -1, "wordID": 569, "type": "PRES_VIS", "trial_index": 241}, "uniqueid": "MTK2943:39GHHAVOMGYSHY4ZE7WCQ3PEPFQ4J8", "dateTime": 1519594733853}, {"current_trial": 242, "trialdata": {"rt": -1, "trial_type": "single-stim", "word": "pigeon", "stimulus": "<p id=\"stim\">PIGEON</p>", "conditions": [12, 800, "v", 12000], "internal_node_id": "0.0-179.0", "trial": 6, "time_elapsed": 1066750, "serialpos": 5, "key_press": -1, "wordID": 1064, "type": "PRES_VIS", "trial_index": 242}, "uniqueid": "MTK2943:39GHHAVOMGYSHY4ZE7WCQ3PEPFQ4J8", "dateTime": 1519594735547}, {"current_trial": 243, "trialdata": {"rt": -1, "trial_type": "single-stim", "word": "rust", "stimulus": "<p id=\"stim\">RUST</p>", "conditions": [12, 800, "v", 12000], "internal_node_id": "0.0-180.0", "trial": 6, "time_elapsed": 1068677, "serialpos": 6, "key_press": -1, "wordID": 1218, "type": "PRES_VIS", "trial_index": 243}, "uniqueid": "MTK2943:39GHHAVOMGYSHY4ZE7WCQ3PEPFQ4J8", "dateTime": 1519594737474}, {"current_trial": 244, "trialdata": {"rt": -1, "trial_type": "single-stim", "word": "pigment", "stimulus": "<p id=\"stim\">PIGMENT</p>", "conditions": [12, 800, "v", 12000], "internal_node_id": "0.0-181.0", "trial": 6, "time_elapsed": 1070667, "serialpos": 7, "key_press": -1, "wordID": 1065, "type": "PRES_VIS", "trial_index": 244}, "uniqueid": "MTK2943:39GHHAVOMGYSHY4ZE7WCQ3PEPFQ4J8", "dateTime": 1519594739463}, {"current_trial": 245, "trialdata": {"rt": -1, "trial_type": "single-stim", "word": "plate", "stimulus": "<p id=\"stim\">PLATE</p>", "conditions": [12, 800, "v", 12000], "internal_node_id": "0.0-182.0", "trial": 6, "time_elapsed": 1072475, "serialpos": 8, "key_press": -1, "wordID": 1085, "type": "PRES_VIS", "trial_index": 245}, "uniqueid": "MTK2943:39GHHAVOMGYSHY4ZE7WCQ3PEPFQ4J8", "dateTime": 1519594741271}, {"current_trial": 246, "trialdata": {"rt": -1, "trial_type": "single-stim", "word": "ulcer", "stimulus": "<p id=\"stim\">ULCER</p>", "conditions": [12, 800, "v", 12000], "internal_node_id": "0.0-183.0", "trial": 6, "time_elapsed": 1074472, "serialpos": 9, "key_press": -1, "wordID": 1532, "type": "PRES_VIS", "trial_index": 246}, "uniqueid": "MTK2943:39GHHAVOMGYSHY4ZE7WCQ3PEPFQ4J8", "dateTime": 1519594743268}, {"current_trial": 247, "trialdata": {"rt": -1, "trial_type": "single-stim", "word": "cattle", "stimulus": "<p id=\"stim\">CATTLE</p>", "conditions": [12, 800, "v", 12000], "internal_node_id": "0.0-184.0", "trial": 6, "time_elapsed": 1076475, "serialpos": 10, "key_press": -1, "wordID": 260, "type": "PRES_VIS", "trial_index": 247}, "uniqueid": "MTK2943:39GHHAVOMGYSHY4ZE7WCQ3PEPFQ4J8", "dateTime": 1519594745272}, {"current_trial": 248, "trialdata": {"rt": -1, "trial_type": "single-stim", "word": "brick", "stimulus": "<p id=\"stim\">BRICK</p>", "conditions": [12, 800, "v", 12000], "internal_node_id": "0.0-185.0", "trial": 6, "time_elapsed": 1078392, "serialpos": 11, "key_press": -1, "wordID": 171, "type": "PRES_VIS", "trial_index": 248}, "uniqueid": "MTK2943:39GHHAVOMGYSHY4ZE7WCQ3PEPFQ4J8", "dateTime": 1519594747188}, {"current_trial": 249, "trialdata": {"rt": -1, "trial_type": "single-stim", "stimulus": "", "internal_node_id": "0.0-186.0-0.0", "time_elapsed": 1080757, "key_press": -1, "type": "PRE_RECALL_DELAY", "trial_index": 249}, "uniqueid": "MTK2943:39GHHAVOMGYSHY4ZE7WCQ3PEPFQ4J8", "dateTime": 1519594749554}, {"current_trial": 250, "trialdata": {"rt": -1000, "trial_type": "single-audio", "stimulus": "/static/audio/400Hz.wav", "internal_node_id": "0.0-187.0", "time_elapsed": 1081272, "key_press": -1, "type": "PRE_RE