{"assignmentId": "3IXQG4FA2U5NWLCZ7AFM9NHH1ZYB9L", "workerId": "MTK2308", "questiondata": {"origin": "United States", "strat-rehearsal": "48", "marital": "Single", "education": "High school diploma", "ethnicity": "Not Hispanic", "color_depth": 24, "distracted": "No", "wrote-notes": "No", "strat-other": "", "screen_width": 1920, "avail_screen_width": 1920, "avail_screen_height": 1040, "strat-image": "100", "language": "English", "gender": "Female", "age": "39", "gender_other": "", "race": ["White"], "strat-categorize": "35", "pixel_depth": 24, "strat-spatial": "0", "strat-story": "4", "race_other": "", "screen_height": 1080}, "bonus": 0, "hitId": "3NKW03WTLMEJP3T2T1H2TCO724GWQI", "counterbalance": 1908, "useragent": "Mozilla/5.0 (Windows NT 10.0; Win64; x64) AppleWebKit/537.36 (KHTML, like Gecko) Chrome/63.0.3239.132 Safari/537.36", "eventdata": [{"eventtype": "initialized", "interval": 0, "value": null, "timestamp": 1516985177482}, {"eventtype": "window_resize", "interval": 0, "value": [1920, 989], "timestamp": 1516985177482}, {"eventtype": "focus", "interval": 7415, "value": "off", "timestamp": 1516985184897}, {"eventtype": "focus", "interval": 3430, "value": "on", "timestamp": 1516985188327}], "data": [{"current_trial": 0, "trialdata": {"rt": 4003, "trial_type": "text", "internal_node_id": "0.0-0.0", "time_elapsed": 4005, "key_press": 32, "type": "INSTRUCTIONS", "trial_index": 0}, "uniqueid": "MTK2308:3IXQG4FA2U5NWLCZ7AFM9NHH1ZYB9L", "dateTime": 1516985199828}, {"current_trial": 1, "trialdata": {"rt": 56651, "trial_type": "text", "internal_node_id": "0.0-1.0", "time_elapsed": 60659, "key_press": 32, "type": "INSTRUCTIONS", "trial_index": 1}, "uniqueid": "MTK2308:3IXQG4FA2U5NWLCZ7AFM9NHH1ZYB9L", "dateTime": 1516985256481}, {"current_trial": 2, "trialdata": {"rt": [9409], "trial_type": "audio-test", "responses": ["ocean"], "internal_node_id": "0.0-2.0", "time_elapsed": 70090, "type": "AUDIO_TEST", "trial_index": 2}, "uniqueid": "MTK2308:3IXQG4FA2U5NWLCZ7AFM9NHH1ZYB9L", "dateTime": 1516985265913}, {"current_trial": 3, "trialdata": {"rt": [5227], "trial_type": "audio-test", "responses": ["crystal"], "internal_node_id": "0.0-3.0", "time_elapsed": 75322, "type": "AUDIO_TEST", "trial_index": 3}, "uniqueid": "MTK2308:3IXQG4FA2U5NWLCZ7AFM9NHH1ZYB9L", "dateTime": 1516985271144}, {"current_trial": 4, "trialdata": {"rt": [6228], "trial_type": "audio-test", "responses": ["spice"], "internal_node_id": "0.0-4.0", "time_elapsed": 81554, "type": "AUDIO_TEST", "trial_index": 4}, "uniqueid": "MTK2308:3IXQG4FA2U5NWLCZ7AFM9NHH1ZYB9L", "dateTime": 1516985277376}, {"current_trial": 5, "trialdata": {"rt": 24173, "trial_type": "survey-text", "responses": "{\"Q0\":\"11:00\",\"Q1\":\"7:30\",\"Q2\":\"4\"}", "internal_node_id": "0.0-5.0", "time_elapsed": 106480, "type": "SLEEP_SURVEY", "trial_index": 5}, "uniqueid": "MTK2308:3IXQG4FA2U5NWLCZ7AFM9NHH1ZYB9L", "dateTime": 1516985302302}, {"current_trial": 6, "trialdata": {"rt": 37421, "trial_type": "text", "internal_node_id": "0.0-6.0", "time_elapsed": 144903, "key_press": 32, "type": "INSTRUCTIONS", "trial_index": 6}, "uniqueid": "MTK2308:3IXQG4FA2U5NWLCZ7AFM9NHH1ZYB9L", "dateTime": 1516985340725}, {"current_trial": 7, "trialdata": {"rt": 15354, "trial_type": "text", "internal_node_id": "0.0-7.0", "time_elapsed": 160758, "key_press": 32, "type": "INSTRUCTIONS", "trial_index": 7}, "uniqueid": "MTK2308:3IXQG4FA2U5NWLCZ7AFM9NHH1ZYB9L", "dateTime": 1516985356581}, {"current_trial": 8, "trialdata": {"rt": 11801, "trial_type": "text", "internal_node_id": "0.0-8.0", "time_elapsed": 173062, "key_press": 32, "type": "INSTRUCTIONS", "trial_index": 8}, "uniqueid": "MTK2308:3IXQG4FA2U5NWLCZ7AFM9NHH1ZYB9L", "dateTime": 1516985368884}, {"current_trial": 9, "trialdata": {"rt": [3435, 6091, 8875, 13243, 15402, 17922], "trial_type": "math-distractor", "key_times": [3147, 3211, 3435, 5843, 5883, 6091, 8635, 8699, 8875, 12931, 12987, 13243, 15107, 15259, 15402, 17746, 17827, 17922], "responses": ["15", "16", "12", "18", "14", "20"], "num2": [8, 8, 4, 8, 2, 2, 9], "num3": [6, 2, 4, 9, 7, 9, 8], "conditions": [18, 1200, "a", 18000], "internal_node_id": "0.0-9.0", "key_presses": [97, 101, 13, 97, 102, 13, 97, 98, 13, 97, 104, 13, 97, 100, 13, 98, 96, 13], "trial": 0, "time_elapsed": 192068, "type": "DISTRACTOR", "trial_index": 9, "num1": [1, 6, 4, 1, 5, 9, 3]}, "uniqueid": "MTK2308:3IXQG4FA2U5NWLCZ7AFM9NHH1ZYB9L", "dateTime": 1516985387890}, {"current_trial": 10, "trialdata": {"rt": -1, "trial_type": "single-stim", "stimulus": "<p id=\"stim\">10</p>", "internal_node_id": "0.0-10.0-0.0", "time_elapsed": 195072, "key_press": -1, "trial_index": 10}, "uniqueid": "MTK2308:3IXQG4FA2U5NWLCZ7AFM9NHH1ZYB9L", "dateTime": 1516985390894}, {"current_trial": 11, "trialdata": {"rt": -1, "trial_type": "single-stim", "stimulus": "<p id=\"stim\">9</p>", "internal_node_id": "0.0-10.0-1.0", "time_elapsed": 196073, "key_press": -1, "trial_index": 11}, "uniqueid": "MTK2308:3IXQG4FA2U5NWLCZ7AFM9NHH1ZYB9L", "dateTime": 1516985391895}, {"current_trial": 12, "trialdata": {"rt": -1, "trial_type": "single-stim", "stimulus": "<p id=\"stim\">8</p>", "internal_node_id": "0.0-10.0-2.0", "time_elapsed": 197075, "key_press": -1, "trial_index": 12}, "uniqueid": "MTK2308:3IXQG4FA2U5NWLCZ7AFM9NHH1ZYB9L", "dateTime": 1516985392897}, {"current_trial": 13, "trialdata": {"rt": -1, "trial_type": "single-stim", "stimulus": "<p id=\"stim\">7</p>", "internal_node_id": "0.0-10.0-3.0", "time_elapsed": 198076, "key_press": -1, "trial_index": 13}, "uniqueid": "MTK2308:3IXQG4FA2U5NWLCZ7AFM9NHH1ZYB9L", "dateTime": 1516985393898}, {"current_trial": 14, "trialdata": {"rt": -1, "trial_type": "single-stim", "stimulus": "<p id=\"stim\">6</p>", "internal_node_id": "0.0-10.0-4.0", "time_elapsed": 199078, "key_press": -1, "trial_index": 14}, "uniqueid": "MTK2308:3IXQG4FA2U5NWLCZ7AFM9NHH1ZYB9L", "dateTime": 1516985394900}, {"current_trial": 15, "trialdata": {"rt": -1, "trial_type": "single-stim", "stimulus": "<p id=\"stim\">5</p>", "internal_node_id": "0.0-10.0-5.0", "time_elapsed": 200080, "key_press": -1, "trial_index": 15}, "uniqueid": "MTK2308:3IXQG4FA2U5NWLCZ7AFM9NHH1ZYB9L", "dateTime": 1516985395902}, {"current_trial": 16, "trialdata": {"rt": -1, "trial_type": "single-stim", "stimulus": "<p id=\"stim\">4</p>", "internal_node_id": "0.0-10.0-6.0", "time_elapsed": 201082, "key_press": -1, "trial_index": 16}, "uniqueid": "MTK2308:3IXQG4FA2U5NWLCZ7AFM9NHH1ZYB9L", "dateTime": 1516985396904}, {"current_trial": 17, "trialdata": {"rt": -1, "trial_type": "single-stim", "stimulus": "<p id=\"stim\">3</p>", "internal_node_id": "0.0-10.0-7.0", "time_elapsed": 202083, "key_press": -1, "trial_index": 17}, "uniqueid": "MTK2308:3IXQG4FA2U5NWLCZ7AFM9NHH1ZYB9L", "dateTime": 1516985397905}, {"current_trial": 18, "trialdata": {"rt": -1, "trial_type": "single-stim", "stimulus": "<p id=\"stim\">2</p>", "internal_node_id": "0.0-10.0-8.0", "time_elapsed": 203085, "key_press": -1, "trial_index": 18}, "uniqueid": "MTK2308:3IXQG4FA2U5NWLCZ7AFM9NHH1ZYB9L", "dateTime": 1516985398907}, {"current_trial": 19, "trialdata": {"rt": -1, "trial_type": "single-stim", "stimulus": "<p id=\"stim\">1</p>", "internal_node_id": "0.0-10.0-9.0", "time_elapsed": 204086, "key_press": -1, "trial_index": 19}, "uniqueid": "MTK2308:3IXQG4FA2U5NWLCZ7AFM9NHH1ZYB9L", "dateTime": 1516985399908}, {"current_trial": 20, "trialdata": {"rt": -1, "trial_type": "single-stim", "stimulus": "<p id=\"stim\">+</p>", "internal_node_id": "0.0-11.0-0.0", "time_elapsed": 205588, "key_press": -1, "type": "FIXATION", "trial_index": 20}, "uniqueid": "MTK2308:3IXQG4FA2U5NWLCZ7AFM9NHH1ZYB9L", "dateTime": 1516985401410}, {"current_trial": 21, "trialdata": {"rt": -1000, "trial_type": "single-audio", "word": "robot", "stimulus": "/static/audio/wordpool/ROBOT.wav", "conditions": [18, 1200, "a", 18000], "internal_node_id": "0.0-12.0", "trial": 0, "time_elapsed": 207662, "serialpos": 0, "key_press": -1, "wordID": 1199, "type": "PRES_AUD", "trial_index": 21}, "uniqueid": "MTK2308:3IXQG4FA2U5NWLCZ7AFM9NHH1ZYB9L", "dateTime": 1516985403484}, {"current_trial": 22, "trialdata": {"rt": -1000, "trial_type": "single-audio", "word": "sandwich", "stimulus": "/static/audio/wordpool/SANDWICH.wav", "conditions": [18, 1200, "a", 18000], "internal_node_id": "0.0-13.0", "trial": 0, "time_elapsed": 209885, "serialpos": 1, "key_press": -1, "wordID": 1231, "type": "PRES_AUD", "trial_index": 22}, "uniqueid": "MTK2308:3IXQG4FA2U5NWLCZ7AFM9NHH1ZYB9L", "dateTime": 1516985405707}, {"current_trial": 23, "trialdata": {"rt": -1000, "trial_type": "single-audio", "word": "penguin", "stimulus": "/static/audio/wordpool/PENGUIN.wav", "conditions": [18, 1200, "a", 18000], "internal_node_id": "0.0-14.0", "trial": 0, "time_elapsed": 211980, "serialpos": 2, "key_press": -1, "wordID": 1043, "type": "PRES_AUD", "trial_index": 23}, "uniqueid": "MTK2308:3IXQG4FA2U5NWLCZ7AFM9NHH1ZYB9L", "dateTime": 1516985407802}, {"current_trial": 24, "trialdata": {"rt": -1000, "trial_type": "single-audio", "word": "hero", "stimulus": "/static/audio/wordpool/HERO.wav", "conditions": [18, 1200, "a", 18000], "internal_node_id": "0.0-15.0", "trial": 0, "time_elapsed": 214079, "serialpos": 3, "key_press": -1, "wordID": 705, "type": "PRES_AUD", "trial_index": 24}, "uniqueid": "MTK2308:3IXQG4FA2U5NWLCZ7AFM9NHH1ZYB9L", "dateTime": 1516985409901}, {"current_trial": 25, "trialdata": {"rt": -1000, "trial_type": "single-audio", "word": "mildew", "stimulus": "/static/audio/wordpool/MILDEW.wav", "conditions": [18, 1200, "a", 18000], "internal_node_id": "0.0-16.0", "trial": 0, "time_elapsed": 216391, "serialpos": 4, "key_press": -1, "wordID": 892, "type": "PRES_AUD", "trial_index": 25}, "uniqueid": "MTK2308:3IXQG4FA2U5NWLCZ7AFM9NHH1ZYB9L", "dateTime": 1516985412213}, {"current_trial": 26, "trialdata": {"rt": -1000, "trial_type": "single-audio", "word": "transplant", "stimulus": "/static/audio/wordpool/TRANSPLANT.wav", "conditions": [18, 1200, "a", 18000], "internal_node_id": "0.0-17.0", "trial": 0, "time_elapsed": 218645, "serialpos": 5, "key_press": -1, "wordID": 1495, "type": "PRES_AUD", "trial_index": 26}, "uniqueid": "MTK2308:3IXQG4FA2U5NWLCZ7AFM9NHH1ZYB9L", "dateTime": 1516985414467}, {"current_trial": 27, "trialdata": {"rt": -1000, "trial_type": "single-audio", "word": "eagle", "stimulus": "/static/audio/wordpool/EAGLE.wav", "conditions": [18, 1200, "a", 18000], "internal_node_id": "0.0-18.0", "trial": 0, "time_elapsed": 220987, "serialpos": 6, "key_press": -1, "wordID": 511, "type": "PRES_AUD", "trial_index": 27}, "uniqueid": "MTK2308:3IXQG4FA2U5NWLCZ7AFM9NHH1ZYB9L", "dateTime": 1516985416809}, {"current_trial": 28, "trialdata": {"rt": -1000, "trial_type": "single-audio", "word": "frame", "stimulus": "/static/audio/wordpool/FRAME.wav", "conditions": [18, 1200, "a", 18000], "internal_node_id": "0.0-19.0", "trial": 0, "time_elapsed": 222994, "serialpos": 7, "key_press": -1, "wordID": 599, "type": "PRES_AUD", "trial_index": 28}, "uniqueid": "MTK2308:3IXQG4FA2U5NWLCZ7AFM9NHH1ZYB9L", "dateTime": 1516985418817}, {"current_trial": 29, "trialdata": {"rt": -1000, "trial_type": "single-audio", "word": "garbage", "stimulus": "/static/audio/wordpool/GARBAGE.wav", "conditions": [18, 1200, "a", 18000], "internal_node_id": "0.0-20.0", "trial": 0, "time_elapsed": 225187, "serialpos": 8, "key_press": -1, "wordID": 621, "type": "PRES_AUD", "trial_index": 29}, "uniqueid": "MTK2308:3IXQG4FA2U5NWLCZ7AFM9NHH1ZYB9L", "dateTime": 1516985421009}, {"current_trial": 30, "trialdata": {"rt": -1000, "trial_type": "single-audio", "word": "sunset", "stimulus": "/static/audio/wordpool/SUNSET.wav", "conditions": [18, 1200, "a", 18000], "internal_node_id": "0.0-21.0", "trial": 0, "time_elapsed": 227361, "serialpos": 9, "key_press": -1, "wordID": 1407, "type": "PRES_AUD", "trial_index": 30}, "uniqueid": "MTK2308:3IXQG4FA2U5NWLCZ7AFM9NHH1ZYB9L", "dateTime": 1516985423183}, {"current_trial": 31, "trialdata": {"rt": -1000, "trial_type": "single-audio", "word": "sunrise", "stimulus": "/static/audio/wordpool/SUNRISE.wav", "conditions": [18, 1200, "a", 18000], "internal_node_id": "0.0-22.0", "trial": 0, "time_elapsed": 229439, "serialpos": 10, "key_press": -1, "wordID": 1406, "type": "PRES_AUD", "trial_index": 31}, "uniqueid": "MTK2308:3IXQG4FA2U5NWLCZ7AFM9NHH1ZYB9L", "dateTime": 1516985425261}, {"current_trial": 32, "trialdata": {"rt": -1000, "trial_type": "single-audio", "word": "motor", "stimulus": "/static/audio/wordpool/MOTOR.wav", "conditions": [18, 1200, "a", 18000], "internal_node_id": "0.0-23.0", "trial": 0, "time_elapsed": 231722, "serialpos": 11, "key_press": -1, "wordID": 921, "type": "PRES_AUD", "trial_index": 32}, "uniqueid": "MTK2308:3IXQG4FA2U5NWLCZ7AFM9NHH1ZYB9L", "dateTime": 1516985427544}, {"current_trial": 33, "trialdata": {"rt": -1000, "trial_type": "single-audio", "word": "hawk", "stimulus": "/static/audio/wordpool/HAWK.wav", "conditions": [18, 1200, "a", 18000], "internal_node_id": "0.0-24.0", "trial": 0, "time_elapsed": 233769, "serialpos": 12, "key_press": -1, "wordID": 691, "type": "PRES_AUD", "trial_index": 33}, "uniqueid": "MTK2308:3IXQG4FA2U5NWLCZ7AFM9NHH1ZYB9L", "dateTime": 1516985429591}, {"current_trial": 34, "trialdata": {"rt": -1000, "trial_type": "single-audio", "word": "notebook", "stimulus": "/static/audio/wordpool/NOTEBOOK.wav", "conditions": [18, 1200, "a", 18000], "internal_node_id": "0.0-25.0", "trial": 0, "time_elapsed": 235925, "serialpos": 13, "key_press": -1, "wordID": 958, "type": "PRES_AUD", "trial_index": 34}, "uniqueid": "MTK2308:3IXQG4FA2U5NWLCZ7AFM9NHH1ZYB9L", "dateTime": 1516985431747}, {"current_trial": 35, "trialdata": {"rt": -1000, "trial_type": "single-audio", "word": "bug", "stimulus": "/static/audio/wordpool/BUG.wav", "conditions": [18, 1200, "a", 18000], "internal_node_id": "0.0-26.0", "trial": 0, "time_elapsed": 238013, "serialpos": 14, "key_press": -1, "wordID": 186, "type": "PRES_AUD", "trial_index": 35}, "uniqueid": "MTK2308:3IXQG4FA2U5NWLCZ7AFM9NHH1ZYB9L", "dateTime": 1516985433836}, {"current_trial": 36, "trialdata": {"rt": -1000, "trial_type": "single-audio", "word": "concert", "stimulus": "/static/audio/wordpool/CONCERT.wav", "conditions": [18, 1200, "a", 18000], "internal_node_id": "0.0-27.0", "trial": 0, "time_elapsed": 240036, "serialpos": 15, "key_press": -1, "wordID": 359, "type": "PRES_AUD", "trial_index": 36}, "uniqueid": "MTK2308:3IXQG4FA2U5NWLCZ7AFM9NHH1ZYB9L", "dateTime": 1516985435859}, {"current_trial": 37, "trialdata": {"rt": -1000, "trial_type": "single-audio", "word": "parrot", "stimulus": "/static/audio/wordpool/PARROT.wav", "conditions": [18, 1200, "a", 18000], "internal_node_id": "0.0-28.0", "trial": 0, "time_elapsed": 242052, "serialpos": 16, "key_press": -1, "wordID": 1014, "type": "PRES_AUD", "trial_index": 37}, "uniqueid": "MTK2308:3IXQG4FA2U5NWLCZ7AFM9NHH1ZYB9L", "dateTime": 1516985437874}, {"current_trial": 38, "trialdata": {"rt": -1000, "trial_type": "single-audio", "word": "fleet", "stimulus": "/static/audio/wordpool/FLEET.wav", "conditions": [18, 1200, "a", 18000], "internal_node_id": "0.0-29.0", "trial": 0, "time_elapsed": 244207, "serialpos": 17, "key_press": -1, "wordID": 577, "type": "PRES_AUD", "trial_index": 38}, "uniqueid": "MTK2308:3IXQG4FA2U5NWLCZ7AFM9NHH1ZYB9L", "dateTime": 1516985440030}, {"current_trial": 39, "trialdata": {"rt": -1, "trial_type": "single-stim", "stimulus": "", "internal_node_id": "0.0-30.0-0.0", "time_elapsed": 245458, "key_press": -1, "type": "PRE_RECALL_DELAY", "trial_index": 39}, "uniqueid": "MTK2308:3IXQG4FA2U5NWLCZ7AFM9NHH1ZYB9L", "dateTime": 1516985441280}, {"current_trial": 40, "trialdata": {"rt": -1000, "trial_type": "single-audio", "stimulus": "/static/audio/400Hz.wav", "internal_node_id": "0.0-31.0", "time_elapsed": 245960, "key_press": -1, "type": "PRE_RECALL_ALERT", "trial_index": 40}, "uniqueid": "MTK2308:3IXQG4FA2U5NWLCZ7AFM9NHH1ZYB9L", "dateTime": 1516985441782}, {"current_trial": 41, "trialdata": {"rt": [2480, 4456, 6792, 9080, 11408, 14832, 16368, 21752], "recwords": ["fleet", "parrot", "robot", "sandwich", "garbage", "sunset", "sunrise", "eagle"], "key_times": [1489, 1713, 1953, 2097, 2241, 2480, 3121, 3201, 3376, 3496, 3744, 3872, 4456, 6040, 6136, 6352, 6480, 6584, 6792, 7240, 7320, 7472, 7656, 7848, 8072, 8761, 8864, 9080, 9633, 9800, 9880, 10264, 10479, 10752, 10832, 11408, 13800, 14008, 14112, 14400, 14576, 14664, 14832, 15208, 15416, 15496, 15776, 15896, 16072, 16168, 16368, 20464, 20544, 20904, 21136, 21239, 21752], "trial_type": "free-recall", "conditions": [18, 1200, "a", 18000], "internal_node_id": "0.0-32.0-0.0", "key_presses": [70, 76, 69, 69, 84, 13, 80, 65, 82, 82, 79, 84, 13, 82, 79, 66, 79, 84, 13, 83, 65, 78, 68, 87, 73, 67, 72, 13, 71, 65, 82, 66, 65, 71, 69, 13, 83, 85, 78, 83, 69, 84, 13, 83, 85, 78, 82, 73, 83, 69, 13, 69, 65, 71, 76, 69, 13], "trial": 0, "time_elapsed": 305965, "type": "FREE_RECALL", "trial_index": 41}, "uniqueid": "MTK2308:3IXQG4FA2U5NWLCZ7AFM9NHH1ZYB9L", "dateTime": 1516985501788}, {"current_trial": 42, "trialdata": {"rt": 1754, "trial_type": "text", "internal_node_id": "0.0-33.0", "time_elapsed": 309721, "key_press": 32, "type": "INSTRUCTIONS", "trial_index": 42}, "uniqueid": "MTK2308:3IXQG4FA2U5NWLCZ7AFM9NHH1ZYB9L", "dateTime": 1516985505543}, {"current_trial": 43, "trialdata": {"rt": [3644, 5429, 8677, 11301, 13133, 15541, 17165], "trial_type": "math-distractor", "key_times": [3277, 3357, 3644, 5117, 5173, 5429, 8317, 8397, 8677, 11021, 11157, 11301, 12765, 12829, 13133, 15205, 15244, 15541, 16973, 17165], "responses": ["17", "18", "16", "11", "17", "17", "8"], "num2": [3, 8, 2, 1, 1, 7, 2, 1], "num3": [5, 5, 9, 6, 7, 4, 1, 5], "conditions": [18, 1200, "a", 18000], "internal_node_id": "0.0-34.0", "key_presses": [97, 103, 13, 97, 104, 13, 97, 102, 13, 97, 97, 13, 97, 103, 13, 97, 103, 13, 104, 13], "trial": 1, "time_elapsed": 329724, "type": "DISTRACTOR", "trial_index": 43, "num1": [9, 5, 5, 4, 9, 6, 5, 1]}, "uniqueid": "MTK2308:3IXQG4FA2U5NWLCZ7AFM9NHH1ZYB9L", "dateTime": 1516985525547}, {"current_trial": 44, "trialdata": {"rt": -1, "trial_type": "single-stim", "stimulus": "<p id=\"stim\">10</p>", "internal_node_id": "0.0-35.0-0.0", "time_elapsed": 332726, "key_press": -1, "trial_index": 44}, "uniqueid": "MTK2308:3IXQG4FA2U5NWLCZ7AFM9NHH1ZYB9L", "dateTime": 1516985528548}, {"current_trial": 45, "trialdata": {"rt": -1, "trial_type": "single-stim", "stimulus": "<p id=\"stim\">9</p>", "internal_node_id": "0.0-35.0-1.0", "time_elapsed": 333728, "key_press": -1, "trial_index": 45}, "uniqueid": "MTK2308:3IXQG4FA2U5NWLCZ7AFM9NHH1ZYB9L", "dateTime": 1516985529550}, {"current_trial": 46, "trialdata": {"rt": -1, "trial_type": "single-stim", "stimulus": "<p id=\"stim\">8</p>", "internal_node_id": "0.0-35.0-2.0", "time_elapsed": 334729, "key_press": -1, "trial_index": 46}, "uniqueid": "MTK2308:3IXQG4FA2U5NWLCZ7AFM9NHH1ZYB9L", "dateTime": 1516985530551}, {"current_trial": 47, "trialdata": {"rt": -1, "trial_type": "single-stim", "stimulus": "<p id=\"stim\">7</p>", "internal_node_id": "0.0-35.0-3.0", "time_elapsed": 335730, "key_press": -1, "trial_index": 47}, "uniqueid": "MTK2308:3IXQG4FA2U5NWLCZ7AFM9NHH1ZYB9L", "dateTime": 1516985531552}, {"current_trial": 48, "trialdata": {"rt": -1, "trial_type": "single-stim", "stimulus": "<p id=\"stim\">6</p>", "internal_node_id": "0.0-35.0-4.0", "time_elapsed": 336731, "key_press": -1, "trial_index": 48}, "uniqueid": "MTK2308:3IXQG4FA2U5NWLCZ7AFM9NHH1ZYB9L", "dateTime": 1516985532553}, {"current_trial": 49, "trialdata": {"rt": -1, "trial_type": "single-stim", "stimulus": "<p id=\"stim\">5</p>", "internal_node_id": "0.0-35.0-5.0", "time_elapsed": 337733, "key_press": -1, "trial_index": 49}, "uniqueid": "MTK2308:3IXQG4FA2U5NWLCZ7AFM9NHH1ZYB9L", "dateTime": 1516985533555}, {"current_trial": 50, "trialdata": {"rt": -1, "trial_type": "single-stim", "stimulus": "<p id=\"stim\">4</p>", "internal_node_id": "0.0-35.0-6.0", "time_elapsed": 338734, "key_press": -1, "trial_index": 50}, "uniqueid": "MTK2308:3IXQG4FA2U5NWLCZ7AFM9NHH1ZYB9L", "dateTime": 1516985534557}, {"current_trial": 51, "trialdata": {"rt": -1, "trial_type": "single-stim", "stimulus": "<p id=\"stim\">3</p>", "internal_node_id": "0.0-35.0-7.0", "time_elapsed": 339736, "key_press": -1, "trial_index": 51}, "uniqueid": "MTK2308:3IXQG4FA2U5NWLCZ7AFM9NHH1ZYB9L", "dateTime": 1516985535558}, {"current_trial": 52, "trialdata": {"rt": -1, "trial_type": "single-stim", "stimulus": "<p id=\"stim\">2</p>", "internal_node_id": "0.0-35.0-8.0", "time_elapsed": 340738, "key_press": -1, "trial_index": 52}, "uniqueid": "MTK2308:3IXQG4FA2U5NWLCZ7AFM9NHH1ZYB9L", "dateTime": 1516985536560}, {"current_trial": 53, "trialdata": {"rt": -1, "trial_type": "single-stim", "stimulus": "<p id=\"stim\">1</p>", "internal_node_id": "0.0-35.0-9.0", "time_elapsed": 341739, "key_press": -1, "trial_index": 53}, "uniqueid": "MTK2308:3IXQG4FA2U5NWLCZ7AFM9NHH1ZYB9L", "dateTime": 1516985537562}, {"current_trial": 54, "trialdata": {"rt": -1, "trial_type": "single-stim", "stimulus": "<p id=\"stim\">+</p>", "internal_node_id": "0.0-36.0-0.0", "time_elapsed": 343240, "key_press": -1, "type": "FIXATION", "trial_index": 54}, "uniqueid": "MTK2308:3IXQG4FA2U5NWLCZ7AFM9NHH1ZYB9L", "dateTime": 1516985539063}, {"current_trial": 55, "trialdata": {"rt": -1000, "trial_type": "single-audio", "word": "island", "stimulus": "/static/audio/wordpool/ISLAND.wav", "conditions": [18, 1200, "a", 18000], "internal_node_id": "0.0-37.0", "trial": 1, "time_elapsed": 345417, "serialpos": 0, "key_press": -1, "wordID": 744, "type": "PRES_AUD", "trial_index": 55}, "uniqueid": "MTK2308:3IXQG4FA2U5NWLCZ7AFM9NHH1ZYB9L", "dateTime": 1516985541239}, {"current_trial": 56, "trialdata": {"rt": -1000, "trial_type": "single-audio", "word": "cloud", "stimulus": "/static/audio/wordpool/CLOUD.wav", "conditions": [18, 1200, "a", 18000], "internal_node_id": "0.0-38.0", "trial": 1, "time_elapsed": 347534, "serialpos": 1, "key_press": -1, "wordID": 327, "type": "PRES_AUD", "trial_index": 56}, "uniqueid": "MTK2308:3IXQG4FA2U5NWLCZ7AFM9NHH1ZYB9L", "dateTime": 1516985543357}, {"current_trial": 57, "trialdata": {"rt": -1000, "trial_type": "single-audio", "word": "puppy", "stimulus": "/static/audio/wordpool/PUPPY.wav", "conditions": [18, 1200, "a", 18000], "internal_node_id": "0.0-39.0", "trial": 1, "time_elapsed": 349880, "serialpos": 2, "key_press": -1, "wordID": 1143, "type": "PRES_AUD", "trial_index": 57}, "uniqueid": "MTK2308:3IXQG4FA2U5NWLCZ7AFM9NHH1ZYB9L", "dateTime": 1516985545702}, {"current_trial": 58, "trialdata": {"rt": -1000, "trial_type": "single-audio", "word": "ox", "stimulus": "/static/audio/wordpool/OX.wav", "conditions": [18, 1200, "a", 18000], "internal_node_id": "0.0-40.0", "trial": 1, "time_elapsed": 352241, "serialpos": 3, "key_press": -1, "wordID": 993, "type": "PRES_AUD", "trial_index": 58}, "uniqueid": "MTK2308:3IXQG4FA2U5NWLCZ7AFM9NHH1ZYB9L", "dateTime": 1516985548063}, {"current_trial": 59, "trialdata": {"rt": -1000, "trial_type": "single-audio", "word": "handbag", "stimulus": "/static/audio/wordpool/HANDBAG.wav", "conditions": [18, 1200, "a", 18000], "internal_node_id": "0.0-41.0", "trial": 1, "time_elapsed": 354509, "serialpos": 4, "key_press": -1, "wordID": 683, "type": "PRES_AUD", "trial_index": 59}, "uniqueid": "MTK2308:3IXQG4FA2U5NWLCZ7AFM9NHH1ZYB9L", "dateTime": 1516985550331}, {"current_trial": 60, "trialdata": {"rt": -1000, "trial_type": "single-audio", "word": "scarecrow", "stimulus": "/static/audio/wordpool/SCARECROW.wav", "conditions": [18, 1200, "a", 18000], "internal_node_id": "0.0-42.0", "trial": 1, "time_elapsed": 356537, "serialpos": 5, "key_press": -1, "wordID": 1244, "type": "PRES_AUD", "trial_index": 60}, "uniqueid": "MTK2308:3IXQG4FA2U5NWLCZ7AFM9NHH1ZYB9L", "dateTime": 1516985552359}, {"current_trial": 61, "trialdata": {"rt": -1000, "trial_type": "single-audio", "word": "kleenex", "stimulus": "/static/audio/wordpool/KLEENEX.wav", "conditions": [18, 1200, "a", 18000], "internal_node_id": "0.0-43.0", "trial": 1, "time_elapsed": 358769, "serialpos": 6, "key_press": -1, "wordID": 781, "type": "PRES_AUD", "trial_index": 61}, "uniqueid": "MTK2308:3IXQG4FA2U5NWLCZ7AFM9NHH1ZYB9L", "dateTime": 1516985554591}, {"current_trial": 62, "trialdata": {"rt": -1000, "trial_type": "single-audio", "word": "europe", "stimulus": "/static/audio/wordpool/EUROPE.wav", "conditions": [18, 1200, "a", 18000], "internal_node_id": "0.0-44.0", "trial": 1, "time_elapsed": 361009, "serialpos": 7, "key_press": -1, "wordID": 540, "type": "PRES_AUD", "trial_index": 62}, "uniqueid": "MTK2308:3IXQG4FA2U5NWLCZ7AFM9NHH1ZYB9L", "dateTime": 1516985556831}, {"current_trial": 63, "trialdata": {"rt": -1000, "trial_type": "single-audio", "word": "spoon", "stimulus": "/static/audio/wordpool/SPOON.wav", "conditions": [18, 1200, "a", 18000], "internal_node_id": "0.0-45.0", "trial": 1, "time_elapsed": 363129, "serialpos": 8, "key_press": -1, "wordID": 1356, "type": "PRES_AUD", "trial_index": 63}, "uniqueid": "MTK2308:3IXQG4FA2U5NWLCZ7AFM9NHH1ZYB9L", "dateTime": 1516985558951}, {"current_trial": 64, "trialdata": {"rt": -1000, "trial_type": "single-audio", "word": "lava", "stimulus": "/static/audio/wordpool/LAVA.wav", "conditions": [18, 1200, "a", 18000], "internal_node_id": "0.0-46.0", "trial": 1, "time_elapsed": 365314, "serialpos": 9, "key_press": -1, "wordID": 803, "type": "PRES_AUD", "trial_index": 64}, "uniqueid": "MTK2308:3IXQG4FA2U5NWLCZ7AFM9NHH1ZYB9L", "dateTime": 1516985561136}, {"current_trial": 65, "trialdata": {"rt": -1000, "trial_type": "single-audio", "word": "lamp", "stimulus": "/static/audio/wordpool/LAMP.wav", "conditions": [18, 1200, "a", 18000], "internal_node_id": "0.0-47.0", "trial": 1, "time_elapsed": 367362, "serialpos": 10, "key_press": -1, "wordID": 797, "type": "PRES_AUD", "trial_index": 65}, "uniqueid": "MTK2308:3IXQG4FA2U5NWLCZ7AFM9NHH1ZYB9L", "dateTime": 1516985563184}, {"current_trial": 66, "trialdata": {"rt": -1000, "trial_type": "single-audio", "word": "package", "stimulus": "/static/audio/wordpool/PACKAGE.wav", "conditions": [18, 1200, "a", 18000], "internal_node_id": "0.0-48.0", "trial": 1, "time_elapsed": 369459, "serialpos": 11, "key_press": -1, "wordID": 996, "type": "PRES_AUD", "trial_index": 66}, "uniqueid": "MTK2308:3IXQG4FA2U5NWLCZ7AFM9NHH1ZYB9L", "dateTime": 1516985565281}, {"current_trial": 67, "trialdata": {"rt": -1000, "trial_type": "single-audio", "word": "chapel", "stimulus": "/static/audio/wordpool/CHAPEL.wav", "conditions": [18, 1200, "a", 18000], "internal_node_id": "0.0-49.0", "trial": 1, "time_elapsed": 371780, "serialpos": 12, "key_press": -1, "wordID": 279, "type": "PRES_AUD", "trial_index": 67}, "uniqueid": "MTK2308:3IXQG4FA2U5NWLCZ7AFM9NHH1ZYB9L", "dateTime": 1516985567602}, {"current_trial": 68, "trialdata": {"rt": -1000, "trial_type": "single-audio", "word": "fragrance", "stimulus": "/static/audio/wordpool/FRAGRANCE.wav", "conditions": [18, 1200, "a", 18000], "internal_node_id": "0.0-50.0", "trial": 1, "time_elapsed": 373872, "serialpos": 13, "key_press": -1, "wordID": 598, "type": "PRES_AUD", "trial_index": 68}, "uniqueid": "MTK2308:3IXQG4FA2U5NWLCZ7AFM9NHH1ZYB9L", "dateTime": 1516985569696}, {"current_trial": 69, "trialdata": {"rt": -1000, "trial_type": "single-audio", "word": "waitress", "stimulus": "/static/audio/wordpool/WAITRESS.wav", "conditions": [18, 1200, "a", 18000], "internal_node_id": "0.0-51.0", "trial": 1, "time_elapsed": 376252, "serialpos": 14, "key_press": -1, "wordID": 1580, "type": "PRES_AUD", "trial_index": 69}, "uniqueid": "MTK2308:3IXQG4FA2U5NWLCZ7AFM9NHH1ZYB9L", "dateTime": 1516985572074}, {"current_trial": 70, "trialdata": {"rt": -1000, "trial_type": "single-audio", "word": "rug", "stimulus": "/static/audio/wordpool/RUG.wav", "conditions": [18, 1200, "a", 18000], "internal_node_id": "0.0-52.0", "trial": 1, "time_elapsed": 378623, "serialpos": 15, "key_press": -1, "wordID": 1214, "type": "PRES_AUD", "trial_index": 70}, "uniqueid": "MTK2308:3IXQG4FA2U5NWLCZ7AFM9NHH1ZYB9L", "dateTime": 1516985574445}, {"current_trial": 71, "trialdata": {"rt": -1000, "trial_type": "single-audio", "word": "boyfriend", "stimulus": "/static/audio/wordpool/BOYFRIEND.wav", "conditions": [18, 1200, "a", 18000], "internal_node_id": "0.0-53.0", "trial": 1, "time_elapsed": 380681, "serialpos": 16, "key_press": -1, "wordID": 161, "type": "PRES_AUD", "trial_index": 71}, "uniqueid": "MTK2308:3IXQG4FA2U5NWLCZ7AFM9NHH1ZYB9L", "dateTime": 1516985576503}, {"current_trial": 72, "trialdata": {"rt": -1000, "trial_type": "single-audio", "word": "omelet", "stimulus": "/static/audio/wordpool/OMELET.wav", "conditions": [18, 1200, "a", 18000], "internal_node_id": "0.0-54.0", "trial": 1, "time_elapsed": 382768, "serialpos": 17, "key_press": -1, "wordID": 975, "type": "PRES_AUD", "trial_index": 72}, "uniqueid": "MTK2308:3IXQG4FA2U5NWLCZ7AFM9NHH1ZYB9L", "dateTime": 1516985578590}, {"current_trial": 73, "trialdata": {"rt": -1, "trial_type": "single-stim", "stimulus": "", "internal_node_id": "0.0-55.0-0.0", "time_elapsed": 384166, "key_press": -1, "type": "PRE_RECALL_DELAY", "trial_index": 73}, "uniqueid": "MTK2308:3IXQG4FA2U5NWLCZ7AFM9NHH1ZYB9L", "dateTime": 1516985579988}, {"current_trial": 74, "trialdata": {"rt": -1000, "trial_type": "single-audio", "stimulus": "/static/audio/400Hz.wav", "internal_node_id": "0.0-56.0", "time_elapsed": 384668, "key_press": -1, "type": "PRE_RECALL_ALERT", "trial_index": 74}, "uniqueid": "MTK2308:3IXQG4FA2U5NWLCZ7AFM9NHH1ZYB9L", "dateTime": 1516985580490}, {"current_trial": 75, "trialdata": {"rt": [3144, 4561, 7864, 10297, 30064], "recwords": ["boyfriend", "island", "omelette", "rug", "chapel"], "key_times": [1337, 1377, 1993, 2361, 2457, 2609, 2705, 2825, 2944, 3144, 3632, 3777, 4001, 4129, 4281, 4409, 4561, 5753, 5945, 6201, 6385, 6744, 7001, 7113, 7384, 7864, 9784, 9985, 10120, 10297, 28896, 29031, 29136, 29615, 29696, 29815, 30064], "trial_type": "free-recall", "conditions": [18, 1200, "a", 18000], "internal_node_id": "0.0-57.0-0.0", "key_presses": [66, 79, 89, 70, 82, 73, 69, 78, 68, 13, 73, 83, 76, 65, 78, 68, 13, 79, 77, 69, 76, 69, 84, 84, 69, 13, 82, 85, 71, 13, 67, 72, 65, 80, 69, 76, 13], "trial": 1, "time_elapsed": 444671, "type": "FREE_RECALL", "trial_index": 75}, "uniqueid": "MTK2308:3IXQG4FA2U5NWLCZ7AFM9NHH1ZYB9L", "dateTime": 1516985640495}, {"current_trial": 76, "trialdata": {"rt": 140634, "trial_type": "text", "internal_node_id": "0.0-58.0", "time_elapsed": 587309, "key_press": 32, "type": "INSTRUCTIONS", "trial_index": 76}, "uniqueid": "MTK2308:3IXQG4FA2U5NWLCZ7AFM9NHH1ZYB9L", "dateTime": 1516985783131}, {"current_trial": 77, "trialdata": {"rt": [2231, 6231, 9647, 11439], "trial_type": "math-distractor", "key_times": [2104, 2231, 5919, 5992, 6231, 9303, 9399, 9647, 11119, 11199, 11439], "responses": ["4", "18", "18", "18"], "num2": [1, 6, 8, 8, 5], "num3": [2, 4, 6, 5, 8], "conditions": [12, 1600, "a", 12000], "internal_node_id": "0.0-59.0", "key_presses": [100, 13, 97, 104, 13, 97, 104, 13, 97, 104, 13], "trial": 2, "time_elapsed": 600313, "type": "DISTRACTOR", "trial_index": 77, "num1": [1, 8, 4, 5, 9]}, "uniqueid": "MTK2308:3IXQG4FA2U5NWLCZ7AFM9NHH1ZYB9L", "dateTime": 1516985796135}, {"current_trial": 78, "trialdata": {"rt": -1, "trial_type": "single-stim", "stimulus": "<p id=\"stim\">10</p>", "internal_node_id": "0.0-60.0-0.0", "time_elapsed": 603316, "key_press": -1, "trial_index": 78}, "uniqueid": "MTK2308:3IXQG4FA2U5NWLCZ7AFM9NHH1ZYB9L", "dateTime": 1516985799138}, {"current_trial": 79, "trialdata": {"rt": -1, "trial_type": "single-stim", "stimulus": "<p id=\"stim\">9</p>", "internal_node_id": "0.0-60.0-1.0", "time_elapsed": 604317, "key_press": -1, "trial_index": 79}, "uniqueid": "MTK2308:3IXQG4FA2U5NWLCZ7AFM9NHH1ZYB9L", "dateTime": 1516985800140}, {"current_trial": 80, "trialdata": {"rt": -1, "trial_type": "single-stim", "stimulus": "<p id=\"stim\">8</p>", "internal_node_id": "0.0-60.0-2.0", "time_elapsed": 605319, "key_press": -1, "trial_index": 80}, "uniqueid": "MTK2308:3IXQG4FA2U5NWLCZ7AFM9NHH1ZYB9L", "dateTime": 1516985801142}, {"current_trial": 81, "trialdata": {"rt": -1, "trial_type": "single-stim", "stimulus": "<p id=\"stim\">7</p>", "internal_node_id": "0.0-60.0-3.0", "time_elapsed": 606321, "key_press": -1, "trial_index": 81}, "uniqueid": "MTK2308:3IXQG4FA2U5NWLCZ7AFM9NHH1ZYB9L", "dateTime": 1516985802144}, {"current_trial": 82, "trialdata": {"rt": 595, "trial_type": "single-stim", "stimulus": "<p id=\"stim\">6</p>", "internal_node_id": "0.0-60.0-4.0", "time_elapsed": 607323, "key_press": 175, "trial_index": 82}, "uniqueid": "MTK2308:3IXQG4FA2U5NWLCZ7AFM9NHH1ZYB9L", "dateTime": 1516985803146}, {"current_trial": 83, "trialdata": {"rt": 524, "trial_type": "single-stim", "stimulus": "<p id=\"stim\">5</p>", "internal_node_id": "0.0-60.0-5.0", "time_elapsed": 608325, "key_press": 175, "trial_index": 83}, "uniqueid": "MTK2308:3IXQG4FA2U5NWLCZ7AFM9NHH1ZYB9L", "dateTime": 1516985804147}, {"current_trial": 84, "trialdata": {"rt": 74, "trial_type": "single-stim", "stimulus": "<p id=\"stim\">4</p>", "internal_node_id": "0.0-60.0-6.0", "time_elapsed": 609326, "key_press": 175, "trial_index": 84}, "uniqueid": "MTK2308:3IXQG4FA2U5NWLCZ7AFM9NHH1ZYB9L", "dateTime": 1516985805148}, {"current_trial": 85, "trialdata": {"rt": -1, "trial_type": "single-stim", "stimulus": "<p id=\"stim\">3</p>", "internal_node_id": "0.0-60.0-7.0", "time_elapsed": 610328, "key_press": -1, "trial_index": 85}, "uniqueid": "MTK2308:3IXQG4FA2U5NWLCZ7AFM9NHH1ZYB9L", "dateTime": 1516985806150}, {"current_trial": 86, "trialdata": {"rt": -1, "trial_type": "single-stim", "stimulus": "<p id=\"stim\">2</p>", "internal_node_id": "0.0-60.0-8.0", "time_elapsed": 611329, "key_press": -1, "trial_index": 86}, "uniqueid": "MTK2308:3IXQG4FA2U5NWLCZ7AFM9NHH1ZYB9L", "dateTime": 1516985807151}, {"current_trial": 87, "trialdata": {"rt": -1, "trial_type": "single-stim", "stimulus": "<p id=\"stim\">1</p>", "internal_node_id": "0.0-60.0-9.0", "time_elapsed": 612330, "key_press": -1, "trial_index": 87}, "uniqueid": "MTK2308:3IXQG4FA2U5NWLCZ7AFM9NHH1ZYB9L", "dateTime": 1516985808152}, {"current_trial": 88, "trialdata": {"rt": -1, "trial_type": "single-stim", "stimulus": "<p id=\"stim\">+</p>", "internal_node_id": "0.0-61.0-0.0", "time_elapsed": 613832, "key_press": -1, "type": "FIXATION", "trial_index": 88}, "uniqueid": "MTK2308:3IXQG4FA2U5NWLCZ7AFM9NHH1ZYB9L", "dateTime": 1516985809654}, {"current_trial": 89, "trialdata": {"rt": -1000, "trial_type": "single-audio", "word": "cobra", "stimulus": "/static/audio/wordpool/COBRA.wav", "conditions": [12, 1600, "a", 12000], "internal_node_id": "0.0-62.0", "trial": 2, "time_elapsed": 616586, "serialpos": 0, "key_press": -1, "wordID": 335, "type": "PRES_AUD", "trial_index": 89}, "uniqueid": "MTK2308:3IXQG4FA2U5NWLCZ7AFM9NHH1ZYB9L", "dateTime": 1516985812408}, {"current_trial": 90, "trialdata": {"rt": -1000, "trial_type": "single-audio", "word": "daisy", "stimulus": "/static/audio/wordpool/DAISY.wav", "conditions": [12, 1600, "a", 12000], "internal_node_id": "0.0-63.0", "trial": 2, "time_elapsed": 619355, "serialpos": 1, "key_press": -1, "wordID": 434, "type": "PRES_AUD", "trial_index": 90}, "uniqueid": "MTK2308:3IXQG4FA2U5NWLCZ7AFM9NHH1ZYB9L", "dateTime": 1516985815177}, {"current_trial": 91, "trialdata": {"rt": -1000, "trial_type": "single-audio", "word": "honey", "stimulus": "/static/audio/wordpool/HONEY.wav", "conditions": [12, 1600, "a", 12000], "internal_node_id": "0.0-64.0", "trial": 2, "time_elapsed": 622143, "serialpos": 2, "key_press": -1, "wordID": 712, "type": "PRES_AUD", "trial_index": 91}, "uniqueid": "MTK2308:3IXQG4FA2U5NWLCZ7AFM9NHH1ZYB9L", "dateTime": 1516985817965}, {"current_trial": 92, "trialdata": {"rt": -1000, "trial_type": "single-audio", "word": "journal", "stimulus": "/static/audio/wordpool/JOURNAL.wav", "conditions": [12, 1600, "a", 12000], "internal_node_id": "0.0-65.0", "trial": 2, "time_elapsed": 624736, "serialpos": 3, "key_press": -1, "wordID": 759, "type": "PRES_AUD", "trial_index": 92}, "uniqueid": "MTK2308:3IXQG4FA2U5NWLCZ7AFM9NHH1ZYB9L", "dateTime": 1516985820558}, {"current_trial": 93, "trialdata": {"rt": -1000, "trial_type": "single-audio", "word": "zebra", "stimulus": "/static/audio/wordpool/ZEBRA.wav", "conditions": [12, 1600, "a", 12000], "internal_node_id": "0.0-66.0", "trial": 2, "time_elapsed": 627259, "serialpos": 4, "key_press": -1, "wordID": 1634, "type": "PRES_AUD", "trial_index": 93}, "uniqueid": "MTK2308:3IXQG4FA2U5NWLCZ7AFM9NHH1ZYB9L", "dateTime": 1516985823081}, {"current_trial": 94, "trialdata": {"rt": -1000, "trial_type": "single-audio", "word": "princess", "stimulus": "/static/audio/wordpool/PRINCESS.wav", "conditions": [12, 1600, "a", 12000], "internal_node_id": "0.0-67.0", "trial": 2, "time_elapsed": 629963, "serialpos": 5, "key_press": -1, "wordID": 1124, "type": "PRES_AUD", "trial_index": 94}, "uniqueid": "MTK2308:3IXQG4FA2U5NWLCZ7AFM9NHH1ZYB9L", "dateTime": 1516985825786}, {"current_trial": 95, "trialdata": {"rt": -1000, "trial_type": "single-audio", "word": "actress", "stimulus": "/static/audio/wordpool/ACTRESS.wav", "conditions": [12, 1600, "a", 12000], "internal_node_id": "0.0-68.0", "trial": 2, "time_elapsed": 632662, "serialpos": 6, "key_press": -1, "wordID": 5, "type": "PRES_AUD", "trial_index": 95}, "uniqueid": "MTK2308:3IXQG4FA2U5NWLCZ7AFM9NHH1ZYB9L", "dateTime": 1516985828484}, {"current_trial": 96, "trialdata": {"rt": -1000, "trial_type": "single-audio", "word": "actor", "stimulus": "/static/audio/wordpool/ACTOR.wav", "conditions": [12, 1600, "a", 12000], "internal_node_id": "0.0-69.0", "trial": 2, "time_elapsed": 635424, "serialpos": 7, "key_press": -1, "wordID": 4, "type": "PRES_AUD", "trial_index": 96}, "uniqueid": "MTK2308:3IXQG4FA2U5NWLCZ7AFM9NHH1ZYB9L", "dateTime": 1516985831246}, {"current_trial": 97, "trialdata": {"rt": -1000, "trial_type": "single-audio", "word": "dress", "stimulus": "/static/audio/wordpool/DRESS.wav", "conditions": [12, 1600, "a", 12000], "internal_node_id": "0.0-70.0", "trial": 2, "time_elapsed": 637850, "serialpos": 8, "key_press": -1, "wordID": 494, "type": "PRES_AUD", "trial_index": 97}, "uniqueid": "MTK2308:3IXQG4FA2U5NWLCZ7AFM9NHH1ZYB9L", "dateTime": 1516985833672}, {"current_trial": 98, "trialdata": {"rt": -1000, "trial_type": "single-audio", "word": "mattress", "stimulus": "/static/audio/wordpool/MATTRESS.wav", "conditions": [12, 1600, "a", 12000], "internal_node_id": "0.0-71.0", "trial": 2, "time_elapsed": 640305, "serialpos": 9, "key_press": -1, "wordID": 878, "type": "PRES_AUD", "trial_index": 98}, "uniqueid": "MTK2308:3IXQG4FA2U5NWLCZ7AFM9NHH1ZYB9L", "dateTime": 1516985836127}, {"current_trial": 99, "trialdata": {"rt": -1000, "trial_type": "single-audio", "word": "beast", "stimulus": "/static/audio/wordpool/BEAST.wav", "conditions": [12, 1600, "a", 12000], "internal_node_id": "0.0-72.0", "trial": 2, "time_elapsed": 642893, "serialpos": 10, "key_press": -1, "wordID": 107, "type": "PRES_AUD", "trial_index": 99}, "uniqueid": "MTK2308:3IXQG4FA2U5NWLCZ7AFM9NHH1ZYB9L", "dateTime": 1516985838715}, {"current_trial": 100, "trialdata": {"rt": -1000, "trial_type": "single-audio", "word": "flower", "stimulus": "/static/audio/wordpool/FLOWER.wav", "conditions": [12, 1600, "a", 12000], "internal_node_id": "0.0-73.0", "trial": 2, "time_elapsed": 645492, "serialpos": 11, "key_press": -1, "wordID": 583, "type": "PRES_AUD", "trial_index": 100}, "uniqueid": "MTK2308:3IXQG4FA2U5NWLCZ7AFM9NHH1ZYB9L", "dateTime": 1516985841314}, {"current_trial": 101, "trialdata": {"rt": -1, "trial_type": "single-stim", "stimulus": "", "internal_node_id": "0.0-74.0-0.0", "time_elapsed": 646888, "key_press": -1, "type": "PRE_RECALL_DELAY", "trial_index": 101}, "uniqueid": "MTK2308:3IXQG4FA2U5NWLCZ7AFM9NHH1ZYB9L", "dateTime": 1516985842710}, {"current_trial": 102, "trialdata": {"rt": -1000, "trial_type": "single-audio", "stimulus": "/static/audio/400Hz.wav", "internal_node_id": "0.0-75.0", "time_elapsed": 647390, "key_press": -1, "type": "PRE_RECALL_ALERT", "trial_index": 102}, "uniqueid": "MTK2308:3IXQG4FA2U5NWLCZ7AFM9NHH1ZYB9L", "dateTime": 1516985843212}, {"current_trial": 103, "trialdata": {"rt": [2125, 3678, 5061, 8005, 9149, 10493, 13492, 16741], "recwords": ["flower", "daisy", "honey", "zebra", "beast", "actor", "actress", "cobra"], "key_times": [1342, 1421, 1590, 1709, 1789, 1958, 2125, 2686, 2765, 2941, 3333, 3478, 3678, 4134, 4341, 4445, 4653, 4773, 5061, 6829, 7085, 7429, 7678, 7734, 8005, 8421, 8597, 8677, 8757, 8941, 9149, 9597, 9677, 9941, 10221, 10325, 10493, 10773, 11061, 11357, 11829, 11892, 12125, 12245, 13492, 15837, 15997, 16197, 16469, 16549, 16741], "trial_type": "free-recall", "conditions": [12, 1600, "a", 12000], "internal_node_id": "0.0-76.0-0.0", "key_presses": [70, 76, 79, 87, 69, 82, 13, 68, 65, 73, 83, 89, 13, 72, 79, 78, 69, 89, 13, 90, 69, 66, 82, 65, 13, 66, 69, 65, 83, 84, 13, 65, 67, 84, 79, 82, 13, 65, 67, 84, 82, 69, 83, 83, 13, 67, 79, 66, 82, 65, 13], "trial": 2, "time_elapsed": 707393, "type": "FREE_RECALL", "trial_index": 103}, "uniqueid": "MTK2308:3IXQG4FA2U5NWLCZ7AFM9NHH1ZYB9L", "dateTime": 1516985903216}, {"current_trial": 104, "trialdata": {"rt": 1399, "trial_type": "text", "internal_node_id": "0.0-77.0", "time_elapsed": 710795, "key_press": 32, "type": "INSTRUCTIONS", "trial_index": 104}, "uniqueid": "MTK2308:3IXQG4FA2U5NWLCZ7AFM9NHH1ZYB9L", "dateTime": 1516985906617}, {"current_trial": 105, "trialdata": {"rt": [1789, 3429, 8277, 10405, 14805, 17909, 19220, 22004], "trial_type": "math-distractor", "key_times": [1493, 1645, 1789, 3109, 3213, 3429, 7997, 8077, 8277, 10125, 10269, 10405, 14525, 14581, 14805, 17549, 17644, 17909, 18949, 19109, 19220, 21444, 22004], "responses": ["14", "13", "24", "14", "23", "15", "14", "8"], "num2": [1, 3, 8, 5, 9, 9, 5, 1, 8], "num3": [4, 5, 9, 7, 8, 2, 4, 3, 5], "conditions": [24, 800, "a", 24000], "internal_node_id": "0.0-78.0", "key_presses": [97, 100, 13, 97, 99, 13, 98, 100, 13, 97, 100, 13, 98, 99, 13, 97, 101, 13, 97, 100, 13, 104, 13], "trial": 3, "time_elapsed": 736799, "type": "DISTRACTOR", "trial_index": 105, "num1": [9, 5, 7, 2, 6, 4, 5, 4, 8]}, "uniqueid": "MTK2308:3IXQG4FA2U5NWLCZ7AFM9NHH1ZYB9L", "dateTime": 1516985932621}, {"current_trial": 106, "trialdata": {"rt": -1, "trial_type": "single-stim", "stimulus": "<p id=\"stim\">10</p>", "internal_node_id": "0.0-79.0-0.0", "time_elapsed": 739800, "key_press": -1, "trial_index": 106}, "uniqueid": "MTK2308:3IXQG4FA2U5NWLCZ7AFM9NHH1ZYB9L", "dateTime": 1516985935622}, {"current_trial": 107, "trialdata": {"rt": -1, "trial_type": "single-stim", "stimulus": "<p id=\"stim\">9</p>", "internal_node_id": "0.0-79.0-1.0", "time_elapsed": 740803, "key_press": -1, "trial_index": 107}, "uniqueid": "MTK2308:3IXQG4FA2U5NWLCZ7AFM9NHH1ZYB9L", "dateTime": 1516985936625}, {"current_trial": 108, "trialdata": {"rt": -1, "trial_type": "single-stim", "stimulus": "<p id=\"stim\">8</p>", "internal_node_id": "0.0-79.0-2.0", "time_elapsed": 741804, "key_press": -1, "trial_index": 108}, "uniqueid": "MTK2308:3IXQG4FA2U5NWLCZ7AFM9NHH1ZYB9L", "dateTime": 1516985937627}, {"current_trial": 109, "trialdata": {"rt": -1, "trial_type": "single-stim", "stimulus": "<p id=\"stim\">7</p>", "internal_node_id": "0.0-79.0-3.0", "time_elapsed": 742805, "key_press": -1, "trial_index": 109}, "uniqueid": "MTK2308:3IXQG4FA2U5NWLCZ7AFM9NHH1ZYB9L", "dateTime": 1516985938627}, {"current_trial": 110, "trialdata": {"rt": -1, "trial_type": "single-stim", "stimulus": "<p id=\"stim\">6</p>", "internal_node_id": "0.0-79.0-4.0", "time_elapsed": 743806, "key_press": -1, "trial_index": 110}, "uniqueid": "MTK2308:3IXQG4FA2U5NWLCZ7AFM9NHH1ZYB9L", "dateTime": 1516985939628}, {"current_trial": 111, "trialdata": {"rt": -1, "trial_type": "single-stim", "stimulus": "<p id=\"stim\">5</p>", "internal_node_id": "0.0-79.0-5.0", "time_elapsed": 744807, "key_press": -1, "trial_index": 111}, "uniqueid": "MTK2308:3IXQG4FA2U5NWLCZ7AFM9NHH1ZYB9L", "dateTime": 1516985940629}, {"current_trial": 112, "trialdata": {"rt": -1, "trial_type": "single-stim", "stimulus": "<p id=\"stim\">4</p>", "internal_node_id": "0.0-79.0-6.0", "time_elapsed": 745809, "key_press": -1, "trial_index": 112}, "uniqueid": "MTK2308:3IXQG4FA2U5NWLCZ7AFM9NHH1ZYB9L", "dateTime": 1516985941631}, {"current_trial": 113, "trialdata": {"rt": -1, "trial_type": "single-stim", "stimulus": "<p id=\"stim\">3</p>", "internal_node_id": "0.0-79.0-7.0", "time_elapsed": 746811, "key_press": -1, "trial_index": 113}, "uniqueid": "MTK2308:3IXQG4FA2U5NWLCZ7AFM9NHH1ZYB9L", "dateTime": 1516985942633}, {"current_trial": 114, "trialdata": {"rt": -1, "trial_type": "single-stim", "stimulus": "<p id=\"stim\">2</p>", "internal_node_id": "0.0-79.0-8.0", "time_elapsed": 747812, "key_press": -1, "trial_index": 114}, "uniqueid": "MTK2308:3IXQG4FA2U5NWLCZ7AFM9NHH1ZYB9L", "dateTime": 1516985943634}, {"current_trial": 115, "trialdata": {"rt": -1, "trial_type": "single-stim", "stimulus": "<p id=\"stim\">1</p>", "internal_node_id": "0.0-79.0-9.0", "time_elapsed": 748814, "key_press": -1, "trial_index": 115}, "uniqueid": "MTK2308:3IXQG4FA2U5NWLCZ7AFM9NHH1ZYB9L", "dateTime": 1516985944636}, {"current_trial": 116, "trialdata": {"rt": -1, "trial_type": "single-stim", "stimulus": "<p id=\"stim\">+</p>", "internal_node_id": "0.0-80.0-0.0", "time_elapsed": 750315, "key_press": -1, "type": "FIXATION", "trial_index": 116}, "uniqueid": "MTK2308:3IXQG4FA2U5NWLCZ7AFM9NHH1ZYB9L", "dateTime": 1516985946137}, {"current_trial": 117, "trialdata": {"rt": -1000, "trial_type": "single-audio", "word": "portrait", "stimulus": "/static/audio/wordpool/PORTRAIT.wav", "conditions": [24, 800, "a", 24000], "internal_node_id": "0.0-81.0", "trial": 3, "time_elapsed": 752086, "serialpos": 0, "key_press": -1, "wordID": 1110, "type": "PRES_AUD", "trial_index": 117}, "uniqueid": "MTK2308:3IXQG4FA2U5NWLCZ7AFM9NHH1ZYB9L", "dateTime": 1516985947908}, {"current_trial": 118, "trialdata": {"rt": -1000, "trial_type": "single-audio", "word": "elbow", "stimulus": "/static/audio/wordpool/ELBOW.wav", "conditions": [24, 800, "a", 24000], "internal_node_id": "0.0-82.0", "trial": 3, "time_elapsed": 753700, "serialpos": 1, "key_press": -1, "wordID": 519, "type": "PRES_AUD", "trial_index": 118}, "uniqueid": "MTK2308:3IXQG4FA2U5NWLCZ7AFM9NHH1ZYB9L", "dateTime": 1516985949522}, {"current_trial": 119, "trialdata": {"rt": -1000, "trial_type": "single-audio", "word": "human", "stimulus": "/static/audio/wordpool/HUMAN.wav", "conditions": [24, 800, "a", 24000], "internal_node_id": "0.0-83.0", "trial": 3, "time_elapsed": 755313, "serialpos": 2, "key_press": -1, "wordID": 725, "type": "PRES_AUD", "trial_index": 119}, "uniqueid": "MTK2308:3IXQG4FA2U5NWLCZ7AFM9NHH1ZYB9L", "dateTime": 1516985951136}, {"current_trial": 120, "trialdata": {"rt": -1000, "trial_type": "single-audio", "word": "agent", "stimulus": "/static/audio/wordpool/AGENT.wav", "conditions": [24, 800, "a", 24000], "internal_node_id": "0.0-84.0", "trial": 3, "time_elapsed": 756935, "serialpos": 3, "key_press": -1, "wordID": 9, "type": "PRES_AUD", "trial_index": 120}, "uniqueid": "MTK2308:3IXQG4FA2U5NWLCZ7AFM9NHH1ZYB9L", "dateTime": 1516985952757}, {"current_trial": 121, "trialdata": {"rt": -1000, "trial_type": "single-audio", "word": "tutu", "stimulus": "/static/audio/wordpool/TUTU.wav", "conditions": [24, 800, "a", 24000], "internal_node_id": "0.0-85.0", "trial": 3, "time_elapsed": 758848, "serialpos": 4, "key_press": -1, "wordID": 1523, "type": "PRES_AUD", "trial_index": 121}, "uniqueid": "MTK2308:3IXQG4FA2U5NWLCZ7AFM9NHH1ZYB9L", "dateTime": 1516985954670}, {"current_trial": 122, "trialdata": {"rt": -1000, "trial_type": "single-audio", "word": "puddle", "stimulus": "/static/audio/wordpool/PUDDLE.wav", "conditions": [24, 800, "a", 24000], "internal_node_id": "0.0-86.0", "trial": 3, "time_elapsed": 760514, "serialpos": 5, "key_press": -1, "wordID": 1139, "type": "PRES_AUD", "trial_index": 122}, "uniqueid": "MTK2308:3IXQG4FA2U5NWLCZ7AFM9NHH1ZYB9L", "dateTime": 1516985956336}, {"current_trial": 123, "trialdata": {"rt": -1000, "trial_type": "single-audio", "word": "girl", "stimulus": "/static/audio/wordpool/GIRL.wav", "conditions": [24, 800, "a", 24000], "internal_node_id": "0.0-87.0", "trial": 3, "time_elapsed": 762393, "serialpos": 6, "key_press": -1, "wordID": 636, "type": "PRES_AUD", "trial_index": 123}, "uniqueid": "MTK2308:3IXQG4FA2U5NWLCZ7AFM9NHH1ZYB9L", "dateTime": 1516985958215}, {"current_trial": 124, "trialdata": {"rt": -1000, "trial_type": "single-audio", "word": "plaid", "stimulus": "/static/audio/wordpool/PLAID.wav", "conditions": [24, 800, "a", 24000], "internal_node_id": "0.0-88.0", "trial": 3, "time_elapsed": 764265, "serialpos": 7, "key_press": -1, "wordID": 1079, "type": "PRES_AUD", "trial_index": 124}, "uniqueid": "MTK2308:3IXQG4FA2U5NWLCZ7AFM9NHH1ZYB9L", "dateTime": 1516985960087}, {"current_trial": 125, "trialdata": {"rt": -1000, "trial_type": "single-audio", "word": "lace", "stimulus": "/static/audio/wordpool/LACE.wav", "conditions": [24, 800, "a", 24000], "internal_node_id": "0.0-89.0", "trial": 3, "time_elapsed": 766152, "serialpos": 8, "key_press": -1, "wordID": 791, "type": "PRES_AUD", "trial_index": 125}, "uniqueid": "MTK2308:3IXQG4FA2U5NWLCZ7AFM9NHH1ZYB9L", "dateTime": 1516985961974}, {"current_trial": 126, "trialdata": {"rt": -1000, "trial_type": "single-audio", "word": "parent", "stimulus": "/static/audio/wordpool/PARENT.wav", "conditions": [24, 800, "a", 24000], "internal_node_id": "0.0-90.0", "trial": 3, "time_elapsed": 767789, "serialpos": 9, "key_press": -1, "wordID": 1012, "type": "PRES_AUD", "trial_index": 126}, "uniqueid": "MTK2308:3IXQG4FA2U5NWLCZ7AFM9NHH1ZYB9L", "dateTime": 1516985963611}, {"current_trial": 127, "trialdata": {"rt": -1000, "trial_type": "single-audio", "word": "suitcase", "stimulus": "/static/audio/wordpool/SUITCASE.wav", "conditions": [24, 800, "a", 24000], "internal_node_id": "0.0-91.0", "trial": 3, "time_elapsed": 769774, "serialpos": 10, "key_press": -1, "wordID": 1402, "type": "PRES_AUD", "trial_index": 127}, "uniqueid": "MTK2308:3IXQG4FA2U5NWLCZ7AFM9NHH1ZYB9L", "dateTime": 1516985965596}, {"current_trial": 128, "trialdata": {"rt": -1000, "trial_type": "single-audio", "word": "shoulder", "stimulus": "/static/audio/wordpool/SHOULDER.wav", "conditions": [24, 800, "a", 24000], "internal_node_id": "0.0-92.0", "trial": 3, "time_elapsed": 771418, "serialpos": 11, "key_press": -1, "wordID": 1293, "type": "PRES_AUD", "trial_index": 128}, "uniqueid": "MTK2308:3IXQG4FA2U5NWLCZ7AFM9NHH1ZYB9L", "dateTime": 1516985967240}, {"current_trial": 129, "trialdata": {"rt": -1000, "trial_type": "single-audio", "word": "shovel", "stimulus": "/static/audio/wordpool/SHOVEL.wav", "conditions": [24, 800, "a", 24000], "internal_node_id": "0.0-93.0", "trial": 3, "time_elapsed": 773290, "serialpos": 12, "key_press": -1, "wordID": 1294, "type": "PRES_AUD", "trial_index": 129}, "uniqueid": "MTK2308:3IXQG4FA2U5NWLCZ7AFM9NHH1ZYB9L", "dateTime": 1516985969112}, {"current_trial": 130, "trialdata": {"rt": -1000, "trial_type": "single-audio", "word": "termite", "stimulus": "/static/audio/wordpool/TERMITE.wav", "conditions": [24, 800, "a", 24000], "internal_node_id": "0.0-94.0", "trial": 3, "time_elapsed": 775259, "serialpos": 13, "key_press": -1, "wordID": 1450, "type": "PRES_AUD", "trial_index": 130}, "uniqueid": "MTK2308:3IXQG4FA2U5NWLCZ7AFM9NHH1ZYB9L", "dateTime": 1516985971082}, {"current_trial": 131, "trialdata": {"rt": -1000, "trial_type": "single-audio", "word": "fungus", "stimulus": "/static/audio/wordpool/FUNGUS.wav", "conditions": [24, 800, "a", 24000], "internal_node_id": "0.0-95.0", "trial": 3, "time_elapsed": 777236, "serialpos": 14, "key_press": -1, "wordID": 613, "type": "PRES_AUD", "trial_index": 131}, "uniqueid": "MTK2308:3IXQG4FA2U5NWLCZ7AFM9NHH1ZYB9L", "dateTime": 1516985973058}, {"current_trial": 132, "trialdata": {"rt": -1000, "trial_type": "single-audio", "word": "donor", "stimulus": "/static/audio/wordpool/DONOR.wav", "conditions": [24, 800, "a", 24000], "internal_node_id": "0.0-96.0", "trial": 3, "time_elapsed": 779119, "serialpos": 15, "key_press": -1, "wordID": 484, "type": "PRES_AUD", "trial_index": 132}, "uniqueid": "MTK2308:3IXQG4FA2U5NWLCZ7AFM9NHH1ZYB9L", "dateTime": 1516985974941}, {"current_trial": 133, "trialdata": {"rt": -1000, "trial_type": "single-audio", "word": "rabbit", "stimulus": "/static/audio/wordpool/RABBIT.wav", "conditions": [24, 800, "a", 24000], "internal_node_id": "0.0-97.0", "trial": 3, "time_elapsed": 780837, "serialpos": 16, "key_press": -1, "wordID": 1151, "type": "PRES_AUD", "trial_index": 133}, "uniqueid": "MTK2308:3IXQG4FA2U5NWLCZ7AFM9NHH1ZYB9L", "dateTime": 1516985976660}, {"current_trial": 134, "trialdata": {"rt": -1000, "trial_type": "single-audio", "word": "goblin", "stimulus": "/static/audio/wordpool/GOBLIN.wav", "conditions": [24, 800, "a", 24000], "internal_node_id": "0.0-98.0", "trial": 3, "time_elapsed": 782445, "serialpos": 17, "key_press": -1, "wordID": 644, "type": "PRES_AUD", "trial_index": 134}, "uniqueid": "MTK2308:3IXQG4FA2U5NWLCZ7AFM9NHH1ZYB9L", "dateTime": 1516985978267}, {"current_trial": 135, "trialdata": {"rt": -1000, "trial_type": "single-audio", "word": "custard", "stimulus": "/static/audio/wordpool/CUSTARD.wav", "conditions": [24, 800, "a", 24000], "internal_node_id": "0.0-99.0", "trial": 3, "time_elapsed": 784301, "serialpos": 18, "key_press": -1, "wordID": 428, "type": "PRES_AUD", "trial_index": 135}, "uniqueid": "MTK2308:3IXQG4FA2U5NWLCZ7AFM9NHH1ZYB9L", "dateTime": 1516985980123}, {"current_trial": 136, "trialdata": {"rt": -1000, "trial_type": "single-audio", "word": "mister", "stimulus": "/static/audio/wordpool/MISTER.wav", "conditions": [24, 800, "a", 24000], "internal_node_id": "0.0-100.0", "trial": 3, "time_elapsed": 786254, "serialpos": 19, "key_press": -1, "wordID": 900, "type": "PRES_AUD", "trial_index": 136}, "uniqueid": "MTK2308:3IXQG4FA2U5NWLCZ7AFM9NHH1ZYB9L", "dateTime": 1516985982076}, {"current_trial": 137, "trialdata": {"rt": -1000, "trial_type": "single-audio", "word": "pigeon", "stimulus": "/static/audio/wordpool/PIGEON.wav", "conditions": [24, 800, "a", 24000], "internal_node_id": "0.0-101.0", "trial": 3, "time_elapsed": 788119, "serialpos": 20, "key_press": -1, "wordID": 1064, "type": "PRES_AUD", "trial_index": 137}, "uniqueid": "MTK2308:3IXQG4FA2U5NWLCZ7AFM9NHH1ZYB9L", "dateTime": 1516985983942}, {"current_trial": 138, "trialdata": {"rt": -1000, "trial_type": "single-audio", "word": "suspect", "stimulus": "/static/audio/wordpool/SUSPECT.wav", "conditions": [24, 800, "a", 24000], "internal_node_id": "0.0-102.0", "trial": 3, "time_elapsed": 789917, "serialpos": 21, "key_press": -1, "wordID": 1414, "type": "PRES_AUD", "trial_index": 138}, "uniqueid": "MTK2308:3IXQG4FA2U5NWLCZ7AFM9NHH1ZYB9L", "dateTime": 1516985985739}, {"current_trial": 139, "trialdata": {"rt": -1000, "trial_type": "single-audio", "word": "brook", "stimulus": "/static/audio/wordpool/BROOK.wav", "conditions": [24, 800, "a", 24000], "internal_node_id": "0.0-103.0", "trial": 3, "time_elapsed": 791727, "serialpos": 22, "key_press": -1, "wordID": 176, "type": "PRES_AUD", "trial_index": 139}, "uniqueid": "MTK2308:3IXQG4FA2U5NWLCZ7AFM9NHH1ZYB9L", "dateTime": 1516985987549}, {"current_trial": 140, "trialdata": {"rt": -1000, "trial_type": "single-audio", "word": "milk", "stimulus": "/static/audio/wordpool/MILK.wav", "conditions": [24, 800, "a", 24000], "internal_node_id": "0.0-104.0", "trial": 3, "time_elapsed": 793599, "serialpos": 23, "key_press": -1, "wordID": 894, "type": "PRES_AUD", "trial_index": 140}, "uniqueid": "MTK2308:3IXQG4FA2U5NWLCZ7AFM9NHH1ZYB9L", "dateTime": 1516985989421}, {"current_trial": 141, "trialdata": {"rt": -1, "trial_type": "single-stim", "stimulus": "", "internal_node_id": "0.0-105.0-0.0", "time_elapsed": 794811, "key_press": -1, "type": "PRE_RECALL_DELAY", "trial_index": 141}, "uniqueid": "MTK2308:3IXQG4FA2U5NWLCZ7AFM9NHH1ZYB9L", "dateTime": 1516985990633}, {"current_trial": 142, "trialdata": {"rt": -1000, "trial_type": "single-audio", "stimulus": "/static/audio/400Hz.wav", "internal_node_id": "0.0-106.0", "time_elapsed": 795312, "key_press": -1, "type": "PRE_RECALL_ALERT", "trial_index": 142}, "uniqueid": "MTK2308:3IXQG4FA2U5NWLCZ7AFM9NHH1ZYB9L", "dateTime": 1516985991134}, {"current_trial": 143, "trialdata": {"rt": [1614, 3438, 6014, 7110, 8958, 11478, 13622, 17798, 24613], "recwords": ["milk", "brook", "portrait", "agent", "human", "girl", "parent", "mister", "puddle"], "key_times": [927, 1006, 1278, 1382, 1614, 2158, 2550, 2742, 2862, 3046, 3438, 4502, 4566, 4710, 4934, 5206, 5310, 5622, 5774, 6014, 6390, 6598, 6694, 6862, 6982, 7110, 7422, 7630, 8574, 8678, 8758, 8958, 9318, 9557, 9694, 9878, 11478, 12030, 12094, 12318, 12558, 12846, 12974, 13622, 17053, 17110, 17229, 17445, 17566, 17645, 17798, 23350, 23485, 23829, 23982, 24317, 24421, 24613], "trial_type": "free-recall", "conditions": [24, 800, "a", 24000], "internal_node_id": "0.0-107.0-0.0", "key_presses": [77, 73, 76, 75, 13, 66, 82, 79, 79, 75, 13, 80, 79, 82, 84, 82, 65, 73, 84, 13, 65, 71, 69, 78, 84, 13, 72, 85, 77, 65, 78, 13, 71, 73, 82, 76, 13, 80, 65, 82, 69, 78, 84, 13, 77, 73, 83, 84, 69, 82, 13, 80, 85, 68, 68, 76, 69, 13], "trial": 3, "time_elapsed": 855314, "type": "FREE_RECALL", "trial_index": 143}, "uniqueid": "MTK2308:3IXQG4FA2U5NWLCZ7AFM9NHH1ZYB9L", "dateTime": 1516986051138}, {"current_trial": 144, "trialdata": {"rt": 17815, "trial_type": "text", "internal_node_id": "0.0-108.0", "time_elapsed": 875133, "key_press": 32, "type": "INSTRUCTIONS", "trial_index": 144}, "uniqueid": "MTK2308:3IXQG4FA2U5NWLCZ7AFM9NHH1ZYB9L", "dateTime": 1516986070956}, {"current_trial": 145, "trialdata": {"rt": [3861, 6109, 9005], "trial_type": "math-distractor", "key_times": [3614, 3693, 3861, 5877, 5949, 6109, 8757, 8901, 9005], "responses": ["21", "12", "22"], "num2": [6, 2, 7, 6], "num3": [9, 3, 8, 7], "conditions": [24, 800, "a", 12000], "internal_node_id": "0.0-109.0", "key_presses": [98, 97, 13, 97, 98, 13, 98, 98, 13], "trial": 4, "time_elapsed": 889136, "type": "DISTRACTOR", "trial_index": 145, "num1": [6, 7, 7, 3]}, "uniqueid": "MTK2308:3IXQG4FA2U5NWLCZ7AFM9NHH1ZYB9L", "dateTime": 1516986084958}, {"current_trial": 146, "trialdata": {"rt": -1, "trial_type": "single-stim", "stimulus": "<p id=\"stim\">10</p>", "internal_node_id": "0.0-110.0-0.0", "time_elapsed": 892139, "key_press": -1, "trial_index": 146}, "uniqueid": "MTK2308:3IXQG4FA2U5NWLCZ7AFM9NHH1ZYB9L", "dateTime": 1516986087961}, {"current_trial": 147, "trialdata": {"rt": -1, "trial_type": "single-stim", "stimulus": "<p id=\"stim\">9</p>", "internal_node_id": "0.0-110.0-1.0", "time_elapsed": 893141, "key_press": -1, "trial_index": 147}, "uniqueid": "MTK2308:3IXQG4FA2U5NWLCZ7AFM9NHH1ZYB9L", "dateTime": 1516986088963}, {"current_trial": 148, "trialdata": {"rt": -1, "trial_type": "single-stim", "stimulus": "<p id=\"stim\">8</p>", "internal_node_id": "0.0-110.0-2.0", "time_elapsed": 894142, "key_press": -1, "trial_index": 148}, "uniqueid": "MTK2308:3IXQG4FA2U5NWLCZ7AFM9NHH1ZYB9L", "dateTime": 1516986089964}, {"current_trial": 149, "trialdata": {"rt": -1, "trial_type": "single-stim", "stimulus": "<p id=\"stim\">7</p>", "internal_node_id": "0.0-110.0-3.0", "time_elapsed": 895143, "key_press": -1, "trial_index": 149}, "uniqueid": "MTK2308:3IXQG4FA2U5NWLCZ7AFM9NHH1ZYB9L", "dateTime": 1516986090965}, {"current_trial": 150, "trialdata": {"rt": -1, "trial_type": "single-stim", "stimulus": "<p id=\"stim\">6</p>", "internal_node_id": "0.0-110.0-4.0", "time_elapsed": 896145, "key_press": -1, "trial_index": 150}, "uniqueid": "MTK2308:3IXQG4FA2U5NWLCZ7AFM9NHH1ZYB9L", "dateTime": 1516986091967}, {"current_trial": 151, "trialdata": {"rt": -1, "trial_type": "single-stim", "stimulus": "<p id=\"stim\">5</p>", "internal_node_id": "0.0-110.0-5.0", "time_elapsed": 897146, "key_press": -1, "trial_index": 151}, "uniqueid": "MTK2308:3IXQG4FA2U5NWLCZ7AFM9NHH1ZYB9L", "dateTime": 1516986092968}, {"current_trial": 152, "trialdata": {"rt": -1, "trial_type": "single-stim", "stimulus": "<p id=\"stim\">4</p>", "internal_node_id": "0.0-110.0-6.0", "time_elapsed": 898147, "key_press": -1, "trial_index": 152}, "uniqueid": "MTK2308:3IXQG4FA2U5NWLCZ7AFM9NHH1ZYB9L", "dateTime": 1516986093969}, {"current_trial": 153, "trialdata": {"rt": -1, "trial_type": "single-stim", "stimulus": "<p id=\"stim\">3</p>", "internal_node_id": "0.0-110.0-7.0", "time_elapsed": 899149, "key_press": -1, "trial_index": 153}, "uniqueid": "MTK2308:3IXQG4FA2U5NWLCZ7AFM9NHH1ZYB9L", "dateTime": 1516986094971}, {"current_trial": 154, "trialdata": {"rt": -1, "trial_type": "single-stim", "stimulus": "<p id=\"stim\">2</p>", "internal_node_id": "0.0-110.0-8.0", "time_elapsed": 900151, "key_press": -1, "trial_index": 154}, "uniqueid": "MTK2308:3IXQG4FA2U5NWLCZ7AFM9NHH1ZYB9L", "dateTime": 1516986095973}, {"current_trial": 155, "trialdata": {"rt": -1, "trial_type": "single-stim", "stimulus": "<p id=\"stim\">1</p>", "internal_node_id": "0.0-110.0-9.0", "time_elapsed": 901152, "key_press": -1, "trial_index": 155}, "uniqueid": "MTK2308:3IXQG4FA2U5NWLCZ7AFM9NHH1ZYB9L", "dateTime": 1516986096974}, {"current_trial": 156, "trialdata": {"rt": -1, "trial_type": "single-stim", "stimulus": "<p id=\"stim\">+</p>", "internal_node_id": "0.0-111.0-0.0", "time_elapsed": 902653, "key_press": -1, "type": "FIXATION", "trial_index": 156}, "uniqueid": "MTK2308:3IXQG4FA2U5NWLCZ7AFM9NHH1ZYB9L", "dateTime": 1516986098475}, {"current_trial": 157, "trialdata": {"rt": -1000, "trial_type": "single-audio", "word": "wasp", "stimulus": "/static/audio/wordpool/WASP.wav", "conditions": [24, 800, "a", 12000], "internal_node_id": "0.0-112.0", "trial": 4, "time_elapsed": 904498, "serialpos": 0, "key_press": -1, "wordID": 1592, "type": "PRES_AUD", "trial_index": 157}, "uniqueid": "MTK2308:3IXQG4FA2U5NWLCZ7AFM9NHH1ZYB9L", "dateTime": 1516986100320}, {"current_trial": 158, "trialdata": {"rt": -1000, "trial_type": "single-audio", "word": "lipstick", "stimulus": "/static/audio/wordpool/LIPSTICK.wav", "conditions": [24, 800, "a", 12000], "internal_node_id": "0.0-113.0", "trial": 4, "time_elapsed": 906185, "serialpos": 1, "key_press": -1, "wordID": 828, "type": "PRES_AUD", "trial_index": 158}, "uniqueid": "MTK2308:3IXQG4FA2U5NWLCZ7AFM9NHH1ZYB9L", "dateTime": 1516986102007}, {"current_trial": 159, "trialdata": {"rt": -1000, "trial_type": "single-audio", "word": "curtain", "stimulus": "/static/audio/wordpool/CURTAIN.wav", "conditions": [24, 800, "a", 12000], "internal_node_id": "0.0-114.0", "trial": 4, "time_elapsed": 908180, "serialpos": 2, "key_press": -1, "wordID": 426, "type": "PRES_AUD", "trial_index": 159}, "uniqueid": "MTK2308:3IXQG4FA2U5NWLCZ7AFM9NHH1ZYB9L", "dateTime": 1516986104002}, {"current_trial": 160, "trialdata": {"rt": -1000, "trial_type": "single-audio", "word": "empire", "stimulus": "/static/audio/wordpool/EMPIRE.wav", "conditions": [24, 800, "a", 12000], "internal_node_id": "0.0-115.0", "trial": 4, "time_elapsed": 909946, "serialpos": 3, "key_press": -1, "wordID": 529, "type": "PRES_AUD", "trial_index": 160}, "uniqueid": "MTK2308:3IXQG4FA2U5NWLCZ7AFM9NHH1ZYB9L", "dateTime": 1516986105769}, {"current_trial": 161, "trialdata": {"rt": -1000, "trial_type": "single-audio", "word": "dolphin", "stimulus": "/static/audio/wordpool/DOLPHIN.wav", "conditions": [24, 800, "a", 12000], "internal_node_id": "0.0-116.0", "trial": 4, "time_elapsed": 911606, "serialpos": 4, "key_press": -1, "wordID": 482, "type": "PRES_AUD", "trial_index": 161}, "uniqueid": "MTK2308:3IXQG4FA2U5NWLCZ7AFM9NHH1ZYB9L", "dateTime": 1516986107428}, {"current_trial": 162, "trialdata": {"rt": -1000, "trial_type": "single-audio", "word": "pocket", "stimulus": "/static/audio/wordpool/POCKET.wav", "conditions": [24, 800, "a", 12000], "internal_node_id": "0.0-117.0", "trial": 4, "time_elapsed": 913311, "serialpos": 5, "key_press": -1, "wordID": 1092, "type": "PRES_AUD", "trial_index": 162}, "uniqueid": "MTK2308:3IXQG4FA2U5NWLCZ7AFM9NHH1ZYB9L", "dateTime": 1516986109133}, {"current_trial": 163, "trialdata": {"rt": -1000, "trial_type": "single-audio", "word": "banquet", "stimulus": "/static/audio/wordpool/BANQUET.wav", "conditions": [24, 800, "a", 12000], "internal_node_id": "0.0-118.0", "trial": 4, "time_elapsed": 915058, "serialpos": 6, "key_press": -1, "wordID": 85, "type": "PRES_AUD", "trial_index": 163}, "uniqueid": "MTK2308:3IXQG4FA2U5NWLCZ7AFM9NHH1ZYB9L", "dateTime": 1516986110880}, {"current_trial": 164, "trialdata": {"rt": -1000, "trial_type": "single-audio", "word": "supper", "stimulus": "/static/audio/wordpool/SUPPER.wav", "conditions": [24, 800, "a", 12000], "internal_node_id": "0.0-119.0", "trial": 4, "time_elapsed": 916669, "serialpos": 7, "key_press": -1, "wordID": 1410, "type": "PRES_AUD", "trial_index": 164}, "uniqueid": "MTK2308:3IXQG4FA2U5NWLCZ7AFM9NHH1ZYB9L", "dateTime": 1516986112491}, {"current_trial": 165, "trialdata": {"rt": -1000, "trial_type": "single-audio", "word": "marsh", "stimulus": "/static/audio/wordpool/MARSH.wav", "conditions": [24, 800, "a", 12000], "internal_node_id": "0.0-120.0", "trial": 4, "time_elapsed": 918318, "serialpos": 8, "key_press": -1, "wordID": 873, "type": "PRES_AUD", "trial_index": 165}, "uniqueid": "MTK2308:3IXQG4FA2U5NWLCZ7AFM9NHH1ZYB9L", "dateTime": 1516986114141}, {"current_trial": 166, "trialdata": {"rt": -1000, "trial_type": "single-audio", "word": "shelter", "stimulus": "/static/audio/wordpool/SHELTER.wav", "conditions": [24, 800, "a", 12000], "internal_node_id": "0.0-121.0", "trial": 4, "time_elapsed": 920297, "serialpos": 9, "key_press": -1, "wordID": 1281, "type": "PRES_AUD", "trial_index": 166}, "uniqueid": "MTK2308:3IXQG4FA2U5NWLCZ7AFM9NHH1ZYB9L", "dateTime": 1516986116119}, {"current_trial": 167, "trialdata": {"rt": -1000, "trial_type": "single-audio", "word": "vagrant", "stimulus": "/static/audio/wordpool/VAGRANT.wav", "conditions": [24, 800, "a", 12000], "internal_node_id": "0.0-122.0", "trial": 4, "time_elapsed": 922198, "serialpos": 10, "key_press": -1, "wordID": 1543, "type": "PRES_AUD", "trial_index": 167}, "uniqueid": "MTK2308:3IXQG4FA2U5NWLCZ7AFM9NHH1ZYB9L", "dateTime": 1516986118020}, {"current_trial": 168, "trialdata": {"rt": -1000, "trial_type": "single-audio", "word": "briefcase", "stimulus": "/static/audio/wordpool/BRIEFCASE.wav", "conditions": [24, 800, "a", 12000], "internal_node_id": "0.0-123.0", "trial": 4, "time_elapsed": 924174, "serialpos": 11, "key_press": -1, "wordID": 174, "type": "PRES_AUD", "trial_index": 168}, "uniqueid": "MTK2308:3IXQG4FA2U5NWLCZ7AFM9NHH1ZYB9L", "dateTime": 1516986119996}, {"current_trial": 169, "trialdata": {"rt": -1000, "trial_type": "single-audio", "word": "switch", "stimulus": "/static/audio/wordpool/SWITCH.wav", "conditions": [24, 800, "a", 12000], "internal_node_id": "0.0-124.0", "trial": 4, "time_elapsed": 925844, "serialpos": 12, "key_press": -1, "wordID": 1421, "type": "PRES_AUD", "trial_index": 169}, "uniqueid": "MTK2308:3IXQG4FA2U5NWLCZ7AFM9NHH1ZYB9L", "dateTime": 1516986121666}, {"current_trial": 170, "trialdata": {"rt": -1000, "trial_type": "single-audio", "word": "blender", "stimulus": "/static/audio/wordpool/BLENDER.wav", "conditions": [24, 800, "a", 12000], "internal_node_id": "0.0-125.0", "trial": 4, "time_elapsed": 927665, "serialpos": 13, "key_press": -1, "wordID": 135, "type": "PRES_AUD", "trial_index": 170}, "uniqueid": "MTK2308:3IXQG4FA2U5NWLCZ7AFM9NHH1ZYB9L", "dateTime": 1516986123487}, {"current_trial": 171, "trialdata": {"rt": -1000, "trial_type": "single-audio", "word": "pecan", "stimulus": "/static/audio/wordpool/PECAN.wav", "conditions": [24, 800, "a", 12000], "internal_node_id": "0.0-126.0", "trial": 4, "time_elapsed": 929578, "serialpos": 14, "key_press": -1, "wordID": 1035, "type": "PRES_AUD", "trial_index": 171}, "uniqueid": "MTK2308:3IXQG4FA2U5NWLCZ7AFM9NHH1ZYB9L", "dateTime": 1516986125401}, {"current_trial": 172, "trialdata": {"rt": -1000, "trial_type": "single-audio", "word": "woman", "stimulus": "/static/audio/wordpool/WOMAN.wav", "conditions": [24, 800, "a", 12000], "internal_node_id": "0.0-127.0", "trial": 4, "time_elapsed": 931417, "serialpos": 15, "key_press": -1, "wordID": 1619, "type": "PRES_AUD", "trial_index": 172}, "uniqueid": "MTK2308:3IXQG4FA2U5NWLCZ7AFM9NHH1ZYB9L", "dateTime": 1516986127239}, {"current_trial": 173, "trialdata": {"rt": -1000, "trial_type": "single-audio", "word": "daughter", "stimulus": "/static/audio/wordpool/DAUGHTER.wav", "conditions": [24, 800, "a", 12000], "internal_node_id": "0.0-128.0", "trial": 4, "time_elapsed": 933313, "serialpos": 16, "key_press": -1, "wordID": 441, "type": "PRES_AUD", "trial_index": 173}, "uniqueid": "MTK2308:3IXQG4FA2U5NWLCZ7AFM9NHH1ZYB9L", "dateTime": 1516986129135}, {"current_trial": 174, "trialdata": {"rt": -1000, "trial_type": "single-audio", "word": "husband", "stimulus": "/static/audio/wordpool/HUSBAND.wav", "conditions": [24, 800, "a", 12000], "internal_node_id": "0.0-129.0", "trial": 4, "time_elapsed": 935232, "serialpos": 17, "key_press": -1, "wordID": 727, "type": "PRES_AUD", "trial_index": 174}, "uniqueid": "MTK2308:3IXQG4FA2U5NWLCZ7AFM9NHH1ZYB9L", "dateTime": 1516986131055}, {"current_trial": 175, "trialdata": {"rt": -1000, "trial_type": "single-audio", "word": "panther", "stimulus": "/static/audio/wordpool/PANTHER.wav", "conditions": [24, 800, "a", 12000], "internal_node_id": "0.0-130.0", "trial": 4, "time_elapsed": 936990, "serialpos": 18, "key_press": -1, "wordID": 1008, "type": "PRES_AUD", "trial_index": 175}, "uniqueid": "MTK2308:3IXQG4FA2U5NWLCZ7AFM9NHH1ZYB9L", "dateTime": 1516986132812}, {"current_trial": 176, "trialdata": {"rt": -1000, "trial_type": "single-audio", "word": "perfume", "stimulus": "/static/audio/wordpool/PERFUME.wav", "conditions": [24, 800, "a", 12000], "internal_node_id": "0.0-131.0", "trial": 4, "time_elapsed": 938672, "serialpos": 19, "key_press": -1, "wordID": 1048, "type": "PRES_AUD", "trial_index": 176}, "uniqueid": "MTK2308:3IXQG4FA2U5NWLCZ7AFM9NHH1ZYB9L", "dateTime": 1516986134494}, {"current_trial": 177, "trialdata": {"rt": -1000, "trial_type": "single-audio", "word": "pudding", "stimulus": "/static/audio/wordpool/PUDDING.wav", "conditions": [24, 800, "a", 12000], "internal_node_id": "0.0-132.0", "trial": 4, "time_elapsed": 940645, "serialpos": 20, "key_press": -1, "wordID": 1138, "type": "PRES_AUD", "trial_index": 177}, "uniqueid": "MTK2308:3IXQG4FA2U5NWLCZ7AFM9NHH1ZYB9L", "dateTime": 1516986136468}, {"current_trial": 178, "trialdata": {"rt": -1000, "trial_type": "single-audio", "word": "hiker", "stimulus": "/static/audio/wordpool/HIKER.wav", "conditions": [24, 800, "a", 12000], "internal_node_id": "0.0-133.0", "trial": 4, "time_elapsed": 942563, "serialpos": 21, "key_press": -1, "wordID": 707, "type": "PRES_AUD", "trial_index": 178}, "uniqueid": "MTK2308:3IXQG4FA2U5NWLCZ7AFM9NHH1ZYB9L", "dateTime": 1516986138385}, {"current_trial": 179, "trialdata": {"rt": -1000, "trial_type": "single-audio", "word": "leopard", "stimulus": "/static/audio/wordpool/LEOPARD.wav", "conditions": [24, 800, "a", 12000], "internal_node_id": "0.0-134.0", "trial": 4, "time_elapsed": 944427, "serialpos": 22, "key_press": -1, "wordID": 811, "type": "PRES_AUD", "trial_index": 179}, "uniqueid": "MTK2308:3IXQG4FA2U5NWLCZ7AFM9NHH1ZYB9L", "dateTime": 1516986140249}, {"current_trial": 180, "trialdata": {"rt": -1000, "trial_type": "single-audio", "word": "japan", "stimulus": "/static/audio/wordpool/JAPAN.wav", "conditions": [24, 800, "a", 12000], "internal_node_id": "0.0-135.0", "trial": 4, "time_elapsed": 946194, "serialpos": 23, "key_press": -1, "wordID": 748, "type": "PRES_AUD", "trial_index": 180}, "uniqueid": "MTK2308:3IXQG4FA2U5NWLCZ7AFM9NHH1ZYB9L", "dateTime": 1516986142016}, {"current_trial": 181, "trialdata": {"rt": -1, "trial_type": "single-stim", "stimulus": "", "internal_node_id": "0.0-136.0-0.0", "time_elapsed": 947449, "key_press": -1, "type": "PRE_RECALL_DELAY", "trial_index": 181}, "uniqueid": "MTK2308:3IXQG4FA2U5NWLCZ7AFM9NHH1ZYB9L", "dateTime": 1516986143271}, {"current_trial": 182, "trialdata": {"rt": -1000, "trial_type": "single-audio", "stimulus": "/static/audio/400Hz.wav", "internal_node_id": "0.0-137.0", "time_elapsed": 947951, "key_press": -1, "type": "PRE_RECALL_ALERT", "trial_index": 182}, "uniqueid": "MTK2308:3IXQG4FA2U5NWLCZ7AFM9NHH1ZYB9L", "dateTime": 1516986143773}, {"current_trial": 183, "trialdata": {"rt": [2042, 3242, 4914, 6386, 8834, 10586, 16058], "recwords": ["woman", "mother", "husband", "hiker", "japan", "custard", "panther"], "key_times": [1314, 1434, 1514, 1650, 1745, 2042, 2602, 2681, 2826, 2962, 3058, 3138, 3242, 3586, 3706, 3889, 4162, 4441, 4658, 4762, 4914, 5714, 5754, 6002, 6170, 6250, 6386, 6794, 6889, 7578, 7722, 7889, 8834, 9250, 9346, 9441, 9634, 9857, 9978, 10297, 10586, 15018, 15113, 15289, 15409, 15601, 15681, 15786, 16058], "trial_type": "free-recall", "conditions": [24, 800, "a", 12000], "internal_node_id": "0.0-138.0-0.0", "key_presses": [87, 79, 77, 65, 78, 13, 77, 79, 84, 72, 69, 82, 13, 72, 85, 83, 66, 65, 78, 68, 13, 72, 73, 75, 69, 82, 13, 74, 65, 80, 65, 78, 13, 67, 85, 83, 84, 65, 82, 68, 13, 80, 65, 78, 84, 72, 69, 82, 13], "trial": 4, "time_elapsed": 1007953, "type": "FREE_RECALL", "trial_index": 183}, "uniqueid": "MTK2308:3IXQG4FA2U5NWLCZ7AFM9NHH1ZYB9L", "dateTime": 1516986203778}, {"current_trial": 184, "trialdata": {"rt": 1826, "trial_type": "text", "internal_node_id": "0.0-139.0", "time_elapsed": 1011784, "key_press": 32, "type": "INSTRUCTIONS", "trial_index": 184}, "uniqueid": "MTK2308:3IXQG4FA2U5NWLCZ7AFM9NHH1ZYB9L", "dateTime": 1516986207606}, {"current_trial": 185, "trialdata": {"rt": [3190, 5223, 8886, 10974], "trial_type": "math-distractor", "key_times": [2934, 3087, 3190, 4934, 5022, 5223, 8631, 8670, 8886, 10686, 10750, 10974], "responses": ["11", "10", "26", "19"], "num2": [1, 1, 9, 4, 3], "num3": [8, 4, 9, 9, 8], "conditions": [12, 1600, "a", 12000], "internal_node_id": "0.0-140.0", "key_presses": [97, 97, 13, 97, 96, 13, 98, 102, 13, 97, 105, 13], "trial": 5, "time_elapsed": 1025787, "type": "DISTRACTOR", "trial_index": 185, "num1": [2, 5, 8, 6, 9]}, "uniqueid": "MTK2308:3IXQG4FA2U5NWLCZ7AFM9NHH1ZYB9L", "dateTime": 1516986221609}, {"current_trial": 186, "trialdata": {"rt": -1, "trial_type": "single-stim", "stimulus": "<p id=\"stim\">10</p>", "internal_node_id": "0.0-141.0-0.0", "time_elapsed": 1028790, "key_press": -1, "trial_index": 186}, "uniqueid": "MTK2308:3IXQG4FA2U5NWLCZ7AFM9NHH1ZYB9L", "dateTime": 1516986224612}, {"current_trial": 187, "trialdata": {"rt": -1, "trial_type": "single-stim", "stimulus": "<p id=\"stim\">9</p>", "internal_node_id": "0.0-141.0-1.0", "time_elapsed": 1029791, "key_press": -1, "trial_index": 187}, "uniqueid": "MTK2308:3IXQG4FA2U5NWLCZ7AFM9NHH1ZYB9L", "dateTime": 1516986225613}, {"current_trial": 188, "trialdata": {"rt": -1, "trial_type": "single-stim", "stimulus": "<p id=\"stim\">8</p>", "internal_node_id": "0.0-141.0-2.0", "time_elapsed": 1030792, "key_press": -1, "trial_index": 188}, "uniqueid": "MTK2308:3IXQG4FA2U5NWLCZ7AFM9NHH1ZYB9L", "dateTime": 1516986226614}, {"current_trial": 189, "trialdata": {"rt": -1, "trial_type": "single-stim", "stimulus": "<p id=\"stim\">7</p>", "internal_node_id": "0.0-141.0-3.0", "time_elapsed": 1031794, "key_press": -1, "trial_index": 189}, "uniqueid": "MTK2308:3IXQG4FA2U5NWLCZ7AFM9NHH1ZYB9L", "dateTime": 1516986227616}, {"current_trial": 190, "trialdata": {"rt": -1, "trial_type": "single-stim", "stimulus": "<p id=\"stim\">6</p>", "internal_node_id": "0.0-141.0-4.0", "time_elapsed": 1032795, "key_press": -1, "trial_index": 190}, "uniqueid": "MTK2308:3IXQG4FA2U5NWLCZ7AFM9NHH1ZYB9L", "dateTime": 1516986228617}, {"current_trial": 191, "trialdata": {"rt": -1, "trial_type": "single-stim", "stimulus": "<p id=\"stim\">5</p>", "internal_node_id": "0.0-141.0-5.0", "time_elapsed": 1033796, "key_press": -1, "trial_index": 191}, "uniqueid": "MTK2308:3IXQG4FA2U5NWLCZ7AFM9NHH1ZYB9L", "dateTime": 1516986229618}, {"current_trial": 192, "trialdata": {"rt": -1, "trial_type": "single-stim", "stimulus": "<p id=\"stim\">4</p>", "internal_node_id": "0.0-141.0-6.0", "time_elapsed": 1034798, "key_press": -1, "trial_index": 192}, "uniqueid": "MTK2308:3IXQG4FA2U5NWLCZ7AFM9NHH1ZYB9L", "dateTime": 1516986230620}, {"current_trial": 193, "trialdata": {"rt": -1, "trial_type": "single-stim", "stimulus": "<p id=\"stim\">3</p>", "internal_node_id": "0.0-141.0-7.0", "time_elapsed": 1035800, "key_press": -1, "trial_index": 193}, "uniqueid": "MTK2308:3IXQG4FA2U5NWLCZ7AFM9NHH1ZYB9L", "dateTime": 1516986231622}, {"current_trial": 194, "trialdata": {"rt": -1, "trial_type": "single-stim", "stimulus": "<p id=\"stim\">2</p>", "internal_node_id": "0.0-141.0-8.0", "time_elapsed": 1036801, "key_press": -1, "trial_index": 194}, "uniqueid": "MTK2308:3IXQG4FA2U5NWLCZ7AFM9NHH1ZYB9L", "dateTime": 1516986232623}, {"current_trial": 195, "trialdata": {"rt": -1, "trial_type": "single-stim", "stimulus": "<p id=\"stim\">1</p>", "internal_node_id": "0.0-141.0-9.0", "time_elapsed": 1037803, "key_press": -1, "trial_index": 195}, "uniqueid": "MTK2308:3IXQG4FA2U5NWLCZ7AFM9NHH1ZYB9L", "dateTime": 1516986233625}, {"current_trial": 196, "trialdata": {"rt": -1, "trial_type": "single-stim", "stimulus": "<p id=\"stim\">+</p>", "internal_node_id": "0.0-142.0-0.0", "time_elapsed": 1039304, "key_press": -1, "type": "FIXATION", "trial_index": 196}, "uniqueid": "MTK2308:3IXQG4FA2U5NWLCZ7AFM9NHH1ZYB9L", "dateTime": 1516986235126}, {"current_trial": 197, "trialdata": {"rt": -1000, "trial_type": "single-audio", "word": "dresser", "stimulus": "/static/audio/wordpool/DRESSER.wav", "conditions": [12, 1600, "a", 12000], "internal_node_id": "0.0-143.0", "trial": 5, "time_elapsed": 1041746, "serialpos": 0, "key_press": -1, "wordID": 495, "type": "PRES_AUD", "trial_index": 197}, "uniqueid": "MTK2308:3IXQG4FA2U5NWLCZ7AFM9NHH1ZYB9L", "dateTime": 1516986237568}, {"current_trial": 198, "trialdata": {"rt": -1000, "trial_type": "single-audio", "word": "box", "stimulus": "/static/audio/wordpool/BOX.wav", "conditions": [12, 1600, "a", 12000], "internal_node_id": "0.0-144.0", "trial": 5, "time_elapsed": 1044343, "serialpos": 1, "key_press": -1, "wordID": 158, "type": "PRES_AUD", "trial_index": 198}, "uniqueid": "MTK2308:3IXQG4FA2U5NWLCZ7AFM9NHH1ZYB9L", "dateTime": 1516986240165}, {"current_trial": 199, "trialdata": {"rt": -1000, "trial_type": "single-audio", "word": "sibling", "stimulus": "/static/audio/wordpool/SIBLING.wav", "conditions": [12, 1600, "a", 12000], "internal_node_id": "0.0-145.0", "trial": 5, "time_elapsed": 1046842, "serialpos": 2, "key_press": -1, "wordID": 1300, "type": "PRES_AUD", "trial_index": 199}, "uniqueid": "MTK2308:3IXQG4FA2U5NWLCZ7AFM9NHH1ZYB9L", "dateTime": 1516986242664}, {"current_trial": 200, "trialdata": {"rt": -1000, "trial_type": "single-audio", "word": "waiter", "stimulus": "/static/audio/wordpool/WAITER.wav", "conditions": [12, 1600, "a", 12000], "internal_node_id": "0.0-146.0", "trial": 5, "time_elapsed": 1049441, "serialpos": 3, "key_press": -1, "wordID": 1579, "type": "PRES_AUD", "trial_index": 200}, "uniqueid": "MTK2308:3IXQG4FA2U5NWLCZ7AFM9NHH1ZYB9L", "dateTime": 1516986245263}, {"current_trial": 201, "trialdata": {"rt": -1000, "trial_type": "single-audio", "word": "pistol", "stimulus": "/static/audio/wordpool/PISTOL.wav", "conditions": [12, 1600, "a", 12000], "internal_node_id": "0.0-147.0", "trial": 5, "time_elapsed": 1051878, "serialpos": 4, "key_press": -1, "wordID": 1074, "type": "PRES_AUD", "trial_index": 201}, "uniqueid": "MTK2308:3IXQG4FA2U5NWLCZ7AFM9NHH1ZYB9L", "dateTime": 1516986247700}, {"current_trial": 202, "trialdata": {"rt": -1000, "trial_type": "single-audio", "word": "cousin", "stimulus": "/static/audio/wordpool/COUSIN.wav", "conditions": [12, 1600, "a", 12000], "internal_node_id": "0.0-148.0", "trial": 5, "time_elapsed": 1054669, "serialpos": 5, "key_press": -1, "wordID": 391, "type": "PRES_AUD", "trial_index": 202}, "uniqueid": "MTK2308:3IXQG4FA2U5NWLCZ7AFM9NHH1ZYB9L", "dateTime": 1516986250491}, {"current_trial": 203, "trialdata": {"rt": -1000, "trial_type": "single-audio", "word": "pimple", "stimulus": "/static/audio/wordpool/PIMPLE.wav", "conditions": [12, 1600, "a", 12000], "internal_node_id": "0.0-149.0", "trial": 5, "time_elapsed": 1057225, "serialpos": 6, "key_press": -1, "wordID": 1070, "type": "PRES_AUD", "trial_index": 203}, "uniqueid": "MTK2308:3IXQG4FA2U5NWLCZ7AFM9NHH1ZYB9L", "dateTime": 1516986253047}, {"current_trial": 204, "trialdata": {"rt": -1000, "trial_type": "single-audio", "word": "marrow", "stimulus": "/static/audio/wordpool/MARROW.wav", "conditions": [12, 1600, "a", 12000], "internal_node_id": "0.0-150.0", "trial": 5, "time_elapsed": 1059899, "serialpos": 7, "key_press": -1, "wordID": 871, "type": "PRES_AUD", "trial_index": 204}, "uniqueid": "MTK2308:3IXQG4FA2U5NWLCZ7AFM9NHH1ZYB9L", "dateTime": 1516986255721}, {"current_trial": 205, "trialdata": {"rt": -1000, "trial_type": "single-audio", "word": "kidney", "stimulus": "/static/audio/wordpool/KIDNEY.wav", "conditions": [12, 1600, "a", 12000], "internal_node_id": "0.0-151.0", "trial": 5, "time_elapsed": 1062503, "serialpos": 8, "key_press": -1, "wordID": 775, "type": "PRES_AUD", "trial_index": 205}, "uniqueid": "MTK2308:3IXQG4FA2U5NWLCZ7AFM9NHH1ZYB9L", "dateTime": 1516986258325}, {"current_trial": 206, "trialdata": {"rt": -1000, "trial_type": "single-audio", "word": "missile", "stimulus": "/static/audio/wordpool/MISSILE.wav", "conditions": [12, 1600, "a", 12000], "internal_node_id": "0.0-152.0", "trial": 5, "time_elapsed": 1065151, "serialpos": 9, "key_press": -1, "wordID": 899, "type": "PRES_AUD", "trial_index": 206}, "uniqueid": "MTK2308:3IXQG4FA2U5NWLCZ7AFM9NHH1ZYB9L", "dateTime": 1516986260973}, {"current_trial": 207, "trialdata": {"rt": -1000, "trial_type": "single-audio", "word": "umpire", "stimulus": "/static/audio/wordpool/UMPIRE.wav", "conditions": [12, 1600, "a", 12000], "internal_node_id": "0.0-153.0", "trial": 5, "time_elapsed": 1067759, "serialpos": 10, "key_press": -1, "wordID": 1534, "type": "PRES_AUD", "trial_index": 207}, "uniqueid": "MTK2308:3IXQG4FA2U5NWLCZ7AFM9NHH1ZYB9L", "dateTime": 1516986263581}, {"current_trial": 208, "trialdata": {"rt": -1000, "trial_type": "single-audio", "word": "flesh", "stimulus": "/static/audio/wordpool/FLESH.wav", "conditions": [12, 1600, "a", 12000], "internal_node_id": "0.0-154.0", "trial": 5, "time_elapsed": 1070294, "serialpos": 11, "key_press": -1, "wordID": 578, "type": "PRES_AUD", "trial_index": 208}, "uniqueid": "MTK2308:3IXQG4FA2U5NWLCZ7AFM9NHH1ZYB9L", "dateTime": 1516986266116}, {"current_trial": 209, "trialdata": {"rt": -1, "trial_type": "single-stim", "stimulus": "", "internal_node_id": "0.0-155.0-0.0", "time_elapsed": 1071692, "key_press": -1, "type": "PRE_RECALL_DELAY", "trial_index": 209}, "uniqueid": "MTK2308:3IXQG4FA2U5NWLCZ7AFM9NHH1ZYB9L", "dateTime": 1516986267514}, {"current_trial": 210, "trialdata": {"rt": -1000, "trial_type": "single-audio", "stimulus": "/static/audio/400Hz.wav", "internal_node_id": "0.0-156.0", "time_elapsed": 1072193, "key_press": -1, "type": "PRE_RECALL_ALERT", "trial_index": 210}, "uniqueid": "MTK2308:3IXQG4FA2U5NWLCZ7AFM9NHH1ZYB9L", "dateTime": 1516986268015}, {"current_trial": 211, "trialdata": {"rt": [2138, 3843, 9114, 11274, 12442, 17562, 19706, 25961, 28186, 29514], "recwords": ["flesh", "cousin", "umpire", "sibling", "flesh", "box", "dresser", "pimple", "kidney", "marrow"], "key_times": [1035, 1306, 1515, 1754, 1891, 2138, 2554, 2770, 2826, 2987, 3147, 3219, 3843, 4434, 4642, 4874, 5107, 5290, 5370, 6130, 6290, 6426, 6554, 6682, 7338, 8290, 8714, 8882, 8938, 9114, 9466, 9650, 9842, 10010, 10282, 10347, 10523, 11274, 11570, 11794, 11914, 12010, 12202, 12442, 16882, 17042, 17418, 17562, 17938, 18162, 18226, 18426, 18570, 18730, 19346, 19706, 22506, 23010, 23090, 23346, 23466, 23714, 24273, 24426, 24553, 24658, 25305, 25578, 25658, 25817, 25961, 26354, 26537, 26690, 27658, 27818, 27930, 28186, 28537, 28634, 28794, 28914, 29066, 29161, 29514], "trial_type": "free-recall", "conditions": [12, 1600, "a", 12000], "internal_node_id": "0.0-157.0-0.0", "key_presses": [70, 76, 69, 83, 72, 13, 67, 79, 85, 83, 73, 78, 13, 85, 78, 80, 73, 82, 69, 8, 8, 8, 8, 8, 77, 80, 73, 82, 69, 13, 83, 73, 66, 76, 73, 78, 71, 13, 70, 76, 69, 83, 72, 13, 66, 79, 88, 13, 68, 82, 69, 83, 83, 69, 82, 13, 80, 73, 78, 80, 76, 69, 8, 8, 8, 8, 77, 80, 76, 69, 13, 75, 73, 68, 78, 69, 89, 13, 77, 65, 82, 82, 79, 87, 13], "trial": 5, "time_elapsed": 1132196, "type": "FREE_RECALL", "trial_index": 211}, "uniqueid": "MTK2308:3IXQG4FA2U5NWLCZ7AFM9NHH1ZYB9L", "dateTime": 1516986328021}, {"current_trial": 212, "trialdata": {"rt": 94935, "trial_type": "text", "internal_node_id": "0.0-158.0", "time_elapsed": 1229137, "key_press": 32, "type": "INSTRUCTIONS", "trial_index": 212}, "uniqueid": "MTK2308:3IXQG4FA2U5NWLCZ7AFM9NHH1ZYB9L", "dateTime": 1516986424959}, {"current_trial": 213, "trialdata": {"rt": [2660, 4701, 8060, 10589, 14804, 17724, 19788, 23916], "trial_type": "math-distractor", "key_times": [2437, 2565, 2660, 4189, 4501, 4701, 7717, 7797, 8060, 10308, 10372, 10589, 14493, 14573, 14804, 17364, 17468, 17724, 19484, 19540, 19788, 23484, 23692, 23916], "responses": ["22", "17", "23", "15", "16", "13", "13", "17"], "num2": [9, 2, 5, 3, 9, 6, 3, 6, 6], "num3": [9, 7, 9, 8, 2, 3, 2, 4, 5], "conditions": [12, 800, "a", 24000], "internal_node_id": "0.0-159.0", "key_presses": [98, 98, 13, 97, 103, 13, 98, 99, 13, 97, 101, 13, 97, 102, 13, 97, 99, 13, 97, 99, 13, 97, 103, 13], "trial": 6, "time_elapsed": 1255141, "type": "DISTRACTOR", "trial_index": 213, "num1": [4, 8, 9, 4, 5, 4, 9, 7, 7]}, "uniqueid": "MTK2308:3IXQG4FA2U5NWLCZ7AFM9NHH1ZYB9L", "dateTime": 1516986450963}, {"current_trial": 214, "trialdata": {"rt": -1, "trial_type": "single-stim", "stimulus": "<p id=\"stim\">10</p>", "internal_node_id": "0.0-160.0-0.0", "time_elapsed": 1258144, "key_press": -1, "trial_index": 214}, "uniqueid": "MTK2308:3IXQG4FA2U5NWLCZ7AFM9NHH1ZYB9L", "dateTime": 1516986453966}, {"current_trial": 215, "trialdata": {"rt": -1, "trial_type": "single-stim", "stimulus": "<p id=\"stim\">9</p>", "internal_node_id": "0.0-160.0-1.0", "time_elapsed": 1259145, "key_press": -1, "trial_index": 215}, "uniqueid": "MTK2308:3IXQG4FA2U5NWLCZ7AFM9NHH1ZYB9L", "dateTime": 1516986454967}, {"current_trial": 216, "trialdata": {"rt": -1, "trial_type": "single-stim", "stimulus": "<p id=\"stim\">8</p>", "internal_node_id": "0.0-160.0-2.0", "time_elapsed": 1260146, "key_press": -1, "trial_index": 216}, "uniqueid": "MTK2308:3IXQG4FA2U5NWLCZ7AFM9NHH1ZYB9L", "dateTime": 1516986455968}, {"current_trial": 217, "trialdata": {"rt": -1, "trial_type": "single-stim", "stimulus": "<p id=\"stim\">7</p>", "internal_node_id": "0.0-160.0-3.0", "time_elapsed": 1261148, "key_press": -1, "trial_index": 217}, "uniqueid": "MTK2308:3IXQG4FA2U5NWLCZ7AFM9NHH1ZYB9L", "dateTime": 1516986456970}, {"current_trial": 218, "trialdata": {"rt": -1, "trial_type": "single-stim", "stimulus": "<p id=\"stim\">6</p>", "internal_node_id": "0.0-160.0-4.0", "time_elapsed": 1262149, "key_press": -1, "trial_index": 218}, "uniqueid": "MTK2308:3IXQG4FA2U5NWLCZ7AFM9NHH1ZYB9L", "dateTime": 1516986457971}, {"current_trial": 219, "trialdata": {"rt": -1, "trial_type": "single-stim", "stimulus": "<p id=\"stim\">5</p>", "internal_node_id": "0.0-160.0-5.0", "time_elapsed": 1263150, "key_press": -1, "trial_index": 219}, "uniqueid": "MTK2308:3IXQG4FA2U5NWLCZ7AFM9NHH1ZYB9L", "dateTime": 1516986458972}, {"current_trial": 220, "trialdata": {"rt": -1, "trial_type": "single-stim", "stimulus": "<p id=\"stim\">4</p>", "internal_node_id": "0.0-160.0-6.0", "time_elapsed": 1264151, "key_press": -1, "trial_index": 220}, "uniqueid": "MTK2308:3IXQG4FA2U5NWLCZ7AFM9NHH1ZYB9L", "dateTime": 1516986459974}, {"current_trial": 221, "trialdata": {"rt": -1, "trial_type": "single-stim", "stimulus": "<p id=\"stim\">3</p>", "internal_node_id": "0.0-160.0-7.0", "time_elapsed": 1265153, "key_press": -1, "trial_index": 221}, "uniqueid": "MTK2308:3IXQG4FA2U5NWLCZ7AFM9NHH1ZYB9L", "dateTime": 1516986460975}, {"current_trial": 222, "trialdata": {"rt": -1, "trial_type": "single-stim", "stimulus": "<p id=\"stim\">2</p>", "internal_node_id": "0.0-160.0-8.0", "time_elapsed": 1266154, "key_press": -1, "trial_index": 222}, "uniqueid": "MTK2308:3IXQG4FA2U5NWLCZ7AFM9NHH1ZYB9L", "dateTime": 1516986461977}, {"current_trial": 223, "trialdata": {"rt": -1, "trial_type": "single-stim", "stimulus": "<p id=\"stim\">1</p>", "internal_node_id": "0.0-160.0-9.0", "time_elapsed": 1267156, "key_press": -1, "trial_index": 223}, "uniqueid": "MTK2308:3IXQG4FA2U5NWLCZ7AFM9NHH1ZYB9L", "dateTime": 1516986462978}, {"current_trial": 224, "trialdata": {"rt": -1, "trial_type": "single-stim", "stimulus": "<p id=\"stim\">+</p>", "internal_node_id": "0.0-161.0-0.0", "time_elapsed": 1268657, "key_press": -1, "type": "FIXATION", "trial_index": 224}, "uniqueid": "MTK2308:3IXQG4FA2U5NWLCZ7AFM9NHH1ZYB9L", "dateTime": 1516986464480}, {"current_trial": 225, "trialdata": {"rt": -1000, "trial_type": "single-audio", "word": "outdoors", "stimulus": "/static/audio/wordpool/OUTDOORS.wav", "conditions": [12, 800, "a", 24000], "internal_node_id": "0.0-162.0", "trial": 6, "time_elapsed": 1270494, "serialpos": 0, "key_press": -1, "wordID": 986, "type": "PRES_AUD", "trial_index": 225}, "uniqueid": "MTK2308:3IXQG4FA2U5NWLCZ7AFM9NHH1ZYB9L", "dateTime": 1516986466316}, {"current_trial": 226, "trialdata": {"rt": -1000, "trial_type": "single-audio", "word": "pliers", "stimulus": "/static/audio/wordpool/PLIERS.wav", "conditions": [12, 800, "a", 24000], "internal_node_id": "0.0-163.0", "trial": 6, "time_elapsed": 1272210, "serialpos": 1, "key_press": -1, "wordID": 1088, "type": "PRES_AUD", "trial_index": 226}, "uniqueid": "MTK2308:3IXQG4FA2U5NWLCZ7AFM9NHH1ZYB9L", "dateTime": 1516986468032}, {"current_trial": 227, "trialdata": {"rt": -1000, "trial_type": "single-audio", "word": "thief", "stimulus": "/static/audio/wordpool/THIEF.wav", "conditions": [12, 800, "a", 24000], "internal_node_id": "0.0-164.0", "trial": 6, "time_elapsed": 1273815, "serialpos": 2, "key_press": -1, "wordID": 1455, "type": "PRES_AUD", "trial_index": 227}, "uniqueid": "MTK2308:3IXQG4FA2U5NWLCZ7AFM9NHH1ZYB9L", "dateTime": 1516986469638}, {"current_trial": 228, "trialdata": {"rt": -1000, "trial_type": "single-audio", "word": "tortoise", "stimulus": "/static/audio/wordpool/TORTOISE.wav", "conditions": [12, 800, "a", 24000], "internal_node_id": "0.0-165.0", "trial": 6, "time_elapsed": 1275662, "serialpos": 3, "key_press": -1, "wordID": 1485, "type": "PRES_AUD", "trial_index": 228}, "uniqueid": "MTK2308:3IXQG4FA2U5NWLCZ7AFM9NHH1ZYB9L", "dateTime": 1516986471484}, {"current_trial": 229, "trialdata": {"rt": -1000, "trial_type": "single-audio", "word": "mammal", "stimulus": "/static/audio/wordpool/MAMMAL.wav", "conditions": [12, 800, "a", 24000], "internal_node_id": "0.0-166.0", "trial": 6, "time_elapsed": 1277308, "serialpos": 4, "key_press": -1, "wordID": 860, "type": "PRES_AUD", "trial_index": 229}, "uniqueid": "MTK2308:3IXQG4FA2U5NWLCZ7AFM9NHH1ZYB9L", "dateTime": 1516986473130}, {"current_trial": 230, "trialdata": {"rt": -1000, "trial_type": "single-audio", "word": "canal", "stimulus": "/static/audio/wordpool/CANAL.wav", "conditions": [12, 800, "a", 24000], "internal_node_id": "0.0-167.0", "trial": 6, "time_elapsed": 1279011, "serialpos": 5, "key_press": -1, "wordID": 225, "type": "PRES_AUD", "trial_index": 230}, "uniqueid": "MTK2308:3IXQG4FA2U5NWLCZ7AFM9NHH1ZYB9L", "dateTime": 1516986474833}, {"current_trial": 231, "trialdata": {"rt": -1000, "trial_type": "single-audio", "word": "turnip", "stimulus": "/static/audio/wordpool/TURNIP.wav", "conditions": [12, 800, "a", 24000], "internal_node_id": "0.0-168.0", "trial": 6, "time_elapsed": 1280936, "serialpos": 6, "key_press": -1, "wordID": 1520, "type": "PRES_AUD", "trial_index": 231}, "uniqueid": "MTK2308:3IXQG4FA2U5NWLCZ7AFM9NHH1ZYB9L", "dateTime": 1516986476758}, {"current_trial": 232, "trialdata": {"rt": -1000, "trial_type": "single-audio", "word": "novel", "stimulus": "/static/audio/wordpool/NOVEL.wav", "conditions": [12, 800, "a", 24000], "internal_node_id": "0.0-169.0", "trial": 6, "time_elapsed": 1282794, "serialpos": 7, "key_press": -1, "wordID": 959, "type": "PRES_AUD", "trial_index": 232}, "uniqueid": "MTK2308:3IXQG4FA2U5NWLCZ7AFM9NHH1ZYB9L", "dateTime": 1516986478616}, {"current_trial": 233, "trialdata": {"rt": -1000, "trial_type": "single-audio", "word": "dandruff", "stimulus": "/static/audio/wordpool/DANDRUFF.wav", "conditions": [12, 800, "a", 24000], "internal_node_id": "0.0-170.0", "trial": 6, "time_elapsed": 1284648, "serialpos": 8, "key_press": -1, "wordID": 438, "type": "PRES_AUD", "trial_index": 233}, "uniqueid": "MTK2308:3IXQG4FA2U5NWLCZ7AFM9NHH1ZYB9L", "dateTime": 1516986480471}, {"current_trial": 234, "trialdata": {"rt": -1000, "trial_type": "single-audio", "word": "river", "stimulus": "/static/audio/wordpool/RIVER.wav", "conditions": [12, 800, "a", 24000], "internal_node_id": "0.0-171.0", "trial": 6, "time_elapsed": 1286639, "serialpos": 9, "key_press": -1, "wordID": 1193, "type": "PRES_AUD", "trial_index": 234}, "uniqueid": "MTK2308:3IXQG4FA2U5NWLCZ7AFM9NHH1ZYB9L", "dateTime": 1516986482462}, {"current_trial": 235, "trialdata": {"rt": -1000, "trial_type": "single-audio", "word": "shelf", "stimulus": "/static/audio/wordpool/SHELF.wav", "conditions": [12, 800, "a", 24000], "internal_node_id": "0.0-172.0", "trial": 6, "time_elapsed": 1288258, "serialpos": 10, "key_press": -1, "wordID": 1279, "type": "PRES_AUD", "trial_index": 235}, "uniqueid": "MTK2308:3IXQG4FA2U5NWLCZ7AFM9NHH1ZYB9L", "dateTime": 1516986484080}, {"current_trial": 236, "trialdata": {"rt": -1000, "trial_type": "single-audio", "word": "ozone", "stimulus": "/static/audio/wordpool/OZONE.wav", "conditions": [12, 800, "a", 24000], "internal_node_id": "0.0-173.0", "trial": 6, "time_elapsed": 1290254, "serialpos": 11, "key_press": -1, "wordID": 995, "type": "PRES_AUD", "trial_index": 236}, "uniqueid": "MTK2308:3IXQG4FA2U5NWLCZ7AFM9NHH1ZYB9L", "dateTime": 1516986486077}, {"current_trial": 237, "trialdata": {"rt": -1, "trial_type": "single-stim", "stimulus": "", "internal_node_id": "0.0-174.0-0.0", "time_elapsed": 1291505, "key_press": -1, "type": "PRE_RECALL_DELAY", "trial_index": 237}, "uniqueid": "MTK2308:3IXQG4FA2U5NWLCZ7AFM9NHH1ZYB9L", "dateTime": 1516986487327}, {"current_trial": 238, "trialdata": {"rt": -1000, "trial_type": "single-audio", "stimulus": "/static/audio/400Hz.wav", "internal_node_id": "0.0-175.0", "time_elapsed": 1292007, "key_press": -1, "type": "PRE_RECALL_ALERT", "trial_index": 238}, "uniqueid": "MTK2308:3IXQG4FA2U5NWLCZ7AFM9NHH1ZYB9L", "dateTime": 1516986487829}, {"current_trial": 239, "trialdata": {"rt": [2934, 4590, 8341, 13773, 21453], "recwords": ["shelf", "ozone", "mammal", "tortouse", "thief"], "key_times": [614, 973, 1406, 1541, 1694, 2566, 2693, 2934, 3374, 3821, 3982, 4261, 4421, 4590, 4910, 5005, 5398, 5613, 5733, 6293, 6421, 7445, 7581, 7686, 8341, 11086, 11941, 12061, 12501, 12821, 12877, 13085, 13165, 13773, 16093, 16197, 18869, 18973, 19101, 19685, 19837, 19965, 20837, 20957, 21077, 21453, 59460, 59716, 59891], "trial_type": "free-recall", "conditions": [12, 800, "a", 24000], "internal_node_id": "0.0-176.0-0.0", "key_presses": [72, 8, 83, 72, 69, 76, 70, 13, 79, 90, 79, 78, 69, 13, 77, 65, 77, 65, 76, 8, 8, 77, 65, 76, 13, 84, 79, 82, 84, 79, 85, 83, 69, 13, 84, 72, 69, 73, 70, 8, 8, 8, 73, 69, 70, 13, 83, 72, 69], "trial": 6, "time_elapsed": 1352009, "type": "FREE_RECALL", "trial_index": 239}, "uniqueid": "MTK2308:3IXQG4FA2U5NWLCZ7AFM9NHH1ZYB9L", "dateTime": 1516986547834}, {"current_trial": 240, "trialdata": {"rt": 91946, "trial_type": "text", "internal_node_id": "0.0-177.0", "time_elapsed": 1445961, "key_press": 32, "type": "INSTRUCTIONS", "trial_index": 240}, "uniqueid": "MTK2308:3IXQG4FA2U5NWLCZ7AFM9NHH1ZYB9L", "dateTime": 1516986641783}, {"current_trial": 241, "trialdata": {"rt": [2733, 4125, 7325, 9877, 12621, 15933, 21444], "trial_type": "math-distractor", "key_times": [2245, 2453, 2733, 3933, 4125, 6973, 7141, 7325, 9509, 9661, 9877, 12333, 12477, 12621, 15340, 15709, 15933, 21140, 21285, 21444, 23820, 23877], "responses": ["17", "7", "24", "15", "11", "17", "20"], "num2": [7, 1, 9, 4, 3, 7, 7, 8], "num3": [9, 1, 6, 9, 1, 4, 5, 1], "conditions": [24, 800, "a", 24000], "internal_node_id": "0.0-178.0", "key_presses": [97, 103, 13, 103, 13, 98, 100, 13, 97, 101, 13, 97, 97, 13, 97, 103, 13, 98, 96, 13, 97, 98], "trial": 7, "time_elapsed": 1471964, "type": "DISTRACTOR", "trial_index": 241, "num1": [1, 5, 9, 2, 7, 6, 8, 3]}, "uniqueid": "MTK2308:3IXQG4FA2U5NWLCZ7AFM9NHH1ZYB9L", "dateTime": 1516986667787}, {"current_trial": 242, "trialdata": {"rt": -1, "trial_type": "single-stim", "stimulus": "<p id=\"stim\">10</p>", "internal_node_id": "0.0-179.0-0.0", "time_elapsed": 1474967, "key_press": -1, "trial_index": 242}, "uniqueid": "MTK2308:3IXQG4FA2U5NWLCZ7AFM9NHH1ZYB9L", "dateTime": 1516986670789}, {"current_trial": 243, "trialdata": {"rt": -1, "trial_type": "single-stim", "stimulus": "<p id=\"stim\">9</p>", "internal_node_id": "0.0-179.0-1.0", "time_elapsed": 1475969, "key_press": -1, "trial_index": 243}, "uniqueid": "MTK2308:3IXQG4FA2U5NWLCZ7AFM9NHH1ZYB9L", "dateTime": 1516986671791}, {"current_trial": 244, "trialdata": {"rt": -1, "trial_type": "single-stim", "stimulus": "<p id=\"stim\">8</p>", "internal_node_id": "0.0-179.0-2.0", "time_elapsed": 1476970, "key_press": -1, "trial_index": 244}, "uniqueid": "MTK2308:3IXQG4FA2U5NWLCZ7AFM9NHH1ZYB9L", "dateTime": 1516986672792}, {"current_trial": 245, "trialdata": {"rt": -1, "trial_type": "single-stim", "stimulus": "<p id=\"stim\">7</p>", "internal_node_id": "0.0-179.0-3.0", "time_elapsed": 1477971, "key_press": -1, "trial_index": 245}, "uniqueid": "MTK2308:3IXQG4FA2U5NWLCZ7AFM9NHH1ZYB9L", "dateTime": 1516986673793}, {"current_trial": 246, "trialdata": {"rt": -1, "trial_type": "single-stim", "stimulus": "<p id=\"stim\">6</p>", "internal_node_id": "0.0-179.0-4.0", "time_elapsed": 1478973, "key_press": -1, "trial_index": 246}, "uniqueid": "MTK2308:3IXQG4FA2U5NWLCZ7AFM9NHH1ZYB9L", "dateTime": 1516986674795}, {"current_trial": 247, "trialdata": {"rt": -1, "trial_type": "single-stim", "stimulus": "<p id=\"stim\">5</p>", "internal_node_id": "0.0-179.0-5.0", "time_elapsed": 1479975, "key_press": -1, "trial_index": 247}, "uniqueid": "MTK2308:3IXQG4FA2U5NWLCZ7AFM9NHH1ZYB9L", "dateTime": 1516986675797}, {"current_trial": 248, "trialdata": {"rt": -1, "trial_type": "single-stim", "stimulus": "<p id=\"stim\">4</p>", "internal_node_id": "0.0-179.0-6.0", "time_elapsed": 1480976, "key_press": -1, "trial_index": 248}, "uniqueid": "MTK2308:3IXQG4FA2U5NWLCZ7AFM9NHH1ZYB9L", "dateTime": 1516986676798}, {"current_trial": 249, "trialdata": {"rt": -1, "trial_type": "single-stim", "stimulus": "<p id=\"stim\">3</p>", "internal_node_id": "0.0-179.0-7.0", "time_elapsed": 1481977, "key_press": -1, "trial_index": 249}, "uniqueid": "MTK2308:3IXQG4FA2U5NWLCZ7AFM9NHH1ZYB9L", "dateTime": 1516986677799}, {"current_trial": 250, "trialdata": {"rt": -1, "trial_type": "single-stim", "stimulus": "<p id=\"stim\">2</p>", "internal_node_id": "0.0-179.0-8.0", "time_elapsed": 1482979, "key_press": -1, "trial_index": 250}, "uniqueid": "MTK2308:3IXQG4FA2U5NWLCZ7AFM9NHH1ZYB9L", "dateTime": 1516986678801}, {"current_trial": 251, "trialdata": {"rt": -1, "trial_type": "single-stim", "stimulus": "<p id=\"stim\">1</p>", "internal_node_id": "0.0-179.0-9.0", "time_elapsed": 1483980, "key_press": -1, "trial_index": 251}, "uniqueid": "MTK2308:3IXQG4FA2U5NWLCZ7AFM9NHH1ZYB9L", "dateTime": 1516986679802}, {"current_trial": 252, "trialdata": {"rt": -1, "trial_type": "single-stim", "stimulus": "<p id=\"stim\">+</p>", "internal_node_id": "0.0-180.0-0.0", "time_elapsed": 1485482, "key_press": -1, "type": "FIXATION", "trial_index": 252}, "uniqueid": "MTK2308:3IXQG4FA2U5NWLCZ7AFM9NHH1ZYB9L", "dateTime": 1516986681304}, {"current_trial": 253, "trialdata": {"rt": -1000, "trial_type": "single-audio", "word": "cod", "stimulus": "/static/audio/wordpool/COD.wav", "conditions": [24, 800, "a", 24000], "internal_node_id": "0.0-181.0", "trial": 7, "time_elapsed": 1487125, "se