{"assignmentId": "308Q0PEVB9KXJTQ5DK73VALUWQ6I9R", "workerId": "MTK2371", "questiondata": {"avail_screen_height": 1036, "color_depth": 24, "screen_width": 1920, "pixel_depth": 24, "avail_screen_width": 1920, "screen_height": 1080}, "bonus": 0, "hitId": "3M67TQBQQHVGQR9DBUAOPS1R0L99AY", "counterbalance": 2404, "useragent": "Mozilla/5.0 (Windows NT 6.1; Win64; x64) AppleWebKit/537.36 (KHTML, like Gecko) Chrome/63.0.3239.132 Safari/537.36", "eventdata": [{"eventtype": "initialized", "interval": 0, "value": null, "timestamp": 1517002046148}, {"eventtype": "window_resize", "interval": 0, "value": [1920, 985], "timestamp": 1517002046148}, {"eventtype": "focus", "interval": 15892, "value": "off", "timestamp": 1517002062040}, {"eventtype": "focus", "interval": 3005012, "value": "on", "timestamp": 1517005067052}, {"eventtype": "focus", "interval": 3013, "value": "off", "timestamp": 1517005070065}, {"eventtype": "focus", "interval": 3172, "value": "on", "timestamp": 1517005073237}, {"eventtype": "window_resize", "interval": 13184, "value": [1920, 1035], "timestamp": 1517005086421}, {"eventtype": "window_resize", "interval": 2301, "value": [1920, 985], "timestamp": 1517005088722}, {"eventtype": "focus", "interval": 55074, "value": "off", "timestamp": 1517005143796}, {"eventtype": "focus", "interval": 24927, "value": "on", "timestamp": 1517005168723}, {"eventtype": "focus", "interval": 933426, "value": "off", "timestamp": 1517006102149}, {"eventtype": "focus", "interval": 18629, "value": "on", "timestamp": 1517006120778}, {"eventtype": "focus", "interval": 422530, "value": "off", "timestamp": 1517006543308}, {"eventtype": "focus", "interval": 1, "value": "on", "timestamp": 1517006543309}, {"eventtype": "focus", "interval": 71, "value": "off", "timestamp": 1517006543380}, {"eventtype": "focus", "interval": 612, "value": "on", "timestamp": 1517006543992}, {"eventtype": "focus", "interval": 2067, "value": "off", "timestamp": 1517006546059}, {"eventtype": "focus", "interval": 74656, "value": "on", "timestamp": 1517006620715}, {"eventtype": "focus", "interval": 137276, "value": "off", "timestamp": 1517006757991}, {"eventtype": "focus", "interval": 44300, "value": "on", "timestamp": 1517006802291}, {"eventtype": "focus", "interval": 268444, "value": "off", "timestamp": 1517007070735}, {"eventtype": "focus", "interval": 40063, "value": "on", "timestamp": 1517007110798}, {"eventtype": "focus", "interval": 160798, "value": "off", "timestamp": 1517007271596}, {"eventtype": "focus", "interval": 17343, "value": "on", "timestamp": 1517007288939}], "data": [{"current_trial": 0, "trialdata": {"rt": 4159, "trial_type": "text", "internal_node_id": "0.0-0.0", "time_elapsed": 4161, "key_press": 32, "type": "INSTRUCTIONS", "trial_index": 0}, "uniqueid": "MTK2371:308Q0PEVB9KXJTQ5DK73VALUWQ6I9R", "dateTime": 1517002051176}, {"current_trial": 1, "trialdata": {"rt": 3046219, "trial_type": "text", "internal_node_id": "0.0-1.0", "time_elapsed": 3050382, "key_press": 13, "type": "INSTRUCTIONS", "trial_index": 1}, "uniqueid": "MTK2371:308Q0PEVB9KXJTQ5DK73VALUWQ6I9R", "dateTime": 1517005097396}, {"current_trial": 2, "trialdata": {"rt": [11006], "trial_type": "audio-test", "responses": ["ocean"], "internal_node_id": "0.0-2.0", "time_elapsed": 3061407, "type": "AUDIO_TEST", "trial_index": 2}, "uniqueid": "MTK2371:308Q0PEVB9KXJTQ5DK73VALUWQ6I9R", "dateTime": 1517005108421}, {"current_trial": 3, "trialdata": {"rt": [4984], "trial_type": "audio-test", "responses": ["crystal"], "internal_node_id": "0.0-3.0", "time_elapsed": 3066395, "type": "AUDIO_TEST", "trial_index": 3}, "uniqueid": "MTK2371:308Q0PEVB9KXJTQ5DK73VALUWQ6I9R", "dateTime": 1517005113409}, {"current_trial": 4, "trialdata": {"rt": [3608], "trial_type": "audio-test", "responses": ["spice"], "internal_node_id": "0.0-4.0", "time_elapsed": 3070007, "type": "AUDIO_TEST", "trial_index": 4}, "uniqueid": "MTK2371:308Q0PEVB9KXJTQ5DK73VALUWQ6I9R", "dateTime": 1517005117021}, {"current_trial": 5, "trialdata": {"rt": 14332, "trial_type": "survey-text", "responses": "{\"Q0\":\"3:45 AM\",\"Q1\":\"9:30 AM\",\"Q2\":\"4\"}", "internal_node_id": "0.0-5.0", "time_elapsed": 3085091, "type": "SLEEP_SURVEY", "trial_index": 5}, "uniqueid": "MTK2371:308Q0PEVB9KXJTQ5DK73VALUWQ6I9R", "dateTime": 1517005132105}, {"current_trial": 6, "trialdata": {"rt": 41381, "trial_type": "text", "internal_node_id": "0.0-6.0", "time_elapsed": 3127473, "key_press": 32, "type": "INSTRUCTIONS", "trial_index": 6}, "uniqueid": "MTK2371:308Q0PEVB9KXJTQ5DK73VALUWQ6I9R", "dateTime": 1517005174487}, {"current_trial": 7, "trialdata": {"rt": 8753, "trial_type": "text", "internal_node_id": "0.0-7.0", "time_elapsed": 3136726, "key_press": 32, "type": "INSTRUCTIONS", "trial_index": 7}, "uniqueid": "MTK2371:308Q0PEVB9KXJTQ5DK73VALUWQ6I9R", "dateTime": 1517005183741}, {"current_trial": 8, "trialdata": {"rt": 8714, "trial_type": "text", "internal_node_id": "0.0-8.0", "time_elapsed": 3145942, "key_press": 32, "type": "INSTRUCTIONS", "trial_index": 8}, "uniqueid": "MTK2371:308Q0PEVB9KXJTQ5DK73VALUWQ6I9R", "dateTime": 1517005192956}, {"current_trial": 9, "trialdata": {"rt": [3352, 5618, 7213, 12034, 15461, 17333], "trial_type": "math-distractor", "key_times": [2832, 3006, 3352, 5187, 5358, 5618, 6862, 6995, 7213, 11602, 11728, 12034, 13841, 14014, 15461, 16764, 17051, 17333], "responses": ["11", "16", "16", "12", "11", "17"], "num2": [3, 5, 8, 4, 6, 7, 3], "num3": [4, 3, 6, 7, 2, 1, 1], "conditions": [18, 1200, "v", 18000], "internal_node_id": "0.0-9.0", "key_presses": [97, 97, 13, 97, 102, 13, 97, 102, 13, 97, 98, 13, 97, 97, 13, 97, 103, 13], "trial": 0, "time_elapsed": 3164946, "type": "DISTRACTOR", "trial_index": 9, "num1": [4, 8, 2, 1, 3, 9, 5]}, "uniqueid": "MTK2371:308Q0PEVB9KXJTQ5DK73VALUWQ6I9R", "dateTime": 1517005211960}, {"current_trial": 10, "trialdata": {"rt": -1, "trial_type": "single-stim", "stimulus": "<p id=\"stim\">10</p>", "internal_node_id": "0.0-10.0-0.0", "time_elapsed": 3167947, "key_press": -1, "trial_index": 10}, "uniqueid": "MTK2371:308Q0PEVB9KXJTQ5DK73VALUWQ6I9R", "dateTime": 1517005214961}, {"current_trial": 11, "trialdata": {"rt": -1, "trial_type": "single-stim", "stimulus": "<p id=\"stim\">9</p>", "internal_node_id": "0.0-10.0-1.0", "time_elapsed": 3168947, "key_press": -1, "trial_index": 11}, "uniqueid": "MTK2371:308Q0PEVB9KXJTQ5DK73VALUWQ6I9R", "dateTime": 1517005215962}, {"current_trial": 12, "trialdata": {"rt": -1, "trial_type": "single-stim", "stimulus": "<p id=\"stim\">8</p>", "internal_node_id": "0.0-10.0-2.0", "time_elapsed": 3169949, "key_press": -1, "trial_index": 12}, "uniqueid": "MTK2371:308Q0PEVB9KXJTQ5DK73VALUWQ6I9R", "dateTime": 1517005216963}, {"current_trial": 13, "trialdata": {"rt": -1, "trial_type": "single-stim", "stimulus": "<p id=\"stim\">7</p>", "internal_node_id": "0.0-10.0-3.0", "time_elapsed": 3170949, "key_press": -1, "trial_index": 13}, "uniqueid": "MTK2371:308Q0PEVB9KXJTQ5DK73VALUWQ6I9R", "dateTime": 1517005217964}, {"current_trial": 14, "trialdata": {"rt": -1, "trial_type": "single-stim", "stimulus": "<p id=\"stim\">6</p>", "internal_node_id": "0.0-10.0-4.0", "time_elapsed": 3171950, "key_press": -1, "trial_index": 14}, "uniqueid": "MTK2371:308Q0PEVB9KXJTQ5DK73VALUWQ6I9R", "dateTime": 1517005218964}, {"current_trial": 15, "trialdata": {"rt": -1, "trial_type": "single-stim", "stimulus": "<p id=\"stim\">5</p>", "internal_node_id": "0.0-10.0-5.0", "time_elapsed": 3172950, "key_press": -1, "trial_index": 15}, "uniqueid": "MTK2371:308Q0PEVB9KXJTQ5DK73VALUWQ6I9R", "dateTime": 1517005219964}, {"current_trial": 16, "trialdata": {"rt": -1, "trial_type": "single-stim", "stimulus": "<p id=\"stim\">4</p>", "internal_node_id": "0.0-10.0-6.0", "time_elapsed": 3173953, "key_press": -1, "trial_index": 16}, "uniqueid": "MTK2371:308Q0PEVB9KXJTQ5DK73VALUWQ6I9R", "dateTime": 1517005220967}, {"current_trial": 17, "trialdata": {"rt": -1, "trial_type": "single-stim", "stimulus": "<p id=\"stim\">3</p>", "internal_node_id": "0.0-10.0-7.0", "time_elapsed": 3174953, "key_press": -1, "trial_index": 17}, "uniqueid": "MTK2371:308Q0PEVB9KXJTQ5DK73VALUWQ6I9R", "dateTime": 1517005221968}, {"current_trial": 18, "trialdata": {"rt": -1, "trial_type": "single-stim", "stimulus": "<p id=\"stim\">2</p>", "internal_node_id": "0.0-10.0-8.0", "time_elapsed": 3175954, "key_press": -1, "trial_index": 18}, "uniqueid": "MTK2371:308Q0PEVB9KXJTQ5DK73VALUWQ6I9R", "dateTime": 1517005222968}, {"current_trial": 19, "trialdata": {"rt": -1, "trial_type": "single-stim", "stimulus": "<p id=\"stim\">1</p>", "internal_node_id": "0.0-10.0-9.0", "time_elapsed": 3176954, "key_press": -1, "trial_index": 19}, "uniqueid": "MTK2371:308Q0PEVB9KXJTQ5DK73VALUWQ6I9R", "dateTime": 1517005223969}, {"current_trial": 20, "trialdata": {"rt": -1, "trial_type": "single-stim", "stimulus": "<p id=\"stim\">+</p>", "internal_node_id": "0.0-11.0-0.0", "time_elapsed": 3178455, "key_press": -1, "type": "FIXATION", "trial_index": 20}, "uniqueid": "MTK2371:308Q0PEVB9KXJTQ5DK73VALUWQ6I9R", "dateTime": 1517005225469}, {"current_trial": 21, "trialdata": {"rt": -1, "trial_type": "single-stim", "word": "elbow", "stimulus": "<p id=\"stim\">ELBOW</p>", "conditions": [18, 1200, "v", 18000], "internal_node_id": "0.0-12.0", "trial": 0, "time_elapsed": 3179656, "serialpos": 0, "key_press": -1, "wordID": 519, "type": "PRES_VIS", "trial_index": 21}, "uniqueid": "MTK2371:308Q0PEVB9KXJTQ5DK73VALUWQ6I9R", "dateTime": 1517005226670}, {"current_trial": 22, "trialdata": {"rt": -1, "trial_type": "single-stim", "word": "sponge", "stimulus": "<p id=\"stim\">SPONGE</p>", "conditions": [18, 1200, "v", 18000], "internal_node_id": "0.0-13.0", "trial": 0, "time_elapsed": 3181909, "serialpos": 1, "key_press": -1, "wordID": 1354, "type": "PRES_VIS", "trial_index": 22}, "uniqueid": "MTK2371:308Q0PEVB9KXJTQ5DK73VALUWQ6I9R", "dateTime": 1517005228923}, {"current_trial": 23, "trialdata": {"rt": -1, "trial_type": "single-stim", "word": "contract", "stimulus": "<p id=\"stim\">CONTRACT</p>", "conditions": [18, 1200, "v", 18000], "internal_node_id": "0.0-14.0", "trial": 0, "time_elapsed": 3184163, "serialpos": 2, "key_press": -1, "wordID": 367, "type": "PRES_VIS", "trial_index": 23}, "uniqueid": "MTK2371:308Q0PEVB9KXJTQ5DK73VALUWQ6I9R", "dateTime": 1517005231177}, {"current_trial": 24, "trialdata": {"rt": -1, "trial_type": "single-stim", "word": "hook", "stimulus": "<p id=\"stim\">HOOK</p>", "conditions": [18, 1200, "v", 18000], "internal_node_id": "0.0-15.0", "trial": 0, "time_elapsed": 3186481, "serialpos": 3, "key_press": -1, "wordID": 714, "type": "PRES_VIS", "trial_index": 24}, "uniqueid": "MTK2371:308Q0PEVB9KXJTQ5DK73VALUWQ6I9R", "dateTime": 1517005233495}, {"current_trial": 25, "trialdata": {"rt": -1, "trial_type": "single-stim", "word": "champagne", "stimulus": "<p id=\"stim\">CHAMPAGNE</p>", "conditions": [18, 1200, "v", 18000], "internal_node_id": "0.0-16.0", "trial": 0, "time_elapsed": 3188799, "serialpos": 4, "key_press": -1, "wordID": 277, "type": "PRES_VIS", "trial_index": 25}, "uniqueid": "MTK2371:308Q0PEVB9KXJTQ5DK73VALUWQ6I9R", "dateTime": 1517005235813}, {"current_trial": 26, "trialdata": {"rt": -1, "trial_type": "single-stim", "word": "mildew", "stimulus": "<p id=\"stim\">MILDEW</p>", "conditions": [18, 1200, "v", 18000], "internal_node_id": "0.0-17.0", "trial": 0, "time_elapsed": 3190816, "serialpos": 5, "key_press": -1, "wordID": 892, "type": "PRES_VIS", "trial_index": 26}, "uniqueid": "MTK2371:308Q0PEVB9KXJTQ5DK73VALUWQ6I9R", "dateTime": 1517005237830}, {"current_trial": 27, "trialdata": {"rt": -1, "trial_type": "single-stim", "word": "journal", "stimulus": "<p id=\"stim\">JOURNAL</p>", "conditions": [18, 1200, "v", 18000], "internal_node_id": "0.0-18.0", "trial": 0, "time_elapsed": 3193105, "serialpos": 6, "key_press": -1, "wordID": 759, "type": "PRES_VIS", "trial_index": 27}, "uniqueid": "MTK2371:308Q0PEVB9KXJTQ5DK73VALUWQ6I9R", "dateTime": 1517005240119}, {"current_trial": 28, "trialdata": {"rt": -1, "trial_type": "single-stim", "word": "shelf", "stimulus": "<p id=\"stim\">SHELF</p>", "conditions": [18, 1200, "v", 18000], "internal_node_id": "0.0-19.0", "trial": 0, "time_elapsed": 3195380, "serialpos": 7, "key_press": -1, "wordID": 1279, "type": "PRES_VIS", "trial_index": 28}, "uniqueid": "MTK2371:308Q0PEVB9KXJTQ5DK73VALUWQ6I9R", "dateTime": 1517005242394}, {"current_trial": 29, "trialdata": {"rt": -1, "trial_type": "single-stim", "word": "rocket", "stimulus": "<p id=\"stim\">ROCKET</p>", "conditions": [18, 1200, "v", 18000], "internal_node_id": "0.0-20.0", "trial": 0, "time_elapsed": 3197509, "serialpos": 8, "key_press": -1, "wordID": 1201, "type": "PRES_VIS", "trial_index": 29}, "uniqueid": "MTK2371:308Q0PEVB9KXJTQ5DK73VALUWQ6I9R", "dateTime": 1517005244523}, {"current_trial": 30, "trialdata": {"rt": -1, "trial_type": "single-stim", "word": "tourist", "stimulus": "<p id=\"stim\">TOURIST</p>", "conditions": [18, 1200, "v", 18000], "internal_node_id": "0.0-21.0", "trial": 0, "time_elapsed": 3199523, "serialpos": 9, "key_press": -1, "wordID": 1487, "type": "PRES_VIS", "trial_index": 30}, "uniqueid": "MTK2371:308Q0PEVB9KXJTQ5DK73VALUWQ6I9R", "dateTime": 1517005246537}, {"current_trial": 31, "trialdata": {"rt": -1, "trial_type": "single-stim", "word": "sibling", "stimulus": "<p id=\"stim\">SIBLING</p>", "conditions": [18, 1200, "v", 18000], "internal_node_id": "0.0-22.0", "trial": 0, "time_elapsed": 3201908, "serialpos": 10, "key_press": -1, "wordID": 1300, "type": "PRES_VIS", "trial_index": 31}, "uniqueid": "MTK2371:308Q0PEVB9KXJTQ5DK73VALUWQ6I9R", "dateTime": 1517005248922}, {"current_trial": 32, "trialdata": {"rt": -1, "trial_type": "single-stim", "word": "dentist", "stimulus": "<p id=\"stim\">DENTIST</p>", "conditions": [18, 1200, "v", 18000], "internal_node_id": "0.0-23.0", "trial": 0, "time_elapsed": 3203990, "serialpos": 11, "key_press": -1, "wordID": 446, "type": "PRES_VIS", "trial_index": 32}, "uniqueid": "MTK2371:308Q0PEVB9KXJTQ5DK73VALUWQ6I9R", "dateTime": 1517005251004}, {"current_trial": 33, "trialdata": {"rt": -1, "trial_type": "single-stim", "word": "rebel", "stimulus": "<p id=\"stim\">REBEL</p>", "conditions": [18, 1200, "v", 18000], "internal_node_id": "0.0-24.0", "trial": 0, "time_elapsed": 3206150, "serialpos": 12, "key_press": -1, "wordID": 1171, "type": "PRES_VIS", "trial_index": 33}, "uniqueid": "MTK2371:308Q0PEVB9KXJTQ5DK73VALUWQ6I9R", "dateTime": 1517005253164}, {"current_trial": 34, "trialdata": {"rt": -1, "trial_type": "single-stim", "word": "chapel", "stimulus": "<p id=\"stim\">CHAPEL</p>", "conditions": [18, 1200, "v", 18000], "internal_node_id": "0.0-25.0", "trial": 0, "time_elapsed": 3208456, "serialpos": 13, "key_press": -1, "wordID": 279, "type": "PRES_VIS", "trial_index": 34}, "uniqueid": "MTK2371:308Q0PEVB9KXJTQ5DK73VALUWQ6I9R", "dateTime": 1517005255470}, {"current_trial": 35, "trialdata": {"rt": -1, "trial_type": "single-stim", "word": "partner", "stimulus": "<p id=\"stim\">PARTNER</p>", "conditions": [18, 1200, "v", 18000], "internal_node_id": "0.0-26.0", "trial": 0, "time_elapsed": 3210614, "serialpos": 14, "key_press": -1, "wordID": 1016, "type": "PRES_VIS", "trial_index": 35}, "uniqueid": "MTK2371:308Q0PEVB9KXJTQ5DK73VALUWQ6I9R", "dateTime": 1517005257628}, {"current_trial": 36, "trialdata": {"rt": -1, "trial_type": "single-stim", "word": "racket", "stimulus": "<p id=\"stim\">RACKET</p>", "conditions": [18, 1200, "v", 18000], "internal_node_id": "0.0-27.0", "trial": 0, "time_elapsed": 3212853, "serialpos": 15, "key_press": -1, "wordID": 1154, "type": "PRES_VIS", "trial_index": 36}, "uniqueid": "MTK2371:308Q0PEVB9KXJTQ5DK73VALUWQ6I9R", "dateTime": 1517005259867}, {"current_trial": 37, "trialdata": {"rt": -1, "trial_type": "single-stim", "word": "fungus", "stimulus": "<p id=\"stim\">FUNGUS</p>", "conditions": [18, 1200, "v", 18000], "internal_node_id": "0.0-28.0", "trial": 0, "time_elapsed": 3214883, "serialpos": 16, "key_press": -1, "wordID": 613, "type": "PRES_VIS", "trial_index": 37}, "uniqueid": "MTK2371:308Q0PEVB9KXJTQ5DK73VALUWQ6I9R", "dateTime": 1517005261897}, {"current_trial": 38, "trialdata": {"rt": -1, "trial_type": "single-stim", "word": "preacher", "stimulus": "<p id=\"stim\">PREACHER</p>", "conditions": [18, 1200, "v", 18000], "internal_node_id": "0.0-29.0", "trial": 0, "time_elapsed": 3217137, "serialpos": 17, "key_press": -1, "wordID": 1118, "type": "PRES_VIS", "trial_index": 38}, "uniqueid": "MTK2371:308Q0PEVB9KXJTQ5DK73VALUWQ6I9R", "dateTime": 1517005264152}, {"current_trial": 39, "trialdata": {"rt": -1, "trial_type": "single-stim", "stimulus": "", "internal_node_id": "0.0-30.0-0.0", "time_elapsed": 3219213, "key_press": -1, "type": "PRE_RECALL_DELAY", "trial_index": 39}, "uniqueid": "MTK2371:308Q0PEVB9KXJTQ5DK73VALUWQ6I9R", "dateTime": 1517005266227}, {"current_trial": 40, "trialdata": {"rt": -1000, "trial_type": "single-audio", "stimulus": "/static/audio/400Hz.wav", "internal_node_id": "0.0-31.0", "time_elapsed": 3219715, "key_press": -1, "type": "PRE_RECALL_ALERT", "trial_index": 40}, "uniqueid": "MTK2371:308Q0PEVB9KXJTQ5DK73VALUWQ6I9R", "dateTime": 1517005266729}, {"current_trial": 41, "trialdata": {"rt": [10541, 11806, 13069, 14460, 15327, 16125, 20923, 21843, 45683], "recwords": ["rebel", "elbo", "chapel", "shelf", "parnter", "racket", "preacher", "fungus", "partner"], "key_times": [9429, 9562, 9670, 9892, 10035, 10168, 10541, 11227, 11360, 11469, 11583, 11806, 12147, 12290, 12429, 12599, 12721, 12849, 13069, 14013, 14104, 14200, 14306, 14375, 14460, 14673, 14785, 14859, 14997, 15077, 15215, 15290, 15327, 15518, 15620, 15737, 15811, 15885, 15981, 16125, 19876, 19965, 20034, 20125, 20242, 20310, 20386, 20449, 20923, 21157, 21242, 21443, 21485, 21609, 21709, 21843, 43520, 43615, 43727, 43880, 43987, 44094, 44179, 45683], "trial_type": "free-recall", "conditions": [18, 1200, "v", 18000], "internal_node_id": "0.0-32.0-0.0", "key_presses": [16, 82, 69, 66, 69, 76, 13, 69, 76, 66, 79, 13, 67, 72, 65, 80, 69, 76, 13, 83, 72, 69, 76, 70, 13, 80, 65, 82, 78, 84, 69, 82, 13, 82, 65, 67, 75, 69, 84, 13, 80, 82, 69, 65, 67, 72, 69, 82, 13, 70, 85, 78, 71, 85, 83, 13, 80, 65, 82, 84, 78, 69, 82, 13], "trial": 0, "time_elapsed": 3279719, "type": "FREE_RECALL", "trial_index": 41}, "uniqueid": "MTK2371:308Q0PEVB9KXJTQ5DK73VALUWQ6I9R", "dateTime": 1517005326735}, {"current_trial": 42, "trialdata": {"rt": 3755, "trial_type": "text", "internal_node_id": "0.0-33.0", "time_elapsed": 3285477, "key_press": 32, "type": "INSTRUCTIONS", "trial_index": 42}, "uniqueid": "MTK2371:308Q0PEVB9KXJTQ5DK73VALUWQ6I9R", "dateTime": 1517005332491}, {"current_trial": 43, "trialdata": {"rt": [3272, 8778, 11548, 16680], "trial_type": "math-distractor", "key_times": [2928, 2982, 3272, 8428, 8570, 8778, 11113, 11293, 11548, 15802, 16255, 16680], "responses": ["15", "24", "20", "17"], "num2": [5, 7, 6, 3, 9], "num3": [4, 9, 8, 9, 6], "conditions": [18, 1200, "v", 18000], "internal_node_id": "0.0-34.0", "key_presses": [97, 101, 13, 98, 100, 13, 98, 96, 13, 97, 103, 13], "trial": 1, "time_elapsed": 3305479, "type": "DISTRACTOR", "trial_index": 43, "num1": [6, 8, 6, 5, 5]}, "uniqueid": "MTK2371:308Q0PEVB9KXJTQ5DK73VALUWQ6I9R", "dateTime": 1517005352493}, {"current_trial": 44, "trialdata": {"rt": -1, "trial_type": "single-stim", "stimulus": "<p id=\"stim\">10</p>", "internal_node_id": "0.0-35.0-0.0", "time_elapsed": 3308479, "key_press": -1, "trial_index": 44}, "uniqueid": "MTK2371:308Q0PEVB9KXJTQ5DK73VALUWQ6I9R", "dateTime": 1517005355493}, {"current_trial": 45, "trialdata": {"rt": -1, "trial_type": "single-stim", "stimulus": "<p id=\"stim\">9</p>", "internal_node_id": "0.0-35.0-1.0", "time_elapsed": 3309481, "key_press": -1, "trial_index": 45}, "uniqueid": "MTK2371:308Q0PEVB9KXJTQ5DK73VALUWQ6I9R", "dateTime": 1517005356495}, {"current_trial": 46, "trialdata": {"rt": -1, "trial_type": "single-stim", "stimulus": "<p id=\"stim\">8</p>", "internal_node_id": "0.0-35.0-2.0", "time_elapsed": 3310483, "key_press": -1, "trial_index": 46}, "uniqueid": "MTK2371:308Q0PEVB9KXJTQ5DK73VALUWQ6I9R", "dateTime": 1517005357497}, {"current_trial": 47, "trialdata": {"rt": -1, "trial_type": "single-stim", "stimulus": "<p id=\"stim\">7</p>", "internal_node_id": "0.0-35.0-3.0", "time_elapsed": 3311483, "key_press": -1, "trial_index": 47}, "uniqueid": "MTK2371:308Q0PEVB9KXJTQ5DK73VALUWQ6I9R", "dateTime": 1517005358498}, {"current_trial": 48, "trialdata": {"rt": -1, "trial_type": "single-stim", "stimulus": "<p id=\"stim\">6</p>", "internal_node_id": "0.0-35.0-4.0", "time_elapsed": 3312484, "key_press": -1, "trial_index": 48}, "uniqueid": "MTK2371:308Q0PEVB9KXJTQ5DK73VALUWQ6I9R", "dateTime": 1517005359498}, {"current_trial": 49, "trialdata": {"rt": -1, "trial_type": "single-stim", "stimulus": "<p id=\"stim\">5</p>", "internal_node_id": "0.0-35.0-5.0", "time_elapsed": 3313484, "key_press": -1, "trial_index": 49}, "uniqueid": "MTK2371:308Q0PEVB9KXJTQ5DK73VALUWQ6I9R", "dateTime": 1517005360498}, {"current_trial": 50, "trialdata": {"rt": -1, "trial_type": "single-stim", "stimulus": "<p id=\"stim\">4</p>", "internal_node_id": "0.0-35.0-6.0", "time_elapsed": 3314484, "key_press": -1, "trial_index": 50}, "uniqueid": "MTK2371:308Q0PEVB9KXJTQ5DK73VALUWQ6I9R", "dateTime": 1517005361499}, {"current_trial": 51, "trialdata": {"rt": -1, "trial_type": "single-stim", "stimulus": "<p id=\"stim\">3</p>", "internal_node_id": "0.0-35.0-7.0", "time_elapsed": 3315485, "key_press": -1, "trial_index": 51}, "uniqueid": "MTK2371:308Q0PEVB9KXJTQ5DK73VALUWQ6I9R", "dateTime": 1517005362499}, {"current_trial": 52, "trialdata": {"rt": -1, "trial_type": "single-stim", "stimulus": "<p id=\"stim\">2</p>", "internal_node_id": "0.0-35.0-8.0", "time_elapsed": 3316486, "key_press": -1, "trial_index": 52}, "uniqueid": "MTK2371:308Q0PEVB9KXJTQ5DK73VALUWQ6I9R", "dateTime": 1517005363501}, {"current_trial": 53, "trialdata": {"rt": -1, "trial_type": "single-stim", "stimulus": "<p id=\"stim\">1</p>", "internal_node_id": "0.0-35.0-9.0", "time_elapsed": 3317486, "key_press": -1, "trial_index": 53}, "uniqueid": "MTK2371:308Q0PEVB9KXJTQ5DK73VALUWQ6I9R", "dateTime": 1517005364500}, {"current_trial": 54, "trialdata": {"rt": -1, "trial_type": "single-stim", "stimulus": "<p id=\"stim\">+</p>", "internal_node_id": "0.0-36.0-0.0", "time_elapsed": 3318986, "key_press": -1, "type": "FIXATION", "trial_index": 54}, "uniqueid": "MTK2371:308Q0PEVB9KXJTQ5DK73VALUWQ6I9R", "dateTime": 1517005366000}, {"current_trial": 55, "trialdata": {"rt": -1, "trial_type": "single-stim", "word": "guard", "stimulus": "<p id=\"stim\">GUARD</p>", "conditions": [18, 1200, "v", 18000], "internal_node_id": "0.0-37.0", "trial": 1, "time_elapsed": 3320186, "serialpos": 0, "key_press": -1, "wordID": 666, "type": "PRES_VIS", "trial_index": 55}, "uniqueid": "MTK2371:308Q0PEVB9KXJTQ5DK73VALUWQ6I9R", "dateTime": 1517005367200}, {"current_trial": 56, "trialdata": {"rt": -1, "trial_type": "single-stim", "word": "ox", "stimulus": "<p id=\"stim\">OX</p>", "conditions": [18, 1200, "v", 18000], "internal_node_id": "0.0-38.0", "trial": 1, "time_elapsed": 3322239, "serialpos": 1, "key_press": -1, "wordID": 993, "type": "PRES_VIS", "trial_index": 56}, "uniqueid": "MTK2371:308Q0PEVB9KXJTQ5DK73VALUWQ6I9R", "dateTime": 1517005369253}, {"current_trial": 57, "trialdata": {"rt": -1, "trial_type": "single-stim", "word": "zipper", "stimulus": "<p id=\"stim\">ZIPPER</p>", "conditions": [18, 1200, "v", 18000], "internal_node_id": "0.0-39.0", "trial": 1, "time_elapsed": 3324593, "serialpos": 2, "key_press": -1, "wordID": 1635, "type": "PRES_VIS", "trial_index": 57}, "uniqueid": "MTK2371:308Q0PEVB9KXJTQ5DK73VALUWQ6I9R", "dateTime": 1517005371608}, {"current_trial": 58, "trialdata": {"rt": -1, "trial_type": "single-stim", "word": "glove", "stimulus": "<p id=\"stim\">GLOVE</p>", "conditions": [18, 1200, "v", 18000], "internal_node_id": "0.0-40.0", "trial": 1, "time_elapsed": 3326704, "serialpos": 3, "key_press": -1, "wordID": 641, "type": "PRES_VIS", "trial_index": 58}, "uniqueid": "MTK2371:308Q0PEVB9KXJTQ5DK73VALUWQ6I9R", "dateTime": 1517005373718}, {"current_trial": 59, "trialdata": {"rt": -1, "trial_type": "single-stim", "word": "body", "stimulus": "<p id=\"stim\">BODY</p>", "conditions": [18, 1200, "v", 18000], "internal_node_id": "0.0-41.0", "trial": 1, "time_elapsed": 3329074, "serialpos": 4, "key_press": -1, "wordID": 144, "type": "PRES_VIS", "trial_index": 59}, "uniqueid": "MTK2371:308Q0PEVB9KXJTQ5DK73VALUWQ6I9R", "dateTime": 1517005376088}, {"current_trial": 60, "trialdata": {"rt": -1, "trial_type": "single-stim", "word": "panther", "stimulus": "<p id=\"stim\">PANTHER</p>", "conditions": [18, 1200, "v", 18000], "internal_node_id": "0.0-42.0", "trial": 1, "time_elapsed": 3331322, "serialpos": 5, "key_press": -1, "wordID": 1008, "type": "PRES_VIS", "trial_index": 60}, "uniqueid": "MTK2371:308Q0PEVB9KXJTQ5DK73VALUWQ6I9R", "dateTime": 1517005378336}, {"current_trial": 61, "trialdata": {"rt": -1, "trial_type": "single-stim", "word": "gift", "stimulus": "<p id=\"stim\">GIFT</p>", "conditions": [18, 1200, "v", 18000], "internal_node_id": "0.0-43.0", "trial": 1, "time_elapsed": 3333402, "serialpos": 6, "key_press": -1, "wordID": 634, "type": "PRES_VIS", "trial_index": 61}, "uniqueid": "MTK2371:308Q0PEVB9KXJTQ5DK73VALUWQ6I9R", "dateTime": 1517005380416}, {"current_trial": 62, "trialdata": {"rt": -1, "trial_type": "single-stim", "word": "leopard", "stimulus": "<p id=\"stim\">LEOPARD</p>", "conditions": [18, 1200, "v", 18000], "internal_node_id": "0.0-44.0", "trial": 1, "time_elapsed": 3335744, "serialpos": 7, "key_press": -1, "wordID": 811, "type": "PRES_VIS", "trial_index": 62}, "uniqueid": "MTK2371:308Q0PEVB9KXJTQ5DK73VALUWQ6I9R", "dateTime": 1517005382758}, {"current_trial": 63, "trialdata": {"rt": -1, "trial_type": "single-stim", "word": "sphinx", "stimulus": "<p id=\"stim\">SPHINX</p>", "conditions": [18, 1200, "v", 18000], "internal_node_id": "0.0-45.0", "trial": 1, "time_elapsed": 3337861, "serialpos": 8, "key_press": -1, "wordID": 1348, "type": "PRES_VIS", "trial_index": 63}, "uniqueid": "MTK2371:308Q0PEVB9KXJTQ5DK73VALUWQ6I9R", "dateTime": 1517005384876}, {"current_trial": 64, "trialdata": {"rt": -1, "trial_type": "single-stim", "word": "wrench", "stimulus": "<p id=\"stim\">WRENCH</p>", "conditions": [18, 1200, "v", 18000], "internal_node_id": "0.0-46.0", "trial": 1, "time_elapsed": 3339862, "serialpos": 9, "key_press": -1, "wordID": 1624, "type": "PRES_VIS", "trial_index": 64}, "uniqueid": "MTK2371:308Q0PEVB9KXJTQ5DK73VALUWQ6I9R", "dateTime": 1517005386877}, {"current_trial": 65, "trialdata": {"rt": -1, "trial_type": "single-stim", "word": "drug", "stimulus": "<p id=\"stim\">DRUG</p>", "conditions": [18, 1200, "v", 18000], "internal_node_id": "0.0-47.0", "trial": 1, "time_elapsed": 3342085, "serialpos": 10, "key_press": -1, "wordID": 500, "type": "PRES_VIS", "trial_index": 65}, "uniqueid": "MTK2371:308Q0PEVB9KXJTQ5DK73VALUWQ6I9R", "dateTime": 1517005389099}, {"current_trial": 66, "trialdata": {"rt": -1, "trial_type": "single-stim", "word": "crown", "stimulus": "<p id=\"stim\">CROWN</p>", "conditions": [18, 1200, "v", 18000], "internal_node_id": "0.0-48.0", "trial": 1, "time_elapsed": 3344376, "serialpos": 11, "key_press": -1, "wordID": 414, "type": "PRES_VIS", "trial_index": 66}, "uniqueid": "MTK2371:308Q0PEVB9KXJTQ5DK73VALUWQ6I9R", "dateTime": 1517005391390}, {"current_trial": 67, "trialdata": {"rt": -1, "trial_type": "single-stim", "word": "ghetto", "stimulus": "<p id=\"stim\">GHETTO</p>", "conditions": [18, 1200, "v", 18000], "internal_node_id": "0.0-49.0", "trial": 1, "time_elapsed": 3346378, "serialpos": 12, "key_press": -1, "wordID": 632, "type": "PRES_VIS", "trial_index": 67}, "uniqueid": "MTK2371:308Q0PEVB9KXJTQ5DK73VALUWQ6I9R", "dateTime": 1517005393392}, {"current_trial": 68, "trialdata": {"rt": -1, "trial_type": "single-stim", "word": "tortoise", "stimulus": "<p id=\"stim\">TORTOISE</p>", "conditions": [18, 1200, "v", 18000], "internal_node_id": "0.0-50.0", "trial": 1, "time_elapsed": 3348512, "serialpos": 13, "key_press": -1, "wordID": 1485, "type": "PRES_VIS", "trial_index": 68}, "uniqueid": "MTK2371:308Q0PEVB9KXJTQ5DK73VALUWQ6I9R", "dateTime": 1517005395528}, {"current_trial": 69, "trialdata": {"rt": -1, "trial_type": "single-stim", "word": "lipstick", "stimulus": "<p id=\"stim\">LIPSTICK</p>", "conditions": [18, 1200, "v", 18000], "internal_node_id": "0.0-51.0", "trial": 1, "time_elapsed": 3350741, "serialpos": 14, "key_press": -1, "wordID": 828, "type": "PRES_VIS", "trial_index": 69}, "uniqueid": "MTK2371:308Q0PEVB9KXJTQ5DK73VALUWQ6I9R", "dateTime": 1517005397755}, {"current_trial": 70, "trialdata": {"rt": -1, "trial_type": "single-stim", "word": "lizard", "stimulus": "<p id=\"stim\">LIZARD</p>", "conditions": [18, 1200, "v", 18000], "internal_node_id": "0.0-52.0", "trial": 1, "time_elapsed": 3352804, "serialpos": 15, "key_press": -1, "wordID": 833, "type": "PRES_VIS", "trial_index": 70}, "uniqueid": "MTK2371:308Q0PEVB9KXJTQ5DK73VALUWQ6I9R", "dateTime": 1517005399818}, {"current_trial": 71, "trialdata": {"rt": -1, "trial_type": "single-stim", "word": "mars", "stimulus": "<p id=\"stim\">MARS</p>", "conditions": [18, 1200, "v", 18000], "internal_node_id": "0.0-53.0", "trial": 1, "time_elapsed": 3354963, "serialpos": 16, "key_press": -1, "wordID": 872, "type": "PRES_VIS", "trial_index": 71}, "uniqueid": "MTK2371:308Q0PEVB9KXJTQ5DK73VALUWQ6I9R", "dateTime": 1517005401977}, {"current_trial": 72, "trialdata": {"rt": -1, "trial_type": "single-stim", "word": "suitcase", "stimulus": "<p id=\"stim\">SUITCASE</p>", "conditions": [18, 1200, "v", 18000], "internal_node_id": "0.0-54.0", "trial": 1, "time_elapsed": 3357341, "serialpos": 17, "key_press": -1, "wordID": 1402, "type": "PRES_VIS", "trial_index": 72}, "uniqueid": "MTK2371:308Q0PEVB9KXJTQ5DK73VALUWQ6I9R", "dateTime": 1517005404356}, {"current_trial": 73, "trialdata": {"rt": -1, "trial_type": "single-stim", "stimulus": "", "internal_node_id": "0.0-55.0-0.0", "time_elapsed": 3359497, "key_press": -1, "type": "PRE_RECALL_DELAY", "trial_index": 73}, "uniqueid": "MTK2371:308Q0PEVB9KXJTQ5DK73VALUWQ6I9R", "dateTime": 1517005406511}, {"current_trial": 74, "trialdata": {"rt": -1000, "trial_type": "single-audio", "stimulus": "/static/audio/400Hz.wav", "internal_node_id": "0.0-56.0", "time_elapsed": 3359997, "key_press": -1, "type": "PRE_RECALL_ALERT", "trial_index": 74}, "uniqueid": "MTK2371:308Q0PEVB9KXJTQ5DK73VALUWQ6I9R", "dateTime": 1517005407011}, {"current_trial": 75, "trialdata": {"rt": [2525, 3212, 4333, 11167, 14926, 15495, 17252, 23320, 26574, 28297, 30558, 38076], "recwords": ["lizard", "mars", "suitcase", "guard", "zipper", "ox", "glove", "panther", "leopard", "sphinx", "wrench", "ghetto"], "key_times": [1529, 1721, 1898, 2111, 2211, 2355, 2525, 2748, 2812, 2861, 2998, 3212, 3354, 3466, 3583, 3695, 3913, 3967, 4105, 4185, 4333, 9990, 10129, 10209, 10396, 10725, 10799, 10900, 11167, 14283, 14411, 14548, 14687, 14790, 14862, 14926, 15187, 15294, 15495, 16368, 16479, 16659, 16755, 16965, 17252, 21566, 21698, 21852, 21937, 22091, 22224, 22293, 23320, 25462, 25543, 25765, 26032, 26190, 26297, 26462, 26574, 27595, 27695, 27787, 27904, 28032, 28164, 28297, 29562, 29749, 29817, 30009, 30206, 30313, 30558, 36109, 36290, 36444, 36860, 37023, 37152, 37273, 37417, 37492, 37555, 37720, 37822, 38076], "trial_type": "free-recall", "conditions": [18, 1200, "v", 18000], "internal_node_id": "0.0-57.0-0.0", "key_presses": [76, 73, 90, 65, 82, 68, 13, 77, 65, 82, 83, 13, 83, 85, 73, 84, 67, 65, 83, 69, 13, 71, 85, 65, 68, 8, 82, 68, 13, 90, 73, 80, 80, 69, 82, 13, 79, 88, 13, 71, 76, 79, 86, 69, 13, 80, 65, 78, 84, 72, 69, 82, 13, 76, 69, 79, 80, 65, 82, 68, 13, 83, 80, 72, 73, 78, 88, 13, 87, 82, 69, 78, 67, 72, 13, 83, 72, 69, 8, 8, 8, 71, 72, 69, 84, 84, 79, 13], "trial": 1, "time_elapsed": 3419999, "type": "FREE_RECALL", "trial_index": 75}, "uniqueid": "MTK2371:308Q0PEVB9KXJTQ5DK73VALUWQ6I9R", "dateTime": 1517005467016}, {"current_trial": 76, "trialdata": {"rt": 2929, "trial_type": "text", "internal_node_id": "0.0-58.0", "time_elapsed": 3424932, "key_press": 32, "type": "INSTRUCTIONS", "trial_index": 76}, "uniqueid": "MTK2371:308Q0PEVB9KXJTQ5DK73VALUWQ6I9R", "dateTime": 1517005471946}, {"current_trial": 77, "trialdata": {"rt": [2454, 4086, 5795, 7518, 9129, 10251, 12165, 13936, 16099, 18631, 21363, 23012], "trial_type": "math-distractor", "key_times": [2071, 2188, 2454, 3709, 3868, 4086, 5613, 5795, 7151, 7369, 7518, 8873, 9129, 10076, 10251, 11659, 11898, 12165, 13552, 13722, 13936, 15530, 16099, 18327, 18631, 21050, 21231, 21363, 22694, 22811, 23012], "responses": ["19", "11", "7", "17", "7", "7", "10", "12", "8", "6", "11", "12"], "num2": [9, 3, 1, 6, 5, 3, 2, 6, 1, 1, 4, 2, 3], "num3": [1, 7, 4, 4, 1, 1, 2, 1, 5, 1, 3, 9, 9], "conditions": [12, 1600, "v", 24000], "internal_node_id": "0.0-59.0", "key_presses": [97, 105, 13, 97, 97, 13, 103, 13, 97, 103, 13, 103, 13, 103, 13, 97, 96, 13, 97, 98, 13, 104, 13, 102, 13, 97, 97, 13, 97, 98, 13], "trial": 2, "time_elapsed": 3449933, "type": "DISTRACTOR", "trial_index": 77, "num1": [9, 1, 2, 7, 1, 3, 6, 5, 2, 4, 4, 1, 7]}, "uniqueid": "MTK2371:308Q0PEVB9KXJTQ5DK73VALUWQ6I9R", "dateTime": 1517005496947}, {"current_trial": 78, "trialdata": {"rt": -1, "trial_type": "single-stim", "stimulus": "<p id=\"stim\">10</p>", "internal_node_id": "0.0-60.0-0.0", "time_elapsed": 3452933, "key_press": -1, "trial_index": 78}, "uniqueid": "MTK2371:308Q0PEVB9KXJTQ5DK73VALUWQ6I9R", "dateTime": 1517005499947}, {"current_trial": 79, "trialdata": {"rt": -1, "trial_type": "single-stim", "stimulus": "<p id=\"stim\">9</p>", "internal_node_id": "0.0-60.0-1.0", "time_elapsed": 3453933, "key_press": -1, "trial_index": 79}, "uniqueid": "MTK2371:308Q0PEVB9KXJTQ5DK73VALUWQ6I9R", "dateTime": 1517005500947}, {"current_trial": 80, "trialdata": {"rt": -1, "trial_type": "single-stim", "stimulus": "<p id=\"stim\">8</p>", "internal_node_id": "0.0-60.0-2.0", "time_elapsed": 3454933, "key_press": -1, "trial_index": 80}, "uniqueid": "MTK2371:308Q0PEVB9KXJTQ5DK73VALUWQ6I9R", "dateTime": 1517005501947}, {"current_trial": 81, "trialdata": {"rt": -1, "trial_type": "single-stim", "stimulus": "<p id=\"stim\">7</p>", "internal_node_id": "0.0-60.0-3.0", "time_elapsed": 3455933, "key_press": -1, "trial_index": 81}, "uniqueid": "MTK2371:308Q0PEVB9KXJTQ5DK73VALUWQ6I9R", "dateTime": 1517005502947}, {"current_trial": 82, "trialdata": {"rt": -1, "trial_type": "single-stim", "stimulus": "<p id=\"stim\">6</p>", "internal_node_id": "0.0-60.0-4.0", "time_elapsed": 3456933, "key_press": -1, "trial_index": 82}, "uniqueid": "MTK2371:308Q0PEVB9KXJTQ5DK73VALUWQ6I9R", "dateTime": 1517005503947}, {"current_trial": 83, "trialdata": {"rt": -1, "trial_type": "single-stim", "stimulus": "<p id=\"stim\">5</p>", "internal_node_id": "0.0-60.0-5.0", "time_elapsed": 3457933, "key_press": -1, "trial_index": 83}, "uniqueid": "MTK2371:308Q0PEVB9KXJTQ5DK73VALUWQ6I9R", "dateTime": 1517005504947}, {"current_trial": 84, "trialdata": {"rt": -1, "trial_type": "single-stim", "stimulus": "<p id=\"stim\">4</p>", "internal_node_id": "0.0-60.0-6.0", "time_elapsed": 3458933, "key_press": -1, "trial_index": 84}, "uniqueid": "MTK2371:308Q0PEVB9KXJTQ5DK73VALUWQ6I9R", "dateTime": 1517005505947}, {"current_trial": 85, "trialdata": {"rt": -1, "trial_type": "single-stim", "stimulus": "<p id=\"stim\">3</p>", "internal_node_id": "0.0-60.0-7.0", "time_elapsed": 3459934, "key_press": -1, "trial_index": 85}, "uniqueid": "MTK2371:308Q0PEVB9KXJTQ5DK73VALUWQ6I9R", "dateTime": 1517005506948}, {"current_trial": 86, "trialdata": {"rt": -1, "trial_type": "single-stim", "stimulus": "<p id=\"stim\">2</p>", "internal_node_id": "0.0-60.0-8.0", "time_elapsed": 3460935, "key_press": -1, "trial_index": 86}, "uniqueid": "MTK2371:308Q0PEVB9KXJTQ5DK73VALUWQ6I9R", "dateTime": 1517005507949}, {"current_trial": 87, "trialdata": {"rt": -1, "trial_type": "single-stim", "stimulus": "<p id=\"stim\">1</p>", "internal_node_id": "0.0-60.0-9.0", "time_elapsed": 3461935, "key_press": -1, "trial_index": 87}, "uniqueid": "MTK2371:308Q0PEVB9KXJTQ5DK73VALUWQ6I9R", "dateTime": 1517005508949}, {"current_trial": 88, "trialdata": {"rt": -1, "trial_type": "single-stim", "stimulus": "<p id=\"stim\">+</p>", "internal_node_id": "0.0-61.0-0.0", "time_elapsed": 3463436, "key_press": -1, "type": "FIXATION", "trial_index": 88}, "uniqueid": "MTK2371:308Q0PEVB9KXJTQ5DK73VALUWQ6I9R", "dateTime": 1517005510450}, {"current_trial": 89, "trialdata": {"rt": -1, "trial_type": "single-stim", "word": "world", "stimulus": "<p id=\"stim\">WORLD</p>", "conditions": [12, 1600, "v", 24000], "internal_node_id": "0.0-62.0", "trial": 2, "time_elapsed": 3465037, "serialpos": 0, "key_press": -1, "wordID": 1621, "type": "PRES_VIS", "trial_index": 89}, "uniqueid": "MTK2371:308Q0PEVB9KXJTQ5DK73VALUWQ6I9R", "dateTime": 1517005512051}, {"current_trial": 90, "trialdata": {"rt": -1, "trial_type": "single-stim", "word": "tribe", "stimulus": "<p id=\"stim\">TRIBE</p>", "conditions": [12, 1600, "v", 24000], "internal_node_id": "0.0-63.0", "trial": 2, "time_elapsed": 3467535, "serialpos": 1, "key_press": -1, "wordID": 1504, "type": "PRES_VIS", "trial_index": 90}, "uniqueid": "MTK2371:308Q0PEVB9KXJTQ5DK73VALUWQ6I9R", "dateTime": 1517005514550}, {"current_trial": 91, "trialdata": {"rt": -1, "trial_type": "single-stim", "word": "dolphin", "stimulus": "<p id=\"stim\">DOLPHIN</p>", "conditions": [12, 1600, "v", 24000], "internal_node_id": "0.0-64.0", "trial": 2, "time_elapsed": 3470333, "serialpos": 2, "key_press": -1, "wordID": 482, "type": "PRES_VIS", "trial_index": 91}, "uniqueid": "MTK2371:308Q0PEVB9KXJTQ5DK73VALUWQ6I9R", "dateTime": 1517005517347}, {"current_trial": 92, "trialdata": {"rt": -1, "trial_type": "single-stim", "word": "salad", "stimulus": "<p id=\"stim\">SALAD</p>", "conditions": [12, 1600, "v", 24000], "internal_node_id": "0.0-65.0", "trial": 2, "time_elapsed": 3472804, "serialpos": 3, "key_press": -1, "wordID": 1223, "type": "PRES_VIS", "trial_index": 92}, "uniqueid": "MTK2371:308Q0PEVB9KXJTQ5DK73VALUWQ6I9R", "dateTime": 1517005519818}, {"current_trial": 93, "trialdata": {"rt": -1, "trial_type": "single-stim", "word": "chest", "stimulus": "<p id=\"stim\">CHEST</p>", "conditions": [12, 1600, "v", 24000], "internal_node_id": "0.0-66.0", "trial": 2, "time_elapsed": 3475354, "serialpos": 4, "key_press": -1, "wordID": 294, "type": "PRES_VIS", "trial_index": 93}, "uniqueid": "MTK2371:308Q0PEVB9KXJTQ5DK73VALUWQ6I9R", "dateTime": 1517005522368}, {"current_trial": 94, "trialdata": {"rt": -1, "trial_type": "single-stim", "word": "forehead", "stimulus": "<p id=\"stim\">FOREHEAD</p>", "conditions": [12, 1600, "v", 24000], "internal_node_id": "0.0-67.0", "trial": 2, "time_elapsed": 3477985, "serialpos": 5, "key_press": -1, "wordID": 591, "type": "PRES_VIS", "trial_index": 94}, "uniqueid": "MTK2371:308Q0PEVB9KXJTQ5DK73VALUWQ6I9R", "dateTime": 1517005524999}, {"current_trial": 95, "trialdata": {"rt": -1, "trial_type": "single-stim", "word": "girl", "stimulus": "<p id=\"stim\">GIRL</p>", "conditions": [12, 1600, "v", 24000], "internal_node_id": "0.0-68.0", "trial": 2, "time_elapsed": 3480547, "serialpos": 6, "key_press": -1, "wordID": 636, "type": "PRES_VIS", "trial_index": 95}, "uniqueid": "MTK2371:308Q0PEVB9KXJTQ5DK73VALUWQ6I9R", "dateTime": 1517005527562}, {"current_trial": 96, "trialdata": {"rt": -1, "trial_type": "single-stim", "word": "pigeon", "stimulus": "<p id=\"stim\">PIGEON</p>", "conditions": [12, 1600, "v", 24000], "internal_node_id": "0.0-69.0", "trial": 2, "time_elapsed": 3483345, "serialpos": 7, "key_press": -1, "wordID": 1064, "type": "PRES_VIS", "trial_index": 96}, "uniqueid": "MTK2371:308Q0PEVB9KXJTQ5DK73VALUWQ6I9R", "dateTime": 1517005530359}, {"current_trial": 97, "trialdata": {"rt": -1, "trial_type": "single-stim", "word": "france", "stimulus": "<p id=\"stim\">FRANCE</p>", "conditions": [12, 1600, "v", 24000], "internal_node_id": "0.0-70.0", "trial": 2, "time_elapsed": 3485790, "serialpos": 8, "key_press": -1, "wordID": 600, "type": "PRES_VIS", "trial_index": 97}, "uniqueid": "MTK2371:308Q0PEVB9KXJTQ5DK73VALUWQ6I9R", "dateTime": 1517005532804}, {"current_trial": 98, "trialdata": {"rt": -1, "trial_type": "single-stim", "word": "sandwich", "stimulus": "<p id=\"stim\">SANDWICH</p>", "conditions": [12, 1600, "v", 24000], "internal_node_id": "0.0-71.0", "trial": 2, "time_elapsed": 3488353, "serialpos": 9, "key_press": -1, "wordID": 1231, "type": "PRES_VIS", "trial_index": 98}, "uniqueid": "MTK2371:308Q0PEVB9KXJTQ5DK73VALUWQ6I9R", "dateTime": 1517005535367}, {"current_trial": 99, "trialdata": {"rt": -1, "trial_type": "single-stim", "word": "leader", "stimulus": "<p id=\"stim\">LEADER</p>", "conditions": [12, 1600, "v", 24000], "internal_node_id": "0.0-72.0", "trial": 2, "time_elapsed": 3490815, "serialpos": 10, "key_press": -1, "wordID": 806, "type": "PRES_VIS", "trial_index": 99}, "uniqueid": "MTK2371:308Q0PEVB9KXJTQ5DK73VALUWQ6I9R", "dateTime": 1517005537829}, {"current_trial": 100, "trialdata": {"rt": -1, "trial_type": "single-stim", "word": "skirt", "stimulus": "<p id=\"stim\">SKIRT</p>", "conditions": [12, 1600, "v", 24000], "internal_node_id": "0.0-73.0", "trial": 2, "time_elapsed": 3493563, "serialpos": 11, "key_press": -1, "wordID": 1318, "type": "PRES_VIS", "trial_index": 100}, "uniqueid": "MTK2371:308Q0PEVB9KXJTQ5DK73VALUWQ6I9R", "dateTime": 1517005540577}, {"current_trial": 101, "trialdata": {"rt": -1, "trial_type": "single-stim", "stimulus": "", "internal_node_id": "0.0-74.0-0.0", "time_elapsed": 3495680, "key_press": -1, "type": "PRE_RECALL_DELAY", "trial_index": 101}, "uniqueid": "MTK2371:308Q0PEVB9KXJTQ5DK73VALUWQ6I9R", "dateTime": 1517005542694}, {"current_trial": 102, "trialdata": {"rt": -1000, "trial_type": "single-audio", "stimulus": "/static/audio/400Hz.wav", "internal_node_id": "0.0-75.0", "time_elapsed": 3496181, "key_press": -1, "type": "PRE_RECALL_ALERT", "trial_index": 102}, "uniqueid": "MTK2371:308Q0PEVB9KXJTQ5DK73VALUWQ6I9R", "dateTime": 1517005543195}, {"current_trial": 103, "trialdata": {"rt": [7536, 8811, 12167, 14454, 16693, 19425, 27132, 27824, 33806, 35418], "recwords": ["world", "tribe", "dolphin", "salad", "chest", "forehead", "france", "girl", "leader", "skirt"], "key_times": [6957, 7072, 7157, 7265, 7339, 7536, 7935, 8131, 8221, 8360, 8573, 8811, 10929, 11088, 11268, 11433, 11540, 11673, 11976, 12167, 13215, 13635, 13715, 13822, 13922, 14092, 14241, 14454, 16028, 16118, 16220, 16373, 16528, 16693, 18593, 18740, 18841, 18888, 19038, 19097, 19154, 19299, 19425, 26473, 26664, 26723, 26850, 26936, 27005, 27132, 27377, 27494, 27597, 27685, 27824, 32025, 32711, 32855, 32981, 33174, 33232, 33806, 34545, 34727, 34944, 35036, 35264, 35418], "trial_type": "free-recall", "conditions": [12, 1600, "v", 24000], "internal_node_id": "0.0-76.0-0.0", "key_presses": [87, 79, 82, 76, 68, 13, 84, 82, 73, 66, 69, 13, 68, 79, 76, 80, 72, 73, 78, 13, 68, 8, 83, 65, 76, 65, 68, 13, 67, 72, 69, 83, 84, 13, 70, 79, 82, 69, 72, 69, 65, 68, 13, 70, 82, 65, 78, 67, 69, 13, 71, 73, 82, 76, 13, 76, 69, 65, 68, 69, 82, 13, 83, 75, 73, 82, 84, 13], "trial": 2, "time_elapsed": 3556184, "type": "FREE_RECALL", "trial_index": 103}, "uniqueid": "MTK2371:308Q0PEVB9KXJTQ5DK73VALUWQ6I9R", "dateTime": 1517005603200}, {"current_trial": 104, "trialdata": {"rt": 14266, "trial_type": "text", "internal_node_id": "0.0-77.0", "time_elapsed": 3572452, "key_press": 32, "type": "INSTRUCTIONS", "trial_index": 104}, "uniqueid": "MTK2371:308Q0PEVB9KXJTQ5DK73VALUWQ6I9R", "dateTime": 1517005619466}, {"current_trial": 105, "trialdata": {"rt": [1647, 4301, 6464, 10156, 12644, 15001, 20116], "trial_type": "math-distractor", "key_times": [1393, 1462, 1647, 3971, 4162, 4301, 5928, 6194, 6464, 9464, 9932, 10156, 12416, 12644, 14590, 14788, 15001, 19548, 19802, 20116, 23860], "responses": ["12", "14", "18", "16", "9", "14", "22"], "num2": [1, 8, 7, 5, 6, 6, 8, 3], "num3": [2, 2, 3, 9, 2, 7, 7, 3], "conditions": [24, 1600, "v", 24000], "internal_node_id": "0.0-78.0", "key_presses": [97, 98, 13, 97, 100, 13, 97, 104, 13, 97, 102, 13, 105, 13, 97, 100, 13, 98, 98, 13, 97], "trial": 3, "time_elapsed": 3598453, "type": "DISTRACTOR", "trial_index": 105, "num1": [9, 4, 8, 2, 1, 1, 7, 4]}, "uniqueid": "MTK2371:308Q0PEVB9KXJTQ5DK73VALUWQ6I9R", "dateTime": 1517005645468}, {"current_trial": 106, "trialdata": {"rt": -1, "trial_type": "single-stim", "stimulus": "<p id=\"stim\">10</p>", "internal_node_id": "0.0-79.0-0.0", "time_elapsed": 3601455, "key_press": -1, "trial_index": 106}, "uniqueid": "MTK2371:308Q0PEVB9KXJTQ5DK73VALUWQ6I9R", "dateTime": 1517005648469}, {"current_trial": 107, "trialdata": {"rt": -1, "trial_type": "single-stim", "stimulus": "<p id=\"stim\">9</p>", "internal_node_id": "0.0-79.0-1.0", "time_elapsed": 3602455, "key_press": -1, "trial_index": 107}, "uniqueid": "MTK2371:308Q0PEVB9KXJTQ5DK73VALUWQ6I9R", "dateTime": 1517005649469}, {"current_trial": 108, "trialdata": {"rt": -1, "trial_type": "single-stim", "stimulus": "<p id=\"stim\">8</p>", "internal_node_id": "0.0-79.0-2.0", "time_elapsed": 3603455, "key_press": -1, "trial_index": 108}, "uniqueid": "MTK2371:308Q0PEVB9KXJTQ5DK73VALUWQ6I9R", "dateTime": 1517005650469}, {"current_trial": 109, "trialdata": {"rt": -1, "trial_type": "single-stim", "stimulus": "<p id=\"stim\">7</p>", "internal_node_id": "0.0-79.0-3.0", "time_elapsed": 3604456, "key_press": -1, "trial_index": 109}, "uniqueid": "MTK2371:308Q0PEVB9KXJTQ5DK73VALUWQ6I9R", "dateTime": 1517005651470}, {"current_trial": 110, "trialdata": {"rt": -1, "trial_type": "single-stim", "stimulus": "<p id=\"stim\">6</p>", "internal_node_id": "0.0-79.0-4.0", "time_elapsed": 3605456, "key_press": -1, "trial_index": 110}, "uniqueid": "MTK2371:308Q0PEVB9KXJTQ5DK73VALUWQ6I9R", "dateTime": 1517005652470}, {"current_trial": 111, "trialdata": {"rt": -1, "trial_type": "single-stim", "stimulus": "<p id=\"stim\">5</p>", "internal_node_id": "0.0-79.0-5.0", "time_elapsed": 3606456, "key_press": -1, "trial_index": 111}, "uniqueid": "MTK2371:308Q0PEVB9KXJTQ5DK73VALUWQ6I9R", "dateTime": 1517005653470}, {"current_trial": 112, "trialdata": {"rt": -1, "trial_type": "single-stim", "stimulus": "<p id=\"stim\">4</p>", "internal_node_id": "0.0-79.0-6.0", "time_elapsed": 3607456, "key_press": -1, "trial_index": 112}, "uniqueid": "MTK2371:308Q0PEVB9KXJTQ5DK73VALUWQ6I9R", "dateTime": 1517005654470}, {"current_trial": 113, "trialdata": {"rt": -1, "trial_type": "single-stim", "stimulus": "<p id=\"stim\">3</p>", "internal_node_id": "0.0-79.0-7.0", "time_elapsed": 3608458, "key_press": -1, "trial_index": 113}, "uniqueid": "MTK2371:308Q0PEVB9KXJTQ5DK73VALUWQ6I9R", "dateTime": 1517005655472}, {"current_trial": 114, "trialdata": {"rt": -1, "trial_type": "single-stim", "stimulus": "<p id=\"stim\">2</p>", "internal_node_id": "0.0-79.0-8.0", "time_elapsed": 3609458, "key_press": -1, "trial_index": 114}, "uniqueid": "MTK2371:308Q0PEVB9KXJTQ5DK73VALUWQ6I9R", "dateTime": 1517005656473}, {"current_trial": 115, "trialdata": {"rt": -1, "trial_type": "single-stim", "stimulus": "<p id=\"stim\">1</p>", "internal_node_id": "0.0-79.0-9.0", "time_elapsed": 3610459, "key_press": -1, "trial_index": 115}, "uniqueid": "MTK2371:308Q0PEVB9KXJTQ5DK73VALUWQ6I9R", "dateTime": 1517005657473}, {"current_trial": 116, "trialdata": {"rt": -1, "trial_type": "single-stim", "stimulus": "<p id=\"stim\">+</p>", "internal_node_id": "0.0-80.0-0.0", "time_elapsed": 3611959, "key_press": -1, "type": "FIXATION", "trial_index": 116}, "uniqueid": "MTK2371:308Q0PEVB9KXJTQ5DK73VALUWQ6I9R", "dateTime": 1517005658973}, {"current_trial": 117, "trialdata": {"rt": -1, "trial_type": "single-stim", "word": "worker", "stimulus": "<p id=\"stim\">WORKER</p>", "conditions": [24, 1600, "v", 24000], "internal_node_id": "0.0-81.0", "trial": 3, "time_elapsed": 3613560, "serialpos": 0, "key_press": -1, "wordID": 1620, "type": "PRES_VIS", "trial_index": 117}, "uniqueid": "MTK2371:308Q0PEVB9KXJTQ5DK73VALUWQ6I9R", "dateTime": 1517005660574}, {"current_trial": 118, "trialdata": {"rt": -1, "trial_type": "single-stim", "word": "atom", "stimulus": "<p id=\"stim\">ATOM</p>", "conditions": [24, 1600, "v", 24000], "internal_node_id": "0.0-82.0", "trial": 3, "time_elapsed": 3616345, "serialpos": 1, "key_press": -1, "wordID": 54, "type": "PRES_VIS", "trial_index": 118}, "uniqueid": "MTK2371:308Q0PEVB9KXJTQ5DK73VALUWQ6I9R", "dateTime": 1517005663360}, {"current_trial": 119, "trialdata": {"rt": -1, "trial_type": "single-stim", "word": "cabbage", "stimulus": "<p id=\"stim\">CABBAGE</p>", "conditions": [24, 1600, "v", 24000], "internal_node_id": "0.0-83.0", "trial": 3, "time_elapsed": 3619087, "serialpos": 2, "key_press": -1, "wordID": 209, "type": "PRES_VIS", "trial_index": 119}, "uniqueid": "MTK2371:308Q0PEVB9KXJTQ5DK73VALUWQ6I9R", "dateTime": 1517005666101}, {"current_trial": 120, "trialdata": {"rt": -1, "trial_type": "single-stim", "word": "infant", "stimulus": "<p id=\"stim\">INFANT</p>", "conditions": [24, 1600, "v", 24000], "internal_node_id": "0.0-84.0", "trial": 3, "time_elapsed": 3621559, "serialpos": 3, "key_press": -1, "wordID": 736, "type": "PRES_VIS", "trial_index": 120}, "uniqueid": "MTK2371:308Q0PEVB9KXJTQ5DK73VALUWQ6I9R", "dateTime": 1517005668573}, {"current_trial": 121, "trialdata": {"rt": -1, "trial_type": "single-stim", "word": "child", "stimulus": "<p id=\"stim\">CHILD</p>", "conditions": [24, 1600, "v", 24000], "internal_node_id": "0.0-85.0", "trial": 3, "time_elapsed": 3624358, "serialpos": 4, "key_press": -1, "wordID": 298, "type": "PRES_VIS", "trial_index": 121}, "uniqueid": "MTK2371:308Q0PEVB9KXJTQ5DK73VALUWQ6I9R", "dateTime": 1517005671372}, {"current_trial": 122, "trialdata": {"rt": -1, "trial_type": "single-stim", "word": "gazelle", "stimulus": "<p id=\"stim\">GAZELLE</p>", "conditions": [24, 1600, "v", 24000], "internal_node_id": "0.0-86.0", "trial": 3, "time_elapsed": 3627133, "serialpos": 5, "key_press": -1, "wordID": 627, "type": "PRES_VIS", "trial_index": 122}, "uniqueid": "MTK2371:308Q0PEVB9KXJTQ5DK73VALUWQ6I9R", "dateTime": 1517005674147}, {"current_trial": 123, "trialdata": {"rt": -1, "trial_type": "single-stim", "word": "cloud", "stimulus": "<p id=\"stim\">CLOUD</p>", "conditions": [24, 1600, "v", 24000], "internal_node_id": "0.0-87.0", "trial": 3, "time_elapsed": 3629538, "serialpos": 6, "key_press": -1, "wordID": 327, "type": "PRES_VIS", "trial_index": 123}, "uniqueid": "MTK2371:308Q0PEVB9KXJTQ5DK73VALUWQ6I9R", "dateTime": 1517005676553}, {"current_trial": 124, "trialdata": {"rt": -1, "trial_type": "single-stim", "word": "garlic", "stimulus": "<p id=\"stim\">GARLIC</p>", "conditions": [24, 1600, "v", 24000], "internal_node_id": "0.0-88.0", "trial": 3, "time_elapsed": 3632140, "serialpos": 7, "key_press": -1, "wordID": 623, "type": "PRES_VIS", "trial_index": 124}, "uniqueid": "MTK2371:308Q0PEVB9KXJTQ5DK73VALUWQ6I9R", "dateTime": 1517005679154}, {"current_trial": 125, "trialdata": {"rt": -1, "trial_type": "single-stim", "word": "lion", "stimulus": "<p id=\"stim\">LION</p>", "conditions": [24, 1600, "v", 24000], "internal_node_id": "0.0-89.0", "trial": 3, "time_elapsed": 3634552, "serialpos": 8, "key_press": -1, "wordID": 826, "type": "PRES_VIS", "trial_index": 125}, "uniqueid": "MTK2371:308Q0PEVB9KXJTQ5DK73VALUWQ6I9R", "dateTime": 1517005681566}, {"current_trial": 126, "trialdata": {"rt": -1, "trial_type": "single-stim", "word": "doughnut", "stimulus": "<p id=\"stim\">DOUGHNUT</p>", "conditions": [24, 1600, "v", 24000], "internal_node_id": "0.0-90.0", "trial": 3, "time_elapsed": 3637298, "serialpos": 9, "key_press": -1, "wordID": 489, "type": "PRES_VIS", "trial_index": 126}, "uniqueid": "MTK2371:308Q0PEVB9KXJTQ5DK73VALUWQ6I9R", "dateTime": 1517005684313}, {"current_trial": 127, "trialdata": {"rt": -1, "trial_type": "single-stim", "word": "perfume", "stimulus": "<p id=\"stim\">PERFUME</p>", "conditions": [24, 1600, "v", 24000], "internal_node_id": "0.0-91.0", "trial": 3, "time_elapsed": 3639916, "serialpos": 10, "key_press": -1, "wordID": 1048, "type": "PRES_VIS", "trial_index": 127}, "uniqueid": "MTK2371:308Q0PEVB9KXJTQ5DK73VALUWQ6I9R", "dateTime": 1517005686930}, {"current_trial": 128, "trialdata": {"rt": -1, "trial_type": "single-stim", "word": "plate", "stimulus": "<p id=\"stim\">PLATE</p>", "conditions": [24, 1600, "v", 24000], "internal_node_id": "0.0-92.0", "trial": 3, "time_elapsed": 3642503, "serialpos": 11, "key_press": -1, "wordID": 1085, "type": "PRES_VIS", "trial_index": 128}, "uniqueid": "MTK2371:308Q0PEVB9KXJTQ5DK73VALUWQ6I9R", "dateTime": 1517005689517}, {"current_trial": 129, "trialdata": {"rt": -1, "trial_type": "single-stim", "word": "stove", "stimulus": "<p id=\"stim\">STOVE</p>", "conditions": [24, 1600, "v", 24000], "internal_node_id": "0.0-93.0", "trial": 3, "time_elapsed": 3645283, "serialpos": 12, "key_press": -1, "wordID": 1387, "type": "PRES_VIS", "trial_index": 129}, "uniqueid": "MTK2371:308Q0PEVB9KXJTQ5DK73VALUWQ6I9R", "dateTime": 1517005692297}, {"current_trial": 130, "trialdata": {"rt": -1, "trial_type": "single-stim", "word": "airplane", "stimulus": "<p id=\"stim\">AIRPLANE</p>", "conditions": [24, 1600, "v", 24000], "internal_node_id": "0.0-94.0", "trial": 3, "time_elapsed": 3647907, "serialpos": 13, "key_press": -1, "wordID": 11, "type": "PRES_VIS", "trial_index": 130}, "uniqueid": "MTK2371:308Q0PEVB9KXJTQ5DK73VALUWQ6I9R", "dateTime": 1517005694921}, {"current_trial": 131, "trialdata": {"rt": -1, "trial_type": "single-stim", "word": "victim", "stimulus": "<p id=\"stim\">VICTIM</p>", "conditions": [24, 1600, "v", 24000], "internal_node_id": "0.0-95.0", "trial": 3, "time_elapsed": 3650419, "serialpos": 14, "key_press": -1, "wordID": 1561, "type": "PRES_VIS", "trial_index": 131}, "uniqueid": "MTK2371:308Q0PEVB9KXJTQ5DK73VALUWQ6I9R", "dateTime": 1517005697433}, {"current_trial": 132, "trialdata": {"rt": -1, "trial_type": "single-stim", "word": "match", "stimulus": "<p id=\"stim\">MATCH</p>", "conditions": [24, 1600, "v", 24000], "internal_node_id": "0.0-96.0", "trial": 3, "time_elapsed": 3652824, "serialpos": 15, "key_press": -1, "wordID": 877, "type": "PRES_VIS", "trial_index": 132}, "uniqueid": "MTK2371:308Q0PEVB9KXJTQ5DK73VALUWQ6I9R", "dateTime": 1517005699838}, {"current_trial": 133, "trialdata": {"rt": -1, "trial_type": "single-stim", "word": "bank", "stimulus": "<p id=\"stim\">BANK</p>", "conditions": [24, 1600, "v", 24000], "internal_node_id": "0.0-97.0", "trial": 3, "time_elapsed": 3655496, "serialpos": 16, "key_press": -1, "wordID": 82, "type": "PRES_VIS", "trial_index": 133}, "uniqueid": "MTK2371:308Q0PEVB9KXJTQ5DK73VALUWQ6I9R", "dateTime": 1517005702510}, {"current_trial": 134, "trialdata": {"rt": -1, "trial_type": "single-stim", "word": "hero", "stimulus": "<p id=\"stim\">HERO</p>", "conditions": [24, 1600, "v", 24000], "internal_node_id": "0.0-98.0", "trial": 3, "time_elapsed": 3658262, "serialpos": 17, "key_press": -1, "wordID": 705, "type": "PRES_VIS", "trial_index": 134}, "uniqueid": "MTK2371:308Q0PEVB9KXJTQ5DK73VALUWQ6I9R", "dateTime": 1517005705277}, {"current_trial": 135, "trialdata": {"rt": -1, "trial_type": "single-stim", "word": "toaster", "stimulus": "<p id=\"stim\">TOASTER</p>", "conditions": [24, 1600, "v", 24000], "internal_node_id": "0.0-99.0", "trial": 3, "time_elapsed": 3661008, "serialpos": 18, "key_press": -1, "wordID": 1471, "type": "PRES_VIS", "trial_index": 135}, "uniqueid": "MTK2371:308Q0PEVB9KXJTQ5DK73VALUWQ6I9R", "dateTime": 1517005708022}, {"current_trial": 136, "trialdata": {"rt": -1, "trial_type": "single-stim", "word": "kidney", "stimulus": "<p id=\"stim\">KIDNEY</p>", "conditions": [24, 1600, "v", 24000], "internal_node_id": "0.0-100.0", "trial": 3, "time_elapsed": 3663605, "serialpos": 19, "key_press": -1, "wordID": 775, "type": "PRES_VIS", "trial_index": 136}, "uniqueid": "MTK2371:308Q0PEVB9KXJTQ5DK73VALUWQ6I9R", "dateTime": 1517005710620}, {"current_trial": 137, "trialdata": {"rt": -1, "trial_type": "single-stim", "word": "radish", "stimulus": "<p id=\"stim\">RADISH</p>", "conditions": [24, 1600, "v", 24000], "internal_node_id": "0.0-101.0", "trial": 3, "time_elapsed": 3666291, "serialpos": 20, "key_press": -1, "wordID": 1157, "type": "PRES_VIS", "trial_index": 137}, "uniqueid": "MTK2371:308Q0PEVB9KXJTQ5DK73VALUWQ6I9R", "dateTime": 1517005713305}, {"current_trial": 138, "trialdata": {"rt": -1, "trial_type": "single-stim", "word": "onion", "stimulus": "<p id=\"stim\">ONION</p>", "conditions": [24, 1600, "v", 24000], "internal_node_id": "0.0-102.0", "trial": 3, "time_elapsed": 3668696, "serialpos": 21, "key_press": -1, "wordID": 976, "type": "PRES_VIS", "trial_index": 138}, "uniqueid": "MTK2371:308Q0PEVB9KXJTQ5DK73VALUWQ6I9R", "dateTime": 1517005715710}, {"current_trial": 139, "trialdata": {"rt": -1, "trial_type": "single-stim", "word": "rust", "stimulus": "<p id=\"stim\">RUST</p>", "conditions": [24, 1600, "v", 24000], "internal_node_id": "0.0-103.0", "trial": 3, "time_elapsed": 3671131, "serialpos": 22, "key_press": -1, "wordID": 1218, "type": "PRES_VIS", "trial_index": 139}, "uniqueid": "MTK2371:308Q0PEVB9KXJTQ5DK73VALUWQ6I9R", "dateTime": 1517005718145}, {"current_trial": 140, "trialdata": {"rt": -1, "trial_type": "single-stim", "word": "pimple", "stimulus": "<p id=\"stim\">PIMPLE</p>", "conditions": [24, 1600, "v", 24000], "internal_node_id": "0.0-104.0", "trial": 3, "time_elapsed": 3673613, "serialpos": 23, "key_press": -1, "wordID": 1070, "type": "PRES_VIS", "trial_index": 140}, "uniqueid": "MTK2371:308Q0PEVB9KXJTQ5DK73VALUWQ6I9R", "dateTime": 1517005720627}, {"current_trial": 141, "trialdata": {"rt": -1, "trial_type": "single-stim", "stimulus": "", "internal_node_id": "0.0-105.0-0.0", "time_elapsed": 3675866, "key_press": -1, "type": "PRE_RECALL_DELAY", "trial_index": 141}, "uniqueid": "MTK2371:308Q0PEVB9KXJTQ5DK73VALUWQ6I9R", "dateTime": 1517005722881}, {"current_trial": 142, "trialdata": {"rt": -1000, "trial_type": "single-audio", "stimulus": "/static/audio/400Hz.wav", "internal_node_id": "0.0-106.0", "time_elapsed": 3676370, "key_press": -1, "type": "PRE_RECALL_ALERT", "trial_index": 142}, "uniqueid": "MTK2371:308Q0PEVB9KXJTQ5DK73VALUWQ6I9R", "dateTime": 1517005723384}, {"current_trial": 143, "trialdata": {"rt": [2346, 3266, 3797, 4941, 14534, 15310, 18130, 19964, 22799, 30924, 33376, 38089, 40913, 42145, 44023], "recwords": ["radish", "onion", "rush", "pimple", "worker", "atom", "cabbage", "infant", "child", "garlic", "lion", "doguhnut", "plate", "perfume", "stove"], "key_times": [1353, 1527, 1649, 1755, 1894, 2001, 2346, 2564, 2799, 2915, 2989, 3090, 3266, 3409, 3506, 3590, 3734, 3797, 4000, 4180, 4292, 4393, 4664, 4834, 4941, 11551, 11699, 11828, 11992, 12236, 12385, 12507, 12640, 12763, 13237, 13364, 13460, 13550, 13704, 13816, 14534, 14709, 14827, 14927, 15061, 15310, 16948, 17076, 17332, 17512, 17635, 17736, 17922, 18130, 19385, 19497, 19560, 19651, 19762, 19836, 19964, 22257, 22335, 22379, 22581, 22671, 22799, 29940, 30095, 30213, 30339, 30520, 30626, 30924, 32339, 32525, 32611, 32791, 33376, 35345, 35472, 35653, 36031, 36307, 36662, 37774, 37881, 38089, 40311, 40482, 40545, 40667, 40779, 40913, 41124, 41231, 41294, 41539, 41661, 41885, 42007, 42145, 43417, 43544, 43624, 43799, 43943, 44023], "trial_type": "free-recall", "conditions": [24, 1600, "v", 24000], "internal_node_id": "0.0-107.0-0.0", "key_presses": [82, 65, 68, 73, 83, 72, 13, 79, 78, 73, 79, 78, 13, 82, 85, 83, 72, 32, 80, 73, 77, 80, 76, 69, 13, 69, 79, 84, 75, 8, 8, 8, 8, 8, 87, 79, 82, 75, 69, 82, 13, 65, 84, 79, 77, 13, 67, 65, 66, 66, 65, 71, 69, 13, 73, 78, 70, 65, 78, 84, 13, 67, 72, 73, 76, 68, 13, 71, 65, 82, 76, 73, 67, 13, 76, 73, 79, 78, 13, 68, 79, 71, 85, 72, 78, 85, 84, 13, 80, 76, 65, 84, 69, 13, 80, 69, 82, 70, 85, 77, 69, 13, 83, 84, 79, 86, 69, 13], "trial": 3, "time_elapsed": 3736371, "type": "FREE_RECALL", "trial_index": 143}, "uniqueid": "MTK2371:308Q0PEVB9KXJTQ5DK73VALUWQ6I9R", "dateTime": 1517005783387}, {"current_trial": 144, "trialdata": {"rt": 76947, "trial_type": "text", "internal_node_id": "0.0-108.0", "time_elapsed": 3815322, "key_press": 32, "type": "INSTRUCTIONS", "trial_index": 144}, "uniqueid": "MTK2371:308Q0PEVB9KXJTQ5DK73VALUWQ6I9R", "dateTime": 1517005862336}, {"current_trial": 145, "trialdata": {"rt": [2924, 5098, 7215, 9810], "trial_type": "math-distractor", "key_times": [2126, 2439, 2924, 4816, 4976, 5098, 6827, 6991, 7215, 9209, 9326, 9810], "responses": ["17", "11", "18", "20"], "num2": [4, 2, 8, 5, 6], "num3": [8, 2, 7, 8, 7], "conditions": [12, 1600, "v", 12000], "internal_node_id": "0.0-109.0", "key_presses": [97, 103, 13, 97, 97, 13, 97, 104, 13, 98, 96, 13], "trial": 4, "time_elapsed": 3829324, "type": "DISTRACTOR", "trial_index": 145, "num1": [5, 7, 3, 7, 2]}, "uniqueid": "MTK2371:308Q0PEVB9KXJTQ5DK73VALUWQ6I9R", "dateTime": 1517005876338}, {"current_trial": 146, "trialdata": {"rt": -1, "trial_type": "single-stim", "stimulus": "<p id=\"stim\">10</p>", "internal_node_id": "0.0-110.0-0.0", "time_elapsed": 3832324, "key_press": -1, "trial_index": 146}, "uniqueid": "MTK2371:308Q0PEVB9KXJTQ5DK73VALUWQ6I9R", "dateTime": 1517005879338}, {"current_trial": 147, "trialdata": {"rt": -1, "trial_type": "single-stim", "stimulus": "<p id=\"stim\">9</p>", "internal_node_id": "0.0-110.0-1.0", "time_elapsed": 3833324, "key_press": -1, "trial_index": 147}, "uniqueid": "MTK2371:308Q0PEVB9KXJTQ5DK73VALUWQ6I9R", "dateTime": 1517005880339}, {"current_trial": 148, "trialdata": {"rt": -1, "trial_type": "single-stim", "stimulus": "<p id=\"stim\">8</p>", "internal_node_id": "0.0-110.0-2.0", "time_elapsed": 3834326, "key_press": -1, "trial_index": 148}, "uniqueid": "MTK2371:308Q0PEVB9KXJTQ5DK73VALUWQ6I9R", "dateTime": 1517005881341}, {"current_trial": 149, "trialdata": {"rt": -1, "trial_type": "single-stim", "stimulus": "<p id=\"stim\">7</p>", "internal_node_id": "0.0-110.0-3.0", "time_elapsed": 3835327, "key_press": -1, "trial_index": 149}, "uniqueid": "MTK2371:308Q0PEVB9KXJTQ5DK73VALUWQ6I9R", "dateTime": 1517005882341}, {"current_trial": 150, "trialdata": {"rt": -1, "trial_type": "single-stim", "stimulus": "<p id=\"stim\">6</p>", "internal_node_id": "0.0-110.0-4.0", "time_elapsed": 3836327, "key_press": -1, "trial_index": 150}, "uniqueid": "MTK2371:308Q0PEVB9KXJTQ5DK73VALUWQ6I9R", "dateTime": 1517005883342}, {"current_trial": 151, "trialdata": {"rt": -1, "trial_type": "single-stim", "stimulus": "<p id=\"stim\">5</p>", "internal_node_id": "0.0-110.0-5.0", "time_elapsed": 3837328, "key_press": -1, "trial_index": 151}, "uniqueid": "MTK2371:308Q0PEVB9KXJTQ5DK73VALUWQ6I9R", "dateTime": 1517005884343}, {"current_trial": 152, "trialdata": {"rt": -1, "trial_type": "single-stim", "stimulus": "<p id=\"stim\">4</p>", "internal_node_id": "0.0-110.0-6.0", "time_elapsed": 3838329, "key_press": -1, "trial_index": 152}, "uniqueid": "MTK2371:308Q0PEVB9KXJTQ5DK73VALUWQ6I9R", "dateTime": 1517005885343}, {"current_trial": 153, "trialdata": {"rt": -1, "trial_type": "single-stim", "stimulus": "<p id=\"stim\">3</p>", "internal_node_id": "0.0-110.0-7.0", "time_elapsed": 3839330, "key_press": -1, "trial_index": 153}, "uniqueid": "MTK2371:308Q0PEVB9KXJTQ5DK73VALUWQ6I9R", "dateTime": 1517005886344}, {"current_trial": 154, "trialdata": {"rt": -1, "trial_type": "single-stim", "stimulus": "<p id=\"stim\">2</p>", "internal_node_id": "0.0-110.0-8.0", "time_elapsed": 3840331, "key_press": -1, "trial_index": 154}, "uniqueid": "MTK2371:308Q0PEVB9KXJTQ5DK73VALUWQ6I9R", "dateTime": 1517005887345}, {"current_trial": 155, "trialdata": {"rt": -1, "trial_type": "single-stim", "stimulus": "<p id=\"stim\">1</p>", "internal_node_id": "0.0-110.0-9.0", "time_elapsed": 3841331, "key_press": -1, "trial_index": 155}, "uniqueid": "MTK2371:308Q0PEVB9KXJTQ5DK73VALUWQ6I9R", "dateTime": 1517005888345}, {"current_trial": 156, "trialdata": {"rt": -1, "trial_type": "single-stim", "stimulus": "<p id=\"stim\">+</p>", "internal_node_id": "0.0-111.0-0.0", "time_elapsed": 3842831, "key_press": -1, "type": "FIXATION", "trial_index": 156}, "uniqueid": "MTK2371:308Q0PEVB9KXJTQ5DK73VALUWQ6I9R", "dateTime": 1517005889845}, {"current_trial": 157, "trialdata": {"rt": -1, "trial_type": "single-stim", "word": "swimmer", "stimulus": "<p id=\"stim\">SWIMMER</p>", "conditions": [12, 1600, "v", 12000], "internal_node_id": "0.0-112.0", "trial": 4, "time_elapsed": 3844432, "serialpos": 0, "key_press": -1, "wordID": 1419, "type": "PRES_VIS", "trial_index": 157}, "uniqueid": "MTK2371:308Q0PEVB9KXJTQ5DK73VALUWQ6I9R", "dateTime": 1517005891447}, {"current_trial": 158, "trialdata": {"rt": -1, "trial_type": "single-stim", "word": "pecan", "stimulus": "<p id=\"stim\">PECAN</p>", "conditions": [12, 1600, "v", 12000], "internal_node_id": "0.0-113.0", "trial": 4, "time_elapsed": 3847031, "serialpos": 1, "key_press": -1, "wordID": 1035, "type": "PRES_VIS", "trial_index": 158}, "uniqueid": "MTK2371:308Q0PEVB9KXJTQ5DK73VALUWQ6I9R", "dateTime": 1517005894045}, {"current_trial": 159, "trialdata": {"rt": -1, "trial_type": "single-stim", "word": "seal", "stimulus": "<p id=\"stim\">SEAL</p>", "conditions": [12, 1600, "v", 12000], "internal_node_id": "0.0-114.0", "trial": 4, "time_elapsed": 3849609, "serialpos": 2, "key_press": -1, "wordID": 1261, "type": "PRES_VIS", "trial_index": 159}, "uniqueid": "MTK2371:308Q0PEVB9KXJTQ5DK73VALUWQ6I9R", "dateTime": 1517005896623}, {"current_trial": 160, "trialdata": {"rt": -1, "trial_type": "single-stim", "word": "donkey", "stimulus": "<p id=\"stim\">DONKEY</p>", "conditions": [12, 1600, "v", 12000], "internal_node_id": "0.0-115.0", "trial": 4, "time_elapsed": 3852062, "serialpos": 3, "key_press": -1, "wordID": 483, "type": "PRES_VIS", "trial_index": 160}, "uniqueid": "MTK2371:308Q0PEVB9KXJTQ5DK73VALUWQ6I9R", "dateTime": 1517005899076}, {"current_trial": 161, "trialdata": {"rt": -1, "trial_type": "single-stim", "word": "juggler", "stimulus": "<p id=\"stim\">JUGGLER</p>", "conditions": [12, 1600, "v", 12000], "internal_node_id": "0.0-116.0", "trial": 4, "time_elapsed": 3854740, "serialpos": 4, "key_press": -1, "wordID": 762, "type": "PRES_VIS", "trial_index": 161}, "uniqueid": "MTK2371:308Q0PEVB9KXJTQ5DK73VALUWQ6I9R", "dateTime": 1517005901754}, {"current_trial": 162, "trialdata": {"rt": -1, "trial_type": "single-stim", "word": "trout", "stimulus": "<p id=\"stim\">TROUT</p>", "conditions": [12, 1600, "v", 12000], "internal_node_id": "0.0-117.0", "trial": 4, "time_elapsed": 3857490, "serialpos": 5, "key_press": -1, "wordID": 1510, "type": "PRES_VIS", "trial_index": 162}, "uniqueid": "MTK2371:308Q0PEVB9KXJTQ5DK73VALUWQ6I9R", "dateTime": 1517005904504}, {"current_trial": 163, "trialdata": {"rt": -1, "trial_type": "single-stim", "word": "camel", "stimulus": "<p id=\"stim\">CAMEL</p>", "conditions": [12, 1600, "v", 12000], "internal_node_id": "0.0-118.0", "trial": 4, "time_elapsed": 3860203, "serialpos": 6, "key_press": -1, "wordID": 222, "type": "PRES_VIS", "trial_index": 163}, "uniqueid": "MTK2371:308Q0PEVB9KXJTQ5DK73VALUWQ6I9R", "dateTime": 1517005907218}, {"current_trial": 164, "trialdata": {"rt": -1, "trial_type": "single-stim", "word": "cobra", "stimulus": "<p id=\"stim\">COBRA</p>", "conditions": [12, 1600, "v", 12000], "internal_node_id": "0.0-119.0", "trial": 4, "time_elapsed": 3862644, "serialpos": 7, "key_press": -1, "wordID": 335, "type": "PRES_VIS", "trial_index": 164}, "uniqueid": "MTK2371:308Q0PEVB9KXJTQ5DK73VALUWQ6I9R", "dateTime": 1517005909659}, {"current_trial": 165, "trialdata": {"rt": -1, "trial_type": "single-stim", "word": "balloon", "stimulus": "<p id=\"stim\">BALLOON</p>", "conditions": [12, 1600, "v", 12000], "internal_node_id": "0.0-120.0", "trial": 4, "time_elapsed": 3865128, "serialpos": 8, "key_press": -1, "wordID": 74, "type": "PRES_VIS", "trial_index": 165}, "uniqueid": "MTK2371:308Q0PEVB9KXJTQ5DK73VALUWQ6I9R", "dateTime": 1517005912142}, {"current_trial": 166, "trialdata": {"rt": -1, "trial_type": "single-stim", "word": "helmet", "stimulus": "<p id=\"stim\">HELMET</p>", "conditions": [12, 1600, "v", 12000], "internal_node_id": "0.0-121.0", "trial": 4, "time_elapsed": 3867557, "serialpos": 9, "key_press": -1, "wordID": 701, "type": "PRES_VIS", "trial_index": 166}, "uniqueid": "MTK2371:308Q0PEVB9KXJTQ5DK73VALUWQ6I9R", "dateTime": 1517005914571}, {"current_trial": 167, "trialdata": {"rt": -1, "trial_type": "single-stim", "word": "coffee", "stimulus": "<p id=\"stim\">COFFEE</p>", "conditions": [12, 1600, "v", 12000], "internal_node_id": "0.0-122.0", "trial": 4, "time_elapsed": 3870071, "serialpos": 10, "key_press": -1, "wordID": 340, "type": "PRES_VIS", "trial_index": 167}, "uniqueid": "MTK2371:308Q0PEVB9KXJTQ5DK73VALUWQ6I9R", "dateTime": 1517005917085}, {"current_trial": 168, "trialdata": {"rt": -1, "trial_type": "single-stim", "word": "soda", "stimulus": "<p id=\"stim\">SODA</p>", "conditions": [12, 1600, "v", 12000], "internal_node_id": "0.0-123.0", "trial": 4, "time_elapsed": 3872508, "serialpos": 11, "key_press": -1, "wordID": 1340, "type": "PRES_VIS", "trial_index": 168}, "uniqueid": "MTK2371:308Q0PEVB9KXJTQ5DK73VALUWQ6I9R", "dateTime": 1517005919522}, {"current_trial": 169, "trialdata": {"rt": -1, "trial_type": "single-stim", "stimulus": "", "internal_node_id": "0.0-124.0-0.0", "time_elapsed": 3874863, "key_press": -1, "type": "PRE_RECALL_DELAY", "trial_index": 169}, "uniqueid": "MTK2371:308Q0PEVB9KXJTQ5DK73VALUWQ6I9R", "dateTime": 1517005921877}, {"current_trial": 170, "trialdata": {"rt": -1000, "trial_type": "single-audio", "stimulus": "/static/audio/400Hz.wav", "internal_node_id": "0.0-125.0", "time_elapsed": 3875364, "key_press": -1, "type": "PRE_RECALL_ALERT", "trial_index": 170}, "uniqueid": "MTK2371:308Q0PEVB9KXJTQ5DK73VALUWQ6I9R", "dateTime": 1517005922378}, {"current_trial": 171, "trialdata": {"rt": [8935, 11876, 15763, 17449, 21421, 22777, 25585, 32913, 33759, 37593], "recwords": ["swimmer", "seal", "dokney", "juggler", "trout", "camel", "cobra", "coffee", "helmet", "soda"], "key_times": [6462, 6696, 6838, 7040, 7212, 7333, 7451, 8935, 9258, 9960, 11333, 11477, 11583, 11695, 11876, 13870, 14029, 14258, 14343, 15364, 15487, 15763, 16625, 16774, 16896, 17061, 17162, 17257, 17337, 17449, 20607, 20794, 20922, 20996, 21117, 21421, 21995, 22097, 22262, 22453, 22576, 22777, 24819, 25037, 25133, 25335, 25430, 25585, 31872, 31946, 32073, 32248, 32420, 32632, 32913, 33116, 33196, 33323, 33434, 33552, 33659, 33759, 36939, 37088, 37194, 37348, 37593], "trial_type": "free-recall", "conditions": [12, 1600, "v", 12000], "internal_node_id": "0.0-126.0-0.0", "key_presses": [83, 87, 73, 77, 77, 69, 82, 13, 80, 8, 83, 69, 65, 76, 13, 68, 79, 75, 78, 69, 89, 13, 74, 85, 71, 71, 76, 69, 82, 13, 84, 82, 79, 85, 84, 13, 67, 65, 77, 69, 76, 13, 67, 79, 66, 82, 65, 13, 67, 79, 70, 70, 69, 69, 13, 72, 69, 76, 77, 69, 84, 13, 83, 79, 68, 65, 13], "trial": 4, "time_elapsed": 3935368, "type": "FREE_RECALL", "trial_index": 171}, "uniqueid": "MTK2371:308Q0PEVB9KXJTQ5DK73VALUWQ6I9R", "dateTime": 1517005982384}, {"current_trial": 172, "trialdata": {"rt": 2745, "trial_type": "text", "internal_node_id": "0.0-127.0", "time_elapsed": 3940115, "key_press": 32, "type": "INSTRUCTIONS", "trial_index": 172}, "uniqueid": "MTK2371:308Q0PEVB9KXJTQ5DK73VALUWQ6I9R", "dateTime": 1517005987130}, {"current_trial": 173, "trialdata": {"rt": [3379, 5060, 7186, 9181, 11313, 12696, 15632, 17478, 20811, 22805], "trial_type": "math-distractor", "key_times": [1130, 2651, 3128, 3236, 3379, 4687, 4884, 5060, 6819, 6985, 7186, 8745, 8861, 9181, 11127, 11313, 12318, 12696, 15297, 15388, 15632, 17095, 17297, 17478, 20472, 20582, 20811, 22252, 22465, 22805], "responses": ["10", "17", "16", "11", "7", "8", "21", "17", "16", "17"], "num2": [2, 7, 7, 2, 2, 3, 9, 4, 5, 6, 4], "num3": [7, 5, 6, 1, 3, 1, 8, 6, 9, 5, 3], "conditions": [12, 1600, "v", 24000], "internal_node_id": "0.0-128.0", "key_presses": [105, 8, 97, 96, 13, 97, 103, 13, 97, 102, 13, 97, 97, 13, 103, 13, 104, 13, 98, 97, 13, 97, 103, 13, 97, 102, 13, 97, 103, 13], "trial": 5, "time_elapsed": 3966118, "type": "DISTRACTOR", "trial_index": 173, "num1": [1, 7, 3, 8, 2, 4, 4, 7, 2, 6, 8]}, "uniqueid": "MTK2371:308Q0PEVB9KXJTQ5DK73VALUWQ6I9R", "dateTime": 1517006013132}, {"current_trial": 174, "trialdata": {"rt": -1, "trial_type": "single-stim", "stimulus": "<p id=\"stim\">10</p>", "internal_node_id": "0.0-129.0-0.0", "time_elapsed": 3969118, "key_press": -1, "trial_index": 174}, "uniqueid": "MTK2371:308Q0PEVB9KXJTQ5DK73VALUWQ6I9R", "dateTime": 1517006016132}, {"current_trial": 175, "trialdata": {"rt": -1, "trial_type": "single-stim", "stimulus": "<p id=\"stim\">9</p>", "internal_node_id": "0.0-129.0-1.0", "time_elapsed": 3970119, "key_press": -1, "trial_index": 175}, "uniqueid": "MTK2371:308Q0PEVB9KXJTQ5DK73VALUWQ6I9R", "dateTime": 1517006017134}, {"current_trial": 176, "trialdata": {"rt": -1, "trial_type": "single-stim", "stimulus": "<p id=\"stim\">8</p>", "internal_node_id": "0.0-129.0-2.0", "time_elapsed": 3971120, "key_press": -1, "trial_index": 176}, "uniqueid": "MTK2371:308Q0PEVB9KXJTQ5DK73VALUWQ6I9R", "dateTime": 1517006018134}, {"current_trial": 177, "trialdata": {"rt": -1, "trial_type": "single-stim", "stimulus": "<p id=\"stim\">7</p>", "internal_node_id": "0.0-129.0-3.0", "time_elapsed": 3972120, "key_press": -1, "trial_index": 177}, "uniqueid": "MTK2371:308Q0PEVB9KXJTQ5DK73VALUWQ6I9R", "dateTime": 1517006019134}, {"current_trial": 178, "trialdata": {"rt": -1, "trial_type": "single-stim", "stimulus": "<p id=\"stim\">6</p>", "internal_node_id": "0.0-129.0-4.0", "time_elapsed": 3973120, "key_press": -1, "trial_index": 178}, "uniqueid": "MTK2371:308Q0PEVB9KXJTQ5DK73VALUWQ6I9R", "dateTime": 1517006020134}, {"current_trial": 179, "trialdata": {"rt": -1, "trial_type": "single-stim", "stimulus": "<p id=\"stim\">5</p>", "internal_node_id": "0.0-129.0-5.0", "time_elapsed": 3974120, "key_press": -1, "trial_index": 179}, "uniqueid": "MTK2371:308Q0PEVB9KXJTQ5DK73VALUWQ6I9R", "dateTime": 1517006021135}, {"current_trial": 180, "trialdata": {"rt": -1, "trial_type": "single-stim", "stimulus": "<p id=\"stim\">4</p>", "internal_node_id": "0.0-129.0-6.0", "time_elapsed": 3975121, "key_press": -1, "trial_index": 180}, "uniqueid": "MTK2371:308Q0PEVB9KXJTQ5DK73VALUWQ6I9R", "dateTime": 1517006022136}, {"current_trial": 181, "trialdata": {"rt": -1, "trial_type": "single-stim", "stimulus": "<p id=\"stim\">3</p>", "internal_node_id": "0.0-129.0-7.0", "time_elapsed": 3976122, "key_press": -1, "trial_index": 181}, "uniqueid": "MTK2371:308Q0PEVB9KXJTQ5DK73VALUWQ6I9R", "dateTime": 1517006023137}, {"current_trial": 182, "trialdata": {"rt": -1, "trial_type": "single-stim", "stimulus": "<p id=\"stim\">2</p>", "internal_node_id": "0.0-129.0-8.0", "time_elapsed": 3977124, "key_press": -1, "trial_index": 182}, "uniqueid": "MTK2371:308Q0PEVB9KXJTQ5DK73VALUWQ6I9R", "dateTime": 1517006024138}, {"current_trial": 183, "trialdata": {"rt": -1, "trial_type": "single-stim", "stimulus": "<p id=\"stim\">1</p>", "internal_node_id": "0.0-129.0-9.0", "time_elapsed": 3978125, "key_press": -1, "trial_index": 183}, "uniqueid": "MTK2371:308Q0PEVB9KXJTQ5DK73VALUWQ6I9R", "dateTime": 1517006025139}, {"current_trial": 184, "trialdata": {"rt": -1, "trial_type": "single-stim", "stimulus": "<p id=\"stim\">+</p>", "internal_node_id": "0.0-130.0-0.0", "time_elapsed": 3979628, "key_press": -1, "type": "FIXATION", "trial_index": 184}, "uniqueid": "MTK2371:308Q0PEVB9KXJTQ5DK73VALUWQ6I9R", "dateTime": 1517006026643}, {"current_trial": 185, "trialdata": {"rt": -1, "trial_type": "single-stim", "word": "uncle", "stimulus": "<p id=\"stim\">UNCLE</p>", "conditions": [12, 1600, "v", 24000], "internal_node_id": "0.0-131.0", "trial": 5, "time_elapsed": 3981229, "serialpos": 0, "key_press": -1, "wordID": 1535, "type": "PRES_VIS", "trial_index": 185}, "uniqueid": "MTK2371:308Q0PEVB9KXJTQ5DK73VALUWQ6I9R", "dateTime": 1517006028243}, {"current_trial": 186, "trialdata": {"rt": -1, "trial_type": "single-stim", "word": "dandruff", "stimulus": "<p id=\"stim\">DANDRUFF</p>", "conditions": [12, 1600, "v", 24000], "internal_node_id": "0.0-132.0", "trial": 5, "time_elapsed": 3984017, "serialpos": 1, "key_press": -1, "wordID": 438, "type": "PRES_VIS", "trial_index": 186}, "uniqueid": "MTK2371:308Q0PEVB9KXJTQ5DK73VALUWQ6I9R", "dateTime": 1517006031032}, {"current_trial": 187, "trialdata": {"rt": -1, "trial_type": "single-stim", "word": "lace", "stimulus": "<p id=\"stim\">LACE</p>", "conditions": [12, 1600, "v", 24000], "internal_node_id": "0.0-133.0", "trial": 5, "time_elapsed": 3986490, "serialpos": 2, "key_press": -1, "wordID": 791, "type": "PRES_VIS", "trial_index": 187}, "uniqueid": "MTK2371:308Q0PEVB9KXJTQ5DK73VALUWQ6I9R", "dateTime": 1517006033504}, {"current_trial": 188, "trialdata": {"rt": -1, "trial_type": "single-stim", "word": "monster", "stimulus": "<p id=\"stim\">MONSTER</p>", "conditions": [12, 1600, "v", 24000], "internal_node_id": "0.0-134.0", "trial": 5, "time_elapsed": 3989223, "serialpos": 3, "key_press": -1, "wordID": 911, "type": "PRES_VIS", "trial_index": 188}, "uniqueid": "MTK2371:308Q0PEVB9KXJTQ5DK73VALUWQ6I9R", "dateTime": 1517006036237}, {"current_trial": 189, "trialdata": {"rt": -1, "trial_type": "single-stim", "word": "lover", "stimulus": "<p id=\"stim\">LOVER</p>", "conditions": [12, 1600, "v", 24000], "internal_node_id": "0.0-135.0", "trial": 5, "time_elapsed": 3991898, "serialpos": 4, "key_press": -1, "wordID": 845, "type": "PRES_VIS", "trial_index": 189}, "uniqueid": "MTK2371:308Q0PEVB9KXJTQ5DK73VALUWQ6I9R", "dateTime": 1517006038912}, {"current_trial": 190, "trialdata": {"rt": -1, "trial_type": "single-stim", "word": "hand", "stimulus": "<p id=\"stim\">HAND</p>", "conditions": [12, 1600, "v", 24000], "internal_node_id": "0.0-136.0", "trial": 5, "time_elapsed": 3994563, "serialpos": 5, "key_press": -1, "wordID": 682, "type": "PRES_VIS", "trial_index": 190}, "uniqueid": "MTK2371:308Q0PEVB9KXJTQ5DK73VALUWQ6I9R", "dateTime": 1517006041577}, {"current_trial": 191, "trialdata": {"rt": -1, "trial_type": "single-stim", "word": "suspect", "stimulus": "<p id=\"stim\">SUSPECT</p>", "conditions": [12, 1600, "v", 24000], "internal_node_id": "0.0-137.0", "trial": 5, "time_elapsed": 3997349, "serialpos": 6, "key_press": -1, "wordID": 1414, "type": "PRES_VIS", "trial_index": 191}, "uniqueid": "MTK2371:308Q0PEVB9KXJTQ5DK73VALUWQ6I9R", "dateTime": 1517006044363}, {"current_trial": 192, "trialdata": {"rt": -1, "trial_type": "single-stim", "word": "lake", "stimulus": "<p id=\"stim\">LAKE</p>", "conditions": [12, 1600, "v", 24000], "internal_node_id": "0.0-138.0", "trial": 5, "time_elapsed": 3999876, "serialpos": 7, "key_press": -1, "wordID": 795, "type": "PRES_VIS", "trial_index": 192}, "uniqueid": "MTK2371:308Q0PEVB9KXJTQ5DK73VALUWQ6I9R", "dateTime": 1517006046890}, {"current_trial": 193, "trialdata": {"rt": -1, "trial_type": "single-stim", "word": "lagoon", "stimulus": "<p id=\"stim\">LAGOON</p>", "conditions": [12, 1600, "v", 24000], "internal_node_id": "0.0-139.0", "trial": 5, "time_elapsed": 4002479, "serialpos": 8, "key_press": -1, "wordID": 794, "type": "PRES_VIS", "trial_index": 193}, "uniqueid": "MTK2371:308Q0PEVB9KXJTQ5DK73VALUWQ6I9R", "dateTime": 1517006049494}, {"current_trial": 194, "trialdata": {"rt": -1, "trial_type": "single-stim", "word": "silk", "stimulus": "<p id=\"stim\">SILK</p>", "conditions": [12, 1600, "v", 24000], "internal_node_id": "0.0-140.0", "trial": 5, "time_elapsed": 4005041, "serialpos": 9, "key_press": -1, "wordID": 1306, "type": "PRES_VIS", "trial_index": 194}, "uniqueid": "MTK2371:308Q0PEVB9KXJTQ5DK73VALUWQ6I9R", "dateTime": 1517006052055}, {"current_trial": 195, "trialdata": {"rt": -1, "trial_type": "single-stim", "word": "sword", "stimulus": "<p id=\"stim\">SWORD</p>", "conditions": [12, 1600, "v", 24000], "internal_node_id": "0.0-141.0", "trial": 5, "time_elapsed": 4007735, "serialpos": 10, "key_press": -1, "wordID": 1422, "type": "PRES_VIS", "trial_index": 195}, "uniqueid": "MTK2371:308Q0PEVB9KXJTQ5DK73VALUWQ6I9R", "dateTime": 1517006054749}, {"current_trial": 196, "trialdata": {"rt": -1, "trial_type": "single-stim", "word": "plaster", "stimulus": "<p id=\"stim\">PLASTER</p>", "conditions": [12, 1600, "v", 24000], "internal_node_id": "0.0-142.0", "trial": 5, "time_elapsed": 4010515, "serialpos": 11, "key_press": -1, "wordID": 1084, "type": "PRES_VIS", "trial_index": 196}, "uniqueid": "MTK2371:308Q0PEVB9KXJTQ5DK73VALUWQ6I9R", "dateTime": 1517006057529}, {"current_trial": 197, "trialdata": {"rt": -1, "trial_type": "single-stim", "stimulus": "", "internal_node_id": "0.0-143.0-0.0", "time_elapsed": 4012666, "key_press": -1, "type": "PRE_RECALL_DELAY", "trial_index": 197}, "uniqueid": "MTK2371:308Q0PEVB9KXJTQ5DK73VALUWQ6I9R", "dateTime": 1517006059680}, {"current_trial": 198, "trialdata": {"rt": -1000, "trial_type": "single-audio", "stimulus": "/static/audio/400Hz.wav", "internal_node_id": "0.0-144.0", "time_elapsed": 4013167, "key_press": -1, "type": "PRE_RECALL_ALERT", "trial_index": 198}, "uniqueid": "MTK2371:308Q0PEVB9KXJTQ5DK73VALUWQ6I9R", "dateTime": 1517006060181}, {"current_trial": 199, "trialdata": {"rt": [9256, 10936, 11830, 12648, 14044, 19659, 23534, 27503, 28242, 35678], "recwords": ["lace", "dandruff", "monster", "lover", "hand", "lake", "lagoon", "sword", "silk", "plaster"], "key_times": [8645, 8783, 8889, 8953, 9256, 9570, 9714, 9825, 9937, 10086, 10187, 10304, 10469, 10936, 11144, 11252, 11373, 11430, 11532, 11703, 11761, 11830, 11990, 12166, 12249, 12415, 12494, 12648, 13650, 13756, 13883, 13899, 14044, 19047, 19212, 19318, 19435, 19659, 21594, 21786, 21887, 22227, 22355, 22669, 22791, 22907, 23062, 23270, 23534, 26802, 27014, 27163, 27232, 27333, 27503, 27605, 27795, 27977, 28077, 28242, 34779, 34981, 35040, 35194, 35337, 35470, 35561, 35678], "trial_type": "free-recall", "conditions": [12, 1600, "v", 24000], "internal_node_id": "0.0-145.0-0.0", "key_presses": [76, 65, 67, 69, 13, 68, 65, 78, 68, 82, 85, 70, 70, 13, 77, 79, 78, 83, 84, 69, 82, 13, 76, 79, 86, 69, 82, 13, 72, 65, 78, 68, 13, 76, 65, 75, 69, 13, 76, 79, 71, 8, 8, 65, 71, 79, 79, 78, 13, 83, 87, 79, 82, 68, 13, 83, 73, 76, 75, 13, 80, 76, 65, 83, 84, 69, 82, 13], "trial": 5, "time_elapsed": 4073173, "type": "FREE_RECALL", "trial_index": 199}, "uniqueid": "MTK2371:308Q0PEVB9KXJTQ5DK73VALUWQ6I9R", "dateTime": 1517006120190}, {"current_trial": 200, "trialdata": {"rt": 2489, "trial_type": "text", "internal_node_id": "0.0-146.0", "time_elapsed": 4077665, "key_press": 32, "type": "INSTRUCTIONS", "trial_index": 200}, "uniqueid": "MTK2371:308Q0PEVB9KXJTQ5DK73VALUWQ6I9R", "dateTime": 1517006124679}, {"current_trial": 201, "trialdata": {"rt": [2476, 4035, 7284, 9874, 11964], "trial_type": "math-distractor", "key_times": [1760, 1902, 2476, 3652, 3854, 4035, 7008, 7126, 7284, 9572, 9714, 9874, 11555, 11746, 11964], "responses": ["10", "17", "20", "10", "16"], "num2": [1, 9, 6, 1, 7, 6], "num3": [8, 1, 5, 5, 7, 2], "conditions": [24, 800, "v", 12000], "internal_node_id": "0.0-147.0", "key_presses": [97, 96, 13, 97, 103, 13, 98, 96, 13, 97, 96, 13, 97, 102, 13], "trial": 6, "time_elapsed": 4091667, "type": "DISTRACTOR", "trial_index": 201, "num1": [1, 7, 9, 4, 2, 7]}, "uniqueid": "MTK2371:308Q0PEVB9KXJTQ5DK73VALUWQ6I9R", "dateTime": 1517006138681}, {"current_trial": 202, "trialdata": {"rt": -1, "trial_type": "single-stim", "stimulus": "<p id=\"stim\">10</p>", "internal_node_id": "0.0-148.0-0.0", "time_elapsed": 4094667, "key_press": -1, "trial_index": 202}, "uniqueid": "MTK2371:308Q0PEVB9KXJTQ5DK73VALUWQ6I9R", "dateTime": 1517006141681}, {"current_trial": 203, "trialdata": {"rt": -1, "trial_type": "single-stim", "stimulus": "<p id=\"stim\">9</p>", "internal_node_id": "0.0-148.0-1.0", "time_elapsed": 4095668, "key_press": -1, "trial_index": 203}, "uniqueid": "MTK2371:308Q0PEVB9KXJTQ5DK73VALUWQ6I9R", "dateTime": 1517006142682}, {"current_trial": 204, "trialdata": {"rt": -1, "trial_type": "single-stim", "stimulus": "<p id=\"stim\">8</p>", "internal_node_id": "0.0-148.0-2.0", "time_elapsed": 4096668, "key_press": -1, "trial_index": 204}, "uniqueid": "MTK2371:308Q0PEVB9KXJTQ5DK73VALUWQ6I9R", "dateTime": 1517006143683}, {"current_trial": 205, "trialdata": {"rt": -1, "trial_type": "single-stim", "stimulus": "<p id=\"stim\">7</p>", "internal_node_id": "0.0-148.0-3.0", "time_elapsed": 4097669, "key_press": -1, "trial_index": 205}, "uniqueid": "MTK2371:308Q0PEVB9KXJTQ5DK73VALUWQ6I9R", "dateTime": 1517006144683}, {"current_trial": 206, "trialdata": {"rt": -1, "trial_type": "single-stim", "stimulus": "<p id=\"stim\">6</p>", "internal_node_id": "0.0-148.0-4.0", "time_elapsed": 4098669, "key_press": -1, "trial_index": 206}, "uniqueid": "MTK2371:308Q0PEVB9KXJTQ5DK73VALUWQ6I9R", "dateTime": 1517006145684}, {"current_trial": 207, "trialdata": {"rt": -1, "trial_type": "single-stim", "stimulus": "<p id=\"stim\">5</p>", "internal_node_id": "0.0-148.0-5.0", "time_elapsed": 4099670, "key_press": -1, "trial_index": 207}, "uniqueid": "MTK2371:308Q0PEVB9KXJTQ5DK73VALUWQ6I9R", "dateTime": 1517006146684}, {"current_trial": 208, "trialdata": {"rt": -1, "trial_type": "single-stim", "stimulus": "<p id=\"stim\">4</p>", "internal_node_id": "0.0-148.0-6.0", "time_elapsed": 4100670, "key_press": -1, "trial_index": 208}, "uniqueid": "MTK2371:308Q0PEVB9KXJTQ5DK73VALUWQ6I9R", "dateTime": 1517006147685}, {"current_trial": 209, "trialdata": {"rt": -1, "trial_type": "single-stim", "stimulus": "<p id=\"stim\">3</p>", "internal_node_id": "0.0-148.0-7.0", "time_elapsed": 4101671, "key_press": -1, "trial_index": 209}, "uniqueid": "MTK2371:308Q0PEVB9KXJTQ5DK73VALUWQ6I9R", "dateTime": 1517006148686}, {"current_trial": 210, "trialdata": {"rt": -1, "trial_type": "single-stim", "stimulus": "<p id=\"stim\">2</p>", "internal_node_id": "0.0-148.0-8.0", "time_elapsed": 4102672, "key_press": -1, "trial_index": 210}, "uniqueid": "MTK2371:308Q0PEVB9KXJTQ5DK73VALUWQ6I9R", "dateTime": 1517006149688}, {"current_trial": 211, "trialdata": {"rt": -1, "trial_type": "single-stim", "stimulus": "<p id=\"stim\">1</p>", "internal_node_id": "0.0-148.0-9.0", "time_elapsed": 4103675, "key_press": -1, "trial_index": 211}, "uniqueid": "MTK2371:308Q0PEVB9KXJTQ5DK73VALUWQ6I9R", "dateTime": 1517006150689}, {"current_trial": 212, "trialdata": {"rt": -1, "trial_type": "single-stim", "stimulus": "<p id=\"stim\">+</p>", "internal_node_id": "0.0-149.0-0.0", "time_elapsed": 4105175, "key_press": -1, "type": "FIXATION", "trial_index": 212}, "uniqueid": "MTK2371:308Q0PEVB9KXJTQ5DK73VALUWQ6I9R", "dateTime": 1517006152189}, {"current_trial": 213, "trialdata": {"rt": -1, "trial_type": "single-stim", "word": "garden", "stimulus": "<p id=\"stim\">GARDEN</p>", "conditions": [24, 800, "v", 12000], "internal_node_id": "0.0-150.0", "trial": 6, "time_elapsed": 4105976, "serialpos": 0, "key_press": -1, "wordID": 622, "type": "PRES_VIS", "trial_index": 213}, "uniqueid": "MTK2371:308Q0PEVB9KXJTQ5DK73VALUWQ6I9R", "dateTime": 1517006152990}, {"current_trial": 214, "trialdata": {"rt": -1, "trial_type": "single-stim", "word": "knapsack", "stimulus": "<p id=\"stim\">KNAPSACK</p>", "conditions": [24, 800, "v", 12000], "internal_node_id": "0.0-151.0", "trial": 6, "time_elapsed": 4107749, "serialpos": 1, "key_press": -1, "wordID": 782, "type": "PRES_VIS", "trial_index": 214}, "uniqueid": "MTK2371:308Q0PEVB9KXJTQ5DK73VALUWQ6I9R", "dateTime": 1517006154764}, {"current_trial": 215, "trialdata": {"rt": -1, "trial_type": "single-stim", "word": "teacher", "stimulus": "<p id=\"stim\">TEACHER</p>", "conditions": [24, 800, "v", 12000], "internal_node_id": "0.0-152.0", "trial": 6, "time_elapsed": 4109673, "serialpos": 2, "key_press": -1, "wordID": 1439, "type": "PRES_VIS", "trial_index": 215}, "uniqueid": "MTK2371:308Q0PEVB9KXJTQ5DK73VALUWQ6I9R", "dateTime": 1517006156687}, {"current_trial": 216, "trialdata": {"rt": -1, "trial_type": "single-stim", "word": "ozone", "stimulus": "<p id=\"stim\">OZONE</p>", "conditions": [24, 800, "v", 12000], "internal_node_id": "0.0-153.0", "trial": 6, "time_elapsed": 4111612, "serialpos": 3, "key_press": -1, "wordID": 995, "type": "PRES_VIS", "trial_index": 216}, "uniqueid": "MTK2371:308Q0PEVB9KXJTQ5DK73VALUWQ6I9R", "dateTime": 1517006158626}, {"current_trial": 217, "trialdata": {"rt": -1, "trial_type": "single-stim", "word": "flower", "stimulus": "<p id=\"stim\">FLOWER</p>", "conditions": [24, 800, "v", 12000], "internal_node_id": "0.0-154.0", "trial": 6, "time_elapsed": 4113316, "serialpos": 4, "key_press": -1, "wordID": 583, "type": "PRES_VIS", "trial_index": 217}, "uniqueid": "MTK2371:308Q0PEVB9KXJTQ5DK73VALUWQ6I9R", "dateTime": 1517006160331}, {"current_trial": 218, "trialdata": {"rt": -1, "trial_type": "single-stim", "word": "briefcase", "stimulus": "<p id=\"stim\">BRIEFCASE</p>", "conditions": [24, 800, "v", 12000], "internal_node_id": "0.0-155.0", "trial": 6, "time_elapsed": 4115089, "serialpos": 5, "key_press": -1, "wordID": 174, "type": "PRES_VIS", "trial_index": 218}, "uniqueid": "MTK2371:308Q0PEVB9KXJTQ5DK73VALUWQ6I9R", "dateTime": 1517006162103}, {"current_trial": 219, "trialdata": {"rt": -1, "trial_type": "single-stim", "word": "handbag", "stimulus": "<p id=\"stim\">HANDBAG</p>", "conditions": [24, 800, "v", 12000], "internal_node_id": "0.0-156.0", "trial": 6, "time_elapsed": 4117010, "serialpos": 6, "key_press": -1, "wordID": 683, "type": "PRES_VIS", "trial_index": 219}, "uniqueid": "MTK2371:308Q0PEVB9KXJTQ5DK73VALUWQ6I9R", "dateTime": 1517006164024}, {"current_trial": 220, "trialdata": {"rt": -1, "trial_type": "single-stim", "word": "cod", "stimulus": "<p id=\"stim\">COD</p>", "conditions": [24, 800, "v", 12000], "internal_node_id": "0.0-157.0", "trial": 6, "time_elapsed": 4118828, "serialpos": 7, "key_press": -1, "wordID": 339, "type": "PRES_VIS", "trial_index": 220}, "uniqueid": "MTK2371:308Q0PEVB9KXJTQ5DK73VALUWQ6I9R", "dateTime": 1517006165842}, {"current_trial": 221, "trialdata": {"rt": -1, "trial_type": "single-stim", "word": "spider", "stimulus": "<p id=\"stim\">SPIDER</p>", "conditions": [24, 800, "v", 12000], "internal_node_id": "0.0-158.0", "trial": 6, "time_elapsed": 4120606, "serialpos": 8, "key_press": -1, "wordID": 1350, "type": "PRES_VIS", "trial_index": 221}, "uniqueid": "MTK2371:308Q0PEVB9KXJTQ5DK73VALUWQ6I9R", "dateTime": 1517006167620}, {"current_trial": 222, "trialdata": {"rt": -1, "trial_type": "single-stim", "word": "pebble", "stimulus": "<p id=\"stim\">PEBBLE</p>", "conditions": [24, 800, "v", 12000], "internal_node_id": "0.0-159.0", "trial": 6, "time_elapsed": 4122505, "serialpos": 9, "key_press": -1, "wordID": 1034, "type": "PRES_VIS", "trial_index": 222}, "uniqueid": "MTK2371:308Q0PEVB9KXJTQ5DK73VALUWQ6I9R", "dateTime": 1517006169519}, {"current_trial": 223, "trialdata": {"rt": -1, "trial_type": "single-stim", "word": "hornet", "stimulus": "<p id=\"stim\">HORNET</p>", "conditions": [24, 800, "v", 12000], "internal_node_id": "0.0-160.0", "trial": 6, "time_elapsed": 4124304, "serialpos": 10, "key_press": -1, "wordID": 717, "type": "PRES_VIS", "trial_index": 223}, "uniqueid": "MTK2371:308Q0PEVB9KXJTQ5DK73VALUWQ6I9R", "dateTime": 1517006171318}, {"current_trial": 224, "trialdata": {"rt": -1, "trial_type": "single-stim", "word": "finger", "stimulus": "<p id=\"stim\">FINGER</p>", "conditions": [24, 800, "v", 12000], "internal_node_id": "0.0-161.0", "trial": 6, "time_elapsed": 4126107, "serialpos": 11, "key_press": -1, "wordID": 566, "type": "PRES_VIS", "trial_index": 224}, "uniqueid": "MTK2371:308Q0PEVB9KXJTQ5DK73VALUWQ6I9R", "dateTime": 1517006173121}, {"current_trial": 225, "trialdata": {"rt": -1, "trial_type": "single-stim", "word": "river", "stimulus": "<p id=\"stim\">RIVER</p>", "conditions": [24, 800, "v", 12000], "internal_node_id": "0.0-162.0", "trial": 6, "time_elapsed": 4127774, "serialpos": 12, "key_press": -1, "wordID": 1193, "type": "PRES_VIS", "trial_index": 225}, "uniqueid": "MTK2371:308Q0PEVB9KXJTQ5DK73VALUWQ6I9R", "dateTime": 1517006174788}, {"current_trial": 226, "trialdata": {"rt": -1, "trial_type": "single-stim", "word": "lamp", "stimulus": "<p id=\"stim\">LAMP</p>", "conditions": [24, 800, "v", 12000], "internal_node_id": "0.0-163.0", "trial": 6, "time_elapsed": 4129624, "serialpos": 13, "key_press": -1, "wordID": 797, "type": "PRES_VIS", "trial_index": 226}, "uniqueid": "MTK2371:308Q0PEVB9KXJTQ5DK73VALUWQ6I9R", "dateTime": 1517006176638}, {"current_trial": 227, "trialdata": {"rt": -1, "trial_type": "single-stim", "word": "sister", "stimulus": "<p id=\"stim\">SISTER</p>", "conditions": [24, 800, "v", 12000], "internal_node_id": "0.0-164.0", "trial": 6, "time_elapsed": 4131394, "serialpos": 14, "key_press": -1, "wordID": 1311, "type": "PRES_VIS", "trial_index": 227}, "uniqueid": "MTK2371:308Q0PEVB9KXJTQ5DK73VALUWQ6I9R", "dateTime": 1517006178408}, {"current_trial": 228, "trialdata": {"rt": -1, "trial_type": "single-stim", "word": "canyon", "stimulus": "<p id=\"stim\">CANYON</p>", "conditions": [24, 800, "v", 12000], "internal_node_id": "0.0-165.0", "trial": 6, "time_elapsed": 4133361, "serialpos": 15, "key_press": -1, "wordID": 234, "type": "PRES_VIS", "trial_index": 228}, "uniqueid": "MTK2371:308Q0PEVB9KXJTQ5DK73VALUWQ6I9R", "dateTime": 1517006180375}, {"current_trial": 229, "trialdata": {"rt": -1, "trial_type": "single-stim", "word": "valley", "stimulus": "<p id=\"stim\">VALLEY</p>", "conditions": [24, 800, "v", 12000], "internal_node_id": "0.0-166.0", "trial": 6, "time_elapsed": 4135183, "serialpos": 16, "key_press": -1, "wordID": 1544, "type": "PRES_VIS", "trial_index": 229}, "uniqueid": "MTK2371:308Q0PEVB9KXJTQ5DK73VALUWQ6I9R", "dateTime": 1517006182197}, {"current_trial": 230, "trialdata": {"rt": -1, "trial_type": "single-stim", "word": "wasp", "stimulus": "<p id=\"stim\">WASP</p>", "conditions": [24, 800, "v", 12000], "internal_node_id": "0.0-167.0", "trial": 6, "time_elapsed": 4137174, "serialpos": 17, "key_press": -1, "wordID": 1592, "type": "PRES_VIS", "trial_index": 230}, "uniqueid": "MTK2371:308Q0PEVB9KXJTQ5DK73VALUWQ6I9R", "dateTime": 1517006184188}, {"current_trial": 231, "trialdata": {"rt": -1, "trial_type": "single-stim", "word": "patient", "stimulus": "<p id=\"stim\">PATIENT</p>", "conditions": [24, 800, "v", 12000], "internal_node_id": "0.0-168.0", "trial": 6, "time_elapsed": 4139081, "serialpos": 18, "key_press": -1, "wordID": 1023, "type": "PRES_VIS", "trial_index": 231}, "uniqueid": "MTK2371:308Q0PEVB9KXJTQ5DK73VALUWQ6I9R", "dateTime": 1517006186095}, {"current_trial": 232, "trialdata": {"rt": -1, "trial_type": "single-stim", "word": "marine", "stimulus": "<p id=\"stim\">MARINE</p>", "conditions": [24, 800, "v", 12000], "internal_node_id": "0.0-169.0", "trial": 6, "time_elapsed": 4140802, "serialpos": 19, "key_press": -1, "wordID": 868, "type": "PRES_VIS", "trial_index": 232}, "uniqueid": "MTK2371:308Q0PEVB9KXJTQ5DK73VALUWQ6I9R", "dateTime": 1517006187816}, {"current_trial": 233, "trialdata": {"rt": -1, "trial_type": "single-stim", "word": "canal", "stimulus": "<p id=\"stim\">CANAL</p>", "conditions": [24, 800, "v", 12000], "internal_node_id": "0.0-170.0", "trial": 6, "time_elapsed": 4142460, "serialpos": 20, "key_press": -1, "wordID": 225, "type": "PRES_VIS", "trial_index": 233}, "uniqueid": "MTK2371:308Q0PEVB9KXJTQ5DK73VALUWQ6I9R", "dateTime": 1517006189474}, {"current_trial": 234, "trialdata": {"rt": -1, "trial_type": "single-stim", "word": "snack", "stimulus": "<p id=\"stim\">SNACK</p>", "conditions": [24, 800, "v", 12000], "internal_node_id": "0.0-171.0", "trial": 6, "time_elapsed": 4144258, "serialpos": 21, "key_press": -1, "wordID": 1330, "type": "PRES_VIS", "trial_index": 234}, "uniqueid": "MTK2371:308Q0PEVB9KXJTQ5DK73VALUWQ6I9R", "dateTime": 1517006191272}, {"current_trial": 235, "trialdata": {"rt": -1, "trial_type": "single-stim", "word": "puddle", "stimulus": "<p id=\"stim\">PUDDLE</p>", "conditions": [24, 800, "v", 12000], "internal_node_id": "0.0-172.0", "trial": 6, "time_elapsed": 4146118, "serialpos": 22, "key_press": -1, "wordID": 1139, "type": "PRES_VIS", "trial_index": 235}, "uniqueid": "MTK2371:308Q0PEVB9KXJTQ5DK73VALUWQ6I9R", "dateTime": 1517006193132}, {"current_trial": 236, "trialdata": {"rt": -1, "trial_type": "single-stim", "word": "boyfriend", "stimulus": "<p id=\"stim\">BOYFRIEND</p>", "conditions": [24, 800, "v", 12000], "internal_node_id": "0.0-173.0", "trial": 6, "time_elapsed": 4147940, "serialpos": 23, "key_press": -1, "wordID": 161, "type": "PRES_VIS", "trial_index": 236}, "uniqueid": "MTK2371:308Q0PEVB9KXJTQ5DK73VALUWQ6I9R", "dateTime": 1517006194955}, {"current_trial": 237, "trialdata": {"rt": -1, "trial_type": "single-stim", "stimulus": "", "internal_node_id": "0.0-174.0-0.0", "time_elapsed": 4150100, "key_press": -1, "type": "PRE_RECALL_DELAY", "trial_index": 237}, "uniqueid": "MTK2371:308Q0PEVB9KXJTQ5DK73VALUWQ6I9R", "dateTime": 1517006197114}, {"current_trial": 238, "trialdata": {"rt": -1000, "trial_type": "single-audio", "stimulus": "/static/audio/400Hz.wav", "internal_node_id": "0.0-175.0", "time_elapsed": 4150601, "key_press": -1, "type": "PRE_RECALL_ALERT", "trial_index": 238}, "uniqueid": "MTK2371:308Q0PEVB9KXJTQ5DK73VALUWQ6I9R", "dateTime": 1517006197615}, {"current_trial": 239, "trialdata": {"rt": [6965, 8619, 9530, 12145, 14480, 15113, 26276, 27020, 28296, 29062, 31296, 33237, 38365], "recwords": ["teaher", "ozone", "flower", "briefcase", "handbag", "cod", "lamp", "river", "sister", "finger", "vallye", "canyon", "canal"], "key_times": [5514, 5652, 5769, 5937, 6067, 6237, 6965, 7613, 7746, 7939, 8060, 8368, 8619, 8858, 8965, 9146, 9199, 9290, 9359, 9530, 10343, 10587, 10720, 10784, 10902, 11130, 11204, 11353, 11449, 12145, 12790, 12895, 13012, 13092, 13384, 13890, 14002, 14183, 14258, 14480, 14629, 14725, 14820, 15113, 21203, 21383, 23138, 23303, 23458, 23586, 24851, 24995, 25345, 25568, 25696, 25797, 25888, 25946, 26276, 26440, 26541, 26660, 26855, 26935, 27020, 27111, 27265, 27430, 27892, 28110, 28185, 28296, 28440, 28562, 28642, 28711, 28876, 28951, 29062, 30546, 30658, 30795, 30950, 31040, 31104, 31296, 31833, 31945, 32498, 32695, 32806, 32914, 33237, 37781, 37896, 38018, 38093, 38215, 38365], "trial_type": "free-recall", "conditions": [24, 800, "v", 12000], "internal_node_id": "0.0-176.0-0.0", "key_presses": [84, 69, 65, 72, 69, 82, 13, 79, 90, 79, 78, 69, 13, 70, 76, 79, 87, 69, 82, 13, 66, 82, 73, 69, 70, 67, 65, 83, 69, 13, 72, 65, 78, 68, 65, 8, 66, 65, 71, 13, 67, 79, 68, 13, 70, 73, 8, 8, 8, 8, 76, 83, 65, 8, 8, 65, 77, 80, 13, 82, 73, 86, 69, 82, 13, 83, 73, 83, 84, 69, 82, 13, 70, 73, 78, 71, 69, 82, 13, 86, 65, 76, 76, 89, 69, 13, 67, 65, 78, 89, 79, 78, 13, 67, 65, 78, 65, 76, 13], "trial": 6, "time_elapsed": 4210604, "type": "FREE_RECALL", "trial_index": 239}, "uniqueid": "MTK2371:308Q0PEVB9KXJTQ5DK73VALUWQ6I9R", "dateTime": 1517006257622}, {"current_trial": 240, "trialdata": {"rt": 27186, "trial_type": "text", "internal_node_id": "0.0-177.0", "time_elapsed": 4239794, "key_press": 32, "type": "INSTRUCTIONS", "trial_index": 240}, "uniqueid": "MTK2371:308Q0PEVB9KXJTQ5DK73VALUWQ6I9R", "dateTime": 1517006286808}, {"current_trial": 241, "trialdata": {"rt": [3876, 5791, 10082], "trial_type": "math-distractor", "key_times": [3413, 3616, 3876, 5413, 5578, 5791, 8365, 9028, 9491, 9656, 10082, 11998], "responses": ["15", "16", "20"], "num2": [2, 5, 9, 4], "num3": [9, 9, 4, 1], "conditions": [12, 1600, "v", 12000], "internal_node_id": "0.0-178.0", "key_presses": [97, 101, 13, 97, 102, 13, 96, 8, 98, 96, 13, 103], "trial": 7, "time_elapsed": 4253801, "type": "DISTRACTOR", "trial_index": 241, "num1": [4, 2, 7, 2]}, "uniqueid": "MTK2371:308Q0PEVB9KXJTQ5DK73VALUWQ6I9R", "dateTime": 1517006300815}, {"current_trial": 242, "trialdata": {"rt": -1, "trial_type": "single-stim", "stimulus": "<p id=\"stim\">10</p>", "internal_node_id": "0.0-179.0-0.0", "time_elapsed": 4256802, "key_press": -1, "trial_index": 242}, "uniqueid": "MTK2371:308Q0PEVB9KXJTQ5DK73VALUWQ6I9R", "dateTime": 1517006303816}, {"current_trial": 243, "trialdata": {"rt": -1, "trial_type": "single-stim", "stimulus": "<p id=\"stim\">9</p>", "internal_node_id": "0.0-179.0-1.0", "time_elapsed": 4257802, "key_press": -1, "trial_index": 243}, "uniqueid": "MTK2371:308Q0PEVB9KXJTQ5DK73VALUWQ6I9R", "dateTime": 1517006304816}, {"current_trial": 244, "trialdata": {"rt": -1, "trial_type": "single-stim", "stimulus": "<p id=\"stim\">8</p>