{"assignmentId": "3TXMY6UCAFVCYPLR2CM362DOTOEQCD", "workerId": "MTK2393", "questiondata": {"origin": "United States", "strat-rehearsal": "82", "marital": "Married/Domestic Partnership", "education": "Bachelor's degree", "ethnicity": "Not Hispanic", "color_depth": 24, "distracted": "No", "wrote-notes": "No", "strat-other": "", "screen_width": 1280, "avail_screen_width": 1280, "avail_screen_height": 674, "strat-image": "11", "language": "English", "gender": "Male", "age": "27", "gender_other": "", "race": ["White"], "strat-categorize": "73", "pixel_depth": 24, "strat-spatial": "2", "strat-story": "60", "race_other": "", "screen_height": 800}, "bonus": 0, "hitId": "3IH9TRB0FB6D74PGJ5N8RK7RFIR1IO", "counterbalance": 2947, "useragent": "Mozilla/5.0 (Macintosh; Intel Mac OS X 10_13_2) AppleWebKit/537.36 (KHTML, like Gecko) Chrome/63.0.3239.132 Safari/537.36", "eventdata": [{"eventtype": "initialized", "interval": 0, "value": null, "timestamp": 1517074270820}, {"eventtype": "window_resize", "interval": 0, "value": [1280, 703], "timestamp": 1517074270820}, {"eventtype": "focus", "interval": 67835, "value": "off", "timestamp": 1517074338655}, {"eventtype": "focus", "interval": 3515, "value": "on", "timestamp": 1517074342170}, {"eventtype": "focus", "interval": 189679, "value": "off", "timestamp": 1517074531849}, {"eventtype": "focus", "interval": 1648, "value": "on", "timestamp": 1517074533497}, {"eventtype": "focus", "interval": 778, "value": "off", "timestamp": 1517074534275}, {"eventtype": "focus", "interval": 4805, "value": "on", "timestamp": 1517074539080}, {"eventtype": "focus", "interval": 913877, "value": "off", "timestamp": 1517075452957}, {"eventtype": "focus", "interval": 917, "value": "on", "timestamp": 1517075453874}, {"eventtype": "focus", "interval": 167099, "value": "off", "timestamp": 1517075620973}, {"eventtype": "focus", "interval": 3775, "value": "on", "timestamp": 1517075624748}, {"eventtype": "focus", "interval": 741760, "value": "off", "timestamp": 1517076366508}, {"eventtype": "focus", "interval": 1321, "value": "on", "timestamp": 1517076367829}, {"eventtype": "focus", "interval": 226658, "value": "off", "timestamp": 1517076594487}, {"eventtype": "focus", "interval": 3349, "value": "on", "timestamp": 1517076597836}, {"eventtype": "focus", "interval": 12462, "value": "off", "timestamp": 1517076610298}, {"eventtype": "focus", "interval": 810, "value": "on", "timestamp": 1517076611108}, {"eventtype": "focus", "interval": 81545, "value": "off", "timestamp": 1517076692653}, {"eventtype": "focus", "interval": 1674, "value": "on", "timestamp": 1517076694327}, {"eventtype": "focus", "interval": 1084, "value": "off", "timestamp": 1517076695411}, {"eventtype": "focus", "interval": 778, "value": "on", "timestamp": 1517076696189}, {"eventtype": "focus", "interval": 300480, "value": "off", "timestamp": 1517076996669}, {"eventtype": "focus", "interval": 1889, "value": "on", "timestamp": 1517076998558}, {"eventtype": "focus", "interval": 402874, "value": "off", "timestamp": 1517077401432}, {"eventtype": "focus", "interval": 10971, "value": "on", "timestamp": 1517077412403}, {"eventtype": "focus", "interval": 3, "value": "off", "timestamp": 1517077412406}, {"eventtype": "focus", "interval": 0, "value": "on", "timestamp": 1517077412406}, {"eventtype": "focus", "interval": 945, "value": "off", "timestamp": 1517077413351}, {"eventtype": "focus", "interval": 2806, "value": "on", "timestamp": 1517077416157}], "data": [{"current_trial": 0, "trialdata": {"rt": 28861, "trial_type": "text", "internal_node_id": "0.0-0.0", "time_elapsed": 28863, "key_press": 32, "type": "INSTRUCTIONS", "trial_index": 0}, "uniqueid": "MTK2393:3TXMY6UCAFVCYPLR2CM362DOTOEQCD", "dateTime": 1517074320795}, {"current_trial": 1, "trialdata": {"rt": 39348, "trial_type": "text", "internal_node_id": "0.0-1.0", "time_elapsed": 68214, "key_press": 32, "type": "INSTRUCTIONS", "trial_index": 1}, "uniqueid": "MTK2393:3TXMY6UCAFVCYPLR2CM362DOTOEQCD", "dateTime": 1517074360145}, {"current_trial": 2, "trialdata": {"rt": [6757], "trial_type": "audio-test", "responses": ["ocean"], "internal_node_id": "0.0-2.0", "time_elapsed": 74983, "type": "AUDIO_TEST", "trial_index": 2}, "uniqueid": "MTK2393:3TXMY6UCAFVCYPLR2CM362DOTOEQCD", "dateTime": 1517074366914}, {"current_trial": 3, "trialdata": {"rt": [13013], "trial_type": "audio-test", "responses": ["crystal"], "internal_node_id": "0.0-3.0", "time_elapsed": 88000, "type": "AUDIO_TEST", "trial_index": 3}, "uniqueid": "MTK2393:3TXMY6UCAFVCYPLR2CM362DOTOEQCD", "dateTime": 1517074379931}, {"current_trial": 4, "trialdata": {"rt": [10147], "trial_type": "audio-test", "responses": ["spice"], "internal_node_id": "0.0-4.0", "time_elapsed": 98151, "type": "AUDIO_TEST", "trial_index": 4}, "uniqueid": "MTK2393:3TXMY6UCAFVCYPLR2CM362DOTOEQCD", "dateTime": 1517074390082}, {"current_trial": 5, "trialdata": {"rt": 20928, "trial_type": "survey-text", "responses": "{\"Q0\":\"11:30pm\",\"Q1\":\"7:00am\",\"Q2\":\"5\"}", "internal_node_id": "0.0-5.0", "time_elapsed": 119837, "type": "SLEEP_SURVEY", "trial_index": 5}, "uniqueid": "MTK2393:3TXMY6UCAFVCYPLR2CM362DOTOEQCD", "dateTime": 1517074411768}, {"current_trial": 6, "trialdata": {"rt": 40224, "trial_type": "text", "internal_node_id": "0.0-6.0", "time_elapsed": 161065, "key_press": 32, "type": "INSTRUCTIONS", "trial_index": 6}, "uniqueid": "MTK2393:3TXMY6UCAFVCYPLR2CM362DOTOEQCD", "dateTime": 1517074452996}, {"current_trial": 7, "trialdata": {"rt": 26998, "trial_type": "text", "internal_node_id": "0.0-7.0", "time_elapsed": 188566, "key_press": 32, "type": "INSTRUCTIONS", "trial_index": 7}, "uniqueid": "MTK2393:3TXMY6UCAFVCYPLR2CM362DOTOEQCD", "dateTime": 1517074480497}, {"current_trial": 8, "trialdata": {"rt": 14691, "trial_type": "text", "internal_node_id": "0.0-8.0", "time_elapsed": 203760, "key_press": 32, "type": "INSTRUCTIONS", "trial_index": 8}, "uniqueid": "MTK2393:3TXMY6UCAFVCYPLR2CM362DOTOEQCD", "dateTime": 1517074495691}, {"current_trial": 9, "trialdata": {"rt": [3121, 4750, 6152, 8055, 10204, 12383, 15061, 17836], "trial_type": "math-distractor", "key_times": [2342, 2455, 3121, 4458, 4585, 4750, 5920, 6053, 6152, 7771, 7940, 8055, 9708, 10070, 10204, 11767, 12088, 12383, 14573, 14945, 15061, 17482, 17684, 17836], "responses": ["16", "11", "11", "13", "17", "14", "15", "14"], "num2": [2, 3, 1, 1, 4, 2, 1, 8, 5], "num3": [8, 7, 3, 5, 5, 8, 8, 3, 4], "conditions": [18, 1200, "a", 18000], "internal_node_id": "0.0-9.0", "key_presses": [49, 54, 13, 49, 49, 13, 49, 49, 13, 49, 51, 13, 49, 55, 13, 49, 52, 13, 49, 53, 13, 49, 52, 13], "trial": 0, "time_elapsed": 222773, "type": "DISTRACTOR", "trial_index": 9, "num1": [6, 1, 7, 7, 8, 4, 6, 3, 1]}, "uniqueid": "MTK2393:3TXMY6UCAFVCYPLR2CM362DOTOEQCD", "dateTime": 1517074514704}, {"current_trial": 10, "trialdata": {"rt": -1, "trial_type": "single-stim", "stimulus": "<p id=\"stim\">10</p>", "internal_node_id": "0.0-10.0-0.0", "time_elapsed": 225780, "key_press": -1, "trial_index": 10}, "uniqueid": "MTK2393:3TXMY6UCAFVCYPLR2CM362DOTOEQCD", "dateTime": 1517074517712}, {"current_trial": 11, "trialdata": {"rt": -1, "trial_type": "single-stim", "stimulus": "<p id=\"stim\">9</p>", "internal_node_id": "0.0-10.0-1.0", "time_elapsed": 226785, "key_press": -1, "trial_index": 11}, "uniqueid": "MTK2393:3TXMY6UCAFVCYPLR2CM362DOTOEQCD", "dateTime": 1517074518716}, {"current_trial": 12, "trialdata": {"rt": -1, "trial_type": "single-stim", "stimulus": "<p id=\"stim\">8</p>", "internal_node_id": "0.0-10.0-2.0", "time_elapsed": 227789, "key_press": -1, "trial_index": 12}, "uniqueid": "MTK2393:3TXMY6UCAFVCYPLR2CM362DOTOEQCD", "dateTime": 1517074519720}, {"current_trial": 13, "trialdata": {"rt": -1, "trial_type": "single-stim", "stimulus": "<p id=\"stim\">7</p>", "internal_node_id": "0.0-10.0-3.0", "time_elapsed": 228792, "key_press": -1, "trial_index": 13}, "uniqueid": "MTK2393:3TXMY6UCAFVCYPLR2CM362DOTOEQCD", "dateTime": 1517074520724}, {"current_trial": 14, "trialdata": {"rt": -1, "trial_type": "single-stim", "stimulus": "<p id=\"stim\">6</p>", "internal_node_id": "0.0-10.0-4.0", "time_elapsed": 229797, "key_press": -1, "trial_index": 14}, "uniqueid": "MTK2393:3TXMY6UCAFVCYPLR2CM362DOTOEQCD", "dateTime": 1517074521728}, {"current_trial": 15, "trialdata": {"rt": -1, "trial_type": "single-stim", "stimulus": "<p id=\"stim\">5</p>", "internal_node_id": "0.0-10.0-5.0", "time_elapsed": 230801, "key_press": -1, "trial_index": 15}, "uniqueid": "MTK2393:3TXMY6UCAFVCYPLR2CM362DOTOEQCD", "dateTime": 1517074522732}, {"current_trial": 16, "trialdata": {"rt": -1, "trial_type": "single-stim", "stimulus": "<p id=\"stim\">4</p>", "internal_node_id": "0.0-10.0-6.0", "time_elapsed": 231805, "key_press": -1, "trial_index": 16}, "uniqueid": "MTK2393:3TXMY6UCAFVCYPLR2CM362DOTOEQCD", "dateTime": 1517074523736}, {"current_trial": 17, "trialdata": {"rt": -1, "trial_type": "single-stim", "stimulus": "<p id=\"stim\">3</p>", "internal_node_id": "0.0-10.0-7.0", "time_elapsed": 232808, "key_press": -1, "trial_index": 17}, "uniqueid": "MTK2393:3TXMY6UCAFVCYPLR2CM362DOTOEQCD", "dateTime": 1517074524739}, {"current_trial": 18, "trialdata": {"rt": -1, "trial_type": "single-stim", "stimulus": "<p id=\"stim\">2</p>", "internal_node_id": "0.0-10.0-8.0", "time_elapsed": 233813, "key_press": -1, "trial_index": 18}, "uniqueid": "MTK2393:3TXMY6UCAFVCYPLR2CM362DOTOEQCD", "dateTime": 1517074525744}, {"current_trial": 19, "trialdata": {"rt": -1, "trial_type": "single-stim", "stimulus": "<p id=\"stim\">1</p>", "internal_node_id": "0.0-10.0-9.0", "time_elapsed": 234817, "key_press": -1, "trial_index": 19}, "uniqueid": "MTK2393:3TXMY6UCAFVCYPLR2CM362DOTOEQCD", "dateTime": 1517074526748}, {"current_trial": 20, "trialdata": {"rt": -1, "trial_type": "single-stim", "stimulus": "<p id=\"stim\">+</p>", "internal_node_id": "0.0-11.0-0.0", "time_elapsed": 236321, "key_press": -1, "type": "FIXATION", "trial_index": 20}, "uniqueid": "MTK2393:3TXMY6UCAFVCYPLR2CM362DOTOEQCD", "dateTime": 1517074528252}, {"current_trial": 21, "trialdata": {"rt": -1000, "trial_type": "single-audio", "word": "chapel", "stimulus": "/static/audio/wordpool/CHAPEL.wav", "conditions": [18, 1200, "a", 18000], "internal_node_id": "0.0-12.0", "trial": 0, "time_elapsed": 238512, "serialpos": 0, "key_press": -1, "wordID": 279, "type": "PRES_AUD", "trial_index": 21}, "uniqueid": "MTK2393:3TXMY6UCAFVCYPLR2CM362DOTOEQCD", "dateTime": 1517074530443}, {"current_trial": 22, "trialdata": {"rt": -1000, "trial_type": "single-audio", "word": "record", "stimulus": "/static/audio/wordpool/RECORD.wav", "conditions": [18, 1200, "a", 18000], "internal_node_id": "0.0-13.0", "trial": 0, "time_elapsed": 240908, "serialpos": 1, "key_press": -1, "wordID": 1175, "type": "PRES_AUD", "trial_index": 22}, "uniqueid": "MTK2393:3TXMY6UCAFVCYPLR2CM362DOTOEQCD", "dateTime": 1517074532839}, {"current_trial": 23, "trialdata": {"rt": -1000, "trial_type": "single-audio", "word": "arm", "stimulus": "/static/audio/wordpool/ARM.wav", "conditions": [18, 1200, "a", 18000], "internal_node_id": "0.0-14.0", "trial": 0, "time_elapsed": 243039, "serialpos": 2, "key_press": -1, "wordID": 37, "type": "PRES_AUD", "trial_index": 23}, "uniqueid": "MTK2393:3TXMY6UCAFVCYPLR2CM362DOTOEQCD", "dateTime": 1517074534970}, {"current_trial": 24, "trialdata": {"rt": -1000, "trial_type": "single-audio", "word": "staple", "stimulus": "/static/audio/wordpool/STAPLE.wav", "conditions": [18, 1200, "a", 18000], "internal_node_id": "0.0-15.0", "trial": 0, "time_elapsed": 245309, "serialpos": 3, "key_press": -1, "wordID": 1370, "type": "PRES_AUD", "trial_index": 24}, "uniqueid": "MTK2393:3TXMY6UCAFVCYPLR2CM362DOTOEQCD", "dateTime": 1517074537240}, {"current_trial": 25, "trialdata": {"rt": -1000, "trial_type": "single-audio", "word": "shovel", "stimulus": "/static/audio/wordpool/SHOVEL.wav", "conditions": [18, 1200, "a", 18000], "internal_node_id": "0.0-16.0", "trial": 0, "time_elapsed": 247592, "serialpos": 4, "key_press": -1, "wordID": 1294, "type": "PRES_AUD", "trial_index": 25}, "uniqueid": "MTK2393:3TXMY6UCAFVCYPLR2CM362DOTOEQCD", "dateTime": 1517074539523}, {"current_trial": 26, "trialdata": {"rt": -1000, "trial_type": "single-audio", "word": "milk", "stimulus": "/static/audio/wordpool/MILK.wav", "conditions": [18, 1200, "a", 18000], "internal_node_id": "0.0-17.0", "trial": 0, "time_elapsed": 249735, "serialpos": 5, "key_press": -1, "wordID": 894, "type": "PRES_AUD", "trial_index": 26}, "uniqueid": "MTK2393:3TXMY6UCAFVCYPLR2CM362DOTOEQCD", "dateTime": 1517074541666}, {"current_trial": 27, "trialdata": {"rt": -1000, "trial_type": "single-audio", "word": "blueprint", "stimulus": "/static/audio/wordpool/BLUEPRINT.wav", "conditions": [18, 1200, "a", 18000], "internal_node_id": "0.0-18.0", "trial": 0, "time_elapsed": 252095, "serialpos": 6, "key_press": -1, "wordID": 141, "type": "PRES_AUD", "trial_index": 27}, "uniqueid": "MTK2393:3TXMY6UCAFVCYPLR2CM362DOTOEQCD", "dateTime": 1517074544026}, {"current_trial": 28, "trialdata": {"rt": -1000, "trial_type": "single-audio", "word": "garbage", "stimulus": "/static/audio/wordpool/GARBAGE.wav", "conditions": [18, 1200, "a", 18000], "internal_node_id": "0.0-19.0", "trial": 0, "time_elapsed": 254312, "serialpos": 7, "key_press": -1, "wordID": 621, "type": "PRES_AUD", "trial_index": 28}, "uniqueid": "MTK2393:3TXMY6UCAFVCYPLR2CM362DOTOEQCD", "dateTime": 1517074546243}, {"current_trial": 29, "trialdata": {"rt": -1000, "trial_type": "single-audio", "word": "diner", "stimulus": "/static/audio/wordpool/DINER.wav", "conditions": [18, 1200, "a", 18000], "internal_node_id": "0.0-20.0", "trial": 0, "time_elapsed": 256374, "serialpos": 8, "key_press": -1, "wordID": 466, "type": "PRES_AUD", "trial_index": 29}, "uniqueid": "MTK2393:3TXMY6UCAFVCYPLR2CM362DOTOEQCD", "dateTime": 1517074548305}, {"current_trial": 30, "trialdata": {"rt": -1000, "trial_type": "single-audio", "word": "fungus", "stimulus": "/static/audio/wordpool/FUNGUS.wav", "conditions": [18, 1200, "a", 18000], "internal_node_id": "0.0-21.0", "trial": 0, "time_elapsed": 258696, "serialpos": 9, "key_press": -1, "wordID": 613, "type": "PRES_AUD", "trial_index": 30}, "uniqueid": "MTK2393:3TXMY6UCAFVCYPLR2CM362DOTOEQCD", "dateTime": 1517074550627}, {"current_trial": 31, "trialdata": {"rt": -1000, "trial_type": "single-audio", "word": "fireplace", "stimulus": "/static/audio/wordpool/FIREPLACE.wav", "conditions": [18, 1200, "a", 18000], "internal_node_id": "0.0-22.0", "trial": 0, "time_elapsed": 260816, "serialpos": 10, "key_press": -1, "wordID": 569, "type": "PRES_AUD", "trial_index": 31}, "uniqueid": "MTK2393:3TXMY6UCAFVCYPLR2CM362DOTOEQCD", "dateTime": 1517074552747}, {"current_trial": 32, "trialdata": {"rt": -1000, "trial_type": "single-audio", "word": "pizza", "stimulus": "/static/audio/wordpool/PIZZA.wav", "conditions": [18, 1200, "a", 18000], "internal_node_id": "0.0-23.0", "trial": 0, "time_elapsed": 263026, "serialpos": 11, "key_press": -1, "wordID": 1078, "type": "PRES_AUD", "trial_index": 32}, "uniqueid": "MTK2393:3TXMY6UCAFVCYPLR2CM362DOTOEQCD", "dateTime": 1517074554957}, {"current_trial": 33, "trialdata": {"rt": -1000, "trial_type": "single-audio", "word": "racket", "stimulus": "/static/audio/wordpool/RACKET.wav", "conditions": [18, 1200, "a", 18000], "internal_node_id": "0.0-24.0", "trial": 0, "time_elapsed": 265116, "serialpos": 12, "key_press": -1, "wordID": 1154, "type": "PRES_AUD", "trial_index": 33}, "uniqueid": "MTK2393:3TXMY6UCAFVCYPLR2CM362DOTOEQCD", "dateTime": 1517074557047}, {"current_trial": 34, "trialdata": {"rt": -1000, "trial_type": "single-audio", "word": "napkin", "stimulus": "/static/audio/wordpool/NAPKIN.wav", "conditions": [18, 1200, "a", 18000], "internal_node_id": "0.0-25.0", "trial": 0, "time_elapsed": 267311, "serialpos": 13, "key_press": -1, "wordID": 936, "type": "PRES_AUD", "trial_index": 34}, "uniqueid": "MTK2393:3TXMY6UCAFVCYPLR2CM362DOTOEQCD", "dateTime": 1517074559242}, {"current_trial": 35, "trialdata": {"rt": -1000, "trial_type": "single-audio", "word": "dandruff", "stimulus": "/static/audio/wordpool/DANDRUFF.wav", "conditions": [18, 1200, "a", 18000], "internal_node_id": "0.0-26.0", "trial": 0, "time_elapsed": 269341, "serialpos": 14, "key_press": -1, "wordID": 438, "type": "PRES_AUD", "trial_index": 35}, "uniqueid": "MTK2393:3TXMY6UCAFVCYPLR2CM362DOTOEQCD", "dateTime": 1517074561272}, {"current_trial": 36, "trialdata": {"rt": -1000, "trial_type": "single-audio", "word": "heart", "stimulus": "/static/audio/wordpool/HEART.wav", "conditions": [18, 1200, "a", 18000], "internal_node_id": "0.0-27.0", "trial": 0, "time_elapsed": 271444, "serialpos": 15, "key_press": -1, "wordID": 696, "type": "PRES_AUD", "trial_index": 36}, "uniqueid": "MTK2393:3TXMY6UCAFVCYPLR2CM362DOTOEQCD", "dateTime": 1517074563375}, {"current_trial": 37, "trialdata": {"rt": -1000, "trial_type": "single-audio", "word": "blockade", "stimulus": "/static/audio/wordpool/BLOCKADE.wav", "conditions": [18, 1200, "a", 18000], "internal_node_id": "0.0-28.0", "trial": 0, "time_elapsed": 273678, "serialpos": 16, "key_press": -1, "wordID": 136, "type": "PRES_AUD", "trial_index": 37}, "uniqueid": "MTK2393:3TXMY6UCAFVCYPLR2CM362DOTOEQCD", "dateTime": 1517074565609}, {"current_trial": 38, "trialdata": {"rt": -1000, "trial_type": "single-audio", "word": "gazelle", "stimulus": "/static/audio/wordpool/GAZELLE.wav", "conditions": [18, 1200, "a", 18000], "internal_node_id": "0.0-29.0", "trial": 0, "time_elapsed": 275832, "serialpos": 17, "key_press": -1, "wordID": 627, "type": "PRES_AUD", "trial_index": 38}, "uniqueid": "MTK2393:3TXMY6UCAFVCYPLR2CM362DOTOEQCD", "dateTime": 1517074567764}, {"current_trial": 39, "trialdata": {"rt": -1, "trial_type": "single-stim", "stimulus": "", "internal_node_id": "0.0-30.0-0.0", "time_elapsed": 277145, "key_press": -1, "type": "PRE_RECALL_DELAY", "trial_index": 39}, "uniqueid": "MTK2393:3TXMY6UCAFVCYPLR2CM362DOTOEQCD", "dateTime": 1517074569076}, {"current_trial": 40, "trialdata": {"rt": -1000, "trial_type": "single-audio", "stimulus": "/static/audio/400Hz.wav", "internal_node_id": "0.0-31.0", "time_elapsed": 277647, "key_press": -1, "type": "PRE_RECALL_ALERT", "trial_index": 40}, "uniqueid": "MTK2393:3TXMY6UCAFVCYPLR2CM362DOTOEQCD", "dateTime": 1517074569578}, {"current_trial": 41, "trialdata": {"rt": [3323, 4990, 6575, 10041, 12008, 22991, 27167, 28234, 45552, 46409, 48019, 48638, 49246, 50173, 56341, 58850], "recwords": ["chapel", "arm", "milk", "staple", "trash", "arm", "", "", "", "", "", "", "", "", "chapel", "staple"], "key_times": [2121, 2266, 2420, 2634, 2957, 3065, 3323, 4093, 4450, 4641, 4990, 5700, 5977, 6192, 6349, 6575, 7252, 7532, 7815, 7951, 8181, 8362, 10041, 10295, 10366, 10730, 10978, 11329, 12008, 21876, 22208, 22307, 22991, 27167, 28234, 45552, 46409, 48019, 48460, 48638, 49246, 49570, 50173, 54961, 55104, 55435, 55753, 55945, 56094, 56341, 56555, 57405, 57768, 58083, 58323, 58683, 58850, 59422, 59692, 59834], "trial_type": "free-recall", "conditions": [18, 1200, "a", 18000], "internal_node_id": "0.0-32.0-0.0", "key_presses": [67, 72, 65, 80, 69, 76, 188, 65, 82, 77, 188, 77, 73, 76, 75, 188, 83, 84, 65, 80, 76, 69, 188, 84, 82, 65, 83, 72, 13, 65, 82, 77, 13, 186, 32, 32, 13, 186, 16, 186, 188, 16, 186, 67, 72, 65, 80, 69, 76, 188, 83, 84, 65, 80, 76, 69, 188, 65, 82, 77], "trial": 0, "time_elapsed": 337655, "type": "FREE_RECALL", "trial_index": 41}, "uniqueid": "MTK2393:3TXMY6UCAFVCYPLR2CM362DOTOEQCD", "dateTime": 1517074629588}, {"current_trial": 42, "trialdata": {"rt": 2124, "trial_type": "text", "internal_node_id": "0.0-33.0", "time_elapsed": 341787, "key_press": 32, "type": "INSTRUCTIONS", "trial_index": 42}, "uniqueid": "MTK2393:3TXMY6UCAFVCYPLR2CM362DOTOEQCD", "dateTime": 1517074633718}, {"current_trial": 43, "trialdata": {"rt": [2013, 4047, 5699, 8016, 10250, 13212, 16304], "trial_type": "math-distractor", "key_times": [1675, 1721, 2013, 3975, 4047, 5512, 5619, 5699, 7747, 7910, 8016, 9755, 10188, 10250, 13006, 13126, 13212, 16074, 16304], "responses": ["10", "6", "12", "13", "17", "21", "9"], "num2": [5, 3, 2, 2, 5, 6, 2, 4], "num3": [4, 1, 6, 5, 7, 6, 1, 4], "conditions": [18, 1200, "a", 18000], "internal_node_id": "0.0-34.0", "key_presses": [49, 48, 13, 54, 13, 49, 50, 13, 49, 51, 13, 49, 55, 13, 50, 49, 13, 57, 13], "trial": 1, "time_elapsed": 361793, "type": "DISTRACTOR", "trial_index": 43, "num1": [1, 2, 4, 6, 5, 9, 6, 1]}, "uniqueid": "MTK2393:3TXMY6UCAFVCYPLR2CM362DOTOEQCD", "dateTime": 1517074653724}, {"current_trial": 44, "trialdata": {"rt": -1, "trial_type": "single-stim", "stimulus": "<p id=\"stim\">10</p>", "internal_node_id": "0.0-35.0-0.0", "time_elapsed": 364800, "key_press": -1, "trial_index": 44}, "uniqueid": "MTK2393:3TXMY6UCAFVCYPLR2CM362DOTOEQCD", "dateTime": 1517074656731}, {"current_trial": 45, "trialdata": {"rt": -1, "trial_type": "single-stim", "stimulus": "<p id=\"stim\">9</p>", "internal_node_id": "0.0-35.0-1.0", "time_elapsed": 365804, "key_press": -1, "trial_index": 45}, "uniqueid": "MTK2393:3TXMY6UCAFVCYPLR2CM362DOTOEQCD", "dateTime": 1517074657735}, {"current_trial": 46, "trialdata": {"rt": -1, "trial_type": "single-stim", "stimulus": "<p id=\"stim\">8</p>", "internal_node_id": "0.0-35.0-2.0", "time_elapsed": 366808, "key_press": -1, "trial_index": 46}, "uniqueid": "MTK2393:3TXMY6UCAFVCYPLR2CM362DOTOEQCD", "dateTime": 1517074658739}, {"current_trial": 47, "trialdata": {"rt": -1, "trial_type": "single-stim", "stimulus": "<p id=\"stim\">7</p>", "internal_node_id": "0.0-35.0-3.0", "time_elapsed": 367812, "key_press": -1, "trial_index": 47}, "uniqueid": "MTK2393:3TXMY6UCAFVCYPLR2CM362DOTOEQCD", "dateTime": 1517074659743}, {"current_trial": 48, "trialdata": {"rt": -1, "trial_type": "single-stim", "stimulus": "<p id=\"stim\">6</p>", "internal_node_id": "0.0-35.0-4.0", "time_elapsed": 368816, "key_press": -1, "trial_index": 48}, "uniqueid": "MTK2393:3TXMY6UCAFVCYPLR2CM362DOTOEQCD", "dateTime": 1517074660748}, {"current_trial": 49, "trialdata": {"rt": -1, "trial_type": "single-stim", "stimulus": "<p id=\"stim\">5</p>", "internal_node_id": "0.0-35.0-5.0", "time_elapsed": 369820, "key_press": -1, "trial_index": 49}, "uniqueid": "MTK2393:3TXMY6UCAFVCYPLR2CM362DOTOEQCD", "dateTime": 1517074661752}, {"current_trial": 50, "trialdata": {"rt": -1, "trial_type": "single-stim", "stimulus": "<p id=\"stim\">4</p>", "internal_node_id": "0.0-35.0-6.0", "time_elapsed": 370824, "key_press": -1, "trial_index": 50}, "uniqueid": "MTK2393:3TXMY6UCAFVCYPLR2CM362DOTOEQCD", "dateTime": 1517074662755}, {"current_trial": 51, "trialdata": {"rt": -1, "trial_type": "single-stim", "stimulus": "<p id=\"stim\">3</p>", "internal_node_id": "0.0-35.0-7.0", "time_elapsed": 371829, "key_press": -1, "trial_index": 51}, "uniqueid": "MTK2393:3TXMY6UCAFVCYPLR2CM362DOTOEQCD", "dateTime": 1517074663760}, {"current_trial": 52, "trialdata": {"rt": -1, "trial_type": "single-stim", "stimulus": "<p id=\"stim\">2</p>", "internal_node_id": "0.0-35.0-8.0", "time_elapsed": 372833, "key_press": -1, "trial_index": 52}, "uniqueid": "MTK2393:3TXMY6UCAFVCYPLR2CM362DOTOEQCD", "dateTime": 1517074664764}, {"current_trial": 53, "trialdata": {"rt": -1, "trial_type": "single-stim", "stimulus": "<p id=\"stim\">1</p>", "internal_node_id": "0.0-35.0-9.0", "time_elapsed": 373837, "key_press": -1, "trial_index": 53}, "uniqueid": "MTK2393:3TXMY6UCAFVCYPLR2CM362DOTOEQCD", "dateTime": 1517074665768}, {"current_trial": 54, "trialdata": {"rt": -1, "trial_type": "single-stim", "stimulus": "<p id=\"stim\">+</p>", "internal_node_id": "0.0-36.0-0.0", "time_elapsed": 375340, "key_press": -1, "type": "FIXATION", "trial_index": 54}, "uniqueid": "MTK2393:3TXMY6UCAFVCYPLR2CM362DOTOEQCD", "dateTime": 1517074667272}, {"current_trial": 55, "trialdata": {"rt": -1000, "trial_type": "single-audio", "word": "lover", "stimulus": "/static/audio/wordpool/LOVER.wav", "conditions": [18, 1200, "a", 18000], "internal_node_id": "0.0-37.0", "trial": 1, "time_elapsed": 377368, "serialpos": 0, "key_press": -1, "wordID": 845, "type": "PRES_AUD", "trial_index": 55}, "uniqueid": "MTK2393:3TXMY6UCAFVCYPLR2CM362DOTOEQCD", "dateTime": 1517074669299}, {"current_trial": 56, "trialdata": {"rt": -1000, "trial_type": "single-audio", "word": "princess", "stimulus": "/static/audio/wordpool/PRINCESS.wav", "conditions": [18, 1200, "a", 18000], "internal_node_id": "0.0-38.0", "trial": 1, "time_elapsed": 379587, "serialpos": 1, "key_press": -1, "wordID": 1124, "type": "PRES_AUD", "trial_index": 56}, "uniqueid": "MTK2393:3TXMY6UCAFVCYPLR2CM362DOTOEQCD", "dateTime": 1517074671518}, {"current_trial": 57, "trialdata": {"rt": -1000, "trial_type": "single-audio", "word": "sparrow", "stimulus": "/static/audio/wordpool/SPARROW.wav", "conditions": [18, 1200, "a", 18000], "internal_node_id": "0.0-39.0", "trial": 1, "time_elapsed": 381776, "serialpos": 2, "key_press": -1, "wordID": 1346, "type": "PRES_AUD", "trial_index": 57}, "uniqueid": "MTK2393:3TXMY6UCAFVCYPLR2CM362DOTOEQCD", "dateTime": 1517074673707}, {"current_trial": 58, "trialdata": {"rt": -1000, "trial_type": "single-audio", "word": "perch", "stimulus": "/static/audio/wordpool/PERCH.wav", "conditions": [18, 1200, "a", 18000], "internal_node_id": "0.0-40.0", "trial": 1, "time_elapsed": 383970, "serialpos": 3, "key_press": -1, "wordID": 1047, "type": "PRES_AUD", "trial_index": 58}, "uniqueid": "MTK2393:3TXMY6UCAFVCYPLR2CM362DOTOEQCD", "dateTime": 1517074675901}, {"current_trial": 59, "trialdata": {"rt": -1000, "trial_type": "single-audio", "word": "bike", "stimulus": "/static/audio/wordpool/BIKE.wav", "conditions": [18, 1200, "a", 18000], "internal_node_id": "0.0-41.0", "trial": 1, "time_elapsed": 386223, "serialpos": 4, "key_press": -1, "wordID": 124, "type": "PRES_AUD", "trial_index": 59}, "uniqueid": "MTK2393:3TXMY6UCAFVCYPLR2CM362DOTOEQCD", "dateTime": 1517074678154}, {"current_trial": 60, "trialdata": {"rt": -1000, "trial_type": "single-audio", "word": "outfit", "stimulus": "/static/audio/wordpool/OUTFIT.wav", "conditions": [18, 1200, "a", 18000], "internal_node_id": "0.0-42.0", "trial": 1, "time_elapsed": 388372, "serialpos": 5, "key_press": -1, "wordID": 987, "type": "PRES_AUD", "trial_index": 60}, "uniqueid": "MTK2393:3TXMY6UCAFVCYPLR2CM362DOTOEQCD", "dateTime": 1517074680303}, {"current_trial": 61, "trialdata": {"rt": -1000, "trial_type": "single-audio", "word": "pilot", "stimulus": "/static/audio/wordpool/PILOT.wav", "conditions": [18, 1200, "a", 18000], "internal_node_id": "0.0-43.0", "trial": 1, "time_elapsed": 390623, "serialpos": 6, "key_press": -1, "wordID": 1069, "type": "PRES_AUD", "trial_index": 61}, "uniqueid": "MTK2393:3TXMY6UCAFVCYPLR2CM362DOTOEQCD", "dateTime": 1517074682554}, {"current_trial": 62, "trialdata": {"rt": -1000, "trial_type": "single-audio", "word": "igloo", "stimulus": "/static/audio/wordpool/IGLOO.wav", "conditions": [18, 1200, "a", 18000], "internal_node_id": "0.0-44.0", "trial": 1, "time_elapsed": 392964, "serialpos": 7, "key_press": -1, "wordID": 733, "type": "PRES_AUD", "trial_index": 62}, "uniqueid": "MTK2393:3TXMY6UCAFVCYPLR2CM362DOTOEQCD", "dateTime": 1517074684895}, {"current_trial": 63, "trialdata": {"rt": -1000, "trial_type": "single-audio", "word": "star", "stimulus": "/static/audio/wordpool/STAR.wav", "conditions": [18, 1200, "a", 18000], "internal_node_id": "0.0-45.0", "trial": 1, "time_elapsed": 395275, "serialpos": 8, "key_press": -1, "wordID": 1372, "type": "PRES_AUD", "trial_index": 63}, "uniqueid": "MTK2393:3TXMY6UCAFVCYPLR2CM362DOTOEQCD", "dateTime": 1517074687206}, {"current_trial": 64, "trialdata": {"rt": -1000, "trial_type": "single-audio", "word": "silk", "stimulus": "/static/audio/wordpool/SILK.wav", "conditions": [18, 1200, "a", 18000], "internal_node_id": "0.0-46.0", "trial": 1, "time_elapsed": 397362, "serialpos": 9, "key_press": -1, "wordID": 1306, "type": "PRES_AUD", "trial_index": 64}, "uniqueid": "MTK2393:3TXMY6UCAFVCYPLR2CM362DOTOEQCD", "dateTime": 1517074689294}, {"current_trial": 65, "trialdata": {"rt": -1000, "trial_type": "single-audio", "word": "honey", "stimulus": "/static/audio/wordpool/HONEY.wav", "conditions": [18, 1200, "a", 18000], "internal_node_id": "0.0-47.0", "trial": 1, "time_elapsed": 399394, "serialpos": 10, "key_press": -1, "wordID": 712, "type": "PRES_AUD", "trial_index": 65}, "uniqueid": "MTK2393:3TXMY6UCAFVCYPLR2CM362DOTOEQCD", "dateTime": 1517074691326}, {"current_trial": 66, "trialdata": {"rt": -1000, "trial_type": "single-audio", "word": "gallon", "stimulus": "/static/audio/wordpool/GALLON.wav", "conditions": [18, 1200, "a", 18000], "internal_node_id": "0.0-48.0", "trial": 1, "time_elapsed": 401741, "serialpos": 11, "key_press": -1, "wordID": 617, "type": "PRES_AUD", "trial_index": 66}, "uniqueid": "MTK2393:3TXMY6UCAFVCYPLR2CM362DOTOEQCD", "dateTime": 1517074693672}, {"current_trial": 67, "trialdata": {"rt": -1000, "trial_type": "single-audio", "word": "nomad", "stimulus": "/static/audio/wordpool/NOMAD.wav", "conditions": [18, 1200, "a", 18000], "internal_node_id": "0.0-49.0", "trial": 1, "time_elapsed": 403785, "serialpos": 12, "key_press": -1, "wordID": 954, "type": "PRES_AUD", "trial_index": 67}, "uniqueid": "MTK2393:3TXMY6UCAFVCYPLR2CM362DOTOEQCD", "dateTime": 1517074695716}, {"current_trial": 68, "trialdata": {"rt": -1000, "trial_type": "single-audio", "word": "handbag", "stimulus": "/static/audio/wordpool/HANDBAG.wav", "conditions": [18, 1200, "a", 18000], "internal_node_id": "0.0-50.0", "trial": 1, "time_elapsed": 405983, "serialpos": 13, "key_press": -1, "wordID": 683, "type": "PRES_AUD", "trial_index": 68}, "uniqueid": "MTK2393:3TXMY6UCAFVCYPLR2CM362DOTOEQCD", "dateTime": 1517074697916}, {"current_trial": 69, "trialdata": {"rt": -1000, "trial_type": "single-audio", "word": "japan", "stimulus": "/static/audio/wordpool/JAPAN.wav", "conditions": [18, 1200, "a", 18000], "internal_node_id": "0.0-51.0", "trial": 1, "time_elapsed": 408230, "serialpos": 14, "key_press": -1, "wordID": 748, "type": "PRES_AUD", "trial_index": 69}, "uniqueid": "MTK2393:3TXMY6UCAFVCYPLR2CM362DOTOEQCD", "dateTime": 1517074700161}, {"current_trial": 70, "trialdata": {"rt": -1000, "trial_type": "single-audio", "word": "suspect", "stimulus": "/static/audio/wordpool/SUSPECT.wav", "conditions": [18, 1200, "a", 18000], "internal_node_id": "0.0-52.0", "trial": 1, "time_elapsed": 410250, "serialpos": 15, "key_press": -1, "wordID": 1414, "type": "PRES_AUD", "trial_index": 70}, "uniqueid": "MTK2393:3TXMY6UCAFVCYPLR2CM362DOTOEQCD", "dateTime": 1517074702181}, {"current_trial": 71, "trialdata": {"rt": -1000, "trial_type": "single-audio", "word": "thief", "stimulus": "/static/audio/wordpool/THIEF.wav", "conditions": [18, 1200, "a", 18000], "internal_node_id": "0.0-53.0", "trial": 1, "time_elapsed": 412369, "serialpos": 16, "key_press": -1, "wordID": 1455, "type": "PRES_AUD", "trial_index": 71}, "uniqueid": "MTK2393:3TXMY6UCAFVCYPLR2CM362DOTOEQCD", "dateTime": 1517074704300}, {"current_trial": 72, "trialdata": {"rt": -1000, "trial_type": "single-audio", "word": "xerox", "stimulus": "/static/audio/wordpool/XEROX.wav", "conditions": [18, 1200, "a", 18000], "internal_node_id": "0.0-54.0", "trial": 1, "time_elapsed": 414453, "serialpos": 17, "key_press": -1, "wordID": 1627, "type": "PRES_AUD", "trial_index": 72}, "uniqueid": "MTK2393:3TXMY6UCAFVCYPLR2CM362DOTOEQCD", "dateTime": 1517074706384}, {"current_trial": 73, "trialdata": {"rt": -1, "trial_type": "single-stim", "stimulus": "", "internal_node_id": "0.0-55.0-0.0", "time_elapsed": 415681, "key_press": -1, "type": "PRE_RECALL_DELAY", "trial_index": 73}, "uniqueid": "MTK2393:3TXMY6UCAFVCYPLR2CM362DOTOEQCD", "dateTime": 1517074707613}, {"current_trial": 74, "trialdata": {"rt": -1000, "trial_type": "single-audio", "stimulus": "/static/audio/400Hz.wav", "internal_node_id": "0.0-56.0", "time_elapsed": 416183, "key_press": -1, "type": "PRE_RECALL_ALERT", "trial_index": 74}, "uniqueid": "MTK2393:3TXMY6UCAFVCYPLR2CM362DOTOEQCD", "dateTime": 1517074708114}, {"current_trial": 75, "trialdata": {"rt": [3358, 5487, 8100, 10950, 39501, 48441], "recwords": ["pilot", "igloo", "star", "silk", "sparrow", "perch"], "key_times": [1736, 1931, 2153, 2305, 2664, 3358, 4082, 4419, 4884, 5087, 5209, 5487, 5959, 6485, 6830, 7281, 8100, 8888, 9457, 9713, 9942, 10950, 37708, 37803, 37959, 38189, 38317, 38443, 38569, 39501, 40145, 40267, 40375, 40597, 40696, 48441], "trial_type": "free-recall", "conditions": [18, 1200, "a", 18000], "internal_node_id": "0.0-57.0-0.0", "key_presses": [80, 73, 76, 79, 84, 188, 73, 71, 76, 79, 79, 188, 83, 84, 65, 82, 188, 83, 73, 76, 75, 188, 83, 80, 65, 82, 82, 79, 87, 188, 80, 69, 82, 67, 72, 188], "trial": 1, "time_elapsed": 476188, "type": "FREE_RECALL", "trial_index": 75}, "uniqueid": "MTK2393:3TXMY6UCAFVCYPLR2CM362DOTOEQCD", "dateTime": 1517074768121}, {"current_trial": 76, "trialdata": {"rt": 2252, "trial_type": "text", "internal_node_id": "0.0-58.0", "time_elapsed": 480448, "key_press": 32, "type": "INSTRUCTIONS", "trial_index": 76}, "uniqueid": "MTK2393:3TXMY6UCAFVCYPLR2CM362DOTOEQCD", "dateTime": 1517074772379}, {"current_trial": 77, "trialdata": {"rt": [3976, 7727, 9645, 11097, 14361, 16986, 19966, 21704], "trial_type": "math-distractor", "key_times": [3537, 3606, 3976, 5911, 6397, 7385, 7593, 7727, 9435, 9571, 9645, 10868, 10968, 11097, 14175, 14361, 16369, 16904, 16986, 19397, 19774, 19966, 21100, 21518, 21704], "responses": ["23", "17", "12", "12", "9", "17", "17", "18"], "num2": [8, 7, 4, 6, 1, 4, 6, 2, 4], "num3": [8, 6, 5, 2, 3, 6, 8, 8, 2], "conditions": [12, 800, "a", 24000], "internal_node_id": "0.0-59.0", "key_presses": [50, 51, 13, 49, 54, 8, 55, 13, 49, 50, 13, 49, 50, 13, 57, 13, 49, 55, 13, 49, 55, 13, 49, 56, 13], "trial": 2, "time_elapsed": 505458, "type": "DISTRACTOR", "trial_index": 77, "num1": [7, 4, 3, 4, 5, 7, 5, 8, 3]}, "uniqueid": "MTK2393:3TXMY6UCAFVCYPLR2CM362DOTOEQCD", "dateTime": 1517074797389}, {"current_trial": 78, "trialdata": {"rt": -1, "trial_type": "single-stim", "stimulus": "<p id=\"stim\">10</p>", "internal_node_id": "0.0-60.0-0.0", "time_elapsed": 508464, "key_press": -1, "trial_index": 78}, "uniqueid": "MTK2393:3TXMY6UCAFVCYPLR2CM362DOTOEQCD", "dateTime": 1517074800395}, {"current_trial": 79, "trialdata": {"rt": -1, "trial_type": "single-stim", "stimulus": "<p id=\"stim\">9</p>", "internal_node_id": "0.0-60.0-1.0", "time_elapsed": 509468, "key_press": -1, "trial_index": 79}, "uniqueid": "MTK2393:3TXMY6UCAFVCYPLR2CM362DOTOEQCD", "dateTime": 1517074801399}, {"current_trial": 80, "trialdata": {"rt": -1, "trial_type": "single-stim", "stimulus": "<p id=\"stim\">8</p>", "internal_node_id": "0.0-60.0-2.0", "time_elapsed": 510472, "key_press": -1, "trial_index": 80}, "uniqueid": "MTK2393:3TXMY6UCAFVCYPLR2CM362DOTOEQCD", "dateTime": 1517074802403}, {"current_trial": 81, "trialdata": {"rt": -1, "trial_type": "single-stim", "stimulus": "<p id=\"stim\">7</p>", "internal_node_id": "0.0-60.0-3.0", "time_elapsed": 511476, "key_press": -1, "trial_index": 81}, "uniqueid": "MTK2393:3TXMY6UCAFVCYPLR2CM362DOTOEQCD", "dateTime": 1517074803408}, {"current_trial": 82, "trialdata": {"rt": -1, "trial_type": "single-stim", "stimulus": "<p id=\"stim\">6</p>", "internal_node_id": "0.0-60.0-4.0", "time_elapsed": 512481, "key_press": -1, "trial_index": 82}, "uniqueid": "MTK2393:3TXMY6UCAFVCYPLR2CM362DOTOEQCD", "dateTime": 1517074804412}, {"current_trial": 83, "trialdata": {"rt": -1, "trial_type": "single-stim", "stimulus": "<p id=\"stim\">5</p>", "internal_node_id": "0.0-60.0-5.0", "time_elapsed": 513484, "key_press": -1, "trial_index": 83}, "uniqueid": "MTK2393:3TXMY6UCAFVCYPLR2CM362DOTOEQCD", "dateTime": 1517074805416}, {"current_trial": 84, "trialdata": {"rt": -1, "trial_type": "single-stim", "stimulus": "<p id=\"stim\">4</p>", "internal_node_id": "0.0-60.0-6.0", "time_elapsed": 514486, "key_press": -1, "trial_index": 84}, "uniqueid": "MTK2393:3TXMY6UCAFVCYPLR2CM362DOTOEQCD", "dateTime": 1517074806417}, {"current_trial": 85, "trialdata": {"rt": -1, "trial_type": "single-stim", "stimulus": "<p id=\"stim\">3</p>", "internal_node_id": "0.0-60.0-7.0", "time_elapsed": 515488, "key_press": -1, "trial_index": 85}, "uniqueid": "MTK2393:3TXMY6UCAFVCYPLR2CM362DOTOEQCD", "dateTime": 1517074807419}, {"current_trial": 86, "trialdata": {"rt": -1, "trial_type": "single-stim", "stimulus": "<p id=\"stim\">2</p>", "internal_node_id": "0.0-60.0-8.0", "time_elapsed": 516490, "key_press": -1, "trial_index": 86}, "uniqueid": "MTK2393:3TXMY6UCAFVCYPLR2CM362DOTOEQCD", "dateTime": 1517074808422}, {"current_trial": 87, "trialdata": {"rt": -1, "trial_type": "single-stim", "stimulus": "<p id=\"stim\">1</p>", "internal_node_id": "0.0-60.0-9.0", "time_elapsed": 517495, "key_press": -1, "trial_index": 87}, "uniqueid": "MTK2393:3TXMY6UCAFVCYPLR2CM362DOTOEQCD", "dateTime": 1517074809427}, {"current_trial": 88, "trialdata": {"rt": -1, "trial_type": "single-stim", "stimulus": "<p id=\"stim\">+</p>", "internal_node_id": "0.0-61.0-0.0", "time_elapsed": 518999, "key_press": -1, "type": "FIXATION", "trial_index": 88}, "uniqueid": "MTK2393:3TXMY6UCAFVCYPLR2CM362DOTOEQCD", "dateTime": 1517074810930}, {"current_trial": 89, "trialdata": {"rt": -1000, "trial_type": "single-audio", "word": "mammal", "stimulus": "/static/audio/wordpool/MAMMAL.wav", "conditions": [12, 800, "a", 24000], "internal_node_id": "0.0-62.0", "trial": 2, "time_elapsed": 520724, "serialpos": 0, "key_press": -1, "wordID": 860, "type": "PRES_AUD", "trial_index": 89}, "uniqueid": "MTK2393:3TXMY6UCAFVCYPLR2CM362DOTOEQCD", "dateTime": 1517074812656}, {"current_trial": 90, "trialdata": {"rt": -1000, "trial_type": "single-audio", "word": "mailman", "stimulus": "/static/audio/wordpool/MAILMAN.wav", "conditions": [12, 800, "a", 24000], "internal_node_id": "0.0-63.0", "trial": 2, "time_elapsed": 522369, "serialpos": 1, "key_press": -1, "wordID": 857, "type": "PRES_AUD", "trial_index": 90}, "uniqueid": "MTK2393:3TXMY6UCAFVCYPLR2CM362DOTOEQCD", "dateTime": 1517074814300}, {"current_trial": 91, "trialdata": {"rt": -1000, "trial_type": "single-audio", "word": "kitchen", "stimulus": "/static/audio/wordpool/KITCHEN.wav", "conditions": [12, 800, "a", 24000], "internal_node_id": "0.0-64.0", "trial": 2, "time_elapsed": 524310, "serialpos": 2, "key_press": -1, "wordID": 777, "type": "PRES_AUD", "trial_index": 91}, "uniqueid": "MTK2393:3TXMY6UCAFVCYPLR2CM362DOTOEQCD", "dateTime": 1517074816242}, {"current_trial": 92, "trialdata": {"rt": -1000, "trial_type": "single-audio", "word": "cupboard", "stimulus": "/static/audio/wordpool/CUPBOARD.wav", "conditions": [12, 800, "a", 24000], "internal_node_id": "0.0-65.0", "trial": 2, "time_elapsed": 526046, "serialpos": 3, "key_press": -1, "wordID": 424, "type": "PRES_AUD", "trial_index": 92}, "uniqueid": "MTK2393:3TXMY6UCAFVCYPLR2CM362DOTOEQCD", "dateTime": 1517074817977}, {"current_trial": 93, "trialdata": {"rt": -1000, "trial_type": "single-audio", "word": "airplane", "stimulus": "/static/audio/wordpool/AIRPLANE.wav", "conditions": [12, 800, "a", 24000], "internal_node_id": "0.0-66.0", "trial": 2, "time_elapsed": 527709, "serialpos": 4, "key_press": -1, "wordID": 11, "type": "PRES_AUD", "trial_index": 93}, "uniqueid": "MTK2393:3TXMY6UCAFVCYPLR2CM362DOTOEQCD", "dateTime": 1517074819641}, {"current_trial": 94, "trialdata": {"rt": -1000, "trial_type": "single-audio", "word": "subway", "stimulus": "/static/audio/wordpool/SUBWAY.wav", "conditions": [12, 800, "a", 24000], "internal_node_id": "0.0-67.0", "trial": 2, "time_elapsed": 529320, "serialpos": 5, "key_press": -1, "wordID": 1399, "type": "PRES_AUD", "trial_index": 94}, "uniqueid": "MTK2393:3TXMY6UCAFVCYPLR2CM362DOTOEQCD", "dateTime": 1517074821251}, {"current_trial": 95, "trialdata": {"rt": -1000, "trial_type": "single-audio", "word": "rocket", "stimulus": "/static/audio/wordpool/ROCKET.wav", "conditions": [12, 800, "a", 24000], "internal_node_id": "0.0-68.0", "trial": 2, "time_elapsed": 530951, "serialpos": 6, "key_press": -1, "wordID": 1201, "type": "PRES_AUD", "trial_index": 95}, "uniqueid": "MTK2393:3TXMY6UCAFVCYPLR2CM362DOTOEQCD", "dateTime": 1517074822882}, {"current_trial": 96, "trialdata": {"rt": -1000, "trial_type": "single-audio", "word": "shark", "stimulus": "/static/audio/wordpool/SHARK.wav", "conditions": [12, 800, "a", 24000], "internal_node_id": "0.0-69.0", "trial": 2, "time_elapsed": 532621, "serialpos": 7, "key_press": -1, "wordID": 1274, "type": "PRES_AUD", "trial_index": 96}, "uniqueid": "MTK2393:3TXMY6UCAFVCYPLR2CM362DOTOEQCD", "dateTime": 1517074824552}, {"current_trial": 97, "trialdata": {"rt": -1000, "trial_type": "single-audio", "word": "cook", "stimulus": "/static/audio/wordpool/COOK.wav", "conditions": [12, 800, "a", 24000], "internal_node_id": "0.0-70.0", "trial": 2, "time_elapsed": 534343, "serialpos": 8, "key_press": -1, "wordID": 371, "type": "PRES_AUD", "trial_index": 97}, "uniqueid": "MTK2393:3TXMY6UCAFVCYPLR2CM362DOTOEQCD", "dateTime": 1517074826275}, {"current_trial": 98, "trialdata": {"rt": -1000, "trial_type": "single-audio", "word": "patient", "stimulus": "/static/audio/wordpool/PATIENT.wav", "conditions": [12, 800, "a", 24000], "internal_node_id": "0.0-71.0", "trial": 2, "time_elapsed": 536025, "serialpos": 9, "key_press": -1, "wordID": 1023, "type": "PRES_AUD", "trial_index": 98}, "uniqueid": "MTK2393:3TXMY6UCAFVCYPLR2CM362DOTOEQCD", "dateTime": 1517074827957}, {"current_trial": 99, "trialdata": {"rt": -1000, "trial_type": "single-audio", "word": "forehead", "stimulus": "/static/audio/wordpool/FOREHEAD.wav", "conditions": [12, 800, "a", 24000], "internal_node_id": "0.0-72.0", "trial": 2, "time_elapsed": 537993, "serialpos": 10, "key_press": -1, "wordID": 591, "type": "PRES_AUD", "trial_index": 99}, "uniqueid": "MTK2393:3TXMY6UCAFVCYPLR2CM362DOTOEQCD", "dateTime": 1517074829924}, {"current_trial": 100, "trialdata": {"rt": -1000, "trial_type": "single-audio", "word": "bison", "stimulus": "/static/audio/wordpool/BISON.wav", "conditions": [12, 800, "a", 24000], "internal_node_id": "0.0-73.0", "trial": 2, "time_elapsed": 539605, "serialpos": 11, "key_press": -1, "wordID": 130, "type": "PRES_AUD", "trial_index": 100}, "uniqueid": "MTK2393:3TXMY6UCAFVCYPLR2CM362DOTOEQCD", "dateTime": 1517074831536}, {"current_trial": 101, "trialdata": {"rt": -1, "trial_type": "single-stim", "stimulus": "", "internal_node_id": "0.0-74.0-0.0", "time_elapsed": 540940, "key_press": -1, "type": "PRE_RECALL_DELAY", "trial_index": 101}, "uniqueid": "MTK2393:3TXMY6UCAFVCYPLR2CM362DOTOEQCD", "dateTime": 1517074832871}, {"current_trial": 102, "trialdata": {"rt": -1000, "trial_type": "single-audio", "stimulus": "/static/audio/400Hz.wav", "internal_node_id": "0.0-75.0", "time_elapsed": 541442, "key_press": -1, "type": "PRE_RECALL_ALERT", "trial_index": 102}, "uniqueid": "MTK2393:3TXMY6UCAFVCYPLR2CM362DOTOEQCD", "dateTime": 1517074833373}, {"current_trial": 103, "trialdata": {"rt": [2108, 2175, 3403, 3483, 6493, 9315, 12421], "recwords": ["bison", "", "mammal", "", "mailman", "shark", "cupboard"], "key_times": [1112, 1312, 1579, 1696, 1840, 2108, 2175, 2612, 2751, 2851, 2978, 3112, 3201, 3403, 3483, 4048, 4163, 4277, 4442, 5231, 5368, 5433, 6493, 7033, 7175, 7324, 7525, 7595, 9315, 9711, 9844, 10208, 10734, 10906, 11062, 11251, 11467, 12421], "trial_type": "free-recall", "conditions": [12, 800, "a", 24000], "internal_node_id": "0.0-76.0-0.0", "key_presses": [66, 73, 83, 79, 78, 188, 32, 77, 65, 77, 77, 65, 76, 188, 32, 77, 65, 73, 76, 77, 65, 78, 188, 83, 72, 65, 82, 75, 188, 67, 85, 80, 66, 79, 65, 82, 68, 188], "trial": 2, "time_elapsed": 601440, "type": "FREE_RECALL", "trial_index": 103}, "uniqueid": "MTK2393:3TXMY6UCAFVCYPLR2CM362DOTOEQCD", "dateTime": 1517074893373}, {"current_trial": 104, "trialdata": {"rt": 1067, "trial_type": "text", "internal_node_id": "0.0-77.0", "time_elapsed": 604515, "key_press": 32, "type": "INSTRUCTIONS", "trial_index": 104}, "uniqueid": "MTK2393:3TXMY6UCAFVCYPLR2CM362DOTOEQCD", "dateTime": 1517074896446}, {"current_trial": 105, "trialdata": {"rt": [1969, 3653, 6658, 8398, 10117, 11681], "trial_type": "math-distractor", "key_times": [1872, 1969, 3466, 3574, 3653, 6276, 6334, 6658, 8163, 8230, 8398, 9909, 10009, 10117, 11431, 11573, 11681], "responses": ["8", "13", "19", "13", "12", "11"], "num2": [2, 3, 7, 2, 6, 1, 1], "num3": [2, 4, 6, 2, 3, 5, 9], "conditions": [24, 800, "a", 12000], "internal_node_id": "0.0-78.0", "key_presses": [56, 13, 49, 51, 13, 49, 57, 13, 49, 51, 13, 49, 50, 13, 49, 49, 13], "trial": 3, "time_elapsed": 618521, "type": "DISTRACTOR", "trial_index": 105, "num1": [4, 6, 8, 9, 3, 5, 2]}, "uniqueid": "MTK2393:3TXMY6UCAFVCYPLR2CM362DOTOEQCD", "dateTime": 1517074910452}, {"current_trial": 106, "trialdata": {"rt": -1, "trial_type": "single-stim", "stimulus": "<p id=\"stim\">10</p>", "internal_node_id": "0.0-79.0-0.0", "time_elapsed": 621527, "key_press": -1, "trial_index": 106}, "uniqueid": "MTK2393:3TXMY6UCAFVCYPLR2CM362DOTOEQCD", "dateTime": 1517074913458}, {"current_trial": 107, "trialdata": {"rt": -1, "trial_type": "single-stim", "stimulus": "<p id=\"stim\">9</p>", "internal_node_id": "0.0-79.0-1.0", "time_elapsed": 622531, "key_press": -1, "trial_index": 107}, "uniqueid": "MTK2393:3TXMY6UCAFVCYPLR2CM362DOTOEQCD", "dateTime": 1517074914462}, {"current_trial": 108, "trialdata": {"rt": -1, "trial_type": "single-stim", "stimulus": "<p id=\"stim\">8</p>", "internal_node_id": "0.0-79.0-2.0", "time_elapsed": 623535, "key_press": -1, "trial_index": 108}, "uniqueid": "MTK2393:3TXMY6UCAFVCYPLR2CM362DOTOEQCD", "dateTime": 1517074915467}, {"current_trial": 109, "trialdata": {"rt": -1, "trial_type": "single-stim", "stimulus": "<p id=\"stim\">7</p>", "internal_node_id": "0.0-79.0-3.0", "time_elapsed": 624540, "key_press": -1, "trial_index": 109}, "uniqueid": "MTK2393:3TXMY6UCAFVCYPLR2CM362DOTOEQCD", "dateTime": 1517074916471}, {"current_trial": 110, "trialdata": {"rt": -1, "trial_type": "single-stim", "stimulus": "<p id=\"stim\">6</p>", "internal_node_id": "0.0-79.0-4.0", "time_elapsed": 625542, "key_press": -1, "trial_index": 110}, "uniqueid": "MTK2393:3TXMY6UCAFVCYPLR2CM362DOTOEQCD", "dateTime": 1517074917473}, {"current_trial": 111, "trialdata": {"rt": -1, "trial_type": "single-stim", "stimulus": "<p id=\"stim\">5</p>", "internal_node_id": "0.0-79.0-5.0", "time_elapsed": 626548, "key_press": -1, "trial_index": 111}, "uniqueid": "MTK2393:3TXMY6UCAFVCYPLR2CM362DOTOEQCD", "dateTime": 1517074918479}, {"current_trial": 112, "trialdata": {"rt": -1, "trial_type": "single-stim", "stimulus": "<p id=\"stim\">4</p>", "internal_node_id": "0.0-79.0-6.0", "time_elapsed": 627552, "key_press": -1, "trial_index": 112}, "uniqueid": "MTK2393:3TXMY6UCAFVCYPLR2CM362DOTOEQCD", "dateTime": 1517074919483}, {"current_trial": 113, "trialdata": {"rt": -1, "trial_type": "single-stim", "stimulus": "<p id=\"stim\">3</p>", "internal_node_id": "0.0-79.0-7.0", "time_elapsed": 628556, "key_press": -1, "trial_index": 113}, "uniqueid": "MTK2393:3TXMY6UCAFVCYPLR2CM362DOTOEQCD", "dateTime": 1517074920487}, {"current_trial": 114, "trialdata": {"rt": -1, "trial_type": "single-stim", "stimulus": "<p id=\"stim\">2</p>", "internal_node_id": "0.0-79.0-8.0", "time_elapsed": 629560, "key_press": -1, "trial_index": 114}, "uniqueid": "MTK2393:3TXMY6UCAFVCYPLR2CM362DOTOEQCD", "dateTime": 1517074921491}, {"current_trial": 115, "trialdata": {"rt": -1, "trial_type": "single-stim", "stimulus": "<p id=\"stim\">1</p>", "internal_node_id": "0.0-79.0-9.0", "time_elapsed": 630564, "key_press": -1, "trial_index": 115}, "uniqueid": "MTK2393:3TXMY6UCAFVCYPLR2CM362DOTOEQCD", "dateTime": 1517074922495}, {"current_trial": 116, "trialdata": {"rt": -1, "trial_type": "single-stim", "stimulus": "<p id=\"stim\">+</p>", "internal_node_id": "0.0-80.0-0.0", "time_elapsed": 632067, "key_press": -1, "type": "FIXATION", "trial_index": 116}, "uniqueid": "MTK2393:3TXMY6UCAFVCYPLR2CM362DOTOEQCD", "dateTime": 1517074923998}, {"current_trial": 117, "trialdata": {"rt": -1000, "trial_type": "single-audio", "word": "tortoise", "stimulus": "/static/audio/wordpool/TORTOISE.wav", "conditions": [24, 800, "a", 12000], "internal_node_id": "0.0-81.0", "trial": 3, "time_elapsed": 633729, "serialpos": 0, "key_press": -1, "wordID": 1485, "type": "PRES_AUD", "trial_index": 117}, "uniqueid": "MTK2393:3TXMY6UCAFVCYPLR2CM362DOTOEQCD", "dateTime": 1517074925661}, {"current_trial": 118, "trialdata": {"rt": -1000, "trial_type": "single-audio", "word": "bug", "stimulus": "/static/audio/wordpool/BUG.wav", "conditions": [24, 800, "a", 12000], "internal_node_id": "0.0-82.0", "trial": 3, "time_elapsed": 635378, "serialpos": 1, "key_press": -1, "wordID": 186, "type": "PRES_AUD", "trial_index": 118}, "uniqueid": "MTK2393:3TXMY6UCAFVCYPLR2CM362DOTOEQCD", "dateTime": 1517074927309}, {"current_trial": 119, "trialdata": {"rt": -1000, "trial_type": "single-audio", "word": "oyster", "stimulus": "/static/audio/wordpool/OYSTER.wav", "conditions": [24, 800, "a", 12000], "internal_node_id": "0.0-83.0", "trial": 3, "time_elapsed": 637265, "serialpos": 2, "key_press": -1, "wordID": 994, "type": "PRES_AUD", "trial_index": 119}, "uniqueid": "MTK2393:3TXMY6UCAFVCYPLR2CM362DOTOEQCD", "dateTime": 1517074929196}, {"current_trial": 120, "trialdata": {"rt": -1000, "trial_type": "single-audio", "word": "yacht", "stimulus": "/static/audio/wordpool/YACHT.wav", "conditions": [24, 800, "a", 12000], "internal_node_id": "0.0-84.0", "trial": 3, "time_elapsed": 639176, "serialpos": 3, "key_press": -1, "wordID": 1628, "type": "PRES_AUD", "trial_index": 120}, "uniqueid": "MTK2393:3TXMY6UCAFVCYPLR2CM362DOTOEQCD", "dateTime": 1517074931107}, {"current_trial": 121, "trialdata": {"rt": -1000, "trial_type": "single-audio", "word": "blender", "stimulus": "/static/audio/wordpool/BLENDER.wav", "conditions": [24, 800, "a", 12000], "internal_node_id": "0.0-85.0", "trial": 3, "time_elapsed": 641176, "serialpos": 4, "key_press": -1, "wordID": 135, "type": "PRES_AUD", "trial_index": 121}, "uniqueid": "MTK2393:3TXMY6UCAFVCYPLR2CM362DOTOEQCD", "dateTime": 1517074933107}, {"current_trial": 122, "trialdata": {"rt": -1000, "trial_type": "single-audio", "word": "wrist", "stimulus": "/static/audio/wordpool/WRIST.wav", "conditions": [24, 800, "a", 12000], "internal_node_id": "0.0-86.0", "trial": 3, "time_elapsed": 642881, "serialpos": 5, "key_press": -1, "wordID": 1625, "type": "PRES_AUD", "trial_index": 122}, "uniqueid": "MTK2393:3TXMY6UCAFVCYPLR2CM362DOTOEQCD", "dateTime": 1517074934812}, {"current_trial": 123, "trialdata": {"rt": -1000, "trial_type": "single-audio", "word": "sidewalk", "stimulus": "/static/audio/wordpool/SIDEWALK.wav", "conditions": [24, 800, "a", 12000], "internal_node_id": "0.0-87.0", "trial": 3, "time_elapsed": 644684, "serialpos": 6, "key_press": -1, "wordID": 1302, "type": "PRES_AUD", "trial_index": 123}, "uniqueid": "MTK2393:3TXMY6UCAFVCYPLR2CM362DOTOEQCD", "dateTime": 1517074936615}, {"current_trial": 124, "trialdata": {"rt": -1000, "trial_type": "single-audio", "word": "skillet", "stimulus": "/static/audio/wordpool/SKILLET.wav", "conditions": [24, 800, "a", 12000], "internal_node_id": "0.0-88.0", "trial": 3, "time_elapsed": 646483, "serialpos": 7, "key_press": -1, "wordID": 1316, "type": "PRES_AUD", "trial_index": 124}, "uniqueid": "MTK2393:3TXMY6UCAFVCYPLR2CM362DOTOEQCD", "dateTime": 1517074938415}, {"current_trial": 125, "trialdata": {"rt": -1000, "trial_type": "single-audio", "word": "seagull", "stimulus": "/static/audio/wordpool/SEAGULL.wav", "conditions": [24, 800, "a", 12000], "internal_node_id": "0.0-89.0", "trial": 3, "time_elapsed": 648126, "serialpos": 8, "key_press": -1, "wordID": 1260, "type": "PRES_AUD", "trial_index": 125}, "uniqueid": "MTK2393:3TXMY6UCAFVCYPLR2CM362DOTOEQCD", "dateTime": 1517074940057}, {"current_trial": 126, "trialdata": {"rt": -1000, "trial_type": "single-audio", "word": "country", "stimulus": "/static/audio/wordpool/COUNTRY.wav", "conditions": [24, 800, "a", 12000], "internal_node_id": "0.0-90.0", "trial": 3, "time_elapsed": 650007, "serialpos": 9, "key_press": -1, "wordID": 387, "type": "PRES_AUD", "trial_index": 126}, "uniqueid": "MTK2393:3TXMY6UCAFVCYPLR2CM362DOTOEQCD", "dateTime": 1517074941938}, {"current_trial": 127, "trialdata": {"rt": -1000, "trial_type": "single-audio", "word": "world", "stimulus": "/static/audio/wordpool/WORLD.wav", "conditions": [24, 800, "a", 12000], "internal_node_id": "0.0-91.0", "trial": 3, "time_elapsed": 651924, "serialpos": 10, "key_press": -1, "wordID": 1621, "type": "PRES_AUD", "trial_index": 127}, "uniqueid": "MTK2393:3TXMY6UCAFVCYPLR2CM362DOTOEQCD", "dateTime": 1517074943855}, {"current_trial": 128, "trialdata": {"rt": -1000, "trial_type": "single-audio", "word": "partner", "stimulus": "/static/audio/wordpool/PARTNER.wav", "conditions": [24, 800, "a", 12000], "internal_node_id": "0.0-92.0", "trial": 3, "time_elapsed": 653879, "serialpos": 11, "key_press": -1, "wordID": 1016, "type": "PRES_AUD", "trial_index": 128}, "uniqueid": "MTK2393:3TXMY6UCAFVCYPLR2CM362DOTOEQCD", "dateTime": 1517074945810}, {"current_trial": 129, "trialdata": {"rt": -1000, "trial_type": "single-audio", "word": "truck", "stimulus": "/static/audio/wordpool/TRUCK.wav", "conditions": [24, 800, "a", 12000], "internal_node_id": "0.0-93.0", "trial": 3, "time_elapsed": 655652, "serialpos": 12, "key_press": -1, "wordID": 1511, "type": "PRES_AUD", "trial_index": 129}, "uniqueid": "MTK2393:3TXMY6UCAFVCYPLR2CM362DOTOEQCD", "dateTime": 1517074947583}, {"current_trial": 130, "trialdata": {"rt": -1000, "trial_type": "single-audio", "word": "picnic", "stimulus": "/static/audio/wordpool/PICNIC.wav", "conditions": [24, 800, "a", 12000], "internal_node_id": "0.0-94.0", "trial": 3, "time_elapsed": 657450, "serialpos": 13, "key_press": -1, "wordID": 1059, "type": "PRES_AUD", "trial_index": 130}, "uniqueid": "MTK2393:3TXMY6UCAFVCYPLR2CM362DOTOEQCD", "dateTime": 1517074949381}, {"current_trial": 131, "trialdata": {"rt": -1000, "trial_type": "single-audio", "word": "cricket", "stimulus": "/static/audio/wordpool/CRICKET.wav", "conditions": [24, 800, "a", 12000], "internal_node_id": "0.0-95.0", "trial": 3, "time_elapsed": 659197, "serialpos": 14, "key_press": -1, "wordID": 407, "type": "PRES_AUD", "trial_index": 131}, "uniqueid": "MTK2393:3TXMY6UCAFVCYPLR2CM362DOTOEQCD", "dateTime": 1517074951128}, {"current_trial": 132, "trialdata": {"rt": -1000, "trial_type": "single-audio", "word": "film", "stimulus": "/static/audio/wordpool/FILM.wav", "conditions": [24, 800, "a", 12000], "internal_node_id": "0.0-96.0", "trial": 3, "time_elapsed": 661049, "serialpos": 15, "key_press": -1, "wordID": 564, "type": "PRES_AUD", "trial_index": 132}, "uniqueid": "MTK2393:3TXMY6UCAFVCYPLR2CM362DOTOEQCD", "dateTime": 1517074952980}, {"current_trial": 133, "trialdata": {"rt": -1000, "trial_type": "single-audio", "word": "bureau", "stimulus": "/static/audio/wordpool/BUREAU.wav", "conditions": [24, 800, "a", 12000], "internal_node_id": "0.0-97.0", "trial": 3, "time_elapsed": 662663, "serialpos": 16, "key_press": -1, "wordID": 198, "type": "PRES_AUD", "trial_index": 133}, "uniqueid": "MTK2393:3TXMY6UCAFVCYPLR2CM362DOTOEQCD", "dateTime": 1517074954594}, {"current_trial": 134, "trialdata": {"rt": -1000, "trial_type": "single-audio", "word": "parrot", "stimulus": "/static/audio/wordpool/PARROT.wav", "conditions": [24, 800, "a", 12000], "internal_node_id": "0.0-98.0", "trial": 3, "time_elapsed": 664647, "serialpos": 17, "key_press": -1, "wordID": 1014, "type": "PRES_AUD", "trial_index": 134}, "uniqueid": "MTK2393:3TXMY6UCAFVCYPLR2CM362DOTOEQCD", "dateTime": 1517074956579}, {"current_trial": 135, "trialdata": {"rt": -1000, "trial_type": "single-audio", "word": "actor", "stimulus": "/static/audio/wordpool/ACTOR.wav", "conditions": [24, 800, "a", 12000], "internal_node_id": "0.0-99.0", "trial": 3, "time_elapsed": 666472, "serialpos": 18, "key_press": -1, "wordID": 4, "type": "PRES_AUD", "trial_index": 135}, "uniqueid": "MTK2393:3TXMY6UCAFVCYPLR2CM362DOTOEQCD", "dateTime": 1517074958403}, {"current_trial": 136, "trialdata": {"rt": -1000, "trial_type": "single-audio", "word": "outdoors", "stimulus": "/static/audio/wordpool/OUTDOORS.wav", "conditions": [24, 800, "a", 12000], "internal_node_id": "0.0-100.0", "trial": 3, "time_elapsed": 668433, "serialpos": 19, "key_press": -1, "wordID": 986, "type": "PRES_AUD", "trial_index": 136}, "uniqueid": "MTK2393:3TXMY6UCAFVCYPLR2CM362DOTOEQCD", "dateTime": 1517074960364}, {"current_trial": 137, "trialdata": {"rt": -1000, "trial_type": "single-audio", "word": "peach", "stimulus": "/static/audio/wordpool/PEACH.wav", "conditions": [24, 800, "a", 12000], "internal_node_id": "0.0-101.0", "trial": 3, "time_elapsed": 670412, "serialpos": 20, "key_press": -1, "wordID": 1030, "type": "PRES_AUD", "trial_index": 137}, "uniqueid": "MTK2393:3TXMY6UCAFVCYPLR2CM362DOTOEQCD", "dateTime": 1517074962343}, {"current_trial": 138, "trialdata": {"rt": -1000, "trial_type": "single-audio", "word": "pecan", "stimulus": "/static/audio/wordpool/PECAN.wav", "conditions": [24, 800, "a", 12000], "internal_node_id": "0.0-102.0", "trial": 3, "time_elapsed": 672113, "serialpos": 21, "key_press": -1, "wordID": 1035, "type": "PRES_AUD", "trial_index": 138}, "uniqueid": "MTK2393:3TXMY6UCAFVCYPLR2CM362DOTOEQCD", "dateTime": 1517074964044}, {"current_trial": 139, "trialdata": {"rt": -1000, "trial_type": "single-audio", "word": "driver", "stimulus": "/static/audio/wordpool/DRIVER.wav", "conditions": [24, 800, "a", 12000], "internal_node_id": "0.0-103.0", "trial": 3, "time_elapsed": 673872, "serialpos": 22, "key_press": -1, "wordID": 498, "type": "PRES_AUD", "trial_index": 139}, "uniqueid": "MTK2393:3TXMY6UCAFVCYPLR2CM362DOTOEQCD", "dateTime": 1517074965803}, {"current_trial": 140, "trialdata": {"rt": -1000, "trial_type": "single-audio", "word": "waiter", "stimulus": "/static/audio/wordpool/WAITER.wav", "conditions": [24, 800, "a", 12000], "internal_node_id": "0.0-104.0", "trial": 3, "time_elapsed": 675748, "serialpos": 23, "key_press": -1, "wordID": 1579, "type": "PRES_AUD", "trial_index": 140}, "uniqueid": "MTK2393:3TXMY6UCAFVCYPLR2CM362DOTOEQCD", "dateTime": 1517074967679}, {"current_trial": 141, "trialdata": {"rt": -1, "trial_type": "single-stim", "stimulus": "", "internal_node_id": "0.0-105.0-0.0", "time_elapsed": 677141, "key_press": -1, "type": "PRE_RECALL_DELAY", "trial_index": 141}, "uniqueid": "MTK2393:3TXMY6UCAFVCYPLR2CM362DOTOEQCD", "dateTime": 1517074969072}, {"current_trial": 142, "trialdata": {"rt": -1000, "trial_type": "single-audio", "stimulus": "/static/audio/400Hz.wav", "internal_node_id": "0.0-106.0", "time_elapsed": 677643, "key_press": -1, "type": "PRE_RECALL_ALERT", "trial_index": 142}, "uniqueid": "MTK2393:3TXMY6UCAFVCYPLR2CM362DOTOEQCD", "dateTime": 1517074969574}, {"current_trial": 143, "trialdata": {"rt": [2024, 2109, 3247, 3354, 4882, 6905, 8537, 10520, 21434], "recwords": ["torties", "", "oyster", "", "bug", "peach", "pecan", "outdoor", "truck"], "key_times": [926, 1033, 1246, 1418, 1556, 1681, 1922, 2024, 2109, 2325, 2628, 2774, 2865, 3015, 3095, 3247, 3354, 4458, 4517, 4610, 4882, 5930, 6071, 6291, 6464, 6562, 6905, 7742, 7864, 8037, 8239, 8301, 8537, 9080, 9264, 9324, 9687, 9789, 9899, 10012, 10520, 19987, 20063, 20199, 20344, 20505, 21434], "trial_type": "free-recall", "conditions": [24, 800, "a", 12000], "internal_node_id": "0.0-107.0-0.0", "key_presses": [84, 79, 82, 84, 73, 69, 83, 188, 32, 79, 89, 83, 84, 69, 82, 188, 32, 66, 85, 71, 188, 80, 69, 65, 67, 72, 188, 80, 69, 67, 65, 78, 188, 79, 85, 84, 68, 79, 79, 82, 188, 84, 82, 85, 67, 75, 32], "trial": 3, "time_elapsed": 737649, "type": "FREE_RECALL", "trial_index": 143}, "uniqueid": "MTK2393:3TXMY6UCAFVCYPLR2CM362DOTOEQCD", "dateTime": 1517075029583}, {"current_trial": 144, "trialdata": {"rt": 906, "trial_type": "text", "internal_node_id": "0.0-108.0", "time_elapsed": 740564, "key_press": 32, "type": "INSTRUCTIONS", "trial_index": 144}, "uniqueid": "MTK2393:3TXMY6UCAFVCYPLR2CM362DOTOEQCD", "dateTime": 1517075032495}, {"current_trial": 145, "trialdata": {"rt": [3894, 5681, 7248, 10681, 12814, 14695, 16684, 18854, 20778, 22977], "trial_type": "math-distractor", "key_times": [3611, 3695, 3894, 5497, 5569, 5681, 6846, 7158, 7248, 10149, 10601, 10681, 12394, 12710, 12814, 14506, 14695, 16214, 16580, 16684, 18279, 18749, 18854, 20472, 20687, 20778, 22669, 22893, 22977], "responses": ["20", "13", "15", "16", "16", "9", "17", "16", "14", "14"], "num2": [6, 7, 5, 9, 7, 1, 9, 4, 2, 3, 6], "num3": [8, 4, 1, 5, 5, 2, 2, 5, 7, 9, 8], "conditions": [24, 1600, "a", 24000], "internal_node_id": "0.0-109.0", "key_presses": [50, 48, 13, 49, 51, 13, 49, 53, 13, 49, 54, 13, 49, 54, 13, 57, 13, 49, 55, 13, 49, 54, 13, 49, 52, 13, 49, 52, 13], "trial": 4, "time_elapsed": 766576, "type": "DISTRACTOR", "trial_index": 145, "num1": [9, 2, 9, 2, 4, 6, 6, 7, 5, 2, 6]}, "uniqueid": "MTK2393:3TXMY6UCAFVCYPLR2CM362DOTOEQCD", "dateTime": 1517075058507}, {"current_trial": 146, "trialdata": {"rt": -1, "trial_type": "single-stim", "stimulus": "<p id=\"stim\">10</p>", "internal_node_id": "0.0-110.0-0.0", "time_elapsed": 769583, "key_press": -1, "trial_index": 146}, "uniqueid": "MTK2393:3TXMY6UCAFVCYPLR2CM362DOTOEQCD", "dateTime": 1517075061514}, {"current_trial": 147, "trialdata": {"rt": -1, "trial_type": "single-stim", "stimulus": "<p id=\"stim\">9</p>", "internal_node_id": "0.0-110.0-1.0", "time_elapsed": 770587, "key_press": -1, "trial_index": 147}, "uniqueid": "MTK2393:3TXMY6UCAFVCYPLR2CM362DOTOEQCD", "dateTime": 1517075062518}, {"current_trial": 148, "trialdata": {"rt": -1, "trial_type": "single-stim", "stimulus": "<p id=\"stim\">8</p>", "internal_node_id": "0.0-110.0-2.0", "time_elapsed": 771591, "key_press": -1, "trial_index": 148}, "uniqueid": "MTK2393:3TXMY6UCAFVCYPLR2CM362DOTOEQCD", "dateTime": 1517075063523}, {"current_trial": 149, "trialdata": {"rt": -1, "trial_type": "single-stim", "stimulus": "<p id=\"stim\">7</p>", "internal_node_id": "0.0-110.0-3.0", "time_elapsed": 772595, "key_press": -1, "trial_index": 149}, "uniqueid": "MTK2393:3TXMY6UCAFVCYPLR2CM362DOTOEQCD", "dateTime": 1517075064527}, {"current_trial": 150, "trialdata": {"rt": -1, "trial_type": "single-stim", "stimulus": "<p id=\"stim\">6</p>", "internal_node_id": "0.0-110.0-4.0", "time_elapsed": 773600, "key_press": -1, "trial_index": 150}, "uniqueid": "MTK2393:3TXMY6UCAFVCYPLR2CM362DOTOEQCD", "dateTime": 1517075065531}, {"current_trial": 151, "trialdata": {"rt": -1, "trial_type": "single-stim", "stimulus": "<p id=\"stim\">5</p>", "internal_node_id": "0.0-110.0-5.0", "time_elapsed": 774604, "key_press": -1, "trial_index": 151}, "uniqueid": "MTK2393:3TXMY6UCAFVCYPLR2CM362DOTOEQCD", "dateTime": 1517075066535}, {"current_trial": 152, "trialdata": {"rt": -1, "trial_type": "single-stim", "stimulus": "<p id=\"stim\">4</p>", "internal_node_id": "0.0-110.0-6.0", "time_elapsed": 775608, "key_press": -1, "trial_index": 152}, "uniqueid": "MTK2393:3TXMY6UCAFVCYPLR2CM362DOTOEQCD", "dateTime": 1517075067539}, {"current_trial": 153, "trialdata": {"rt": -1, "trial_type": "single-stim", "stimulus": "<p id=\"stim\">3</p>", "internal_node_id": "0.0-110.0-7.0", "time_elapsed": 776612, "key_press": -1, "trial_index": 153}, "uniqueid": "MTK2393:3TXMY6UCAFVCYPLR2CM362DOTOEQCD", "dateTime": 1517075068543}, {"current_trial": 154, "trialdata": {"rt": -1, "trial_type": "single-stim", "stimulus": "<p id=\"stim\">2</p>", "internal_node_id": "0.0-110.0-8.0", "time_elapsed": 777616, "key_press": -1, "trial_index": 154}, "uniqueid": "MTK2393:3TXMY6UCAFVCYPLR2CM362DOTOEQCD", "dateTime": 1517075069547}, {"current_trial": 155, "trialdata": {"rt": -1, "trial_type": "single-stim", "stimulus": "<p id=\"stim\">1</p>", "internal_node_id": "0.0-110.0-9.0", "time_elapsed": 778620, "key_press": -1, "trial_index": 155}, "uniqueid": "MTK2393:3TXMY6UCAFVCYPLR2CM362DOTOEQCD", "dateTime": 1517075070551}, {"current_trial": 156, "trialdata": {"rt": -1, "trial_type": "single-stim", "stimulus": "<p id=\"stim\">+</p>", "internal_node_id": "0.0-111.0-0.0", "time_elapsed": 780121, "key_press": -1, "type": "FIXATION", "trial_index": 156}, "uniqueid": "MTK2393:3TXMY6UCAFVCYPLR2CM362DOTOEQCD", "dateTime": 1517075072053}, {"current_trial": 157, "trialdata": {"rt": -1000, "trial_type": "single-audio", "word": "basement", "stimulus": "/static/audio/wordpool/BASEMENT.wav", "conditions": [24, 1600, "a", 24000], "internal_node_id": "0.0-112.0", "trial": 4, "time_elapsed": 782612, "serialpos": 0, "key_press": -1, "wordID": 93, "type": "PRES_AUD", "trial_index": 157}, "uniqueid": "MTK2393:3TXMY6UCAFVCYPLR2CM362DOTOEQCD", "dateTime": 1517075074543}, {"current_trial": 158, "trialdata": {"rt": -1000, "trial_type": "single-audio", "word": "atom", "stimulus": "/static/audio/wordpool/ATOM.wav", "conditions": [24, 1600, "a", 24000], "internal_node_id": "0.0-113.0", "trial": 4, "time_elapsed": 785413, "serialpos": 1, "key_press": -1, "wordID": 54, "type": "PRES_AUD", "trial_index": 158}, "uniqueid": "MTK2393:3TXMY6UCAFVCYPLR2CM362DOTOEQCD", "dateTime": 1517075077344}, {"current_trial": 159, "trialdata": {"rt": -1000, "trial_type": "single-audio", "word": "seafood", "stimulus": "/static/audio/wordpool/SEAFOOD.wav", "conditions": [24, 1600, "a", 24000], "internal_node_id": "0.0-114.0", "trial": 4, "time_elapsed": 788181, "serialpos": 2, "key_press": -1, "wordID": 1259, "type": "PRES_AUD", "trial_index": 159}, "uniqueid": "MTK2393:3TXMY6UCAFVCYPLR2CM362DOTOEQCD", "dateTime": 1517075080112}, {"current_trial": 160, "trialdata": {"rt": -1000, "trial_type": "single-audio", "word": "beef", "stimulus": "/static/audio/wordpool/BEEF.wav", "conditions": [24, 1600, "a", 24000], "internal_node_id": "0.0-115.0", "trial": 4, "time_elapsed": 790969, "serialpos": 3, "key_press": -1, "wordID": 112, "type": "PRES_AUD", "trial_index": 160}, "uniqueid": "MTK2393:3TXMY6UCAFVCYPLR2CM362DOTOEQCD", "dateTime": 1517075082900}, {"current_trial": 161, "trialdata": {"rt": -1000, "trial_type": "single-audio", "word": "cattle", "stimulus": "/static/audio/wordpool/CATTLE.wav", "conditions": [24, 1600, "a", 24000], "internal_node_id": "0.0-116.0", "trial": 4, "time_elapsed": 793555, "serialpos": 4, "key_press": -1, "wordID": 260, "type": "PRES_AUD", "trial_index": 161}, "uniqueid": "MTK2393:3TXMY6UCAFVCYPLR2CM362DOTOEQCD", "dateTime": 1517075085487}, {"current_trial": 162, "trialdata": {"rt": -1000, "trial_type": "single-audio", "word": "muffin", "stimulus": "/static/audio/wordpool/MUFFIN.wav", "conditions": [24, 1600, "a", 24000], "internal_node_id": "0.0-117.0", "trial": 4, "time_elapsed": 796347, "serialpos": 5, "key_press": -1, "wordID": 928, "type": "PRES_AUD", "trial_index": 162}, "uniqueid": "MTK2393:3TXMY6UCAFVCYPLR2CM362DOTOEQCD", "dateTime": 1517075088278}, {"current_trial": 163, "trialdata": {"rt": -1000, "trial_type": "single-audio", "word": "spool", "stimulus": "/static/audio/wordpool/SPOOL.wav", "conditions": [24, 1600, "a", 24000], "internal_node_id": "0.0-118.0", "trial": 4, "time_elapsed": 799099, "serialpos": 6, "key_press": -1, "wordID": 1355, "type": "PRES_AUD", "trial_index": 163}, "uniqueid": "MTK2393:3TXMY6UCAFVCYPLR2CM362DOTOEQCD", "dateTime": 1517075091030}, {"current_trial": 164, "trialdata": {"rt": -1000, "trial_type": "single-audio", "word": "crutch", "stimulus": "/static/audio/wordpool/CRUTCH.wav", "conditions": [24, 1600, "a", 24000], "internal_node_id": "0.0-119.0", "trial": 4, "time_elapsed": 801897, "serialpos": 7, "key_press": -1, "wordID": 416, "type": "PRES_AUD", "trial_index": 164}, "uniqueid": "MTK2393:3TXMY6UCAFVCYPLR2CM362DOTOEQCD", "dateTime": 1517075093828}, {"current_trial": 165, "trialdata": {"rt": -1000, "trial_type": "single-audio", "word": "beast", "stimulus": "/static/audio/wordpool/BEAST.wav", "conditions": [24, 1600, "a", 24000], "internal_node_id": "0.0-120.0", "trial": 4, "time_elapsed": 804428, "serialpos": 8, "key_press": -1, "wordID": 107, "type": "PRES_AUD", "trial_index": 165}, "uniqueid": "MTK2393:3TXMY6UCAFVCYPLR2CM362DOTOEQCD", "dateTime": 1517075096359}, {"current_trial": 166, "trialdata": {"rt": -1000, "trial_type": "single-audio", "word": "football", "stimulus": "/static/audio/wordpool/FOOTBALL.wav", "conditions": [24, 1600, "a", 24000], "internal_node_id": "0.0-121.0", "trial": 4, "time_elapsed": 806866, "serialpos": 9, "key_press": -1, "wordID": 590, "type": "PRES_AUD", "trial_index": 166}, "uniqueid": "MTK2393:3TXMY6UCAFVCYPLR2CM362DOTOEQCD", "dateTime": 1517075098797}, {"current_trial": 167, "trialdata": {"rt": -1000, "trial_type": "single-audio", "word": "loft", "stimulus": "/static/audio/wordpool/LOFT.wav", "conditions": [24, 1600, "a", 24000], "internal_node_id": "0.0-122.0", "trial": 4, "time_elapsed": 809449, "serialpos": 10, "key_press": -1, "wordID": 839, "type": "PRES_AUD", "trial_index": 167}, "uniqueid": "MTK2393:3TXMY6UCAFVCYPLR2CM362DOTOEQCD", "dateTime": 1517075101381}, {"current_trial": 168, "trialdata": {"rt": -1000, "trial_type": "single-audio", "word": "pork", "stimulus": "/static/audio/wordpool/PORK.wav", "conditions": [24, 1600, "a", 24000], "internal_node_id": "0.0-123.0", "trial": 4, "time_elapsed": 811996, "serialpos": 11, "key_press": -1, "wordID": 1107, "type": "PRES_AUD", "trial_index": 168}, "uniqueid": "MTK2393:3TXMY6UCAFVCYPLR2CM362DOTOEQCD", "dateTime": 1517075103927}, {"current_trial": 169, "trialdata": {"rt": -1000, "trial_type": "single-audio", "word": "supper", "stimulus": "/static/audio/wordpool/SUPPER.wav", "conditions": [24, 1600, "a", 24000], "internal_node_id": "0.0-124.0", "trial": 4, "time_elapsed": 814570, "serialpos": 12, "key_press": -1, "wordID": 1410, "type": "PRES_AUD", "trial_index": 169}, "uniqueid": "MTK2393:3TXMY6UCAFVCYPLR2CM362DOTOEQCD", "dateTime": 1517075106501}, {"current_trial": 170, "trialdata": {"rt": -1000, "trial_type": "single-audio", "word": "panther", "stimulus": "/static/audio/wordpool/PANTHER.wav", "conditions": [24, 1600, "a", 24000], "internal_node_id": "0.0-125.0", "trial": 4, "time_elapsed": 817266, "serialpos": 13, "key_press": -1, "wordID": 1008, "type": "PRES_AUD", "trial_index": 170}, "uniqueid": "MTK2393:3TXMY6UCAFVCYPLR2CM362DOTOEQCD", "dateTime": 1517075109197}, {"current_trial": 171, "trialdata": {"rt": -1000, "trial_type": "single-audio", "word": "sheriff", "stimulus": "/static/audio/wordpool/SHERIFF.wav", "conditions": [24, 1600, "a", 24000], "internal_node_id": "0.0-126.0", "trial": 4, "time_elapsed": 819991, "serialpos": 14, "key_press": -1, "wordID": 1283, "type": "PRES_AUD", "trial_index": 171}, "uniqueid": "MTK2393:3TXMY6UCAFVCYPLR2CM362DOTOEQCD", "dateTime": 1517075111924}, {"current_trial": 172, "trialdata": {"rt": -1000, "trial_type": "single-audio", "word": "judge", "stimulus": "/static/audio/wordpool/JUDGE.wav", "conditions": [24, 1600, "a", 24000], "internal_node_id": "0.0-127.0", "trial": 4, "time_elapsed": 822521, "serialpos": 15, "key_press": -1, "wordID": 760, "type": "PRES_AUD", "trial_index": 172}, "uniqueid": "MTK2393:3TXMY6UCAFVCYPLR2CM362DOTOEQCD", "dateTime": 1517075114452}, {"current_trial": 173, "trialdata": {"rt": -1000, "trial_type": "single-audio", "word": "husband", "stimulus": "/static/audio/wordpool/HUSBAND.wav", "conditions": [24, 1600, "a", 24000], "internal_node_id": "0.0-128.0", "trial": 4, "time_elapsed": 825242, "serialpos": 16, "key_press": -1, "wordID": 727, "type": "PRES_AUD", "trial_index": 173}, "uniqueid": "MTK2393:3TXMY6UCAFVCYPLR2CM362DOTOEQCD", "dateTime": 1517075117173}, {"current_trial": 174, "trialdata": {"rt": -1000, "trial_type": "single-audio", "word": "tractor", "stimulus": "/static/audio/wordpool/TRACTOR.wav", "conditions": [24, 1600, "a", 24000], "internal_node_id": "0.0-129.0", "trial": 4, "time_elapsed": 828014, "serialpos": 17, "key_press": -1, "wordID": 1492, "type": "PRES_AUD", "trial_index": 174}, "uniqueid": "MTK2393:3TXMY6UCAFVCYPLR2CM362DOTOEQCD", "dateTime": 1517075119946}, {"current_trial": 175, "trialdata": {"rt": -1000, "trial_type": "single-audio", "word": "wagon", "stimulus": "/static/audio/wordpool/WAGON.wav", "conditions": [24, 1600, "a", 24000], "internal_node_id": "0.0-130.0", "trial": 4, "time_elapsed": 830754, "serialpos": 18, "key_press": -1, "wordID": 1577, "type": "PRES_AUD", "trial_index": 175}, "uniqueid": "MTK2393:3TXMY6UCAFVCYPLR2CM362DOTOEQCD", "dateTime": 1517075122685}, {"current_trial": 176, "trialdata": {"rt": -1000, "trial_type": "single-audio", "word": "umpire", "stimulus": "/static/audio/wordpool/UMPIRE.wav", "conditions": [24, 1600, "a", 24000], "internal_node_id": "0.0-131.0", "trial": 4, "time_elapsed": 833372, "serialpos": 19, "key_press": -1, "wordID": 1534, "type": "PRES_AUD", "trial_index": 176}, "uniqueid": "MTK2393:3TXMY6UCAFVCYPLR2CM362DOTOEQCD", "dateTime": 1517075125303}, {"current_trial": 177, "trialdata": {"rt": -1000, "trial_type": "single-audio", "word": "friend", "stimulus": "/static/audio/wordpool/FRIEND.wav", "conditions": [24, 1600, "a", 24000], "internal_node_id": "0.0-132.0", "trial": 4, "time_elapsed": 835921, "serialpos": 20, "key_press": -1, "wordID": 605, "type": "PRES_AUD", "trial_index": 177}, "uniqueid": "MTK2393:3TXMY6UCAFVCYPLR2CM362DOTOEQCD", "dateTime": 1517075127852}, {"current_trial": 178, "trialdata": {"rt": -1000, "trial_type": "single-audio", "word": "dolphin", "stimulus": "/static/audio/wordpool/DOLPHIN.wav", "conditions": [24, 1600, "a", 24000], "internal_node_id": "0.0-133.0", "trial": 4, "time_elapsed": 838371, "serialpos": 21, "key_press": -1, "wordID": 482, "type": "PRES_AUD", "trial_index": 178}, "uniqueid": "MTK2393:3TXMY6UCAFVCYPLR2CM362DOTOEQCD", "dateTime": 1517075130302}, {"current_trial": 179, "trialdata": {"rt": -1000, "trial_type": "single-audio", "word": "peanut", "stimulus": "/static/audio/wordpool/PEANUT.wav", "conditions": [24, 1600, "a", 24000], "internal_node_id": "0.0-134.0", "trial": 4, "time_elapsed": 841140, "serialpos": 22, "key_press": -1, "wordID": 1031, "type": "PRES_AUD", "trial_index": 179}, "uniqueid": "MTK2393:3TXMY6UCAFVCYPLR2CM362DOTOEQCD", "dateTime": 1517075133071}, {"current_trial": 180, "trialdata": {"rt": -1000, "trial_type": "single-audio", "word": "champagne", "stimulus": "/static/audio/wordpool/CHAMPAGNE.wav", "conditions": [24, 1600, "a", 24000], "internal_node_id": "0.0-135.0", "trial": 4, "time_elapsed": 843687, "serialpos": 23, "key_press": -1, "wordID": 277, "type": "PRES_AUD", "trial_index": 180}, "uniqueid": "MTK2393:3TXMY6UCAFVCYPLR2CM362DOTOEQCD", "dateTime": 1517075135618}, {"current_trial": 181, "trialdata": {"rt": -1, "trial_type": "single-stim", "stimulus": "", "internal_node_id": "0.0-136.0-0.0", "time_elapsed": 845052, "key_press": -1, "type": "PRE_RECALL_DELAY", "trial_index": 181}, "uniqueid": "MTK2393:3TXMY6UCAFVCYPLR2CM362DOTOEQCD", "dateTime": 1517075136983}, {"current_trial": 182, "trialdata": {"rt": -1000, "trial_type": "single-audio", "stimulus": "/static/audio/400Hz.wav", "internal_node_id": "0.0-137.0", "time_elapsed": 845554, "key_press": -1, "type": "PRE_RECALL_ALERT", "trial_index": 182}, "uniqueid": "MTK2393:3TXMY6UCAFVCYPLR2CM362DOTOEQCD", "dateTime": 1517075137485}, {"current_trial": 183, "trialdata": {"rt": [2241, 2393, 3719, 4749, 6466, 7689, 9322, 11249, 19892, 26662], "recwords": ["basement", "", "cattle", "beef", "beast", "pork", "peanutm", "supper", "chapagne", "muffin"], "key_times": [1003, 1141, 1288, 1491, 1652, 1772, 1863, 2037, 2241, 2393, 2808, 2989, 3220, 3331, 3465, 3598, 3719, 4218, 4322, 4450, 4643, 4749, 5083, 5206, 5462, 5676, 5827, 6466, 6814, 7006, 7166, 7273, 7689, 8347, 8469, 8689, 8845, 9007, 9147, 9321, 9322, 10530, 10621, 10806, 10911, 11043, 11130, 11249, 11993, 12094, 12247, 13351, 13699, 14089, 14294, 14417, 14545, 17228, 17379, 17547, 17681, 18701, 18912, 19034, 19892, 25119, 25298, 25518, 25650, 25741, 25817, 26662], "trial_type": "free-recall", "conditions": [24, 1600, "a", 24000], "internal_node_id": "0.0-138.0-0.0", "key_presses": [66, 65, 83, 69, 77, 69, 78, 84, 188, 32, 67, 65, 84, 84, 76, 69, 188, 66, 69, 69, 70, 188, 66, 69, 65, 83, 84, 188, 80, 79, 82, 75, 188, 80, 69, 65, 78, 85, 84, 77, 188, 83, 85, 80, 80, 69, 82, 188, 67, 72, 65, 80, 65, 77, 71, 78, 69, 8, 8, 8, 8, 71, 78, 69, 188, 77, 85, 70, 70, 73, 78, 32], "trial": 4, "time_elapsed": 905561, "type": "FREE_RECALL", "trial_index": 183}, "uniqueid": "MTK2393:3TXMY6UCAFVCYPLR2CM362DOTOEQCD", "dateTime": 1517075197497}, {"current_trial": 184, "trialdata": {"rt": 3784, "trial_type": "text", "internal_node_id": "0.0-139.0", "time_elapsed": 911354, "key_press": 32, "type": "INSTRUCTIONS", "trial_index": 184}, "uniqueid": "MTK2393:3TXMY6UCAFVCYPLR2CM362DOTOEQCD", "dateTime": 1517075203285}, {"current_trial": 185, "trialdata": {"rt": [2344, 4289, 6283, 7732, 10427], "trial_type": "math-distractor", "key_times": [1779, 2090, 2344, 3773, 4214, 4289, 5702, 6158, 6180, 6283, 7507, 7732, 9827, 10322, 10427], "responses": ["16", "18", "190", "4", "19"], "num2": [6, 9, 8, 1, 4, 2], "num3": [6, 4, 8, 2, 9, 9], "conditions": [12, 800, "a", 12000], "internal_node_id": "0.0-140.0", "key_presses": [49, 54, 13, 49, 56, 13, 49, 57, 48, 13, 52, 13, 49, 57, 13], "trial": 5, "time_elapsed": 925359, "type": "DISTRACTOR", "trial_index": 185, "num1": [4, 5, 3, 1, 6, 6]}, "uniqueid": "MTK2393:3TXMY6UCAFVCYPLR2CM362DOTOEQCD", "dateTime": 1517075217290}, {"current_trial": 186, "trialdata": {"rt": -1, "trial_type": "single-stim", "stimulus": "<p id=\"stim\">10</p>", "internal_node_id": "0.0-141.0-0.0", "time_elapsed": 928365, "key_press": -1, "trial_index": 186}, "uniqueid": "MTK2393:3TXMY6UCAFVCYPLR2CM362DOTOEQCD", "dateTime": 1517075220297}, {"current_trial": 187, "trialdata": {"rt": -1, "trial_type": "single-stim", "stimulus": "<p id=\"stim\">9</p>", "internal_node_id": "0.0-141.0-1.0", "time_elapsed": 929369, "key_press": -1, "trial_index": 187}, "uniqueid": "MTK2393:3TXMY6UCAFVCYPLR2CM362DOTOEQCD", "dateTime": 1517075221300}, {"current_trial": 188, "trialdata": {"rt": -1, "trial_type": "single-stim", "stimulus": "<p id=\"stim\">8</p>", "internal_node_id": "0.0-141.0-2.0", "time_elapsed": 930374, "key_press": -1, "trial_index": 188}, "uniqueid": "MTK2393:3TXMY6UCAFVCYPLR2CM362DOTOEQCD", "dateTime": 1517075222305}, {"current_trial": 189, "trialdata": {"rt": -1, "trial_type": "single-stim", "stimulus": "<p id=\"stim\">7</p>", "internal_node_id": "0.0-141.0-3.0", "time_elapsed": 931378, "key_press": -1, "trial_index": 189}, "uniqueid": "MTK2393:3TXMY6UCAFVCYPLR2CM362DOTOEQCD", "dateTime": 1517075223309}, {"current_trial": 190, "trialdata": {"rt": -1, "trial_type": "single-stim", "stimulus": "<p id=\"stim\">6</p>", "internal_node_id": "0.0-141.0-4.0", "time_elapsed": 932382, "key_press": -1, "trial_index": 190}, "uniqueid": "MTK2393:3TXMY6UCAFVCYPLR2CM362DOTOEQCD", "dateTime": 1517075224313}, {"current_trial": 191, "trialdata": {"rt": -1, "trial_type": "single-stim", "stimulus": "<p id=\"stim\">5</p>", "internal_node_id": "0.0-141.0-5.0", "time_elapsed": 933386, "key_press": -1, "trial_index": 191}, "uniqueid": "MTK2393:3TXMY6UCAFVCYPLR2CM362DOTOEQCD", "dateTime": 1517075225317}, {"current_trial": 192, "trialdata": {"rt": -1, "trial_type": "single-stim", "stimulus": "<p id=\"stim\">4</p>", "internal_node_id": "0.0-141.0-6.0", "time_elapsed": 934390, "key_press": -1, "trial_index": 192}, "uniqueid": "MTK2393:3TXMY6UCAFVCYPLR2CM362DOTOEQCD", "dateTime": 1517075226321}, {"current_trial": 193, "trialdata": {"rt": -1, "trial_type": "single-stim", "stimulus": "<p id=\"stim\">3</p>", "internal_node_id": "0.0-141.0-7.0", "time_elapsed": 935394, "key_press": -1, "trial_index": 193}, "uniqueid": "MTK2393:3TXMY6UCAFVCYPLR2CM362DOTOEQCD", "dateTime": 1517075227325}, {"current_trial": 194, "trialdata": {"rt": -1, "trial_type": "single-stim", "stimulus": "<p id=\"stim\">2</p>", "internal_node_id": "0.0-141.0-8.0", "time_elapsed": 936398, "key_press": -1, "trial_index": 194}, "uniqueid": "MTK2393:3TXMY6UCAFVCYPLR2CM362DOTOEQCD", "dateTime": 1517075228329}, {"current_trial": 195, "trialdata": {"rt": -1, "trial_type": "single-stim", "stimulus": "<p id=\"stim\">1</p>", "internal_node_id": "0.0-141.0-9.0", "time_elapsed": 937403, "key_press": -1, "trial_index": 195}, "uniqueid": "MTK2393:3TXMY6UCAFVCYPLR2CM362DOTOEQCD", "dateTime": 1517075229334}, {"current_trial": 196, "trialdata": {"rt": -1, "trial_type": "single-stim", "stimulus": "<p id=\"stim\">+</p>", "internal_node_id": "0.0-142.0-0.0", "time_elapsed": 938906, "key_press": -1, "type": "FIXATION", "trial_index": 196}, "uniqueid": "MTK2393:3TXMY6UCAFVCYPLR2CM362DOTOEQCD", "dateTime": 1517075230837}, {"current_trial": 197, "trialdata": {"rt": -1000, "trial_type": "single-audio", "word": "author", "stimulus": "/static/audio/wordpool/AUTHOR.wav", "conditions": [12, 800, "a", 12000], "internal_node_id": "0.0-143.0", "trial": 5, "time_elapsed": 940668, "serialpos": 0, "key_press": -1, "wordID": 60, "type": "PRES_AUD", "trial_index": 197}, "uniqueid": "MTK2393:3TXMY6UCAFVCYPLR2CM362DOTOEQCD", "dateTime": 1517075232599}, {"current_trial": 198, "trialdata": {"rt": -1000, "trial_type": "single-audio", "word": "butcher", "stimulus": "/static/audio/wordpool/BUTCHER.wav", "conditions": [12, 800, "a", 12000], "internal_node_id": "0.0-144.0", "trial": 5, "time_elapsed": 942624, "serialpos": 1, "key_press": -1, "wordID": 202, "type": "PRES_AUD", "trial_index": 198}, "uniqueid": "MTK2393:3TXMY6UCAFVCYPLR2CM362DOTOEQCD", "dateTime": 1517075234555}, {"current_trial": 199, "trialdata": {"rt": -1000, "trial_type": "single-audio", "word": "clam", "stimulus": "/static/audio/wordpool/CLAM.wav", "conditions": [12, 800, "a", 12000], "internal_node_id": "0.0-145.0", "trial": 5, "time_elapsed": 944235, "serialpos": 2, "key_press": -1, "wordID": 314, "type": "PRES_AUD", "trial_index": 199}, "uniqueid": "MTK2393:3TXMY6UCAFVCYPLR2CM362DOTOEQCD", "dateTime": 1517075236166}, {"current_trial": 200, "trialdata": {"rt": -1000, "trial_type": "single-audio", "word": "burglar", "stimulus": "/static/audio/wordpool/BURGLAR.wav", "conditions": [12, 800, "a", 12000], "internal_node_id": "0.0-146.0", "trial": 5, "time_elapsed": 946113, "serialpos": 3, "key_press": -1, "wordID": 199, "type": "PRES_AUD", "trial_index": 200}, "uniqueid": "MTK2393:3TXMY6UCAFVCYPLR2CM362DOTOEQCD", "dateTime": 1517075238044}, {"current_trial": 201, "trialdata": {"rt": -1000, "trial_type": "single-audio", "word": "robber", "stimulus": "/static/audio/wordpool/ROBBER.wav", "conditions": [12, 800, "a", 12000], "internal_node_id": "0.0-147.0", "trial": 5, "time_elapsed": 947936, "serialpos": 4, "key_press": -1, "wordID": 1196, "type": "PRES_AUD", "trial_index": 201}, "uniqueid": "MTK2393:3TXMY6UCAFVCYPLR2CM362DOTOEQCD", "dateTime": 1517075239867}, {"current_trial": 202, "trialdata": {"rt": -1000, "trial_type": "single-audio", "word": "scallop", "stimulus": "/static/audio/wordpool/SCALLOP.wav", "conditions": [12, 800, "a", 12000], "internal_node_id": "0.0-148.0", "trial": 5, "time_elapsed": 949563, "serialpos": 5, "key_press": -1, "wordID": 1241, "type": "PRES_AUD", "trial_index": 202}, "uniqueid": "MTK2393:3TXMY6UCAFVCYPLR2CM362DOTOEQCD", "dateTime": 1517075241494}, {"current_trial": 203, "trialdata": {"rt": -1000, "trial_type": "single-audio", "word": "barrel", "stimulus": "/static/audio/wordpool/BARREL.wav", "conditions": [12, 800, "a", 12000], "internal_node_id": "0.0-149.0", "trial": 5, "time_elapsed": 951198, "serialpos": 6, "key_press": -1, "wordID": 90, "type": "PRES_AUD", "trial_index": 203}, "uniqueid": "MTK2393:3TXMY6UCAFVCYPLR2CM362DOTOEQCD", "dateTime": 1517075243129}, {"current_trial": 204, "trialdata": {"rt": -1000, "trial_type": "single-audio", "word": "turnip", "stimulus": "/static/audio/wordpool/TURNIP.wav", "conditions": [12, 800, "a", 12000], "internal_node_id": "0.0-150.0", "trial": 5, "time_elapsed": 952992, "serialpos": 7, "key_press": -1, "wordID": 1520, "type": "PRES_AUD", "trial_index": 204}, "uniqueid": "MTK2393:3TXMY6UCAFVCYPLR2CM362DOTOEQCD", "dateTime": 1517075244923}, {"current_trial": 205, "trialdata": {"rt": -1000, "trial_type": "single-audio", "word": "girl", "stimulus": "/static/audio/wordpool/GIRL.wav", "conditions": [12, 800, "a", 12000], "internal_node_id": "0.0-151.0", "trial": 5, "time_elapsed": 954646, "serialpos": 8, "key_press": -1, "wordID": 636, "type": "PRES_AUD", "trial_index": 205}, "uniqueid": "MTK2393:3TXMY6UCAFVCYPLR2CM362DOTOEQCD", "dateTime": 1517075246578}, {"current_trial": 206, "trialdata": {"rt": -1000, "trial_type": "single-audio", "word": "actress", "stimulus": "/static/audio/wordpool/ACTRESS.wav", "conditions": [12, 800, "a", 12000], "internal_node_id": "0.0-152.0", "trial": 5, "time_elapsed": 956394, "serialpos": 9, "key_press": -1, "wordID": 5, "type": "PRES_AUD", "trial_index": 206}, "uniqueid": "MTK2393:3TXMY6UCAFVCYPLR2CM362DOTOEQCD", "dateTime": 1517075248325}, {"current_trial": 207, "trialdata": {"rt": -1000, "trial_type": "single-audio", "word": "costume", "stimulus": "/static/audio/wordpool/COSTUME.wav", "conditions": [12, 800, "a", 12000], "internal_node_id": "0.0-153.0", "trial": 5, "time_elapsed": 958246, "serialpos": 10, "key_press": -1, "wordID": 382, "type": "PRES_AUD", "trial_index": 207}, "uniqueid": "MTK2393:3TXMY6UCAFVCYPLR2CM362DOTOEQCD", "dateTime": 1517075250177}, {"current_trial": 208, "trialdata": {"rt": -1000, "trial_type": "single-audio", "word": "window", "stimulus": "/static/audio/wordpool/WINDOW.wav", "conditions": [12, 800, "a", 12000], "internal_node_id": "0.0-154.0", "trial": 5, "time_elapsed": 960040, "serialpos": 11, "key_press": -1, "wordID": 1610, "type": "PRES_AUD", "trial_index": 208}, "uniqueid": "MTK2393:3TXMY6UCAFVCYPLR2CM362DOTOEQCD", "dateTime": 1517075251971}, {"current_trial": 209, "trialdata": {"rt": -1, "trial_type": "single-stim", "stimulus": "", "internal_node_id": "0.0-155.0-0.0", "time_elapsed": 961317, "key_press": -1, "type": "PRE_RECALL_DELAY", "trial_index": 209}, "uniqueid": "MTK2393:3TXMY6UCAFVCYPLR2CM362DOTOEQCD", "dateTime": 1517075253248}, {"current_trial": 210, "trialdata": {"rt": -1000, "trial_type": "single-audio", "stimulus": "/static/audio/400Hz.wav", "internal_node_id": "0.0-156.0", "time_elapsed": 961819, "key_press": -1, "type": "PRE_RECALL_ALERT", "trial_index": 210}, "uniqueid": "MTK2393:3TXMY6UCAFVCYPLR2CM362DOTOEQCD", "dateTime": 1517075253750}, {"current_trial": 211, "trialdata": {"rt": [2948, 4503, 7156, 8379, 11931, 21112], "recwords": ["author", "burher", "burger", "clam", "costume", "butcher"], "key_times": [871, 997, 1310, 1389, 1576, 1682, 2948, 3415, 3511, 3689, 3807, 3950, 4042, 4503, 5687, 6246, 6386, 6599, 6812, 6903, 7156, 7654, 7874, 8039, 8140, 8379, 10232, 10349, 10499, 10713, 10813, 11047, 11182, 11931, 19665, 19734, 19842, 20091, 20186, 20302, 20366, 21112], "trial_type": "free-recall", "conditions": [12, 800, "a", 12000], "internal_node_id": "0.0-157.0-0.0", "key_presses": [65, 85, 84, 72, 79, 82, 32, 66, 85, 82, 72, 69, 82, 32, 66, 85, 82, 71, 69, 82, 32, 67, 76, 65, 77, 188, 67, 79, 83, 84, 85, 77, 69, 32, 66, 85, 84, 67, 72, 69, 82, 32], "trial": 5, "time_elapsed": 1021826, "type": "FREE_RECALL", "trial_index": 211}, "uniqueid": "MTK2393:3TXMY6UCAFVCYPLR2CM362DOTOEQCD", "dateTime": 1517075313760}, {"current_trial": 212, "trialdata": {"rt": 609, "trial_type": "text", "internal_node_id": "0.0-158.0", "time_elapsed": 1024443, "key_press": 32, "type": "INSTRUCTIONS", "trial_index": 212}, "uniqueid": "MTK2393:3TXMY6UCAFVCYPLR2CM362DOTOEQCD", "dateTime": 1517075316374}, {"current_trial": 213, "trialdata": {"rt": [1938, 3630, 5315, 7257, 9195, 11380, 13264, 14827, 16750, 19446, 21853, 23761], "trial_type": "math-distractor", "key_times": [1498, 1681, 1938, 3251, 3386, 3630, 4954, 5240, 5315, 6577, 7060, 7257, 8950, 9012, 9195, 11079, 11180, 11380, 12673, 12856, 13264, 14596, 14732, 14827, 16415, 16687, 16750, 18892, 19359, 19446, 21334, 21778, 21853, 23125, 23697, 23761], "responses": ["16", "16", "13", "16", "19", "20", "17", "11", "14", "16", "17", "17"], "num2": [6, 9, 8, 9, 8, 5, 1, 4, 4, 7, 1, 6, 4], "num3": [5, 6, 3, 1, 3, 9, 8, 4, 6, 4, 9, 7, 5], "conditions": [12, 1600, "a", 24000], "internal_node_id": "0.0-159.0", "key_presses": [49, 54, 13, 49, 54, 13, 49, 51, 13, 49, 54, 13, 49, 57, 13, 50, 48, 13, 49, 55, 13, 49, 49, 13, 49, 52, 13, 49, 54, 13, 49, 55, 13, 49, 55, 13], "trial": 6, "time_elapsed": 1050451, "type": "DISTRACTOR", "trial_index": 213, "num1": [5, 1, 2, 6, 8, 6, 8, 3, 4, 5, 7, 4, 2]}, "uniqueid": "MTK2393:3TXMY6UCAFVCYPLR2CM362DOTOEQCD", "dateTime": 1517075342383}, {"current_trial": 214, "trialdata": {"rt": -1, "trial_type": "single-stim", "stimulus": "<p id=\"stim\">10</p>", "internal_node_id": "0.0-160.0-0.0", "time_elapsed": 1053458, "key_press": -1, "trial_index": 214}, "uniqueid": "MTK2393:3TXMY6UCAFVCYPLR2CM362DOTOEQCD", "dateTime": 1517075345389}, {"current_trial": 215, "trialdata": {"rt": -1, "trial_type": "single-stim", "stimulus": "<p id=\"stim\">9</p>", "internal_node_id": "0.0-160.0-1.0", "time_elapsed": 1054462, "key_press": -1, "trial_index": 215}, "uniqueid": "MTK2393:3TXMY6UCAFVCYPLR2CM362DOTOEQCD", "dateTime": 1517075346393}, {"current_trial": 216, "trialdata": {"rt": -1, "trial_type": "single-stim", "stimulus": "<p id=\"stim\">8</p>", "internal_node_id": "0.0-160.0-2.0", "time_elapsed": 1055466, "key_press": -1, "trial_index": 216}, "uniqueid": "MTK2393:3TXMY6UCAFVCYPLR2CM362DOTOEQCD", "dateTime": 1517075347397}, {"current_trial": 217, "trialdata": {"rt": -1, "trial_type": "single-stim", "stimulus": "<p id=\"stim\">7</p>", "internal_node_id": "0.0-160.0-3.0", "time_elapsed": 1056470, "key_press": -1, "trial_index": 217}, "uniqueid": "MTK2393:3TXMY6UCAFVCYPLR2CM362DOTOEQCD", "dateTime": 1517075348401}, {"current_trial": 218, "trialdata": {"rt": -1, "trial_type": "single-stim", "stimulus": "<p id=\"stim\">6</p>", "internal_node_id": "0.0-160.0-4.0", "time_elapsed": 1057474, "key_press": -1, "trial_index": 218}, "uniqueid": "MTK2393:3TXMY6UCAFVCYPLR2CM362DOTOEQCD", "dateTime": 1517075349405}, {"current_trial": 219, "trialdata": {"rt": -1, "trial_type": "single-stim", "stimulus": "<p id=\"stim\">5</p>", "internal_node_id": "0.0-160.0-5.0", "time_elapsed": 1058478, "key_press": -1, "trial_index": 219}, "uniqueid": "MTK2393:3TXMY6UCAFVCYPLR2CM362DOTOEQCD", "dateTime": 1517075350409}, {"current_trial": 220, "trialdata": {"rt": -1, "trial_type": "single-stim", "stimulus": "<p id=\"stim\">4</p>", "internal_node_id": "0.0-160.0-6.0", "time_elapsed": 1059482, "key_press": -1, "trial_index": 220}, "uniqueid": "MTK2393:3TXMY6UCAFVCYPLR2CM362DOTOEQCD", "dateTime": 1517075351414}, {"current_trial": 221, "trialdata": {"rt": -1, "trial_type": "single-stim", "stimulus": "<p id=\"stim\">3</p>", "internal_node_id": "0.0-160.0-7.0", "time_elapsed": 1060487, "key_press": -1, "trial_index": 221}, "uniqueid": "MTK2393:3TXMY6UCAFVCYPLR2CM362DOTOEQCD", "dateTime": 1517075352418}, {"current_trial": 222, "trialdata": {"rt": -1, "trial_type": "single-stim", "stimulus": "<p id=\"stim\">2</p>", "internal_node_id": "0.0-160.0-8.0", "time_elapsed": 1061491, "key_press": -1, "trial_index": 222}, "uniqueid": "MTK2393:3TXMY6UCAFVCYPLR2CM362DOTOEQCD", "dateTime": 1517075353422}, {"current_trial": 223, "trialdata": {"rt": -1, "trial_type": "single-stim", "stimulus": "<p id=\"stim\">1</p>", "internal_node_id": "0.0-160.0-9.0", "time_elapsed": 1062495, "key_press": -1, "trial_index": 223}, "uniqueid": "MTK2393:3TXMY6UCAFVCYPLR2CM362DOTOEQCD", "dateTime": 1517075354426}, {"current_trial": 224, "trialdata": {"rt": -1, "trial_type": "single-stim", "stimulus": "<p id=\"stim\">+</p>", "internal_node_id": "0.0-161.0-0.0", "time_elapsed": 1063998, "key_press": -1, "type": "FIXATION", "trial_index": 224}, "uniqueid": "MTK2393:3TXMY6UCAFVCYPLR2CM362DOTOEQCD", "dateTime": 1517075355929}, {"current_trial": 225, "trialdata": {"rt": -1000, "trial_type": "single-audio", "word": "chest", "stimulus": "/static/audio/wordpool/CHEST.wav", "conditions": [12, 1600, "a", 24000], "internal_node_id": "0.0-162.0", "trial": 6, "time_elapsed": 1066661, "serialpos": 0, "key_press": -1, "wordID": 294, "type": "PRES_AUD", "trial_index": 225}, "uniqueid": "MTK2393:3TXMY6UCAFVCYPLR2CM362DOTOEQCD", "dateTime": 1517075358592}, {"current_trial": 226, "trialdata": {"rt": -1000, "trial_type": "single-audio", "word": "lizard", "stimulus": "/static/audio/wordpool/LIZARD.wav", "conditions": [12, 1600, "a", 24000], "internal_node_id": "0.0-163.0", "trial": 6, "time_elapsed": 1069216, "serialpos": 1, "key_press": -1, "wordID": 833, "type": "PRES_AUD", "trial_index": 226}, "uniqueid": "MTK2393:3TXMY6UCAFVCYPLR2CM362DOTOEQCD", "dateTime": 1517075361147}, {"current_trial": 227, "trialdata": {"rt": -1000, "trial_type": "single-audio", "word": "critic", "stimulus": "/static/audio/wordpool/CRITIC.wav", "conditions": [12, 1600, "a", 24000], "internal_node_id": "0.0-164.0", "trial": 6, "time_elapsed": 1071671, "serialpos": 2, "key_press": -1, "wordID": 409, "type": "PRES_AUD", "trial_index": 227}, "uniqueid": "MTK2393:3TXMY6UCAFVCYPLR2CM362DOTOEQCD", "dateTime": 1517075363602}, {"current_trial": 228, "trialdata": {"rt": -1000, "trial_type": "single-audio", "word": "hawk", "stimulus": "/static/audio/wordpool/HAWK.wav", "conditions": [12, 1600, "a", 24000], "internal_node_id": "0.0-165.0", "trial": 6, "time_elapsed": 1074417, "serialpos": 3, "key_press": -1, "wordID": 691, "type": "PRES_AUD", "trial_index": 228}, "uniqueid": "MTK2393:3TXMY6UCAFVCYPLR2CM362DOTOEQCD", "dateTime": 1517075366348}, {"current_trial": 229, "trialdata": {"rt": -1000, "trial_type": "single-audio", "word": "pliers", "stimulus": "/static/audio/wordpool/PLIERS.wav", "conditions": [12, 1600, "a", 24000], "internal_node_id": "0.0-166.0", "trial": 6, "time_elapsed": 1077029, "serialpos": 4, "key_press": -1, "wordID": 1088, "type": "PRES_AUD", "trial_index": 229}, "uniqueid": "MTK2393:3TXMY6UCAFVCYPLR2CM362DOTOEQCD", "dateTime": 1517075368960}, {"current_trial": 230, "trialdata": {"rt": -1000, "trial_type": "single-audio", "word": "creature", "stimulus": "/static/audio/wordpool/CREATURE.wav", "conditions": [12, 1600, "a", 24000], "internal_node_id": "0.0-167.0", "trial": 6, "time_elapsed": 1079641, "serialpos": 5, "key_press": -1, "wordID": 402, "type": "PRES_AUD", "trial_index": 230}, "uniqueid": "MTK2393:3TXMY6UCAFVCYPLR2CM362DOTOEQCD", "dateTime": 1517075371572}, {"current_trial": 231, "trialdata": {"rt": -1000, "trial_type": "single-audio", "word": "penguin", "stimulus": "/static/audio/wordpool/PENGUIN.wav", "conditions": [12, 1600, "a", 24000], "internal_node_id": "0.0-168.0", "trial": 6, "time_elapsed": 1082219, "serialpos": 6, "key_press": -1, "wordID": 1043, "type": "PRES_AUD", "trial_index": 231}, "uniqueid": "MTK2393:3TXMY6UCAFVCYPLR2CM362DOTOEQCD", "dateTime": 1517075374150}, {"current_trial": 232, "trialdata": {"rt": -1000, "trial_type": "single-audio", "word": "valve", "stimulus": "/static/audio/wordpool/VALVE.wav", "conditions": [12, 1600, "a", 24000], "internal_node_id": "0.0-169.0", "trial": 6, "time_elapsed": 1084790, "serialpos": 7, "key_press": -1, "wordID": 1545, "type": "PRES_AUD", "trial_index": 232}, "uniqueid": "MTK2393:3TXMY6UCAFVCYPLR2CM362DOTOEQCD", "dateTime": 1517075376721}, {"current_trial": 233, "trialdata": {"rt": -1000, "trial_type": "single-audio", "word": "gymnast", "stimulus": "/static/audio/wordpool/GYMNAST.wav", "conditions": [12, 1600, "a", 24000], "internal_node_id": "0.0-170.0", "trial": 6, "time_elapsed": 1087565, "serialpos": 8, "key_press": -1, "wordID": 674, "type": "PRES_AUD", "trial_index": 233}, "uniqueid": "MTK2393:3TXMY6UCAFVCYPLR2CM362DOTOEQCD", "dateTime": 1517075379496}, {"current_trial": 234, "trialdata": {"rt": -1000, "trial_type": "single-audio", "word": "dancer", "stimulus": "/static/audio/wordpool/DANCER.wav", "conditions": [12, 1600, "a", 24000], "internal_node_id": "0.0-171.0", "trial": 6, "time_elapsed": 1090148, "serialpos": 9, "key_press": -1, "wordID": 436, "type": "PRES_AUD", "trial_index": 234}, "uniqueid": "MTK2393:3TXMY6UCAFVCYPLR2CM362DOTOEQCD", "dateTime": 1517075382080}, {"current_trial": 235, "trialdata": {"rt": -1000, "trial_type": "single-audio", "word": "carriage", "stimulus": "/static/audio/wordpool/CARRIAGE.wav", "conditions": [12, 1600, "a", 24000], "internal_node_id": "0.0-172.0", "trial": 6, "time_elapsed": 1092825, "serialpos": 10, "key_press": -1, "wordID": 247, "type": "PRES_AUD", "trial_index": 235}, "uniqueid": "MTK2393:3TXMY6UCAFVCYPLR2CM362DOTOEQCD", "dateTime": 1517075384756}, {"current_trial": 236, "trialdata": {"rt": -1000, "trial_type": "single-audio", "word": "flashlight", "stimulus": "/static/audio/wordpool/FLASHLIGHT.wav", "conditions": [12, 1600, "a", 24000], "internal_node_id": "0.0-173.0", "trial": 6, "time_elapsed": 1095269, "serialpos": 11, "key_press": -1, "wordID": 574, "type": "PRES_AUD", "trial_index": 236}, "uniqueid": "MTK2393:3TXMY6UCAFVCYPLR2CM362DOTOEQCD", "dateTime": 1517075387200}, {"current_trial": 237, "trialdata": {"rt": -1, "trial_type": "single-stim", "stimulus": "", "internal_node_id": "0.0-174.0-0.0", "time_elapsed": 1096575, "key_press": -1, "type": "PRE_RECALL_DELAY", "trial_index": 237}, "uniqueid": "MTK2393:3TXMY6UCAFVCYPLR2CM362DOTOEQCD", "dateTime": 1517075388506}, {"current_trial": 238, "trialdata": {"rt": -1000, "trial_type": "single-audio", "stimulus": "/static/audio/400Hz.wav", "internal_node_id": "0.0-175.0", "time_elapsed": 1097076, "key_press": -1, "type": "PRE_RECALL_ALERT", "trial_index": 238}, "uniqueid": "MTK2393:3TXMY6UCAFVCYPLR2CM362DOTOEQCD", "dateTime": 1517075389007}, {"current_trial": 239, "trialdata": {"rt": [2042, 4845, 6918, 8839, 11417], "recwords": ["lizard", "creature", "chest", "pliers", "valve"], "key_times": [831, 1013, 1251, 1432, 1612, 1786, 2042, 2385, 2595, 2783, 2986, 3221, 3649, 3841, 3942, 4845, 5495, 5645, 5786, 6064, 6217, 6918, 7852, 8107, 8351, 8468, 8532, 8740, 8839, 9618, 9828, 9995, 10182, 10343, 11417], "trial_type": "free-recall", "conditions": [12, 1600, "a", 24000], "internal_node_id": "0.0-176.0-0.0", "key_presses": [76, 73, 90, 65, 82, 68, 188, 67, 82, 69, 65, 84, 85, 82, 69, 188, 67, 72, 69, 83, 84, 188, 80, 76, 73, 69, 82, 83, 188, 86, 65, 76, 86, 69, 32], "trial": 6, "time_elapsed": 1157084, "type": "FREE_RECALL", "trial_index": 239}, "uniqueid": "MTK2393:3TXMY6UCAFVCYPLR2CM362DOTOEQCD", "dateTime": 1517075449019}, {"current_trial": 240, "trialdata": {"rt": 344, "trial_type": "text", "internal_node_id": "0.0-177.0", "time_elapsed": 1159438, "key_press": 32, "type": "INSTRUCTIONS", "trial_index": 240}, "uniqueid": "MTK2393:3TXMY6UCAFVCYPLR2CM362DOTOEQCD", "dateTime": 1517075451369}, {"current_trial": 241, "trialdata": {"rt": [2412, 3755, 5785, 7484, 9362, 10866, 12372, 15053, 17558, 19582, 21348, 23342], "trial_type": "math-distractor", "key_times": [2154, 2236, 2412, 3524, 3621, 3755, 5606, 5684, 5785, 7245, 7315, 7484, 9101, 9206, 9362, 10663, 10761, 10866, 11980, 12253, 12372, 14307, 14833, 15053, 17329, 17372, 17558, 19331, 19435, 19582, 21093, 21176, 21348, 22966, 23257, 23342], "responses": ["20", "11", "23", "19", "12", "13", "14", "20", "20", "12", "10", "14"], "num2": [5, 8, 9, 9, 2, 1, 4, 7, 6, 2, 6, 1, 2], "num3": [7, 2, 5, 1, 7, 8, 4, 4, 5, 3, 2, 5, 8], "conditions": [24, 1600, "a", 24000], "internal_node_id": "0.0-178.0", "key_presses": [50, 48, 13, 49, 49, 13, 50, 51, 13, 49, 57, 13, 49, 50, 13, 49, 51, 13, 49, 52, 13, 50, 48, 13, 50, 48, 13, 49, 50, 13, 49, 48, 13, 49, 52, 13], "trial": 7, "time_elapsed": 1185942, "type": "DISTRACTOR", "trial_index": 241, "num1": [8, 1, 9, 9, 3, 4, 6, 9, 9, 7, 1, 8, 7]}, "uniqueid": "MTK2393:3TXMY6UCAFVCYPLR2CM362DOTOEQCD", "dateTime": 1517075477873}, {"current_trial": 242, "trialdata": {"rt": -1, "trial_type": "single-stim", "stimulus": "<p id=\"stim\">10</p>", "internal_node_id": "0.0-179.0-0.0", "time_elapsed": 1188948, "key_press": -1, "trial_index": 242}, "uniqueid": "MTK2393:3TXMY6UCAFVCYPLR2CM362DOTOEQCD", "dateTime": 1517075480879}, {"current_trial": 243, "trialdata": {"rt": -1, "trial_type": "single-stim", "stimulus": "<p id=\"stim\">9</p>", "internal_node_id": "0.0-179.0-1.0", "time_elapsed": 1189952, "key_press": -1, "trial_index": 243}, "uniqueid": "MTK2393:3TXMY6UCAFVCYPLR2CM362DOTOEQCD", "dateTime": 1517075481883}, {"current_trial": 244, "trialdata": {"rt": -1, "trial_type": "single-stim", "stimulus": "<p id=\"stim\">8</p>", "internal_node_