{"assignmentId": "3M68NM076IENU9RQ50Y0PSVJTFNR6N", "workerId": "MTK2261", "questiondata": {"avail_screen_height": 826, "color_depth": 24, "screen_width": 1536, "pixel_depth": 24, "avail_screen_width": 1536, "screen_height": 864}, "bonus": 0, "hitId": "3KI0JD2ZU1PBP69H6KVSVR8Z9BO76L", "counterbalance": 2342, "useragent": "Mozilla/5.0 (Windows NT 6.1; WOW64) AppleWebKit/537.36 (KHTML, like Gecko) Chrome/63.0.3239.132 Safari/537.36", "eventdata": [{"eventtype": "initialized", "interval": 0, "value": null, "timestamp": 1516908076589}, {"eventtype": "window_resize", "interval": 0, "value": [1540, 818], "timestamp": 1516908076589}, {"eventtype": "focus", "interval": 181828, "value": "off", "timestamp": 1516908258417}, {"eventtype": "focus", "interval": 134761, "value": "on", "timestamp": 1516908393178}], "data": [{"current_trial": 0, "trialdata": {"rt": 2288, "trial_type": "text", "internal_node_id": "0.0-0.0", "time_elapsed": 2301, "key_press": 13, "type": "INSTRUCTIONS", "trial_index": 0}, "uniqueid": "MTK2261:3M68NM076IENU9RQ50Y0PSVJTFNR6N", "dateTime": 1516908079852}, {"current_trial": 1, "trialdata": {"rt": 27126, "trial_type": "text", "internal_node_id": "0.0-1.0", "time_elapsed": 29430, "key_press": 13, "type": "INSTRUCTIONS", "trial_index": 1}, "uniqueid": "MTK2261:3M68NM076IENU9RQ50Y0PSVJTFNR6N", "dateTime": 1516908106981}, {"current_trial": 2, "trialdata": {"rt": [20101], "trial_type": "audio-test", "responses": ["ocean"], "internal_node_id": "0.0-2.0", "time_elapsed": 49566, "type": "AUDIO_TEST", "trial_index": 2}, "uniqueid": "MTK2261:3M68NM076IENU9RQ50Y0PSVJTFNR6N", "dateTime": 1516908127118}, {"current_trial": 3, "trialdata": {"rt": [18176], "trial_type": "audio-test", "responses": ["crystal"], "internal_node_id": "0.0-3.0", "time_elapsed": 67759, "type": "AUDIO_TEST", "trial_index": 3}, "uniqueid": "MTK2261:3M68NM076IENU9RQ50Y0PSVJTFNR6N", "dateTime": 1516908145310}, {"current_trial": 4, "trialdata": {"rt": [25792], "trial_type": "audio-test", "responses": ["spice"], "internal_node_id": "0.0-4.0", "time_elapsed": 93565, "type": "AUDIO_TEST", "trial_index": 4}, "uniqueid": "MTK2261:3M68NM076IENU9RQ50Y0PSVJTFNR6N", "dateTime": 1516908171116}, {"current_trial": 5, "trialdata": {"rt": 33948, "trial_type": "survey-text", "responses": "{\"Q0\":\"10 p.m.\",\"Q1\":\"9 a.m.\",\"Q2\":\"5\"}", "internal_node_id": "0.0-5.0", "time_elapsed": 128267, "type": "SLEEP_SURVEY", "trial_index": 5}, "uniqueid": "MTK2261:3M68NM076IENU9RQ50Y0PSVJTFNR6N", "dateTime": 1516908205818}, {"current_trial": 6, "trialdata": {"rt": 206535, "trial_type": "text", "internal_node_id": "0.0-6.0", "time_elapsed": 335804, "key_press": 32, "type": "INSTRUCTIONS", "trial_index": 6}, "uniqueid": "MTK2261:3M68NM076IENU9RQ50Y0PSVJTFNR6N", "dateTime": 1516908413355}, {"current_trial": 7, "trialdata": {"rt": 23570, "trial_type": "text", "internal_node_id": "0.0-7.0", "time_elapsed": 359876, "key_press": 13, "type": "INSTRUCTIONS", "trial_index": 7}, "uniqueid": "MTK2261:3M68NM076IENU9RQ50Y0PSVJTFNR6N", "dateTime": 1516908437427}, {"current_trial": 8, "trialdata": {"rt": 21586, "trial_type": "text", "internal_node_id": "0.0-8.0", "time_elapsed": 381964, "key_press": 13, "type": "INSTRUCTIONS", "trial_index": 8}, "uniqueid": "MTK2261:3M68NM076IENU9RQ50Y0PSVJTFNR6N", "dateTime": 1516908459515}, {"current_trial": 9, "trialdata": {"rt": [4716, 9371, 14131], "trial_type": "math-distractor", "key_times": [3708, 3892, 4716, 8820, 9029, 9371, 13603, 13811, 14131, 17516, 17676], "responses": ["18", "16", "24"], "num2": [7, 6, 8, 5], "num3": [9, 1, 9, 3], "conditions": [18, 1200, "v", 18000], "internal_node_id": "0.0-9.0", "key_presses": [97, 104, 13, 97, 102, 13, 98, 100, 13, 97, 102], "trial": 0, "time_elapsed": 400977, "type": "DISTRACTOR", "trial_index": 9, "num1": [2, 9, 7, 8]}, "uniqueid": "MTK2261:3M68NM076IENU9RQ50Y0PSVJTFNR6N", "dateTime": 1516908478528}, {"current_trial": 10, "trialdata": {"rt": -1, "trial_type": "single-stim", "stimulus": "<p id=\"stim\">10</p>", "internal_node_id": "0.0-10.0-0.0", "time_elapsed": 403982, "key_press": -1, "trial_index": 10}, "uniqueid": "MTK2261:3M68NM076IENU9RQ50Y0PSVJTFNR6N", "dateTime": 1516908481533}, {"current_trial": 11, "trialdata": {"rt": -1, "trial_type": "single-stim", "stimulus": "<p id=\"stim\">9</p>", "internal_node_id": "0.0-10.0-1.0", "time_elapsed": 404984, "key_press": -1, "trial_index": 11}, "uniqueid": "MTK2261:3M68NM076IENU9RQ50Y0PSVJTFNR6N", "dateTime": 1516908482535}, {"current_trial": 12, "trialdata": {"rt": -1, "trial_type": "single-stim", "stimulus": "<p id=\"stim\">8</p>", "internal_node_id": "0.0-10.0-2.0", "time_elapsed": 405986, "key_press": -1, "trial_index": 12}, "uniqueid": "MTK2261:3M68NM076IENU9RQ50Y0PSVJTFNR6N", "dateTime": 1516908483538}, {"current_trial": 13, "trialdata": {"rt": -1, "trial_type": "single-stim", "stimulus": "<p id=\"stim\">7</p>", "internal_node_id": "0.0-10.0-3.0", "time_elapsed": 406988, "key_press": -1, "trial_index": 13}, "uniqueid": "MTK2261:3M68NM076IENU9RQ50Y0PSVJTFNR6N", "dateTime": 1516908484539}, {"current_trial": 14, "trialdata": {"rt": -1, "trial_type": "single-stim", "stimulus": "<p id=\"stim\">6</p>", "internal_node_id": "0.0-10.0-4.0", "time_elapsed": 407990, "key_press": -1, "trial_index": 14}, "uniqueid": "MTK2261:3M68NM076IENU9RQ50Y0PSVJTFNR6N", "dateTime": 1516908485541}, {"current_trial": 15, "trialdata": {"rt": -1, "trial_type": "single-stim", "stimulus": "<p id=\"stim\">5</p>", "internal_node_id": "0.0-10.0-5.0", "time_elapsed": 408994, "key_press": -1, "trial_index": 15}, "uniqueid": "MTK2261:3M68NM076IENU9RQ50Y0PSVJTFNR6N", "dateTime": 1516908486545}, {"current_trial": 16, "trialdata": {"rt": -1, "trial_type": "single-stim", "stimulus": "<p id=\"stim\">4</p>", "internal_node_id": "0.0-10.0-6.0", "time_elapsed": 409995, "key_press": -1, "trial_index": 16}, "uniqueid": "MTK2261:3M68NM076IENU9RQ50Y0PSVJTFNR6N", "dateTime": 1516908487546}, {"current_trial": 17, "trialdata": {"rt": -1, "trial_type": "single-stim", "stimulus": "<p id=\"stim\">3</p>", "internal_node_id": "0.0-10.0-7.0", "time_elapsed": 410997, "key_press": -1, "trial_index": 17}, "uniqueid": "MTK2261:3M68NM076IENU9RQ50Y0PSVJTFNR6N", "dateTime": 1516908488548}, {"current_trial": 18, "trialdata": {"rt": -1, "trial_type": "single-stim", "stimulus": "<p id=\"stim\">2</p>", "internal_node_id": "0.0-10.0-8.0", "time_elapsed": 411998, "key_press": -1, "trial_index": 18}, "uniqueid": "MTK2261:3M68NM076IENU9RQ50Y0PSVJTFNR6N", "dateTime": 1516908489549}, {"current_trial": 19, "trialdata": {"rt": -1, "trial_type": "single-stim", "stimulus": "<p id=\"stim\">1</p>", "internal_node_id": "0.0-10.0-9.0", "time_elapsed": 413000, "key_press": -1, "trial_index": 19}, "uniqueid": "MTK2261:3M68NM076IENU9RQ50Y0PSVJTFNR6N", "dateTime": 1516908490551}, {"current_trial": 20, "trialdata": {"rt": -1, "trial_type": "single-stim", "stimulus": "<p id=\"stim\">+</p>", "internal_node_id": "0.0-11.0-0.0", "time_elapsed": 414502, "key_press": -1, "type": "FIXATION", "trial_index": 20}, "uniqueid": "MTK2261:3M68NM076IENU9RQ50Y0PSVJTFNR6N", "dateTime": 1516908492053}, {"current_trial": 21, "trialdata": {"rt": -1, "trial_type": "single-stim", "word": "proton", "stimulus": "<p id=\"stim\">PROTON</p>", "conditions": [18, 1200, "v", 18000], "internal_node_id": "0.0-12.0", "trial": 0, "time_elapsed": 415704, "serialpos": 0, "key_press": -1, "wordID": 1131, "type": "PRES_VIS", "trial_index": 21}, "uniqueid": "MTK2261:3M68NM076IENU9RQ50Y0PSVJTFNR6N", "dateTime": 1516908493255}, {"current_trial": 22, "trialdata": {"rt": -1, "trial_type": "single-stim", "word": "cocktail", "stimulus": "<p id=\"stim\">COCKTAIL</p>", "conditions": [18, 1200, "v", 18000], "internal_node_id": "0.0-13.0", "trial": 0, "time_elapsed": 418092, "serialpos": 1, "key_press": -1, "wordID": 337, "type": "PRES_VIS", "trial_index": 22}, "uniqueid": "MTK2261:3M68NM076IENU9RQ50Y0PSVJTFNR6N", "dateTime": 1516908495643}, {"current_trial": 23, "trialdata": {"rt": -1, "trial_type": "single-stim", "word": "creature", "stimulus": "<p id=\"stim\">CREATURE</p>", "conditions": [18, 1200, "v", 18000], "internal_node_id": "0.0-14.0", "trial": 0, "time_elapsed": 420146, "serialpos": 2, "key_press": -1, "wordID": 402, "type": "PRES_VIS", "trial_index": 23}, "uniqueid": "MTK2261:3M68NM076IENU9RQ50Y0PSVJTFNR6N", "dateTime": 1516908497697}, {"current_trial": 24, "trialdata": {"rt": -1, "trial_type": "single-stim", "word": "chemist", "stimulus": "<p id=\"stim\">CHEMIST</p>", "conditions": [18, 1200, "v", 18000], "internal_node_id": "0.0-15.0", "trial": 0, "time_elapsed": 422356, "serialpos": 3, "key_press": -1, "wordID": 291, "type": "PRES_VIS", "trial_index": 24}, "uniqueid": "MTK2261:3M68NM076IENU9RQ50Y0PSVJTFNR6N", "dateTime": 1516908499907}, {"current_trial": 25, "trialdata": {"rt": -1, "trial_type": "single-stim", "word": "taxi", "stimulus": "<p id=\"stim\">TAXI</p>", "conditions": [18, 1200, "v", 18000], "internal_node_id": "0.0-16.0", "trial": 0, "time_elapsed": 424689, "serialpos": 4, "key_press": -1, "wordID": 1437, "type": "PRES_VIS", "trial_index": 25}, "uniqueid": "MTK2261:3M68NM076IENU9RQ50Y0PSVJTFNR6N", "dateTime": 1516908502240}, {"current_trial": 26, "trialdata": {"rt": -1, "trial_type": "single-stim", "word": "supper", "stimulus": "<p id=\"stim\">SUPPER</p>", "conditions": [18, 1200, "v", 18000], "internal_node_id": "0.0-17.0", "trial": 0, "time_elapsed": 426750, "serialpos": 5, "key_press": -1, "wordID": 1410, "type": "PRES_VIS", "trial_index": 26}, "uniqueid": "MTK2261:3M68NM076IENU9RQ50Y0PSVJTFNR6N", "dateTime": 1516908504301}, {"current_trial": 27, "trialdata": {"rt": -1, "trial_type": "single-stim", "word": "hood", "stimulus": "<p id=\"stim\">HOOD</p>", "conditions": [18, 1200, "v", 18000], "internal_node_id": "0.0-18.0", "trial": 0, "time_elapsed": 428758, "serialpos": 6, "key_press": -1, "wordID": 713, "type": "PRES_VIS", "trial_index": 27}, "uniqueid": "MTK2261:3M68NM076IENU9RQ50Y0PSVJTFNR6N", "dateTime": 1516908506309}, {"current_trial": 28, "trialdata": {"rt": -1, "trial_type": "single-stim", "word": "gift", "stimulus": "<p id=\"stim\">GIFT</p>", "conditions": [18, 1200, "v", 18000], "internal_node_id": "0.0-19.0", "trial": 0, "time_elapsed": 430998, "serialpos": 7, "key_press": -1, "wordID": 634, "type": "PRES_VIS", "trial_index": 28}, "uniqueid": "MTK2261:3M68NM076IENU9RQ50Y0PSVJTFNR6N", "dateTime": 1516908508549}, {"current_trial": 29, "trialdata": {"rt": -1, "trial_type": "single-stim", "word": "cod", "stimulus": "<p id=\"stim\">COD</p>", "conditions": [18, 1200, "v", 18000], "internal_node_id": "0.0-20.0", "trial": 0, "time_elapsed": 433385, "serialpos": 8, "key_press": -1, "wordID": 339, "type": "PRES_VIS", "trial_index": 29}, "uniqueid": "MTK2261:3M68NM076IENU9RQ50Y0PSVJTFNR6N", "dateTime": 1516908510936}, {"current_trial": 30, "trialdata": {"rt": -1, "trial_type": "single-stim", "word": "spouse", "stimulus": "<p id=\"stim\">SPOUSE</p>", "conditions": [18, 1200, "v", 18000], "internal_node_id": "0.0-21.0", "trial": 0, "time_elapsed": 435546, "serialpos": 9, "key_press": -1, "wordID": 1357, "type": "PRES_VIS", "trial_index": 30}, "uniqueid": "MTK2261:3M68NM076IENU9RQ50Y0PSVJTFNR6N", "dateTime": 1516908513097}, {"current_trial": 31, "trialdata": {"rt": -1, "trial_type": "single-stim", "word": "portrait", "stimulus": "<p id=\"stim\">PORTRAIT</p>", "conditions": [18, 1200, "v", 18000], "internal_node_id": "0.0-22.0", "trial": 0, "time_elapsed": 437661, "serialpos": 10, "key_press": -1, "wordID": 1110, "type": "PRES_VIS", "trial_index": 31}, "uniqueid": "MTK2261:3M68NM076IENU9RQ50Y0PSVJTFNR6N", "dateTime": 1516908515212}, {"current_trial": 32, "trialdata": {"rt": -1, "trial_type": "single-stim", "word": "message", "stimulus": "<p id=\"stim\">MESSAGE</p>", "conditions": [18, 1200, "v", 18000], "internal_node_id": "0.0-23.0", "trial": 0, "time_elapsed": 439738, "serialpos": 11, "key_press": -1, "wordID": 887, "type": "PRES_VIS", "trial_index": 32}, "uniqueid": "MTK2261:3M68NM076IENU9RQ50Y0PSVJTFNR6N", "dateTime": 1516908517289}, {"current_trial": 33, "trialdata": {"rt": -1, "trial_type": "single-stim", "word": "atlas", "stimulus": "<p id=\"stim\">ATLAS</p>", "conditions": [18, 1200, "v", 18000], "internal_node_id": "0.0-24.0", "trial": 0, "time_elapsed": 441799, "serialpos": 12, "key_press": -1, "wordID": 52, "type": "PRES_VIS", "trial_index": 33}, "uniqueid": "MTK2261:3M68NM076IENU9RQ50Y0PSVJTFNR6N", "dateTime": 1516908519351}, {"current_trial": 34, "trialdata": {"rt": -1, "trial_type": "single-stim", "word": "braces", "stimulus": "<p id=\"stim\">BRACES</p>", "conditions": [18, 1200, "v", 18000], "internal_node_id": "0.0-25.0", "trial": 0, "time_elapsed": 443813, "serialpos": 13, "key_press": -1, "wordID": 163, "type": "PRES_VIS", "trial_index": 34}, "uniqueid": "MTK2261:3M68NM076IENU9RQ50Y0PSVJTFNR6N", "dateTime": 1516908521364}, {"current_trial": 35, "trialdata": {"rt": -1, "trial_type": "single-stim", "word": "plate", "stimulus": "<p id=\"stim\">PLATE</p>", "conditions": [18, 1200, "v", 18000], "internal_node_id": "0.0-26.0", "trial": 0, "time_elapsed": 445858, "serialpos": 14, "key_press": -1, "wordID": 1085, "type": "PRES_VIS", "trial_index": 35}, "uniqueid": "MTK2261:3M68NM076IENU9RQ50Y0PSVJTFNR6N", "dateTime": 1516908523409}, {"current_trial": 36, "trialdata": {"rt": -1, "trial_type": "single-stim", "word": "hornet", "stimulus": "<p id=\"stim\">HORNET</p>", "conditions": [18, 1200, "v", 18000], "internal_node_id": "0.0-27.0", "trial": 0, "time_elapsed": 447931, "serialpos": 15, "key_press": -1, "wordID": 717, "type": "PRES_VIS", "trial_index": 36}, "uniqueid": "MTK2261:3M68NM076IENU9RQ50Y0PSVJTFNR6N", "dateTime": 1516908525483}, {"current_trial": 37, "trialdata": {"rt": -1, "trial_type": "single-stim", "word": "champagne", "stimulus": "<p id=\"stim\">CHAMPAGNE</p>", "conditions": [18, 1200, "v", 18000], "internal_node_id": "0.0-28.0", "trial": 0, "time_elapsed": 450118, "serialpos": 16, "key_press": -1, "wordID": 277, "type": "PRES_VIS", "trial_index": 37}, "uniqueid": "MTK2261:3M68NM076IENU9RQ50Y0PSVJTFNR6N", "dateTime": 1516908527669}, {"current_trial": 38, "trialdata": {"rt": -1, "trial_type": "single-stim", "word": "mummy", "stimulus": "<p id=\"stim\">MUMMY</p>", "conditions": [18, 1200, "v", 18000], "internal_node_id": "0.0-29.0", "trial": 0, "time_elapsed": 452329, "serialpos": 17, "key_press": -1, "wordID": 931, "type": "PRES_VIS", "trial_index": 38}, "uniqueid": "MTK2261:3M68NM076IENU9RQ50Y0PSVJTFNR6N", "dateTime": 1516908529881}, {"current_trial": 39, "trialdata": {"rt": -1, "trial_type": "single-stim", "stimulus": "", "internal_node_id": "0.0-30.0-0.0", "time_elapsed": 454535, "key_press": -1, "type": "PRE_RECALL_DELAY", "trial_index": 39}, "uniqueid": "MTK2261:3M68NM076IENU9RQ50Y0PSVJTFNR6N", "dateTime": 1516908532086}, {"current_trial": 40, "trialdata": {"rt": -1000, "trial_type": "single-audio", "stimulus": "/static/audio/400Hz.wav", "internal_node_id": "0.0-31.0", "time_elapsed": 455045, "key_press": -1, "type": "PRE_RECALL_ALERT", "trial_index": 40}, "uniqueid": "MTK2261:3M68NM076IENU9RQ50Y0PSVJTFNR6N", "dateTime": 1516908532596}, {"current_trial": 41, "trialdata": {"rt": [3894, 8103, 12803, 35790, 49140, 52260, 54916, 58580], "recwords": ["mummy", "atlas", "creature", "", "creature", "mummy", "atlas", "mummy"], "key_times": [1333, 2324, 2658, 2857, 3083, 3894, 6207, 6540, 6740, 6943, 7300, 8103, 10456, 10793, 11196, 11390, 11740, 11983, 12133, 12436, 12803, 35790, 41620, 42036, 42748, 42996, 43676, 44132, 44452, 44652, 45076, 45293, 45556, 45748, 46494, 46876, 47195, 47468, 47788, 48093, 48420, 48836, 49140, 50188, 50893, 51242, 51364, 51681, 52260, 53308, 53660, 53924, 54149, 54460, 54916, 57102, 57453, 57796, 57932, 58212, 58580, 59701], "trial_type": "free-recall", "conditions": [18, 1200, "v", 18000], "internal_node_id": "0.0-32.0-0.0", "key_presses": [77, 85, 77, 77, 89, 13, 65, 84, 76, 65, 83, 13, 67, 82, 69, 65, 84, 85, 82, 69, 13, 13, 86, 82, 8, 8, 86, 82, 69, 65, 8, 8, 8, 8, 67, 82, 69, 65, 84, 85, 82, 69, 13, 77, 85, 77, 77, 89, 13, 65, 84, 76, 65, 83, 13, 77, 85, 77, 77, 89, 13, 67], "trial": 0, "time_elapsed": 515047, "type": "FREE_RECALL", "trial_index": 41}, "uniqueid": "MTK2261:3M68NM076IENU9RQ50Y0PSVJTFNR6N", "dateTime": 1516908592604}, {"current_trial": 42, "trialdata": {"rt": 1707, "trial_type": "text", "internal_node_id": "0.0-33.0", "time_elapsed": 518762, "key_press": 13, "type": "INSTRUCTIONS", "trial_index": 42}, "uniqueid": "MTK2261:3M68NM076IENU9RQ50Y0PSVJTFNR6N", "dateTime": 1516908596314}, {"current_trial": 43, "trialdata": {"rt": [2427, 16619], "trial_type": "math-distractor", "key_times": [1965, 2083, 2427, 16021, 16267, 16619], "responses": ["15", "20"], "num2": [7, 6, 6], "num3": [7, 9, 6], "conditions": [18, 1200, "v", 18000], "internal_node_id": "0.0-34.0", "key_presses": [97, 101, 13, 98, 96, 13], "trial": 1, "time_elapsed": 538768, "type": "DISTRACTOR", "trial_index": 43, "num1": [1, 5, 4]}, "uniqueid": "MTK2261:3M68NM076IENU9RQ50Y0PSVJTFNR6N", "dateTime": 1516908616319}, {"current_trial": 44, "trialdata": {"rt": -1, "trial_type": "single-stim", "stimulus": "<p id=\"stim\">10</p>", "internal_node_id": "0.0-35.0-0.0", "time_elapsed": 541769, "key_press": -1, "trial_index": 44}, "uniqueid": "MTK2261:3M68NM076IENU9RQ50Y0PSVJTFNR6N", "dateTime": 1516908619320}, {"current_trial": 45, "trialdata": {"rt": -1, "trial_type": "single-stim", "stimulus": "<p id=\"stim\">9</p>", "internal_node_id": "0.0-35.0-1.0", "time_elapsed": 542770, "key_press": -1, "trial_index": 45}, "uniqueid": "MTK2261:3M68NM076IENU9RQ50Y0PSVJTFNR6N", "dateTime": 1516908620321}, {"current_trial": 46, "trialdata": {"rt": -1, "trial_type": "single-stim", "stimulus": "<p id=\"stim\">8</p>", "internal_node_id": "0.0-35.0-2.0", "time_elapsed": 543772, "key_press": -1, "trial_index": 46}, "uniqueid": "MTK2261:3M68NM076IENU9RQ50Y0PSVJTFNR6N", "dateTime": 1516908621324}, {"current_trial": 47, "trialdata": {"rt": -1, "trial_type": "single-stim", "stimulus": "<p id=\"stim\">7</p>", "internal_node_id": "0.0-35.0-3.0", "time_elapsed": 544774, "key_press": -1, "trial_index": 47}, "uniqueid": "MTK2261:3M68NM076IENU9RQ50Y0PSVJTFNR6N", "dateTime": 1516908622325}, {"current_trial": 48, "trialdata": {"rt": -1, "trial_type": "single-stim", "stimulus": "<p id=\"stim\">6</p>", "internal_node_id": "0.0-35.0-4.0", "time_elapsed": 545775, "key_press": -1, "trial_index": 48}, "uniqueid": "MTK2261:3M68NM076IENU9RQ50Y0PSVJTFNR6N", "dateTime": 1516908623327}, {"current_trial": 49, "trialdata": {"rt": -1, "trial_type": "single-stim", "stimulus": "<p id=\"stim\">5</p>", "internal_node_id": "0.0-35.0-5.0", "time_elapsed": 546776, "key_press": -1, "trial_index": 49}, "uniqueid": "MTK2261:3M68NM076IENU9RQ50Y0PSVJTFNR6N", "dateTime": 1516908624328}, {"current_trial": 50, "trialdata": {"rt": -1, "trial_type": "single-stim", "stimulus": "<p id=\"stim\">4</p>", "internal_node_id": "0.0-35.0-6.0", "time_elapsed": 547777, "key_press": -1, "trial_index": 50}, "uniqueid": "MTK2261:3M68NM076IENU9RQ50Y0PSVJTFNR6N", "dateTime": 1516908625329}, {"current_trial": 51, "trialdata": {"rt": -1, "trial_type": "single-stim", "stimulus": "<p id=\"stim\">3</p>", "internal_node_id": "0.0-35.0-7.0", "time_elapsed": 548778, "key_press": -1, "trial_index": 51}, "uniqueid": "MTK2261:3M68NM076IENU9RQ50Y0PSVJTFNR6N", "dateTime": 1516908626330}, {"current_trial": 52, "trialdata": {"rt": -1, "trial_type": "single-stim", "stimulus": "<p id=\"stim\">2</p>", "internal_node_id": "0.0-35.0-8.0", "time_elapsed": 549781, "key_press": -1, "trial_index": 52}, "uniqueid": "MTK2261:3M68NM076IENU9RQ50Y0PSVJTFNR6N", "dateTime": 1516908627333}, {"current_trial": 53, "trialdata": {"rt": -1, "trial_type": "single-stim", "stimulus": "<p id=\"stim\">1</p>", "internal_node_id": "0.0-35.0-9.0", "time_elapsed": 550782, "key_press": -1, "trial_index": 53}, "uniqueid": "MTK2261:3M68NM076IENU9RQ50Y0PSVJTFNR6N", "dateTime": 1516908628334}, {"current_trial": 54, "trialdata": {"rt": -1, "trial_type": "single-stim", "stimulus": "<p id=\"stim\">+</p>", "internal_node_id": "0.0-36.0-0.0", "time_elapsed": 552283, "key_press": -1, "type": "FIXATION", "trial_index": 54}, "uniqueid": "MTK2261:3M68NM076IENU9RQ50Y0PSVJTFNR6N", "dateTime": 1516908629834}, {"current_trial": 55, "trialdata": {"rt": -1, "trial_type": "single-stim", "word": "salad", "stimulus": "<p id=\"stim\">SALAD</p>", "conditions": [18, 1200, "v", 18000], "internal_node_id": "0.0-37.0", "trial": 1, "time_elapsed": 553485, "serialpos": 0, "key_press": -1, "wordID": 1223, "type": "PRES_VIS", "trial_index": 55}, "uniqueid": "MTK2261:3M68NM076IENU9RQ50Y0PSVJTFNR6N", "dateTime": 1516908631036}, {"current_trial": 56, "trialdata": {"rt": -1, "trial_type": "single-stim", "word": "lettuce", "stimulus": "<p id=\"stim\">LETTUCE</p>", "conditions": [18, 1200, "v", 18000], "internal_node_id": "0.0-38.0", "trial": 1, "time_elapsed": 555643, "serialpos": 1, "key_press": -1, "wordID": 813, "type": "PRES_VIS", "trial_index": 56}, "uniqueid": "MTK2261:3M68NM076IENU9RQ50Y0PSVJTFNR6N", "dateTime": 1516908633194}, {"current_trial": 57, "trialdata": {"rt": -1, "trial_type": "single-stim", "word": "flesh", "stimulus": "<p id=\"stim\">FLESH</p>", "conditions": [18, 1200, "v", 18000], "internal_node_id": "0.0-39.0", "trial": 1, "time_elapsed": 557904, "serialpos": 2, "key_press": -1, "wordID": 578, "type": "PRES_VIS", "trial_index": 57}, "uniqueid": "MTK2261:3M68NM076IENU9RQ50Y0PSVJTFNR6N", "dateTime": 1516908635456}, {"current_trial": 58, "trialdata": {"rt": -1, "trial_type": "single-stim", "word": "turnip", "stimulus": "<p id=\"stim\">TURNIP</p>", "conditions": [18, 1200, "v", 18000], "internal_node_id": "0.0-40.0", "trial": 1, "time_elapsed": 560243, "serialpos": 3, "key_press": -1, "wordID": 1520, "type": "PRES_VIS", "trial_index": 58}, "uniqueid": "MTK2261:3M68NM076IENU9RQ50Y0PSVJTFNR6N", "dateTime": 1516908637794}, {"current_trial": 59, "trialdata": {"rt": -1, "trial_type": "single-stim", "word": "sparrow", "stimulus": "<p id=\"stim\">SPARROW</p>", "conditions": [18, 1200, "v", 18000], "internal_node_id": "0.0-41.0", "trial": 1, "time_elapsed": 562556, "serialpos": 4, "key_press": -1, "wordID": 1346, "type": "PRES_VIS", "trial_index": 59}, "uniqueid": "MTK2261:3M68NM076IENU9RQ50Y0PSVJTFNR6N", "dateTime": 1516908640107}, {"current_trial": 60, "trialdata": {"rt": -1, "trial_type": "single-stim", "word": "motor", "stimulus": "<p id=\"stim\">MOTOR</p>", "conditions": [18, 1200, "v", 18000], "internal_node_id": "0.0-42.0", "trial": 1, "time_elapsed": 564755, "serialpos": 5, "key_press": -1, "wordID": 921, "type": "PRES_VIS", "trial_index": 60}, "uniqueid": "MTK2261:3M68NM076IENU9RQ50Y0PSVJTFNR6N", "dateTime": 1516908642306}, {"current_trial": 61, "trialdata": {"rt": -1, "trial_type": "single-stim", "word": "cookbook", "stimulus": "<p id=\"stim\">COOKBOOK</p>", "conditions": [18, 1200, "v", 18000], "internal_node_id": "0.0-43.0", "trial": 1, "time_elapsed": 566938, "serialpos": 6, "key_press": -1, "wordID": 372, "type": "PRES_VIS", "trial_index": 61}, "uniqueid": "MTK2261:3M68NM076IENU9RQ50Y0PSVJTFNR6N", "dateTime": 1516908644493}, {"current_trial": 62, "trialdata": {"rt": -1, "trial_type": "single-stim", "word": "apron", "stimulus": "<p id=\"stim\">APRON</p>", "conditions": [18, 1200, "v", 18000], "internal_node_id": "0.0-44.0", "trial": 1, "time_elapsed": 569320, "serialpos": 7, "key_press": -1, "wordID": 34, "type": "PRES_VIS", "trial_index": 62}, "uniqueid": "MTK2261:3M68NM076IENU9RQ50Y0PSVJTFNR6N", "dateTime": 1516908646871}, {"current_trial": 63, "trialdata": {"rt": -1, "trial_type": "single-stim", "word": "diner", "stimulus": "<p id=\"stim\">DINER</p>", "conditions": [18, 1200, "v", 18000], "internal_node_id": "0.0-45.0", "trial": 1, "time_elapsed": 571378, "serialpos": 8, "key_press": -1, "wordID": 466, "type": "PRES_VIS", "trial_index": 63}, "uniqueid": "MTK2261:3M68NM076IENU9RQ50Y0PSVJTFNR6N", "dateTime": 1516908648930}, {"current_trial": 64, "trialdata": {"rt": -1, "trial_type": "single-stim", "word": "pastry", "stimulus": "<p id=\"stim\">PASTRY</p>", "conditions": [18, 1200, "v", 18000], "internal_node_id": "0.0-46.0", "trial": 1, "time_elapsed": 573670, "serialpos": 9, "key_press": -1, "wordID": 1021, "type": "PRES_VIS", "trial_index": 64}, "uniqueid": "MTK2261:3M68NM076IENU9RQ50Y0PSVJTFNR6N", "dateTime": 1516908651221}, {"current_trial": 65, "trialdata": {"rt": -1, "trial_type": "single-stim", "word": "survey", "stimulus": "<p id=\"stim\">SURVEY</p>", "conditions": [18, 1200, "v", 18000], "internal_node_id": "0.0-47.0", "trial": 1, "time_elapsed": 575835, "serialpos": 10, "key_press": -1, "wordID": 1413, "type": "PRES_VIS", "trial_index": 65}, "uniqueid": "MTK2261:3M68NM076IENU9RQ50Y0PSVJTFNR6N", "dateTime": 1516908653386}, {"current_trial": 66, "trialdata": {"rt": -1, "trial_type": "single-stim", "word": "airport", "stimulus": "<p id=\"stim\">AIRPORT</p>", "conditions": [18, 1200, "v", 18000], "internal_node_id": "0.0-48.0", "trial": 1, "time_elapsed": 578083, "serialpos": 11, "key_press": -1, "wordID": 12, "type": "PRES_VIS", "trial_index": 66}, "uniqueid": "MTK2261:3M68NM076IENU9RQ50Y0PSVJTFNR6N", "dateTime": 1516908655635}, {"current_trial": 67, "trialdata": {"rt": -1, "trial_type": "single-stim", "word": "rust", "stimulus": "<p id=\"stim\">RUST</p>", "conditions": [18, 1200, "v", 18000], "internal_node_id": "0.0-49.0", "trial": 1, "time_elapsed": 580334, "serialpos": 12, "key_press": -1, "wordID": 1218, "type": "PRES_VIS", "trial_index": 67}, "uniqueid": "MTK2261:3M68NM076IENU9RQ50Y0PSVJTFNR6N", "dateTime": 1516908657885}, {"current_trial": 68, "trialdata": {"rt": -1, "trial_type": "single-stim", "word": "cabin", "stimulus": "<p id=\"stim\">CABIN</p>", "conditions": [18, 1200, "v", 18000], "internal_node_id": "0.0-50.0", "trial": 1, "time_elapsed": 582617, "serialpos": 13, "key_press": -1, "wordID": 210, "type": "PRES_VIS", "trial_index": 68}, "uniqueid": "MTK2261:3M68NM076IENU9RQ50Y0PSVJTFNR6N", "dateTime": 1516908660168}, {"current_trial": 69, "trialdata": {"rt": -1, "trial_type": "single-stim", "word": "slime", "stimulus": "<p id=\"stim\">SLIME</p>", "conditions": [18, 1200, "v", 18000], "internal_node_id": "0.0-51.0", "trial": 1, "time_elapsed": 584854, "serialpos": 14, "key_press": -1, "wordID": 1326, "type": "PRES_VIS", "trial_index": 69}, "uniqueid": "MTK2261:3M68NM076IENU9RQ50Y0PSVJTFNR6N", "dateTime": 1516908662405}, {"current_trial": 70, "trialdata": {"rt": -1, "trial_type": "single-stim", "word": "relish", "stimulus": "<p id=\"stim\">RELISH</p>", "conditions": [18, 1200, "v", 18000], "internal_node_id": "0.0-52.0", "trial": 1, "time_elapsed": 586978, "serialpos": 15, "key_press": -1, "wordID": 1182, "type": "PRES_VIS", "trial_index": 70}, "uniqueid": "MTK2261:3M68NM076IENU9RQ50Y0PSVJTFNR6N", "dateTime": 1516908664529}, {"current_trial": 71, "trialdata": {"rt": -1, "trial_type": "single-stim", "word": "shelf", "stimulus": "<p id=\"stim\">SHELF</p>", "conditions": [18, 1200, "v", 18000], "internal_node_id": "0.0-53.0", "trial": 1, "time_elapsed": 589271, "serialpos": 16, "key_press": -1, "wordID": 1279, "type": "PRES_VIS", "trial_index": 71}, "uniqueid": "MTK2261:3M68NM076IENU9RQ50Y0PSVJTFNR6N", "dateTime": 1516908666822}, {"current_trial": 72, "trialdata": {"rt": -1, "trial_type": "single-stim", "word": "gavel", "stimulus": "<p id=\"stim\">GAVEL</p>", "conditions": [18, 1200, "v", 18000], "internal_node_id": "0.0-54.0", "trial": 1, "time_elapsed": 591571, "serialpos": 17, "key_press": -1, "wordID": 626, "type": "PRES_VIS", "trial_index": 72}, "uniqueid": "MTK2261:3M68NM076IENU9RQ50Y0PSVJTFNR6N", "dateTime": 1516908669122}, {"current_trial": 73, "trialdata": {"rt": -1, "trial_type": "single-stim", "stimulus": "", "internal_node_id": "0.0-55.0-0.0", "time_elapsed": 593997, "key_press": -1, "type": "PRE_RECALL_DELAY", "trial_index": 73}, "uniqueid": "MTK2261:3M68NM076IENU9RQ50Y0PSVJTFNR6N", "dateTime": 1516908671548}, {"current_trial": 74, "trialdata": {"rt": -1000, "trial_type": "single-audio", "stimulus": "/static/audio/400Hz.wav", "internal_node_id": "0.0-56.0", "time_elapsed": 594498, "key_press": -1, "type": "PRE_RECALL_ALERT", "trial_index": 74}, "uniqueid": "MTK2261:3M68NM076IENU9RQ50Y0PSVJTFNR6N", "dateTime": 1516908672049}, {"current_trial": 75, "trialdata": {"rt": [2955, 5643, 8333, 9639, 19081, 31613, 36403, 46341, 52549], "recwords": ["salad", "turnip", "airport", "rust", "lettuce", "fresh", "turnip", "gavel", "rust"], "key_times": [1156, 1433, 2255, 2420, 2672, 2955, 3473, 3733, 3853, 4268, 4665, 5090, 5643, 6826, 7083, 7269, 7645, 7799, 7916, 8123, 8333, 8873, 9069, 9212, 9393, 9639, 14919, 15946, 17056, 17226, 17501, 17675, 18212, 18412, 18659, 19081, 22565, 22785, 22989, 23209, 23999, 26245, 26498, 26734, 30389, 30653, 30893, 31181, 31373, 31613, 33797, 34021, 34141, 34741, 35031, 35988, 36403, 44902, 45062, 45573, 45813, 45997, 46341, 51727, 51933, 52093, 52237, 52549], "trial_type": "free-recall", "conditions": [18, 1200, "v", 18000], "internal_node_id": "0.0-57.0-0.0", "key_presses": [83, 65, 76, 65, 68, 13, 84, 85, 82, 78, 73, 80, 13, 65, 73, 82, 80, 79, 82, 84, 32, 82, 85, 83, 84, 32, 65, 8, 76, 69, 84, 84, 85, 67, 69, 13, 83, 65, 76, 68, 8, 8, 8, 8, 70, 82, 69, 83, 72, 13, 84, 85, 82, 78, 73, 80, 13, 71, 65, 86, 69, 76, 13, 82, 85, 83, 84, 13], "trial": 1, "time_elapsed": 654502, "type": "FREE_RECALL", "trial_index": 75}, "uniqueid": "MTK2261:3M68NM076IENU9RQ50Y0PSVJTFNR6N", "dateTime": 1516908732064}, {"current_trial": 76, "trialdata": {"rt": 1729, "trial_type": "text", "internal_node_id": "0.0-58.0", "time_elapsed": 658243, "key_press": 13, "type": "INSTRUCTIONS", "trial_index": 76}, "uniqueid": "MTK2261:3M68NM076IENU9RQ50Y0PSVJTFNR6N", "dateTime": 1516908735795}, {"current_trial": 77, "trialdata": {"rt": [3253, 6213, 10253], "trial_type": "math-distractor", "key_times": [2749, 2973, 3253, 5709, 5933, 6213, 9759, 10005, 10253], "responses": ["18", "16", "18"], "num2": [3, 3, 4, 4], "num3": [9, 4, 9, 3], "conditions": [24, 800, "v", 12000], "internal_node_id": "0.0-59.0", "key_presses": [97, 104, 13, 97, 102, 13, 97, 104, 13], "trial": 2, "time_elapsed": 671277, "type": "DISTRACTOR", "trial_index": 77, "num1": [6, 9, 5, 4]}, "uniqueid": "MTK2261:3M68NM076IENU9RQ50Y0PSVJTFNR6N", "dateTime": 1516908748828}, {"current_trial": 78, "trialdata": {"rt": -1, "trial_type": "single-stim", "stimulus": "<p id=\"stim\">10</p>", "internal_node_id": "0.0-60.0-0.0", "time_elapsed": 674333, "key_press": -1, "trial_index": 78}, "uniqueid": "MTK2261:3M68NM076IENU9RQ50Y0PSVJTFNR6N", "dateTime": 1516908751884}, {"current_trial": 79, "trialdata": {"rt": -1, "trial_type": "single-stim", "stimulus": "<p id=\"stim\">9</p>", "internal_node_id": "0.0-60.0-1.0", "time_elapsed": 675334, "key_press": -1, "trial_index": 79}, "uniqueid": "MTK2261:3M68NM076IENU9RQ50Y0PSVJTFNR6N", "dateTime": 1516908752886}, {"current_trial": 80, "trialdata": {"rt": -1, "trial_type": "single-stim", "stimulus": "<p id=\"stim\">8</p>", "internal_node_id": "0.0-60.0-2.0", "time_elapsed": 676336, "key_press": -1, "trial_index": 80}, "uniqueid": "MTK2261:3M68NM076IENU9RQ50Y0PSVJTFNR6N", "dateTime": 1516908753887}, {"current_trial": 81, "trialdata": {"rt": -1, "trial_type": "single-stim", "stimulus": "<p id=\"stim\">7</p>", "internal_node_id": "0.0-60.0-3.0", "time_elapsed": 677338, "key_press": -1, "trial_index": 81}, "uniqueid": "MTK2261:3M68NM076IENU9RQ50Y0PSVJTFNR6N", "dateTime": 1516908754889}, {"current_trial": 82, "trialdata": {"rt": -1, "trial_type": "single-stim", "stimulus": "<p id=\"stim\">6</p>", "internal_node_id": "0.0-60.0-4.0", "time_elapsed": 678340, "key_press": -1, "trial_index": 82}, "uniqueid": "MTK2261:3M68NM076IENU9RQ50Y0PSVJTFNR6N", "dateTime": 1516908755891}, {"current_trial": 83, "trialdata": {"rt": -1, "trial_type": "single-stim", "stimulus": "<p id=\"stim\">5</p>", "internal_node_id": "0.0-60.0-5.0", "time_elapsed": 679342, "key_press": -1, "trial_index": 83}, "uniqueid": "MTK2261:3M68NM076IENU9RQ50Y0PSVJTFNR6N", "dateTime": 1516908756893}, {"current_trial": 84, "trialdata": {"rt": -1, "trial_type": "single-stim", "stimulus": "<p id=\"stim\">4</p>", "internal_node_id": "0.0-60.0-6.0", "time_elapsed": 680347, "key_press": -1, "trial_index": 84}, "uniqueid": "MTK2261:3M68NM076IENU9RQ50Y0PSVJTFNR6N", "dateTime": 1516908757899}, {"current_trial": 85, "trialdata": {"rt": -1, "trial_type": "single-stim", "stimulus": "<p id=\"stim\">3</p>", "internal_node_id": "0.0-60.0-7.0", "time_elapsed": 681349, "key_press": -1, "trial_index": 85}, "uniqueid": "MTK2261:3M68NM076IENU9RQ50Y0PSVJTFNR6N", "dateTime": 1516908758900}, {"current_trial": 86, "trialdata": {"rt": -1, "trial_type": "single-stim", "stimulus": "<p id=\"stim\">2</p>", "internal_node_id": "0.0-60.0-8.0", "time_elapsed": 682351, "key_press": -1, "trial_index": 86}, "uniqueid": "MTK2261:3M68NM076IENU9RQ50Y0PSVJTFNR6N", "dateTime": 1516908759902}, {"current_trial": 87, "trialdata": {"rt": -1, "trial_type": "single-stim", "stimulus": "<p id=\"stim\">1</p>", "internal_node_id": "0.0-60.0-9.0", "time_elapsed": 683353, "key_press": -1, "trial_index": 87}, "uniqueid": "MTK2261:3M68NM076IENU9RQ50Y0PSVJTFNR6N", "dateTime": 1516908760904}, {"current_trial": 88, "trialdata": {"rt": -1, "trial_type": "single-stim", "stimulus": "<p id=\"stim\">+</p>", "internal_node_id": "0.0-61.0-0.0", "time_elapsed": 684855, "key_press": -1, "type": "FIXATION", "trial_index": 88}, "uniqueid": "MTK2261:3M68NM076IENU9RQ50Y0PSVJTFNR6N", "dateTime": 1516908762406}, {"current_trial": 89, "trialdata": {"rt": -1, "trial_type": "single-stim", "word": "chest", "stimulus": "<p id=\"stim\">CHEST</p>", "conditions": [24, 800, "v", 12000], "internal_node_id": "0.0-62.0", "trial": 2, "time_elapsed": 685657, "serialpos": 0, "key_press": -1, "wordID": 294, "type": "PRES_VIS", "trial_index": 89}, "uniqueid": "MTK2261:3M68NM076IENU9RQ50Y0PSVJTFNR6N", "dateTime": 1516908763208}, {"current_trial": 90, "trialdata": {"rt": -1, "trial_type": "single-stim", "word": "jelly", "stimulus": "<p id=\"stim\">JELLY</p>", "conditions": [24, 800, "v", 12000], "internal_node_id": "0.0-63.0", "trial": 2, "time_elapsed": 687459, "serialpos": 1, "key_press": -1, "wordID": 754, "type": "PRES_VIS", "trial_index": 90}, "uniqueid": "MTK2261:3M68NM076IENU9RQ50Y0PSVJTFNR6N", "dateTime": 1516908765010}, {"current_trial": 91, "trialdata": {"rt": -1, "trial_type": "single-stim", "word": "doughnut", "stimulus": "<p id=\"stim\">DOUGHNUT</p>", "conditions": [24, 800, "v", 12000], "internal_node_id": "0.0-64.0", "trial": 2, "time_elapsed": 689228, "serialpos": 2, "key_press": -1, "wordID": 489, "type": "PRES_VIS", "trial_index": 91}, "uniqueid": "MTK2261:3M68NM076IENU9RQ50Y0PSVJTFNR6N", "dateTime": 1516908766779}, {"current_trial": 92, "trialdata": {"rt": -1, "trial_type": "single-stim", "word": "europe", "stimulus": "<p id=\"stim\">EUROPE</p>", "conditions": [24, 800, "v", 12000], "internal_node_id": "0.0-65.0", "trial": 2, "time_elapsed": 691199, "serialpos": 3, "key_press": -1, "wordID": 540, "type": "PRES_VIS", "trial_index": 92}, "uniqueid": "MTK2261:3M68NM076IENU9RQ50Y0PSVJTFNR6N", "dateTime": 1516908768750}, {"current_trial": 93, "trialdata": {"rt": -1, "trial_type": "single-stim", "word": "robber", "stimulus": "<p id=\"stim\">ROBBER</p>", "conditions": [24, 800, "v", 12000], "internal_node_id": "0.0-66.0", "trial": 2, "time_elapsed": 693107, "serialpos": 4, "key_press": -1, "wordID": 1196, "type": "PRES_VIS", "trial_index": 93}, "uniqueid": "MTK2261:3M68NM076IENU9RQ50Y0PSVJTFNR6N", "dateTime": 1516908770658}, {"current_trial": 94, "trialdata": {"rt": -1, "trial_type": "single-stim", "word": "thief", "stimulus": "<p id=\"stim\">THIEF</p>", "conditions": [24, 800, "v", 12000], "internal_node_id": "0.0-67.0", "trial": 2, "time_elapsed": 694808, "serialpos": 5, "key_press": -1, "wordID": 1455, "type": "PRES_VIS", "trial_index": 94}, "uniqueid": "MTK2261:3M68NM076IENU9RQ50Y0PSVJTFNR6N", "dateTime": 1516908772359}, {"current_trial": 95, "trialdata": {"rt": -1, "trial_type": "single-stim", "word": "actress", "stimulus": "<p id=\"stim\">ACTRESS</p>", "conditions": [24, 800, "v", 12000], "internal_node_id": "0.0-68.0", "trial": 2, "time_elapsed": 696663, "serialpos": 6, "key_press": -1, "wordID": 5, "type": "PRES_VIS", "trial_index": 95}, "uniqueid": "MTK2261:3M68NM076IENU9RQ50Y0PSVJTFNR6N", "dateTime": 1516908774214}, {"current_trial": 96, "trialdata": {"rt": -1, "trial_type": "single-stim", "word": "hand", "stimulus": "<p id=\"stim\">HAND</p>", "conditions": [24, 800, "v", 12000], "internal_node_id": "0.0-69.0", "trial": 2, "time_elapsed": 698335, "serialpos": 7, "key_press": -1, "wordID": 682, "type": "PRES_VIS", "trial_index": 96}, "uniqueid": "MTK2261:3M68NM076IENU9RQ50Y0PSVJTFNR6N", "dateTime": 1516908775891}, {"current_trial": 97, "trialdata": {"rt": -1, "trial_type": "single-stim", "word": "woman", "stimulus": "<p id=\"stim\">WOMAN</p>", "conditions": [24, 800, "v", 12000], "internal_node_id": "0.0-70.0", "trial": 2, "time_elapsed": 700016, "serialpos": 8, "key_press": -1, "wordID": 1619, "type": "PRES_VIS", "trial_index": 97}, "uniqueid": "MTK2261:3M68NM076IENU9RQ50Y0PSVJTFNR6N", "dateTime": 1516908777567}, {"current_trial": 98, "trialdata": {"rt": -1, "trial_type": "single-stim", "word": "turkey", "stimulus": "<p id=\"stim\">TURKEY</p>", "conditions": [24, 800, "v", 12000], "internal_node_id": "0.0-71.0", "trial": 2, "time_elapsed": 701955, "serialpos": 9, "key_press": -1, "wordID": 1519, "type": "PRES_VIS", "trial_index": 98}, "uniqueid": "MTK2261:3M68NM076IENU9RQ50Y0PSVJTFNR6N", "dateTime": 1516908779506}, {"current_trial": 99, "trialdata": {"rt": -1, "trial_type": "single-stim", "word": "japan", "stimulus": "<p id=\"stim\">JAPAN</p>", "conditions": [24, 800, "v", 12000], "internal_node_id": "0.0-72.0", "trial": 2, "time_elapsed": 703921, "serialpos": 10, "key_press": -1, "wordID": 748, "type": "PRES_VIS", "trial_index": 99}, "uniqueid": "MTK2261:3M68NM076IENU9RQ50Y0PSVJTFNR6N", "dateTime": 1516908781472}, {"current_trial": 100, "trialdata": {"rt": -1, "trial_type": "single-stim", "word": "daughter", "stimulus": "<p id=\"stim\">DAUGHTER</p>", "conditions": [24, 800, "v", 12000], "internal_node_id": "0.0-73.0", "trial": 2, "time_elapsed": 705553, "serialpos": 11, "key_press": -1, "wordID": 441, "type": "PRES_VIS", "trial_index": 100}, "uniqueid": "MTK2261:3M68NM076IENU9RQ50Y0PSVJTFNR6N", "dateTime": 1516908783104}, {"current_trial": 101, "trialdata": {"rt": -1, "trial_type": "single-stim", "word": "staple", "stimulus": "<p id=\"stim\">STAPLE</p>", "conditions": [24, 800, "v", 12000], "internal_node_id": "0.0-74.0", "trial": 2, "time_elapsed": 707389, "serialpos": 12, "key_press": -1, "wordID": 1370, "type": "PRES_VIS", "trial_index": 101}, "uniqueid": "MTK2261:3M68NM076IENU9RQ50Y0PSVJTFNR6N", "dateTime": 1516908784940}, {"current_trial": 102, "trialdata": {"rt": -1, "trial_type": "single-stim", "word": "stove", "stimulus": "<p id=\"stim\">STOVE</p>", "conditions": [24, 800, "v", 12000], "internal_node_id": "0.0-75.0", "trial": 2, "time_elapsed": 709105, "serialpos": 13, "key_press": -1, "wordID": 1387, "type": "PRES_VIS", "trial_index": 102}, "uniqueid": "MTK2261:3M68NM076IENU9RQ50Y0PSVJTFNR6N", "dateTime": 1516908786656}, {"current_trial": 103, "trialdata": {"rt": -1, "trial_type": "single-stim", "word": "cashier", "stimulus": "<p id=\"stim\">CASHIER</p>", "conditions": [24, 800, "v", 12000], "internal_node_id": "0.0-76.0", "trial": 2, "time_elapsed": 710759, "serialpos": 14, "key_press": -1, "wordID": 253, "type": "PRES_VIS", "trial_index": 103}, "uniqueid": "MTK2261:3M68NM076IENU9RQ50Y0PSVJTFNR6N", "dateTime": 1516908788310}, {"current_trial": 104, "trialdata": {"rt": -1, "trial_type": "single-stim", "word": "student", "stimulus": "<p id=\"stim\">STUDENT</p>", "conditions": [24, 800, "v", 12000], "internal_node_id": "0.0-77.0", "trial": 2, "time_elapsed": 712379, "serialpos": 15, "key_press": -1, "wordID": 1394, "type": "PRES_VIS", "trial_index": 104}, "uniqueid": "MTK2261:3M68NM076IENU9RQ50Y0PSVJTFNR6N", "dateTime": 1516908789930}, {"current_trial": 105, "trialdata": {"rt": -1, "trial_type": "single-stim", "word": "banker", "stimulus": "<p id=\"stim\">BANKER</p>", "conditions": [24, 800, "v", 12000], "internal_node_id": "0.0-78.0", "trial": 2, "time_elapsed": 714326, "serialpos": 16, "key_press": -1, "wordID": 83, "type": "PRES_VIS", "trial_index": 105}, "uniqueid": "MTK2261:3M68NM076IENU9RQ50Y0PSVJTFNR6N", "dateTime": 1516908791877}, {"current_trial": 106, "trialdata": {"rt": -1, "trial_type": "single-stim", "word": "bank", "stimulus": "<p id=\"stim\">BANK</p>", "conditions": [24, 800, "v", 12000], "internal_node_id": "0.0-79.0", "trial": 2, "time_elapsed": 716030, "serialpos": 17, "key_press": -1, "wordID": 82, "type": "PRES_VIS", "trial_index": 106}, "uniqueid": "MTK2261:3M68NM076IENU9RQ50Y0PSVJTFNR6N", "dateTime": 1516908793581}, {"current_trial": 107, "trialdata": {"rt": -1, "trial_type": "single-stim", "word": "hound", "stimulus": "<p id=\"stim\">HOUND</p>", "conditions": [24, 800, "v", 12000], "internal_node_id": "0.0-80.0", "trial": 2, "time_elapsed": 717759, "serialpos": 18, "key_press": -1, "wordID": 723, "type": "PRES_VIS", "trial_index": 107}, "uniqueid": "MTK2261:3M68NM076IENU9RQ50Y0PSVJTFNR6N", "dateTime": 1516908795310}, {"current_trial": 108, "trialdata": {"rt": -1, "trial_type": "single-stim", "word": "dragon", "stimulus": "<p id=\"stim\">DRAGON</p>", "conditions": [24, 800, "v", 12000], "internal_node_id": "0.0-81.0", "trial": 2, "time_elapsed": 719439, "serialpos": 19, "key_press": -1, "wordID": 491, "type": "PRES_VIS", "trial_index": 108}, "uniqueid": "MTK2261:3M68NM076IENU9RQ50Y0PSVJTFNR6N", "dateTime": 1516908796990}, {"current_trial": 109, "trialdata": {"rt": -1, "trial_type": "single-stim", "word": "napkin", "stimulus": "<p id=\"stim\">NAPKIN</p>", "conditions": [24, 800, "v", 12000], "internal_node_id": "0.0-82.0", "trial": 2, "time_elapsed": 721300, "serialpos": 20, "key_press": -1, "wordID": 936, "type": "PRES_VIS", "trial_index": 109}, "uniqueid": "MTK2261:3M68NM076IENU9RQ50Y0PSVJTFNR6N", "dateTime": 1516908798851}, {"current_trial": 110, "trialdata": {"rt": -1, "trial_type": "single-stim", "word": "college", "stimulus": "<p id=\"stim\">COLLEGE</p>", "conditions": [24, 800, "v", 12000], "internal_node_id": "0.0-83.0", "trial": 2, "time_elapsed": 723181, "serialpos": 21, "key_press": -1, "wordID": 345, "type": "PRES_VIS", "trial_index": 110}, "uniqueid": "MTK2261:3M68NM076IENU9RQ50Y0PSVJTFNR6N", "dateTime": 1516908800732}, {"current_trial": 111, "trialdata": {"rt": -1, "trial_type": "single-stim", "word": "guard", "stimulus": "<p id=\"stim\">GUARD</p>", "conditions": [24, 800, "v", 12000], "internal_node_id": "0.0-84.0", "trial": 2, "time_elapsed": 724938, "serialpos": 22, "key_press": -1, "wordID": 666, "type": "PRES_VIS", "trial_index": 111}, "uniqueid": "MTK2261:3M68NM076IENU9RQ50Y0PSVJTFNR6N", "dateTime": 1516908802489}, {"current_trial": 112, "trialdata": {"rt": -1, "trial_type": "single-stim", "word": "gangster", "stimulus": "<p id=\"stim\">GANGSTER</p>", "conditions": [24, 800, "v", 12000], "internal_node_id": "0.0-85.0", "trial": 2, "time_elapsed": 726874, "serialpos": 23, "key_press": -1, "wordID": 619, "type": "PRES_VIS", "trial_index": 112}, "uniqueid": "MTK2261:3M68NM076IENU9RQ50Y0PSVJTFNR6N", "dateTime": 1516908804425}, {"current_trial": 113, "trialdata": {"rt": -1, "trial_type": "single-stim", "stimulus": "", "internal_node_id": "0.0-86.0-0.0", "time_elapsed": 729344, "key_press": -1, "type": "PRE_RECALL_DELAY", "trial_index": 113}, "uniqueid": "MTK2261:3M68NM076IENU9RQ50Y0PSVJTFNR6N", "dateTime": 1516908806895}, {"current_trial": 114, "trialdata": {"rt": -1000, "trial_type": "single-audio", "stimulus": "/static/audio/400Hz.wav", "internal_node_id": "0.0-87.0", "time_elapsed": 729845, "key_press": -1, "type": "PRE_RECALL_ALERT", "trial_index": 114}, "uniqueid": "MTK2261:3M68NM076IENU9RQ50Y0PSVJTFNR6N", "dateTime": 1516908807396}, {"current_trial": 115, "trialdata": {"rt": [3031, 5198, 7827, 10996, 12473, 14810], "recwords": ["bank", "banker", "daughter", "woman", "chest", "jelly"], "key_times": [691, 757, 947, 1637, 2491, 2672, 3031, 3573, 3737, 3951, 4208, 4740, 4944, 5198, 5644, 5855, 6012, 6137, 6337, 6477, 7137, 7277, 7827, 8338, 8437, 9030, 9247, 9363, 10996, 11610, 11690, 11903, 12131, 12347, 12473, 12920, 13563, 13833, 14010, 14197, 14363, 14570, 14810, 54636, 54835, 55891, 56099, 59331], "trial_type": "free-recall", "conditions": [24, 800, "v", 12000], "internal_node_id": "0.0-88.0-0.0", "key_presses": [66, 65, 77, 8, 78, 75, 13, 66, 65, 78, 75, 69, 82, 13, 68, 65, 85, 71, 72, 84, 69, 82, 13, 87, 79, 77, 65, 78, 13, 67, 72, 69, 83, 84, 32, 72, 8, 74, 69, 76, 76, 89, 32, 84, 69, 8, 8, 84], "trial": 2, "time_elapsed": 789849, "type": "FREE_RECALL", "trial_index": 115}, "uniqueid": "MTK2261:3M68NM076IENU9RQ50Y0PSVJTFNR6N", "dateTime": 1516908867408}, {"current_trial": 116, "trialdata": {"rt": 1257, "trial_type": "text", "internal_node_id": "0.0-89.0", "time_elapsed": 793115, "key_press": 13, "type": "INSTRUCTIONS", "trial_index": 116}, "uniqueid": "MTK2261:3M68NM076IENU9RQ50Y0PSVJTFNR6N", "dateTime": 1516908870666}, {"current_trial": 117, "trialdata": {"rt": [2764, 4844, 6940, 9900], "trial_type": "math-distractor", "key_times": [2229, 2476, 2764, 4324, 4564, 4844, 6636, 6940, 9564, 9900, 11604, 11820], "responses": ["17", "16", "7", "9"], "num2": [6, 6, 1, 3, 3], "num3": [4, 5, 5, 4, 1], "conditions": [24, 1600, "v", 12000], "internal_node_id": "0.0-90.0", "key_presses": [97, 103, 13, 97, 102, 13, 103, 13, 105, 13, 97, 99], "trial": 3, "time_elapsed": 807120, "type": "DISTRACTOR", "trial_index": 117, "num1": [7, 5, 1, 2, 9]}, "uniqueid": "MTK2261:3M68NM076IENU9RQ50Y0PSVJTFNR6N", "dateTime": 1516908884671}, {"current_trial": 118, "trialdata": {"rt": -1, "trial_type": "single-stim", "stimulus": "<p id=\"stim\">10</p>", "internal_node_id": "0.0-91.0-0.0", "time_elapsed": 810121, "key_press": -1, "trial_index": 118}, "uniqueid": "MTK2261:3M68NM076IENU9RQ50Y0PSVJTFNR6N", "dateTime": 1516908887672}, {"current_trial": 119, "trialdata": {"rt": -1, "trial_type": "single-stim", "stimulus": "<p id=\"stim\">9</p>", "internal_node_id": "0.0-91.0-1.0", "time_elapsed": 811123, "key_press": -1, "trial_index": 119}, "uniqueid": "MTK2261:3M68NM076IENU9RQ50Y0PSVJTFNR6N", "dateTime": 1516908888674}, {"current_trial": 120, "trialdata": {"rt": -1, "trial_type": "single-stim", "stimulus": "<p id=\"stim\">8</p>", "internal_node_id": "0.0-91.0-2.0", "time_elapsed": 812124, "key_press": -1, "trial_index": 120}, "uniqueid": "MTK2261:3M68NM076IENU9RQ50Y0PSVJTFNR6N", "dateTime": 1516908889675}, {"current_trial": 121, "trialdata": {"rt": -1, "trial_type": "single-stim", "stimulus": "<p id=\"stim\">7</p>", "internal_node_id": "0.0-91.0-3.0", "time_elapsed": 813135, "key_press": -1, "trial_index": 121}, "uniqueid": "MTK2261:3M68NM076IENU9RQ50Y0PSVJTFNR6N", "dateTime": 1516908890686}, {"current_trial": 122, "trialdata": {"rt": -1, "trial_type": "single-stim", "stimulus": "<p id=\"stim\">6</p>", "internal_node_id": "0.0-91.0-4.0", "time_elapsed": 814137, "key_press": -1, "trial_index": 122}, "uniqueid": "MTK2261:3M68NM076IENU9RQ50Y0PSVJTFNR6N", "dateTime": 1516908891688}, {"current_trial": 123, "trialdata": {"rt": -1, "trial_type": "single-stim", "stimulus": "<p id=\"stim\">5</p>", "internal_node_id": "0.0-91.0-5.0", "time_elapsed": 815138, "key_press": -1, "trial_index": 123}, "uniqueid": "MTK2261:3M68NM076IENU9RQ50Y0PSVJTFNR6N", "dateTime": 1516908892689}, {"current_trial": 124, "trialdata": {"rt": -1, "trial_type": "single-stim", "stimulus": "<p id=\"stim\">4</p>", "internal_node_id": "0.0-91.0-6.0", "time_elapsed": 816139, "key_press": -1, "trial_index": 124}, "uniqueid": "MTK2261:3M68NM076IENU9RQ50Y0PSVJTFNR6N", "dateTime": 1516908893690}, {"current_trial": 125, "trialdata": {"rt": -1, "trial_type": "single-stim", "stimulus": "<p id=\"stim\">3</p>", "internal_node_id": "0.0-91.0-7.0", "time_elapsed": 817140, "key_press": -1, "trial_index": 125}, "uniqueid": "MTK2261:3M68NM076IENU9RQ50Y0PSVJTFNR6N", "dateTime": 1516908894691}, {"current_trial": 126, "trialdata": {"rt": -1, "trial_type": "single-stim", "stimulus": "<p id=\"stim\">2</p>", "internal_node_id": "0.0-91.0-8.0", "time_elapsed": 818141, "key_press": -1, "trial_index": 126}, "uniqueid": "MTK2261:3M68NM076IENU9RQ50Y0PSVJTFNR6N", "dateTime": 1516908895692}, {"current_trial": 127, "trialdata": {"rt": -1, "trial_type": "single-stim", "stimulus": "<p id=\"stim\">1</p>", "internal_node_id": "0.0-91.0-9.0", "time_elapsed": 819205, "key_press": -1, "trial_index": 127}, "uniqueid": "MTK2261:3M68NM076IENU9RQ50Y0PSVJTFNR6N", "dateTime": 1516908896756}, {"current_trial": 128, "trialdata": {"rt": -1, "trial_type": "single-stim", "stimulus": "<p id=\"stim\">+</p>", "internal_node_id": "0.0-92.0-0.0", "time_elapsed": 820706, "key_press": -1, "type": "FIXATION", "trial_index": 128}, "uniqueid": "MTK2261:3M68NM076IENU9RQ50Y0PSVJTFNR6N", "dateTime": 1516908898257}, {"current_trial": 129, "trialdata": {"rt": -1, "trial_type": "single-stim", "word": "ozone", "stimulus": "<p id=\"stim\">OZONE</p>", "conditions": [24, 1600, "v", 12000], "internal_node_id": "0.0-93.0", "trial": 3, "time_elapsed": 822308, "serialpos": 0, "key_press": -1, "wordID": 995, "type": "PRES_VIS", "trial_index": 129}, "uniqueid": "MTK2261:3M68NM076IENU9RQ50Y0PSVJTFNR6N", "dateTime": 1516908899859}, {"current_trial": 130, "trialdata": {"rt": -1, "trial_type": "single-stim", "word": "rabbit", "stimulus": "<p id=\"stim\">RABBIT</p>", "conditions": [24, 1600, "v", 12000], "internal_node_id": "0.0-94.0", "trial": 3, "time_elapsed": 824941, "serialpos": 1, "key_press": -1, "wordID": 1151, "type": "PRES_VIS", "trial_index": 130}, "uniqueid": "MTK2261:3M68NM076IENU9RQ50Y0PSVJTFNR6N", "dateTime": 1516908902492}, {"current_trial": 131, "trialdata": {"rt": -1, "trial_type": "single-stim", "word": "brick", "stimulus": "<p id=\"stim\">BRICK</p>", "conditions": [24, 1600, "v", 12000], "internal_node_id": "0.0-95.0", "trial": 3, "time_elapsed": 827576, "serialpos": 2, "key_press": -1, "wordID": 171, "type": "PRES_VIS", "trial_index": 131}, "uniqueid": "MTK2261:3M68NM076IENU9RQ50Y0PSVJTFNR6N", "dateTime": 1516908905127}, {"current_trial": 132, "trialdata": {"rt": -1, "trial_type": "single-stim", "word": "palace", "stimulus": "<p id=\"stim\">PALACE</p>", "conditions": [24, 1600, "v", 12000], "internal_node_id": "0.0-96.0", "trial": 3, "time_elapsed": 830013, "serialpos": 3, "key_press": -1, "wordID": 1005, "type": "PRES_VIS", "trial_index": 132}, "uniqueid": "MTK2261:3M68NM076IENU9RQ50Y0PSVJTFNR6N", "dateTime": 1516908907564}, {"current_trial": 133, "trialdata": {"rt": -1, "trial_type": "single-stim", "word": "glass", "stimulus": "<p id=\"stim\">GLASS</p>", "conditions": [24, 1600, "v", 12000], "internal_node_id": "0.0-97.0", "trial": 3, "time_elapsed": 832628, "serialpos": 4, "key_press": -1, "wordID": 638, "type": "PRES_VIS", "trial_index": 133}, "uniqueid": "MTK2261:3M68NM076IENU9RQ50Y0PSVJTFNR6N", "dateTime": 1516908910179}, {"current_trial": 134, "trialdata": {"rt": -1, "trial_type": "single-stim", "word": "marrow", "stimulus": "<p id=\"stim\">MARROW</p>", "conditions": [24, 1600, "v", 12000], "internal_node_id": "0.0-98.0", "trial": 3, "time_elapsed": 835048, "serialpos": 5, "key_press": -1, "wordID": 871, "type": "PRES_VIS", "trial_index": 134}, "uniqueid": "MTK2261:3M68NM076IENU9RQ50Y0PSVJTFNR6N", "dateTime": 1516908912599}, {"current_trial": 135, "trialdata": {"rt": -1, "trial_type": "single-stim", "word": "mildew", "stimulus": "<p id=\"stim\">MILDEW</p>", "conditions": [24, 1600, "v", 12000], "internal_node_id": "0.0-99.0", "trial": 3, "time_elapsed": 837630, "serialpos": 6, "key_press": -1, "wordID": 892, "type": "PRES_VIS", "trial_index": 135}, "uniqueid": "MTK2261:3M68NM076IENU9RQ50Y0PSVJTFNR6N", "dateTime": 1516908915181}, {"current_trial": 136, "trialdata": {"rt": -1, "trial_type": "single-stim", "word": "fungus", "stimulus": "<p id=\"stim\">FUNGUS</p>", "conditions": [24, 1600, "v", 12000], "internal_node_id": "0.0-100.0", "trial": 3, "time_elapsed": 840370, "serialpos": 7, "key_press": -1, "wordID": 613, "type": "PRES_VIS", "trial_index": 136}, "uniqueid": "MTK2261:3M68NM076IENU9RQ50Y0PSVJTFNR6N", "dateTime": 1516908917921}, {"current_trial": 137, "trialdata": {"rt": -1, "trial_type": "single-stim", "word": "puddle", "stimulus": "<p id=\"stim\">PUDDLE</p>", "conditions": [24, 1600, "v", 12000], "internal_node_id": "0.0-101.0", "trial": 3, "time_elapsed": 843009, "serialpos": 8, "key_press": -1, "wordID": 1139, "type": "PRES_VIS", "trial_index": 137}, "uniqueid": "MTK2261:3M68NM076IENU9RQ50Y0PSVJTFNR6N", "dateTime": 1516908920560}, {"current_trial": 138, "trialdata": {"rt": -1, "trial_type": "single-stim", "word": "primate", "stimulus": "<p id=\"stim\">PRIMATE</p>", "conditions": [24, 1600, "v", 12000], "internal_node_id": "0.0-102.0", "trial": 3, "time_elapsed": 845697, "serialpos": 9, "key_press": -1, "wordID": 1122, "type": "PRES_VIS", "trial_index": 138}, "uniqueid": "MTK2261:3M68NM076IENU9RQ50Y0PSVJTFNR6N", "dateTime": 1516908923248}, {"current_trial": 139, "trialdata": {"rt": -1, "trial_type": "single-stim", "word": "leader", "stimulus": "<p id=\"stim\">LEADER</p>", "conditions": [24, 1600, "v", 12000], "internal_node_id": "0.0-103.0", "trial": 3, "time_elapsed": 848402, "serialpos": 10, "key_press": -1, "wordID": 806, "type": "PRES_VIS", "trial_index": 139}, "uniqueid": "MTK2261:3M68NM076IENU9RQ50Y0PSVJTFNR6N", "dateTime": 1516908925953}, {"current_trial": 140, "trialdata": {"rt": -1, "trial_type": "single-stim", "word": "smog", "stimulus": "<p id=\"stim\">SMOG</p>", "conditions": [24, 1600, "v", 12000], "internal_node_id": "0.0-104.0", "trial": 3, "time_elapsed": 850862, "serialpos": 11, "key_press": -1, "wordID": 1329, "type": "PRES_VIS", "trial_index": 140}, "uniqueid": "MTK2261:3M68NM076IENU9RQ50Y0PSVJTFNR6N", "dateTime": 1516908928413}, {"current_trial": 141, "trialdata": {"rt": -1, "trial_type": "single-stim", "word": "xerox", "stimulus": "<p id=\"stim\">XEROX</p>", "conditions": [24, 1600, "v", 12000], "internal_node_id": "0.0-105.0", "trial": 3, "time_elapsed": 853503, "serialpos": 12, "key_press": -1, "wordID": 1627, "type": "PRES_VIS", "trial_index": 141}, "uniqueid": "MTK2261:3M68NM076IENU9RQ50Y0PSVJTFNR6N", "dateTime": 1516908931054}, {"current_trial": 142, "trialdata": {"rt": -1, "trial_type": "single-stim", "word": "beaker", "stimulus": "<p id=\"stim\">BEAKER</p>", "conditions": [24, 1600, "v", 12000], "internal_node_id": "0.0-106.0", "trial": 3, "time_elapsed": 856000, "serialpos": 13, "key_press": -1, "wordID": 103, "type": "PRES_VIS", "trial_index": 142}, "uniqueid": "MTK2261:3M68NM076IENU9RQ50Y0PSVJTFNR6N", "dateTime": 1516908933551}, {"current_trial": 143, "trialdata": {"rt": -1, "trial_type": "single-stim", "word": "bacon", "stimulus": "<p id=\"stim\">BACON</p>", "conditions": [24, 1600, "v", 12000], "internal_node_id": "0.0-107.0", "trial": 3, "time_elapsed": 858494, "serialpos": 14, "key_press": -1, "wordID": 66, "type": "PRES_VIS", "trial_index": 143}, "uniqueid": "MTK2261:3M68NM076IENU9RQ50Y0PSVJTFNR6N", "dateTime": 1516908936045}, {"current_trial": 144, "trialdata": {"rt": -1, "trial_type": "single-stim", "word": "dress", "stimulus": "<p id=\"stim\">DRESS</p>", "conditions": [24, 1600, "v", 12000], "internal_node_id": "0.0-108.0", "trial": 3, "time_elapsed": 861078, "serialpos": 15, "key_press": -1, "wordID": 494, "type": "PRES_VIS", "trial_index": 144}, "uniqueid": "MTK2261:3M68NM076IENU9RQ50Y0PSVJTFNR6N", "dateTime": 1516908938629}, {"current_trial": 145, "trialdata": {"rt": -1, "trial_type": "single-stim", "word": "orchid", "stimulus": "<p id=\"stim\">ORCHID</p>", "conditions": [24, 1600, "v", 12000], "internal_node_id": "0.0-109.0", "trial": 3, "time_elapsed": 863565, "serialpos": 16, "key_press": -1, "wordID": 981, "type": "PRES_VIS", "trial_index": 145}, "uniqueid": "MTK2261:3M68NM076IENU9RQ50Y0PSVJTFNR6N", "dateTime": 1516908941116}, {"current_trial": 146, "trialdata": {"rt": -1, "trial_type": "single-stim", "word": "ketchup", "stimulus": "<p id=\"stim\">KETCHUP</p>", "conditions": [24, 1600, "v", 12000], "internal_node_id": "0.0-110.0", "trial": 3, "time_elapsed": 866153, "serialpos": 17, "key_press": -1, "wordID": 770, "type": "PRES_VIS", "trial_index": 146}, "uniqueid": "MTK2261:3M68NM076IENU9RQ50Y0PSVJTFNR6N", "dateTime": 1516908943704}, {"current_trial": 147, "trialdata": {"rt": -1, "trial_type": "single-stim", "word": "cook", "stimulus": "<p id=\"stim\">COOK</p>", "conditions": [24, 1600, "v", 12000], "internal_node_id": "0.0-111.0", "trial": 3, "time_elapsed": 868648, "serialpos": 18, "key_press": -1, "wordID": 371, "type": "PRES_VIS", "trial_index": 147}, "uniqueid": "MTK2261:3M68NM076IENU9RQ50Y0PSVJTFNR6N", "dateTime": 1516908946199}, {"current_trial": 148, "trialdata": {"rt": -1, "trial_type": "single-stim", "word": "treat", "stimulus": "<p id=\"stim\">TREAT</p>", "conditions": [24, 1600, "v", 12000], "internal_node_id": "0.0-112.0", "trial": 3, "time_elapsed": 871245, "serialpos": 19, "key_press": -1, "wordID": 1500, "type": "PRES_VIS", "trial_index": 148}, "uniqueid": "MTK2261:3M68NM076IENU9RQ50Y0PSVJTFNR6N", "dateTime": 1516908948796}, {"current_trial": 149, "trialdata": {"rt": -1, "trial_type": "single-stim", "word": "mattress", "stimulus": "<p id=\"stim\">MATTRESS</p>", "conditions": [24, 1600, "v", 12000], "internal_node_id": "0.0-113.0", "trial": 3, "time_elapsed": 873977, "serialpos": 20, "key_press": -1, "wordID": 878, "type": "PRES_VIS", "trial_index": 149}, "uniqueid": "MTK2261:3M68NM076IENU9RQ50Y0PSVJTFNR6N", "dateTime": 1516908951528}, {"current_trial": 150, "trialdata": {"rt": -1, "trial_type": "single-stim", "word": "blender", "stimulus": "<p id=\"stim\">BLENDER</p>", "conditions": [24, 1600, "v", 12000], "internal_node_id": "0.0-114.0", "trial": 3, "time_elapsed": 876642, "serialpos": 21, "key_press": -1, "wordID": 135, "type": "PRES_VIS", "trial_index": 150}, "uniqueid": "MTK2261:3M68NM076IENU9RQ50Y0PSVJTFNR6N", "dateTime": 1516908954193}, {"current_trial": 151, "trialdata": {"rt": -1, "trial_type": "single-stim", "word": "skillet", "stimulus": "<p id=\"stim\">SKILLET</p>", "conditions": [24, 1600, "v", 12000], "internal_node_id": "0.0-115.0", "trial": 3, "time_elapsed": 879223, "serialpos": 22, "key_press": -1, "wordID": 1316, "type": "PRES_VIS", "trial_index": 151}, "uniqueid": "MTK2261:3M68NM076IENU9RQ50Y0PSVJTFNR6N", "dateTime": 1516908956774}, {"current_trial": 152, "trialdata": {"rt": -1, "trial_type": "single-stim", "word": "couch", "stimulus": "<p id=\"stim\">COUCH</p>", "conditions": [24, 1600, "v", 12000], "internal_node_id": "0.0-116.0", "trial": 3, "time_elapsed": 881714, "serialpos": 23, "key_press": -1, "wordID": 385, "type": "PRES_VIS", "trial_index": 152}, "uniqueid": "MTK2261:3M68NM076IENU9RQ50Y0PSVJTFNR6N", "dateTime": 1516908959265}, {"current_trial": 153, "trialdata": {"rt": -1, "trial_type": "single-stim", "stimulus": "", "internal_node_id": "0.0-117.0-0.0", "time_elapsed": 884019, "key_press": -1, "type": "PRE_RECALL_DELAY", "trial_index": 153}, "uniqueid": "MTK2261:3M68NM076IENU9RQ50Y0PSVJTFNR6N", "dateTime": 1516908961570}, {"current_trial": 154, "trialdata": {"rt": -1000, "trial_type": "single-audio", "stimulus": "/static/audio/400Hz.wav", "internal_node_id": "0.0-118.0", "time_elapsed": 884521, "key_press": -1, "type": "PRE_RECALL_ALERT", "trial_index": 154}, "uniqueid": "MTK2261:3M68NM076IENU9RQ50Y0PSVJTFNR6N", "dateTime": 1516908962072}, {"current_trial": 155, "trialdata": {"rt": [4573, 8845, 14532, 28453], "recwords": ["ozone", "beaker", "bacon", "kitchen"], "key_times": [1313, 1600, 3223, 3445, 3923, 4199, 4573, 4985, 5206, 5405, 5589, 6096, 6366, 7869, 8059, 8179, 8293, 8845, 13343, 13532, 13786, 13996, 14215, 14532, 25499, 27125, 27283, 27574, 27735, 27885, 28117, 28453], "trial_type": "free-recall", "conditions": [24, 1600, "v", 12000], "internal_node_id": "0.0-119.0-0.0", "key_presses": [79, 16, 90, 79, 78, 69, 13, 66, 69, 65, 75, 8, 8, 65, 75, 69, 82, 13, 66, 65, 67, 79, 78, 13, 75, 73, 84, 67, 72, 69, 78, 13], "trial": 3, "time_elapsed": 944527, "type": "FREE_RECALL", "trial_index": 155}, "uniqueid": "MTK2261:3M68NM076IENU9RQ50Y0PSVJTFNR6N", "dateTime": 1516909022088}, {"current_trial": 156, "trialdata": {"rt": 1553, "trial_type": "text", "internal_node_id": "0.0-120.0", "time_elapsed": 948092, "key_press": 13, "type": "INSTRUCTIONS", "trial_index": 156}, "uniqueid": "MTK2261:3M68NM076IENU9RQ50Y0PSVJTFNR6N", "dateTime": 1516909025643}, {"current_trial": 157, "trialdata": {"rt": [1891, 5627, 8356, 15931, 18186, 20251], "trial_type": "math-distractor", "key_times": [1665, 1891, 5185, 5379, 5627, 7811, 7979, 8356, 15579, 15747, 15931, 17778, 17981, 18186, 19804, 19987, 20251, 23923], "responses": ["9", "12", "19", "23", "16", "18"], "num2": [1, 7, 3, 6, 7, 7, 4], "num3": [2, 4, 8, 8, 6, 3, 4], "conditions": [12, 1600, "v", 24000], "internal_node_id": "0.0-121.0", "key_presses": [105, 13, 97, 98, 13, 97, 105, 13, 98, 99, 13, 97, 102, 13, 97, 104, 13, 97], "trial": 4, "time_elapsed": 974097, "type": "DISTRACTOR", "trial_index": 157, "num1": [6, 1, 8, 9, 3, 8, 7]}, "uniqueid": "MTK2261:3M68NM076IENU9RQ50Y0PSVJTFNR6N", "dateTime": 1516909051648}, {"current_trial": 158, "trialdata": {"rt": -1, "trial_type": "single-stim", "stimulus": "<p id=\"stim\">10</p>", "internal_node_id": "0.0-122.0-0.0", "time_elapsed": 977098, "key_press": -1, "trial_index": 158}, "uniqueid": "MTK2261:3M68NM076IENU9RQ50Y0PSVJTFNR6N", "dateTime": 1516909054649}, {"current_trial": 159, "trialdata": {"rt": -1, "trial_type": "single-stim", "stimulus": "<p id=\"stim\">9</p>", "internal_node_id": "0.0-122.0-1.0", "time_elapsed": 978100, "key_press": -1, "trial_index": 159}, "uniqueid": "MTK2261:3M68NM076IENU9RQ50Y0PSVJTFNR6N", "dateTime": 1516909055651}, {"current_trial": 160, "trialdata": {"rt": -1, "trial_type": "single-stim", "stimulus": "<p id=\"stim\">8</p>", "internal_node_id": "0.0-122.0-2.0", "time_elapsed": 979101, "key_press": -1, "trial_index": 160}, "uniqueid": "MTK2261:3M68NM076IENU9RQ50Y0PSVJTFNR6N", "dateTime": 1516909056652}, {"current_trial": 161, "trialdata": {"rt": -1, "trial_type": "single-stim", "stimulus": "<p id=\"stim\">7</p>", "internal_node_id": "0.0-122.0-3.0", "time_elapsed": 980102, "key_press": -1, "trial_index": 161}, "uniqueid": "MTK2261:3M68NM076IENU9RQ50Y0PSVJTFNR6N", "dateTime": 1516909057653}, {"current_trial": 162, "trialdata": {"rt": -1, "trial_type": "single-stim", "stimulus": "<p id=\"stim\">6</p>", "internal_node_id": "0.0-122.0-4.0", "time_elapsed": 981104, "key_press": -1, "trial_index": 162}, "uniqueid": "MTK2261:3M68NM076IENU9RQ50Y0PSVJTFNR6N", "dateTime": 1516909058656}, {"current_trial": 163, "trialdata": {"rt": -1, "trial_type": "single-stim", "stimulus": "<p id=\"stim\">5</p>", "internal_node_id": "0.0-122.0-5.0", "time_elapsed": 982106, "key_press": -1, "trial_index": 163}, "uniqueid": "MTK2261:3M68NM076IENU9RQ50Y0PSVJTFNR6N", "dateTime": 1516909059657}, {"current_trial": 164, "trialdata": {"rt": -1, "trial_type": "single-stim", "stimulus": "<p id=\"stim\">4</p>", "internal_node_id": "0.0-122.0-6.0", "time_elapsed": 983108, "key_press": -1, "trial_index": 164}, "uniqueid": "MTK2261:3M68NM076IENU9RQ50Y0PSVJTFNR6N", "dateTime": 1516909060659}, {"current_trial": 165, "trialdata": {"rt": -1, "trial_type": "single-stim", "stimulus": "<p id=\"stim\">3</p>", "internal_node_id": "0.0-122.0-7.0", "time_elapsed": 984109, "key_press": -1, "trial_index": 165}, "uniqueid": "MTK2261:3M68NM076IENU9RQ50Y0PSVJTFNR6N", "dateTime": 1516909061660}, {"current_trial": 166, "trialdata": {"rt": -1, "trial_type": "single-stim", "stimulus": "<p id=\"stim\">2</p>", "internal_node_id": "0.0-122.0-8.0", "time_elapsed": 985110, "key_press": -1, "trial_index": 166}, "uniqueid": "MTK2261:3M68NM076IENU9RQ50Y0PSVJTFNR6N", "dateTime": 1516909062661}, {"current_trial": 167, "trialdata": {"rt": -1, "trial_type": "single-stim", "stimulus": "<p id=\"stim\">1</p>", "internal_node_id": "0.0-122.0-9.0", "time_elapsed": 986111, "key_press": -1, "trial_index": 167}, "uniqueid": "MTK2261:3M68NM076IENU9RQ50Y0PSVJTFNR6N", "dateTime": 1516909063662}, {"current_trial": 168, "trialdata": {"rt": -1, "trial_type": "single-stim", "stimulus": "<p id=\"stim\">+</p>", "internal_node_id": "0.0-123.0-0.0", "time_elapsed": 987613, "key_press": -1, "type": "FIXATION", "trial_index": 168}, "uniqueid": "MTK2261:3M68NM076IENU9RQ50Y0PSVJTFNR6N", "dateTime": 1516909065164}, {"current_trial": 169, "trialdata": {"rt": -1, "trial_type": "single-stim", "word": "tombstone", "stimulus": "<p id=\"stim\">TOMBSTONE</p>", "conditions": [12, 1600, "v", 24000], "internal_node_id": "0.0-124.0", "trial": 4, "time_elapsed": 989215, "serialpos": 0, "key_press": -1, "wordID": 1477, "type": "PRES_VIS", "trial_index": 169}, "uniqueid": "MTK2261:3M68NM076IENU9RQ50Y0PSVJTFNR6N", "dateTime": 1516909066766}, {"current_trial": 170, "trialdata": {"rt": -1, "trial_type": "single-stim", "word": "basement", "stimulus": "<p id=\"stim\">BASEMENT</p>", "conditions": [12, 1600, "v", 24000], "internal_node_id": "0.0-125.0", "trial": 4, "time_elapsed": 991774, "serialpos": 1, "key_press": -1, "wordID": 93, "type": "PRES_VIS", "trial_index": 170}, "uniqueid": "MTK2261:3M68NM076IENU9RQ50Y0PSVJTFNR6N", "dateTime": 1516909069326}, {"current_trial": 171, "trialdata": {"rt": -1, "trial_type": "single-stim", "word": "kitchen", "stimulus": "<p id=\"stim\">KITCHEN</p>", "conditions": [12, 1600, "v", 24000], "internal_node_id": "0.0-126.0", "trial": 4, "time_elapsed": 994280, "serialpos": 2, "key_press": -1, "wordID": 777, "type": "PRES_VIS", "trial_index": 171}, "uniqueid": "MTK2261:3M68NM076IENU9RQ50Y0PSVJTFNR6N", "dateTime": 1516909071831}, {"current_trial": 172, "trialdata": {"rt": -1, "trial_type": "single-stim", "word": "banquet", "stimulus": "<p id=\"stim\">BANQUET</p>", "conditions": [12, 1600, "v", 24000], "internal_node_id": "0.0-127.0", "trial": 4, "time_elapsed": 996904, "serialpos": 3, "key_press": -1, "wordID": 85, "type": "PRES_VIS", "trial_index": 172}, "uniqueid": "MTK2261:3M68NM076IENU9RQ50Y0PSVJTFNR6N", "dateTime": 1516909074456}, {"current_trial": 173, "trialdata": {"rt": -1, "trial_type": "single-stim", "word": "helmet", "stimulus": "<p id=\"stim\">HELMET</p>", "conditions": [12, 1600, "v", 24000], "internal_node_id": "0.0-128.0", "trial": 4, "time_elapsed": 999395, "serialpos": 4, "key_press": -1, "wordID": 701, "type": "PRES_VIS", "trial_index": 173}, "uniqueid": "MTK2261:3M68NM076IENU9RQ50Y0PSVJTFNR6N", "dateTime": 1516909076946}, {"current_trial": 174, "trialdata": {"rt": -1, "trial_type": "single-stim", "word": "mustard", "stimulus": "<p id=\"stim\">MUSTARD</p>", "conditions": [12, 1600, "v", 24000], "internal_node_id": "0.0-129.0", "trial": 4, "time_elapsed": 1002188, "serialpos": 5, "key_press": -1, "wordID": 934, "type": "PRES_VIS", "trial_index": 174}, "uniqueid": "MTK2261:3M68NM076IENU9RQ50Y0PSVJTFNR6N", "dateTime": 1516909079739}, {"current_trial": 175, "trialdata": {"rt": -1, "trial_type": "single-stim", "word": "sheriff", "stimulus": "<p id=\"stim\">SHERIFF</p>", "conditions": [12, 1600, "v", 24000], "internal_node_id": "0.0-130.0", "trial": 4, "time_elapsed": 1004687, "serialpos": 6, "key_press": -1, "wordID": 1283, "type": "PRES_VIS", "trial_index": 175}, "uniqueid": "MTK2261:3M68NM076IENU9RQ50Y0PSVJTFNR6N", "dateTime": 1516909082238}, {"current_trial": 176, "trialdata": {"rt": -1, "trial_type": "single-stim", "word": "shark", "stimulus": "<p id=\"stim\">SHARK</p>", "conditions": [12, 1600, "v", 24000], "internal_node_id": "0.0-131.0", "trial": 4, "time_elapsed": 1007290, "serialpos": 7, "key_press": -1, "wordID": 1274, "type": "PRES_VIS", "trial_index": 176}, "uniqueid": "MTK2261:3M68NM076IENU9RQ50Y0PSVJTFNR6N", "dateTime": 1516909084841}, {"current_trial": 177, "trialdata": {"rt": -1, "trial_type": "single-stim", "word": "velvet", "stimulus": "<p id=\"stim\">VELVET</p>", "conditions": [12, 1600, "v", 24000], "internal_node_id": "0.0-132.0", "trial": 4, "time_elapsed": 1009999, "serialpos": 8, "key_press": -1, "wordID": 1554, "type": "PRES_VIS", "trial_index": 177}, "uniqueid": "MTK2261:3M68NM076IENU9RQ50Y0PSVJTFNR6N", "dateTime": 1516909087550}, {"current_trial": 178, "trialdata": {"rt": -1, "trial_type": "single-stim", "word": "county", "stimulus": "<p id=\"stim\">COUNTY</p>", "conditions": [12, 1600, "v", 24000], "internal_node_id": "0.0-133.0", "trial": 4, "time_elapsed": 1012512, "serialpos": 9, "key_press": -1, "wordID": 388, "type": "PRES_VIS", "trial_index": 178}, "uniqueid": "MTK2261:3M68NM076IENU9RQ50Y0PSVJTFNR6N", "dateTime": 1516909090063}, {"current_trial": 179, "trialdata": {"rt": -1, "trial_type": "single-stim", "word": "apple", "stimulus": "<p id=\"stim\">APPLE</p>", "conditions": [12, 1600, "v", 24000], "internal_node_id": "0.0-134.0", "trial": 4, "time_elapsed": 1015197, "serialpos": 10, "key_press": -1, "wordID": 32, "type": "PRES_VIS", "trial_index": 179}, "uniqueid": "MTK2261:3M68NM076IENU9RQ50Y0PSVJTFNR6N", "dateTime": 1516909092748}, {"current_trial": 180, "trialdata": {"rt": -1, "trial_type": "single-stim", "word": "parsley", "stimulus": "<p id=\"stim\">PARSLEY</p>", "conditions": [12, 1600, "v", 24000], "internal_node_id": "0.0-135.0", "trial": 4, "time_elapsed": 1017755, "serialpos": 11, "key_press": -1, "wordID": 1015, "type": "PRES_VIS", "trial_index": 180}, "uniqueid": "MTK2261:3M68NM076IENU9RQ50Y0PSVJTFNR6N", "dateTime": 1516909095306}, {"current_trial": 181, "trialdata": {"rt": -1, "trial_type": "single-stim", "stimulus": "", "internal_node_id": "0.0-136.0-0.0", "time_elapsed": 1019915, "key_press": -1, "type": "PRE_RECALL_DELAY", "trial_index": 181}, "uniqueid": "MTK2261:3M68NM076IENU9RQ50Y0PSVJTFNR6N", "dateTime": 1516909097466}, {"current_trial": 182, "trialdata": {"rt": -1000, "trial_type": "single-audio", "stimulus": "/static/audio/400Hz.wav", "internal_node_id": "0.0-137.0", "time_elapsed": 1020420, "key_press": -1, "type": "PRE_RECALL_ALERT", "trial_index": 182}, "uniqueid": "MTK2261:3M68NM076IENU9RQ50Y0PSVJTFNR6N", "dateTime": 1516909097971}, {"current_trial": 183, "trialdata": {"rt": [3469, 7288, 10681, 14671, 19098, 35625, 45689], "recwords": ["velvet", "tombstone", "sherriff", "velvet", "banquet", "tombstone", "banquet"], "key_times": [1108, 1489, 1817, 1997, 2139, 2828, 2922, 3102, 3469, 4632, 4812, 4995, 5319, 5698, 6008, 6185, 6328, 6402, 7288, 7815, 7955, 8105, 8448, 8889, 9081, 9241, 9480, 9835, 9988, 10681, 12498, 12721, 13545, 13878, 14111, 14345, 14671, 16908, 17377, 17577, 17881, 18101, 18537, 18738, 19098, 33841, 34025, 34105, 34305, 34705, 34905, 35137, 35281, 35361, 35625, 43370, 43698, 44187, 44593, 44729, 44889, 45097, 45689], "trial_type": "free-recall", "conditions": [12, 1600, "v", 24000], "internal_node_id": "0.0-138.0-0.0", "key_presses": [66, 8, 86, 69, 76, 86, 69, 84, 13, 84, 79, 77, 66, 83, 84, 79, 78, 69, 13, 83, 72, 69, 70, 8, 82, 82, 73, 70, 70, 13, 86, 69, 76, 86, 69, 84, 13, 66, 65, 78, 81, 85, 69, 84, 13, 84, 79, 77, 66, 83, 84, 79, 78, 69, 13, 66, 65, 78, 81, 85, 69, 84, 13], "trial": 4, "time_elapsed": 1080426, "type": "FREE_RECALL", "trial_index": 183}, "uniqueid": "MTK2261:3M68NM076IENU9RQ50Y0PSVJTFNR6N", "dateTime": 1516909157987}, {"current_trial": 184, "trialdata": {"rt": 774, "trial_type": "text", "internal_node_id": "0.0-139.0", "time_elapsed": 1083212, "key_press": 13, "type": "INSTRUCTIONS", "trial_index": 184}, "uniqueid": "MTK2261:3M68NM076IENU9RQ50Y0PSVJTFNR6N", "dateTime": 1516909160763}, {"current_trial": 185, "trialdata": {"rt": [3196, 5275, 7452, 9364, 11172, 16956, 19580, 22068], "trial_type": "math-distractor", "key_times": [2765, 2980, 3196, 5005, 5275, 7053, 7253, 7452, 8845, 9084, 9364, 10932, 11172, 15165, 15652, 16956, 19301, 19580, 21676, 21820, 22068, 23636], "responses": ["13", "6", "12", "17", "7", "21", "9", "15"], "num2": [1, 2, 3, 5, 1, 6, 1, 3, 8], "num3": [5, 3, 1, 7, 3, 8, 2, 9, 6], "conditions": [24, 1600, "v", 24000], "internal_node_id": "0.0-140.0", "key_presses": [97, 99, 13, 102, 13, 97, 98, 13, 97, 103, 13, 103, 13, 98, 97, 13, 105, 13, 97, 101, 13, 97], "trial": 5, "time_elapsed": 1109239, "type": "DISTRACTOR", "trial_index": 185, "num1": [6, 1, 8, 5, 3, 5, 6, 3, 2]}, "uniqueid": "MTK2261:3M68NM076IENU9RQ50Y0PSVJTFNR6N", "dateTime": 1516909186790}, {"current_trial": 186, "trialdata": {"rt": -1, "trial_type": "single-stim", "stimulus": "<p id=\"stim\">10</p>", "internal_node_id": "0.0-141.0-0.0", "time_elapsed": 1112334, "key_press": -1, "trial_index": 186}, "uniqueid": "MTK2261:3M68NM076IENU9RQ50Y0PSVJTFNR6N", "dateTime": 1516909189885}, {"current_trial": 187, "trialdata": {"rt": -1, "trial_type": "single-stim", "stimulus": "<p id=\"stim\">9</p>", "internal_node_id": "0.0-141.0-1.0", "time_elapsed": 1113335, "key_press": -1, "trial_index": 187}, "uniqueid": "MTK2261:3M68NM076IENU9RQ50Y0PSVJTFNR6N", "dateTime": 1516909190886}, {"current_trial": 188, "trialdata": {"rt": -1, "trial_type": "single-stim", "stimulus": "<p id=\"stim\">8</p>", "internal_node_id": "0.0-141.0-2.0", "time_elapsed": 1114337, "key_press": -1, "trial_index": 188}, "uniqueid": "MTK2261:3M68NM076IENU9RQ50Y0PSVJTFNR6N", "dateTime": 1516909191888}, {"current_trial": 189, "trialdata": {"rt": -1, "trial_type": "single-stim", "stimulus": "<p id=\"stim\">7</p>", "internal_node_id": "0.0-141.0-3.0", "time_elapsed": 1115338, "key_press": -1, "trial_index": 189}, "uniqueid": "MTK2261:3M68NM076IENU9RQ50Y0PSVJTFNR6N", "dateTime": 1516909192889}, {"current_trial": 190, "trialdata": {"rt": -1, "trial_type": "single-stim", "stimulus": "<p id=\"stim\">6</p>", "internal_node_id": "0.0-141.0-4.0", "time_elapsed": 1116340, "key_press": -1, "trial_index": 190}, "uniqueid": "MTK2261:3M68NM076IENU9RQ50Y0PSVJTFNR6N", "dateTime": 1516909193891}, {"current_trial": 191, "trialdata": {"rt": -1, "trial_type": "single-stim", "stimulus": "<p id=\"stim\">5</p>", "internal_node_id": "0.0-141.0-5.0", "time_elapsed": 1117342, "key_press": -1, "trial_index": 191}, "uniqueid": "MTK2261:3M68NM076IENU9RQ50Y0PSVJTFNR6N", "dateTime": 1516909194893}, {"current_trial": 192, "trialdata": {"rt": -1, "trial_type": "single-stim", "stimulus": "<p id=\"stim\">4</p>", "internal_node_id": "0.0-141.0-6.0", "time_elapsed": 1118350, "key_press": -1, "trial_index": 192}, "uniqueid": "MTK2261:3M68NM076IENU9RQ50Y0PSVJTFNR6N", "dateTime": 1516909195901}, {"current_trial": 193, "trialdata": {"rt": -1, "trial_type": "single-stim", "stimulus": "<p id=\"stim\">3</p>", "internal_node_id": "0.0-141.0-7.0", "time_elapsed": 1119352, "key_press": -1, "trial_index": 193}, "uniqueid": "MTK2261:3M68NM076IENU9RQ50Y0PSVJTFNR6N", "dateTime": 1516909196903}, {"current_trial": 194, "trialdata": {"rt": -1, "trial_type": "single-stim", "stimulus": "<p id=\"stim\">2</p>", "internal_node_id": "0.0-141.0-8.0", "time_elapsed": 1120354, "key_press": -1, "trial_index": 194}, "uniqueid": "MTK2261:3M68NM076IENU9RQ50Y0PSVJTFNR6N", "dateTime": 1516909197905}, {"current_trial": 195, "trialdata": {"rt": -1, "trial_type": "single-stim", "stimulus": "<p id=\"stim\">1</p>", "internal_node_id": "0.0-141.0-9.0", "time_elapsed": 1121356, "key_press": -1, "trial_index": 195}, "uniqueid": "MTK2261:3M68NM076IENU9RQ50Y0PSVJTFNR6N", "dateTime": 1516909198907}, {"current_trial": 196, "trialdata": {"rt": -1, "trial_type": "single-stim", "stimulus": "<p id=\"stim\">+</p>", "internal_node_id": "0.0-142.0-0.0", "time_elapsed": 1122858, "key_press": -1, "type": "FIXATION", "trial_index": 196}, "uniqueid": "MTK2261:3M68NM076IENU9RQ50Y0PSVJTFNR6N", "dateTime": 1516909200409}, {"current_trial": 197, "trialdata": {"rt": -1, "trial_type": "single-stim", "word": "widow", "stimulus": "<p id=\"stim\">WIDOW</p>", "conditions": [24, 1600, "v", 24000], "internal_node_id": "0.0-143.0", "trial": 5, "time_elapsed": 1124460, "serialpos": 0, "key_press": -1, "wordID": 1607, "type": "PRES_VIS", "trial_index": 197}, "uniqueid": "MTK2261:3M68NM076IENU9RQ50Y0PSVJTFNR6N", "dateTime": 1516909202011}, {"current_trial": 198, "trialdata": {"rt": -1, "trial_type": "single-stim", "word": "valley", "stimulus": "<p id=\"stim\">VALLEY</p>", "conditions": [24, 1600, "v", 24000], "internal_node_id": "0.0-144.0", "trial": 5, "time_elapsed": 1127020, "serialpos": 1, "key_press": -1, "wordID": 1544, "type": "PRES_VIS", "trial_index": 198}, "uniqueid": "MTK2261:3M68NM076IENU9RQ50Y0PSVJTFNR6N", "dateTime": 1516909204571}, {"current_trial": 199, "trialdata": {"rt": -1, "trial_type": "single-stim", "word": "keeper", "stimulus": "<p id=\"stim\">KEEPER</p>", "conditions": [24, 1600, "v", 24000], "internal_node_id": "0.0-145.0", "trial": 5, "time_elapsed": 1129559, "serialpos": 2, "key_press": -1, "wordID": 768, "type": "PRES_VIS", "trial_index": 199}, "uniqueid": "MTK2261:3M68NM076IENU9RQ50Y0PSVJTFNR6N", "dateTime": 1516909207110}, {"current_trial": 200, "trialdata": {"rt": -1, "trial_type": "single-stim", "word": "tortoise", "stimulus": "<p id=\"stim\">TORTOISE</p>", "conditions": [24, 1600, "v", 24000], "internal_node_id": "0.0-146.0", "trial": 5, "time_elapsed": 1132366, "serialpos": 3, "key_press": -1, "wordID": 1485, "type": "PRES_VIS", "trial_index": 200}, "uniqueid": "MTK2261:3M68NM076IENU9RQ50Y0PSVJTFNR6N", "dateTime": 1516909209917}, {"current_trial": 201, "trialdata": {"rt": -1, "trial_type": "single-stim", "word": "blackboard", "stimulus": "<p id=\"stim\">BLACKBOARD</p>", "conditions": [24, 1600, "v", 24000], "internal_node_id": "0.0-147.0", "trial": 5, "time_elapsed": 1134857, "serialpos": 4, "key_press": -1, "wordID": 132, "type": "PRES_VIS", "trial_index": 201}, "uniqueid": "MTK2261:3M68NM076IENU9RQ50Y0PSVJTFNR6N", "dateTime": 1516909212408}, {"current_trial": 202, "trialdata": {"rt": -1, "trial_type": "single-stim", "word": "perfume", "stimulus": "<p id=\"stim\">PERFUME</p>", "conditions": [24, 1600, "v", 24000], "internal_node_id": "0.0-148.0", "trial": 5, "time_elapsed": 1137576, "serialpos": 5, "key_press": -1, "wordID": 1048, "type": "PRES_VIS", "trial_index": 202}, "uniqueid": "MTK2261:3M68NM076IENU9RQ50Y0PSVJTFNR6N", "dateTime": 1516909215127}, {"current_trial": 203, "trialdata": {"rt": -1, "trial_type": "single-stim", "word": "elbow", "stimulus": "<p id=\"stim\">ELBOW</p>", "conditions": [24, 1600, "v", 24000], "internal_node_id": "0.0-149.0", "trial": 5, "time_elapsed": 1140289, "serialpos": 6, "key_press": -1, "wordID": 519, "type": "PRES_VIS", "trial_index": 203}, "uniqueid": "MTK2261:3M68NM076IENU9RQ50Y0PSVJTFNR6N", "dateTime": 1516909217840}, {"current_trial": 204, "trialdata": {"rt": -1, "trial_type": "single-stim", "word": "guitar", "stimulus": "<p id=\"stim\">GUITAR</p>", "conditions": [24, 1600, "v", 24000], "internal_node_id": "0.0-150.0", "trial": 5, "time_elapsed": 1143030, "serialpos": 7, "key_press": -1, "wordID": 669, "type": "PRES_VIS", "trial_index": 204}, "uniqueid": "MTK2261:3M68NM076IENU9RQ50Y0PSVJTFNR6N", "dateTime": 1516909220581}, {"current_trial": 205, "trialdata": {"rt": -1, "trial_type": "single-stim", "word": "trombone", "stimulus": "<p id=\"stim\">TROMBONE</p>", "conditions": [24, 1600, "v", 24000], "internal_node_id": "0.0-151.0", "trial": 5, "time_elapsed": 1145683, "serialpos": 8, "key_press": -1, "wordID": 1507, "type": "PRES_VIS", "trial_index": 205}, "uniqueid": "MTK2261:3M68NM076IENU9RQ50Y0PSVJTFNR6N", "dateTime": 1516909223234}, {"current_trial": 206, "trialdata": {"rt": -1, "trial_type": "single-stim", "word": "gymnast", "stimulus": "<p id=\"stim\">GYMNAST</p>", "conditions": [24, 1600, "v", 24000], "internal_node_id": "0.0-152.0", "trial": 5, "time_elapsed": 1148120, "serialpos": 9, "key_press": -1, "wordID": 674, "type": "PRES_VIS", "trial_index": 206}, "uniqueid": "MTK2261:3M68NM076IENU9RQ50Y0PSVJTFNR6N", "dateTime": 1516909225672}, {"current_trial": 207, "trialdata": {"rt": -1, "trial_type": "single-stim", "word": "leg", "stimulus": "<p id=\"stim\">LEG</p>", "conditions": [24, 1600, "v", 24000], "internal_node_id": "0.0-153.0", "trial": 5, "time_elapsed": 1150893, "serialpos": 10, "key_press": -1, "wordID": 808, "type": "PRES_VIS", "trial_index": 207}, "uniqueid": "MTK2261:3M68NM076IENU9RQ50Y0PSVJTFNR6N", "dateTime": 1516909228444}, {"current_trial": 208, "trialdata": {"rt": -1, "trial_type": "single-stim", "word": "crayon", "stimulus": "<p id=\"stim\">CRAYON</p>", "conditions": [24, 1600, "v", 24000], "internal_node_id": "0.0-154.0", "trial": 5, "time_elapsed": 1153455, "serialpos": 11, "key_press": -1, "wordID": 400, "type": "PRES_VIS", "trial_index": 208}, "uniqueid": "MTK2261:3M68NM076IENU9RQ50Y0PSVJTFNR6N", "dateTime": 1516909231006}, {"current_trial": 209, "trialdata": {"rt": -1, "trial_type": "single-stim", "word": "chapel", "stimulus": "<p id=\"stim\">CHAPEL</p>", "conditions": [24, 1600, "v", 24000], "internal_node_id": "0.0-155.0", "trial": 5, "time_elapsed": 1156113, "serialpos": 12, "key_press": -1, "wordID": 279, "type": "PRES_VIS", "trial_index": 209}, "uniqueid": "MTK2261:3M68NM076IENU9RQ50Y0PSVJTFNR6N", "dateTime": 1516909233664}, {"current_trial": 210, "trialdata": {"rt": -1, "trial_type": "single-stim", "word": "lapel", "stimulus": "<p id=\"stim\">LAPEL</p>", "conditions": [24, 1600, "v", 24000], "internal_node_id": "0.0-156.0", "trial": 5, "time_elapsed": 1158775, "serialpos": 13, "key_press": -1, "wordID": 799, "type": "PRES_VIS", "trial_index": 210}, "uniqueid": "MTK2261:3M68NM076IENU9RQ50Y0PSVJTFNR6N", "dateTime": 1516909236327}, {"current_trial": 211, "trialdata": {"rt": -1, "trial_type": "single-stim", "word": "pimple", "stimulus": "<p id=\"stim\">PIMPLE</p>", "conditions": [24, 1600, "v", 24000], "internal_node_id": "0.0-157.0", "trial": 5, "time_elapsed": 1161189, "serialpos": 14, "key_press": -1, "wordID": 1070, "type": "PRES_VIS", "trial_index": 211}, "uniqueid": "MTK2261:3M68NM076IENU9RQ50Y0PSVJTFNR6N", "dateTime": 1516909238740}, {"current_trial": 212, "trialdata": {"rt": -1, "trial_type": "single-stim", "word": "possum", "stimulus": "<p id=\"stim\">POSSUM</p>", "conditions": [24, 1600, "v", 24000], "internal_node_id": "0.0-158.0", "trial": 5, "time_elapsed": 1163943, "serialpos": 15, "key_press": -1, "wordID": 1111, "type": "PRES_VIS", "trial_index": 212}, "uniqueid": "MTK2261:3M68NM076IENU9RQ50Y0PSVJTFNR6N", "dateTime": 1516909241494}, {"current_trial": 213, "trialdata": {"rt": -1, "trial_type": "single-stim", "word": "pizza", "stimulus": "<p id=\"stim\">PIZZA</p>", "conditions": [24, 1600, "v", 24000], "internal_node_id": "0.0-159.0", "trial": 5, "time_elapsed": 1166426, "serialpos": 16, "key_press": -1, "wordID": 1078, "type": "PRES_VIS", "trial_index": 213}, "uniqueid": "MTK2261:3M68NM076IENU9RQ50Y0PSVJTFNR6N", "dateTime": 1516909243977}, {"current_trial": 214, "trialdata": {"rt": -1, "trial_type": "single-stim", "word": "buggy", "stimulus": "<p id=\"stim\">BUGGY</p>", "conditions": [24, 1600, "v", 24000], "internal_node_id": "0.0-160.0", "trial": 5, "time_elapsed": 1168888, "serialpos": 17, "key_press": -1, "wordID": 187, "type": "PRES_VIS", "trial_index": 214}, "uniqueid": "MTK2261:3M68NM076IENU9RQ50Y0PSVJTFNR6N", "dateTime": 1516909246439}, {"current_trial": 215, "trialdata": {"rt": -1, "trial_type": "single-stim", "word": "church", "stimulus": "<p id=\"stim\">CHURCH</p>", "conditions": [24, 1600, "v", 24000], "internal_node_id": "0.0-161.0", "trial": 5, "time_elapsed": 1171466, "serialpos": 18, "key_press": -1, "wordID": 306, "type": "PRES_VIS", "trial_index": 215}, "uniqueid": "MTK2261:3M68NM076IENU9RQ50Y0PSVJTFNR6N", "dateTime": 1516909249017}, {"current_trial": 216, "trialdata": {"rt": -1, "trial_type": "single-stim", "word": "lizard", "stimulus": "<p id=\"stim\">LIZARD</p>", "conditions": [24, 1600, "v", 24000], "internal_node_id": "0.0-162.0", "trial": 5, "time_elapsed": 1174100, "serialpos": 19, "key_press": -1, "wordID": 833, "type": "PRES_VIS", "trial_index": 216}, "uniqueid": "MTK2261:3M68NM076IENU9RQ50Y0PSVJTFNR6N", "dateTime": 1516909251651}, {"current_trial": 217, "trialdata": {"rt": -1, "trial_type": "single-stim", "word": "cobra", "stimulus": "<p id=\"stim\">COBRA</p>", "conditions": [24, 1600, "v", 24000], "internal_node_id": "0.0-163.0", "trial": 5, "time_elapsed": 1176829, "serialpos": 20, "key_press": -1, "wordID": 335, "type": "PRES_VIS", "trial_index": 217}, "uniqueid": "MTK2261:3M68NM076IENU9RQ50Y0PSVJTFNR6N", "dateTime": 1516909254380}, {"current_trial": 218, "trialdata": {"rt": -1, "trial_type": "single-stim", "word": "money", "stimulus": "<p id=\"stim\">MONEY</p>", "conditions": [24, 1600, "v", 24000], "internal_node_id": "0.0-164.0", "trial": 5, "time_elapsed": 1179510, "serialpos": 21, "key_press": -1, "wordID": 907, "type": "PRES_VIS", "trial_index": 218}, "uniqueid": "MTK2261:3M68NM076IENU9RQ50Y0PSVJTFNR6N", "dateTime": 1516909257061}, {"current_trial": 219, "trialdata": {"rt": -1, "trial_type": "single-stim", "word": "headband", "stimulus": "<p id=\"stim\">HEADBAND</p>", "conditions": [24, 1600, "v", 24000], "internal_node_id": "0.0-165.0", "trial": 5, "time_elapsed": 1181939, "serialpos": 22, "key_press": -1, "wordID": 695, "type": "PRES_VIS", "trial_index": 219}, "uniqueid": "MTK2261:3M68NM076IENU9RQ50Y0PSVJTFNR6N", "dateTime": 1516909259490}, {"current_trial": 220, "trialdata": {"rt": -1, "trial_type": "single-stim", "word": "iceberg", "stimulus": "<p id=\"stim\">ICEBERG</p>", "conditions": [24, 1600, "v", 24000], "internal_node_id": "0.0-166.0", "trial": 5, "time_elapsed": 1184394, "serialpos": 23, "key_press": -1, "wordID": 730, "type": "PRES_VIS", "trial_index": 220}, "uniqueid": "MTK2261:3M68NM076IENU9RQ50Y0PSVJTFNR6N", "dateTime": 1516909261945}, {"current_trial": 221, "trialdata": {"rt": -1, "trial_type": "single-stim", "stimulus": "", "internal_node_id": "0.0-167.0-0.0", "time_elapsed": 1186769, "key_press": -1, "type": "PRE_RECALL_DELAY", "trial_index": 221}, "uniqueid": "MTK2261:3M68NM076IENU9RQ50Y0PSVJTFNR6N", "dateTime": 1516909264320}, {"current_trial": 222, "trialdata": {"rt": -1000, "trial_type": "single-audio", "stimulus": "/static/audio/400Hz.wav", "internal_node_id": "0.0-168.0", "time_elapsed": 1187270, "key_press": -1, "type": "PRE_RECALL_ALERT", "trial_index": 222}, "uniqueid": "MTK2261:3M68NM076IENU9RQ50Y0PSVJTFNR6N", "dateTime": 1516909264821}, {"current_trial": 223, "trialdata": {"rt": [1621, 4293, 6217, 10760, 17928, 33963], "recwords": ["widow", "valley", "cobra", "tortoise", "trombone", "keeper"], "key_times": [683, 824, 977, 1177, 1327, 1621, 2477, 2697, 2878, 3057, 3330, 3457, 4293, 4830, 4964, 5107, 5492, 5823, 6217, 6770, 6826, 7410, 7581, 7752, 7894, 8144, 8545, 8807, 9130, 9453, 9681, 9945, 10110, 10760, 16067, 16297, 16513, 16656, 17026, 17248, 17480, 17556, 17928, 30868, 31106, 31241, 31698, 31954, 32177, 33963, 59619, 59801], "trial_type": "free-recall", "conditions": [24, 1600, "v", 24000], "internal_node_id": "0.0-169.0-0.0", "key_presses": [87, 73, 68, 79, 87, 13, 86, 65, 76, 76, 69, 89, 13, 67, 79, 66, 82, 65, 13, 82, 79, 8, 8, 84, 79, 82, 84, 73, 8, 79, 73, 83, 69, 13, 84, 82, 79, 77, 66, 79, 78, 69, 13, 75, 69, 69, 80, 69, 82, 13, 67, 72], "trial": 5, "time_elapsed": 1247292, "type": "FREE_RECALL", "trial_index": 223}, "uniqueid": "MTK2261:3M68NM076IENU9RQ50Y0PSVJTFNR6N", "dateTime": 1516909324847}, {"current_trial": 224, "trialdata": {"rt": 1264, "trial_type": "text", "internal_node_id": "0.0-170.0", "time_elapsed": 1250562, "key_press": 13, "type": "INSTRUCTIONS", "trial_index": 224}, "uniqueid": "MTK2261:3M68NM076IENU9RQ50Y0PSVJTFNR6N", "dateTime": 1516909328114}, {"current_trial": 225, "trialdata": {"rt": [3139, 4619, 6499, 9603], "trial_type": "math-distractor", "key_times": [2619, 2867, 3139, 4227, 4421, 4619, 6156, 6300, 6499, 8307, 9380, 9603, 11617, 11779], "responses": ["13", "11", "11", "19"], "num2": [1, 5, 3, 6, 8], "num3": [5, 1, 2, 9, 4], "conditions": [24, 800, "v", 12000], "internal_node_id": "0.0-171.0", "key_presses": [97, 99, 13, 97, 97, 13, 97, 97, 13, 97, 105, 13, 98, 96], "trial": 6, "time_elapsed": 1264568, "type": "DISTRACTOR", "trial_index": 225, "num1": [7, 5, 6, 4, 8]}, "uniqueid": "MTK2261:3M68NM076IENU9RQ50Y0PSVJTFNR6N", "dateTime": 1516909342119}, {"current_trial": 226, "trialdata": {"rt": -1, "trial_type": "single-stim", "stimulus": "<p id=\"stim\">10</p>", "internal_node_id": "0.0-172.0-0.0", "time_elapsed": 1267569, "key_press": -1, "trial_index": 226}, "uniqueid": "MTK2261:3M68NM076IENU9RQ50Y0PSVJTFNR6N", "dateTime": 1516909345120}, {"current_trial": 227, "trialdata": {"rt": -1, "trial_type": "single-stim", "stimulus": "<p id=\"stim\">9</p>", "internal_node_id": "0.0-172.0-1.0", "time_elapsed": 1268571, "key_press": -1, "trial_index": 227}, "uniqueid": "MTK2261:3M68NM076IENU9RQ50Y0PSVJTFNR6N", "dateTime": 1516909346122}, {"current_trial": 228, "trialdata": {"rt": -1, "trial_type": "single-stim", "stimulus": "<p id=\"stim\">8</p>", "internal_node_id": "0.0-172.0-2.0", "time_elapsed": 1269573, "key_press": -1, "trial_index": 228}, "uniqueid": "MTK2261:3M68NM076IENU9RQ50Y0PSVJTFNR6N", "dateTime": 1516909347124}, {"current_trial": 229, "trialdata": {"rt": -1, "trial_type": "single-stim", "stimulus": "<p id=\"stim\">7</p>", "internal_node_id": "0.0-172.0-3.0", "time_elapsed": 1270575, "key_press": -1, "trial_index": 229}, "uniqueid": "MTK2261:3M68NM076IENU9RQ50Y0PSVJTFNR6N", "dateTime": 1516909348126}, {"current_trial": 230, "trialdata": {"rt": -1, "trial_type": "single-stim", "stimulus": "<p id=\"stim\">6</p>", "internal_node_id": "0.0-172.0-4.0", "time_elapsed": 1271577, "key_press": -1, "trial_index": 230}, "uniqueid": "MTK2261:3M68NM076IENU9RQ50Y0PSVJTFNR6N", "dateTime": 1516909349128}, {"current_trial": 231, "trialdata": {"rt": -1, "trial_type": "single-stim", "stimulus": "<p id=\"stim\">5</p>", "internal_node_id": "0.0-172.0-5.0", "time_elapsed": 1272579, "key_press": -1, "trial_index": 231}, "uniqueid": "MTK2261:3M68NM076IENU9RQ50Y0PSVJTFNR6N", "dateTime": 1516909350130}, {"current_trial": 232, "trialdata": {"rt": -1, "trial_type": "single-stim", "stimulus": "<p id=\"stim\">4</p>", "internal_node_id": "0.0-172.0-6.0", "time_elapsed": 1273581, "key_press": -1, "trial_index": 232}, "uniqueid": "MTK2261:3M68NM076IENU9RQ50Y0PSVJTFNR6N", "dateTime": 1516909351132}, {"current_trial": 233, "trialdata": {"rt": -1, "trial_type": "single-stim", "stimulus": "<p id=\"stim\">3</p>", "internal_node_id": "0.0-172.0-7.0", "time_elapsed": 1274583, "key_press": -1, "trial_index": 233}, "uniqueid": "MTK2261:3M68NM076IENU9RQ50Y0PSVJTFNR6N", "dateTime": 1516909352134}, {"current_trial": 234, "trialdata": {"rt": -1, "trial_type": "single-stim", "stimulus": "<p id=\"stim\">2</p>", "internal_node_id": "0.0-172.0-8.0", "time_elapsed": 1275585, "key_press": -1, "trial_index": 234}, "uniqueid": "MTK2261:3M68NM076IENU9RQ50Y0PSVJTFNR6N", "dateTime": 1516909353136}, {"current_trial": 235, "trialdata": {"rt": -1, "trial_type": "single-stim", "stimulus": "<p id=\"stim\">1</p>", "internal_node_id": "0.0-172.0-9.0", "time_elapsed": 1276587, "key_press": -1, "trial_index": 235}, "uniqueid": "MTK2261:3M68NM076IENU9RQ50Y0PSVJTFNR6N", "dateTime": 1516909354138}, {"current_trial": 236, "trialdata": {"rt": -1, "trial_type": "single-stim", "stimulus": "<p id=\"stim\">+</p>", "internal_node_id": "0.0-173.0-0.0", "time_elapsed": 1278089, "key_press": -1, "type": "FIXATION", "trial_index": 236}, "uniqueid": "MTK2261:3M68NM076IENU9RQ50Y0PSVJTFNR6N", "dateTime": 1516909355640}, {"current_trial": 237, "trialdata": {"rt": -1, "trial_type": "single-stim", "word": "lava", "stimulus": "<p id=\"stim\">LAVA</p>", "conditions": [24, 800, "v", 12000], "internal_node_id": "0.0-174.0", "trial": 6, "time_elapsed": 1278890, "serialpos": 0, "key_press": -1, "wordID": 803, "type": "PRES_VIS", "trial_index": 237}, "uniqueid": "MTK2261:3M68NM076IENU9RQ50Y0PSVJTFNR6N", "dateTime": 1516909356442}, {"current_trial": 238, "trialdata": {"rt": -1, "trial_type": "single-stim", "word": "fleet", "stimulus": "<p id=\"stim\">FLEET</p>", "conditions": [24, 800, "v", 12000], "internal_node_id": "0.0-175.0", "trial": 6, "time_elapsed": 1280880, "serialpos": 1, "key_press": -1, "wordID": 577, "type": "PRES_VIS", "trial_index": 238}, "uniqueid": "MTK2261:3M68NM076IENU9RQ50Y0PSVJTFNR6N", "dateTime": 1516909358431}, {"current_trial": 239, "trialdata": {"rt": -1, "trial_type": "single-stim", "word": "sponge", "stimulus": "<p id=\"stim\">SPONGE</p>", "conditions": [24, 800, "v", 12000], "internal_node_id": "0.0-176.0", "trial": 6, "time_elapsed": 1282830, "serialpos": 2, "key_press": -1, "wordID": 1354, "type": "PRES_VIS", "trial_index": 239}, "uniqueid": "MTK2261:3M68NM076IENU9RQ50Y0PSVJTFNR6N", "dateTime": 1516909360381}, {"current_trial": 240, "trialdata": {"rt": -1, "trial_type": "single-stim", "word": "playground", "stimulus": "<p id=\"stim\">PLAYGROUND</p>", "conditions": [24, 800, "v", 12000], "internal_node_id": "0.0-177.0", "trial": 6, "time_elapsed": 1284650, "serialpos": 3, "key_press": -1, "wordID": 1086, "type": "PRES_VIS", "trial_index": 240}, "uniqueid": "MTK2261:3M68NM076IENU9RQ50Y0PSVJTFNR6N", "dateTime": 1516909362201}, {"current_trial": 241, "trialdata": {"rt": -1, "trial_type": "single-stim", "word": "ulcer", "stimulus": "<p id=\"stim\">ULCER</p>", "conditions": [24, 800, "v", 12000], "internal_node_id": "0.0-178.0", "trial": 6, "time_elapsed": 1286765, "serialpos": 4, "key_press": -1, "wordID": 1532, "type": "PRES_VIS", "trial_index": 241}, "uniqueid": "MTK2261:3M68NM076IENU9RQ50Y0PSVJTFNR6N", "dateTime": 1516909364317}, {"current_trial": 242, "trialdata": {"rt": -1, "trial_type": "single-stim", "word": "hatchet", "stimulus": "<p id=\"stim\">HATCHET</p>", "conditions": [24, 800, "v", 12000], "internal_node_id": "0.0-179.0", "trial": 6, "time_elapsed": 1288530, "serialpos": 5, "key_press": -1, "wordID": 690, "type": "PRES_VIS", "trial_index": 242}, "uniqueid": "MTK2261:3M68NM076IENU9RQ50Y0PSVJTFNR6N", "dateTime": 1516909366081}, {"current_trial": 243, "trialdata": {"rt": -1, "trial_type": "single-stim", "word": "brother", "stimulus": "<p id=\"stim\">BROTHER</p>", "conditions": [24, 800, "v", 12000], "internal_node_id": "0.0-180.0", "trial": 6, "time_elapsed": 1290427, "serialpos": 6, "key_press": -1, "wordID": 178, "type": "PRES_VIS", "trial_index": 243}, "uniqueid": "MTK2261:3M68NM076IENU9RQ50Y0PSVJTFNR6N", "dateTime": 1516909367978}, {"current_trial": 244, "trialdata": {"rt": -1, "trial_type": "single-stim", "word": "ground", "stimulus": "<p id=\"stim\">GROUND</p>", "conditions": [24, 800, "v", 12000], "internal_node_id": "0.0-181.0", "trial": 6, "time_elapsed": 1292404, "serialpos": 7, "key_press": -1, "wordID": 665, "type": "PRES_VIS", "trial_index": 244}, "uniqueid": "MTK2261:3M68NM076IENU9RQ50Y0PSVJTFNR6N", "dateTime": 1516909369955}, {"current_trial": 245, "trialdata": {"rt": -1, "trial_type": "single-stim", "word": "bunny", "stimulus": "<p id=\"stim\">BUNNY</p>", "conditions": [24, 800, "v", 12000], "internal_node_id": "0.0-182.0", "trial": 6, "time_elapsed": 1294015, "serialpos": 8, "key_press": -1, "wordID": 197, "type": "PRES_VIS", "trial_index": 245}, "uniqueid": "MTK2261:3M68NM076IENU9RQ50Y0PSVJTFNR6N", "dateTime": 1516909371566}, {"current_trial": 246, "trialdata": {"rt": -1, "trial_type": "single-stim", "word": "marsh", "stimulus": "<p id=\"stim\">MARSH</p>", "conditions": [24, 800, "v", 12000], "internal_node_id": "0.0-183.0", "trial": 6, "time_elapsed": 1295831, "serialpos": 9, "key_press": -1, "wordID": 873, "type": "PRES_VIS", "trial_index": 246}, "uniqueid": "MTK2261:3M68NM076IENU9RQ50Y0PSVJTFNR6N", "dateTime": 1516909373382}, {"current_trial": 247, "trialdata": {"rt": -1, "trial_type": "single-stim", "word": "lagoon", "stimulus": "<p id=\"stim\">LAGOON</p>", "conditions": [24, 800, "v", 12000], "internal_node_id": "0.0-184.0", "trial": 6, "time_elapsed": 1297744, "serialpos": 10, "key_press": -1, "wordID": 794, "type": "PRES_VIS", "trial_index": 247}, "uniqueid": "MTK2261:3M68NM076IENU9RQ50Y0PSVJTFNR6N", "dateTime": 1516909375295}, {"current_trial": 248, "trialdata": {"rt": -1, "trial_type": "single-stim", "word": "puppy", "stimulus": "<p id=\"stim\">PUPPY</p>", "conditions": [24, 800, "v", 12000], "internal_node_id": "0.0-185.0", "trial": 6, "time_elapsed": 1299566, "serialpos": 11, "key_press": -1, "wordID": 1143, "type": "PRES_VIS", "trial_index": 248}, "uniqueid": "MTK2261:3M68NM076IENU9RQ50Y0PSVJTFNR6N", "dateTime": 1516909377117}, {"current_trial": 249, "trialdata": {"rt": -1, "trial_type": "single-stim", "word": "snack", "stimulus": "<p id=\"stim\">SNACK</p>", "conditions": [24, 800, "v", 12000], "internal_node_id": "0.0-186.0", "trial": 6, "time_elapsed": 1301546, "serialpos": 12, "key_press": -1, "wordID": 1330, "type": "PRES_VIS", "trial_index": 249}, "uniqueid": "MTK2261:3M68NM076IENU9RQ50Y0PSVJTFNR6N", "dateTime": 1516909379097}, {"current_trial": 250, "trialdata": {"rt": -1, "trial_type": "single-stim", "word": "asia", "stimulus": "<p id=\"stim\">ASIA</p>", "conditions": [24, 800, "v", 12000], "internal_node_id": "0.0-187.0", "trial": 6, "time_elapsed": 1303245, "serialpos": 13, "key_press": -1, "wordID": 45, "type": "PRES_VIS", "trial_index": 250}, "uniqueid": "MTK2261:3M68NM076IENU9RQ50Y0PSVJTFNR6N", "dateTime": 1516909380797}, {"current_trial": 251, "trialdata": {"rt": -1, "trial_type": "single-stim", "word": "cricket", "stimulus": "<p id=\"stim\">CRICKET</p>", "conditions": [24, 800, "v", 12000], "internal_node_id": "0.0-188.0", "trial": 6, "time_elapsed": 1305125, "serialpos": 14, "key_press": -1, "wordID": 407, "type": "PRES_VIS", "trial_index": 251}, "uniqueid": "MTK2261:3M68NM076IENU9RQ50Y0PSVJTFNR6N", "dateTime": 1516909382676}, {"current_trial": 252, "trialdata": {"rt": -1, "trial_type": "single-stim", "word": "stomach", "stimulus": "<p id=\"stim\">STOMACH</p>", "conditions": [24, 800, "v", 12000], "internal_node_id": "0.0-189.0", "trial": 6, "time_elapsed": 1306904, "serialpos": 15, "key_press": -1, "wordID": 1383, "type": "PRES_VIS", "trial_index": 252}, "uniqueid": "MTK2261:3M68NM076IENU9RQ50Y0PSVJTFNR6N", "dateTime": 1516909384455}, {"current_trial": 253, "trialdata": {"rt": -1, "trial_type": "single-stim", "word": "hamper", "stimulus": "<p id=\"stim\">HAMPER</p>", "conditions": [24, 800, "v", 12000], "internal_node_id": "0.0-190.0", "trial": 6, "time_elapsed": 1308867, "serialpos": 16, "key_press": -1, "wordID": 681, "type": "PRES_VIS", "trial_index": 253}, "uniqueid": "MTK2261:3M68NM076IENU9RQ50Y0PSVJTFNR6N", "dateTime": 1516909386418}, {"current_trial": 254, "trialdata": {"rt": -1, "trial_type": "single-stim", "word": "missile", "stimulus": "<p id=\"stim\">MISSILE</p>", "conditions": [24, 800, "v", 12000], "internal_node_id": "0.0-191.0", "trial": 6, "time_elapsed": 1310862, "serialpos": 17, "key_press": -1, "wordID": 899, "type": "PRES_VIS", "trial_index": 254}, "uniqueid": "MTK2261:3M68NM076IENU9RQ50Y0PSVJTFNR6N", "dateTime": 1516909388413}, {"current_trial": 255, "trialdata": {"rt": -1, "trial_type": "single-stim", "word": "rocket", "stimulus": "<p id=\"stim\">ROCKET</p>", "conditions": [24, 800, "v", 12000], "internal_node_id": "0.0-192.0", "trial": 6, "time_elapsed": 1312783, "serialpos": 18, "key_press": -1, "wordID": 1201, "type": "PRES_VIS", "trial_index": 255}, "uniqueid": "MTK2261:3M68NM076IENU9RQ50Y0PSVJTFNR6N", "dateTime": 1516909390335}, {"current_trial": 256, "trialdata": {"rt": -1, "trial_type": "single-stim", "word": "dentist", "stimulus": "<p id=\"stim\">DENTIST</p>", "conditions": [24, 800, "v", 12000], "internal_node_id": "0.0-193.0", "trial": 6, "time_elapsed": 1314725, "serialpos": 19, "key_press": -1, "wordID": 446, "type": "PRES_VIS", "trial_index": 256}, "uniqueid": "MTK2261:3M68NM076IENU9RQ50Y0PSVJTFNR6N", "dateTime": 1516909392276}, {"current_trial": 257, "trialdata": {"rt": -1, "trial_type": "single-stim", "word": "knife", "stimulus": "<p id=\"stim\">KNIFE</p>", "conditions": [24, 800, "v", 12000], "internal_node_id": "0.0-194.0", "trial": 6, "time_elapsed": 1316731, "serialpos": 20, "key_press": -1, "wordID": 784, "type": "PRES_VIS", "trial_index": 257}, "uniqueid": "MTK2261:3M68NM076IENU9