{"assignmentId": "31UV0MXWNRJEI6OTAUUMJUGSCRZI58", "workerId": "MTK2794", "questiondata": {"origin": "United States", "strat-rehearsal": "46", "marital": "Divorced", "education": "Bachelor's degree", "ethnicity": "Not Hispanic", "color_depth": 24, "distracted": "No", "wrote-notes": "No", "strat-other": "", "screen_width": 1366, "avail_screen_width": 1366, "avail_screen_height": 728, "strat-image": "26", "language": "english", "gender": "Female", "age": "55", "gender_other": "", "race": ["White"], "strat-categorize": "62", "pixel_depth": 24, "strat-spatial": "13", "strat-story": "53", "race_other": "", "screen_height": 768}, "bonus": 0, "hitId": "33IXYHIZB5P8GK5Q6QXVBOJ4FDQE21", "counterbalance": 1491, "useragent": "Mozilla/5.0 (Windows NT 10.0; Win64; x64) AppleWebKit/537.36 (KHTML, like Gecko) Chrome/63.0.3239.132 Safari/537.36", "eventdata": [{"eventtype": "initialized", "interval": 0, "value": null, "timestamp": 1519340455444}, {"eventtype": "window_resize", "interval": 0, "value": [1366, 721], "timestamp": 1519340455444}, {"eventtype": "focus", "interval": 33218, "value": "off", "timestamp": 1519340488662}, {"eventtype": "focus", "interval": 7394, "value": "on", "timestamp": 1519340496056}, {"eventtype": "focus", "interval": 441761, "value": "off", "timestamp": 1519340937817}, {"eventtype": "focus", "interval": 2971, "value": "on", "timestamp": 1519340940788}], "data": [{"current_trial": 0, "trialdata": {"rt": 2453, "trial_type": "text", "internal_node_id": "0.0-0.0", "time_elapsed": 2459, "key_press": 32, "type": "INSTRUCTIONS", "trial_index": 0}, "uniqueid": "MTK2794:31UV0MXWNRJEI6OTAUUMJUGSCRZI58", "dateTime": 1519340474323}, {"current_trial": 1, "trialdata": {"rt": 32660, "trial_type": "text", "internal_node_id": "0.0-1.0", "time_elapsed": 35123, "key_press": 32, "type": "INSTRUCTIONS", "trial_index": 1}, "uniqueid": "MTK2794:31UV0MXWNRJEI6OTAUUMJUGSCRZI58", "dateTime": 1519340506986}, {"current_trial": 2, "trialdata": {"rt": [6354], "trial_type": "audio-test", "responses": ["ocean"], "internal_node_id": "0.0-2.0", "time_elapsed": 41499, "type": "AUDIO_TEST", "trial_index": 2}, "uniqueid": "MTK2794:31UV0MXWNRJEI6OTAUUMJUGSCRZI58", "dateTime": 1519340513363}, {"current_trial": 3, "trialdata": {"rt": [7519], "trial_type": "audio-test", "responses": ["crystal"], "internal_node_id": "0.0-3.0", "time_elapsed": 49029, "type": "AUDIO_TEST", "trial_index": 3}, "uniqueid": "MTK2794:31UV0MXWNRJEI6OTAUUMJUGSCRZI58", "dateTime": 1519340520892}, {"current_trial": 4, "trialdata": {"rt": [5908], "trial_type": "audio-test", "responses": ["spice"], "internal_node_id": "0.0-4.0", "time_elapsed": 54947, "type": "AUDIO_TEST", "trial_index": 4}, "uniqueid": "MTK2794:31UV0MXWNRJEI6OTAUUMJUGSCRZI58", "dateTime": 1519340526810}, {"current_trial": 5, "trialdata": {"rt": 21814, "trial_type": "survey-text", "responses": "{\"Q0\":\"10 PM\",\"Q1\":\"5 AMA\",\"Q2\":\"5\"}", "internal_node_id": "0.0-5.0", "time_elapsed": 77523, "type": "SLEEP_SURVEY", "trial_index": 5}, "uniqueid": "MTK2794:31UV0MXWNRJEI6OTAUUMJUGSCRZI58", "dateTime": 1519340549387}, {"current_trial": 6, "trialdata": {"rt": 38346, "trial_type": "text", "internal_node_id": "0.0-6.0", "time_elapsed": 116872, "key_press": 40, "type": "INSTRUCTIONS", "trial_index": 6}, "uniqueid": "MTK2794:31UV0MXWNRJEI6OTAUUMJUGSCRZI58", "dateTime": 1519340588736}, {"current_trial": 7, "trialdata": {"rt": 20793, "trial_type": "text", "internal_node_id": "0.0-7.0", "time_elapsed": 138171, "key_press": 32, "type": "INSTRUCTIONS", "trial_index": 7}, "uniqueid": "MTK2794:31UV0MXWNRJEI6OTAUUMJUGSCRZI58", "dateTime": 1519340610034}, {"current_trial": 8, "trialdata": {"rt": 13103, "trial_type": "text", "internal_node_id": "0.0-8.0", "time_elapsed": 151780, "key_press": 32, "type": "INSTRUCTIONS", "trial_index": 8}, "uniqueid": "MTK2794:31UV0MXWNRJEI6OTAUUMJUGSCRZI58", "dateTime": 1519340623643}, {"current_trial": 9, "trialdata": {"rt": [5567, 8773, 11453, 16548], "trial_type": "math-distractor", "key_times": [4186, 4421, 5567, 8087, 8339, 8773, 10784, 11030, 11453, 15253, 15805, 16548], "responses": ["18", "18", "18", "19"], "num2": [5, 4, 9, 9, 5], "num3": [7, 9, 7, 2, 6], "conditions": [18, 1200, "a", 18000], "internal_node_id": "0.0-9.0", "key_presses": [97, 104, 13, 97, 104, 13, 97, 104, 13, 97, 105, 13], "trial": 0, "time_elapsed": 170810, "type": "DISTRACTOR", "trial_index": 9, "num1": [6, 5, 2, 8, 8]}, "uniqueid": "MTK2794:31UV0MXWNRJEI6OTAUUMJUGSCRZI58", "dateTime": 1519340642674}, {"current_trial": 10, "trialdata": {"rt": -1, "trial_type": "single-stim", "stimulus": "<p id=\"stim\">10</p>", "internal_node_id": "0.0-10.0-0.0", "time_elapsed": 173821, "key_press": -1, "trial_index": 10}, "uniqueid": "MTK2794:31UV0MXWNRJEI6OTAUUMJUGSCRZI58", "dateTime": 1519340645684}, {"current_trial": 11, "trialdata": {"rt": -1, "trial_type": "single-stim", "stimulus": "<p id=\"stim\">9</p>", "internal_node_id": "0.0-10.0-1.0", "time_elapsed": 174826, "key_press": -1, "trial_index": 11}, "uniqueid": "MTK2794:31UV0MXWNRJEI6OTAUUMJUGSCRZI58", "dateTime": 1519340646690}, {"current_trial": 12, "trialdata": {"rt": -1, "trial_type": "single-stim", "stimulus": "<p id=\"stim\">8</p>", "internal_node_id": "0.0-10.0-2.0", "time_elapsed": 175831, "key_press": -1, "trial_index": 12}, "uniqueid": "MTK2794:31UV0MXWNRJEI6OTAUUMJUGSCRZI58", "dateTime": 1519340647694}, {"current_trial": 13, "trialdata": {"rt": -1, "trial_type": "single-stim", "stimulus": "<p id=\"stim\">7</p>", "internal_node_id": "0.0-10.0-3.0", "time_elapsed": 176836, "key_press": -1, "trial_index": 13}, "uniqueid": "MTK2794:31UV0MXWNRJEI6OTAUUMJUGSCRZI58", "dateTime": 1519340648699}, {"current_trial": 14, "trialdata": {"rt": -1, "trial_type": "single-stim", "stimulus": "<p id=\"stim\">6</p>", "internal_node_id": "0.0-10.0-4.0", "time_elapsed": 177839, "key_press": -1, "trial_index": 14}, "uniqueid": "MTK2794:31UV0MXWNRJEI6OTAUUMJUGSCRZI58", "dateTime": 1519340649703}, {"current_trial": 15, "trialdata": {"rt": -1, "trial_type": "single-stim", "stimulus": "<p id=\"stim\">5</p>", "internal_node_id": "0.0-10.0-5.0", "time_elapsed": 178849, "key_press": -1, "trial_index": 15}, "uniqueid": "MTK2794:31UV0MXWNRJEI6OTAUUMJUGSCRZI58", "dateTime": 1519340650712}, {"current_trial": 16, "trialdata": {"rt": -1, "trial_type": "single-stim", "stimulus": "<p id=\"stim\">4</p>", "internal_node_id": "0.0-10.0-6.0", "time_elapsed": 179852, "key_press": -1, "trial_index": 16}, "uniqueid": "MTK2794:31UV0MXWNRJEI6OTAUUMJUGSCRZI58", "dateTime": 1519340651716}, {"current_trial": 17, "trialdata": {"rt": -1, "trial_type": "single-stim", "stimulus": "<p id=\"stim\">3</p>", "internal_node_id": "0.0-10.0-7.0", "time_elapsed": 180855, "key_press": -1, "trial_index": 17}, "uniqueid": "MTK2794:31UV0MXWNRJEI6OTAUUMJUGSCRZI58", "dateTime": 1519340652718}, {"current_trial": 18, "trialdata": {"rt": -1, "trial_type": "single-stim", "stimulus": "<p id=\"stim\">2</p>", "internal_node_id": "0.0-10.0-8.0", "time_elapsed": 181859, "key_press": -1, "trial_index": 18}, "uniqueid": "MTK2794:31UV0MXWNRJEI6OTAUUMJUGSCRZI58", "dateTime": 1519340653722}, {"current_trial": 19, "trialdata": {"rt": -1, "trial_type": "single-stim", "stimulus": "<p id=\"stim\">1</p>", "internal_node_id": "0.0-10.0-9.0", "time_elapsed": 182863, "key_press": -1, "trial_index": 19}, "uniqueid": "MTK2794:31UV0MXWNRJEI6OTAUUMJUGSCRZI58", "dateTime": 1519340654727}, {"current_trial": 20, "trialdata": {"rt": -1, "trial_type": "single-stim", "stimulus": "<p id=\"stim\">+</p>", "internal_node_id": "0.0-11.0-0.0", "time_elapsed": 184368, "key_press": -1, "type": "FIXATION", "trial_index": 20}, "uniqueid": "MTK2794:31UV0MXWNRJEI6OTAUUMJUGSCRZI58", "dateTime": 1519340656232}, {"current_trial": 21, "trialdata": {"rt": -1000, "trial_type": "single-audio", "word": "grape", "stimulus": "/static/audio/wordpool/GRAPE.wav", "conditions": [18, 1200, "a", 18000], "internal_node_id": "0.0-12.0", "trial": 0, "time_elapsed": 186703, "serialpos": 0, "key_press": -1, "wordID": 653, "type": "PRES_AUD", "trial_index": 21}, "uniqueid": "MTK2794:31UV0MXWNRJEI6OTAUUMJUGSCRZI58", "dateTime": 1519340658567}, {"current_trial": 22, "trialdata": {"rt": -1000, "trial_type": "single-audio", "word": "finger", "stimulus": "/static/audio/wordpool/FINGER.wav", "conditions": [18, 1200, "a", 18000], "internal_node_id": "0.0-13.0", "trial": 0, "time_elapsed": 188915, "serialpos": 1, "key_press": -1, "wordID": 566, "type": "PRES_AUD", "trial_index": 22}, "uniqueid": "MTK2794:31UV0MXWNRJEI6OTAUUMJUGSCRZI58", "dateTime": 1519340660779}, {"current_trial": 23, "trialdata": {"rt": -1000, "trial_type": "single-audio", "word": "rod", "stimulus": "/static/audio/wordpool/ROD.wav", "conditions": [18, 1200, "a", 18000], "internal_node_id": "0.0-14.0", "trial": 0, "time_elapsed": 191165, "serialpos": 2, "key_press": -1, "wordID": 1202, "type": "PRES_AUD", "trial_index": 23}, "uniqueid": "MTK2794:31UV0MXWNRJEI6OTAUUMJUGSCRZI58", "dateTime": 1519340663028}, {"current_trial": 24, "trialdata": {"rt": -1000, "trial_type": "single-audio", "word": "donkey", "stimulus": "/static/audio/wordpool/DONKEY.wav", "conditions": [18, 1200, "a", 18000], "internal_node_id": "0.0-15.0", "trial": 0, "time_elapsed": 193347, "serialpos": 3, "key_press": -1, "wordID": 483, "type": "PRES_AUD", "trial_index": 24}, "uniqueid": "MTK2794:31UV0MXWNRJEI6OTAUUMJUGSCRZI58", "dateTime": 1519340665210}, {"current_trial": 25, "trialdata": {"rt": -1000, "trial_type": "single-audio", "word": "cowboy", "stimulus": "/static/audio/wordpool/COWBOY.wav", "conditions": [18, 1200, "a", 18000], "internal_node_id": "0.0-16.0", "trial": 0, "time_elapsed": 195421, "serialpos": 4, "key_press": -1, "wordID": 394, "type": "PRES_AUD", "trial_index": 25}, "uniqueid": "MTK2794:31UV0MXWNRJEI6OTAUUMJUGSCRZI58", "dateTime": 1519340667284}, {"current_trial": 26, "trialdata": {"rt": -1000, "trial_type": "single-audio", "word": "waiter", "stimulus": "/static/audio/wordpool/WAITER.wav", "conditions": [18, 1200, "a", 18000], "internal_node_id": "0.0-17.0", "trial": 0, "time_elapsed": 197766, "serialpos": 5, "key_press": -1, "wordID": 1579, "type": "PRES_AUD", "trial_index": 26}, "uniqueid": "MTK2794:31UV0MXWNRJEI6OTAUUMJUGSCRZI58", "dateTime": 1519340669630}, {"current_trial": 27, "trialdata": {"rt": -1000, "trial_type": "single-audio", "word": "pasta", "stimulus": "/static/audio/wordpool/PASTA.wav", "conditions": [18, 1200, "a", 18000], "internal_node_id": "0.0-18.0", "trial": 0, "time_elapsed": 200099, "serialpos": 6, "key_press": -1, "wordID": 1020, "type": "PRES_AUD", "trial_index": 27}, "uniqueid": "MTK2794:31UV0MXWNRJEI6OTAUUMJUGSCRZI58", "dateTime": 1519340671963}, {"current_trial": 28, "trialdata": {"rt": -1000, "trial_type": "single-audio", "word": "rebel", "stimulus": "/static/audio/wordpool/REBEL.wav", "conditions": [18, 1200, "a", 18000], "internal_node_id": "0.0-19.0", "trial": 0, "time_elapsed": 202126, "serialpos": 7, "key_press": -1, "wordID": 1171, "type": "PRES_AUD", "trial_index": 28}, "uniqueid": "MTK2794:31UV0MXWNRJEI6OTAUUMJUGSCRZI58", "dateTime": 1519340673989}, {"current_trial": 29, "trialdata": {"rt": -1000, "trial_type": "single-audio", "word": "lagoon", "stimulus": "/static/audio/wordpool/LAGOON.wav", "conditions": [18, 1200, "a", 18000], "internal_node_id": "0.0-20.0", "trial": 0, "time_elapsed": 204166, "serialpos": 8, "key_press": -1, "wordID": 794, "type": "PRES_AUD", "trial_index": 29}, "uniqueid": "MTK2794:31UV0MXWNRJEI6OTAUUMJUGSCRZI58", "dateTime": 1519340676030}, {"current_trial": 30, "trialdata": {"rt": -1000, "trial_type": "single-audio", "word": "mammal", "stimulus": "/static/audio/wordpool/MAMMAL.wav", "conditions": [18, 1200, "a", 18000], "internal_node_id": "0.0-21.0", "trial": 0, "time_elapsed": 206315, "serialpos": 9, "key_press": -1, "wordID": 860, "type": "PRES_AUD", "trial_index": 30}, "uniqueid": "MTK2794:31UV0MXWNRJEI6OTAUUMJUGSCRZI58", "dateTime": 1519340678179}, {"current_trial": 31, "trialdata": {"rt": -1000, "trial_type": "single-audio", "word": "switch", "stimulus": "/static/audio/wordpool/SWITCH.wav", "conditions": [18, 1200, "a", 18000], "internal_node_id": "0.0-22.0", "trial": 0, "time_elapsed": 208658, "serialpos": 10, "key_press": -1, "wordID": 1421, "type": "PRES_AUD", "trial_index": 31}, "uniqueid": "MTK2794:31UV0MXWNRJEI6OTAUUMJUGSCRZI58", "dateTime": 1519340680521}, {"current_trial": 32, "trialdata": {"rt": -1000, "trial_type": "single-audio", "word": "stamp", "stimulus": "/static/audio/wordpool/STAMP.wav", "conditions": [18, 1200, "a", 18000], "internal_node_id": "0.0-23.0", "trial": 0, "time_elapsed": 210709, "serialpos": 11, "key_press": -1, "wordID": 1369, "type": "PRES_AUD", "trial_index": 32}, "uniqueid": "MTK2794:31UV0MXWNRJEI6OTAUUMJUGSCRZI58", "dateTime": 1519340682572}, {"current_trial": 33, "trialdata": {"rt": -1000, "trial_type": "single-audio", "word": "glass", "stimulus": "/static/audio/wordpool/GLASS.wav", "conditions": [18, 1200, "a", 18000], "internal_node_id": "0.0-24.0", "trial": 0, "time_elapsed": 212840, "serialpos": 12, "key_press": -1, "wordID": 638, "type": "PRES_AUD", "trial_index": 33}, "uniqueid": "MTK2794:31UV0MXWNRJEI6OTAUUMJUGSCRZI58", "dateTime": 1519340684704}, {"current_trial": 34, "trialdata": {"rt": -1000, "trial_type": "single-audio", "word": "cabbage", "stimulus": "/static/audio/wordpool/CABBAGE.wav", "conditions": [18, 1200, "a", 18000], "internal_node_id": "0.0-25.0", "trial": 0, "time_elapsed": 214966, "serialpos": 13, "key_press": -1, "wordID": 209, "type": "PRES_AUD", "trial_index": 34}, "uniqueid": "MTK2794:31UV0MXWNRJEI6OTAUUMJUGSCRZI58", "dateTime": 1519340686830}, {"current_trial": 35, "trialdata": {"rt": -1000, "trial_type": "single-audio", "word": "item", "stimulus": "/static/audio/wordpool/ITEM.wav", "conditions": [18, 1200, "a", 18000], "internal_node_id": "0.0-26.0", "trial": 0, "time_elapsed": 217189, "serialpos": 14, "key_press": -1, "wordID": 745, "type": "PRES_AUD", "trial_index": 35}, "uniqueid": "MTK2794:31UV0MXWNRJEI6OTAUUMJUGSCRZI58", "dateTime": 1519340689053}, {"current_trial": 36, "trialdata": {"rt": -1000, "trial_type": "single-audio", "word": "chipmunk", "stimulus": "/static/audio/wordpool/CHIPMUNK.wav", "conditions": [18, 1200, "a", 18000], "internal_node_id": "0.0-27.0", "trial": 0, "time_elapsed": 219312, "serialpos": 15, "key_press": -1, "wordID": 303, "type": "PRES_AUD", "trial_index": 36}, "uniqueid": "MTK2794:31UV0MXWNRJEI6OTAUUMJUGSCRZI58", "dateTime": 1519340691175}, {"current_trial": 37, "trialdata": {"rt": -1000, "trial_type": "single-audio", "word": "judge", "stimulus": "/static/audio/wordpool/JUDGE.wav", "conditions": [18, 1200, "a", 18000], "internal_node_id": "0.0-28.0", "trial": 0, "time_elapsed": 221550, "serialpos": 16, "key_press": -1, "wordID": 760, "type": "PRES_AUD", "trial_index": 37}, "uniqueid": "MTK2794:31UV0MXWNRJEI6OTAUUMJUGSCRZI58", "dateTime": 1519340693414}, {"current_trial": 38, "trialdata": {"rt": -1000, "trial_type": "single-audio", "word": "gift", "stimulus": "/static/audio/wordpool/GIFT.wav", "conditions": [18, 1200, "a", 18000], "internal_node_id": "0.0-29.0", "trial": 0, "time_elapsed": 223611, "serialpos": 17, "key_press": -1, "wordID": 634, "type": "PRES_AUD", "trial_index": 38}, "uniqueid": "MTK2794:31UV0MXWNRJEI6OTAUUMJUGSCRZI58", "dateTime": 1519340695474}, {"current_trial": 39, "trialdata": {"rt": -1, "trial_type": "single-stim", "stimulus": "", "internal_node_id": "0.0-30.0-0.0", "time_elapsed": 224982, "key_press": -1, "type": "PRE_RECALL_DELAY", "trial_index": 39}, "uniqueid": "MTK2794:31UV0MXWNRJEI6OTAUUMJUGSCRZI58", "dateTime": 1519340696846}, {"current_trial": 40, "trialdata": {"rt": -1000, "trial_type": "single-audio", "stimulus": "/static/audio/400Hz.wav", "internal_node_id": "0.0-31.0", "time_elapsed": 225491, "key_press": -1, "type": "PRE_RECALL_ALERT", "trial_index": 40}, "uniqueid": "MTK2794:31UV0MXWNRJEI6OTAUUMJUGSCRZI58", "dateTime": 1519340697357}, {"current_trial": 41, "trialdata": {"rt": [4248, 9662, 11563, 13330, 15066, 16773, 18763, 20850, 22964, 24874, 30077, 32248, 35816, 41701, 55436], "recwords": ["gift", "chipmunk", "item", "cabbage", "stamp", "mammal", "pasta", "donkey", "waither", "cowboy", "judge", "finger", "lagoon", "glass", "three"], "key_times": [3457, 3556, 3894, 4116, 4248, 6108, 6221, 6534, 7207, 7694, 8185, 8477, 8692, 8904, 9419, 9662, 10980, 11147, 11285, 11385, 11563, 11811, 12078, 12257, 12420, 12546, 12968, 13184, 13330, 14194, 14419, 14552, 14633, 14806, 15066, 15307, 15447, 15555, 15690, 16103, 16497, 16773, 18014, 18120, 18267, 18480, 18607, 18763, 19753, 19844, 19962, 20338, 20463, 20616, 20850, 21957, 22215, 22355, 22530, 22627, 22754, 22824, 22964, 23171, 23308, 24064, 24325, 24424, 24636, 24874, 28821, 28994, 29141, 29463, 29656, 30077, 31492, 31587, 31737, 31845, 32020, 32069, 32248, 34892, 35012, 35135, 35268, 35407, 35582, 35816, 40894, 41030, 41167, 41396, 41559, 41701, 54437, 54530, 54629, 54836, 54980, 55436], "trial_type": "free-recall", "conditions": [18, 1200, "a", 18000], "internal_node_id": "0.0-32.0-0.0", "key_presses": [71, 73, 70, 84, 13, 67, 72, 73, 80, 85, 8, 77, 85, 78, 75, 13, 73, 84, 69, 77, 13, 67, 65, 66, 66, 65, 71, 69, 13, 83, 84, 65, 77, 80, 13, 77, 65, 77, 77, 65, 76, 13, 80, 65, 83, 84, 65, 13, 68, 79, 78, 75, 69, 89, 13, 87, 65, 73, 84, 72, 69, 82, 13, 67, 79, 87, 66, 79, 89, 13, 74, 85, 68, 71, 69, 13, 70, 73, 78, 71, 69, 82, 13, 76, 65, 71, 79, 79, 78, 13, 71, 76, 65, 83, 83, 13, 84, 72, 82, 69, 69, 13], "trial": 0, "time_elapsed": 285506, "type": "FREE_RECALL", "trial_index": 41}, "uniqueid": "MTK2794:31UV0MXWNRJEI6OTAUUMJUGSCRZI58", "dateTime": 1519340757377}, {"current_trial": 42, "trialdata": {"rt": 2544, "trial_type": "text", "internal_node_id": "0.0-33.0", "time_elapsed": 290061, "key_press": 32, "type": "INSTRUCTIONS", "trial_index": 42}, "uniqueid": "MTK2794:31UV0MXWNRJEI6OTAUUMJUGSCRZI58", "dateTime": 1519340761924}, {"current_trial": 43, "trialdata": {"rt": [2552, 5667, 10410, 13639, 16141], "trial_type": "math-distractor", "key_times": [2137, 2274, 2552, 4854, 5014, 5667, 8713, 8883, 10410, 13152, 13335, 13639, 15717, 15888, 16141], "responses": ["11", "10", "15", "20", "12"], "num2": [7, 2, 4, 6, 3, 6], "num3": [1, 1, 4, 5, 2, 5], "conditions": [18, 1200, "a", 18000], "internal_node_id": "0.0-34.0", "key_presses": [97, 97, 13, 97, 96, 13, 97, 101, 13, 98, 96, 13, 97, 98, 13], "trial": 1, "time_elapsed": 310068, "type": "DISTRACTOR", "trial_index": 43, "num1": [3, 7, 7, 9, 7, 9]}, "uniqueid": "MTK2794:31UV0MXWNRJEI6OTAUUMJUGSCRZI58", "dateTime": 1519340781931}, {"current_trial": 44, "trialdata": {"rt": -1, "trial_type": "single-stim", "stimulus": "<p id=\"stim\">10</p>", "internal_node_id": "0.0-35.0-0.0", "time_elapsed": 313078, "key_press": -1, "trial_index": 44}, "uniqueid": "MTK2794:31UV0MXWNRJEI6OTAUUMJUGSCRZI58", "dateTime": 1519340784942}, {"current_trial": 45, "trialdata": {"rt": -1, "trial_type": "single-stim", "stimulus": "<p id=\"stim\">9</p>", "internal_node_id": "0.0-35.0-1.0", "time_elapsed": 314082, "key_press": -1, "trial_index": 45}, "uniqueid": "MTK2794:31UV0MXWNRJEI6OTAUUMJUGSCRZI58", "dateTime": 1519340785946}, {"current_trial": 46, "trialdata": {"rt": -1, "trial_type": "single-stim", "stimulus": "<p id=\"stim\">8</p>", "internal_node_id": "0.0-35.0-2.0", "time_elapsed": 315087, "key_press": -1, "trial_index": 46}, "uniqueid": "MTK2794:31UV0MXWNRJEI6OTAUUMJUGSCRZI58", "dateTime": 1519340786950}, {"current_trial": 47, "trialdata": {"rt": -1, "trial_type": "single-stim", "stimulus": "<p id=\"stim\">7</p>", "internal_node_id": "0.0-35.0-3.0", "time_elapsed": 316092, "key_press": -1, "trial_index": 47}, "uniqueid": "MTK2794:31UV0MXWNRJEI6OTAUUMJUGSCRZI58", "dateTime": 1519340787956}, {"current_trial": 48, "trialdata": {"rt": -1, "trial_type": "single-stim", "stimulus": "<p id=\"stim\">6</p>", "internal_node_id": "0.0-35.0-4.0", "time_elapsed": 317096, "key_press": -1, "trial_index": 48}, "uniqueid": "MTK2794:31UV0MXWNRJEI6OTAUUMJUGSCRZI58", "dateTime": 1519340788960}, {"current_trial": 49, "trialdata": {"rt": -1, "trial_type": "single-stim", "stimulus": "<p id=\"stim\">5</p>", "internal_node_id": "0.0-35.0-5.0", "time_elapsed": 318102, "key_press": -1, "trial_index": 49}, "uniqueid": "MTK2794:31UV0MXWNRJEI6OTAUUMJUGSCRZI58", "dateTime": 1519340789966}, {"current_trial": 50, "trialdata": {"rt": -1, "trial_type": "single-stim", "stimulus": "<p id=\"stim\">4</p>", "internal_node_id": "0.0-35.0-6.0", "time_elapsed": 319108, "key_press": -1, "trial_index": 50}, "uniqueid": "MTK2794:31UV0MXWNRJEI6OTAUUMJUGSCRZI58", "dateTime": 1519340790971}, {"current_trial": 51, "trialdata": {"rt": -1, "trial_type": "single-stim", "stimulus": "<p id=\"stim\">3</p>", "internal_node_id": "0.0-35.0-7.0", "time_elapsed": 320114, "key_press": -1, "trial_index": 51}, "uniqueid": "MTK2794:31UV0MXWNRJEI6OTAUUMJUGSCRZI58", "dateTime": 1519340791977}, {"current_trial": 52, "trialdata": {"rt": -1, "trial_type": "single-stim", "stimulus": "<p id=\"stim\">2</p>", "internal_node_id": "0.0-35.0-8.0", "time_elapsed": 321118, "key_press": -1, "trial_index": 52}, "uniqueid": "MTK2794:31UV0MXWNRJEI6OTAUUMJUGSCRZI58", "dateTime": 1519340792982}, {"current_trial": 53, "trialdata": {"rt": -1, "trial_type": "single-stim", "stimulus": "<p id=\"stim\">1</p>", "internal_node_id": "0.0-35.0-9.0", "time_elapsed": 322123, "key_press": -1, "trial_index": 53}, "uniqueid": "MTK2794:31UV0MXWNRJEI6OTAUUMJUGSCRZI58", "dateTime": 1519340793987}, {"current_trial": 54, "trialdata": {"rt": -1, "trial_type": "single-stim", "stimulus": "<p id=\"stim\">+</p>", "internal_node_id": "0.0-36.0-0.0", "time_elapsed": 323628, "key_press": -1, "type": "FIXATION", "trial_index": 54}, "uniqueid": "MTK2794:31UV0MXWNRJEI6OTAUUMJUGSCRZI58", "dateTime": 1519340795492}, {"current_trial": 55, "trialdata": {"rt": -1000, "trial_type": "single-audio", "word": "tuba", "stimulus": "/static/audio/wordpool/TUBA.wav", "conditions": [18, 1200, "a", 18000], "internal_node_id": "0.0-37.0", "trial": 1, "time_elapsed": 325983, "serialpos": 0, "key_press": -1, "wordID": 1514, "type": "PRES_AUD", "trial_index": 55}, "uniqueid": "MTK2794:31UV0MXWNRJEI6OTAUUMJUGSCRZI58", "dateTime": 1519340797847}, {"current_trial": 56, "trialdata": {"rt": -1000, "trial_type": "single-audio", "word": "canyon", "stimulus": "/static/audio/wordpool/CANYON.wav", "conditions": [18, 1200, "a", 18000], "internal_node_id": "0.0-38.0", "trial": 1, "time_elapsed": 328011, "serialpos": 1, "key_press": -1, "wordID": 234, "type": "PRES_AUD", "trial_index": 56}, "uniqueid": "MTK2794:31UV0MXWNRJEI6OTAUUMJUGSCRZI58", "dateTime": 1519340799878}, {"current_trial": 57, "trialdata": {"rt": -1000, "trial_type": "single-audio", "word": "couch", "stimulus": "/static/audio/wordpool/COUCH.wav", "conditions": [18, 1200, "a", 18000], "internal_node_id": "0.0-39.0", "trial": 1, "time_elapsed": 330296, "serialpos": 2, "key_press": -1, "wordID": 385, "type": "PRES_AUD", "trial_index": 57}, "uniqueid": "MTK2794:31UV0MXWNRJEI6OTAUUMJUGSCRZI58", "dateTime": 1519340802160}, {"current_trial": 58, "trialdata": {"rt": -1000, "trial_type": "single-audio", "word": "wrist", "stimulus": "/static/audio/wordpool/WRIST.wav", "conditions": [18, 1200, "a", 18000], "internal_node_id": "0.0-40.0", "trial": 1, "time_elapsed": 332529, "serialpos": 3, "key_press": -1, "wordID": 1625, "type": "PRES_AUD", "trial_index": 58}, "uniqueid": "MTK2794:31UV0MXWNRJEI6OTAUUMJUGSCRZI58", "dateTime": 1519340804393}, {"current_trial": 59, "trialdata": {"rt": -1000, "trial_type": "single-audio", "word": "turkey", "stimulus": "/static/audio/wordpool/TURKEY.wav", "conditions": [18, 1200, "a", 18000], "internal_node_id": "0.0-41.0", "trial": 1, "time_elapsed": 334653, "serialpos": 4, "key_press": -1, "wordID": 1519, "type": "PRES_AUD", "trial_index": 59}, "uniqueid": "MTK2794:31UV0MXWNRJEI6OTAUUMJUGSCRZI58", "dateTime": 1519340806517}, {"current_trial": 60, "trialdata": {"rt": -1000, "trial_type": "single-audio", "word": "pigeon", "stimulus": "/static/audio/wordpool/PIGEON.wav", "conditions": [18, 1200, "a", 18000], "internal_node_id": "0.0-42.0", "trial": 1, "time_elapsed": 336705, "serialpos": 5, "key_press": -1, "wordID": 1064, "type": "PRES_AUD", "trial_index": 60}, "uniqueid": "MTK2794:31UV0MXWNRJEI6OTAUUMJUGSCRZI58", "dateTime": 1519340808568}, {"current_trial": 61, "trialdata": {"rt": -1000, "trial_type": "single-audio", "word": "dolphin", "stimulus": "/static/audio/wordpool/DOLPHIN.wav", "conditions": [18, 1200, "a", 18000], "internal_node_id": "0.0-43.0", "trial": 1, "time_elapsed": 338815, "serialpos": 6, "key_press": -1, "wordID": 482, "type": "PRES_AUD", "trial_index": 61}, "uniqueid": "MTK2794:31UV0MXWNRJEI6OTAUUMJUGSCRZI58", "dateTime": 1519340810679}, {"current_trial": 62, "trialdata": {"rt": -1000, "trial_type": "single-audio", "word": "relish", "stimulus": "/static/audio/wordpool/RELISH.wav", "conditions": [18, 1200, "a", 18000], "internal_node_id": "0.0-44.0", "trial": 1, "time_elapsed": 341027, "serialpos": 7, "key_press": -1, "wordID": 1182, "type": "PRES_AUD", "trial_index": 62}, "uniqueid": "MTK2794:31UV0MXWNRJEI6OTAUUMJUGSCRZI58", "dateTime": 1519340812890}, {"current_trial": 63, "trialdata": {"rt": -1000, "trial_type": "single-audio", "word": "kidney", "stimulus": "/static/audio/wordpool/KIDNEY.wav", "conditions": [18, 1200, "a", 18000], "internal_node_id": "0.0-45.0", "trial": 1, "time_elapsed": 343308, "serialpos": 8, "key_press": -1, "wordID": 775, "type": "PRES_AUD", "trial_index": 63}, "uniqueid": "MTK2794:31UV0MXWNRJEI6OTAUUMJUGSCRZI58", "dateTime": 1519340815172}, {"current_trial": 64, "trialdata": {"rt": -1000, "trial_type": "single-audio", "word": "breast", "stimulus": "/static/audio/wordpool/BREAST.wav", "conditions": [18, 1200, "a", 18000], "internal_node_id": "0.0-46.0", "trial": 1, "time_elapsed": 345591, "serialpos": 9, "key_press": -1, "wordID": 170, "type": "PRES_AUD", "trial_index": 64}, "uniqueid": "MTK2794:31UV0MXWNRJEI6OTAUUMJUGSCRZI58", "dateTime": 1519340817455}, {"current_trial": 65, "trialdata": {"rt": -1000, "trial_type": "single-audio", "word": "braces", "stimulus": "/static/audio/wordpool/BRACES.wav", "conditions": [18, 1200, "a", 18000], "internal_node_id": "0.0-47.0", "trial": 1, "time_elapsed": 347808, "serialpos": 10, "key_press": -1, "wordID": 163, "type": "PRES_AUD", "trial_index": 65}, "uniqueid": "MTK2794:31UV0MXWNRJEI6OTAUUMJUGSCRZI58", "dateTime": 1519340819671}, {"current_trial": 66, "trialdata": {"rt": -1000, "trial_type": "single-audio", "word": "raft", "stimulus": "/static/audio/wordpool/RAFT.wav", "conditions": [18, 1200, "a", 18000], "internal_node_id": "0.0-48.0", "trial": 1, "time_elapsed": 350129, "serialpos": 11, "key_press": -1, "wordID": 1158, "type": "PRES_AUD", "trial_index": 66}, "uniqueid": "MTK2794:31UV0MXWNRJEI6OTAUUMJUGSCRZI58", "dateTime": 1519340821993}, {"current_trial": 67, "trialdata": {"rt": -1000, "trial_type": "single-audio", "word": "flag", "stimulus": "/static/audio/wordpool/FLAG.wav", "conditions": [18, 1200, "a", 18000], "internal_node_id": "0.0-49.0", "trial": 1, "time_elapsed": 352375, "serialpos": 12, "key_press": -1, "wordID": 572, "type": "PRES_AUD", "trial_index": 67}, "uniqueid": "MTK2794:31UV0MXWNRJEI6OTAUUMJUGSCRZI58", "dateTime": 1519340824239}, {"current_trial": 68, "trialdata": {"rt": -1000, "trial_type": "single-audio", "word": "dresser", "stimulus": "/static/audio/wordpool/DRESSER.wav", "conditions": [18, 1200, "a", 18000], "internal_node_id": "0.0-50.0", "trial": 1, "time_elapsed": 354486, "serialpos": 13, "key_press": -1, "wordID": 495, "type": "PRES_AUD", "trial_index": 68}, "uniqueid": "MTK2794:31UV0MXWNRJEI6OTAUUMJUGSCRZI58", "dateTime": 1519340826359}, {"current_trial": 69, "trialdata": {"rt": -1000, "trial_type": "single-audio", "word": "expert", "stimulus": "/static/audio/wordpool/EXPERT.wav", "conditions": [18, 1200, "a", 18000], "internal_node_id": "0.0-51.0", "trial": 1, "time_elapsed": 356666, "serialpos": 14, "key_press": -1, "wordID": 542, "type": "PRES_AUD", "trial_index": 69}, "uniqueid": "MTK2794:31UV0MXWNRJEI6OTAUUMJUGSCRZI58", "dateTime": 1519340828529}, {"current_trial": 70, "trialdata": {"rt": -1000, "trial_type": "single-audio", "word": "witness", "stimulus": "/static/audio/wordpool/WITNESS.wav", "conditions": [18, 1200, "a", 18000], "internal_node_id": "0.0-52.0", "trial": 1, "time_elapsed": 358780, "serialpos": 15, "key_press": -1, "wordID": 1617, "type": "PRES_AUD", "trial_index": 70}, "uniqueid": "MTK2794:31UV0MXWNRJEI6OTAUUMJUGSCRZI58", "dateTime": 1519340830643}, {"current_trial": 71, "trialdata": {"rt": -1000, "trial_type": "single-audio", "word": "blackboard", "stimulus": "/static/audio/wordpool/BLACKBOARD.wav", "conditions": [18, 1200, "a", 18000], "internal_node_id": "0.0-53.0", "trial": 1, "time_elapsed": 361028, "serialpos": 16, "key_press": -1, "wordID": 132, "type": "PRES_AUD", "trial_index": 71}, "uniqueid": "MTK2794:31UV0MXWNRJEI6OTAUUMJUGSCRZI58", "dateTime": 1519340832892}, {"current_trial": 72, "trialdata": {"rt": -1000, "trial_type": "single-audio", "word": "knapsack", "stimulus": "/static/audio/wordpool/KNAPSACK.wav", "conditions": [18, 1200, "a", 18000], "internal_node_id": "0.0-54.0", "trial": 1, "time_elapsed": 363379, "serialpos": 17, "key_press": -1, "wordID": 782, "type": "PRES_AUD", "trial_index": 72}, "uniqueid": "MTK2794:31UV0MXWNRJEI6OTAUUMJUGSCRZI58", "dateTime": 1519340835242}, {"current_trial": 73, "trialdata": {"rt": -1, "trial_type": "single-stim", "stimulus": "", "internal_node_id": "0.0-55.0-0.0", "time_elapsed": 364675, "key_press": -1, "type": "PRE_RECALL_DELAY", "trial_index": 73}, "uniqueid": "MTK2794:31UV0MXWNRJEI6OTAUUMJUGSCRZI58", "dateTime": 1519340836539}, {"current_trial": 74, "trialdata": {"rt": -1000, "trial_type": "single-audio", "stimulus": "/static/audio/400Hz.wav", "internal_node_id": "0.0-56.0", "time_elapsed": 365182, "key_press": -1, "type": "PRE_RECALL_ALERT", "trial_index": 74}, "uniqueid": "MTK2794:31UV0MXWNRJEI6OTAUUMJUGSCRZI58", "dateTime": 1519340837045}, {"current_trial": 75, "trialdata": {"rt": [4209, 7057, 9722, 11446, 14010, 16803, 19046, 22751, 25703, 27660, 30193, 32331, 34732, 36273, 39294], "recwords": ["knapsack", "blackboard", "witness", "expert", "flag", "raft", "braces", "turkey", "breast", "dolphin", "pigeon", "cou", "couch", "canyon", "tuba"], "key_times": [2694, 2897, 3043, 3150, 3468, 3683, 3890, 3998, 4209, 4648, 5049, 5188, 5369, 5469, 5646, 5754, 6068, 6480, 6598, 6666, 6943, 7057, 8247, 8321, 8628, 8756, 8936, 9456, 9615, 9722, 10461, 10682, 10749, 10949, 11012, 11241, 11446, 13441, 13582, 13751, 13846, 14010, 15987, 16192, 16348, 16585, 16803, 17101, 17329, 17419, 17803, 17965, 18033, 18210, 18407, 18671, 18883, 19046, 21564, 21718, 21826, 22006, 22408, 22494, 22751, 23088, 23501, 23708, 24122, 24576, 24750, 24928, 25168, 25329, 25548, 25703, 26449, 26576, 26764, 26967, 27166, 27316, 27470, 27660, 28862, 29030, 29219, 29698, 29791, 29944, 30193, 31986, 32040, 32126, 32331, 32426, 33423, 33916, 34023, 34134, 34364, 34491, 34732, 35105, 35322, 35385, 35637, 35795, 35908, 36273, 38565, 38728, 38951, 39165, 39294], "trial_type": "free-recall", "conditions": [18, 1200, "a", 18000], "internal_node_id": "0.0-57.0-0.0", "key_presses": [75, 78, 65, 80, 83, 65, 67, 75, 13, 71, 8, 66, 76, 65, 67, 75, 66, 79, 65, 82, 68, 13, 87, 73, 84, 78, 69, 83, 83, 13, 69, 88, 80, 69, 82, 84, 13, 70, 76, 65, 71, 13, 82, 65, 70, 84, 13, 66, 65, 82, 8, 8, 82, 65, 67, 69, 83, 13, 84, 85, 82, 75, 69, 89, 13, 66, 69, 65, 8, 8, 82, 69, 65, 83, 84, 13, 68, 79, 76, 80, 72, 73, 78, 13, 80, 73, 71, 69, 79, 78, 13, 67, 79, 85, 32, 72, 8, 67, 79, 85, 67, 72, 13, 67, 65, 78, 89, 79, 78, 13, 84, 85, 66, 65, 13], "trial": 1, "time_elapsed": 425192, "type": "FREE_RECALL", "trial_index": 75}, "uniqueid": "MTK2794:31UV0MXWNRJEI6OTAUUMJUGSCRZI58", "dateTime": 1519340897065}, {"current_trial": 76, "trialdata": {"rt": 3766, "trial_type": "text", "internal_node_id": "0.0-58.0", "time_elapsed": 430970, "key_press": 32, "type": "INSTRUCTIONS", "trial_index": 76}, "uniqueid": "MTK2794:31UV0MXWNRJEI6OTAUUMJUGSCRZI58", "dateTime": 1519340902834}, {"current_trial": 77, "trialdata": {"rt": [3591, 5851, 8949, 10991, 14236, 16461, 20240, 22830], "trial_type": "math-distractor", "key_times": [2667, 3302, 3591, 5094, 5448, 5851, 8484, 8705, 8949, 10603, 10779, 10991, 13741, 13950, 14236, 16091, 16228, 16461, 19535, 19791, 20240, 22349, 22553, 22830], "responses": ["12", "18", "14", "12", "20", "11", "16", "14"], "num2": [1, 9, 4, 3, 9, 2, 4, 6, 8], "num3": [6, 8, 8, 7, 8, 8, 3, 3, 9], "conditions": [12, 1600, "a", 24000], "internal_node_id": "0.0-59.0", "key_presses": [97, 98, 13, 97, 104, 13, 97, 100, 13, 97, 98, 13, 98, 96, 13, 97, 97, 13, 97, 102, 13, 97, 100, 13], "trial": 2, "time_elapsed": 455982, "type": "DISTRACTOR", "trial_index": 77, "num1": [5, 1, 2, 2, 3, 1, 9, 5, 6]}, "uniqueid": "MTK2794:31UV0MXWNRJEI6OTAUUMJUGSCRZI58", "dateTime": 1519340927845}, {"current_trial": 78, "trialdata": {"rt": -1, "trial_type": "single-stim", "stimulus": "<p id=\"stim\">10</p>", "internal_node_id": "0.0-60.0-0.0", "time_elapsed": 458988, "key_press": -1, "trial_index": 78}, "uniqueid": "MTK2794:31UV0MXWNRJEI6OTAUUMJUGSCRZI58", "dateTime": 1519340930851}, {"current_trial": 79, "trialdata": {"rt": -1, "trial_type": "single-stim", "stimulus": "<p id=\"stim\">9</p>", "internal_node_id": "0.0-60.0-1.0", "time_elapsed": 459992, "key_press": -1, "trial_index": 79}, "uniqueid": "MTK2794:31UV0MXWNRJEI6OTAUUMJUGSCRZI58", "dateTime": 1519340931856}, {"current_trial": 80, "trialdata": {"rt": -1, "trial_type": "single-stim", "stimulus": "<p id=\"stim\">8</p>", "internal_node_id": "0.0-60.0-2.0", "time_elapsed": 460996, "key_press": -1, "trial_index": 80}, "uniqueid": "MTK2794:31UV0MXWNRJEI6OTAUUMJUGSCRZI58", "dateTime": 1519340932859}, {"current_trial": 81, "trialdata": {"rt": -1, "trial_type": "single-stim", "stimulus": "<p id=\"stim\">7</p>", "internal_node_id": "0.0-60.0-3.0", "time_elapsed": 461999, "key_press": -1, "trial_index": 81}, "uniqueid": "MTK2794:31UV0MXWNRJEI6OTAUUMJUGSCRZI58", "dateTime": 1519340933862}, {"current_trial": 82, "trialdata": {"rt": -1, "trial_type": "single-stim", "stimulus": "<p id=\"stim\">6</p>", "internal_node_id": "0.0-60.0-4.0", "time_elapsed": 463003, "key_press": -1, "trial_index": 82}, "uniqueid": "MTK2794:31UV0MXWNRJEI6OTAUUMJUGSCRZI58", "dateTime": 1519340934867}, {"current_trial": 83, "trialdata": {"rt": -1, "trial_type": "single-stim", "stimulus": "<p id=\"stim\">5</p>", "internal_node_id": "0.0-60.0-5.0", "time_elapsed": 464009, "key_press": -1, "trial_index": 83}, "uniqueid": "MTK2794:31UV0MXWNRJEI6OTAUUMJUGSCRZI58", "dateTime": 1519340935872}, {"current_trial": 84, "trialdata": {"rt": -1, "trial_type": "single-stim", "stimulus": "<p id=\"stim\">4</p>", "internal_node_id": "0.0-60.0-6.0", "time_elapsed": 465018, "key_press": -1, "trial_index": 84}, "uniqueid": "MTK2794:31UV0MXWNRJEI6OTAUUMJUGSCRZI58", "dateTime": 1519340936881}, {"current_trial": 85, "trialdata": {"rt": -1, "trial_type": "single-stim", "stimulus": "<p id=\"stim\">3</p>", "internal_node_id": "0.0-60.0-7.0", "time_elapsed": 466022, "key_press": -1, "trial_index": 85}, "uniqueid": "MTK2794:31UV0MXWNRJEI6OTAUUMJUGSCRZI58", "dateTime": 1519340937886}, {"current_trial": 86, "trialdata": {"rt": -1, "trial_type": "single-stim", "stimulus": "<p id=\"stim\">2</p>", "internal_node_id": "0.0-60.0-8.0", "time_elapsed": 467025, "key_press": -1, "trial_index": 86}, "uniqueid": "MTK2794:31UV0MXWNRJEI6OTAUUMJUGSCRZI58", "dateTime": 1519340938888}, {"current_trial": 87, "trialdata": {"rt": -1, "trial_type": "single-stim", "stimulus": "<p id=\"stim\">1</p>", "internal_node_id": "0.0-60.0-9.0", "time_elapsed": 468027, "key_press": -1, "trial_index": 87}, "uniqueid": "MTK2794:31UV0MXWNRJEI6OTAUUMJUGSCRZI58", "dateTime": 1519340939890}, {"current_trial": 88, "trialdata": {"rt": -1, "trial_type": "single-stim", "stimulus": "<p id=\"stim\">+</p>", "internal_node_id": "0.0-61.0-0.0", "time_elapsed": 469529, "key_press": -1, "type": "FIXATION", "trial_index": 88}, "uniqueid": "MTK2794:31UV0MXWNRJEI6OTAUUMJUGSCRZI58", "dateTime": 1519340941392}, {"current_trial": 89, "trialdata": {"rt": -1000, "trial_type": "single-audio", "word": "bouquet", "stimulus": "/static/audio/wordpool/BOUQUET.wav", "conditions": [12, 1600, "a", 24000], "internal_node_id": "0.0-62.0", "trial": 2, "time_elapsed": 472133, "serialpos": 0, "key_press": -1, "wordID": 156, "type": "PRES_AUD", "trial_index": 89}, "uniqueid": "MTK2794:31UV0MXWNRJEI6OTAUUMJUGSCRZI58", "dateTime": 1519340943996}, {"current_trial": 90, "trialdata": {"rt": -1000, "trial_type": "single-audio", "word": "badge", "stimulus": "/static/audio/wordpool/BADGE.wav", "conditions": [12, 1600, "a", 24000], "internal_node_id": "0.0-63.0", "trial": 2, "time_elapsed": 474846, "serialpos": 1, "key_press": -1, "wordID": 67, "type": "PRES_AUD", "trial_index": 90}, "uniqueid": "MTK2794:31UV0MXWNRJEI6OTAUUMJUGSCRZI58", "dateTime": 1519340946709}, {"current_trial": 91, "trialdata": {"rt": -1000, "trial_type": "single-audio", "word": "daisy", "stimulus": "/static/audio/wordpool/DAISY.wav", "conditions": [12, 1600, "a", 24000], "internal_node_id": "0.0-64.0", "trial": 2, "time_elapsed": 477548, "serialpos": 2, "key_press": -1, "wordID": 434, "type": "PRES_AUD", "trial_index": 91}, "uniqueid": "MTK2794:31UV0MXWNRJEI6OTAUUMJUGSCRZI58", "dateTime": 1519340949411}, {"current_trial": 92, "trialdata": {"rt": -1000, "trial_type": "single-audio", "word": "drawing", "stimulus": "/static/audio/wordpool/DRAWING.wav", "conditions": [12, 1600, "a", 24000], "internal_node_id": "0.0-65.0", "trial": 2, "time_elapsed": 480075, "serialpos": 3, "key_press": -1, "wordID": 493, "type": "PRES_AUD", "trial_index": 92}, "uniqueid": "MTK2794:31UV0MXWNRJEI6OTAUUMJUGSCRZI58", "dateTime": 1519340951939}, {"current_trial": 93, "trialdata": {"rt": -1000, "trial_type": "single-audio", "word": "trench", "stimulus": "/static/audio/wordpool/TRENCH.wav", "conditions": [12, 1600, "a", 24000], "internal_node_id": "0.0-66.0", "trial": 2, "time_elapsed": 482638, "serialpos": 4, "key_press": -1, "wordID": 1502, "type": "PRES_AUD", "trial_index": 93}, "uniqueid": "MTK2794:31UV0MXWNRJEI6OTAUUMJUGSCRZI58", "dateTime": 1519340954501}, {"current_trial": 94, "trialdata": {"rt": -1000, "trial_type": "single-audio", "word": "parrot", "stimulus": "/static/audio/wordpool/PARROT.wav", "conditions": [12, 1600, "a", 24000], "internal_node_id": "0.0-67.0", "trial": 2, "time_elapsed": 485098, "serialpos": 5, "key_press": -1, "wordID": 1014, "type": "PRES_AUD", "trial_index": 94}, "uniqueid": "MTK2794:31UV0MXWNRJEI6OTAUUMJUGSCRZI58", "dateTime": 1519340956961}, {"current_trial": 95, "trialdata": {"rt": -1000, "trial_type": "single-audio", "word": "rooster", "stimulus": "/static/audio/wordpool/ROOSTER.wav", "conditions": [12, 1600, "a", 24000], "internal_node_id": "0.0-68.0", "trial": 2, "time_elapsed": 487579, "serialpos": 6, "key_press": -1, "wordID": 1208, "type": "PRES_AUD", "trial_index": 95}, "uniqueid": "MTK2794:31UV0MXWNRJEI6OTAUUMJUGSCRZI58", "dateTime": 1519340959442}, {"current_trial": 96, "trialdata": {"rt": -1000, "trial_type": "single-audio", "word": "beaver", "stimulus": "/static/audio/wordpool/BEAVER.wav", "conditions": [12, 1600, "a", 24000], "internal_node_id": "0.0-69.0", "trial": 2, "time_elapsed": 489993, "serialpos": 7, "key_press": -1, "wordID": 108, "type": "PRES_AUD", "trial_index": 96}, "uniqueid": "MTK2794:31UV0MXWNRJEI6OTAUUMJUGSCRZI58", "dateTime": 1519340961857}, {"current_trial": 97, "trialdata": {"rt": -1000, "trial_type": "single-audio", "word": "sticker", "stimulus": "/static/audio/wordpool/STICKER.wav", "conditions": [12, 1600, "a", 24000], "internal_node_id": "0.0-70.0", "trial": 2, "time_elapsed": 492489, "serialpos": 8, "key_press": -1, "wordID": 1381, "type": "PRES_AUD", "trial_index": 97}, "uniqueid": "MTK2794:31UV0MXWNRJEI6OTAUUMJUGSCRZI58", "dateTime": 1519340964352}, {"current_trial": 98, "trialdata": {"rt": -1000, "trial_type": "single-audio", "word": "popcorn", "stimulus": "/static/audio/wordpool/POPCORN.wav", "conditions": [12, 1600, "a", 24000], "internal_node_id": "0.0-71.0", "trial": 2, "time_elapsed": 495123, "serialpos": 9, "key_press": -1, "wordID": 1103, "type": "PRES_AUD", "trial_index": 98}, "uniqueid": "MTK2794:31UV0MXWNRJEI6OTAUUMJUGSCRZI58", "dateTime": 1519340966987}, {"current_trial": 99, "trialdata": {"rt": -1000, "trial_type": "single-audio", "word": "powder", "stimulus": "/static/audio/wordpool/POWDER.wav", "conditions": [12, 1600, "a", 24000], "internal_node_id": "0.0-72.0", "trial": 2, "time_elapsed": 497768, "serialpos": 10, "key_press": -1, "wordID": 1116, "type": "PRES_AUD", "trial_index": 99}, "uniqueid": "MTK2794:31UV0MXWNRJEI6OTAUUMJUGSCRZI58", "dateTime": 1519340969632}, {"current_trial": 100, "trialdata": {"rt": -1000, "trial_type": "single-audio", "word": "pigment", "stimulus": "/static/audio/wordpool/PIGMENT.wav", "conditions": [12, 1600, "a", 24000], "internal_node_id": "0.0-73.0", "trial": 2, "time_elapsed": 500420, "serialpos": 11, "key_press": -1, "wordID": 1065, "type": "PRES_AUD", "trial_index": 100}, "uniqueid": "MTK2794:31UV0MXWNRJEI6OTAUUMJUGSCRZI58", "dateTime": 1519340972284}, {"current_trial": 101, "trialdata": {"rt": -1, "trial_type": "single-stim", "stimulus": "", "internal_node_id": "0.0-74.0-0.0", "time_elapsed": 501718, "key_press": -1, "type": "PRE_RECALL_DELAY", "trial_index": 101}, "uniqueid": "MTK2794:31UV0MXWNRJEI6OTAUUMJUGSCRZI58", "dateTime": 1519340973581}, {"current_trial": 102, "trialdata": {"rt": -1000, "trial_type": "single-audio", "stimulus": "/static/audio/400Hz.wav", "internal_node_id": "0.0-75.0", "time_elapsed": 502221, "key_press": -1, "type": "PRE_RECALL_ALERT", "trial_index": 102}, "uniqueid": "MTK2794:31UV0MXWNRJEI6OTAUUMJUGSCRZI58", "dateTime": 1519340974085}, {"current_trial": 103, "trialdata": {"rt": [4513, 6826, 10793, 13217, 14860, 15979, 18171, 21768, 23462], "recwords": ["pigment", "powder", "popcorn", "sticker", "rooster", "parrot", "trench", "daisy", "badge"], "key_times": [3007, 3178, 3421, 3579, 3719, 3816, 4204, 4513, 5278, 5465, 5884, 6119, 6313, 6394, 6826, 8153, 8351, 9273, 9659, 9868, 10093, 10197, 10400, 10554, 10793, 11807, 12049, 12190, 12493, 12595, 12741, 12812, 13217, 14000, 14097, 14249, 14344, 14544, 14682, 14758, 14860, 15157, 15274, 15425, 15571, 15680, 15806, 15979, 17041, 17225, 17481, 17604, 17823, 17908, 18171, 20271, 21004, 21147, 21259, 21478, 21768, 22503, 22677, 22849, 23048, 23209, 23462], "trial_type": "free-recall", "conditions": [12, 1600, "a", 24000], "internal_node_id": "0.0-76.0-0.0", "key_presses": [80, 73, 71, 77, 69, 78, 84, 13, 80, 79, 87, 68, 69, 82, 13, 80, 73, 8, 79, 80, 67, 79, 82, 78, 13, 83, 84, 73, 67, 75, 69, 82, 13, 82, 79, 79, 83, 84, 69, 82, 13, 80, 65, 82, 82, 79, 84, 13, 84, 82, 69, 78, 67, 72, 13, 68, 65, 73, 83, 89, 13, 66, 65, 68, 71, 69, 13], "trial": 2, "time_elapsed": 562228, "type": "FREE_RECALL", "trial_index": 103}, "uniqueid": "MTK2794:31UV0MXWNRJEI6OTAUUMJUGSCRZI58", "dateTime": 1519341034107}, {"current_trial": 104, "trialdata": {"rt": 1807, "trial_type": "text", "internal_node_id": "0.0-77.0", "time_elapsed": 566054, "key_press": 32, "type": "INSTRUCTIONS", "trial_index": 104}, "uniqueid": "MTK2794:31UV0MXWNRJEI6OTAUUMJUGSCRZI58", "dateTime": 1519341037917}, {"current_trial": 105, "trialdata": {"rt": [3726, 7619, 10045], "trial_type": "math-distractor", "key_times": [3322, 3527, 3726, 7176, 7371, 7619, 9525, 9724, 10045], "responses": ["14", "21", "16"], "num2": [5, 9, 7, 6], "num3": [2, 5, 4, 5], "conditions": [12, 1600, "a", 12000], "internal_node_id": "0.0-78.0", "key_presses": [97, 100, 13, 98, 97, 13, 97, 102, 13], "trial": 3, "time_elapsed": 580065, "type": "DISTRACTOR", "trial_index": 105, "num1": [7, 7, 5, 1]}, "uniqueid": "MTK2794:31UV0MXWNRJEI6OTAUUMJUGSCRZI58", "dateTime": 1519341051929}, {"current_trial": 106, "trialdata": {"rt": -1, "trial_type": "single-stim", "stimulus": "<p id=\"stim\">10</p>", "internal_node_id": "0.0-79.0-0.0", "time_elapsed": 583071, "key_press": -1, "trial_index": 106}, "uniqueid": "MTK2794:31UV0MXWNRJEI6OTAUUMJUGSCRZI58", "dateTime": 1519341054934}, {"current_trial": 107, "trialdata": {"rt": -1, "trial_type": "single-stim", "stimulus": "<p id=\"stim\">9</p>", "internal_node_id": "0.0-79.0-1.0", "time_elapsed": 584075, "key_press": -1, "trial_index": 107}, "uniqueid": "MTK2794:31UV0MXWNRJEI6OTAUUMJUGSCRZI58", "dateTime": 1519341055938}, {"current_trial": 108, "trialdata": {"rt": -1, "trial_type": "single-stim", "stimulus": "<p id=\"stim\">8</p>", "internal_node_id": "0.0-79.0-2.0", "time_elapsed": 585078, "key_press": -1, "trial_index": 108}, "uniqueid": "MTK2794:31UV0MXWNRJEI6OTAUUMJUGSCRZI58", "dateTime": 1519341056941}, {"current_trial": 109, "trialdata": {"rt": -1, "trial_type": "single-stim", "stimulus": "<p id=\"stim\">7</p>", "internal_node_id": "0.0-79.0-3.0", "time_elapsed": 586080, "key_press": -1, "trial_index": 109}, "uniqueid": "MTK2794:31UV0MXWNRJEI6OTAUUMJUGSCRZI58", "dateTime": 1519341057944}, {"current_trial": 110, "trialdata": {"rt": -1, "trial_type": "single-stim", "stimulus": "<p id=\"stim\">6</p>", "internal_node_id": "0.0-79.0-4.0", "time_elapsed": 587085, "key_press": -1, "trial_index": 110}, "uniqueid": "MTK2794:31UV0MXWNRJEI6OTAUUMJUGSCRZI58", "dateTime": 1519341058948}, {"current_trial": 111, "trialdata": {"rt": -1, "trial_type": "single-stim", "stimulus": "<p id=\"stim\">5</p>", "internal_node_id": "0.0-79.0-5.0", "time_elapsed": 588089, "key_press": -1, "trial_index": 111}, "uniqueid": "MTK2794:31UV0MXWNRJEI6OTAUUMJUGSCRZI58", "dateTime": 1519341059953}, {"current_trial": 112, "trialdata": {"rt": -1, "trial_type": "single-stim", "stimulus": "<p id=\"stim\">4</p>", "internal_node_id": "0.0-79.0-6.0", "time_elapsed": 589093, "key_press": -1, "trial_index": 112}, "uniqueid": "MTK2794:31UV0MXWNRJEI6OTAUUMJUGSCRZI58", "dateTime": 1519341060956}, {"current_trial": 113, "trialdata": {"rt": -1, "trial_type": "single-stim", "stimulus": "<p id=\"stim\">3</p>", "internal_node_id": "0.0-79.0-7.0", "time_elapsed": 590096, "key_press": -1, "trial_index": 113}, "uniqueid": "MTK2794:31UV0MXWNRJEI6OTAUUMJUGSCRZI58", "dateTime": 1519341061959}, {"current_trial": 114, "trialdata": {"rt": -1, "trial_type": "single-stim", "stimulus": "<p id=\"stim\">2</p>", "internal_node_id": "0.0-79.0-8.0", "time_elapsed": 591100, "key_press": -1, "trial_index": 114}, "uniqueid": "MTK2794:31UV0MXWNRJEI6OTAUUMJUGSCRZI58", "dateTime": 1519341062963}, {"current_trial": 115, "trialdata": {"rt": -1, "trial_type": "single-stim", "stimulus": "<p id=\"stim\">1</p>", "internal_node_id": "0.0-79.0-9.0", "time_elapsed": 592103, "key_press": -1, "trial_index": 115}, "uniqueid": "MTK2794:31UV0MXWNRJEI6OTAUUMJUGSCRZI58", "dateTime": 1519341063967}, {"current_trial": 116, "trialdata": {"rt": -1, "trial_type": "single-stim", "stimulus": "<p id=\"stim\">+</p>", "internal_node_id": "0.0-80.0-0.0", "time_elapsed": 593608, "key_press": -1, "type": "FIXATION", "trial_index": 116}, "uniqueid": "MTK2794:31UV0MXWNRJEI6OTAUUMJUGSCRZI58", "dateTime": 1519341065472}, {"current_trial": 117, "trialdata": {"rt": -1000, "trial_type": "single-audio", "word": "mattress", "stimulus": "/static/audio/wordpool/MATTRESS.wav", "conditions": [12, 1600, "a", 12000], "internal_node_id": "0.0-81.0", "trial": 3, "time_elapsed": 596045, "serialpos": 0, "key_press": -1, "wordID": 878, "type": "PRES_AUD", "trial_index": 117}, "uniqueid": "MTK2794:31UV0MXWNRJEI6OTAUUMJUGSCRZI58", "dateTime": 1519341067908}, {"current_trial": 118, "trialdata": {"rt": -1000, "trial_type": "single-audio", "word": "slime", "stimulus": "/static/audio/wordpool/SLIME.wav", "conditions": [12, 1600, "a", 12000], "internal_node_id": "0.0-82.0", "trial": 3, "time_elapsed": 598560, "serialpos": 1, "key_press": -1, "wordID": 1326, "type": "PRES_AUD", "trial_index": 118}, "uniqueid": "MTK2794:31UV0MXWNRJEI6OTAUUMJUGSCRZI58", "dateTime": 1519341070423}, {"current_trial": 119, "trialdata": {"rt": -1000, "trial_type": "single-audio", "word": "monster", "stimulus": "/static/audio/wordpool/MONSTER.wav", "conditions": [12, 1600, "a", 12000], "internal_node_id": "0.0-83.0", "trial": 3, "time_elapsed": 601273, "serialpos": 2, "key_press": -1, "wordID": 911, "type": "PRES_AUD", "trial_index": 119}, "uniqueid": "MTK2794:31UV0MXWNRJEI6OTAUUMJUGSCRZI58", "dateTime": 1519341073136}, {"current_trial": 120, "trialdata": {"rt": -1000, "trial_type": "single-audio", "word": "radish", "stimulus": "/static/audio/wordpool/RADISH.wav", "conditions": [12, 1600, "a", 12000], "internal_node_id": "0.0-84.0", "trial": 3, "time_elapsed": 603950, "serialpos": 3, "key_press": -1, "wordID": 1157, "type": "PRES_AUD", "trial_index": 120}, "uniqueid": "MTK2794:31UV0MXWNRJEI6OTAUUMJUGSCRZI58", "dateTime": 1519341075813}, {"current_trial": 121, "trialdata": {"rt": -1000, "trial_type": "single-audio", "word": "pimple", "stimulus": "/static/audio/wordpool/PIMPLE.wav", "conditions": [12, 1600, "a", 12000], "internal_node_id": "0.0-85.0", "trial": 3, "time_elapsed": 606434, "serialpos": 4, "key_press": -1, "wordID": 1070, "type": "PRES_AUD", "trial_index": 121}, "uniqueid": "MTK2794:31UV0MXWNRJEI6OTAUUMJUGSCRZI58", "dateTime": 1519341078297}, {"current_trial": 122, "trialdata": {"rt": -1000, "trial_type": "single-audio", "word": "airplane", "stimulus": "/static/audio/wordpool/AIRPLANE.wav", "conditions": [12, 1600, "a", 12000], "internal_node_id": "0.0-86.0", "trial": 3, "time_elapsed": 609049, "serialpos": 5, "key_press": -1, "wordID": 11, "type": "PRES_AUD", "trial_index": 122}, "uniqueid": "MTK2794:31UV0MXWNRJEI6OTAUUMJUGSCRZI58", "dateTime": 1519341080913}, {"current_trial": 123, "trialdata": {"rt": -1000, "trial_type": "single-audio", "word": "daughter", "stimulus": "/static/audio/wordpool/DAUGHTER.wav", "conditions": [12, 1600, "a", 12000], "internal_node_id": "0.0-87.0", "trial": 3, "time_elapsed": 611726, "serialpos": 6, "key_press": -1, "wordID": 441, "type": "PRES_AUD", "trial_index": 123}, "uniqueid": "MTK2794:31UV0MXWNRJEI6OTAUUMJUGSCRZI58", "dateTime": 1519341083589}, {"current_trial": 124, "trialdata": {"rt": -1000, "trial_type": "single-audio", "word": "girl", "stimulus": "/static/audio/wordpool/GIRL.wav", "conditions": [12, 1600, "a", 12000], "internal_node_id": "0.0-88.0", "trial": 3, "time_elapsed": 614392, "serialpos": 7, "key_press": -1, "wordID": 636, "type": "PRES_AUD", "trial_index": 124}, "uniqueid": "MTK2794:31UV0MXWNRJEI6OTAUUMJUGSCRZI58", "dateTime": 1519341086256}, {"current_trial": 125, "trialdata": {"rt": -1000, "trial_type": "single-audio", "word": "silk", "stimulus": "/static/audio/wordpool/SILK.wav", "conditions": [12, 1600, "a", 12000], "internal_node_id": "0.0-89.0", "trial": 3, "time_elapsed": 616873, "serialpos": 8, "key_press": -1, "wordID": 1306, "type": "PRES_AUD", "trial_index": 125}, "uniqueid": "MTK2794:31UV0MXWNRJEI6OTAUUMJUGSCRZI58", "dateTime": 1519341088736}, {"current_trial": 126, "trialdata": {"rt": -1000, "trial_type": "single-audio", "word": "supper", "stimulus": "/static/audio/wordpool/SUPPER.wav", "conditions": [12, 1600, "a", 12000], "internal_node_id": "0.0-90.0", "trial": 3, "time_elapsed": 619452, "serialpos": 9, "key_press": -1, "wordID": 1410, "type": "PRES_AUD", "trial_index": 126}, "uniqueid": "MTK2794:31UV0MXWNRJEI6OTAUUMJUGSCRZI58", "dateTime": 1519341091315}, {"current_trial": 127, "trialdata": {"rt": -1000, "trial_type": "single-audio", "word": "freckle", "stimulus": "/static/audio/wordpool/FRECKLE.wav", "conditions": [12, 1600, "a", 12000], "internal_node_id": "0.0-91.0", "trial": 3, "time_elapsed": 621935, "serialpos": 10, "key_press": -1, "wordID": 601, "type": "PRES_AUD", "trial_index": 127}, "uniqueid": "MTK2794:31UV0MXWNRJEI6OTAUUMJUGSCRZI58", "dateTime": 1519341093799}, {"current_trial": 128, "trialdata": {"rt": -1000, "trial_type": "single-audio", "word": "soda", "stimulus": "/static/audio/wordpool/SODA.wav", "conditions": [12, 1600, "a", 12000], "internal_node_id": "0.0-92.0", "trial": 3, "time_elapsed": 624389, "serialpos": 11, "key_press": -1, "wordID": 1340, "type": "PRES_AUD", "trial_index": 128}, "uniqueid": "MTK2794:31UV0MXWNRJEI6OTAUUMJUGSCRZI58", "dateTime": 1519341096253}, {"current_trial": 129, "trialdata": {"rt": -1, "trial_type": "single-stim", "stimulus": "", "internal_node_id": "0.0-93.0-0.0", "time_elapsed": 625775, "key_press": -1, "type": "PRE_RECALL_DELAY", "trial_index": 129}, "uniqueid": "MTK2794:31UV0MXWNRJEI6OTAUUMJUGSCRZI58", "dateTime": 1519341097639}, {"current_trial": 130, "trialdata": {"rt": -1000, "trial_type": "single-audio", "stimulus": "/static/audio/400Hz.wav", "internal_node_id": "0.0-94.0", "time_elapsed": 626280, "key_press": -1, "type": "PRE_RECALL_ALERT", "trial_index": 130}, "uniqueid": "MTK2794:31UV0MXWNRJEI6OTAUUMJUGSCRZI58", "dateTime": 1519341098143}, {"current_trial": 131, "trialdata": {"rt": [4698, 7393, 8859, 11020, 12727, 14929, 16848, 19689, 22124], "recwords": ["soda", "freckle", "supper", "girl", "daughter", "monster", "airplane", "mattress", "slime"], "key_times": [2769, 2932, 3059, 3258, 3939, 4115, 4251, 4436, 4698, 5849, 6038, 6203, 6427, 6502, 6703, 6935, 7393, 7614, 7702, 7921, 8109, 8493, 8580, 8859, 10333, 10452, 10653, 10803, 11020, 11410, 11609, 11709, 11854, 11983, 12069, 12232, 12302, 12727, 13800, 13958, 14089, 14305, 14500, 14655, 14728, 14929, 15343, 15493, 15621, 15838, 16050, 16153, 16310, 16595, 16848, 17576, 18024, 18276, 18374, 18631, 18787, 18959, 19127, 19372, 19524, 19689, 20498, 20590, 20791, 20947, 21080, 22124], "trial_type": "free-recall", "conditions": [12, 1600, "a", 12000], "internal_node_id": "0.0-95.0-0.0", "key_presses": [83, 79, 65, 68, 8, 8, 68, 65, 13, 70, 82, 69, 67, 75, 76, 69, 13, 83, 85, 80, 80, 69, 82, 13, 71, 73, 82, 76, 13, 68, 65, 85, 71, 72, 84, 69, 82, 13, 77, 79, 78, 83, 84, 69, 82, 13, 65, 73, 82, 80, 76, 65, 78, 69, 13, 83, 8, 77, 65, 84, 84, 82, 69, 83, 83, 13, 83, 76, 73, 77, 69, 13], "trial": 3, "time_elapsed": 686289, "type": "FREE_RECALL", "trial_index": 131}, "uniqueid": "MTK2794:31UV0MXWNRJEI6OTAUUMJUGSCRZI58", "dateTime": 1519341158168}, {"current_trial": 132, "trialdata": {"rt": 3507, "trial_type": "text", "internal_node_id": "0.0-96.0", "time_elapsed": 691815, "key_press": 32, "type": "INSTRUCTIONS", "trial_index": 132}, "uniqueid": "MTK2794:31UV0MXWNRJEI6OTAUUMJUGSCRZI58", "dateTime": 1519341163678}, {"current_trial": 133, "trialdata": {"rt": [2969, 5365, 8674, 11884], "trial_type": "math-distractor", "key_times": [2514, 2693, 2969, 4913, 5113, 5365, 8002, 8360, 8674, 10954, 11483, 11884], "responses": ["16", "15", "17", "17"], "num2": [3, 3, 6, 6, 6], "num3": [5, 6, 9, 3, 3], "conditions": [24, 800, "a", 12000], "internal_node_id": "0.0-97.0", "key_presses": [97, 102, 13, 97, 101, 13, 97, 103, 13, 97, 103, 13], "trial": 4, "time_elapsed": 705828, "type": "DISTRACTOR", "trial_index": 133, "num1": [8, 6, 2, 8, 1]}, "uniqueid": "MTK2794:31UV0MXWNRJEI6OTAUUMJUGSCRZI58", "dateTime": 1519341177692}, {"current_trial": 134, "trialdata": {"rt": -1, "trial_type": "single-stim", "stimulus": "<p id=\"stim\">10</p>", "internal_node_id": "0.0-98.0-0.0", "time_elapsed": 708833, "key_press": -1, "trial_index": 134}, "uniqueid": "MTK2794:31UV0MXWNRJEI6OTAUUMJUGSCRZI58", "dateTime": 1519341180697}, {"current_trial": 135, "trialdata": {"rt": -1, "trial_type": "single-stim", "stimulus": "<p id=\"stim\">9</p>", "internal_node_id": "0.0-98.0-1.0", "time_elapsed": 709838, "key_press": -1, "trial_index": 135}, "uniqueid": "MTK2794:31UV0MXWNRJEI6OTAUUMJUGSCRZI58", "dateTime": 1519341181702}, {"current_trial": 136, "trialdata": {"rt": -1, "trial_type": "single-stim", "stimulus": "<p id=\"stim\">8</p>", "internal_node_id": "0.0-98.0-2.0", "time_elapsed": 710842, "key_press": -1, "trial_index": 136}, "uniqueid": "MTK2794:31UV0MXWNRJEI6OTAUUMJUGSCRZI58", "dateTime": 1519341182706}, {"current_trial": 137, "trialdata": {"rt": -1, "trial_type": "single-stim", "stimulus": "<p id=\"stim\">7</p>", "internal_node_id": "0.0-98.0-3.0", "time_elapsed": 711846, "key_press": -1, "trial_index": 137}, "uniqueid": "MTK2794:31UV0MXWNRJEI6OTAUUMJUGSCRZI58", "dateTime": 1519341183709}, {"current_trial": 138, "trialdata": {"rt": -1, "trial_type": "single-stim", "stimulus": "<p id=\"stim\">6</p>", "internal_node_id": "0.0-98.0-4.0", "time_elapsed": 712849, "key_press": -1, "trial_index": 138}, "uniqueid": "MTK2794:31UV0MXWNRJEI6OTAUUMJUGSCRZI58", "dateTime": 1519341184712}, {"current_trial": 139, "trialdata": {"rt": -1, "trial_type": "single-stim", "stimulus": "<p id=\"stim\">5</p>", "internal_node_id": "0.0-98.0-5.0", "time_elapsed": 713854, "key_press": -1, "trial_index": 139}, "uniqueid": "MTK2794:31UV0MXWNRJEI6OTAUUMJUGSCRZI58", "dateTime": 1519341185717}, {"current_trial": 140, "trialdata": {"rt": -1, "trial_type": "single-stim", "stimulus": "<p id=\"stim\">4</p>", "internal_node_id": "0.0-98.0-6.0", "time_elapsed": 714858, "key_press": -1, "trial_index": 140}, "uniqueid": "MTK2794:31UV0MXWNRJEI6OTAUUMJUGSCRZI58", "dateTime": 1519341186721}, {"current_trial": 141, "trialdata": {"rt": -1, "trial_type": "single-stim", "stimulus": "<p id=\"stim\">3</p>", "internal_node_id": "0.0-98.0-7.0", "time_elapsed": 715861, "key_press": -1, "trial_index": 141}, "uniqueid": "MTK2794:31UV0MXWNRJEI6OTAUUMJUGSCRZI58", "dateTime": 1519341187725}, {"current_trial": 142, "trialdata": {"rt": -1, "trial_type": "single-stim", "stimulus": "<p id=\"stim\">2</p>", "internal_node_id": "0.0-98.0-8.0", "time_elapsed": 716866, "key_press": -1, "trial_index": 142}, "uniqueid": "MTK2794:31UV0MXWNRJEI6OTAUUMJUGSCRZI58", "dateTime": 1519341188729}, {"current_trial": 143, "trialdata": {"rt": -1, "trial_type": "single-stim", "stimulus": "<p id=\"stim\">1</p>", "internal_node_id": "0.0-98.0-9.0", "time_elapsed": 717870, "key_press": -1, "trial_index": 143}, "uniqueid": "MTK2794:31UV0MXWNRJEI6OTAUUMJUGSCRZI58", "dateTime": 1519341189734}, {"current_trial": 144, "trialdata": {"rt": -1, "trial_type": "single-stim", "stimulus": "<p id=\"stim\">+</p>", "internal_node_id": "0.0-99.0-0.0", "time_elapsed": 719374, "key_press": -1, "type": "FIXATION", "trial_index": 144}, "uniqueid": "MTK2794:31UV0MXWNRJEI6OTAUUMJUGSCRZI58", "dateTime": 1519341191242}, {"current_trial": 145, "trialdata": {"rt": -1000, "trial_type": "single-audio", "word": "market", "stimulus": "/static/audio/wordpool/MARKET.wav", "conditions": [24, 800, "a", 12000], "internal_node_id": "0.0-100.0", "trial": 4, "time_elapsed": 721277, "serialpos": 0, "key_press": -1, "wordID": 870, "type": "PRES_AUD", "trial_index": 145}, "uniqueid": "MTK2794:31UV0MXWNRJEI6OTAUUMJUGSCRZI58", "dateTime": 1519341193140}, {"current_trial": 146, "trialdata": {"rt": -1000, "trial_type": "single-audio", "word": "teacher", "stimulus": "/static/audio/wordpool/TEACHER.wav", "conditions": [24, 800, "a", 12000], "internal_node_id": "0.0-101.0", "trial": 4, "time_elapsed": 722995, "serialpos": 1, "key_press": -1, "wordID": 1439, "type": "PRES_AUD", "trial_index": 146}, "uniqueid": "MTK2794:31UV0MXWNRJEI6OTAUUMJUGSCRZI58", "dateTime": 1519341194859}, {"current_trial": 147, "trialdata": {"rt": -1000, "trial_type": "single-audio", "word": "student", "stimulus": "/static/audio/wordpool/STUDENT.wav", "conditions": [24, 800, "a", 12000], "internal_node_id": "0.0-102.0", "trial": 4, "time_elapsed": 724809, "serialpos": 2, "key_press": -1, "wordID": 1394, "type": "PRES_AUD", "trial_index": 147}, "uniqueid": "MTK2794:31UV0MXWNRJEI6OTAUUMJUGSCRZI58", "dateTime": 1519341196673}, {"current_trial": 148, "trialdata": {"rt": -1000, "trial_type": "single-audio", "word": "queen", "stimulus": "/static/audio/wordpool/QUEEN.wav", "conditions": [24, 800, "a", 12000], "internal_node_id": "0.0-103.0", "trial": 4, "time_elapsed": 726549, "serialpos": 3, "key_press": -1, "wordID": 1148, "type": "PRES_AUD", "trial_index": 148}, "uniqueid": "MTK2794:31UV0MXWNRJEI6OTAUUMJUGSCRZI58", "dateTime": 1519341198412}, {"current_trial": 149, "trialdata": {"rt": -1000, "trial_type": "single-audio", "word": "costume", "stimulus": "/static/audio/wordpool/COSTUME.wav", "conditions": [24, 800, "a", 12000], "internal_node_id": "0.0-104.0", "trial": 4, "time_elapsed": 728299, "serialpos": 4, "key_press": -1, "wordID": 382, "type": "PRES_AUD", "trial_index": 149}, "uniqueid": "MTK2794:31UV0MXWNRJEI6OTAUUMJUGSCRZI58", "dateTime": 1519341200163}, {"current_trial": 150, "trialdata": {"rt": -1000, "trial_type": "single-audio", "word": "tweezers", "stimulus": "/static/audio/wordpool/TWEEZERS.wav", "conditions": [24, 800, "a", 12000], "internal_node_id": "0.0-105.0", "trial": 4, "time_elapsed": 730162, "serialpos": 5, "key_press": -1, "wordID": 1525, "type": "PRES_AUD", "trial_index": 150}, "uniqueid": "MTK2794:31UV0MXWNRJEI6OTAUUMJUGSCRZI58", "dateTime": 1519341202026}, {"current_trial": 151, "trialdata": {"rt": -1000, "trial_type": "single-audio", "word": "blade", "stimulus": "/static/audio/wordpool/BLADE.wav", "conditions": [24, 800, "a", 12000], "internal_node_id": "0.0-106.0", "trial": 4, "time_elapsed": 731808, "serialpos": 6, "key_press": -1, "wordID": 133, "type": "PRES_AUD", "trial_index": 151}, "uniqueid": "MTK2794:31UV0MXWNRJEI6OTAUUMJUGSCRZI58", "dateTime": 1519341203672}, {"current_trial": 152, "trialdata": {"rt": -1000, "trial_type": "single-audio", "word": "scarecrow", "stimulus": "/static/audio/wordpool/SCARECROW.wav", "conditions": [24, 800, "a", 12000], "internal_node_id": "0.0-107.0", "trial": 4, "time_elapsed": 733533, "serialpos": 7, "key_press": -1, "wordID": 1244, "type": "PRES_AUD", "trial_index": 152}, "uniqueid": "MTK2794:31UV0MXWNRJEI6OTAUUMJUGSCRZI58", "dateTime": 1519341205396}, {"current_trial": 153, "trialdata": {"rt": -1000, "trial_type": "single-audio", "word": "world", "stimulus": "/static/audio/wordpool/WORLD.wav", "conditions": [24, 800, "a", 12000], "internal_node_id": "0.0-108.0", "trial": 4, "time_elapsed": 735172, "serialpos": 8, "key_press": -1, "wordID": 1621, "type": "PRES_AUD", "trial_index": 153}, "uniqueid": "MTK2794:31UV0MXWNRJEI6OTAUUMJUGSCRZI58", "dateTime": 1519341207036}, {"current_trial": 154, "trialdata": {"rt": -1000, "trial_type": "single-audio", "word": "perfume", "stimulus": "/static/audio/wordpool/PERFUME.wav", "conditions": [24, 800, "a", 12000], "internal_node_id": "0.0-109.0", "trial": 4, "time_elapsed": 736950, "serialpos": 9, "key_press": -1, "wordID": 1048, "type": "PRES_AUD", "trial_index": 154}, "uniqueid": "MTK2794:31UV0MXWNRJEI6OTAUUMJUGSCRZI58", "dateTime": 1519341208814}, {"current_trial": 155, "trialdata": {"rt": -1000, "trial_type": "single-audio", "word": "parsley", "stimulus": "/static/audio/wordpool/PARSLEY.wav", "conditions": [24, 800, "a", 12000], "internal_node_id": "0.0-110.0", "trial": 4, "time_elapsed": 738588, "serialpos": 10, "key_press": -1, "wordID": 1015, "type": "PRES_AUD", "trial_index": 155}, "uniqueid": "MTK2794:31UV0MXWNRJEI6OTAUUMJUGSCRZI58", "dateTime": 1519341210452}, {"current_trial": 156, "trialdata": {"rt": -1000, "trial_type": "single-audio", "word": "elbow", "stimulus": "/static/audio/wordpool/ELBOW.wav", "conditions": [24, 800, "a", 12000], "internal_node_id": "0.0-111.0", "trial": 4, "time_elapsed": 740408, "serialpos": 11, "key_press": -1, "wordID": 519, "type": "PRES_AUD", "trial_index": 156}, "uniqueid": "MTK2794:31UV0MXWNRJEI6OTAUUMJUGSCRZI58", "dateTime": 1519341212272}, {"current_trial": 157, "trialdata": {"rt": -1000, "trial_type": "single-audio", "word": "cyclone", "stimulus": "/static/audio/wordpool/CYCLONE.wav", "conditions": [24, 800, "a", 12000], "internal_node_id": "0.0-112.0", "trial": 4, "time_elapsed": 742238, "serialpos": 12, "key_press": -1, "wordID": 430, "type": "PRES_AUD", "trial_index": 157}, "uniqueid": "MTK2794:31UV0MXWNRJEI6OTAUUMJUGSCRZI58", "dateTime": 1519341214101}, {"current_trial": 158, "trialdata": {"rt": -1000, "trial_type": "single-audio", "word": "salad", "stimulus": "/static/audio/wordpool/SALAD.wav", "conditions": [24, 800, "a", 12000], "internal_node_id": "0.0-113.0", "trial": 4, "time_elapsed": 743912, "serialpos": 13, "key_press": -1, "wordID": 1223, "type": "PRES_AUD", "trial_index": 158}, "uniqueid": "MTK2794:31UV0MXWNRJEI6OTAUUMJUGSCRZI58", "dateTime": 1519341215775}, {"current_trial": 159, "trialdata": {"rt": -1000, "trial_type": "single-audio", "word": "creature", "stimulus": "/static/audio/wordpool/CREATURE.wav", "conditions": [24, 800, "a", 12000], "internal_node_id": "0.0-114.0", "trial": 4, "time_elapsed": 745548, "serialpos": 14, "key_press": -1, "wordID": 402, "type": "PRES_AUD", "trial_index": 159}, "uniqueid": "MTK2794:31UV0MXWNRJEI6OTAUUMJUGSCRZI58", "dateTime": 1519341217412}, {"current_trial": 160, "trialdata": {"rt": -1000, "trial_type": "single-audio", "word": "blockade", "stimulus": "/static/audio/wordpool/BLOCKADE.wav", "conditions": [24, 800, "a", 12000], "internal_node_id": "0.0-115.0", "trial": 4, "time_elapsed": 747262, "serialpos": 15, "key_press": -1, "wordID": 136, "type": "PRES_AUD", "trial_index": 160}, "uniqueid": "MTK2794:31UV0MXWNRJEI6OTAUUMJUGSCRZI58", "dateTime": 1519341219126}, {"current_trial": 161, "trialdata": {"rt": -1000, "trial_type": "single-audio", "word": "dancer", "stimulus": "/static/audio/wordpool/DANCER.wav", "conditions": [24, 800, "a", 12000], "internal_node_id": "0.0-116.0", "trial": 4, "time_elapsed": 749033, "serialpos": 16, "key_press": -1, "wordID": 436, "type": "PRES_AUD", "trial_index": 161}, "uniqueid": "MTK2794:31UV0MXWNRJEI6OTAUUMJUGSCRZI58", "dateTime": 1519341220896}, {"current_trial": 162, "trialdata": {"rt": -1000, "trial_type": "single-audio", "word": "buggy", "stimulus": "/static/audio/wordpool/BUGGY.wav", "conditions": [24, 800, "a", 12000], "internal_node_id": "0.0-117.0", "trial": 4, "time_elapsed": 750673, "serialpos": 17, "key_press": -1, "wordID": 187, "type": "PRES_AUD", "trial_index": 162}, "uniqueid": "MTK2794:31UV0MXWNRJEI6OTAUUMJUGSCRZI58", "dateTime": 1519341222537}, {"current_trial": 163, "trialdata": {"rt": -1000, "trial_type": "single-audio", "word": "driver", "stimulus": "/static/audio/wordpool/DRIVER.wav", "conditions": [24, 800, "a", 12000], "internal_node_id": "0.0-118.0", "trial": 4, "time_elapsed": 752373, "serialpos": 18, "key_press": -1, "wordID": 498, "type": "PRES_AUD", "trial_index": 163}, "uniqueid": "MTK2794:31UV0MXWNRJEI6OTAUUMJUGSCRZI58", "dateTime": 1519341224236}, {"current_trial": 164, "trialdata": {"rt": -1000, "trial_type": "single-audio", "word": "dashboard", "stimulus": "/static/audio/wordpool/DASHBOARD.wav", "conditions": [24, 800, "a", 12000], "internal_node_id": "0.0-119.0", "trial": 4, "time_elapsed": 754188, "serialpos": 19, "key_press": -1, "wordID": 440, "type": "PRES_AUD", "trial_index": 164}, "uniqueid": "MTK2794:31UV0MXWNRJEI6OTAUUMJUGSCRZI58", "dateTime": 1519341226051}, {"current_trial": 165, "trialdata": {"rt": -1000, "trial_type": "single-audio", "word": "table", "stimulus": "/static/audio/wordpool/TABLE.wav", "conditions": [24, 800, "a", 12000], "internal_node_id": "0.0-120.0", "trial": 4, "time_elapsed": 755912, "serialpos": 20, "key_press": -1, "wordID": 1425, "type": "PRES_AUD", "trial_index": 165}, "uniqueid": "MTK2794:31UV0MXWNRJEI6OTAUUMJUGSCRZI58", "dateTime": 1519341227776}, {"current_trial": 166, "trialdata": {"rt": -1000, "trial_type": "single-audio", "word": "fox", "stimulus": "/static/audio/wordpool/FOX.wav", "conditions": [24, 800, "a", 12000], "internal_node_id": "0.0-121.0", "trial": 4, "time_elapsed": 757794, "serialpos": 21, "key_press": -1, "wordID": 597, "type": "PRES_AUD", "trial_index": 166}, "uniqueid": "MTK2794:31UV0MXWNRJEI6OTAUUMJUGSCRZI58", "dateTime": 1519341229657}, {"current_trial": 167, "trialdata": {"rt": -1000, "trial_type": "single-audio", "word": "shortcake", "stimulus": "/static/audio/wordpool/SHORTCAKE.wav", "conditions": [24, 800, "a", 12000], "internal_node_id": "0.0-122.0", "trial": 4, "time_elapsed": 759761, "serialpos": 22, "key_press": -1, "wordID": 1291, "type": "PRES_AUD", "trial_index": 167}, "uniqueid": "MTK2794:31UV0MXWNRJEI6OTAUUMJUGSCRZI58", "dateTime": 1519341231624}, {"current_trial": 168, "trialdata": {"rt": -1000, "trial_type": "single-audio", "word": "omelet", "stimulus": "/static/audio/wordpool/OMELET.wav", "conditions": [24, 800, "a", 12000], "internal_node_id": "0.0-123.0", "trial": 4, "time_elapsed": 761611, "serialpos": 23, "key_press": -1, "wordID": 975, "type": "PRES_AUD", "trial_index": 168}, "uniqueid": "MTK2794:31UV0MXWNRJEI6OTAUUMJUGSCRZI58", "dateTime": 1519341233475}, {"current_trial": 169, "trialdata": {"rt": -1, "trial_type": "single-stim", "stimulus": "", "internal_node_id": "0.0-124.0-0.0", "time_elapsed": 762833, "key_press": -1, "type": "PRE_RECALL_DELAY", "trial_index": 169}, "uniqueid": "MTK2794:31UV0MXWNRJEI6OTAUUMJUGSCRZI58", "dateTime": 1519341234696}, {"current_trial": 170, "trialdata": {"rt": -1000, "trial_type": "single-audio", "stimulus": "/static/audio/400Hz.wav", "internal_node_id": "0.0-125.0", "time_elapsed": 763337, "key_press": -1, "type": "PRE_RECALL_ALERT", "trial_index": 170}, "uniqueid": "MTK2794:31UV0MXWNRJEI6OTAUUMJUGSCRZI58", "dateTime": 1519341235200}, {"current_trial": 171, "trialdata": {"rt": [6933, 8710, 10344, 12502, 16224, 17925, 20242, 22001, 23485, 24698, 27128, 29088, 32193, 36247, 38060, 41270, 43564, 45857], "recwords": ["shortcake", "omelet", "table", "dashboard", "driver", "buggy", "dancer", "salad", "cyclone", "elbow", "parsley", "perfume", "world", "tweezers", "costume", "clean", "student", "teacher"], "key_times": [3461, 3561, 3670, 3772, 4250, 5086, 5236, 5460, 5853, 5945, 6157, 6262, 6405, 6933, 7703, 7840, 7984, 8074, 8266, 8495, 8710, 9643, 9822, 9991, 10076, 10237, 10344, 10541, 10911, 11026, 11233, 11406, 11519, 11703, 11803, 12042, 12132, 12404, 12502, 13641, 13758, 14414, 14898, 14999, 15187, 15404, 15467, 16224, 16874, 16963, 17111, 17248, 17661, 17925, 19206, 19398, 19474, 19601, 19818, 19865, 20242, 21167, 21357, 21415, 21608, 21855, 22001, 22211, 22408, 22600, 22726, 22940, 23227, 23360, 23485, 23648, 23777, 24080, 24268, 24523, 24698, 26078, 26167, 26249, 26552, 26638, 26773, 26931, 27128, 27304, 27432, 27772, 27932, 28181, 28235, 28313, 28519, 28596, 28815, 28913, 29088, 30667, 30762, 30991, 31025, 31927, 32193, 33341, 34437, 34627, 34811, 35041, 35179, 35421, 35633, 35713, 35961, 36247, 37102, 37188, 37326, 37517, 37634, 37829, 37941, 38060, 39318, 39409, 39553, 39804, 40739, 40943, 41052, 41270, 41443, 41662, 41947, 42055, 42261, 42915, 43246, 43564, 44221, 44414, 44792, 45025, 45160, 45295, 45368, 45857], "trial_type": "free-recall", "conditions": [24, 800, "a", 12000], "internal_node_id": "0.0-126.0-0.0", "key_presses": [83, 72, 79, 82, 67, 8, 84, 65, 8, 67, 65, 75, 69, 13, 79, 77, 69, 76, 69, 84, 13, 84, 65, 66, 76, 69, 13, 84, 8, 68, 65, 83, 72, 66, 79, 65, 82, 68, 13, 68, 73, 8, 82, 73, 86, 69, 82, 13, 66, 85, 71, 71, 89, 13, 68, 65, 78, 67, 69, 82, 13, 83, 65, 76, 65, 68, 13, 67, 89, 67, 76, 79, 78, 69, 13, 69, 76, 66, 79, 87, 13, 80, 65, 82, 83, 76, 69, 89, 13, 69, 82, 8, 8, 80, 69, 82, 70, 85, 77, 69, 13, 87, 79, 82, 76, 68, 13, 83, 8, 84, 87, 69, 69, 90, 69, 82, 83, 13, 67, 79, 83, 84, 85, 77, 69, 13, 67, 76, 69, 78, 8, 65, 78, 13, 83, 84, 85, 68, 69, 78, 84, 13, 84, 69, 65, 67, 72, 69, 82, 13], "trial": 4, "time_elapsed": 823345, "type": "FREE_RECALL", "trial_index": 171}, "uniqueid": "MTK2794:31UV0MXWNRJEI6OTAUUMJUGSCRZI58", "dateTime": 1519341295229}, {"current_trial": 172, "trialdata": {"rt": 2029, "trial_type": "text", "internal_node_id": "0.0-127.0", "time_elapsed": 827398, "key_press": 32, "type": "INSTRUCTIONS", "trial_index": 172}, "uniqueid": "MTK2794:31UV0MXWNRJEI6OTAUUMJUGSCRZI58", "dateTime": 1519341299262}, {"current_trial": 173, "trialdata": {"rt": [2465, 4857, 6822, 9268, 11325, 13076, 15861, 17812, 21624, 23660], "trial_type": "math-distractor", "key_times": [2061, 2233, 2465, 4390, 4592, 4856, 4857, 6409, 6593, 6822, 8819, 9008, 9268, 10748, 11014, 11325, 12615, 12820, 13076, 15224, 15433, 15861, 17401, 17588, 17812, 20790, 21011, 21624, 23214, 23413, 23660], "responses": ["15", "19", "15", "16", "18", "13", "13", "13", "18", "15"], "num2": [5, 9, 1, 4, 3, 9, 4, 7, 6, 7, 4], "num3": [3, 4, 5, 7, 9, 3, 7, 4, 3, 3, 9], "conditions": [12, 1600, "a", 24000], "internal_node_id": "0.0-128.0", "key_presses": [97, 101, 13, 97, 105, 16, 13, 97, 101, 13, 97, 102, 13, 97, 104, 13, 97, 99, 13, 97, 99, 13, 97, 99, 13, 97, 104, 13, 97, 101, 13], "trial": 5, "time_elapsed": 853414, "type": "DISTRACTOR", "trial_index": 173, "num1": [7, 6, 9, 5, 3, 1, 2, 2, 9, 5, 4]}, "uniqueid": "MTK2794:31UV0MXWNRJEI6OTAUUMJUGSCRZI58", "dateTime": 1519341325277}, {"current_trial": 174, "trialdata": {"rt": -1, "trial_type": "single-stim", "stimulus": "<p id=\"stim\">10</p>", "internal_node_id": "0.0-129.0-0.0", "time_elapsed": 856420, "key_press": -1, "trial_index": 174}, "uniqueid": "MTK2794:31UV0MXWNRJEI6OTAUUMJUGSCRZI58", "dateTime": 1519341328283}, {"current_trial": 175, "trialdata": {"rt": -1, "trial_type": "single-stim", "stimulus": "<p id=\"stim\">9</p>", "internal_node_id": "0.0-129.0-1.0", "time_elapsed": 857424, "key_press": -1, "trial_index": 175}, "uniqueid": "MTK2794:31UV0MXWNRJEI6OTAUUMJUGSCRZI58", "dateTime": 1519341329287}, {"current_trial": 176, "trialdata": {"rt": -1, "trial_type": "single-stim", "stimulus": "<p id=\"stim\">8</p>", "internal_node_id": "0.0-129.0-2.0", "time_elapsed": 858428, "key_press": -1, "trial_index": 176}, "uniqueid": "MTK2794:31UV0MXWNRJEI6OTAUUMJUGSCRZI58", "dateTime": 1519341330291}, {"current_trial": 177, "trialdata": {"rt": -1, "trial_type": "single-stim", "stimulus": "<p id=\"stim\">7</p>", "internal_node_id": "0.0-129.0-3.0", "time_elapsed": 859433, "key_press": -1, "trial_index": 177}, "uniqueid": "MTK2794:31UV0MXWNRJEI6OTAUUMJUGSCRZI58", "dateTime": 1519341331296}, {"current_trial": 178, "trialdata": {"rt": -1, "trial_type": "single-stim", "stimulus": "<p id=\"stim\">6</p>", "internal_node_id": "0.0-129.0-4.0", "time_elapsed": 860437, "key_press": -1, "trial_index": 178}, "uniqueid": "MTK2794:31UV0MXWNRJEI6OTAUUMJUGSCRZI58", "dateTime": 1519341332301}, {"current_trial": 179, "trialdata": {"rt": -1, "trial_type": "single-stim", "stimulus": "<p id=\"stim\">5</p>", "internal_node_id": "0.0-129.0-5.0", "time_elapsed": 861441, "key_press": -1, "trial_index": 179}, "uniqueid": "MTK2794:31UV0MXWNRJEI6OTAUUMJUGSCRZI58", "dateTime": 1519341333305}, {"current_trial": 180, "trialdata": {"rt": -1, "trial_type": "single-stim", "stimulus": "<p id=\"stim\">4</p>", "internal_node_id": "0.0-129.0-6.0", "time_elapsed": 862446, "key_press": -1, "trial_index": 180}, "uniqueid": "MTK2794:31UV0MXWNRJEI6OTAUUMJUGSCRZI58", "dateTime": 1519341334309}, {"current_trial": 181, "trialdata": {"rt": -1, "trial_type": "single-stim", "stimulus": "<p id=\"stim\">3</p>", "internal_node_id": "0.0-129.0-7.0", "time_elapsed": 863450, "key_press": -1, "trial_index": 181}, "uniqueid": "MTK2794:31UV0MXWNRJEI6OTAUUMJUGSCRZI58", "dateTime": 1519341335313}, {"current_trial": 182, "trialdata": {"rt": -1, "trial_type": "single-stim", "stimulus": "<p id=\"stim\">2</p>", "internal_node_id": "0.0-129.0-8.0", "time_elapsed": 864454, "key_press": -1, "trial_index": 182}, "uniqueid": "MTK2794:31UV0MXWNRJEI6OTAUUMJUGSCRZI58", "dateTime": 1519341336317}, {"current_trial": 183, "trialdata": {"rt": -1, "trial_type": "single-stim", "stimulus": "<p id=\"stim\">1</p>", "internal_node_id": "0.0-129.0-9.0", "time_elapsed": 865458, "key_press": -1, "trial_index": 183}, "uniqueid": "MTK2794:31UV0MXWNRJEI6OTAUUMJUGSCRZI58", "dateTime": 1519341337322}, {"current_trial": 184, "trialdata": {"rt": -1, "trial_type": "single-stim", "stimulus": "<p id=\"stim\">+</p>", "internal_node_id": "0.0-130.0-0.0", "time_elapsed": 866962, "key_press": -1, "type": "FIXATION", "trial_index": 184}, "uniqueid": "MTK2794:31UV0MXWNRJEI6OTAUUMJUGSCRZI58", "dateTime": 1519341338826}, {"current_trial": 185, "trialdata": {"rt": -1000, "trial_type": "single-audio", "word": "leader", "stimulus": "/static/audio/wordpool/LEADER.wav", "conditions": [12, 1600, "a", 24000], "internal_node_id": "0.0-131.0", "trial": 5, "time_elapsed": 869566, "serialpos": 0, "key_press": -1, "wordID": 806, "type": "PRES_AUD", "trial_index": 185}, "uniqueid": "MTK2794:31UV0MXWNRJEI6OTAUUMJUGSCRZI58", "dateTime": 1519341341429}, {"current_trial": 186, "trialdata": {"rt": -1000, "trial_type": "single-audio", "word": "pecan", "stimulus": "/static/audio/wordpool/PECAN.wav", "conditions": [12, 1600, "a", 24000], "internal_node_id": "0.0-132.0", "trial": 5, "time_elapsed": 872294, "serialpos": 1, "key_press": -1, "wordID": 1035, "type": "PRES_AUD", "trial_index": 186}, "uniqueid": "MTK2794:31UV0MXWNRJEI6OTAUUMJUGSCRZI58", "dateTime": 1519341344157}, {"current_trial": 187, "trialdata": {"rt": -1000, "trial_type": "single-audio", "word": "transplant", "stimulus": "/static/audio/wordpool/TRANSPLANT.wav", "conditions": [12, 1600, "a", 24000], "internal_node_id": "0.0-133.0", "trial": 5, "time_elapsed": 874893, "serialpos": 2, "key_press": -1, "wordID": 1495, "type": "PRES_AUD", "trial_index": 187}, "uniqueid": "MTK2794:31UV0MXWNRJEI6OTAUUMJUGSCRZI58", "dateTime": 1519341346757}, {"current_trial": 188, "trialdata": {"rt": -1000, "trial_type": "single-audio", "word": "handbag", "stimulus": "/static/audio/wordpool/HANDBAG.wav", "conditions": [12, 1600, "a", 24000], "internal_node_id": "0.0-134.0", "trial": 5, "time_elapsed": 877487, "serialpos": 3, "key_press": -1, "wordID": 683, "type": "PRES_AUD", "trial_index": 188}, "uniqueid": "MTK2794:31UV0MXWNRJEI6OTAUUMJUGSCRZI58", "dateTime": 1519341349351}, {"current_trial": 189, "trialdata": {"rt": -1000, "trial_type": "single-audio", "word": "picture", "stimulus": "/static/audio/wordpool/PICTURE.wav", "conditions": [12, 1600, "a", 24000], "internal_node_id": "0.0-135.0", "trial": 5, "time_elapsed": 879982, "serialpos": 4, "key_press": -1, "wordID": 1060, "type": "PRES_AUD", "trial_index": 189}, "uniqueid": "MTK2794:31UV0MXWNRJEI6OTAUUMJUGSCRZI58", "dateTime": 1519341351845}, {"current_trial": 190, "trialdata": {"rt": -1000, "trial_type": "single-audio", "word": "hand", "stimulus": "/static/audio/wordpool/HAND.wav", "conditions": [12, 1600, "a", 24000], "internal_node_id": "0.0-136.0", "trial": 5, "time_elapsed": 882406, "serialpos": 5, "key_press": -1, "wordID": 682, "type": "PRES_AUD", "trial_index": 190}, "uniqueid": "MTK2794:31UV0MXWNRJEI6OTAUUMJUGSCRZI58", "dateTime": 1519341354270}, {"current_trial": 191, "trialdata": {"rt": -1000, "trial_type": "single-audio", "word": "hornet", "stimulus": "/static/audio/wordpool/HORNET.wav", "conditions": [12, 1600, "a", 24000], "internal_node_id": "0.0-137.0", "trial": 5, "time_elapsed": 885130, "serialpos": 6, "key_press": -1, "wordID": 717, "type": "PRES_AUD", "trial_index": 191}, "uniqueid": "MTK2794:31UV0MXWNRJEI6OTAUUMJUGSCRZI58", "dateTime": 1519341356993}, {"current_trial": 192, "trialdata": {"rt": -1000, "trial_type": "single-audio", "word": "sibling", "stimulus": "/static/audio/wordpool/SIBLING.wav", "conditions": [12, 1600, "a", 24000], "internal_node_id": "0.0-138.0", "trial": 5, "time_elapsed": 887860, "serialpos": 7, "key_press": -1, "wordID": 1300, "type": "PRES_AUD", "trial_index": 192}, "uniqueid": "MTK2794:31UV0MXWNRJEI6OTAUUMJUGSCRZI58", "dateTime": 1519341359723}, {"current_trial": 193, "trialdata": {"rt": -1000, "trial_type": "single-audio", "word": "peach", "stimulus": "/static/audio/wordpool/PEACH.wav", "conditions": [12, 1600, "a", 24000], "internal_node_id": "0.0-139.0", "trial": 5, "time_elapsed": 890309, "serialpos": 8, "key_press": -1, "wordID": 1030, "type": "PRES_AUD", "trial_index": 193}, "uniqueid": "MTK2794:31UV0MXWNRJEI6OTAUUMJUGSCRZI58", "dateTime": 1519341362172}, {"current_trial": 194, "trialdata": {"rt": -1000, "trial_type": "single-audio", "word": "robber", "stimulus": "/static/audio/wordpool/ROBBER.wav", "conditions": [12, 1600, "a", 24000], "internal_node_id": "0.0-140.0", "trial": 5, "time_elapsed": 892873, "serialpos": 9, "key_press": -1, "wordID": 1196, "type": "PRES_AUD", "trial_index": 194}, "uniqueid": "MTK2794:31UV0MXWNRJEI6OTAUUMJUGSCRZI58", "dateTime": 1519341364737}, {"current_trial": 195, "trialdata": {"rt": -1000, "trial_type": "single-audio", "word": "london", "stimulus": "/static/audio/wordpool/LONDON.wav", "conditions": [12, 1600, "a", 24000], "internal_node_id": "0.0-141.0", "trial": 5, "time_elapsed": 895477, "serialpos": 10, "key_press": -1, "wordID": 842, "type": "PRES_AUD", "trial_index": 195}, "uniqueid": "MTK2794:31UV0MXWNRJEI6OTAUUMJUGSCRZI58", "dateTime": 1519341367341}, {"current_trial": 196, "trialdata": {"rt": -1000, "trial_type": "single-audio", "word": "france", "stimulus": "/static/audio/wordpool/FRANCE.wav", "conditions": [12, 1600, "a", 24000], "internal_node_id": "0.0-142.0", "trial": 5, "time_elapsed": 898272, "serialpos": 11, "key_press": -1, "wordID": 600, "type": "PRES_AUD", "trial_index": 196}, "uniqueid": "MTK2794:31UV0MXWNRJEI6OTAUUMJUGSCRZI58", "dateTime": 1519341370136}, {"current_trial": 197, "trialdata": {"rt": -1, "trial_type": "single-stim", "stimulus": "", "internal_node_id": "0.0-143.0-0.0", "time_elapsed": 899564, "key_press": -1, "type": "PRE_RECALL_DELAY", "trial_index": 197}, "uniqueid": "MTK2794:31UV0MXWNRJEI6OTAUUMJUGSCRZI58", "dateTime": 1519341371428}, {"current_trial": 198, "trialdata": {"rt": -1000, "trial_type": "single-audio", "stimulus": "/static/audio/400Hz.wav", "internal_node_id": "0.0-144.0", "time_elapsed": 900068, "key_press": -1, "type": "PRE_RECALL_ALERT", "trial_index": 198}, "uniqueid": "MTK2794:31UV0MXWNRJEI6OTAUUMJUGSCRZI58", "dateTime": 1519341371931}, {"current_trial": 199, "trialdata": {"rt": [3229, 4419, 6485, 8120, 9883, 11983, 14514, 16513, 19725, 20920], "recwords": ["france", "london", "robber", "peach", "sibling", "hornet", "picture", "handbag", "transplant", "pecan"], "key_times": [2184, 2431, 2593, 2728, 2920, 3143, 3229, 3508, 3711, 3840, 3934, 4047, 4166, 4419, 5465, 5592, 5778, 5931, 6133, 6186, 6485, 7355, 7452, 7638, 7828, 7922, 8120, 8393, 8641, 8915, 9006, 9204, 9344, 9626, 9883, 10934, 11061, 11239, 11346, 11491, 11782, 11983, 13069, 13253, 13371, 13625, 13738, 13827, 13981, 14514, 15270, 15360, 15479, 15594, 15852, 16001, 16303, 16513, 17853, 18030, 18206, 18314, 18488, 18703, 19168, 19295, 19443, 19569, 19725, 20021, 20121, 20342, 20558, 20692, 20920], "trial_type": "free-recall", "conditions": [12, 1600, "a", 24000], "internal_node_id": "0.0-145.0-0.0", "key_presses": [70, 82, 65, 78, 67, 69, 13, 76, 79, 78, 68, 79, 78, 13, 82, 79, 66, 66, 69, 82, 13, 80, 69, 65, 67, 72, 13, 83, 73, 66, 76, 73, 78, 71, 13, 72, 79, 82, 78, 69, 84, 13, 80, 73, 67, 84, 85, 82, 69, 13, 72, 65, 78, 68, 66, 65, 71, 13, 84, 82, 65, 78, 83, 80, 76, 65, 78, 84, 13, 80, 69, 67, 65, 78, 13], "trial": 5, "time_elapsed": 960078, "type": "FREE_RECALL", "trial_index": 199}, "uniqueid": "MTK2794:31UV0MXWNRJEI6OTAUUMJUGSCRZI58", "dateTime": 1519341431960}, {"current_trial": 200, "trialdata": {"rt": 13481, "trial_type": "text", "internal_node_id": "0.0-146.0", "time_elapsed": 975581, "key_press": 32, "type": "INSTRUCTIONS", "trial_index": 200}, "uniqueid": "MTK2794:31UV0MXWNRJEI6OTAUUMJUGSCRZI58", "dateTime": 1519341447444}, {"current_trial": 201, "trialdata": {"rt": [2263, 5993, 8412, 11210], "trial_type": "math-distractor", "key_times": [1919, 2046, 2263, 5621, 5755, 5993, 7968, 8150, 8412, 10815, 11009, 11210], "responses": ["11", "11", "10", "21"], "num2": [1, 4, 3, 8, 6], "num3": [1, 3, 5, 8, 3], "conditions": [12, 1600, "a", 12000], "internal_node_id": "0.0-147.0", "key_presses": [97, 97, 13, 97, 97, 13, 97, 96, 13, 98, 97, 13], "trial": 6, "time_elapsed": 989590, "type": "DISTRACTOR", "trial_index": 201, "num1": [9, 4, 2, 5, 8]}, "uniqueid": "MTK2794:31UV0MXWNRJEI6OTAUUMJUGSCRZI58", "dateTime": 1519341461454}, {"current_trial": 202, "trialdata": {"rt": -1, "trial_type": "single-stim", "stimulus": "<p id=\"stim\">10</p>", "internal_node_id": "0.0-148.0-0.0", "time_elapsed": 992597, "key_press": -1, "trial_index": 202}, "uniqueid": "MTK2794:31UV0MXWNRJEI6OTAUUMJUGSCRZI58", "dateTime": 1519341464461}, {"current_trial": 203, "trialdata": {"rt": -1, "trial_type": "single-stim", "stimulus": "<p id=\"stim\">9</p>", "internal_node_id": "0.0-148.0-1.0", "time_elapsed": 993602, "key_press": -1, "trial_index": 203}, "uniqueid": "MTK2794:31UV0MXWNRJEI6OTAUUMJUGSCRZI58", "dateTime": 1519341465465}, {"current_trial": 204, "trialdata": {"rt": -1, "trial_type": "single-stim", "stimulus": "<p id=\"stim\">8</p>", "internal_node_id": "0.0-148.0-2.0", "time_elapsed": 994606, "key_press": -1, "trial_index": 204}, "uniqueid": "MTK2794:31UV0MXWNRJEI6OTAUUMJUGSCRZI58", "dateTime": 1519341466470}, {"current_trial": 205, "trialdata": {"rt": -1, "trial_type": "single-stim", "stimulus": "<p id=\"stim\">7</p>", "internal_node_id": "0.0-148.0-3.0", "time_elapsed": 995610, "key_press": -1, "trial_index": 205}, "uniqueid": "MTK2794:31UV0MXWNRJEI6OTAUUMJUGSCRZI58", "dateTime": 1519341467474}, {"current_trial": 206, "trialdata": {"rt": -1, "trial_type": "single-stim", "stimulus": "<p id=\"stim\">6</p>", "internal_node_id": "0.0-148.0-4.0", "time_elapsed": 996615, "key_press": -1, "trial_index": 206}, "uniqueid": "MTK2794:31UV0MXWNRJEI6OTAUUMJUGSCRZI58", "dateTime": 1519341468478}, {"current_trial": 207, "trialdata": {"rt": -1, "trial_type": "single-stim", "stimulus": "<p id=\"stim\">5</p>", "internal_node_id": "0.0-148.0-5.0", "time_elapsed": 997619, "key_press": -1, "trial_index": 207}, "uniqueid": "MTK2794:31UV0MXWNRJEI6OTAUUMJUGSCRZI58", "dateTime": 1519341469482}, {"current_trial": 208, "trialdata": {"rt": -1, "trial_type": "single-stim", "stimulus": "<p id=\"stim\">4</p>", "internal_node_id": "0.0-148.0-6.0", "time_elapsed": 998623, "key_press": -1, "trial_index": 208}, "uniqueid": "MTK2794:31UV0MXWNRJEI6OTAUUMJUGSCRZI58", "dateTime": 1519341470487}, {"current_trial": 209, "trialdata": {"rt": -1, "trial_type": "single-stim", "stimulus": "<p id=\"stim\">3</p>", "internal_node_id": "0.0-148.0-7.0", "time_elapsed": 999627, "key_press": -1, "trial_index": 209}, "uniqueid": "MTK2794:31UV0MXWNRJEI6OTAUUMJUGSCRZI58", "dateTime": 1519341471491}, {"current_trial": 210, "trialdata": {"rt": -1, "trial_type": "single-stim", "stimulus": "<p id=\"stim\">2</p>", "internal_node_id": "0.0-148.0-8.0", "time_elapsed": 1000631, "key_press": -1, "trial_index": 210}, "uniqueid": "MTK2794:31UV0MXWNRJEI6OTAUUMJUGSCRZI58", "dateTime": 1519341472495}, {"current_trial": 211, "trialdata": {"rt": -1, "trial_type": "single-stim", "stimulus": "<p id=\"stim\">1</p>", "internal_node_id": "0.0-148.0-9.0", "time_elapsed": 1001634, "key_press": -1, "trial_index": 211}, "uniqueid": "MTK2794:31UV0MXWNRJEI6OTAUUMJUGSCRZI58", "dateTime": 1519341473497}, {"current_trial": 212, "trialdata": {"rt": -1, "trial_type": "single-stim", "stimulus": "<p id=\"stim\">+</p>", "internal_node_id": "0.0-149.0-0.0", "time_elapsed": 1003137, "key_press": -1, "type": "FIXATION", "trial_index": 212}, "uniqueid": "MTK2794:31UV0MXWNRJEI6OTAUUMJUGSCRZI58", "dateTime": 1519341475000}, {"current_trial": 213, "trialdata": {"rt": -1000, "trial_type": "single-audio", "word": "paddle", "stimulus": "/static/audio/wordpool/PADDLE.wav", "conditions": [12, 1600, "a", 12000], "internal_node_id": "0.0-150.0", "trial": 6, "time_elapsed": 1005608, "serialpos": 0, "key_press": -1, "wordID": 999, "type": "PRES_AUD", "trial_index": 213}, "uniqueid": "MTK2794:31UV0MXWNRJEI6OTAUUMJUGSCRZI58", "dateTime": 1519341477472}, {"current_trial": 214, "trialdata": {"rt": -1000, "trial_type": "single-audio", "word": "brandy", "stimulus": "/static/audio/wordpool/BRANDY.wav", "conditions": [12, 1600, "a", 12000], "internal_node_id": "0.0-151.0", "trial": 6, "time_elapsed": 1008353, "serialpos": 1, "key_press": -1, "wordID": 168, "type": "PRES_AUD", "trial_index": 214}, "uniqueid": "MTK2794:31UV0MXWNRJEI6OTAUUMJUGSCRZI58", "dateTime": 1519341480217}, {"current_trial": 215, "trialdata": {"rt": -1000, "trial_type": "single-audio", "word": "flute", "stimulus": "/static/audio/wordpool/FLUTE.wav", "conditions": [12, 1600, "a", 12000], "internal_node_id": "0.0-152.0", "trial": 6, "time_elapsed": 1010947, "serialpos": 2, "key_press": -1, "wordID": 584, "type": "PRES_AUD", "trial_index": 215}, "uniqueid": "MTK2794:31UV0MXWNRJEI6OTAUUMJUGSCRZI58", "dateTime": 1519341482810}, {"current_trial": 216, "trialdata": {"rt": -1000, "trial_type": "single-audio", "word": "cousin", "stimulus": "/static/audio/wordpool/COUSIN.wav", "conditions": [12, 1600, "a", 12000], "internal_node_id": "0.0-153.0", "trial": 6, "time_elapsed": 1013578, "serialpos": 3, "key_press": -1, "wordID": 391, "type": "PRES_AUD", "trial_index": 216}, "uniqueid": "MTK2794:31UV0MXWNRJEI6OTAUUMJUGSCRZI58", "dateTime": 1519341485442}, {"current_trial": 217, "trialdata": {"rt": -1000, "trial_type": "single-audio", "word": "sausage", "stimulus": "/static/audio/wordpool/SAUSAGE.wav", "conditions": [12, 1600, "a", 12000], "internal_node_id": "0.0-154.0", "trial": 6, "time_elapsed": 1015988, "serialpos": 4, "key_press": -1, "wordID": 1237, "type": "PRES_AUD", "trial_index": 217}, "uniqueid": "MTK2794:31UV0MXWNRJEI6OTAUUMJUGSCRZI58", "dateTime": 1519341487851}, {"current_trial": 218, "trialdata": {"rt": -1000, "trial_type": "single-audio", "word": "typist", "stimulus": "/static/audio/wordpool/TYPIST.wav", "conditions": [12, 1600, "a", 12000], "internal_node_id": "0.0-155.0", "trial": 6, "time_elapsed": 1018612, "serialpos": 5, "key_press": -1, "wordID": 1531, "type": "PRES_AUD", "trial_index": 218}, "uniqueid": "MTK2794:31UV0MXWNRJEI6OTAUUMJUGSCRZI58", "dateTime": 1519341490475}, {"current_trial": 219, "trialdata": {"rt": -1000, "trial_type": "single-audio", "word": "valley", "stimulus": "/static/audio/wordpool/VALLEY.wav", "conditions": [12, 1600, "a", 12000], "internal_node_id": "0.0-156.0", "trial": 6, "time_elapsed": 1021295, "serialpos": 6, "key_press": -1, "wordID": 1544, "type": "PRES_AUD", "trial_index": 219}, "uniqueid": "MTK2794:31UV0MXWNRJEI6OTAUUMJUGSCRZI58", "dateTime": 1519341493159}, {"current_trial": 220, "trialdata": {"rt": -1000, "trial_type": "single-audio", "word": "pistol", "stimulus": "/static/audio/wordpool/PISTOL.wav", "conditions": [12, 1600, "a", 12000], "internal_node_id": "0.0-157.0", "trial": 6, "time_elapsed": 1023780, "serialpos": 7, "key_press": -1, "wordID": 1074, "type": "PRES_AUD", "trial_index": 220}, "uniqueid": "MTK2794:31UV0MXWNRJEI6OTAUUMJUGSCRZI58", "dateTime": 1519341495644}, {"current_trial": 221, "trialdata": {"rt": -1000, "trial_type": "single-audio", "word": "knife", "stimulus": "/static/audio/wordpool/KNIFE.wav", "conditions": [12, 1600, "a", 12000], "internal_node_id": "0.0-158.0", "trial": 6, "time_elapsed": 1026273, "serialpos": 8, "key_press": -1, "wordID": 784, "type": "PRES_AUD", "trial_index": 221}, "uniqueid": "MTK2794:31UV0MXWNRJEI6OTAUUMJUGSCRZI58", "dateTime": 1519341498137}, {"current_trial": 222, "trialdata": {"rt": -1000, "trial_type": "single-audio", "word": "bacon", "stimulus": "/static/audio/wordpool/BACON.wav", "conditions": [12, 1600, "a", 12000], "internal_node_id": "0.0-159.0", "trial": 6, "time_elapsed": 1028764, "serialpos": 9, "key_press": -1, "wordID": 66, "type": "PRES_AUD", "trial_index": 222}, "uniqueid": "MTK2794:31UV0MXWNRJEI6OTAUUMJUGSCRZI58", "dateTime": 1519341500628}, {"current_trial": 223, "trialdata": {"rt": -1000, "trial_type": "single-audio", "word": "outdoors", "stimulus": "/static/audio/wordpool/OUTDOORS.wav", "conditions": [12, 1600, "a", 12000], "internal_node_id": "0.0-160.0", "trial": 6, "time_elapsed": 1031277, "serialpos": 10, "key_press": -1, "wordID": 986, "type": "PRES_AUD", "trial_index": 223}, "uniqueid": "MTK2794:31UV0MXWNRJEI6OTAUUMJUGSCRZI58", "dateTime": 1519341503140}, {"current_trial": 224, "trialdata": {"rt": -1000, "trial_type": "single-audio", "word": "skirt", "stimulus": "/static/audio/wordpool/SKIRT.wav", "conditions": [12, 1600, "a", 12000], "internal_node_id": "0.0-161.0", "trial": 6, "time_elapsed": 1034047, "serialpos": 11, "key_press": -1, "wordID": 1318, "type": "PRES_AUD", "trial_index": 224}, "uniqueid": "MTK2794:31UV0MXWNRJEI6OTAUUMJUGSCRZI58", "dateTime": 1519341505911}, {"current_trial": 225, "trialdata": {"rt": -1, "trial_type": "single-stim", "stimulus": "", "internal_node_id": "0.0-162.0-0.0", "time_elapsed": 1035433, "key_press": -1, "type": "PRE_RECALL_DELAY", "trial_index": 225}, "uniqueid": "MTK2794:31UV0MXWNRJEI6OTAUUMJUGSCRZI58", "dateTime": 1519341507296}, {"current_trial": 226, "trialdata": {"rt": -1000, "trial_type": "single-audio", "stimulus": "/static/audio/400Hz.wav", "internal_node_id": "0.0-163.0", "time_elapsed": 1035935, "key_press": -1, "type": "PRE_RECALL_ALERT", "trial_index": 226}, "uniqueid": "MTK2794:31UV0MXWNRJEI6OTAUUMJUGSCRZI58", "dateTime": 1519341507798}, {"current_trial": 227, "trialdata": {"rt": [4968, 6854, 9539, 10581, 11987, 14176, 15980, 18490, 20165, 22966], "recwords": ["skirt", "outdoors", "bacon", "knife", "pistol", "valley", "typist", "sausage", "flute", "paddle"], "key_times": [3877, 3965, 4154, 4296, 4544, 4968, 5663, 5838, 5956, 6165, 6256, 6397, 6508, 6747, 6854, 8772, 8914, 9106, 9262, 9365, 9539, 9801, 10007, 10166, 10275, 10448, 10581, 11018, 11208, 11298, 11491, 11564, 11776, 11987, 13294, 13443, 13514, 13662, 13784, 13957, 14176, 14480, 14579, 14746, 14858, 15340, 15578, 15640, 15827, 15980, 17326, 17527, 17641, 17828, 18046, 18204, 18355, 18490, 19508, 19606, 19796, 19907, 20048, 20165, 21895, 22046, 22309, 22467, 22553, 22657, 22966], "trial_type": "free-recall", "conditions": [12, 1600, "a", 12000], "internal_node_id": "0.0-164.0-0.0", "key_presses": [83, 75, 73, 82, 84, 13, 79, 85, 84, 68, 79, 79, 82, 83, 13, 66, 65, 67, 79, 78, 13, 75, 78, 73, 70, 69, 13, 80, 73, 83, 84, 79, 76, 13, 86, 65, 76, 76, 69, 89, 13, 84, 89, 80, 69, 8, 73, 83, 84, 13, 83, 65, 85, 83, 65, 71, 69, 13, 70, 76, 85, 84, 69, 13, 80, 65, 68, 68, 76, 69, 13], "trial": 6, "time_elapsed": 1095941, "type": "FREE_RECALL", "trial_index": 227}, "uniqueid": "MTK2794:31UV0MXWNRJEI6OTAUUMJUGSCRZI58", "dateTime": 1519341567830}, {"current_trial": 228, "trialdata": {"rt": 1581, "trial_type": "text", "internal_node_id": "0.0-165.0", "time_elapsed": 1099552, "key_press": 32, "type": "INSTRUCTIONS", "trial_index": 228}, "uniqueid": "MTK2794:31UV0MXWNRJEI6OTAUUMJUGSCRZI58", "dateTime": 1519341571416}, {"current_trial": 229, "trialdata": {"rt": [2845, 5120, 8144, 10123], "trial_type": "math-distractor", "key_times": [2439, 2615, 2845, 4603, 4812, 5120, 7428, 7755, 8144, 9630, 9842, 10123, 11603, 11818], "responses": ["15", "18", "17", "16"], "num2": [4, 9, 9, 7, 3], "num3": [2, 6, 4, 2, 2], "conditions": [24, 1600, "a", 12000], "internal_node_id": "0.0-166.0", "key_presses": [97, 101, 13, 97, 104, 13, 97, 103, 13, 97, 102, 13, 97, 99], "trial": 7, "time_elapsed": 1113564, "type": "DISTRACTOR", "trial_index": 229, "num1": [9, 3, 4, 7, 8]}, "uniqueid": "MTK2794:31UV0MXWNRJEI6OTAUUMJUGSCRZI58", "dateTime": 1519341585428}, {"current_trial": 230, "trialdata": {"rt": -1, "trial_type": "single-stim", "stimulus": "<p id=\"stim\">10</p>", "internal_node_id": "0.0-167.0-0.0", "time_elapsed": 1116569, "key_press": -1, "trial_index": 230}, "uniqueid": "MTK2794:31UV0MXWNRJEI6OTAUUMJUGSCRZI58", "dateTime": 1519341588432}, {"current_trial": 231, "trialdata": {"rt": -1, "trial_type": "single-stim", "stimulus": "<p id=\"stim\">9</p>", "internal_node_id": "0.0-167.0-1.0", "time_elapsed": 1117572, "key_press": -1, "trial_index": 231}, "uniqueid": "MTK2794:31UV0MXWNRJEI6OTAUUMJUGSCRZI58", "dateTime": 1519341589435}, {"current_trial": 232, "trialdata": {"rt": -1, "trial_type": "single-stim", "stimulus": "<p id=\"stim\">8</p>", "internal_node_id": "0.0-167.0-2.0", "time_elapsed": 1118576, "key_press": -1, "trial_index": 232}, "uniqueid": "MTK2794:31UV0MXWNRJEI6OTAUUMJUGSCRZI58", "dateTime": 1519341590439}, {"current_trial": 233, "trialdata": {"rt": -1, "trial_type": "single-stim", "stimulus": "<p id=\"stim\">7</p>", "internal_node_id": "0.0-167.0-3.0", "time_elapsed": 1119579, "key_press": -1, "trial_index": 233}, "uniqueid": "MTK2794:31UV0MXWNRJEI6OTAUUMJUGSCRZI58", "dateTime": 1519341591443}, {"current_trial": 234, "trialdata": {"rt": -1, "trial_type": "single-stim", "stimulus": "<p id=\"stim\">6</p>", "internal_node_id": "0.0-167.0-4.0", "time_elapsed": 1120584, "key_press": -1, "trial_index": 234}, "uniqueid": "MTK2794:31UV0MXWNRJEI6OTAUUMJUGSCRZI58", "dateTime": 1519341592448}, {"current_trial": 235, "trialdata": {"rt": -1, "trial_type": "single-stim", "stimulus": "<p id=\"stim\">5</p>", "internal_node_id": "0.0-167.0-5.0", "time_elapsed": 1121589, "key_press": -1, "trial_index": 235}, "uniqueid": "MTK2794:31UV0MXWNRJEI6OTAUUMJUGSCRZI58", "dateTime": 1519341593452}, {"current_trial": 236, "trialdata": {"rt": -1, "trial_type": "single-stim", "stimulus": "<p id=\"stim\">4</p>", "internal_node_id": "0.0-167.0-6.0", "time_elapsed": 1122592, "key_press": -1, "trial_index": 236}, "uniqueid": "MTK2794:31UV0MXWNRJEI6OTAUUMJUGSCRZI58", "dateTime": 1519341594456}, {"current_trial": 237, "trialdata": {"rt": -1, "trial_type": "single-stim", "stimulus": "<p id=\"stim\">3</p>", "internal_node_id": "0.0-167.0-7.0", "time_elapsed": 1123598, "key_press": -1, "trial_index": 237}, "uniqueid": "MTK2794:31UV0MXWNRJEI6OTAUUMJUGSCRZI58", "dateTime": 1519341595462}, {"current_trial": 238, "trialdata": {"rt": -1, "trial_type": "single-stim", "stimulus": "<p id=\"stim\">2</p>", "internal_node_id": "0.0-167.0-8.0", "time_elapsed": 1124603, "key_press": -1, "trial_index": 238}, "uniqueid": "MTK2794:31UV0MXWNRJEI6OTAUUMJUGSCRZI58", "dateTime": 1519341596467}, {"current_trial": 239, "trialdata": {"rt": -1, "trial_type": "single-stim", "stimulus": "<p id=\"stim\">1</p>", "internal_node_id": "0.0-167.0-9.0", "time_elapsed": 1125607, "key_press": -1, "trial_index": 239}, "uniqueid": "MTK2794:31UV0MXWNRJEI6OTAUUMJUGSCRZI58", "dateTime": 1519341597470}, {"current_trial": 240, "trialdata": {"rt": -1, "trial_type": "single-stim", "stimulus": "<p id=\"stim\">+</p>", "internal_node_id": "0.0-168.0-0.0", "time_elapsed": 1127112, "key_press": -1, "type": "FIXATION", "trial_index": 240}, "uniqueid": "MTK2794:31UV0MXWNRJEI6OTAUUMJUGSCRZI58", "dateTime": 1519341598976}, {"current_trial": 241, "trialdata": {"rt": -1000, "trial_type": "single-audio", "word": "crayon", "stimulus": "/static/audio/wordpool/CRAYON.wav", "conditions": [24, 1600, "a", 12000], "internal_node_id": "0.0-169.0", "trial": 7, "time_elapsed": 1129825, "serialpos": 0, "key_press": -1, "wordID": 400, "type": "PRES_AUD", "trial_index": 241}, "uniqueid": "MTK2794:31UV0MXWNRJEI6OTAUUMJUGSCRZI58", "dateTime": 1519341601689}, {"current_trial": 242, "trialdata": {"rt": -1000, "trial_type": "single-audio", "word": "zipper", "stimulus": "/static/audio/wordpool/ZIPPER.wav", "conditions": [24, 1600, "a", 12000], "internal_node_id": "0.0-170.0", "trial": 7, "time_elapsed": 1132321, "serialpos": 1, "key_press": -1, "wordID": 1635, "type": "PRES_AUD", "trial_index": 242}, "uniqueid": "MTK2794:31UV0MXWNRJEI6OTAUUMJUGSCRZI58", "dateTime": 1519341604185}, {"current_trial": 243, "trialdata": {"rt": -1000, "trial_type": "single-audio", "word": "husband", "stimulus": "/static/audio/wordpool/HUSBAND.wav", "conditions": [24, 1600, "a", 12000], "internal_node_id": "0.0-171.0", "trial": 7, "time_elapsed": 1134800, "serialpos": 2, "key_press": -1, "wordID": 727, "type": "PRES_AUD", "trial_index": 243}, "uniqueid": "MTK2794:31UV0MXWNRJEI6OTAUUMJUGSCRZI58", "dateTime": 1519341606663}, {"current_trial": 244, "trialdata": {"rt": -1000, "trial_type": "single-audio", "word": "lover", "stimulus": "/static/audio/wordpool/LOVER.wav", "conditions": [24, 1600, "a", 12000], "internal_node_id": "0.0-172.0", "trial": 7, "time_elapsed": 1137474, "serialpos": 3, "key_press": -1, "wordID": 845, "type": "PRES_AUD", "trial_index": 244}, "uniqueid": "MTK2794:31UV0MXWNRJEI6OTAUUMJUGSCRZI58", "dateTime": 1519341609338}, {"current_trial": 245, "trialdata": {"rt": -1000, "trial_type": "single-audio", "word": "tortoise", "stimulus": "/stati