{"assignmentId": "38SKSKU7R24SKVRE2HAT0JCPV96ILK", "workerId": "MTK2176", "questiondata": {"origin": "United States", "strat-rehearsal": "77", "marital": "Married/Domestic Partnership", "education": "Associate degree", "ethnicity": "Not Hispanic", "color_depth": 24, "distracted": "No", "wrote-notes": "No", "strat-other": "I tried to make funny phrases with the words to remember them", "screen_width": 1366, "avail_screen_width": 1366, "avail_screen_height": 728, "strat-image": "62", "language": "English", "gender": "Female", "age": "28", "gender_other": "", "race": ["White"], "strat-categorize": "89", "pixel_depth": 24, "strat-spatial": "15", "strat-story": "78", "race_other": "", "screen_height": 768}, "bonus": 0, "hitId": "3MA5N0ATTCIXE0V7GWX5XQCY3W7KWT", "counterbalance": 189, "useragent": "Mozilla/5.0 (Windows NT 6.3; Win64; x64) AppleWebKit/537.36 (KHTML, like Gecko) Chrome/63.0.3239.132 Safari/537.36", "eventdata": [{"eventtype": "initialized", "interval": 0, "value": null, "timestamp": 1516820342978}, {"eventtype": "window_resize", "interval": 0, "value": [1362, 713], "timestamp": 1516820342978}, {"eventtype": "window_resize", "interval": 2651, "value": [1366, 677], "timestamp": 1516820345629}, {"eventtype": "window_resize", "interval": 12212, "value": [1362, 713], "timestamp": 1516820357841}, {"eventtype": "window_resize", "interval": 6070, "value": [1362, 567], "timestamp": 1516820363911}, {"eventtype": "window_resize", "interval": 479, "value": [1362, 509], "timestamp": 1516820364390}, {"eventtype": "focus", "interval": 5055, "value": "off", "timestamp": 1516820369445}, {"eventtype": "focus", "interval": 3, "value": "on", "timestamp": 1516820369448}, {"eventtype": "window_resize", "interval": 2378, "value": [1366, 677], "timestamp": 1516820371826}, {"eventtype": "window_resize", "interval": 1287386, "value": [1362, 509], "timestamp": 1516821659212}, {"eventtype": "window_resize", "interval": 2454, "value": [1366, 677], "timestamp": 1516821661666}, {"eventtype": "window_resize", "interval": 136044, "value": [1362, 509], "timestamp": 1516821797710}, {"eventtype": "window_resize", "interval": 7320, "value": [1366, 677], "timestamp": 1516821805030}, {"eventtype": "window_resize", "interval": 67488, "value": [1362, 509], "timestamp": 1516821872518}, {"eventtype": "focus", "interval": 3722, "value": "off", "timestamp": 1516821876240}, {"eventtype": "focus", "interval": 38551, "value": "on", "timestamp": 1516821914791}, {"eventtype": "window_resize", "interval": 2289, "value": [1366, 677], "timestamp": 1516821917080}, {"eventtype": "window_resize", "interval": 115910, "value": [1362, 509], "timestamp": 1516822032990}, {"eventtype": "focus", "interval": 3995, "value": "off", "timestamp": 1516822036985}, {"eventtype": "focus", "interval": 10040, "value": "on", "timestamp": 1516822047025}, {"eventtype": "window_resize", "interval": 1819, "value": [1366, 677], "timestamp": 1516822048844}, {"eventtype": "window_resize", "interval": 265542, "value": [1362, 509], "timestamp": 1516822314386}, {"eventtype": "focus", "interval": 997, "value": "off", "timestamp": 1516822315383}, {"eventtype": "focus", "interval": 45133, "value": "on", "timestamp": 1516822360516}, {"eventtype": "window_resize", "interval": 1463, "value": [1366, 677], "timestamp": 1516822361979}, {"eventtype": "window_resize", "interval": 131740, "value": [1362, 509], "timestamp": 1516822493719}, {"eventtype": "window_resize", "interval": 3168, "value": [1366, 677], "timestamp": 1516822496887}], "data": [{"current_trial": 0, "trialdata": {"rt": 6330, "trial_type": "text", "internal_node_id": "0.0-0.0", "time_elapsed": 6333, "key_press": 13, "type": "INSTRUCTIONS", "trial_index": 0}, "uniqueid": "MTK2176:38SKSKU7R24SKVRE2HAT0JCPV96ILK", "dateTime": 1516820373691}, {"current_trial": 1, "trialdata": {"rt": 28956, "trial_type": "text", "internal_node_id": "0.0-1.0", "time_elapsed": 35291, "key_press": 13, "type": "INSTRUCTIONS", "trial_index": 1}, "uniqueid": "MTK2176:38SKSKU7R24SKVRE2HAT0JCPV96ILK", "dateTime": 1516820402649}, {"current_trial": 2, "trialdata": {"rt": [4866], "trial_type": "audio-test", "responses": ["ocean"], "internal_node_id": "0.0-2.0", "time_elapsed": 40165, "type": "AUDIO_TEST", "trial_index": 2}, "uniqueid": "MTK2176:38SKSKU7R24SKVRE2HAT0JCPV96ILK", "dateTime": 1516820407523}, {"current_trial": 3, "trialdata": {"rt": [8215], "trial_type": "audio-test", "responses": ["crystal"], "internal_node_id": "0.0-3.0", "time_elapsed": 48384, "type": "AUDIO_TEST", "trial_index": 3}, "uniqueid": "MTK2176:38SKSKU7R24SKVRE2HAT0JCPV96ILK", "dateTime": 1516820415742}, {"current_trial": 4, "trialdata": {"rt": [6044], "trial_type": "audio-test", "responses": ["spice"], "internal_node_id": "0.0-4.0", "time_elapsed": 54432, "type": "AUDIO_TEST", "trial_index": 4}, "uniqueid": "MTK2176:38SKSKU7R24SKVRE2HAT0JCPV96ILK", "dateTime": 1516820421790}, {"current_trial": 5, "trialdata": {"rt": 22264, "trial_type": "survey-text", "responses": "{\"Q0\":\"10:00pm\",\"Q1\":\"5:45am\",\"Q2\":\"5\"}", "internal_node_id": "0.0-5.0", "time_elapsed": 77451, "type": "SLEEP_SURVEY", "trial_index": 5}, "uniqueid": "MTK2176:38SKSKU7R24SKVRE2HAT0JCPV96ILK", "dateTime": 1516820444810}, {"current_trial": 6, "trialdata": {"rt": 47733, "trial_type": "text", "internal_node_id": "0.0-6.0", "time_elapsed": 126186, "key_press": 13, "type": "INSTRUCTIONS", "trial_index": 6}, "uniqueid": "MTK2176:38SKSKU7R24SKVRE2HAT0JCPV96ILK", "dateTime": 1516820493544}, {"current_trial": 7, "trialdata": {"rt": 11768, "trial_type": "text", "internal_node_id": "0.0-7.0", "time_elapsed": 138455, "key_press": 13, "type": "INSTRUCTIONS", "trial_index": 7}, "uniqueid": "MTK2176:38SKSKU7R24SKVRE2HAT0JCPV96ILK", "dateTime": 1516820505813}, {"current_trial": 8, "trialdata": {"rt": 4435, "trial_type": "text", "internal_node_id": "0.0-8.0", "time_elapsed": 143392, "key_press": 13, "type": "INSTRUCTIONS", "trial_index": 8}, "uniqueid": "MTK2176:38SKSKU7R24SKVRE2HAT0JCPV96ILK", "dateTime": 1516820510750}, {"current_trial": 9, "trialdata": {"rt": [3265, 5471, 7448, 9559, 14516, 16779], "trial_type": "math-distractor", "key_times": [2965, 3044, 3265, 5104, 5275, 5471, 7186, 7248, 7448, 9321, 9559, 14231, 14271, 14516, 16448, 16546, 16779, 17966], "responses": ["16", "17", "12", "8", "20", "18"], "num2": [4, 5, 3, 1, 6, 3, 3], "num3": [5, 4, 6, 4, 5, 6, 7], "conditions": [18, 1200, "a", 18000], "internal_node_id": "0.0-9.0", "key_presses": [97, 102, 13, 97, 103, 13, 97, 98, 13, 104, 13, 98, 96, 13, 97, 104, 13, 97], "trial": 0, "time_elapsed": 162403, "type": "DISTRACTOR", "trial_index": 9, "num1": [7, 8, 3, 3, 9, 9, 7]}, "uniqueid": "MTK2176:38SKSKU7R24SKVRE2HAT0JCPV96ILK", "dateTime": 1516820529761}, {"current_trial": 10, "trialdata": {"rt": -1, "trial_type": "single-stim", "stimulus": "<p id=\"stim\">10</p>", "internal_node_id": "0.0-10.0-0.0", "time_elapsed": 165408, "key_press": -1, "trial_index": 10}, "uniqueid": "MTK2176:38SKSKU7R24SKVRE2HAT0JCPV96ILK", "dateTime": 1516820532766}, {"current_trial": 11, "trialdata": {"rt": -1, "trial_type": "single-stim", "stimulus": "<p id=\"stim\">9</p>", "internal_node_id": "0.0-10.0-1.0", "time_elapsed": 166410, "key_press": -1, "trial_index": 11}, "uniqueid": "MTK2176:38SKSKU7R24SKVRE2HAT0JCPV96ILK", "dateTime": 1516820533768}, {"current_trial": 12, "trialdata": {"rt": -1, "trial_type": "single-stim", "stimulus": "<p id=\"stim\">8</p>", "internal_node_id": "0.0-10.0-2.0", "time_elapsed": 167412, "key_press": -1, "trial_index": 12}, "uniqueid": "MTK2176:38SKSKU7R24SKVRE2HAT0JCPV96ILK", "dateTime": 1516820534770}, {"current_trial": 13, "trialdata": {"rt": -1, "trial_type": "single-stim", "stimulus": "<p id=\"stim\">7</p>", "internal_node_id": "0.0-10.0-3.0", "time_elapsed": 168414, "key_press": -1, "trial_index": 13}, "uniqueid": "MTK2176:38SKSKU7R24SKVRE2HAT0JCPV96ILK", "dateTime": 1516820535772}, {"current_trial": 14, "trialdata": {"rt": -1, "trial_type": "single-stim", "stimulus": "<p id=\"stim\">6</p>", "internal_node_id": "0.0-10.0-4.0", "time_elapsed": 169416, "key_press": -1, "trial_index": 14}, "uniqueid": "MTK2176:38SKSKU7R24SKVRE2HAT0JCPV96ILK", "dateTime": 1516820536774}, {"current_trial": 15, "trialdata": {"rt": -1, "trial_type": "single-stim", "stimulus": "<p id=\"stim\">5</p>", "internal_node_id": "0.0-10.0-5.0", "time_elapsed": 170419, "key_press": -1, "trial_index": 15}, "uniqueid": "MTK2176:38SKSKU7R24SKVRE2HAT0JCPV96ILK", "dateTime": 1516820537777}, {"current_trial": 16, "trialdata": {"rt": -1, "trial_type": "single-stim", "stimulus": "<p id=\"stim\">4</p>", "internal_node_id": "0.0-10.0-6.0", "time_elapsed": 171421, "key_press": -1, "trial_index": 16}, "uniqueid": "MTK2176:38SKSKU7R24SKVRE2HAT0JCPV96ILK", "dateTime": 1516820538779}, {"current_trial": 17, "trialdata": {"rt": -1, "trial_type": "single-stim", "stimulus": "<p id=\"stim\">3</p>", "internal_node_id": "0.0-10.0-7.0", "time_elapsed": 172423, "key_press": -1, "trial_index": 17}, "uniqueid": "MTK2176:38SKSKU7R24SKVRE2HAT0JCPV96ILK", "dateTime": 1516820539782}, {"current_trial": 18, "trialdata": {"rt": -1, "trial_type": "single-stim", "stimulus": "<p id=\"stim\">2</p>", "internal_node_id": "0.0-10.0-8.0", "time_elapsed": 173426, "key_press": -1, "trial_index": 18}, "uniqueid": "MTK2176:38SKSKU7R24SKVRE2HAT0JCPV96ILK", "dateTime": 1516820540784}, {"current_trial": 19, "trialdata": {"rt": -1, "trial_type": "single-stim", "stimulus": "<p id=\"stim\">1</p>", "internal_node_id": "0.0-10.0-9.0", "time_elapsed": 174429, "key_press": -1, "trial_index": 19}, "uniqueid": "MTK2176:38SKSKU7R24SKVRE2HAT0JCPV96ILK", "dateTime": 1516820541787}, {"current_trial": 20, "trialdata": {"rt": -1, "trial_type": "single-stim", "stimulus": "<p id=\"stim\">+</p>", "internal_node_id": "0.0-11.0-0.0", "time_elapsed": 175932, "key_press": -1, "type": "FIXATION", "trial_index": 20}, "uniqueid": "MTK2176:38SKSKU7R24SKVRE2HAT0JCPV96ILK", "dateTime": 1516820543290}, {"current_trial": 21, "trialdata": {"rt": -1000, "trial_type": "single-audio", "word": "scissors", "stimulus": "/static/audio/wordpool/SCISSORS.wav", "conditions": [18, 1200, "a", 18000], "internal_node_id": "0.0-12.0", "trial": 0, "time_elapsed": 178272, "serialpos": 0, "key_press": -1, "wordID": 1249, "type": "PRES_AUD", "trial_index": 21}, "uniqueid": "MTK2176:38SKSKU7R24SKVRE2HAT0JCPV96ILK", "dateTime": 1516820545630}, {"current_trial": 22, "trialdata": {"rt": -1000, "trial_type": "single-audio", "word": "sword", "stimulus": "/static/audio/wordpool/SWORD.wav", "conditions": [18, 1200, "a", 18000], "internal_node_id": "0.0-13.0", "trial": 0, "time_elapsed": 180629, "serialpos": 1, "key_press": -1, "wordID": 1422, "type": "PRES_AUD", "trial_index": 22}, "uniqueid": "MTK2176:38SKSKU7R24SKVRE2HAT0JCPV96ILK", "dateTime": 1516820547987}, {"current_trial": 23, "trialdata": {"rt": -1000, "trial_type": "single-audio", "word": "bubble", "stimulus": "/static/audio/wordpool/BUBBLE.wav", "conditions": [18, 1200, "a", 18000], "internal_node_id": "0.0-14.0", "trial": 0, "time_elapsed": 182982, "serialpos": 2, "key_press": -1, "wordID": 182, "type": "PRES_AUD", "trial_index": 23}, "uniqueid": "MTK2176:38SKSKU7R24SKVRE2HAT0JCPV96ILK", "dateTime": 1516820550340}, {"current_trial": 24, "trialdata": {"rt": -1000, "trial_type": "single-audio", "word": "market", "stimulus": "/static/audio/wordpool/MARKET.wav", "conditions": [18, 1200, "a", 18000], "internal_node_id": "0.0-15.0", "trial": 0, "time_elapsed": 185294, "serialpos": 3, "key_press": -1, "wordID": 870, "type": "PRES_AUD", "trial_index": 24}, "uniqueid": "MTK2176:38SKSKU7R24SKVRE2HAT0JCPV96ILK", "dateTime": 1516820552652}, {"current_trial": 25, "trialdata": {"rt": -1000, "trial_type": "single-audio", "word": "headband", "stimulus": "/static/audio/wordpool/HEADBAND.wav", "conditions": [18, 1200, "a", 18000], "internal_node_id": "0.0-16.0", "trial": 0, "time_elapsed": 187400, "serialpos": 4, "key_press": -1, "wordID": 695, "type": "PRES_AUD", "trial_index": 25}, "uniqueid": "MTK2176:38SKSKU7R24SKVRE2HAT0JCPV96ILK", "dateTime": 1516820554758}, {"current_trial": 26, "trialdata": {"rt": -1000, "trial_type": "single-audio", "word": "velvet", "stimulus": "/static/audio/wordpool/VELVET.wav", "conditions": [18, 1200, "a", 18000], "internal_node_id": "0.0-17.0", "trial": 0, "time_elapsed": 189637, "serialpos": 5, "key_press": -1, "wordID": 1554, "type": "PRES_AUD", "trial_index": 26}, "uniqueid": "MTK2176:38SKSKU7R24SKVRE2HAT0JCPV96ILK", "dateTime": 1516820556996}, {"current_trial": 27, "trialdata": {"rt": -1000, "trial_type": "single-audio", "word": "scalpel", "stimulus": "/static/audio/wordpool/SCALPEL.wav", "conditions": [18, 1200, "a", 18000], "internal_node_id": "0.0-18.0", "trial": 0, "time_elapsed": 191793, "serialpos": 6, "key_press": -1, "wordID": 1242, "type": "PRES_AUD", "trial_index": 27}, "uniqueid": "MTK2176:38SKSKU7R24SKVRE2HAT0JCPV96ILK", "dateTime": 1516820559151}, {"current_trial": 28, "trialdata": {"rt": -1000, "trial_type": "single-audio", "word": "tart", "stimulus": "/static/audio/wordpool/TART.wav", "conditions": [18, 1200, "a", 18000], "internal_node_id": "0.0-19.0", "trial": 0, "time_elapsed": 193898, "serialpos": 7, "key_press": -1, "wordID": 1435, "type": "PRES_AUD", "trial_index": 28}, "uniqueid": "MTK2176:38SKSKU7R24SKVRE2HAT0JCPV96ILK", "dateTime": 1516820561257}, {"current_trial": 29, "trialdata": {"rt": -1000, "trial_type": "single-audio", "word": "branch", "stimulus": "/static/audio/wordpool/BRANCH.wav", "conditions": [18, 1200, "a", 18000], "internal_node_id": "0.0-20.0", "trial": 0, "time_elapsed": 196207, "serialpos": 8, "key_press": -1, "wordID": 167, "type": "PRES_AUD", "trial_index": 29}, "uniqueid": "MTK2176:38SKSKU7R24SKVRE2HAT0JCPV96ILK", "dateTime": 1516820563565}, {"current_trial": 30, "trialdata": {"rt": -1000, "trial_type": "single-audio", "word": "cloud", "stimulus": "/static/audio/wordpool/CLOUD.wav", "conditions": [18, 1200, "a", 18000], "internal_node_id": "0.0-21.0", "trial": 0, "time_elapsed": 198407, "serialpos": 9, "key_press": -1, "wordID": 327, "type": "PRES_AUD", "trial_index": 30}, "uniqueid": "MTK2176:38SKSKU7R24SKVRE2HAT0JCPV96ILK", "dateTime": 1516820565765}, {"current_trial": 31, "trialdata": {"rt": -1000, "trial_type": "single-audio", "word": "machine", "stimulus": "/static/audio/wordpool/MACHINE.wav", "conditions": [18, 1200, "a", 18000], "internal_node_id": "0.0-22.0", "trial": 0, "time_elapsed": 200580, "serialpos": 10, "key_press": -1, "wordID": 851, "type": "PRES_AUD", "trial_index": 31}, "uniqueid": "MTK2176:38SKSKU7R24SKVRE2HAT0JCPV96ILK", "dateTime": 1516820567938}, {"current_trial": 32, "trialdata": {"rt": -1000, "trial_type": "single-audio", "word": "receipt", "stimulus": "/static/audio/wordpool/RECEIPT.wav", "conditions": [18, 1200, "a", 18000], "internal_node_id": "0.0-23.0", "trial": 0, "time_elapsed": 202979, "serialpos": 11, "key_press": -1, "wordID": 1172, "type": "PRES_AUD", "trial_index": 32}, "uniqueid": "MTK2176:38SKSKU7R24SKVRE2HAT0JCPV96ILK", "dateTime": 1516820570337}, {"current_trial": 33, "trialdata": {"rt": -1000, "trial_type": "single-audio", "word": "shoulder", "stimulus": "/static/audio/wordpool/SHOULDER.wav", "conditions": [18, 1200, "a", 18000], "internal_node_id": "0.0-24.0", "trial": 0, "time_elapsed": 205137, "serialpos": 12, "key_press": -1, "wordID": 1293, "type": "PRES_AUD", "trial_index": 33}, "uniqueid": "MTK2176:38SKSKU7R24SKVRE2HAT0JCPV96ILK", "dateTime": 1516820572495}, {"current_trial": 34, "trialdata": {"rt": -1000, "trial_type": "single-audio", "word": "fireplace", "stimulus": "/static/audio/wordpool/FIREPLACE.wav", "conditions": [18, 1200, "a", 18000], "internal_node_id": "0.0-25.0", "trial": 0, "time_elapsed": 207216, "serialpos": 13, "key_press": -1, "wordID": 569, "type": "PRES_AUD", "trial_index": 34}, "uniqueid": "MTK2176:38SKSKU7R24SKVRE2HAT0JCPV96ILK", "dateTime": 1516820574574}, {"current_trial": 35, "trialdata": {"rt": -1000, "trial_type": "single-audio", "word": "sister", "stimulus": "/static/audio/wordpool/SISTER.wav", "conditions": [18, 1200, "a", 18000], "internal_node_id": "0.0-26.0", "trial": 0, "time_elapsed": 209273, "serialpos": 14, "key_press": -1, "wordID": 1311, "type": "PRES_AUD", "trial_index": 35}, "uniqueid": "MTK2176:38SKSKU7R24SKVRE2HAT0JCPV96ILK", "dateTime": 1516820576631}, {"current_trial": 36, "trialdata": {"rt": -1000, "trial_type": "single-audio", "word": "beaker", "stimulus": "/static/audio/wordpool/BEAKER.wav", "conditions": [18, 1200, "a", 18000], "internal_node_id": "0.0-27.0", "trial": 0, "time_elapsed": 211582, "serialpos": 15, "key_press": -1, "wordID": 103, "type": "PRES_AUD", "trial_index": 36}, "uniqueid": "MTK2176:38SKSKU7R24SKVRE2HAT0JCPV96ILK", "dateTime": 1516820578941}, {"current_trial": 37, "trialdata": {"rt": -1000, "trial_type": "single-audio", "word": "spouse", "stimulus": "/static/audio/wordpool/SPOUSE.wav", "conditions": [18, 1200, "a", 18000], "internal_node_id": "0.0-28.0", "trial": 0, "time_elapsed": 213907, "serialpos": 16, "key_press": -1, "wordID": 1357, "type": "PRES_AUD", "trial_index": 37}, "uniqueid": "MTK2176:38SKSKU7R24SKVRE2HAT0JCPV96ILK", "dateTime": 1516820581266}, {"current_trial": 38, "trialdata": {"rt": -1000, "trial_type": "single-audio", "word": "convict", "stimulus": "/static/audio/wordpool/CONVICT.wav", "conditions": [18, 1200, "a", 18000], "internal_node_id": "0.0-29.0", "trial": 0, "time_elapsed": 215976, "serialpos": 17, "key_press": -1, "wordID": 370, "type": "PRES_AUD", "trial_index": 38}, "uniqueid": "MTK2176:38SKSKU7R24SKVRE2HAT0JCPV96ILK", "dateTime": 1516820583334}, {"current_trial": 39, "trialdata": {"rt": -1, "trial_type": "single-stim", "stimulus": "", "internal_node_id": "0.0-30.0-0.0", "time_elapsed": 217275, "key_press": -1, "type": "PRE_RECALL_DELAY", "trial_index": 39}, "uniqueid": "MTK2176:38SKSKU7R24SKVRE2HAT0JCPV96ILK", "dateTime": 1516820584633}, {"current_trial": 40, "trialdata": {"rt": -1000, "trial_type": "single-audio", "stimulus": "/static/audio/400Hz.wav", "internal_node_id": "0.0-31.0", "time_elapsed": 217776, "key_press": -1, "type": "PRE_RECALL_ALERT", "trial_index": 40}, "uniqueid": "MTK2176:38SKSKU7R24SKVRE2HAT0JCPV96ILK", "dateTime": 1516820585134}, {"current_trial": 41, "trialdata": {"rt": [1742, 2983, 5549, 6851, 7761, 8760, 11007, 12600, 14198, 18990, 31123, 47565, 50251, 53681, 55245, 56740], "recwords": ["sister", "spouce", "spouse", "convict", "chart", "bubble", "shoulder", "sword", "scissors", "velvet", "scalpel", "bubble", "convict", "scalpel", "shoulder", ""], "key_times": [1011, 1107, 1161, 1313, 1414, 1533, 1742, 2228, 2318, 2439, 2574, 2730, 2834, 2983, 3151, 3262, 3934, 4061, 4205, 4403, 4494, 4640, 4805, 5243, 5328, 5549, 5946, 6029, 6120, 6293, 6373, 6483, 6699, 6851, 7131, 7231, 7339, 7436, 7592, 7761, 8147, 8219, 8315, 8451, 8537, 8630, 8760, 9287, 10106, 10150, 10269, 10405, 10626, 10781, 10871, 11007, 11269, 11801, 11922, 12118, 12332, 12600, 13096, 13262, 13359, 13490, 13628, 13699, 13874, 14030, 14198, 18052, 18131, 18252, 18487, 18537, 18778, 18990, 29882, 29994, 30123, 30294, 30692, 30783, 30900, 31123, 46858, 46926, 47083, 47230, 47311, 47425, 47565, 49196, 49261, 49350, 49503, 49604, 49724, 49891, 50251, 52018, 52640, 52927, 52990, 53193, 53293, 53391, 53681, 54223, 54284, 54356, 54485, 54599, 54721, 54874, 54992, 55245, 56740], "trial_type": "free-recall", "conditions": [18, 1200, "a", 18000], "internal_node_id": "0.0-32.0-0.0", "key_presses": [83, 73, 83, 84, 69, 82, 13, 83, 80, 79, 85, 67, 69, 13, 67, 79, 8, 8, 8, 83, 80, 79, 85, 83, 69, 13, 67, 79, 78, 86, 73, 67, 84, 13, 67, 72, 65, 82, 84, 13, 66, 85, 66, 66, 76, 69, 13, 83, 72, 79, 85, 76, 68, 69, 82, 13, 83, 87, 79, 82, 68, 13, 83, 67, 73, 83, 83, 79, 82, 83, 13, 86, 69, 76, 86, 69, 84, 13, 83, 67, 65, 76, 80, 69, 76, 13, 66, 85, 66, 66, 76, 69, 13, 67, 79, 78, 86, 73, 67, 84, 13, 83, 67, 65, 76, 80, 69, 76, 13, 83, 72, 79, 85, 76, 68, 69, 82, 13, 13], "trial": 0, "time_elapsed": 277779, "type": "FREE_RECALL", "trial_index": 41}, "uniqueid": "MTK2176:38SKSKU7R24SKVRE2HAT0JCPV96ILK", "dateTime": 1516820645140}, {"current_trial": 42, "trialdata": {"rt": 435, "trial_type": "text", "internal_node_id": "0.0-33.0", "time_elapsed": 280219, "key_press": 67, "type": "INSTRUCTIONS", "trial_index": 42}, "uniqueid": "MTK2176:38SKSKU7R24SKVRE2HAT0JCPV96ILK", "dateTime": 1516820647577}, {"current_trial": 43, "trialdata": {"rt": [2060, 4112, 7019, 10215, 11698, 13767, 15606, 17176], "trial_type": "math-distractor", "key_times": [1788, 1866, 2060, 3717, 3884, 4112, 6714, 6840, 7019, 9912, 10015, 10215, 11412, 11498, 11698, 13448, 13588, 13767, 15025, 15131, 15606, 16965, 17176], "responses": ["13", "17", "14", "11", "13", "15", "11", "7"], "num2": [7, 6, 7, 2, 9, 3, 2, 5, 7], "num3": [7, 7, 2, 3, 3, 4, 2, 1, 7], "conditions": [18, 1200, "a", 18000], "internal_node_id": "0.0-34.0", "key_presses": [97, 99, 13, 97, 103, 13, 97, 100, 13, 97, 97, 13, 97, 99, 13, 97, 101, 13, 97, 97, 13, 103, 13], "trial": 1, "time_elapsed": 300224, "type": "DISTRACTOR", "trial_index": 43, "num1": [3, 4, 5, 6, 1, 8, 7, 1, 2]}, "uniqueid": "MTK2176:38SKSKU7R24SKVRE2HAT0JCPV96ILK", "dateTime": 1516820667582}, {"current_trial": 44, "trialdata": {"rt": -1, "trial_type": "single-stim", "stimulus": "<p id=\"stim\">10</p>", "internal_node_id": "0.0-35.0-0.0", "time_elapsed": 303226, "key_press": -1, "trial_index": 44}, "uniqueid": "MTK2176:38SKSKU7R24SKVRE2HAT0JCPV96ILK", "dateTime": 1516820670584}, {"current_trial": 45, "trialdata": {"rt": -1, "trial_type": "single-stim", "stimulus": "<p id=\"stim\">9</p>", "internal_node_id": "0.0-35.0-1.0", "time_elapsed": 304228, "key_press": -1, "trial_index": 45}, "uniqueid": "MTK2176:38SKSKU7R24SKVRE2HAT0JCPV96ILK", "dateTime": 1516820671586}, {"current_trial": 46, "trialdata": {"rt": 170, "trial_type": "single-stim", "stimulus": "<p id=\"stim\">8</p>", "internal_node_id": "0.0-35.0-2.0", "time_elapsed": 305229, "key_press": 13, "trial_index": 46}, "uniqueid": "MTK2176:38SKSKU7R24SKVRE2HAT0JCPV96ILK", "dateTime": 1516820672588}, {"current_trial": 47, "trialdata": {"rt": -1, "trial_type": "single-stim", "stimulus": "<p id=\"stim\">7</p>", "internal_node_id": "0.0-35.0-3.0", "time_elapsed": 306230, "key_press": -1, "trial_index": 47}, "uniqueid": "MTK2176:38SKSKU7R24SKVRE2HAT0JCPV96ILK", "dateTime": 1516820673588}, {"current_trial": 48, "trialdata": {"rt": -1, "trial_type": "single-stim", "stimulus": "<p id=\"stim\">6</p>", "internal_node_id": "0.0-35.0-4.0", "time_elapsed": 307233, "key_press": -1, "trial_index": 48}, "uniqueid": "MTK2176:38SKSKU7R24SKVRE2HAT0JCPV96ILK", "dateTime": 1516820674591}, {"current_trial": 49, "trialdata": {"rt": -1, "trial_type": "single-stim", "stimulus": "<p id=\"stim\">5</p>", "internal_node_id": "0.0-35.0-5.0", "time_elapsed": 308234, "key_press": -1, "trial_index": 49}, "uniqueid": "MTK2176:38SKSKU7R24SKVRE2HAT0JCPV96ILK", "dateTime": 1516820675592}, {"current_trial": 50, "trialdata": {"rt": -1, "trial_type": "single-stim", "stimulus": "<p id=\"stim\">4</p>", "internal_node_id": "0.0-35.0-6.0", "time_elapsed": 309235, "key_press": -1, "trial_index": 50}, "uniqueid": "MTK2176:38SKSKU7R24SKVRE2HAT0JCPV96ILK", "dateTime": 1516820676593}, {"current_trial": 51, "trialdata": {"rt": -1, "trial_type": "single-stim", "stimulus": "<p id=\"stim\">3</p>", "internal_node_id": "0.0-35.0-7.0", "time_elapsed": 310237, "key_press": -1, "trial_index": 51}, "uniqueid": "MTK2176:38SKSKU7R24SKVRE2HAT0JCPV96ILK", "dateTime": 1516820677595}, {"current_trial": 52, "trialdata": {"rt": -1, "trial_type": "single-stim", "stimulus": "<p id=\"stim\">2</p>", "internal_node_id": "0.0-35.0-8.0", "time_elapsed": 311239, "key_press": -1, "trial_index": 52}, "uniqueid": "MTK2176:38SKSKU7R24SKVRE2HAT0JCPV96ILK", "dateTime": 1516820678598}, {"current_trial": 53, "trialdata": {"rt": -1, "trial_type": "single-stim", "stimulus": "<p id=\"stim\">1</p>", "internal_node_id": "0.0-35.0-9.0", "time_elapsed": 312241, "key_press": -1, "trial_index": 53}, "uniqueid": "MTK2176:38SKSKU7R24SKVRE2HAT0JCPV96ILK", "dateTime": 1516820679600}, {"current_trial": 54, "trialdata": {"rt": -1, "trial_type": "single-stim", "stimulus": "<p id=\"stim\">+</p>", "internal_node_id": "0.0-36.0-0.0", "time_elapsed": 313745, "key_press": -1, "type": "FIXATION", "trial_index": 54}, "uniqueid": "MTK2176:38SKSKU7R24SKVRE2HAT0JCPV96ILK", "dateTime": 1516820681103}, {"current_trial": 55, "trialdata": {"rt": -1000, "trial_type": "single-audio", "word": "panther", "stimulus": "/static/audio/wordpool/PANTHER.wav", "conditions": [18, 1200, "a", 18000], "internal_node_id": "0.0-37.0", "trial": 1, "time_elapsed": 315754, "serialpos": 0, "key_press": -1, "wordID": 1008, "type": "PRES_AUD", "trial_index": 55}, "uniqueid": "MTK2176:38SKSKU7R24SKVRE2HAT0JCPV96ILK", "dateTime": 1516820683112}, {"current_trial": 56, "trialdata": {"rt": -1000, "trial_type": "single-audio", "word": "missile", "stimulus": "/static/audio/wordpool/MISSILE.wav", "conditions": [18, 1200, "a", 18000], "internal_node_id": "0.0-38.0", "trial": 1, "time_elapsed": 318061, "serialpos": 1, "key_press": -1, "wordID": 899, "type": "PRES_AUD", "trial_index": 56}, "uniqueid": "MTK2176:38SKSKU7R24SKVRE2HAT0JCPV96ILK", "dateTime": 1516820685420}, {"current_trial": 57, "trialdata": {"rt": -1000, "trial_type": "single-audio", "word": "forehead", "stimulus": "/static/audio/wordpool/FOREHEAD.wav", "conditions": [18, 1200, "a", 18000], "internal_node_id": "0.0-39.0", "trial": 1, "time_elapsed": 320301, "serialpos": 2, "key_press": -1, "wordID": 591, "type": "PRES_AUD", "trial_index": 57}, "uniqueid": "MTK2176:38SKSKU7R24SKVRE2HAT0JCPV96ILK", "dateTime": 1516820687659}, {"current_trial": 58, "trialdata": {"rt": -1000, "trial_type": "single-audio", "word": "scribble", "stimulus": "/static/audio/wordpool/SCRIBBLE.wav", "conditions": [18, 1200, "a", 18000], "internal_node_id": "0.0-40.0", "trial": 1, "time_elapsed": 322450, "serialpos": 3, "key_press": -1, "wordID": 1255, "type": "PRES_AUD", "trial_index": 58}, "uniqueid": "MTK2176:38SKSKU7R24SKVRE2HAT0JCPV96ILK", "dateTime": 1516820689808}, {"current_trial": 59, "trialdata": {"rt": -1000, "trial_type": "single-audio", "word": "lettuce", "stimulus": "/static/audio/wordpool/LETTUCE.wav", "conditions": [18, 1200, "a", 18000], "internal_node_id": "0.0-41.0", "trial": 1, "time_elapsed": 324482, "serialpos": 4, "key_press": -1, "wordID": 813, "type": "PRES_AUD", "trial_index": 59}, "uniqueid": "MTK2176:38SKSKU7R24SKVRE2HAT0JCPV96ILK", "dateTime": 1516820691841}, {"current_trial": 60, "trialdata": {"rt": -1000, "trial_type": "single-audio", "word": "hostess", "stimulus": "/static/audio/wordpool/HOSTESS.wav", "conditions": [18, 1200, "a", 18000], "internal_node_id": "0.0-42.0", "trial": 1, "time_elapsed": 326692, "serialpos": 5, "key_press": -1, "wordID": 722, "type": "PRES_AUD", "trial_index": 60}, "uniqueid": "MTK2176:38SKSKU7R24SKVRE2HAT0JCPV96ILK", "dateTime": 1516820694050}, {"current_trial": 61, "trialdata": {"rt": -1000, "trial_type": "single-audio", "word": "soda", "stimulus": "/static/audio/wordpool/SODA.wav", "conditions": [18, 1200, "a", 18000], "internal_node_id": "0.0-43.0", "trial": 1, "time_elapsed": 328772, "serialpos": 6, "key_press": -1, "wordID": 1340, "type": "PRES_AUD", "trial_index": 61}, "uniqueid": "MTK2176:38SKSKU7R24SKVRE2HAT0JCPV96ILK", "dateTime": 1516820696130}, {"current_trial": 62, "trialdata": {"rt": -1000, "trial_type": "single-audio", "word": "cigar", "stimulus": "/static/audio/wordpool/CIGAR.wav", "conditions": [18, 1200, "a", 18000], "internal_node_id": "0.0-44.0", "trial": 1, "time_elapsed": 331030, "serialpos": 7, "key_press": -1, "wordID": 307, "type": "PRES_AUD", "trial_index": 62}, "uniqueid": "MTK2176:38SKSKU7R24SKVRE2HAT0JCPV96ILK", "dateTime": 1516820698388}, {"current_trial": 63, "trialdata": {"rt": -1000, "trial_type": "single-audio", "word": "fruit", "stimulus": "/static/audio/wordpool/FRUIT.wav", "conditions": [18, 1200, "a", 18000], "internal_node_id": "0.0-45.0", "trial": 1, "time_elapsed": 333152, "serialpos": 8, "key_press": -1, "wordID": 609, "type": "PRES_AUD", "trial_index": 63}, "uniqueid": "MTK2176:38SKSKU7R24SKVRE2HAT0JCPV96ILK", "dateTime": 1516820700510}, {"current_trial": 64, "trialdata": {"rt": -1000, "trial_type": "single-audio", "word": "cocoon", "stimulus": "/static/audio/wordpool/COCOON.wav", "conditions": [18, 1200, "a", 18000], "internal_node_id": "0.0-46.0", "trial": 1, "time_elapsed": 335186, "serialpos": 9, "key_press": -1, "wordID": 338, "type": "PRES_AUD", "trial_index": 64}, "uniqueid": "MTK2176:38SKSKU7R24SKVRE2HAT0JCPV96ILK", "dateTime": 1516820702545}, {"current_trial": 65, "trialdata": {"rt": -1000, "trial_type": "single-audio", "word": "freezer", "stimulus": "/static/audio/wordpool/FREEZER.wav", "conditions": [18, 1200, "a", 18000], "internal_node_id": "0.0-47.0", "trial": 1, "time_elapsed": 337586, "serialpos": 10, "key_press": -1, "wordID": 603, "type": "PRES_AUD", "trial_index": 65}, "uniqueid": "MTK2176:38SKSKU7R24SKVRE2HAT0JCPV96ILK", "dateTime": 1516820704945}, {"current_trial": 66, "trialdata": {"rt": -1000, "trial_type": "single-audio", "word": "student", "stimulus": "/static/audio/wordpool/STUDENT.wav", "conditions": [18, 1200, "a", 18000], "internal_node_id": "0.0-48.0", "trial": 1, "time_elapsed": 339848, "serialpos": 11, "key_press": -1, "wordID": 1394, "type": "PRES_AUD", "trial_index": 66}, "uniqueid": "MTK2176:38SKSKU7R24SKVRE2HAT0JCPV96ILK", "dateTime": 1516820707206}, {"current_trial": 67, "trialdata": {"rt": -1000, "trial_type": "single-audio", "word": "picnic", "stimulus": "/static/audio/wordpool/PICNIC.wav", "conditions": [18, 1200, "a", 18000], "internal_node_id": "0.0-49.0", "trial": 1, "time_elapsed": 342204, "serialpos": 12, "key_press": -1, "wordID": 1059, "type": "PRES_AUD", "trial_index": 67}, "uniqueid": "MTK2176:38SKSKU7R24SKVRE2HAT0JCPV96ILK", "dateTime": 1516820709563}, {"current_trial": 68, "trialdata": {"rt": -1000, "trial_type": "single-audio", "word": "rug", "stimulus": "/static/audio/wordpool/RUG.wav", "conditions": [18, 1200, "a", 18000], "internal_node_id": "0.0-50.0", "trial": 1, "time_elapsed": 344398, "serialpos": 13, "key_press": -1, "wordID": 1214, "type": "PRES_AUD", "trial_index": 68}, "uniqueid": "MTK2176:38SKSKU7R24SKVRE2HAT0JCPV96ILK", "dateTime": 1516820711761}, {"current_trial": 69, "trialdata": {"rt": -1000, "trial_type": "single-audio", "word": "eagle", "stimulus": "/static/audio/wordpool/EAGLE.wav", "conditions": [18, 1200, "a", 18000], "internal_node_id": "0.0-51.0", "trial": 1, "time_elapsed": 346627, "serialpos": 14, "key_press": -1, "wordID": 511, "type": "PRES_AUD", "trial_index": 69}, "uniqueid": "MTK2176:38SKSKU7R24SKVRE2HAT0JCPV96ILK", "dateTime": 1516820713986}, {"current_trial": 70, "trialdata": {"rt": -1000, "trial_type": "single-audio", "word": "thief", "stimulus": "/static/audio/wordpool/THIEF.wav", "conditions": [18, 1200, "a", 18000], "internal_node_id": "0.0-52.0", "trial": 1, "time_elapsed": 348969, "serialpos": 15, "key_press": -1, "wordID": 1455, "type": "PRES_AUD", "trial_index": 70}, "uniqueid": "MTK2176:38SKSKU7R24SKVRE2HAT0JCPV96ILK", "dateTime": 1516820716327}, {"current_trial": 71, "trialdata": {"rt": -1000, "trial_type": "single-audio", "word": "eyelash", "stimulus": "/static/audio/wordpool/EYELASH.wav", "conditions": [18, 1200, "a", 18000], "internal_node_id": "0.0-53.0", "trial": 1, "time_elapsed": 351339, "serialpos": 16, "key_press": -1, "wordID": 545, "type": "PRES_AUD", "trial_index": 71}, "uniqueid": "MTK2176:38SKSKU7R24SKVRE2HAT0JCPV96ILK", "dateTime": 1516820718698}, {"current_trial": 72, "trialdata": {"rt": -1000, "trial_type": "single-audio", "word": "journal", "stimulus": "/static/audio/wordpool/JOURNAL.wav", "conditions": [18, 1200, "a", 18000], "internal_node_id": "0.0-54.0", "trial": 1, "time_elapsed": 353412, "serialpos": 17, "key_press": -1, "wordID": 759, "type": "PRES_AUD", "trial_index": 72}, "uniqueid": "MTK2176:38SKSKU7R24SKVRE2HAT0JCPV96ILK", "dateTime": 1516820720771}, {"current_trial": 73, "trialdata": {"rt": -1, "trial_type": "single-stim", "stimulus": "", "internal_node_id": "0.0-55.0-0.0", "time_elapsed": 354658, "key_press": -1, "type": "PRE_RECALL_DELAY", "trial_index": 73}, "uniqueid": "MTK2176:38SKSKU7R24SKVRE2HAT0JCPV96ILK", "dateTime": 1516820722016}, {"current_trial": 74, "trialdata": {"rt": -1000, "trial_type": "single-audio", "stimulus": "/static/audio/400Hz.wav", "internal_node_id": "0.0-56.0", "time_elapsed": 355160, "key_press": -1, "type": "PRE_RECALL_ALERT", "trial_index": 74}, "uniqueid": "MTK2176:38SKSKU7R24SKVRE2HAT0JCPV96ILK", "dateTime": 1516820722518}, {"current_trial": 75, "trialdata": {"rt": [4575, 5880, 9109, 13009, 20888, 27479], "recwords": ["journal", "eyelash", "hostess", "journal", "hamper", "juggle"], "key_times": [1028, 1148, 1205, 1310, 1431, 1454, 1512, 1607, 2398, 2527, 2673, 2814, 2997, 3985, 4053, 4156, 4233, 4575, 4984, 5094, 5158, 5256, 5352, 5518, 5629, 5880, 8253, 8322, 8373, 8528, 8608, 8786, 8923, 9109, 11551, 11646, 11725, 11828, 11920, 11994, 12835, 13009, 19580, 19669, 19748, 20576, 20651, 20735, 20888, 26785, 26936, 27050, 27178, 27239, 27346, 27479], "trial_type": "free-recall", "conditions": [18, 1200, "a", 18000], "internal_node_id": "0.0-57.0-0.0", "key_presses": [74, 79, 85, 82, 66, 78, 65, 76, 8, 8, 8, 8, 8, 82, 78, 65, 76, 13, 69, 89, 69, 76, 65, 83, 72, 13, 72, 79, 83, 84, 69, 83, 83, 13, 74, 79, 85, 82, 78, 65, 76, 13, 72, 65, 77, 80, 69, 82, 13, 74, 85, 71, 71, 76, 69, 13], "trial": 1, "time_elapsed": 415165, "type": "FREE_RECALL", "trial_index": 75}, "uniqueid": "MTK2176:38SKSKU7R24SKVRE2HAT0JCPV96ILK", "dateTime": 1516820782528}, {"current_trial": 76, "trialdata": {"rt": 2591, "trial_type": "text", "internal_node_id": "0.0-58.0", "time_elapsed": 419763, "key_press": 13, "type": "INSTRUCTIONS", "trial_index": 76}, "uniqueid": "MTK2176:38SKSKU7R24SKVRE2HAT0JCPV96ILK", "dateTime": 1516820787122}, {"current_trial": 77, "trialdata": {"rt": [2314, 3861, 7321, 9321, 11255, 13106, 15274, 18307, 20212, 21411, 23923], "trial_type": "math-distractor", "key_times": [2057, 2129, 2314, 3608, 3667, 3861, 7023, 7145, 7321, 9015, 9104, 9321, 10610, 10754, 11255, 12722, 12914, 13106, 14907, 15053, 15274, 17918, 18089, 18307, 19874, 19988, 20212, 21241, 21411, 23621, 23782, 23923], "responses": ["16", "16", "11", "12", "10", "13", "19", "19", "19", "6", "21"], "num2": [6, 5, 2, 5, 2, 5, 9, 7, 7, 2, 5, 8], "num3": [4, 6, 4, 1, 4, 7, 7, 8, 5, 2, 9, 5], "conditions": [24, 800, "a", 24000], "internal_node_id": "0.0-59.0", "key_presses": [97, 102, 13, 97, 102, 13, 97, 97, 13, 97, 98, 13, 97, 96, 13, 97, 99, 13, 97, 105, 13, 97, 105, 13, 97, 105, 13, 102, 13, 98, 97, 13], "trial": 2, "time_elapsed": 444769, "type": "DISTRACTOR", "trial_index": 77, "num1": [6, 5, 5, 6, 4, 1, 3, 4, 7, 2, 7, 9]}, "uniqueid": "MTK2176:38SKSKU7R24SKVRE2HAT0JCPV96ILK", "dateTime": 1516820812127}, {"current_trial": 78, "trialdata": {"rt": -1, "trial_type": "single-stim", "stimulus": "<p id=\"stim\">10</p>", "internal_node_id": "0.0-60.0-0.0", "time_elapsed": 447773, "key_press": -1, "trial_index": 78}, "uniqueid": "MTK2176:38SKSKU7R24SKVRE2HAT0JCPV96ILK", "dateTime": 1516820815131}, {"current_trial": 79, "trialdata": {"rt": -1, "trial_type": "single-stim", "stimulus": "<p id=\"stim\">9</p>", "internal_node_id": "0.0-60.0-1.0", "time_elapsed": 448774, "key_press": -1, "trial_index": 79}, "uniqueid": "MTK2176:38SKSKU7R24SKVRE2HAT0JCPV96ILK", "dateTime": 1516820816133}, {"current_trial": 80, "trialdata": {"rt": -1, "trial_type": "single-stim", "stimulus": "<p id=\"stim\">8</p>", "internal_node_id": "0.0-60.0-2.0", "time_elapsed": 449776, "key_press": -1, "trial_index": 80}, "uniqueid": "MTK2176:38SKSKU7R24SKVRE2HAT0JCPV96ILK", "dateTime": 1516820817134}, {"current_trial": 81, "trialdata": {"rt": -1, "trial_type": "single-stim", "stimulus": "<p id=\"stim\">7</p>", "internal_node_id": "0.0-60.0-3.0", "time_elapsed": 450777, "key_press": -1, "trial_index": 81}, "uniqueid": "MTK2176:38SKSKU7R24SKVRE2HAT0JCPV96ILK", "dateTime": 1516820818135}, {"current_trial": 82, "trialdata": {"rt": -1, "trial_type": "single-stim", "stimulus": "<p id=\"stim\">6</p>", "internal_node_id": "0.0-60.0-4.0", "time_elapsed": 451779, "key_press": -1, "trial_index": 82}, "uniqueid": "MTK2176:38SKSKU7R24SKVRE2HAT0JCPV96ILK", "dateTime": 1516820819138}, {"current_trial": 83, "trialdata": {"rt": -1, "trial_type": "single-stim", "stimulus": "<p id=\"stim\">5</p>", "internal_node_id": "0.0-60.0-5.0", "time_elapsed": 452783, "key_press": -1, "trial_index": 83}, "uniqueid": "MTK2176:38SKSKU7R24SKVRE2HAT0JCPV96ILK", "dateTime": 1516820820141}, {"current_trial": 84, "trialdata": {"rt": -1, "trial_type": "single-stim", "stimulus": "<p id=\"stim\">4</p>", "internal_node_id": "0.0-60.0-6.0", "time_elapsed": 453784, "key_press": -1, "trial_index": 84}, "uniqueid": "MTK2176:38SKSKU7R24SKVRE2HAT0JCPV96ILK", "dateTime": 1516820821142}, {"current_trial": 85, "trialdata": {"rt": -1, "trial_type": "single-stim", "stimulus": "<p id=\"stim\">3</p>", "internal_node_id": "0.0-60.0-7.0", "time_elapsed": 454786, "key_press": -1, "trial_index": 85}, "uniqueid": "MTK2176:38SKSKU7R24SKVRE2HAT0JCPV96ILK", "dateTime": 1516820822145}, {"current_trial": 86, "trialdata": {"rt": -1, "trial_type": "single-stim", "stimulus": "<p id=\"stim\">2</p>", "internal_node_id": "0.0-60.0-8.0", "time_elapsed": 455789, "key_press": -1, "trial_index": 86}, "uniqueid": "MTK2176:38SKSKU7R24SKVRE2HAT0JCPV96ILK", "dateTime": 1516820823147}, {"current_trial": 87, "trialdata": {"rt": -1, "trial_type": "single-stim", "stimulus": "<p id=\"stim\">1</p>", "internal_node_id": "0.0-60.0-9.0", "time_elapsed": 456791, "key_press": -1, "trial_index": 87}, "uniqueid": "MTK2176:38SKSKU7R24SKVRE2HAT0JCPV96ILK", "dateTime": 1516820824149}, {"current_trial": 88, "trialdata": {"rt": -1, "trial_type": "single-stim", "stimulus": "<p id=\"stim\">+</p>", "internal_node_id": "0.0-61.0-0.0", "time_elapsed": 458294, "key_press": -1, "type": "FIXATION", "trial_index": 88}, "uniqueid": "MTK2176:38SKSKU7R24SKVRE2HAT0JCPV96ILK", "dateTime": 1516820825652}, {"current_trial": 89, "trialdata": {"rt": -1000, "trial_type": "single-audio", "word": "brick", "stimulus": "/static/audio/wordpool/BRICK.wav", "conditions": [24, 800, "a", 24000], "internal_node_id": "0.0-62.0", "trial": 2, "time_elapsed": 460237, "serialpos": 0, "key_press": -1, "wordID": 171, "type": "PRES_AUD", "trial_index": 89}, "uniqueid": "MTK2176:38SKSKU7R24SKVRE2HAT0JCPV96ILK", "dateTime": 1516820827595}, {"current_trial": 90, "trialdata": {"rt": -1000, "trial_type": "single-audio", "word": "cabbage", "stimulus": "/static/audio/wordpool/CABBAGE.wav", "conditions": [24, 800, "a", 24000], "internal_node_id": "0.0-63.0", "trial": 2, "time_elapsed": 462216, "serialpos": 1, "key_press": -1, "wordID": 209, "type": "PRES_AUD", "trial_index": 90}, "uniqueid": "MTK2176:38SKSKU7R24SKVRE2HAT0JCPV96ILK", "dateTime": 1516820829574}, {"current_trial": 91, "trialdata": {"rt": -1000, "trial_type": "single-audio", "word": "bullet", "stimulus": "/static/audio/wordpool/BULLET.wav", "conditions": [24, 800, "a", 24000], "internal_node_id": "0.0-64.0", "trial": 2, "time_elapsed": 464122, "serialpos": 2, "key_press": -1, "wordID": 193, "type": "PRES_AUD", "trial_index": 91}, "uniqueid": "MTK2176:38SKSKU7R24SKVRE2HAT0JCPV96ILK", "dateTime": 1516820831480}, {"current_trial": 92, "trialdata": {"rt": -1000, "trial_type": "single-audio", "word": "teacher", "stimulus": "/static/audio/wordpool/TEACHER.wav", "conditions": [24, 800, "a", 24000], "internal_node_id": "0.0-65.0", "trial": 2, "time_elapsed": 465885, "serialpos": 3, "key_press": -1, "wordID": 1439, "type": "PRES_AUD", "trial_index": 92}, "uniqueid": "MTK2176:38SKSKU7R24SKVRE2HAT0JCPV96ILK", "dateTime": 1516820833243}, {"current_trial": 93, "trialdata": {"rt": -1000, "trial_type": "single-audio", "word": "skirt", "stimulus": "/static/audio/wordpool/SKIRT.wav", "conditions": [24, 800, "a", 24000], "internal_node_id": "0.0-66.0", "trial": 2, "time_elapsed": 467773, "serialpos": 4, "key_press": -1, "wordID": 1318, "type": "PRES_AUD", "trial_index": 93}, "uniqueid": "MTK2176:38SKSKU7R24SKVRE2HAT0JCPV96ILK", "dateTime": 1516820835131}, {"current_trial": 94, "trialdata": {"rt": -1000, "trial_type": "single-audio", "word": "hood", "stimulus": "/static/audio/wordpool/HOOD.wav", "conditions": [24, 800, "a", 24000], "internal_node_id": "0.0-67.0", "trial": 2, "time_elapsed": 469559, "serialpos": 5, "key_press": -1, "wordID": 713, "type": "PRES_AUD", "trial_index": 94}, "uniqueid": "MTK2176:38SKSKU7R24SKVRE2HAT0JCPV96ILK", "dateTime": 1516820836917}, {"current_trial": 95, "trialdata": {"rt": -1000, "trial_type": "single-audio", "word": "wrench", "stimulus": "/static/audio/wordpool/WRENCH.wav", "conditions": [24, 800, "a", 24000], "internal_node_id": "0.0-68.0", "trial": 2, "time_elapsed": 471522, "serialpos": 6, "key_press": -1, "wordID": 1624, "type": "PRES_AUD", "trial_index": 95}, "uniqueid": "MTK2176:38SKSKU7R24SKVRE2HAT0JCPV96ILK", "dateTime": 1516820838882}, {"current_trial": 96, "trialdata": {"rt": -1000, "trial_type": "single-audio", "word": "silk", "stimulus": "/static/audio/wordpool/SILK.wav", "conditions": [24, 800, "a", 24000], "internal_node_id": "0.0-69.0", "trial": 2, "time_elapsed": 473325, "serialpos": 7, "key_press": -1, "wordID": 1306, "type": "PRES_AUD", "trial_index": 96}, "uniqueid": "MTK2176:38SKSKU7R24SKVRE2HAT0JCPV96ILK", "dateTime": 1516820840683}, {"current_trial": 97, "trialdata": {"rt": -1000, "trial_type": "single-audio", "word": "lace", "stimulus": "/static/audio/wordpool/LACE.wav", "conditions": [24, 800, "a", 24000], "internal_node_id": "0.0-70.0", "trial": 2, "time_elapsed": 474998, "serialpos": 8, "key_press": -1, "wordID": 791, "type": "PRES_AUD", "trial_index": 97}, "uniqueid": "MTK2176:38SKSKU7R24SKVRE2HAT0JCPV96ILK", "dateTime": 1516820842357}, {"current_trial": 98, "trialdata": {"rt": -1000, "trial_type": "single-audio", "word": "coffee", "stimulus": "/static/audio/wordpool/COFFEE.wav", "conditions": [24, 800, "a", 24000], "internal_node_id": "0.0-71.0", "trial": 2, "time_elapsed": 476857, "serialpos": 9, "key_press": -1, "wordID": 340, "type": "PRES_AUD", "trial_index": 98}, "uniqueid": "MTK2176:38SKSKU7R24SKVRE2HAT0JCPV96ILK", "dateTime": 1516820844215}, {"current_trial": 99, "trialdata": {"rt": -1000, "trial_type": "single-audio", "word": "blouse", "stimulus": "/static/audio/wordpool/BLOUSE.wav", "conditions": [24, 800, "a", 24000], "internal_node_id": "0.0-72.0", "trial": 2, "time_elapsed": 478510, "serialpos": 10, "key_press": -1, "wordID": 138, "type": "PRES_AUD", "trial_index": 99}, "uniqueid": "MTK2176:38SKSKU7R24SKVRE2HAT0JCPV96ILK", "dateTime": 1516820845868}, {"current_trial": 100, "trialdata": {"rt": -1000, "trial_type": "single-audio", "word": "blackboard", "stimulus": "/static/audio/wordpool/BLACKBOARD.wav", "conditions": [24, 800, "a", 24000], "internal_node_id": "0.0-73.0", "trial": 2, "time_elapsed": 480134, "serialpos": 11, "key_press": -1, "wordID": 132, "type": "PRES_AUD", "trial_index": 100}, "uniqueid": "MTK2176:38SKSKU7R24SKVRE2HAT0JCPV96ILK", "dateTime": 1516820847492}, {"current_trial": 101, "trialdata": {"rt": -1000, "trial_type": "single-audio", "word": "river", "stimulus": "/static/audio/wordpool/RIVER.wav", "conditions": [24, 800, "a", 24000], "internal_node_id": "0.0-74.0", "trial": 2, "time_elapsed": 482116, "serialpos": 12, "key_press": -1, "wordID": 1193, "type": "PRES_AUD", "trial_index": 101}, "uniqueid": "MTK2176:38SKSKU7R24SKVRE2HAT0JCPV96ILK", "dateTime": 1516820849474}, {"current_trial": 102, "trialdata": {"rt": -1000, "trial_type": "single-audio", "word": "sunset", "stimulus": "/static/audio/wordpool/SUNSET.wav", "conditions": [24, 800, "a", 24000], "internal_node_id": "0.0-75.0", "trial": 2, "time_elapsed": 484084, "serialpos": 13, "key_press": -1, "wordID": 1407, "type": "PRES_AUD", "trial_index": 102}, "uniqueid": "MTK2176:38SKSKU7R24SKVRE2HAT0JCPV96ILK", "dateTime": 1516820851442}, {"current_trial": 103, "trialdata": {"rt": -1000, "trial_type": "single-audio", "word": "lake", "stimulus": "/static/audio/wordpool/LAKE.wav", "conditions": [24, 800, "a", 24000], "internal_node_id": "0.0-76.0", "trial": 2, "time_elapsed": 485807, "serialpos": 14, "key_press": -1, "wordID": 795, "type": "PRES_AUD", "trial_index": 103}, "uniqueid": "MTK2176:38SKSKU7R24SKVRE2HAT0JCPV96ILK", "dateTime": 1516820853165}, {"current_trial": 104, "trialdata": {"rt": -1000, "trial_type": "single-audio", "word": "blender", "stimulus": "/static/audio/wordpool/BLENDER.wav", "conditions": [24, 800, "a", 24000], "internal_node_id": "0.0-77.0", "trial": 2, "time_elapsed": 487606, "serialpos": 15, "key_press": -1, "wordID": 135, "type": "PRES_AUD", "trial_index": 104}, "uniqueid": "MTK2176:38SKSKU7R24SKVRE2HAT0JCPV96ILK", "dateTime": 1516820854964}, {"current_trial": 105, "trialdata": {"rt": -1000, "trial_type": "single-audio", "word": "bouquet", "stimulus": "/static/audio/wordpool/BOUQUET.wav", "conditions": [24, 800, "a", 24000], "internal_node_id": "0.0-78.0", "trial": 2, "time_elapsed": 489544, "serialpos": 16, "key_press": -1, "wordID": 156, "type": "PRES_AUD", "trial_index": 105}, "uniqueid": "MTK2176:38SKSKU7R24SKVRE2HAT0JCPV96ILK", "dateTime": 1516820856902}, {"current_trial": 106, "trialdata": {"rt": -1000, "trial_type": "single-audio", "word": "motor", "stimulus": "/static/audio/wordpool/MOTOR.wav", "conditions": [24, 800, "a", 24000], "internal_node_id": "0.0-79.0", "trial": 2, "time_elapsed": 491226, "serialpos": 17, "key_press": -1, "wordID": 921, "type": "PRES_AUD", "trial_index": 106}, "uniqueid": "MTK2176:38SKSKU7R24SKVRE2HAT0JCPV96ILK", "dateTime": 1516820858584}, {"current_trial": 107, "trialdata": {"rt": -1000, "trial_type": "single-audio", "word": "trout", "stimulus": "/static/audio/wordpool/TROUT.wav", "conditions": [24, 800, "a", 24000], "internal_node_id": "0.0-80.0", "trial": 2, "time_elapsed": 493021, "serialpos": 18, "key_press": -1, "wordID": 1510, "type": "PRES_AUD", "trial_index": 107}, "uniqueid": "MTK2176:38SKSKU7R24SKVRE2HAT0JCPV96ILK", "dateTime": 1516820860379}, {"current_trial": 108, "trialdata": {"rt": -1000, "trial_type": "single-audio", "word": "gift", "stimulus": "/static/audio/wordpool/GIFT.wav", "conditions": [24, 800, "a", 24000], "internal_node_id": "0.0-81.0", "trial": 2, "time_elapsed": 494856, "serialpos": 19, "key_press": -1, "wordID": 634, "type": "PRES_AUD", "trial_index": 108}, "uniqueid": "MTK2176:38SKSKU7R24SKVRE2HAT0JCPV96ILK", "dateTime": 1516820862214}, {"current_trial": 109, "trialdata": {"rt": -1000, "trial_type": "single-audio", "word": "swamp", "stimulus": "/static/audio/wordpool/SWAMP.wav", "conditions": [24, 800, "a", 24000], "internal_node_id": "0.0-82.0", "trial": 2, "time_elapsed": 496689, "serialpos": 20, "key_press": -1, "wordID": 1415, "type": "PRES_AUD", "trial_index": 109}, "uniqueid": "MTK2176:38SKSKU7R24SKVRE2HAT0JCPV96ILK", "dateTime": 1516820864048}, {"current_trial": 110, "trialdata": {"rt": -1000, "trial_type": "single-audio", "word": "cattle", "stimulus": "/static/audio/wordpool/CATTLE.wav", "conditions": [24, 800, "a", 24000], "internal_node_id": "0.0-83.0", "trial": 2, "time_elapsed": 498486, "serialpos": 21, "key_press": -1, "wordID": 260, "type": "PRES_AUD", "trial_index": 110}, "uniqueid": "MTK2176:38SKSKU7R24SKVRE2HAT0JCPV96ILK", "dateTime": 1516820865844}, {"current_trial": 111, "trialdata": {"rt": -1000, "trial_type": "single-audio", "word": "beef", "stimulus": "/static/audio/wordpool/BEEF.wav", "conditions": [24, 800, "a", 24000], "internal_node_id": "0.0-84.0", "trial": 2, "time_elapsed": 500153, "serialpos": 22, "key_press": -1, "wordID": 112, "type": "PRES_AUD", "trial_index": 111}, "uniqueid": "MTK2176:38SKSKU7R24SKVRE2HAT0JCPV96ILK", "dateTime": 1516820867512}, {"current_trial": 112, "trialdata": {"rt": -1000, "trial_type": "single-audio", "word": "marsh", "stimulus": "/static/audio/wordpool/MARSH.wav", "conditions": [24, 800, "a", 24000], "internal_node_id": "0.0-85.0", "trial": 2, "time_elapsed": 501891, "serialpos": 23, "key_press": -1, "wordID": 873, "type": "PRES_AUD", "trial_index": 112}, "uniqueid": "MTK2176:38SKSKU7R24SKVRE2HAT0JCPV96ILK", "dateTime": 1516820869249}, {"current_trial": 113, "trialdata": {"rt": -1, "trial_type": "single-stim", "stimulus": "", "internal_node_id": "0.0-86.0-0.0", "time_elapsed": 503209, "key_press": -1, "type": "PRE_RECALL_DELAY", "trial_index": 113}, "uniqueid": "MTK2176:38SKSKU7R24SKVRE2HAT0JCPV96ILK", "dateTime": 1516820870569}, {"current_trial": 114, "trialdata": {"rt": -1000, "trial_type": "single-audio", "stimulus": "/static/audio/400Hz.wav", "internal_node_id": "0.0-87.0", "time_elapsed": 503712, "key_press": -1, "type": "PRE_RECALL_ALERT", "trial_index": 114}, "uniqueid": "MTK2176:38SKSKU7R24SKVRE2HAT0JCPV96ILK", "dateTime": 1516820871071}, {"current_trial": 115, "trialdata": {"rt": [2065, 3368, 4691, 6111, 6914, 8774, 9941, 11168, 12710, 13912, 15261, 17153, 20697, 22714, 25234, 27601, 31544, 34477, 36427, 42270, 45473, 50575], "recwords": ["beef", "cattle", "silk", "coffee", "lace", "skirt", "hood", "lake", "blender", "motor", "trout", "marsh", "brick", "teacher", "bullet", "cabbage", "river", "blackboard", "river", "gift", "sunset", "blender"], "key_times": [1528, 1682, 1814, 1951, 2065, 2477, 2599, 2783, 2904, 3036, 3149, 3368, 4187, 4219, 4320, 4466, 4691, 5434, 5519, 5632, 5740, 5868, 6009, 6111, 6316, 6412, 6642, 6700, 6914, 7684, 7760, 7903, 8105, 8448, 8512, 8662, 8774, 9307, 9474, 9606, 9776, 9941, 10799, 10890, 10972, 11051, 11168, 11367, 11446, 11528, 11666, 11780, 11965, 12046, 12710, 13207, 13271, 13591, 13644, 13753, 13912, 14140, 14285, 14350, 14445, 14546, 15261, 15960, 16069, 16156, 16382, 16573, 17153, 19904, 19983, 20071, 20378, 20450, 20697, 21542, 21614, 21705, 22369, 22453, 22542, 22603, 22714, 23241, 23331, 23494, 23629, 23704, 23991, 25234, 25941, 26006, 26130, 26254, 26352, 26473, 26579, 27601, 31000, 31089, 31209, 31378, 31444, 31544, 32763, 32850, 32942, 33094, 33198, 33648, 33740, 33827, 33943, 34167, 34477, 34702, 34862, 35630, 35827, 35913, 36427, 41283, 41581, 41689, 41810, 41913, 42130, 42270, 44596, 44686, 44857, 44932, 45093, 45270, 45473, 49658, 49758, 49878, 49963, 50078, 50297, 50378, 50575, 53463, 54448], "trial_type": "free-recall", "conditions": [24, 800, "a", 24000], "internal_node_id": "0.0-88.0-0.0", "key_presses": [66, 69, 69, 70, 32, 67, 65, 84, 84, 76, 69, 13, 83, 73, 76, 75, 13, 67, 79, 70, 70, 69, 69, 13, 76, 65, 67, 69, 13, 83, 75, 73, 70, 8, 82, 84, 13, 72, 79, 79, 68, 13, 76, 65, 75, 69, 13, 66, 76, 69, 78, 68, 69, 82, 13, 77, 79, 84, 79, 82, 13, 84, 82, 79, 85, 84, 13, 77, 65, 82, 83, 72, 13, 66, 82, 73, 67, 75, 13, 84, 69, 65, 67, 72, 69, 82, 13, 66, 85, 76, 76, 69, 84, 13, 67, 65, 66, 66, 65, 71, 69, 13, 82, 73, 86, 69, 82, 13, 66, 76, 65, 67, 75, 66, 79, 65, 82, 68, 13, 82, 73, 86, 69, 82, 13, 73, 8, 71, 73, 70, 84, 13, 83, 85, 78, 83, 69, 84, 13, 66, 76, 69, 78, 68, 69, 82, 13, 83, 8], "trial": 2, "time_elapsed": 563718, "type": "FREE_RECALL", "trial_index": 115}, "uniqueid": "MTK2176:38SKSKU7R24SKVRE2HAT0JCPV96ILK", "dateTime": 1516820931082}, {"current_trial": 116, "trialdata": {"rt": 3350, "trial_type": "text", "internal_node_id": "0.0-89.0", "time_elapsed": 569076, "key_press": 13, "type": "INSTRUCTIONS", "trial_index": 116}, "uniqueid": "MTK2176:38SKSKU7R24SKVRE2HAT0JCPV96ILK", "dateTime": 1516820936434}, {"current_trial": 117, "trialdata": {"rt": [2624, 4051, 5736, 7659, 10270, 11983, 13781, 15463, 17486, 20296, 22261], "trial_type": "math-distractor", "key_times": [2223, 2405, 2624, 3716, 3866, 4051, 5400, 5554, 5736, 7429, 7659, 9932, 10043, 10270, 11677, 11810, 11983, 13377, 13587, 13781, 15096, 15280, 15463, 17142, 17297, 17486, 20026, 20089, 20296, 21965, 22076, 22261], "responses": ["17", "17", "14", "8", "18", "14", "10", "10", "17", "15", "14"], "num2": [6, 5, 4, 1, 8, 4, 1, 4, 5, 6, 8, 5], "num3": [9, 7, 1, 3, 4, 7, 3, 4, 8, 5, 1, 4], "conditions": [24, 1600, "a", 24000], "internal_node_id": "0.0-90.0", "key_presses": [97, 103, 13, 97, 103, 13, 97, 100, 13, 104, 13, 97, 104, 13, 97, 100, 13, 97, 96, 13, 97, 96, 13, 97, 103, 13, 97, 101, 13, 97, 100, 13], "trial": 3, "time_elapsed": 595081, "type": "DISTRACTOR", "trial_index": 117, "num1": [2, 5, 9, 4, 6, 3, 6, 2, 4, 4, 5, 6]}, "uniqueid": "MTK2176:38SKSKU7R24SKVRE2HAT0JCPV96ILK", "dateTime": 1516820962439}, {"current_trial": 118, "trialdata": {"rt": -1, "trial_type": "single-stim", "stimulus": "<p id=\"stim\">10</p>", "internal_node_id": "0.0-91.0-0.0", "time_elapsed": 598085, "key_press": -1, "trial_index": 118}, "uniqueid": "MTK2176:38SKSKU7R24SKVRE2HAT0JCPV96ILK", "dateTime": 1516820965443}, {"current_trial": 119, "trialdata": {"rt": -1, "trial_type": "single-stim", "stimulus": "<p id=\"stim\">9</p>", "internal_node_id": "0.0-91.0-1.0", "time_elapsed": 599087, "key_press": -1, "trial_index": 119}, "uniqueid": "MTK2176:38SKSKU7R24SKVRE2HAT0JCPV96ILK", "dateTime": 1516820966445}, {"current_trial": 120, "trialdata": {"rt": -1, "trial_type": "single-stim", "stimulus": "<p id=\"stim\">8</p>", "internal_node_id": "0.0-91.0-2.0", "time_elapsed": 600089, "key_press": -1, "trial_index": 120}, "uniqueid": "MTK2176:38SKSKU7R24SKVRE2HAT0JCPV96ILK", "dateTime": 1516820967448}, {"current_trial": 121, "trialdata": {"rt": -1, "trial_type": "single-stim", "stimulus": "<p id=\"stim\">7</p>", "internal_node_id": "0.0-91.0-3.0", "time_elapsed": 601091, "key_press": -1, "trial_index": 121}, "uniqueid": "MTK2176:38SKSKU7R24SKVRE2HAT0JCPV96ILK", "dateTime": 1516820968449}, {"current_trial": 122, "trialdata": {"rt": -1, "trial_type": "single-stim", "stimulus": "<p id=\"stim\">6</p>", "internal_node_id": "0.0-91.0-4.0", "time_elapsed": 602093, "key_press": -1, "trial_index": 122}, "uniqueid": "MTK2176:38SKSKU7R24SKVRE2HAT0JCPV96ILK", "dateTime": 1516820969451}, {"current_trial": 123, "trialdata": {"rt": -1, "trial_type": "single-stim", "stimulus": "<p id=\"stim\">5</p>", "internal_node_id": "0.0-91.0-5.0", "time_elapsed": 603095, "key_press": -1, "trial_index": 123}, "uniqueid": "MTK2176:38SKSKU7R24SKVRE2HAT0JCPV96ILK", "dateTime": 1516820970453}, {"current_trial": 124, "trialdata": {"rt": -1, "trial_type": "single-stim", "stimulus": "<p id=\"stim\">4</p>", "internal_node_id": "0.0-91.0-6.0", "time_elapsed": 604097, "key_press": -1, "trial_index": 124}, "uniqueid": "MTK2176:38SKSKU7R24SKVRE2HAT0JCPV96ILK", "dateTime": 1516820971455}, {"current_trial": 125, "trialdata": {"rt": -1, "trial_type": "single-stim", "stimulus": "<p id=\"stim\">3</p>", "internal_node_id": "0.0-91.0-7.0", "time_elapsed": 605098, "key_press": -1, "trial_index": 125}, "uniqueid": "MTK2176:38SKSKU7R24SKVRE2HAT0JCPV96ILK", "dateTime": 1516820972457}, {"current_trial": 126, "trialdata": {"rt": -1, "trial_type": "single-stim", "stimulus": "<p id=\"stim\">2</p>", "internal_node_id": "0.0-91.0-8.0", "time_elapsed": 606100, "key_press": -1, "trial_index": 126}, "uniqueid": "MTK2176:38SKSKU7R24SKVRE2HAT0JCPV96ILK", "dateTime": 1516820973459}, {"current_trial": 127, "trialdata": {"rt": -1, "trial_type": "single-stim", "stimulus": "<p id=\"stim\">1</p>", "internal_node_id": "0.0-91.0-9.0", "time_elapsed": 607102, "key_press": -1, "trial_index": 127}, "uniqueid": "MTK2176:38SKSKU7R24SKVRE2HAT0JCPV96ILK", "dateTime": 1516820974460}, {"current_trial": 128, "trialdata": {"rt": -1, "trial_type": "single-stim", "stimulus": "<p id=\"stim\">+</p>", "internal_node_id": "0.0-92.0-0.0", "time_elapsed": 608604, "key_press": -1, "type": "FIXATION", "trial_index": 128}, "uniqueid": "MTK2176:38SKSKU7R24SKVRE2HAT0JCPV96ILK", "dateTime": 1516820975963}, {"current_trial": 129, "trialdata": {"rt": -1000, "trial_type": "single-audio", "word": "suitcase", "stimulus": "/static/audio/wordpool/SUITCASE.wav", "conditions": [24, 1600, "a", 24000], "internal_node_id": "0.0-93.0", "trial": 3, "time_elapsed": 611262, "serialpos": 0, "key_press": -1, "wordID": 1402, "type": "PRES_AUD", "trial_index": 129}, "uniqueid": "MTK2176:38SKSKU7R24SKVRE2HAT0JCPV96ILK", "dateTime": 1516820978620}, {"current_trial": 130, "trialdata": {"rt": -1000, "trial_type": "single-audio", "word": "fragrance", "stimulus": "/static/audio/wordpool/FRAGRANCE.wav", "conditions": [24, 1600, "a", 24000], "internal_node_id": "0.0-94.0", "trial": 3, "time_elapsed": 614041, "serialpos": 1, "key_press": -1, "wordID": 598, "type": "PRES_AUD", "trial_index": 130}, "uniqueid": "MTK2176:38SKSKU7R24SKVRE2HAT0JCPV96ILK", "dateTime": 1516820981399}, {"current_trial": 131, "trialdata": {"rt": -1000, "trial_type": "single-audio", "word": "sandwich", "stimulus": "/static/audio/wordpool/SANDWICH.wav", "conditions": [24, 1600, "a", 24000], "internal_node_id": "0.0-95.0", "trial": 3, "time_elapsed": 616650, "serialpos": 2, "key_press": -1, "wordID": 1231, "type": "PRES_AUD", "trial_index": 131}, "uniqueid": "MTK2176:38SKSKU7R24SKVRE2HAT0JCPV96ILK", "dateTime": 1516820984008}, {"current_trial": 132, "trialdata": {"rt": -1000, "trial_type": "single-audio", "word": "donkey", "stimulus": "/static/audio/wordpool/DONKEY.wav", "conditions": [24, 1600, "a", 24000], "internal_node_id": "0.0-96.0", "trial": 3, "time_elapsed": 619179, "serialpos": 3, "key_press": -1, "wordID": 483, "type": "PRES_AUD", "trial_index": 132}, "uniqueid": "MTK2176:38SKSKU7R24SKVRE2HAT0JCPV96ILK", "dateTime": 1516820986537}, {"current_trial": 133, "trialdata": {"rt": -1000, "trial_type": "single-audio", "word": "camel", "stimulus": "/static/audio/wordpool/CAMEL.wav", "conditions": [24, 1600, "a", 24000], "internal_node_id": "0.0-97.0", "trial": 3, "time_elapsed": 621839, "serialpos": 4, "key_press": -1, "wordID": 222, "type": "PRES_AUD", "trial_index": 133}, "uniqueid": "MTK2176:38SKSKU7R24SKVRE2HAT0JCPV96ILK", "dateTime": 1516820989197}, {"current_trial": 134, "trialdata": {"rt": -1000, "trial_type": "single-audio", "word": "puppy", "stimulus": "/static/audio/wordpool/PUPPY.wav", "conditions": [24, 1600, "a", 24000], "internal_node_id": "0.0-98.0", "trial": 3, "time_elapsed": 624547, "serialpos": 5, "key_press": -1, "wordID": 1143, "type": "PRES_AUD", "trial_index": 134}, "uniqueid": "MTK2176:38SKSKU7R24SKVRE2HAT0JCPV96ILK", "dateTime": 1516820991905}, {"current_trial": 135, "trialdata": {"rt": -1000, "trial_type": "single-audio", "word": "hatchet", "stimulus": "/static/audio/wordpool/HATCHET.wav", "conditions": [24, 1600, "a", 24000], "internal_node_id": "0.0-99.0", "trial": 3, "time_elapsed": 627234, "serialpos": 6, "key_press": -1, "wordID": 690, "type": "PRES_AUD", "trial_index": 135}, "uniqueid": "MTK2176:38SKSKU7R24SKVRE2HAT0JCPV96ILK", "dateTime": 1516820994592}, {"current_trial": 136, "trialdata": {"rt": -1000, "trial_type": "single-audio", "word": "pudding", "stimulus": "/static/audio/wordpool/PUDDING.wav", "conditions": [24, 1600, "a", 24000], "internal_node_id": "0.0-100.0", "trial": 3, "time_elapsed": 629753, "serialpos": 7, "key_press": -1, "wordID": 1138, "type": "PRES_AUD", "trial_index": 136}, "uniqueid": "MTK2176:38SKSKU7R24SKVRE2HAT0JCPV96ILK", "dateTime": 1516820997111}, {"current_trial": 137, "trialdata": {"rt": -1000, "trial_type": "single-audio", "word": "garlic", "stimulus": "/static/audio/wordpool/GARLIC.wav", "conditions": [24, 1600, "a", 24000], "internal_node_id": "0.0-101.0", "trial": 3, "time_elapsed": 632501, "serialpos": 8, "key_press": -1, "wordID": 623, "type": "PRES_AUD", "trial_index": 137}, "uniqueid": "MTK2176:38SKSKU7R24SKVRE2HAT0JCPV96ILK", "dateTime": 1516820999859}, {"current_trial": 138, "trialdata": {"rt": -1000, "trial_type": "single-audio", "word": "bacon", "stimulus": "/static/audio/wordpool/BACON.wav", "conditions": [24, 1600, "a", 24000], "internal_node_id": "0.0-102.0", "trial": 3, "time_elapsed": 635274, "serialpos": 9, "key_press": -1, "wordID": 66, "type": "PRES_AUD", "trial_index": 138}, "uniqueid": "MTK2176:38SKSKU7R24SKVRE2HAT0JCPV96ILK", "dateTime": 1516821002632}, {"current_trial": 139, "trialdata": {"rt": -1000, "trial_type": "single-audio", "word": "binder", "stimulus": "/static/audio/wordpool/BINDER.wav", "conditions": [24, 1600, "a", 24000], "internal_node_id": "0.0-103.0", "trial": 3, "time_elapsed": 638047, "serialpos": 10, "key_press": -1, "wordID": 126, "type": "PRES_AUD", "trial_index": 139}, "uniqueid": "MTK2176:38SKSKU7R24SKVRE2HAT0JCPV96ILK", "dateTime": 1516821005405}, {"current_trial": 140, "trialdata": {"rt": -1000, "trial_type": "single-audio", "word": "sausage", "stimulus": "/static/audio/wordpool/SAUSAGE.wav", "conditions": [24, 1600, "a", 24000], "internal_node_id": "0.0-104.0", "trial": 3, "time_elapsed": 640761, "serialpos": 11, "key_press": -1, "wordID": 1237, "type": "PRES_AUD", "trial_index": 140}, "uniqueid": "MTK2176:38SKSKU7R24SKVRE2HAT0JCPV96ILK", "dateTime": 1516821008120}, {"current_trial": 141, "trialdata": {"rt": -1000, "trial_type": "single-audio", "word": "citrus", "stimulus": "/static/audio/wordpool/CITRUS.wav", "conditions": [24, 1600, "a", 24000], "internal_node_id": "0.0-105.0", "trial": 3, "time_elapsed": 643255, "serialpos": 12, "key_press": -1, "wordID": 312, "type": "PRES_AUD", "trial_index": 141}, "uniqueid": "MTK2176:38SKSKU7R24SKVRE2HAT0JCPV96ILK", "dateTime": 1516821010614}, {"current_trial": 142, "trialdata": {"rt": -1000, "trial_type": "single-audio", "word": "leopard", "stimulus": "/static/audio/wordpool/LEOPARD.wav", "conditions": [24, 1600, "a", 24000], "internal_node_id": "0.0-106.0", "trial": 3, "time_elapsed": 645866, "serialpos": 13, "key_press": -1, "wordID": 811, "type": "PRES_AUD", "trial_index": 142}, "uniqueid": "MTK2176:38SKSKU7R24SKVRE2HAT0JCPV96ILK", "dateTime": 1516821013224}, {"current_trial": 143, "trialdata": {"rt": -1000, "trial_type": "single-audio", "word": "lipstick", "stimulus": "/static/audio/wordpool/LIPSTICK.wav", "conditions": [24, 1600, "a", 24000], "internal_node_id": "0.0-107.0", "trial": 3, "time_elapsed": 648511, "serialpos": 14, "key_press": -1, "wordID": 828, "type": "PRES_AUD", "trial_index": 143}, "uniqueid": "MTK2176:38SKSKU7R24SKVRE2HAT0JCPV96ILK", "dateTime": 1516821015869}, {"current_trial": 144, "trialdata": {"rt": -1000, "trial_type": "single-audio", "word": "football", "stimulus": "/static/audio/wordpool/FOOTBALL.wav", "conditions": [24, 1600, "a", 24000], "internal_node_id": "0.0-108.0", "trial": 3, "time_elapsed": 651053, "serialpos": 15, "key_press": -1, "wordID": 590, "type": "PRES_AUD", "trial_index": 144}, "uniqueid": "MTK2176:38SKSKU7R24SKVRE2HAT0JCPV96ILK", "dateTime": 1516821018412}, {"current_trial": 145, "trialdata": {"rt": -1000, "trial_type": "single-audio", "word": "shark", "stimulus": "/static/audio/wordpool/SHARK.wav", "conditions": [24, 1600, "a", 24000], "internal_node_id": "0.0-109.0", "trial": 3, "time_elapsed": 653486, "serialpos": 16, "key_press": -1, "wordID": 1274, "type": "PRES_AUD", "trial_index": 145}, "uniqueid": "MTK2176:38SKSKU7R24SKVRE2HAT0JCPV96ILK", "dateTime": 1516821020844}, {"current_trial": 146, "trialdata": {"rt": -1000, "trial_type": "single-audio", "word": "bike", "stimulus": "/static/audio/wordpool/BIKE.wav", "conditions": [24, 1600, "a", 24000], "internal_node_id": "0.0-110.0", "trial": 3, "time_elapsed": 656129, "serialpos": 17, "key_press": -1, "wordID": 124, "type": "PRES_AUD", "trial_index": 146}, "uniqueid": "MTK2176:38SKSKU7R24SKVRE2HAT0JCPV96ILK", "dateTime": 1516821023487}, {"current_trial": 147, "trialdata": {"rt": -1000, "trial_type": "single-audio", "word": "scarecrow", "stimulus": "/static/audio/wordpool/SCARECROW.wav", "conditions": [24, 1600, "a", 24000], "internal_node_id": "0.0-111.0", "trial": 3, "time_elapsed": 658727, "serialpos": 18, "key_press": -1, "wordID": 1244, "type": "PRES_AUD", "trial_index": 147}, "uniqueid": "MTK2176:38SKSKU7R24SKVRE2HAT0JCPV96ILK", "dateTime": 1516821026085}, {"current_trial": 148, "trialdata": {"rt": -1000, "trial_type": "single-audio", "word": "dress", "stimulus": "/static/audio/wordpool/DRESS.wav", "conditions": [24, 1600, "a", 24000], "internal_node_id": "0.0-112.0", "trial": 3, "time_elapsed": 661504, "serialpos": 19, "key_press": -1, "wordID": 494, "type": "PRES_AUD", "trial_index": 148}, "uniqueid": "MTK2176:38SKSKU7R24SKVRE2HAT0JCPV96ILK", "dateTime": 1516821028862}, {"current_trial": 149, "trialdata": {"rt": -1000, "trial_type": "single-audio", "word": "denim", "stimulus": "/static/audio/wordpool/DENIM.wav", "conditions": [24, 1600, "a", 24000], "internal_node_id": "0.0-113.0", "trial": 3, "time_elapsed": 664139, "serialpos": 20, "key_press": -1, "wordID": 445, "type": "PRES_AUD", "trial_index": 149}, "uniqueid": "MTK2176:38SKSKU7R24SKVRE2HAT0JCPV96ILK", "dateTime": 1516821031497}, {"current_trial": 150, "trialdata": {"rt": -1000, "trial_type": "single-audio", "word": "costume", "stimulus": "/static/audio/wordpool/COSTUME.wav", "conditions": [24, 1600, "a", 24000], "internal_node_id": "0.0-114.0", "trial": 3, "time_elapsed": 666564, "serialpos": 21, "key_press": -1, "wordID": 382, "type": "PRES_AUD", "trial_index": 150}, "uniqueid": "MTK2176:38SKSKU7R24SKVRE2HAT0JCPV96ILK", "dateTime": 1516821033922}, {"current_trial": 151, "trialdata": {"rt": -1000, "trial_type": "single-audio", "word": "guitar", "stimulus": "/static/audio/wordpool/GUITAR.wav", "conditions": [24, 1600, "a", 24000], "internal_node_id": "0.0-115.0", "trial": 3, "time_elapsed": 669226, "serialpos": 22, "key_press": -1, "wordID": 669, "type": "PRES_AUD", "trial_index": 151}, "uniqueid": "MTK2176:38SKSKU7R24SKVRE2HAT0JCPV96ILK", "dateTime": 1516821036584}, {"current_trial": 152, "trialdata": {"rt": -1000, "trial_type": "single-audio", "word": "balloon", "stimulus": "/static/audio/wordpool/BALLOON.wav", "conditions": [24, 1600, "a", 24000], "internal_node_id": "0.0-116.0", "trial": 3, "time_elapsed": 671979, "serialpos": 23, "key_press": -1, "wordID": 74, "type": "PRES_AUD", "trial_index": 152}, "uniqueid": "MTK2176:38SKSKU7R24SKVRE2HAT0JCPV96ILK", "dateTime": 1516821039337}, {"current_trial": 153, "trialdata": {"rt": -1, "trial_type": "single-stim", "stimulus": "", "internal_node_id": "0.0-117.0-0.0", "time_elapsed": 673313, "key_press": -1, "type": "PRE_RECALL_DELAY", "trial_index": 153}, "uniqueid": "MTK2176:38SKSKU7R24SKVRE2HAT0JCPV96ILK", "dateTime": 1516821040672}, {"current_trial": 154, "trialdata": {"rt": -1000, "trial_type": "single-audio", "stimulus": "/static/audio/400Hz.wav", "internal_node_id": "0.0-118.0", "time_elapsed": 673815, "key_press": -1, "type": "PRE_RECALL_ALERT", "trial_index": 154}, "uniqueid": "MTK2176:38SKSKU7R24SKVRE2HAT0JCPV96ILK", "dateTime": 1516821041173}, {"current_trial": 155, "trialdata": {"rt": [2607, 4328, 6449, 7734, 10416, 12673, 14574, 17595, 18802, 19896, 24279, 25410, 26585, 30352, 34058, 35069, 40462, 42500, 46859, 48124, 56053], "recwords": ["balloon", "guitar", "costume", "denim", "scarecrow", "citrus", "leopard", "sausage", "puppy", "binder", "sandwich", "camel", "donkey", "shark", "dress", "bike", "fragrance", "suitcase", "garlic", "pudding", "hatchet"], "key_times": [1552, 1636, 1719, 1865, 2027, 2150, 2258, 2607, 3395, 3485, 3555, 3695, 3855, 3923, 4328, 4807, 5014, 5142, 5345, 5403, 5584, 5677, 6449, 6648, 6797, 6897, 6991, 7172, 7734, 8795, 8939, 9097, 9196, 9279, 9647, 9824, 9899, 10004, 10416, 11810, 11892, 12040, 12165, 12303, 12553, 12673, 12922, 13043, 13518, 13581, 13858, 14021, 14301, 14574, 16634, 16688, 16840, 17004, 17104, 17345, 17411, 17595, 18104, 18193, 18358, 18489, 18655, 18802, 19178, 19261, 19341, 19408, 19573, 19657, 19896, 21763, 21820, 21963, 22480, 23002, 23108, 23214, 23286, 23674, 23805, 23941, 24046, 24279, 24845, 24902, 24984, 25102, 25192, 25410, 25589, 25683, 25777, 25931, 26042, 26178, 26585, 29648, 29723, 29892, 29992, 30069, 30352, 33257, 33474, 33551, 33754, 33906, 34058, 34512, 34617, 34798, 34886, 35069, 39200, 39365, 39462, 39639, 39814, 39884, 40017, 40157, 40249, 40462, 40871, 40984, 41057, 41135, 41348, 41501, 41690, 41791, 42500, 46053, 46215, 46287, 46380, 46545, 46692, 46859, 47403, 47448, 47522, 47659, 47746, 47838, 47936, 48124, 51373, 52549, 52834, 53450, 53775, 54037, 54123, 54216, 54423, 56053], "trial_type": "free-recall", "conditions": [24, 1600, "a", 24000], "internal_node_id": "0.0-119.0-0.0", "key_presses": [66, 65, 76, 76, 79, 79, 78, 13, 71, 85, 73, 84, 65, 82, 13, 67, 79, 83, 84, 85, 77, 69, 13, 68, 69, 78, 73, 77, 13, 83, 67, 65, 82, 69, 67, 82, 79, 87, 13, 67, 73, 84, 82, 85, 83, 13, 76, 69, 79, 80, 65, 82, 68, 13, 83, 65, 85, 83, 65, 71, 69, 13, 80, 85, 80, 80, 89, 13, 66, 73, 78, 68, 69, 82, 13, 83, 65, 78, 68, 87, 73, 83, 72, 8, 8, 67, 72, 13, 67, 65, 77, 69, 76, 13, 68, 79, 78, 75, 69, 89, 13, 83, 72, 65, 82, 75, 13, 68, 82, 69, 83, 83, 13, 66, 73, 75, 69, 13, 70, 82, 65, 71, 82, 65, 78, 67, 69, 13, 83, 85, 73, 84, 67, 65, 83, 69, 13, 71, 65, 82, 76, 73, 67, 13, 80, 85, 68, 68, 73, 78, 71, 13, 72, 65, 67, 8, 84, 67, 72, 69, 84, 13], "trial": 3, "time_elapsed": 733821, "type": "FREE_RECALL", "trial_index": 155}, "uniqueid": "MTK2176:38SKSKU7R24SKVRE2HAT0JCPV96ILK", "dateTime": 1516821101186}, {"current_trial": 156, "trialdata": {"rt": 1889, "trial_type": "text", "internal_node_id": "0.0-120.0", "time_elapsed": 737718, "key_press": 13, "type": "INSTRUCTIONS", "trial_index": 156}, "uniqueid": "MTK2176:38SKSKU7R24SKVRE2HAT0JCPV96ILK", "dateTime": 1516821105076}, {"current_trial": 157, "trialdata": {"rt": [1734, 3797, 6518, 8996, 11884], "trial_type": "math-distractor", "key_times": [1464, 1510, 1734, 3516, 3589, 3797, 6213, 6335, 6518, 8647, 8770, 8996, 11619, 11677, 11884], "responses": ["13", "16", "25", "15", "15"], "num2": [4, 3, 7, 1, 3, 2], "num3": [6, 7, 9, 6, 4, 1], "conditions": [12, 1600, "a", 12000], "internal_node_id": "0.0-121.0", "key_presses": [97, 99, 13, 97, 102, 13, 98, 101, 13, 97, 101, 13, 97, 101, 13], "trial": 4, "time_elapsed": 751722, "type": "DISTRACTOR", "trial_index": 157, "num1": [3, 6, 9, 8, 8, 4]}, "uniqueid": "MTK2176:38SKSKU7R24SKVRE2HAT0JCPV96ILK", "dateTime": 1516821119081}, {"current_trial": 158, "trialdata": {"rt": -1, "trial_type": "single-stim", "stimulus": "<p id=\"stim\">10</p>", "internal_node_id": "0.0-122.0-0.0", "time_elapsed": 754725, "key_press": -1, "trial_index": 158}, "uniqueid": "MTK2176:38SKSKU7R24SKVRE2HAT0JCPV96ILK", "dateTime": 1516821122083}, {"current_trial": 159, "trialdata": {"rt": -1, "trial_type": "single-stim", "stimulus": "<p id=\"stim\">9</p>", "internal_node_id": "0.0-122.0-1.0", "time_elapsed": 755727, "key_press": -1, "trial_index": 159}, "uniqueid": "MTK2176:38SKSKU7R24SKVRE2HAT0JCPV96ILK", "dateTime": 1516821123085}, {"current_trial": 160, "trialdata": {"rt": -1, "trial_type": "single-stim", "stimulus": "<p id=\"stim\">8</p>", "internal_node_id": "0.0-122.0-2.0", "time_elapsed": 756729, "key_press": -1, "trial_index": 160}, "uniqueid": "MTK2176:38SKSKU7R24SKVRE2HAT0JCPV96ILK", "dateTime": 1516821124087}, {"current_trial": 161, "trialdata": {"rt": -1, "trial_type": "single-stim", "stimulus": "<p id=\"stim\">7</p>", "internal_node_id": "0.0-122.0-3.0", "time_elapsed": 757730, "key_press": -1, "trial_index": 161}, "uniqueid": "MTK2176:38SKSKU7R24SKVRE2HAT0JCPV96ILK", "dateTime": 1516821125088}, {"current_trial": 162, "trialdata": {"rt": -1, "trial_type": "single-stim", "stimulus": "<p id=\"stim\">6</p>", "internal_node_id": "0.0-122.0-4.0", "time_elapsed": 758732, "key_press": -1, "trial_index": 162}, "uniqueid": "MTK2176:38SKSKU7R24SKVRE2HAT0JCPV96ILK", "dateTime": 1516821126090}, {"current_trial": 163, "trialdata": {"rt": -1, "trial_type": "single-stim", "stimulus": "<p id=\"stim\">5</p>", "internal_node_id": "0.0-122.0-5.0", "time_elapsed": 759733, "key_press": -1, "trial_index": 163}, "uniqueid": "MTK2176:38SKSKU7R24SKVRE2HAT0JCPV96ILK", "dateTime": 1516821127092}, {"current_trial": 164, "trialdata": {"rt": -1, "trial_type": "single-stim", "stimulus": "<p id=\"stim\">4</p>", "internal_node_id": "0.0-122.0-6.0", "time_elapsed": 760735, "key_press": -1, "trial_index": 164}, "uniqueid": "MTK2176:38SKSKU7R24SKVRE2HAT0JCPV96ILK", "dateTime": 1516821128093}, {"current_trial": 165, "trialdata": {"rt": -1, "trial_type": "single-stim", "stimulus": "<p id=\"stim\">3</p>", "internal_node_id": "0.0-122.0-7.0", "time_elapsed": 761737, "key_press": -1, "trial_index": 165}, "uniqueid": "MTK2176:38SKSKU7R24SKVRE2HAT0JCPV96ILK", "dateTime": 1516821129095}, {"current_trial": 166, "trialdata": {"rt": -1, "trial_type": "single-stim", "stimulus": "<p id=\"stim\">2</p>", "internal_node_id": "0.0-122.0-8.0", "time_elapsed": 762740, "key_press": -1, "trial_index": 166}, "uniqueid": "MTK2176:38SKSKU7R24SKVRE2HAT0JCPV96ILK", "dateTime": 1516821130098}, {"current_trial": 167, "trialdata": {"rt": -1, "trial_type": "single-stim", "stimulus": "<p id=\"stim\">1</p>", "internal_node_id": "0.0-122.0-9.0", "time_elapsed": 763742, "key_press": -1, "trial_index": 167}, "uniqueid": "MTK2176:38SKSKU7R24SKVRE2HAT0JCPV96ILK", "dateTime": 1516821131100}, {"current_trial": 168, "trialdata": {"rt": -1, "trial_type": "single-stim", "stimulus": "<p id=\"stim\">+</p>", "internal_node_id": "0.0-123.0-0.0", "time_elapsed": 765243, "key_press": -1, "type": "FIXATION", "trial_index": 168}, "uniqueid": "MTK2176:38SKSKU7R24SKVRE2HAT0JCPV96ILK", "dateTime": 1516821132601}, {"current_trial": 169, "trialdata": {"rt": -1000, "trial_type": "single-audio", "word": "clothes", "stimulus": "/static/audio/wordpool/CLOTHES.wav", "conditions": [12, 1600, "a", 12000], "internal_node_id": "0.0-124.0", "trial": 4, "time_elapsed": 767907, "serialpos": 0, "key_press": -1, "wordID": 326, "type": "PRES_AUD", "trial_index": 169}, "uniqueid": "MTK2176:38SKSKU7R24SKVRE2HAT0JCPV96ILK", "dateTime": 1516821135266}, {"current_trial": 170, "trialdata": {"rt": -1000, "trial_type": "single-audio", "word": "forest", "stimulus": "/static/audio/wordpool/FOREST.wav", "conditions": [12, 1600, "a", 12000], "internal_node_id": "0.0-125.0", "trial": 4, "time_elapsed": 770530, "serialpos": 1, "key_press": -1, "wordID": 592, "type": "PRES_AUD", "trial_index": 170}, "uniqueid": "MTK2176:38SKSKU7R24SKVRE2HAT0JCPV96ILK", "dateTime": 1516821137888}, {"current_trial": 171, "trialdata": {"rt": -1000, "trial_type": "single-audio", "word": "dancer", "stimulus": "/static/audio/wordpool/DANCER.wav", "conditions": [12, 1600, "a", 12000], "internal_node_id": "0.0-126.0", "trial": 4, "time_elapsed": 773044, "serialpos": 2, "key_press": -1, "wordID": 436, "type": "PRES_AUD", "trial_index": 171}, "uniqueid": "MTK2176:38SKSKU7R24SKVRE2HAT0JCPV96ILK", "dateTime": 1516821140402}, {"current_trial": 172, "trialdata": {"rt": -1000, "trial_type": "single-audio", "word": "cabin", "stimulus": "/static/audio/wordpool/CABIN.wav", "conditions": [12, 1600, "a", 12000], "internal_node_id": "0.0-127.0", "trial": 4, "time_elapsed": 775641, "serialpos": 3, "key_press": -1, "wordID": 210, "type": "PRES_AUD", "trial_index": 172}, "uniqueid": "MTK2176:38SKSKU7R24SKVRE2HAT0JCPV96ILK", "dateTime": 1516821142999}, {"current_trial": 173, "trialdata": {"rt": -1000, "trial_type": "single-audio", "word": "beaver", "stimulus": "/static/audio/wordpool/BEAVER.wav", "conditions": [12, 1600, "a", 12000], "internal_node_id": "0.0-128.0", "trial": 4, "time_elapsed": 778298, "serialpos": 4, "key_press": -1, "wordID": 108, "type": "PRES_AUD", "trial_index": 173}, "uniqueid": "MTK2176:38SKSKU7R24SKVRE2HAT0JCPV96ILK", "dateTime": 1516821145656}, {"current_trial": 174, "trialdata": {"rt": -1000, "trial_type": "single-audio", "word": "spool", "stimulus": "/static/audio/wordpool/SPOOL.wav", "conditions": [12, 1600, "a", 12000], "internal_node_id": "0.0-129.0", "trial": 4, "time_elapsed": 780705, "serialpos": 5, "key_press": -1, "wordID": 1355, "type": "PRES_AUD", "trial_index": 174}, "uniqueid": "MTK2176:38SKSKU7R24SKVRE2HAT0JCPV96ILK", "dateTime": 1516821148063}, {"current_trial": 175, "trialdata": {"rt": -1000, "trial_type": "single-audio", "word": "helmet", "stimulus": "/static/audio/wordpool/HELMET.wav", "conditions": [12, 1600, "a", 12000], "internal_node_id": "0.0-130.0", "trial": 4, "time_elapsed": 783286, "serialpos": 6, "key_press": -1, "wordID": 701, "type": "PRES_AUD", "trial_index": 175}, "uniqueid": "MTK2176:38SKSKU7R24SKVRE2HAT0JCPV96ILK", "dateTime": 1516821150644}, {"current_trial": 176, "trialdata": {"rt": -1000, "trial_type": "single-audio", "word": "cousin", "stimulus": "/static/audio/wordpool/COUSIN.wav", "conditions": [12, 1600, "a", 12000], "internal_node_id": "0.0-131.0", "trial": 4, "time_elapsed": 785769, "serialpos": 7, "key_press": -1, "wordID": 391, "type": "PRES_AUD", "trial_index": 176}, "uniqueid": "MTK2176:38SKSKU7R24SKVRE2HAT0JCPV96ILK", "dateTime": 1516821153127}, {"current_trial": 177, "trialdata": {"rt": -1000, "trial_type": "single-audio", "word": "woman", "stimulus": "/static/audio/wordpool/WOMAN.wav", "conditions": [12, 1600, "a", 12000], "internal_node_id": "0.0-132.0", "trial": 4, "time_elapsed": 788401, "serialpos": 8, "key_press": -1, "wordID": 1619, "type": "PRES_AUD", "trial_index": 177}, "uniqueid": "MTK2176:38SKSKU7R24SKVRE2HAT0JCPV96ILK", "dateTime": 1516821155759}, {"current_trial": 178, "trialdata": {"rt": -1000, "trial_type": "single-audio", "word": "lady", "stimulus": "/static/audio/wordpool/LADY.wav", "conditions": [12, 1600, "a", 12000], "internal_node_id": "0.0-133.0", "trial": 4, "time_elapsed": 791187, "serialpos": 9, "key_press": -1, "wordID": 793, "type": "PRES_AUD", "trial_index": 178}, "uniqueid": "MTK2176:38SKSKU7R24SKVRE2HAT0JCPV96ILK", "dateTime": 1516821158545}, {"current_trial": 179, "trialdata": {"rt": -1000, "trial_type": "single-audio", "word": "brother", "stimulus": "/static/audio/wordpool/BROTHER.wav", "conditions": [12, 1600, "a", 12000], "internal_node_id": "0.0-134.0", "trial": 4, "time_elapsed": 793733, "serialpos": 10, "key_press": -1, "wordID": 178, "type": "PRES_AUD", "trial_index": 179}, "uniqueid": "MTK2176:38SKSKU7R24SKVRE2HAT0JCPV96ILK", "dateTime": 1516821161091}, {"current_trial": 180, "trialdata": {"rt": -1000, "trial_type": "single-audio", "word": "wasp", "stimulus": "/static/audio/wordpool/WASP.wav", "conditions": [12, 1600, "a", 12000], "internal_node_id": "0.0-135.0", "trial": 4, "time_elapsed": 796351, "serialpos": 11, "key_press": -1, "wordID": 1592, "type": "PRES_AUD", "trial_index": 180}, "uniqueid": "MTK2176:38SKSKU7R24SKVRE2HAT0JCPV96ILK", "dateTime": 1516821163710}, {"current_trial": 181, "trialdata": {"rt": -1, "trial_type": "single-stim", "stimulus": "", "internal_node_id": "0.0-136.0-0.0", "time_elapsed": 797604, "key_press": -1, "type": "PRE_RECALL_DELAY", "trial_index": 181}, "uniqueid": "MTK2176:38SKSKU7R24SKVRE2HAT0JCPV96ILK", "dateTime": 1516821164962}, {"current_trial": 182, "trialdata": {"rt": -1000, "trial_type": "single-audio", "stimulus": "/static/audio/400Hz.wav", "internal_node_id": "0.0-137.0", "time_elapsed": 798106, "key_press": -1, "type": "PRE_RECALL_ALERT", "trial_index": 182}, "uniqueid": "MTK2176:38SKSKU7R24SKVRE2HAT0JCPV96ILK", "dateTime": 1516821165465}, {"current_trial": 183, "trialdata": {"rt": [2054, 2894, 4256, 6330, 8127, 9149, 11475, 13733, 14910, 17160, 18682], "recwords": ["wasp", "lady", "woman", "brother", "helmet", "cousin", "lady", "cabin", "dancer", "forest", "cabin"], "key_times": [1407, 1596, 1658, 1786, 2054, 2305, 2399, 2532, 2656, 2894, 3711, 3797, 3881, 3987, 4078, 4256, 4661, 4755, 4829, 4932, 5014, 5103, 5168, 6330, 7338, 7411, 7491, 7785, 7849, 8022, 8127, 8319, 8408, 8477, 8580, 8685, 8794, 9149, 11016, 11090, 11188, 11277, 11475, 13128, 13208, 13315, 13448, 13538, 13733, 13868, 13960, 14046, 14137, 14250, 14394, 14910, 16545, 16607, 16713, 16791, 16903, 17036, 17160, 17359, 17629, 17782, 17905, 18072, 18682, 32081, 32152, 33006, 33157, 56911, 57501, 58554, 59326], "trial_type": "free-recall", "conditions": [12, 1600, "a", 12000], "internal_node_id": "0.0-138.0-0.0", "key_presses": [87, 65, 83, 80, 13, 76, 65, 68, 89, 13, 87, 79, 77, 65, 78, 13, 66, 82, 79, 84, 72, 69, 82, 13, 72, 69, 76, 77, 69, 84, 13, 67, 79, 85, 83, 73, 78, 13, 76, 65, 68, 89, 13, 67, 65, 66, 73, 78, 13, 68, 65, 78, 67, 69, 82, 13, 70, 79, 82, 69, 83, 84, 13, 67, 65, 66, 73, 78, 13, 67, 65, 8, 8, 80, 8, 83, 8], "trial": 4, "time_elapsed": 858110, "type": "FREE_RECALL", "trial_index": 183}, "uniqueid": "MTK2176:38SKSKU7R24SKVRE2HAT0JCPV96ILK", "dateTime": 1516821225476}, {"current_trial": 184, "trialdata": {"rt": 2293, "trial_type": "text", "internal_node_id": "0.0-139.0", "time_elapsed": 862412, "key_press": 13, "type": "INSTRUCTIONS", "trial_index": 184}, "uniqueid": "MTK2176:38SKSKU7R24SKVRE2HAT0JCPV96ILK", "dateTime": 1516821229770}, {"current_trial": 185, "trialdata": {"rt": [1748, 3629, 6398, 9474], "trial_type": "math-distractor", "key_times": [1557, 1748, 3311, 3453, 3629, 6058, 6226, 6398, 9172, 9301, 9474], "responses": ["8", "24", "23", "26"], "num2": [5, 9, 5, 9, 9], "num3": [2, 6, 9, 8, 7], "conditions": [24, 800, "a", 12000], "internal_node_id": "0.0-140.0", "key_presses": [104, 13, 98, 100, 13, 98, 99, 13, 98, 102, 13], "trial": 5, "time_elapsed": 876418, "type": "DISTRACTOR", "trial_index": 185, "num1": [1, 9, 9, 9, 8]}, "uniqueid": "MTK2176:38SKSKU7R24SKVRE2HAT0JCPV96ILK", "dateTime": 1516821243776}, {"current_trial": 186, "trialdata": {"rt": -1, "trial_type": "single-stim", "stimulus": "<p id=\"stim\">10</p>", "internal_node_id": "0.0-141.0-0.0", "time_elapsed": 879421, "key_press": -1, "trial_index": 186}, "uniqueid": "MTK2176:38SKSKU7R24SKVRE2HAT0JCPV96ILK", "dateTime": 1516821246779}, {"current_trial": 187, "trialdata": {"rt": -1, "trial_type": "single-stim", "stimulus": "<p id=\"stim\">9</p>", "internal_node_id": "0.0-141.0-1.0", "time_elapsed": 880422, "key_press": -1, "trial_index": 187}, "uniqueid": "MTK2176:38SKSKU7R24SKVRE2HAT0JCPV96ILK", "dateTime": 1516821247780}, {"current_trial": 188, "trialdata": {"rt": -1, "trial_type": "single-stim", "stimulus": "<p id=\"stim\">8</p>", "internal_node_id": "0.0-141.0-2.0", "time_elapsed": 881425, "key_press": -1, "trial_index": 188}, "uniqueid": "MTK2176:38SKSKU7R24SKVRE2HAT0JCPV96ILK", "dateTime": 1516821248783}, {"current_trial": 189, "trialdata": {"rt": -1, "trial_type": "single-stim", "stimulus": "<p id=\"stim\">7</p>", "internal_node_id": "0.0-141.0-3.0", "time_elapsed": 882426, "key_press": -1, "trial_index": 189}, "uniqueid": "MTK2176:38SKSKU7R24SKVRE2HAT0JCPV96ILK", "dateTime": 1516821249784}, {"current_trial": 190, "trialdata": {"rt": -1, "trial_type": "single-stim", "stimulus": "<p id=\"stim\">6</p>", "internal_node_id": "0.0-141.0-4.0", "time_elapsed": 883428, "key_press": -1, "trial_index": 190}, "uniqueid": "MTK2176:38SKSKU7R24SKVRE2HAT0JCPV96ILK", "dateTime": 1516821250786}, {"current_trial": 191, "trialdata": {"rt": -1, "trial_type": "single-stim", "stimulus": "<p id=\"stim\">5</p>", "internal_node_id": "0.0-141.0-5.0", "time_elapsed": 884431, "key_press": -1, "trial_index": 191}, "uniqueid": "MTK2176:38SKSKU7R24SKVRE2HAT0JCPV96ILK", "dateTime": 1516821251789}, {"current_trial": 192, "trialdata": {"rt": -1, "trial_type": "single-stim", "stimulus": "<p id=\"stim\">4</p>", "internal_node_id": "0.0-141.0-6.0", "time_elapsed": 885433, "key_press": -1, "trial_index": 192}, "uniqueid": "MTK2176:38SKSKU7R24SKVRE2HAT0JCPV96ILK", "dateTime": 1516821252791}, {"current_trial": 193, "trialdata": {"rt": -1, "trial_type": "single-stim", "stimulus": "<p id=\"stim\">3</p>", "internal_node_id": "0.0-141.0-7.0", "time_elapsed": 886435, "key_press": -1, "trial_index": 193}, "uniqueid": "MTK2176:38SKSKU7R24SKVRE2HAT0JCPV96ILK", "dateTime": 1516821253793}, {"current_trial": 194, "trialdata": {"rt": -1, "trial_type": "single-stim", "stimulus": "<p id=\"stim\">2</p>", "internal_node_id": "0.0-141.0-8.0", "time_elapsed": 887438, "key_press": -1, "trial_index": 194}, "uniqueid": "MTK2176:38SKSKU7R24SKVRE2HAT0JCPV96ILK", "dateTime": 1516821254796}, {"current_trial": 195, "trialdata": {"rt": -1, "trial_type": "single-stim", "stimulus": "<p id=\"stim\">1</p>", "internal_node_id": "0.0-141.0-9.0", "time_elapsed": 888440, "key_press": -1, "trial_index": 195}, "uniqueid": "MTK2176:38SKSKU7R24SKVRE2HAT0JCPV96ILK", "dateTime": 1516821255798}, {"current_trial": 196, "trialdata": {"rt": -1, "trial_type": "single-stim", "stimulus": "<p id=\"stim\">+</p>", "internal_node_id": "0.0-142.0-0.0", "time_elapsed": 889942, "key_press": -1, "type": "FIXATION", "trial_index": 196}, "uniqueid": "MTK2176:38SKSKU7R24SKVRE2HAT0JCPV96ILK", "dateTime": 1516821257300}, {"current_trial": 197, "trialdata": {"rt": -1000, "trial_type": "single-audio", "word": "island", "stimulus": "/static/audio/wordpool/ISLAND.wav", "conditions": [24, 800, "a", 12000], "internal_node_id": "0.0-143.0", "trial": 5, "time_elapsed": 891866, "serialpos": 0, "key_press": -1, "wordID": 744, "type": "PRES_AUD", "trial_index": 197}, "uniqueid": "MTK2176:38SKSKU7R24SKVRE2HAT0JCPV96ILK", "dateTime": 1516821259224}, {"current_trial": 198, "trialdata": {"rt": -1000, "trial_type": "single-audio", "word": "gangster", "stimulus": "/static/audio/wordpool/GANGSTER.wav", "conditions": [24, 800, "a", 12000], "internal_node_id": "0.0-144.0", "trial": 5, "time_elapsed": 893865, "serialpos": 1, "key_press": -1, "wordID": 619, "type": "PRES_AUD", "trial_index": 198}, "uniqueid": "MTK2176:38SKSKU7R24SKVRE2HAT0JCPV96ILK", "dateTime": 1516821261224}, {"current_trial": 199, "trialdata": {"rt": -1000, "trial_type": "single-audio", "word": "handbag", "stimulus": "/static/audio/wordpool/HANDBAG.wav", "conditions": [24, 800, "a", 12000], "internal_node_id": "0.0-145.0", "trial": 5, "time_elapsed": 895719, "serialpos": 2, "key_press": -1, "wordID": 683, "type": "PRES_AUD", "trial_index": 199}, "uniqueid": "MTK2176:38SKSKU7R24SKVRE2HAT0JCPV96ILK", "dateTime": 1516821263077}, {"current_trial": 200, "trialdata": {"rt": -1000, "trial_type": "single-audio", "word": "necklace", "stimulus": "/static/audio/wordpool/NECKLACE.wav", "conditions": [24, 800, "a", 12000], "internal_node_id": "0.0-146.0", "trial": 5, "time_elapsed": 897558, "serialpos": 3, "key_press": -1, "wordID": 939, "type": "PRES_AUD", "trial_index": 200}, "uniqueid": "MTK2176:38SKSKU7R24SKVRE2HAT0JCPV96ILK", "dateTime": 1516821264917}, {"current_trial": 201, "trialdata": {"rt": -1000, "trial_type": "single-audio", "word": "tombstone", "stimulus": "/static/audio/wordpool/TOMBSTONE.wav", "conditions": [24, 800, "a", 12000], "internal_node_id": "0.0-147.0", "trial": 5, "time_elapsed": 899337, "serialpos": 4, "key_press": -1, "wordID": 1477, "type": "PRES_AUD", "trial_index": 201}, "uniqueid": "MTK2176:38SKSKU7R24SKVRE2HAT0JCPV96ILK", "dateTime": 1516821266696}, {"current_trial": 202, "trialdata": {"rt": -1000, "trial_type": "single-audio", "word": "muffin", "stimulus": "/static/audio/wordpool/MUFFIN.wav", "conditions": [24, 800, "a", 12000], "internal_node_id": "0.0-148.0", "trial": 5, "time_elapsed": 901306, "serialpos": 5, "key_press": -1, "wordID": 928, "type": "PRES_AUD", "trial_index": 202}, "uniqueid": "MTK2176:38SKSKU7R24SKVRE2HAT0JCPV96ILK", "dateTime": 1516821268665}, {"current_trial": 203, "trialdata": {"rt": -1000, "trial_type": "single-audio", "word": "perfume", "stimulus": "/static/audio/wordpool/PERFUME.wav", "conditions": [24, 800, "a", 12000], "internal_node_id": "0.0-149.0", "trial": 5, "time_elapsed": 903223, "serialpos": 6, "key_press": -1, "wordID": 1048, "type": "PRES_AUD", "trial_index": 203}, "uniqueid": "MTK2176:38SKSKU7R24SKVRE2HAT0JCPV96ILK", "dateTime": 1516821270581}, {"current_trial": 204, "trialdata": {"rt": -1000, "trial_type": "single-audio", "word": "bison", "stimulus": "/static/audio/wordpool/BISON.wav", "conditions": [24, 800, "a", 12000], "internal_node_id": "0.0-150.0", "trial": 5, "time_elapsed": 904915, "serialpos": 7, "key_press": -1, "wordID": 130, "type": "PRES_AUD", "trial_index": 204}, "uniqueid": "MTK2176:38SKSKU7R24SKVRE2HAT0JCPV96ILK", "dateTime": 1516821272274}, {"current_trial": 205, "trialdata": {"rt": -1000, "trial_type": "single-audio", "word": "shrub", "stimulus": "/static/audio/wordpool/SHRUB.wav", "conditions": [24, 800, "a", 12000], "internal_node_id": "0.0-151.0", "trial": 5, "time_elapsed": 906566, "serialpos": 8, "key_press": -1, "wordID": 1298, "type": "PRES_AUD", "trial_index": 205}, "uniqueid": "MTK2176:38SKSKU7R24SKVRE2HAT0JCPV96ILK", "dateTime": 1516821273924}, {"current_trial": 206, "trialdata": {"rt": -1000, "trial_type": "single-audio", "word": "casket", "stimulus": "/static/audio/wordpool/CASKET.wav", "conditions": [24, 800, "a", 12000], "internal_node_id": "0.0-152.0", "trial": 5, "time_elapsed": 908382, "serialpos": 9, "key_press": -1, "wordID": 254, "type": "PRES_AUD", "trial_index": 206}, "uniqueid": "MTK2176:38SKSKU7R24SKVRE2HAT0JCPV96ILK", "dateTime": 1516821275740}, {"current_trial": 207, "trialdata": {"rt": -1000, "trial_type": "single-audio", "word": "parsley", "stimulus": "/static/audio/wordpool/PARSLEY.wav", "conditions": [24, 800, "a", 12000], "internal_node_id": "0.0-153.0", "trial": 5, "time_elapsed": 910174, "serialpos": 10, "key_press": -1, "wordID": 1015, "type": "PRES_AUD", "trial_index": 207}, "uniqueid": "MTK2176:38SKSKU7R24SKVRE2HAT0JCPV96ILK", "dateTime": 1516821277532}, {"current_trial": 208, "trialdata": {"rt": -1000, "trial_type": "single-audio", "word": "creature", "stimulus": "/static/audio/wordpool/CREATURE.wav", "conditions": [24, 800, "a", 12000], "internal_node_id": "0.0-154.0", "trial": 5, "time_elapsed": 912172, "serialpos": 11, "key_press": -1, "wordID": 402, "type": "PRES_AUD", "trial_index": 208}, "uniqueid": "MTK2176:38SKSKU7R24SKVRE2HAT0JCPV96ILK", "dateTime": 1516821279530}, {"current_trial": 209, "trialdata": {"rt": -1000, "trial_type": "single-audio", "word": "servant", "stimulus": "/static/audio/wordpool/SERVANT.wav", "conditions": [24, 800, "a", 12000], "internal_node_id": "0.0-155.0", "trial": 5, "time_elapsed": 913943, "serialpos": 12, "key_press": -1, "wordID": 1270, "type": "PRES_AUD", "trial_index": 209}, "uniqueid": "MTK2176:38SKSKU7R24SKVRE2HAT0JCPV96ILK", "dateTime": 1516821281301}, {"current_trial": 210, "trialdata": {"rt": -1000, "trial_type": "single-audio", "word": "trombone", "stimulus": "/static/audio/wordpool/TROMBONE.wav", "conditions": [24, 800, "a", 12000], "internal_node_id": "0.0-156.0", "trial": 5, "time_elapsed": 915862, "serialpos": 13, "key_press": -1, "wordID": 1507, "type": "PRES_AUD", "trial_index": 210}, "uniqueid": "MTK2176:38SKSKU7R24SKVRE2HAT0JCPV96ILK", "dateTime": 1516821283220}, {"current_trial": 211, "trialdata": {"rt": -1000, "trial_type": "single-audio", "word": "grave", "stimulus": "/static/audio/wordpool/GRAVE.wav", "conditions": [24, 800, "a", 12000], "internal_node_id": "0.0-157.0", "trial": 5, "time_elapsed": 917464, "serialpos": 14, "key_press": -1, "wordID": 657, "type": "PRES_AUD", "trial_index": 211}, "uniqueid": "MTK2176:38SKSKU7R24SKVRE2HAT0JCPV96ILK", "dateTime": 1516821284822}, {"current_trial": 212, "trialdata": {"rt": -1000, "trial_type": "single-audio", "word": "perch", "stimulus": "/static/audio/wordpool/PERCH.wav", "conditions": [24, 800, "a", 12000], "internal_node_id": "0.0-158.0", "trial": 5, "time_elapsed": 919101, "serialpos": 15, "key_press": -1, "wordID": 1047, "type": "PRES_AUD", "trial_index": 212}, "uniqueid": "MTK2176:38SKSKU7R24SKVRE2HAT0JCPV96ILK", "dateTime": 1516821286459}, {"current_trial": 213, "trialdata": {"rt": -1000, "trial_type": "single-audio", "word": "razor", "stimulus": "/static/audio/wordpool/RAZOR.wav", "conditions": [24, 800, "a", 12000], "internal_node_id": "0.0-159.0", "trial": 5, "time_elapsed": 920987, "serialpos": 16, "key_press": -1, "wordID": 1170, "type": "PRES_AUD", "trial_index": 213}, "uniqueid": "MTK2176:38SKSKU7R24SKVRE2HAT0JCPV96ILK", "dateTime": 1516821288345}, {"current_trial": 214, "trialdata": {"rt": -1000, "trial_type": "single-audio", "word": "candy", "stimulus": "/static/audio/wordpool/CANDY.wav", "conditions": [24, 800, "a", 12000], "internal_node_id": "0.0-160.0", "trial": 5, "time_elapsed": 922641, "serialpos": 17, "key_press": -1, "wordID": 229, "type": "PRES_AUD", "trial_index": 214}, "uniqueid": "MTK2176:38SKSKU7R24SKVRE2HAT0JCPV96ILK", "dateTime": 1516821289999}, {"current_trial": 215, "trialdata": {"rt": -1000, "trial_type": "single-audio", "word": "onion", "stimulus": "/static/audio/wordpool/ONION.wav", "conditions": [24, 800, "a", 12000], "internal_node_id": "0.0-161.0", "trial": 5, "time_elapsed": 924324, "serialpos": 18, "key_press": -1, "wordID": 976, "type": "PRES_AUD", "trial_index": 215}, "uniqueid": "MTK2176:38SKSKU7R24SKVRE2HAT0JCPV96ILK", "dateTime": 1516821291682}, {"current_trial": 216, "trialdata": {"rt": -1000, "trial_type": "single-audio", "word": "statue", "stimulus": "/static/audio/wordpool/STATUE.wav", "conditions": [24, 800, "a", 12000], "internal_node_id": "0.0-162.0", "trial": 5, "time_elapsed": 926174, "serialpos": 19, "key_press": -1, "wordID": 1373, "type": "PRES_AUD", "trial_index": 216}, "uniqueid": "MTK2176:38SKSKU7R24SKVRE2HAT0JCPV96ILK", "dateTime": 1516821293532}, {"current_trial": 217, "trialdata": {"rt": -1000, "trial_type": "single-audio", "word": "garden", "stimulus": "/static/audio/wordpool/GARDEN.wav", "conditions": [24, 800, "a", 12000], "internal_node_id": "0.0-163.0", "trial": 5, "time_elapsed": 928097, "serialpos": 20, "key_press": -1, "wordID": 622, "type": "PRES_AUD", "trial_index": 217}, "uniqueid": "MTK2176:38SKSKU7R24SKVRE2HAT0JCPV96ILK", "dateTime": 1516821295455}, {"current_trial": 218, "trialdata": {"rt": -1000, "trial_type": "single-audio", "word": "flower", "stimulus": "/static/audio/wordpool/FLOWER.wav", "conditions": [24, 800, "a", 12000], "internal_node_id": "0.0-164.0", "trial": 5, "time_elapsed": 929914, "serialpos": 21, "key_press": -1, "wordID": 583, "type": "PRES_AUD", "trial_index": 218}, "uniqueid": "MTK2176:38SKSKU7R24SKVRE2HAT0JCPV96ILK", "dateTime": 1516821297273}, {"current_trial": 219, "trialdata": {"rt": -1000, "trial_type": "single-audio", "word": "leg", "stimulus": "/static/audio/wordpool/LEG.wav", "conditions": [24, 800, "a", 12000], "internal_node_id": "0.0-165.0", "trial": 5, "time_elapsed": 931767, "serialpos": 22, "key_press": -1, "wordID": 808, "type": "PRES_AUD", "trial_index": 219}, "uniqueid": "MTK2176:38SKSKU7R24SKVRE2HAT0JCPV96ILK", "dateTime": 1516821299125}, {"current_trial": 220, "trialdata": {"rt": -1000, "trial_type": "single-audio", "word": "pepper", "stimulus": "/static/audio/wordpool/PEPPER.wav", "conditions": [24, 800, "a", 12000], "internal_node_id": "0.0-166.0", "trial": 5, "time_elapsed": 933641, "serialpos": 23, "key_press": -1, "wordID": 1046, "type": "PRES_AUD", "trial_index": 220}, "uniqueid": "MTK2176:38SKSKU7R24SKVRE2HAT0JCPV96ILK", "dateTime": 1516821300999}, {"current_trial": 221, "trialdata": {"rt": -1, "trial_type": "single-stim", "stimulus": "", "internal_node_id": "0.0-167.0-0.0", "time_elapsed": 935033, "key_press": -1, "type": "PRE_RECALL_DELAY", "trial_index": 221}, "uniqueid": "MTK2176:38SKSKU7R24SKVRE2HAT0JCPV96ILK", "dateTime": 1516821302391}, {"current_trial": 222, "trialdata": {"rt": -1000, "trial_type": "single-audio", "stimulus": "/static/audio/400Hz.wav", "internal_node_id": "0.0-168.0", "time_elapsed": 935536, "key_press": -1, "type": "PRE_RECALL_ALERT", "trial_index": 222}, "uniqueid": "MTK2176:38SKSKU7R24SKVRE2HAT0JCPV96ILK", "dateTime": 1516821302894}, {"current_trial": 223, "trialdata": {"rt": [1785, 2381, 3379, 4657, 6294, 7639, 9177, 11800, 13432, 17108, 18696, 20403, 24603, 26644, 27902, 29087, 34394, 40674], "recwords": ["flower", "leg", "pepper", "garden", "statue", "grave", "tombstone", "bison", "creature", "shrub", "island", "gangster", "razor", "onion", "candy", "muffin", "casket", "flower"], "key_times": [1210, 1245, 1400, 1482, 1558, 1663, 1785, 1991, 2063, 2244, 2381, 2840, 2926, 2994, 3105, 3177, 3267, 3379, 3856, 3999, 4078, 4251, 4411, 4498, 4657, 4785, 5011, 5154, 5321, 5439, 5536, 5987, 6075, 6294, 6679, 6848, 6899, 7270, 7319, 7639, 7886, 7985, 8074, 8280, 8468, 8621, 8702, 8774, 8894, 9177, 11292, 11358, 11447, 11546, 11615, 11800, 11993, 12187, 12264, 12331, 12475, 12593, 12689, 12774, 13432, 15945, 16018, 16112, 16306, 16518, 17108, 17978, 18084, 18208, 18313, 18398, 18502, 18696, 19316, 19373, 19497, 19668, 19849, 20012, 20125, 20209, 20403, 23003, 23146, 24126, 24297, 24486, 24603, 25147, 25311, 25443, 25535, 25640, 25970, 26393, 26644, 26967, 27024, 27121, 27218, 27368, 27902, 28250, 28438, 28550, 28683, 28748, 28858, 29087, 32961, 33071, 33169, 33389, 33503, 33623, 33974, 34177, 34394, 40006, 40074, 40236, 40350, 40420, 40492, 40674], "trial_type": "free-recall", "conditions": [24, 800, "a", 12000], "internal_node_id": "0.0-169.0-0.0", "key_presses": [70, 76, 79, 87, 69, 82, 13, 76, 69, 71, 13, 80, 69, 80, 80, 69, 82, 13, 71, 65, 82, 68, 69, 78, 13, 83, 84, 65, 84, 85, 82, 8, 69, 13, 71, 82, 65, 86, 69, 13, 84, 79, 77, 66, 83, 84, 79, 78, 69, 13, 66, 73, 83, 79, 78, 13, 67, 82, 69, 65, 84, 85, 82, 69, 13, 83, 72, 82, 85, 66, 13, 73, 83, 76, 65, 78, 68, 13, 71, 65, 78, 71, 83, 84, 69, 82, 13, 82, 65, 90, 79, 82, 13, 79, 78, 73, 79, 78, 67, 8, 13, 67, 65, 78, 68, 89, 13, 77, 85, 70, 70, 73, 78, 13, 67, 65, 83, 75, 69, 89, 8, 84, 13, 70, 76, 79, 87, 69, 82, 13], "trial": 5, "time_elapsed": 995540, "type": "FREE_RECALL", "trial_index": 223}, "uniqueid": "MTK2176:38SKSKU7R24SKVRE2HAT0JCPV96ILK", "dateTime": 1516821362906}, {"current_trial": 224, "trialdata": {"rt": 2945, "trial_type": "text", "internal_node_id": "0.0-170.0", "time_elapsed": 1000494, "key_press": 13, "type": "INSTRUCTIONS", "trial_index": 224}, "uniqueid": "MTK2176:38SKSKU7R24SKVRE2HAT0JCPV96ILK", "dateTime": 1516821367852}, {"current_trial": 225, "trialdata": {"rt": [1579, 3190, 5078, 7686, 9724, 12243, 15289, 17015, 20406, 22333], "trial_type": "math-distractor", "key_times": [1336, 1395, 1579, 2807, 2980, 3190, 4742, 4892, 5078, 7414, 7481, 7686, 9438, 9565, 9724, 11881, 12049, 12243, 15012, 15091, 15289, 16793, 16847, 17015, 20204, 20406, 22058, 22167, 22333, 23981], "responses": ["12", "17", "18", "13", "20", "17", "23", "16", "8", "11"], "num2": [2, 3, 8, 5, 9, 5, 7, 3, 2, 3, 9], "num3": [8, 7, 5, 4, 8, 6, 7, 9, 3, 4, 2], "conditions": [24, 1600, "a", 24000], "internal_node_id": "0.0-171.0", "key_presses": [97, 98, 13, 97, 103, 13, 97, 104, 13, 97, 99, 13, 98, 96, 13, 97, 103, 13, 98, 99, 13, 97, 102, 13, 104, 13, 97, 97, 13, 97], "trial": 6, "time_elapsed": 1026499, "type": "DISTRACTOR", "trial_index": 225, "num1": [2, 7, 5, 4, 3, 6, 9, 4, 3, 4, 2]}, "uniqueid": "MTK2176:38SKSKU7R24SKVRE2HAT0JCPV96ILK", "dateTime": 1516821393857}, {"current_trial": 226, "trialdata": {"rt": -1, "trial_type": "single-stim", "stimulus": "<p id=\"stim\">10</p>", "internal_node_id": "0.0-172.0-0.0", "time_elapsed": 1029503, "key_press": -1, "trial_index": 226}, "uniqueid": "MTK2176:38SKSKU7R24SKVRE2HAT0JCPV96ILK", "dateTime": 1516821396861}, {"current_trial": 227, "trialdata": {"rt": -1, "trial_type": "single-stim", "stimulus": "<p id=\"stim\">9</p>", "internal_node_id": "0.0-172.0-1.0", "time_elapsed": 1030505, "key_press": -1, "trial_index": 227}, "uniqueid": "MTK2176:38SKSKU7R24SKVRE2HAT0JCPV96ILK", "dateTime": 1516821397863}, {"current_trial": 228, "trialdata": {"rt": -1, "trial_type": "single-stim", "stimulus": "<p id=\"stim\">8</p>", "internal_node_id": "0.0-172.0-2.0", "time_elapsed": 1031507, "key_press": -1, "trial_index": 228}, "uniqueid": "MTK2176:38SKSKU7R24SKVRE2HAT0JCPV96ILK", "dateTime": 1516821398865}, {"current_trial": 229, "trialdata": {"rt": -1, "trial_type": "single-stim", "stimulus": "<p id=\"stim\">7</p>", "internal_node_id": "0.0-172.0-3.0", "time_elapsed": 1032512, "key_press": -1, "trial_index": 229}, "uniqueid": "MTK2176:38SKSKU7R24SKVRE2HAT0JCPV96ILK", "dateTime": 1516821399870}, {"current_trial": 230, "trialdata": {"rt": -1, "trial_type": "single-stim", "stimulus": "<p id=\"stim\">6</p>", "internal_node_id": "0.0-172.0-4.0", "time_elapsed": 1033515, "key_press": -1, "trial_index": 230}, "uniqueid": "MTK2176:38SKSKU7R24SKVRE2HAT0JCPV96ILK", "dateTime": 1516821400873}, {"current_trial": 231, "trialdata": {"rt": -1, "trial_type": "single-stim", "stimulus": "<p id=\"stim\">5</p>", "internal_node_id": "0.0-172.0-5.0", "time_elapsed": 1034517, "ke