{"assignmentId": "317HQ483I8ZI8VUZEUQ8DBGE1IINIW", "workerId": "MTK2408", "questiondata": {"origin": "United States", "strat-rehearsal": "10", "marital": "Divorced", "education": "Master's degree", "ethnicity": "Hispanic", "color_depth": 24, "distracted": "No", "wrote-notes": "No", "strat-other": "Only the ones listed above", "screen_width": 1280, "avail_screen_width": 1280, "avail_screen_height": 984, "strat-image": "20", "language": "English", "gender": "Female", "age": "62", "gender_other": "", "race": ["White"], "strat-categorize": "69", "pixel_depth": 24, "strat-spatial": "0", "strat-story": "0", "race_other": "", "screen_height": 1024}, "bonus": 0, "hitId": "3IH9TRB0FB6D74PGJ5N8RK7RFIR1IO", "counterbalance": 1163, "useragent": "Mozilla/5.0 (Windows NT 10.0; Win64; x64) AppleWebKit/537.36 (KHTML, like Gecko) Chrome/63.0.3239.132 Safari/537.36", "eventdata": [{"eventtype": "initialized", "interval": 0, "value": null, "timestamp": 1517078833319}, {"eventtype": "window_resize", "interval": 0, "value": [1280, 977], "timestamp": 1517078833319}], "data": [{"current_trial": 0, "trialdata": {"rt": 2731, "trial_type": "text", "internal_node_id": "0.0-0.0", "time_elapsed": 2736, "key_press": 77, "type": "INSTRUCTIONS", "trial_index": 0}, "uniqueid": "MTK2408:317HQ483I8ZI8VUZEUQ8DBGE1IINIW", "dateTime": 1517078868838}, {"current_trial": 1, "trialdata": {"rt": 18811, "trial_type": "text", "internal_node_id": "0.0-1.0", "time_elapsed": 21550, "key_press": 72, "type": "INSTRUCTIONS", "trial_index": 1}, "uniqueid": "MTK2408:317HQ483I8ZI8VUZEUQ8DBGE1IINIW", "dateTime": 1517078887651}, {"current_trial": 2, "trialdata": {"rt": [12556], "trial_type": "audio-test", "responses": ["ocean"], "internal_node_id": "0.0-2.0", "time_elapsed": 34119, "type": "AUDIO_TEST", "trial_index": 2}, "uniqueid": "MTK2408:317HQ483I8ZI8VUZEUQ8DBGE1IINIW", "dateTime": 1517078900220}, {"current_trial": 3, "trialdata": {"rt": [8627], "trial_type": "audio-test", "responses": ["crystal"], "internal_node_id": "0.0-3.0", "time_elapsed": 42750, "type": "AUDIO_TEST", "trial_index": 3}, "uniqueid": "MTK2408:317HQ483I8ZI8VUZEUQ8DBGE1IINIW", "dateTime": 1517078908851}, {"current_trial": 4, "trialdata": {"rt": [7692], "trial_type": "audio-test", "responses": ["spice"], "internal_node_id": "0.0-4.0", "time_elapsed": 50446, "type": "AUDIO_TEST", "trial_index": 4}, "uniqueid": "MTK2408:317HQ483I8ZI8VUZEUQ8DBGE1IINIW", "dateTime": 1517078916547}, {"current_trial": 5, "trialdata": {"rt": 40480, "trial_type": "survey-text", "responses": "{\"Q0\":\"1:30 am\",\"Q1\":\"7:30 am\",\"Q2\":\"5\"}", "internal_node_id": "0.0-5.0", "time_elapsed": 91679, "type": "SLEEP_SURVEY", "trial_index": 5}, "uniqueid": "MTK2408:317HQ483I8ZI8VUZEUQ8DBGE1IINIW", "dateTime": 1517078957780}, {"current_trial": 6, "trialdata": {"rt": 40246, "trial_type": "text", "internal_node_id": "0.0-6.0", "time_elapsed": 132927, "key_press": 70, "type": "INSTRUCTIONS", "trial_index": 6}, "uniqueid": "MTK2408:317HQ483I8ZI8VUZEUQ8DBGE1IINIW", "dateTime": 1517078999028}, {"current_trial": 7, "trialdata": {"rt": 14651, "trial_type": "text", "internal_node_id": "0.0-7.0", "time_elapsed": 148079, "key_press": 86, "type": "INSTRUCTIONS", "trial_index": 7}, "uniqueid": "MTK2408:317HQ483I8ZI8VUZEUQ8DBGE1IINIW", "dateTime": 1517079014180}, {"current_trial": 8, "trialdata": {"rt": 9475, "trial_type": "text", "internal_node_id": "0.0-8.0", "time_elapsed": 158054, "key_press": 66, "type": "INSTRUCTIONS", "trial_index": 8}, "uniqueid": "MTK2408:317HQ483I8ZI8VUZEUQ8DBGE1IINIW", "dateTime": 1517079024156}, {"current_trial": 9, "trialdata": {"rt": [7163, 10259, 13714], "trial_type": "math-distractor", "key_times": [2899, 6195, 6738, 7163, 9659, 10259, 12571, 12947, 13714, 17786], "responses": ["10", "8", "14"], "num2": [1, 4, 8, 9], "num3": [1, 3, 1, 4], "conditions": [18, 1200, "a", 18000], "internal_node_id": "0.0-9.0", "key_presses": [57, 49, 48, 13, 56, 13, 49, 52, 13, 49], "trial": 0, "time_elapsed": 177060, "type": "DISTRACTOR", "trial_index": 9, "num1": [8, 1, 5, 6]}, "uniqueid": "MTK2408:317HQ483I8ZI8VUZEUQ8DBGE1IINIW", "dateTime": 1517079043161}, {"current_trial": 10, "trialdata": {"rt": -1, "trial_type": "single-stim", "stimulus": "<p id=\"stim\">10</p>", "internal_node_id": "0.0-10.0-0.0", "time_elapsed": 180061, "key_press": -1, "trial_index": 10}, "uniqueid": "MTK2408:317HQ483I8ZI8VUZEUQ8DBGE1IINIW", "dateTime": 1517079046162}, {"current_trial": 11, "trialdata": {"rt": -1, "trial_type": "single-stim", "stimulus": "<p id=\"stim\">9</p>", "internal_node_id": "0.0-10.0-1.0", "time_elapsed": 181063, "key_press": -1, "trial_index": 11}, "uniqueid": "MTK2408:317HQ483I8ZI8VUZEUQ8DBGE1IINIW", "dateTime": 1517079047164}, {"current_trial": 12, "trialdata": {"rt": -1, "trial_type": "single-stim", "stimulus": "<p id=\"stim\">8</p>", "internal_node_id": "0.0-10.0-2.0", "time_elapsed": 182064, "key_press": -1, "trial_index": 12}, "uniqueid": "MTK2408:317HQ483I8ZI8VUZEUQ8DBGE1IINIW", "dateTime": 1517079048165}, {"current_trial": 13, "trialdata": {"rt": -1, "trial_type": "single-stim", "stimulus": "<p id=\"stim\">7</p>", "internal_node_id": "0.0-10.0-3.0", "time_elapsed": 183065, "key_press": -1, "trial_index": 13}, "uniqueid": "MTK2408:317HQ483I8ZI8VUZEUQ8DBGE1IINIW", "dateTime": 1517079049166}, {"current_trial": 14, "trialdata": {"rt": -1, "trial_type": "single-stim", "stimulus": "<p id=\"stim\">6</p>", "internal_node_id": "0.0-10.0-4.0", "time_elapsed": 184066, "key_press": -1, "trial_index": 14}, "uniqueid": "MTK2408:317HQ483I8ZI8VUZEUQ8DBGE1IINIW", "dateTime": 1517079050167}, {"current_trial": 15, "trialdata": {"rt": -1, "trial_type": "single-stim", "stimulus": "<p id=\"stim\">5</p>", "internal_node_id": "0.0-10.0-5.0", "time_elapsed": 185067, "key_press": -1, "trial_index": 15}, "uniqueid": "MTK2408:317HQ483I8ZI8VUZEUQ8DBGE1IINIW", "dateTime": 1517079051168}, {"current_trial": 16, "trialdata": {"rt": -1, "trial_type": "single-stim", "stimulus": "<p id=\"stim\">4</p>", "internal_node_id": "0.0-10.0-6.0", "time_elapsed": 186070, "key_press": -1, "trial_index": 16}, "uniqueid": "MTK2408:317HQ483I8ZI8VUZEUQ8DBGE1IINIW", "dateTime": 1517079052171}, {"current_trial": 17, "trialdata": {"rt": -1, "trial_type": "single-stim", "stimulus": "<p id=\"stim\">3</p>", "internal_node_id": "0.0-10.0-7.0", "time_elapsed": 187071, "key_press": -1, "trial_index": 17}, "uniqueid": "MTK2408:317HQ483I8ZI8VUZEUQ8DBGE1IINIW", "dateTime": 1517079053172}, {"current_trial": 18, "trialdata": {"rt": -1, "trial_type": "single-stim", "stimulus": "<p id=\"stim\">2</p>", "internal_node_id": "0.0-10.0-8.0", "time_elapsed": 188072, "key_press": -1, "trial_index": 18}, "uniqueid": "MTK2408:317HQ483I8ZI8VUZEUQ8DBGE1IINIW", "dateTime": 1517079054173}, {"current_trial": 19, "trialdata": {"rt": -1, "trial_type": "single-stim", "stimulus": "<p id=\"stim\">1</p>", "internal_node_id": "0.0-10.0-9.0", "time_elapsed": 189073, "key_press": -1, "trial_index": 19}, "uniqueid": "MTK2408:317HQ483I8ZI8VUZEUQ8DBGE1IINIW", "dateTime": 1517079055174}, {"current_trial": 20, "trialdata": {"rt": -1, "trial_type": "single-stim", "stimulus": "<p id=\"stim\">+</p>", "internal_node_id": "0.0-11.0-0.0", "time_elapsed": 190575, "key_press": -1, "type": "FIXATION", "trial_index": 20}, "uniqueid": "MTK2408:317HQ483I8ZI8VUZEUQ8DBGE1IINIW", "dateTime": 1517079056676}, {"current_trial": 21, "trialdata": {"rt": -1000, "trial_type": "single-audio", "word": "church", "stimulus": "/static/audio/wordpool/CHURCH.wav", "conditions": [18, 1200, "a", 18000], "internal_node_id": "0.0-12.0", "trial": 0, "time_elapsed": 192712, "serialpos": 0, "key_press": -1, "wordID": 306, "type": "PRES_AUD", "trial_index": 21}, "uniqueid": "MTK2408:317HQ483I8ZI8VUZEUQ8DBGE1IINIW", "dateTime": 1517079058813}, {"current_trial": 22, "trialdata": {"rt": -1000, "trial_type": "single-audio", "word": "loft", "stimulus": "/static/audio/wordpool/LOFT.wav", "conditions": [18, 1200, "a", 18000], "internal_node_id": "0.0-13.0", "trial": 0, "time_elapsed": 194798, "serialpos": 1, "key_press": -1, "wordID": 839, "type": "PRES_AUD", "trial_index": 22}, "uniqueid": "MTK2408:317HQ483I8ZI8VUZEUQ8DBGE1IINIW", "dateTime": 1517079060899}, {"current_trial": 23, "trialdata": {"rt": -1000, "trial_type": "single-audio", "word": "partner", "stimulus": "/static/audio/wordpool/PARTNER.wav", "conditions": [18, 1200, "a", 18000], "internal_node_id": "0.0-14.0", "trial": 0, "time_elapsed": 197060, "serialpos": 2, "key_press": -1, "wordID": 1016, "type": "PRES_AUD", "trial_index": 23}, "uniqueid": "MTK2408:317HQ483I8ZI8VUZEUQ8DBGE1IINIW", "dateTime": 1517079063161}, {"current_trial": 24, "trialdata": {"rt": -1000, "trial_type": "single-audio", "word": "thread", "stimulus": "/static/audio/wordpool/THREAD.wav", "conditions": [18, 1200, "a", 18000], "internal_node_id": "0.0-15.0", "trial": 0, "time_elapsed": 199291, "serialpos": 3, "key_press": -1, "wordID": 1459, "type": "PRES_AUD", "trial_index": 24}, "uniqueid": "MTK2408:317HQ483I8ZI8VUZEUQ8DBGE1IINIW", "dateTime": 1517079065392}, {"current_trial": 25, "trialdata": {"rt": -1000, "trial_type": "single-audio", "word": "pudding", "stimulus": "/static/audio/wordpool/PUDDING.wav", "conditions": [18, 1200, "a", 18000], "internal_node_id": "0.0-16.0", "trial": 0, "time_elapsed": 201294, "serialpos": 4, "key_press": -1, "wordID": 1138, "type": "PRES_AUD", "trial_index": 25}, "uniqueid": "MTK2408:317HQ483I8ZI8VUZEUQ8DBGE1IINIW", "dateTime": 1517079067396}, {"current_trial": 26, "trialdata": {"rt": -1000, "trial_type": "single-audio", "word": "rabbit", "stimulus": "/static/audio/wordpool/RABBIT.wav", "conditions": [18, 1200, "a", 18000], "internal_node_id": "0.0-17.0", "trial": 0, "time_elapsed": 203650, "serialpos": 5, "key_press": -1, "wordID": 1151, "type": "PRES_AUD", "trial_index": 26}, "uniqueid": "MTK2408:317HQ483I8ZI8VUZEUQ8DBGE1IINIW", "dateTime": 1517079069751}, {"current_trial": 27, "trialdata": {"rt": -1000, "trial_type": "single-audio", "word": "umpire", "stimulus": "/static/audio/wordpool/UMPIRE.wav", "conditions": [18, 1200, "a", 18000], "internal_node_id": "0.0-18.0", "trial": 0, "time_elapsed": 205757, "serialpos": 6, "key_press": -1, "wordID": 1534, "type": "PRES_AUD", "trial_index": 27}, "uniqueid": "MTK2408:317HQ483I8ZI8VUZEUQ8DBGE1IINIW", "dateTime": 1517079071858}, {"current_trial": 28, "trialdata": {"rt": -1000, "trial_type": "single-audio", "word": "taxi", "stimulus": "/static/audio/wordpool/TAXI.wav", "conditions": [18, 1200, "a", 18000], "internal_node_id": "0.0-19.0", "trial": 0, "time_elapsed": 208077, "serialpos": 7, "key_press": -1, "wordID": 1437, "type": "PRES_AUD", "trial_index": 28}, "uniqueid": "MTK2408:317HQ483I8ZI8VUZEUQ8DBGE1IINIW", "dateTime": 1517079074179}, {"current_trial": 29, "trialdata": {"rt": -1000, "trial_type": "single-audio", "word": "salmon", "stimulus": "/static/audio/wordpool/SALMON.wav", "conditions": [18, 1200, "a", 18000], "internal_node_id": "0.0-20.0", "trial": 0, "time_elapsed": 210155, "serialpos": 8, "key_press": -1, "wordID": 1226, "type": "PRES_AUD", "trial_index": 29}, "uniqueid": "MTK2408:317HQ483I8ZI8VUZEUQ8DBGE1IINIW", "dateTime": 1517079076256}, {"current_trial": 30, "trialdata": {"rt": -1000, "trial_type": "single-audio", "word": "cottage", "stimulus": "/static/audio/wordpool/COTTAGE.wav", "conditions": [18, 1200, "a", 18000], "internal_node_id": "0.0-21.0", "trial": 0, "time_elapsed": 212489, "serialpos": 9, "key_press": -1, "wordID": 383, "type": "PRES_AUD", "trial_index": 30}, "uniqueid": "MTK2408:317HQ483I8ZI8VUZEUQ8DBGE1IINIW", "dateTime": 1517079078590}, {"current_trial": 31, "trialdata": {"rt": -1000, "trial_type": "single-audio", "word": "thief", "stimulus": "/static/audio/wordpool/THIEF.wav", "conditions": [18, 1200, "a", 18000], "internal_node_id": "0.0-22.0", "trial": 0, "time_elapsed": 214579, "serialpos": 10, "key_press": -1, "wordID": 1455, "type": "PRES_AUD", "trial_index": 31}, "uniqueid": "MTK2408:317HQ483I8ZI8VUZEUQ8DBGE1IINIW", "dateTime": 1517079080680}, {"current_trial": 32, "trialdata": {"rt": -1000, "trial_type": "single-audio", "word": "citrus", "stimulus": "/static/audio/wordpool/CITRUS.wav", "conditions": [18, 1200, "a", 18000], "internal_node_id": "0.0-23.0", "trial": 0, "time_elapsed": 216905, "serialpos": 11, "key_press": -1, "wordID": 312, "type": "PRES_AUD", "trial_index": 32}, "uniqueid": "MTK2408:317HQ483I8ZI8VUZEUQ8DBGE1IINIW", "dateTime": 1517079083007}, {"current_trial": 33, "trialdata": {"rt": -1000, "trial_type": "single-audio", "word": "clam", "stimulus": "/static/audio/wordpool/CLAM.wav", "conditions": [18, 1200, "a", 18000], "internal_node_id": "0.0-24.0", "trial": 0, "time_elapsed": 219170, "serialpos": 12, "key_press": -1, "wordID": 314, "type": "PRES_AUD", "trial_index": 33}, "uniqueid": "MTK2408:317HQ483I8ZI8VUZEUQ8DBGE1IINIW", "dateTime": 1517079085271}, {"current_trial": 34, "trialdata": {"rt": -1000, "trial_type": "single-audio", "word": "wasp", "stimulus": "/static/audio/wordpool/WASP.wav", "conditions": [18, 1200, "a", 18000], "internal_node_id": "0.0-25.0", "trial": 0, "time_elapsed": 221346, "serialpos": 13, "key_press": -1, "wordID": 1592, "type": "PRES_AUD", "trial_index": 34}, "uniqueid": "MTK2408:317HQ483I8ZI8VUZEUQ8DBGE1IINIW", "dateTime": 1517079087447}, {"current_trial": 35, "trialdata": {"rt": -1000, "trial_type": "single-audio", "word": "icing", "stimulus": "/static/audio/wordpool/ICING.wav", "conditions": [18, 1200, "a", 18000], "internal_node_id": "0.0-26.0", "trial": 0, "time_elapsed": 223350, "serialpos": 14, "key_press": -1, "wordID": 731, "type": "PRES_AUD", "trial_index": 35}, "uniqueid": "MTK2408:317HQ483I8ZI8VUZEUQ8DBGE1IINIW", "dateTime": 1517079089451}, {"current_trial": 36, "trialdata": {"rt": -1000, "trial_type": "single-audio", "word": "marrow", "stimulus": "/static/audio/wordpool/MARROW.wav", "conditions": [18, 1200, "a", 18000], "internal_node_id": "0.0-27.0", "trial": 0, "time_elapsed": 225732, "serialpos": 15, "key_press": -1, "wordID": 871, "type": "PRES_AUD", "trial_index": 36}, "uniqueid": "MTK2408:317HQ483I8ZI8VUZEUQ8DBGE1IINIW", "dateTime": 1517079091834}, {"current_trial": 37, "trialdata": {"rt": -1000, "trial_type": "single-audio", "word": "harp", "stimulus": "/static/audio/wordpool/HARP.wav", "conditions": [18, 1200, "a", 18000], "internal_node_id": "0.0-28.0", "trial": 0, "time_elapsed": 228029, "serialpos": 16, "key_press": -1, "wordID": 688, "type": "PRES_AUD", "trial_index": 37}, "uniqueid": "MTK2408:317HQ483I8ZI8VUZEUQ8DBGE1IINIW", "dateTime": 1517079094130}, {"current_trial": 38, "trialdata": {"rt": -1000, "trial_type": "single-audio", "word": "plaid", "stimulus": "/static/audio/wordpool/PLAID.wav", "conditions": [18, 1200, "a", 18000], "internal_node_id": "0.0-29.0", "trial": 0, "time_elapsed": 230354, "serialpos": 17, "key_press": -1, "wordID": 1079, "type": "PRES_AUD", "trial_index": 38}, "uniqueid": "MTK2408:317HQ483I8ZI8VUZEUQ8DBGE1IINIW", "dateTime": 1517079096456}, {"current_trial": 39, "trialdata": {"rt": -1, "trial_type": "single-stim", "stimulus": "", "internal_node_id": "0.0-30.0-0.0", "time_elapsed": 231606, "key_press": -1, "type": "PRE_RECALL_DELAY", "trial_index": 39}, "uniqueid": "MTK2408:317HQ483I8ZI8VUZEUQ8DBGE1IINIW", "dateTime": 1517079097707}, {"current_trial": 40, "trialdata": {"rt": -1000, "trial_type": "single-audio", "stimulus": "/static/audio/400Hz.wav", "internal_node_id": "0.0-31.0", "time_elapsed": 232108, "key_press": -1, "type": "PRE_RECALL_ALERT", "trial_index": 40}, "uniqueid": "MTK2408:317HQ483I8ZI8VUZEUQ8DBGE1IINIW", "dateTime": 1517079098209}, {"current_trial": 41, "trialdata": {"rt": [4055, 6263, 8943, 11382, 13159, 15815, 17847, 19839, 21927, 29279, 32446, 56215], "recwords": ["church", "loft", "partner", "rabbit", "harp", "umpire", "plain", "marrow", "icing", "pudding", "dread", "partner"], "key_times": [1600, 1807, 2071, 2391, 2791, 3007, 4055, 4743, 4943, 5303, 5480, 6263, 6863, 7119, 7455, 7767, 8175, 8375, 8575, 8943, 9839, 10039, 10255, 10383, 10727, 10991, 11382, 11951, 12111, 12447, 12767, 13159, 13687, 13919, 14295, 14559, 15063, 15375, 15815, 16223, 16431, 16839, 17047, 17279, 17847, 18319, 18479, 18847, 19023, 19207, 19479, 19839, 20311, 20567, 20663, 20903, 21135, 21927, 26807, 27159, 27519, 27687, 27823, 28071, 28303, 29279, 30622, 30878, 31135, 31415, 31703, 32446, 54281, 54576, 54919, 55223, 55544, 55695, 55887, 56215, 59392, 59656, 59976], "trial_type": "free-recall", "conditions": [18, 1200, "a", 18000], "internal_node_id": "0.0-32.0-0.0", "key_presses": [67, 72, 85, 82, 67, 72, 13, 76, 79, 70, 84, 13, 80, 65, 82, 84, 78, 69, 82, 13, 82, 65, 66, 66, 73, 84, 13, 72, 65, 82, 80, 13, 85, 77, 80, 73, 82, 69, 13, 80, 76, 65, 73, 78, 13, 77, 65, 82, 82, 79, 87, 13, 73, 67, 73, 78, 71, 13, 80, 85, 68, 68, 73, 78, 71, 13, 68, 82, 69, 65, 68, 13, 80, 65, 82, 84, 78, 69, 82, 13, 80, 65, 82], "trial": 0, "time_elapsed": 292112, "type": "FREE_RECALL", "trial_index": 41}, "uniqueid": "MTK2408:317HQ483I8ZI8VUZEUQ8DBGE1IINIW", "dateTime": 1517079158216}, {"current_trial": 42, "trialdata": {"rt": 1906, "trial_type": "text", "internal_node_id": "0.0-33.0", "time_elapsed": 296022, "key_press": 72, "type": "INSTRUCTIONS", "trial_index": 42}, "uniqueid": "MTK2408:317HQ483I8ZI8VUZEUQ8DBGE1IINIW", "dateTime": 1517079162123}, {"current_trial": 43, "trialdata": {"rt": [4877, 9357, 13470, 15902], "trial_type": "math-distractor", "key_times": [3374, 4126, 4877, 7798, 8029, 9357, 12269, 12926, 13470, 15301, 15902], "responses": ["18", "12", "18", "6"], "num2": [4, 3, 8, 4, 2], "num3": [6, 8, 9, 1, 4], "conditions": [18, 1200, "a", 18000], "internal_node_id": "0.0-34.0", "key_presses": [49, 56, 13, 49, 50, 13, 49, 56, 13, 54, 13], "trial": 1, "time_elapsed": 316025, "type": "DISTRACTOR", "trial_index": 43, "num1": [8, 1, 3, 1, 1]}, "uniqueid": "MTK2408:317HQ483I8ZI8VUZEUQ8DBGE1IINIW", "dateTime": 1517079182126}, {"current_trial": 44, "trialdata": {"rt": -1, "trial_type": "single-stim", "stimulus": "<p id=\"stim\">10</p>", "internal_node_id": "0.0-35.0-0.0", "time_elapsed": 319025, "key_press": -1, "trial_index": 44}, "uniqueid": "MTK2408:317HQ483I8ZI8VUZEUQ8DBGE1IINIW", "dateTime": 1517079185126}, {"current_trial": 45, "trialdata": {"rt": -1, "trial_type": "single-stim", "stimulus": "<p id=\"stim\">9</p>", "internal_node_id": "0.0-35.0-1.0", "time_elapsed": 320027, "key_press": -1, "trial_index": 45}, "uniqueid": "MTK2408:317HQ483I8ZI8VUZEUQ8DBGE1IINIW", "dateTime": 1517079186129}, {"current_trial": 46, "trialdata": {"rt": -1, "trial_type": "single-stim", "stimulus": "<p id=\"stim\">8</p>", "internal_node_id": "0.0-35.0-2.0", "time_elapsed": 321028, "key_press": -1, "trial_index": 46}, "uniqueid": "MTK2408:317HQ483I8ZI8VUZEUQ8DBGE1IINIW", "dateTime": 1517079187129}, {"current_trial": 47, "trialdata": {"rt": -1, "trial_type": "single-stim", "stimulus": "<p id=\"stim\">7</p>", "internal_node_id": "0.0-35.0-3.0", "time_elapsed": 322029, "key_press": -1, "trial_index": 47}, "uniqueid": "MTK2408:317HQ483I8ZI8VUZEUQ8DBGE1IINIW", "dateTime": 1517079188130}, {"current_trial": 48, "trialdata": {"rt": -1, "trial_type": "single-stim", "stimulus": "<p id=\"stim\">6</p>", "internal_node_id": "0.0-35.0-4.0", "time_elapsed": 323030, "key_press": -1, "trial_index": 48}, "uniqueid": "MTK2408:317HQ483I8ZI8VUZEUQ8DBGE1IINIW", "dateTime": 1517079189131}, {"current_trial": 49, "trialdata": {"rt": -1, "trial_type": "single-stim", "stimulus": "<p id=\"stim\">5</p>", "internal_node_id": "0.0-35.0-5.0", "time_elapsed": 324032, "key_press": -1, "trial_index": 49}, "uniqueid": "MTK2408:317HQ483I8ZI8VUZEUQ8DBGE1IINIW", "dateTime": 1517079190133}, {"current_trial": 50, "trialdata": {"rt": -1, "trial_type": "single-stim", "stimulus": "<p id=\"stim\">4</p>", "internal_node_id": "0.0-35.0-6.0", "time_elapsed": 325033, "key_press": -1, "trial_index": 50}, "uniqueid": "MTK2408:317HQ483I8ZI8VUZEUQ8DBGE1IINIW", "dateTime": 1517079191134}, {"current_trial": 51, "trialdata": {"rt": -1, "trial_type": "single-stim", "stimulus": "<p id=\"stim\">3</p>", "internal_node_id": "0.0-35.0-7.0", "time_elapsed": 326034, "key_press": -1, "trial_index": 51}, "uniqueid": "MTK2408:317HQ483I8ZI8VUZEUQ8DBGE1IINIW", "dateTime": 1517079192135}, {"current_trial": 52, "trialdata": {"rt": -1, "trial_type": "single-stim", "stimulus": "<p id=\"stim\">2</p>", "internal_node_id": "0.0-35.0-8.0", "time_elapsed": 327034, "key_press": -1, "trial_index": 52}, "uniqueid": "MTK2408:317HQ483I8ZI8VUZEUQ8DBGE1IINIW", "dateTime": 1517079193135}, {"current_trial": 53, "trialdata": {"rt": -1, "trial_type": "single-stim", "stimulus": "<p id=\"stim\">1</p>", "internal_node_id": "0.0-35.0-9.0", "time_elapsed": 328035, "key_press": -1, "trial_index": 53}, "uniqueid": "MTK2408:317HQ483I8ZI8VUZEUQ8DBGE1IINIW", "dateTime": 1517079194136}, {"current_trial": 54, "trialdata": {"rt": -1, "trial_type": "single-stim", "stimulus": "<p id=\"stim\">+</p>", "internal_node_id": "0.0-36.0-0.0", "time_elapsed": 329537, "key_press": -1, "type": "FIXATION", "trial_index": 54}, "uniqueid": "MTK2408:317HQ483I8ZI8VUZEUQ8DBGE1IINIW", "dateTime": 1517079195638}, {"current_trial": 55, "trialdata": {"rt": -1000, "trial_type": "single-audio", "word": "proton", "stimulus": "/static/audio/wordpool/PROTON.wav", "conditions": [18, 1200, "a", 18000], "internal_node_id": "0.0-37.0", "trial": 1, "time_elapsed": 331795, "serialpos": 0, "key_press": -1, "wordID": 1131, "type": "PRES_AUD", "trial_index": 55}, "uniqueid": "MTK2408:317HQ483I8ZI8VUZEUQ8DBGE1IINIW", "dateTime": 1517079197896}, {"current_trial": 56, "trialdata": {"rt": -1000, "trial_type": "single-audio", "word": "blueprint", "stimulus": "/static/audio/wordpool/BLUEPRINT.wav", "conditions": [18, 1200, "a", 18000], "internal_node_id": "0.0-38.0", "trial": 1, "time_elapsed": 334006, "serialpos": 1, "key_press": -1, "wordID": 141, "type": "PRES_AUD", "trial_index": 56}, "uniqueid": "MTK2408:317HQ483I8ZI8VUZEUQ8DBGE1IINIW", "dateTime": 1517079200107}, {"current_trial": 57, "trialdata": {"rt": -1000, "trial_type": "single-audio", "word": "velvet", "stimulus": "/static/audio/wordpool/VELVET.wav", "conditions": [18, 1200, "a", 18000], "internal_node_id": "0.0-39.0", "trial": 1, "time_elapsed": 336215, "serialpos": 2, "key_press": -1, "wordID": 1554, "type": "PRES_AUD", "trial_index": 57}, "uniqueid": "MTK2408:317HQ483I8ZI8VUZEUQ8DBGE1IINIW", "dateTime": 1517079202316}, {"current_trial": 58, "trialdata": {"rt": -1000, "trial_type": "single-audio", "word": "baby", "stimulus": "/static/audio/wordpool/BABY.wav", "conditions": [18, 1200, "a", 18000], "internal_node_id": "0.0-40.0", "trial": 1, "time_elapsed": 338217, "serialpos": 3, "key_press": -1, "wordID": 63, "type": "PRES_AUD", "trial_index": 58}, "uniqueid": "MTK2408:317HQ483I8ZI8VUZEUQ8DBGE1IINIW", "dateTime": 1517079204318}, {"current_trial": 59, "trialdata": {"rt": -1000, "trial_type": "single-audio", "word": "chipmunk", "stimulus": "/static/audio/wordpool/CHIPMUNK.wav", "conditions": [18, 1200, "a", 18000], "internal_node_id": "0.0-41.0", "trial": 1, "time_elapsed": 340611, "serialpos": 4, "key_press": -1, "wordID": 303, "type": "PRES_AUD", "trial_index": 59}, "uniqueid": "MTK2408:317HQ483I8ZI8VUZEUQ8DBGE1IINIW", "dateTime": 1517079206713}, {"current_trial": 60, "trialdata": {"rt": -1000, "trial_type": "single-audio", "word": "knapsack", "stimulus": "/static/audio/wordpool/KNAPSACK.wav", "conditions": [18, 1200, "a", 18000], "internal_node_id": "0.0-42.0", "trial": 1, "time_elapsed": 342763, "serialpos": 5, "key_press": -1, "wordID": 782, "type": "PRES_AUD", "trial_index": 60}, "uniqueid": "MTK2408:317HQ483I8ZI8VUZEUQ8DBGE1IINIW", "dateTime": 1517079208865}, {"current_trial": 61, "trialdata": {"rt": -1000, "trial_type": "single-audio", "word": "tunnel", "stimulus": "/static/audio/wordpool/TUNNEL.wav", "conditions": [18, 1200, "a", 18000], "internal_node_id": "0.0-43.0", "trial": 1, "time_elapsed": 344811, "serialpos": 6, "key_press": -1, "wordID": 1518, "type": "PRES_AUD", "trial_index": 61}, "uniqueid": "MTK2408:317HQ483I8ZI8VUZEUQ8DBGE1IINIW", "dateTime": 1517079210912}, {"current_trial": 62, "trialdata": {"rt": -1000, "trial_type": "single-audio", "word": "truck", "stimulus": "/static/audio/wordpool/TRUCK.wav", "conditions": [18, 1200, "a", 18000], "internal_node_id": "0.0-44.0", "trial": 1, "time_elapsed": 346915, "serialpos": 7, "key_press": -1, "wordID": 1511, "type": "PRES_AUD", "trial_index": 62}, "uniqueid": "MTK2408:317HQ483I8ZI8VUZEUQ8DBGE1IINIW", "dateTime": 1517079213016}, {"current_trial": 63, "trialdata": {"rt": -1000, "trial_type": "single-audio", "word": "package", "stimulus": "/static/audio/wordpool/PACKAGE.wav", "conditions": [18, 1200, "a", 18000], "internal_node_id": "0.0-45.0", "trial": 1, "time_elapsed": 349221, "serialpos": 8, "key_press": -1, "wordID": 996, "type": "PRES_AUD", "trial_index": 63}, "uniqueid": "MTK2408:317HQ483I8ZI8VUZEUQ8DBGE1IINIW", "dateTime": 1517079215322}, {"current_trial": 64, "trialdata": {"rt": -1000, "trial_type": "single-audio", "word": "parsley", "stimulus": "/static/audio/wordpool/PARSLEY.wav", "conditions": [18, 1200, "a", 18000], "internal_node_id": "0.0-46.0", "trial": 1, "time_elapsed": 351255, "serialpos": 9, "key_press": -1, "wordID": 1015, "type": "PRES_AUD", "trial_index": 64}, "uniqueid": "MTK2408:317HQ483I8ZI8VUZEUQ8DBGE1IINIW", "dateTime": 1517079217357}, {"current_trial": 65, "trialdata": {"rt": -1000, "trial_type": "single-audio", "word": "carriage", "stimulus": "/static/audio/wordpool/CARRIAGE.wav", "conditions": [18, 1200, "a", 18000], "internal_node_id": "0.0-47.0", "trial": 1, "time_elapsed": 353611, "serialpos": 10, "key_press": -1, "wordID": 247, "type": "PRES_AUD", "trial_index": 65}, "uniqueid": "MTK2408:317HQ483I8ZI8VUZEUQ8DBGE1IINIW", "dateTime": 1517079219712}, {"current_trial": 66, "trialdata": {"rt": -1000, "trial_type": "single-audio", "word": "whiskers", "stimulus": "/static/audio/wordpool/WHISKERS.wav", "conditions": [18, 1200, "a", 18000], "internal_node_id": "0.0-48.0", "trial": 1, "time_elapsed": 355933, "serialpos": 11, "key_press": -1, "wordID": 1604, "type": "PRES_AUD", "trial_index": 66}, "uniqueid": "MTK2408:317HQ483I8ZI8VUZEUQ8DBGE1IINIW", "dateTime": 1517079222034}, {"current_trial": 67, "trialdata": {"rt": -1000, "trial_type": "single-audio", "word": "pistol", "stimulus": "/static/audio/wordpool/PISTOL.wav", "conditions": [18, 1200, "a", 18000], "internal_node_id": "0.0-49.0", "trial": 1, "time_elapsed": 358130, "serialpos": 12, "key_press": -1, "wordID": 1074, "type": "PRES_AUD", "trial_index": 67}, "uniqueid": "MTK2408:317HQ483I8ZI8VUZEUQ8DBGE1IINIW", "dateTime": 1517079224231}, {"current_trial": 68, "trialdata": {"rt": -1000, "trial_type": "single-audio", "word": "spool", "stimulus": "/static/audio/wordpool/SPOOL.wav", "conditions": [18, 1200, "a", 18000], "internal_node_id": "0.0-50.0", "trial": 1, "time_elapsed": 360279, "serialpos": 13, "key_press": -1, "wordID": 1355, "type": "PRES_AUD", "trial_index": 68}, "uniqueid": "MTK2408:317HQ483I8ZI8VUZEUQ8DBGE1IINIW", "dateTime": 1517079226383}, {"current_trial": 69, "trialdata": {"rt": -1000, "trial_type": "single-audio", "word": "france", "stimulus": "/static/audio/wordpool/FRANCE.wav", "conditions": [18, 1200, "a", 18000], "internal_node_id": "0.0-51.0", "trial": 1, "time_elapsed": 362517, "serialpos": 14, "key_press": -1, "wordID": 600, "type": "PRES_AUD", "trial_index": 69}, "uniqueid": "MTK2408:317HQ483I8ZI8VUZEUQ8DBGE1IINIW", "dateTime": 1517079228618}, {"current_trial": 70, "trialdata": {"rt": -1000, "trial_type": "single-audio", "word": "muffin", "stimulus": "/static/audio/wordpool/MUFFIN.wav", "conditions": [18, 1200, "a", 18000], "internal_node_id": "0.0-52.0", "trial": 1, "time_elapsed": 364570, "serialpos": 15, "key_press": -1, "wordID": 928, "type": "PRES_AUD", "trial_index": 70}, "uniqueid": "MTK2408:317HQ483I8ZI8VUZEUQ8DBGE1IINIW", "dateTime": 1517079230672}, {"current_trial": 71, "trialdata": {"rt": -1000, "trial_type": "single-audio", "word": "quail", "stimulus": "/static/audio/wordpool/QUAIL.wav", "conditions": [18, 1200, "a", 18000], "internal_node_id": "0.0-53.0", "trial": 1, "time_elapsed": 366702, "serialpos": 16, "key_press": -1, "wordID": 1146, "type": "PRES_AUD", "trial_index": 71}, "uniqueid": "MTK2408:317HQ483I8ZI8VUZEUQ8DBGE1IINIW", "dateTime": 1517079232804}, {"current_trial": 72, "trialdata": {"rt": -1000, "trial_type": "single-audio", "word": "rattle", "stimulus": "/static/audio/wordpool/RATTLE.wav", "conditions": [18, 1200, "a", 18000], "internal_node_id": "0.0-54.0", "trial": 1, "time_elapsed": 368987, "serialpos": 17, "key_press": -1, "wordID": 1169, "type": "PRES_AUD", "trial_index": 72}, "uniqueid": "MTK2408:317HQ483I8ZI8VUZEUQ8DBGE1IINIW", "dateTime": 1517079235088}, {"current_trial": 73, "trialdata": {"rt": -1, "trial_type": "single-stim", "stimulus": "", "internal_node_id": "0.0-55.0-0.0", "time_elapsed": 370304, "key_press": -1, "type": "PRE_RECALL_DELAY", "trial_index": 73}, "uniqueid": "MTK2408:317HQ483I8ZI8VUZEUQ8DBGE1IINIW", "dateTime": 1517079236405}, {"current_trial": 74, "trialdata": {"rt": -1000, "trial_type": "single-audio", "stimulus": "/static/audio/400Hz.wav", "internal_node_id": "0.0-56.0", "time_elapsed": 370804, "key_press": -1, "type": "PRE_RECALL_ALERT", "trial_index": 74}, "uniqueid": "MTK2408:317HQ483I8ZI8VUZEUQ8DBGE1IINIW", "dateTime": 1517079236905}, {"current_trial": 75, "trialdata": {"rt": [3623, 6495, 9311, 12407, 14175, 17255, 21743, 25839, 36806, 39174, 48191], "recwords": ["rattle", "quail", "muffin", "france", "baby", "parsley", "tunnel", "blueprint", "proton", "carriage", "truck"], "key_times": [1807, 2071, 2312, 2431, 2943, 3199, 3623, 4319, 4463, 4735, 5359, 6063, 6495, 6935, 7247, 7959, 8127, 8287, 8527, 9311, 10495, 10607, 10783, 10991, 11287, 11503, 11751, 12407, 12943, 13095, 13215, 13495, 14175, 14615, 14815, 15167, 15687, 15919, 16183, 16471, 17255, 18735, 18903, 19143, 19287, 19487, 21095, 21743, 22215, 22695, 23135, 23751, 24127, 24271, 24447, 24719, 25007, 25839, 34872, 35263, 35479, 35846, 35967, 36246, 36806, 37190, 37479, 37830, 37998, 38118, 38326, 38447, 38647, 39174, 46559, 46783, 46942, 47247, 47662, 48191], "trial_type": "free-recall", "conditions": [18, 1200, "a", 18000], "internal_node_id": "0.0-57.0-0.0", "key_presses": [82, 65, 84, 84, 76, 69, 13, 81, 85, 65, 73, 76, 13, 77, 85, 70, 70, 73, 78, 13, 16, 70, 82, 65, 78, 67, 69, 13, 66, 65, 66, 89, 13, 80, 65, 82, 83, 76, 69, 89, 13, 84, 85, 78, 78, 69, 76, 13, 66, 76, 85, 69, 80, 82, 73, 78, 84, 13, 80, 82, 79, 84, 79, 78, 13, 67, 65, 82, 82, 73, 65, 71, 69, 13, 84, 82, 85, 67, 75, 13], "trial": 1, "time_elapsed": 430807, "type": "FREE_RECALL", "trial_index": 75}, "uniqueid": "MTK2408:317HQ483I8ZI8VUZEUQ8DBGE1IINIW", "dateTime": 1517079296911}, {"current_trial": 76, "trialdata": {"rt": 2787, "trial_type": "text", "internal_node_id": "0.0-58.0", "time_elapsed": 435598, "key_press": 71, "type": "INSTRUCTIONS", "trial_index": 76}, "uniqueid": "MTK2408:317HQ483I8ZI8VUZEUQ8DBGE1IINIW", "dateTime": 1517079301699}, {"current_trial": 77, "trialdata": {"rt": [3254, 5846, 8646, 10925, 14701, 17606, 19853], "trial_type": "math-distractor", "key_times": [2342, 2557, 3254, 4805, 5343, 5846, 7822, 8134, 8646, 10423, 10925, 14214, 14461, 14701, 17190, 17405, 17606, 19230, 19605, 19853, 23934], "responses": ["12", "17", "18", "8", "21", "12", "14"], "num2": [6, 9, 3, 3, 5, 6, 5, 5], "num3": [2, 7, 9, 3, 9, 4, 7, 6], "conditions": [12, 800, "a", 24000], "internal_node_id": "0.0-59.0", "key_presses": [49, 50, 13, 49, 55, 13, 49, 56, 13, 56, 13, 50, 49, 13, 49, 50, 13, 49, 52, 13, 50], "trial": 2, "time_elapsed": 460600, "type": "DISTRACTOR", "trial_index": 77, "num1": [4, 1, 6, 2, 7, 2, 2, 9]}, "uniqueid": "MTK2408:317HQ483I8ZI8VUZEUQ8DBGE1IINIW", "dateTime": 1517079326701}, {"current_trial": 78, "trialdata": {"rt": -1, "trial_type": "single-stim", "stimulus": "<p id=\"stim\">10</p>", "internal_node_id": "0.0-60.0-0.0", "time_elapsed": 463600, "key_press": -1, "trial_index": 78}, "uniqueid": "MTK2408:317HQ483I8ZI8VUZEUQ8DBGE1IINIW", "dateTime": 1517079329701}, {"current_trial": 79, "trialdata": {"rt": -1, "trial_type": "single-stim", "stimulus": "<p id=\"stim\">9</p>", "internal_node_id": "0.0-60.0-1.0", "time_elapsed": 464600, "key_press": -1, "trial_index": 79}, "uniqueid": "MTK2408:317HQ483I8ZI8VUZEUQ8DBGE1IINIW", "dateTime": 1517079330701}, {"current_trial": 80, "trialdata": {"rt": -1, "trial_type": "single-stim", "stimulus": "<p id=\"stim\">8</p>", "internal_node_id": "0.0-60.0-2.0", "time_elapsed": 465600, "key_press": -1, "trial_index": 80}, "uniqueid": "MTK2408:317HQ483I8ZI8VUZEUQ8DBGE1IINIW", "dateTime": 1517079331701}, {"current_trial": 81, "trialdata": {"rt": -1, "trial_type": "single-stim", "stimulus": "<p id=\"stim\">7</p>", "internal_node_id": "0.0-60.0-3.0", "time_elapsed": 466600, "key_press": -1, "trial_index": 81}, "uniqueid": "MTK2408:317HQ483I8ZI8VUZEUQ8DBGE1IINIW", "dateTime": 1517079332701}, {"current_trial": 82, "trialdata": {"rt": -1, "trial_type": "single-stim", "stimulus": "<p id=\"stim\">6</p>", "internal_node_id": "0.0-60.0-4.0", "time_elapsed": 467600, "key_press": -1, "trial_index": 82}, "uniqueid": "MTK2408:317HQ483I8ZI8VUZEUQ8DBGE1IINIW", "dateTime": 1517079333701}, {"current_trial": 83, "trialdata": {"rt": -1, "trial_type": "single-stim", "stimulus": "<p id=\"stim\">5</p>", "internal_node_id": "0.0-60.0-5.0", "time_elapsed": 468600, "key_press": -1, "trial_index": 83}, "uniqueid": "MTK2408:317HQ483I8ZI8VUZEUQ8DBGE1IINIW", "dateTime": 1517079334701}, {"current_trial": 84, "trialdata": {"rt": -1, "trial_type": "single-stim", "stimulus": "<p id=\"stim\">4</p>", "internal_node_id": "0.0-60.0-6.0", "time_elapsed": 469600, "key_press": -1, "trial_index": 84}, "uniqueid": "MTK2408:317HQ483I8ZI8VUZEUQ8DBGE1IINIW", "dateTime": 1517079335701}, {"current_trial": 85, "trialdata": {"rt": -1, "trial_type": "single-stim", "stimulus": "<p id=\"stim\">3</p>", "internal_node_id": "0.0-60.0-7.0", "time_elapsed": 470600, "key_press": -1, "trial_index": 85}, "uniqueid": "MTK2408:317HQ483I8ZI8VUZEUQ8DBGE1IINIW", "dateTime": 1517079336701}, {"current_trial": 86, "trialdata": {"rt": -1, "trial_type": "single-stim", "stimulus": "<p id=\"stim\">2</p>", "internal_node_id": "0.0-60.0-8.0", "time_elapsed": 471600, "key_press": -1, "trial_index": 86}, "uniqueid": "MTK2408:317HQ483I8ZI8VUZEUQ8DBGE1IINIW", "dateTime": 1517079337701}, {"current_trial": 87, "trialdata": {"rt": -1, "trial_type": "single-stim", "stimulus": "<p id=\"stim\">1</p>", "internal_node_id": "0.0-60.0-9.0", "time_elapsed": 472600, "key_press": -1, "trial_index": 87}, "uniqueid": "MTK2408:317HQ483I8ZI8VUZEUQ8DBGE1IINIW", "dateTime": 1517079338701}, {"current_trial": 88, "trialdata": {"rt": -1, "trial_type": "single-stim", "stimulus": "<p id=\"stim\">+</p>", "internal_node_id": "0.0-61.0-0.0", "time_elapsed": 474101, "key_press": -1, "type": "FIXATION", "trial_index": 88}, "uniqueid": "MTK2408:317HQ483I8ZI8VUZEUQ8DBGE1IINIW", "dateTime": 1517079340202}, {"current_trial": 89, "trialdata": {"rt": -1000, "trial_type": "single-audio", "word": "scarf", "stimulus": "/static/audio/wordpool/SCARF.wav", "conditions": [12, 800, "a", 24000], "internal_node_id": "0.0-62.0", "trial": 2, "time_elapsed": 476017, "serialpos": 0, "key_press": -1, "wordID": 1245, "type": "PRES_AUD", "trial_index": 89}, "uniqueid": "MTK2408:317HQ483I8ZI8VUZEUQ8DBGE1IINIW", "dateTime": 1517079342118}, {"current_trial": 90, "trialdata": {"rt": -1000, "trial_type": "single-audio", "word": "shirt", "stimulus": "/static/audio/wordpool/SHIRT.wav", "conditions": [12, 800, "a", 24000], "internal_node_id": "0.0-63.0", "trial": 2, "time_elapsed": 477630, "serialpos": 1, "key_press": -1, "wordID": 1286, "type": "PRES_AUD", "trial_index": 90}, "uniqueid": "MTK2408:317HQ483I8ZI8VUZEUQ8DBGE1IINIW", "dateTime": 1517079343731}, {"current_trial": 91, "trialdata": {"rt": -1000, "trial_type": "single-audio", "word": "flipper", "stimulus": "/static/audio/wordpool/FLIPPER.wav", "conditions": [12, 800, "a", 24000], "internal_node_id": "0.0-64.0", "trial": 2, "time_elapsed": 479562, "serialpos": 2, "key_press": -1, "wordID": 579, "type": "PRES_AUD", "trial_index": 91}, "uniqueid": "MTK2408:317HQ483I8ZI8VUZEUQ8DBGE1IINIW", "dateTime": 1517079345663}, {"current_trial": 92, "trialdata": {"rt": -1000, "trial_type": "single-audio", "word": "lamp", "stimulus": "/static/audio/wordpool/LAMP.wav", "conditions": [12, 800, "a", 24000], "internal_node_id": "0.0-65.0", "trial": 2, "time_elapsed": 481446, "serialpos": 3, "key_press": -1, "wordID": 797, "type": "PRES_AUD", "trial_index": 92}, "uniqueid": "MTK2408:317HQ483I8ZI8VUZEUQ8DBGE1IINIW", "dateTime": 1517079347548}, {"current_trial": 93, "trialdata": {"rt": -1000, "trial_type": "single-audio", "word": "pecan", "stimulus": "/static/audio/wordpool/PECAN.wav", "conditions": [12, 800, "a", 24000], "internal_node_id": "0.0-66.0", "trial": 2, "time_elapsed": 483275, "serialpos": 4, "key_press": -1, "wordID": 1035, "type": "PRES_AUD", "trial_index": 93}, "uniqueid": "MTK2408:317HQ483I8ZI8VUZEUQ8DBGE1IINIW", "dateTime": 1517079349377}, {"current_trial": 94, "trialdata": {"rt": -1000, "trial_type": "single-audio", "word": "country", "stimulus": "/static/audio/wordpool/COUNTRY.wav", "conditions": [12, 800, "a", 24000], "internal_node_id": "0.0-67.0", "trial": 2, "time_elapsed": 484989, "serialpos": 5, "key_press": -1, "wordID": 387, "type": "PRES_AUD", "trial_index": 94}, "uniqueid": "MTK2408:317HQ483I8ZI8VUZEUQ8DBGE1IINIW", "dateTime": 1517079351090}, {"current_trial": 95, "trialdata": {"rt": -1000, "trial_type": "single-audio", "word": "costume", "stimulus": "/static/audio/wordpool/COSTUME.wav", "conditions": [12, 800, "a", 24000], "internal_node_id": "0.0-68.0", "trial": 2, "time_elapsed": 486949, "serialpos": 6, "key_press": -1, "wordID": 382, "type": "PRES_AUD", "trial_index": 95}, "uniqueid": "MTK2408:317HQ483I8ZI8VUZEUQ8DBGE1IINIW", "dateTime": 1517079353051}, {"current_trial": 96, "trialdata": {"rt": -1000, "trial_type": "single-audio", "word": "chemist", "stimulus": "/static/audio/wordpool/CHEMIST.wav", "conditions": [12, 800, "a", 24000], "internal_node_id": "0.0-69.0", "trial": 2, "time_elapsed": 488741, "serialpos": 7, "key_press": -1, "wordID": 291, "type": "PRES_AUD", "trial_index": 96}, "uniqueid": "MTK2408:317HQ483I8ZI8VUZEUQ8DBGE1IINIW", "dateTime": 1517079354843}, {"current_trial": 97, "trialdata": {"rt": -1000, "trial_type": "single-audio", "word": "flask", "stimulus": "/static/audio/wordpool/FLASK.wav", "conditions": [12, 800, "a", 24000], "internal_node_id": "0.0-70.0", "trial": 2, "time_elapsed": 490372, "serialpos": 8, "key_press": -1, "wordID": 575, "type": "PRES_AUD", "trial_index": 97}, "uniqueid": "MTK2408:317HQ483I8ZI8VUZEUQ8DBGE1IINIW", "dateTime": 1517079356473}, {"current_trial": 98, "trialdata": {"rt": -1000, "trial_type": "single-audio", "word": "coin", "stimulus": "/static/audio/wordpool/COIN.wav", "conditions": [12, 800, "a", 24000], "internal_node_id": "0.0-71.0", "trial": 2, "time_elapsed": 492320, "serialpos": 9, "key_press": -1, "wordID": 342, "type": "PRES_AUD", "trial_index": 98}, "uniqueid": "MTK2408:317HQ483I8ZI8VUZEUQ8DBGE1IINIW", "dateTime": 1517079358422}, {"current_trial": 99, "trialdata": {"rt": -1000, "trial_type": "single-audio", "word": "gallon", "stimulus": "/static/audio/wordpool/GALLON.wav", "conditions": [12, 800, "a", 24000], "internal_node_id": "0.0-72.0", "trial": 2, "time_elapsed": 494290, "serialpos": 10, "key_press": -1, "wordID": 617, "type": "PRES_AUD", "trial_index": 99}, "uniqueid": "MTK2408:317HQ483I8ZI8VUZEUQ8DBGE1IINIW", "dateTime": 1517079360391}, {"current_trial": 100, "trialdata": {"rt": -1000, "trial_type": "single-audio", "word": "world", "stimulus": "/static/audio/wordpool/WORLD.wav", "conditions": [12, 800, "a", 24000], "internal_node_id": "0.0-73.0", "trial": 2, "time_elapsed": 495901, "serialpos": 11, "key_press": -1, "wordID": 1621, "type": "PRES_AUD", "trial_index": 100}, "uniqueid": "MTK2408:317HQ483I8ZI8VUZEUQ8DBGE1IINIW", "dateTime": 1517079362003}, {"current_trial": 101, "trialdata": {"rt": -1, "trial_type": "single-stim", "stimulus": "", "internal_node_id": "0.0-74.0-0.0", "time_elapsed": 497137, "key_press": -1, "type": "PRE_RECALL_DELAY", "trial_index": 101}, "uniqueid": "MTK2408:317HQ483I8ZI8VUZEUQ8DBGE1IINIW", "dateTime": 1517079363238}, {"current_trial": 102, "trialdata": {"rt": -1000, "trial_type": "single-audio", "stimulus": "/static/audio/400Hz.wav", "internal_node_id": "0.0-75.0", "time_elapsed": 497637, "key_press": -1, "type": "PRE_RECALL_ALERT", "trial_index": 102}, "uniqueid": "MTK2408:317HQ483I8ZI8VUZEUQ8DBGE1IINIW", "dateTime": 1517079363738}, {"current_trial": 103, "trialdata": {"rt": [2958, 5078, 7118, 9566, 11774, 22198, 24158, 26366], "recwords": ["world", "pecan", "coin", "flask", "lemon", "shirt", "slipper", "scarf"], "key_times": [1094, 1278, 1550, 1742, 1982, 2958, 3502, 3774, 4046, 4358, 4510, 5078, 5622, 5774, 5974, 6206, 7118, 7758, 8094, 8286, 8518, 9014, 9566, 9998, 10198, 10374, 10694, 10982, 11774, 20406, 20734, 21054, 21414, 21582, 22198, 22622, 22806, 23030, 23318, 23454, 23646, 23846, 24158, 24494, 24742, 25006, 25310, 25814, 26366], "trial_type": "free-recall", "conditions": [12, 800, "a", 24000], "internal_node_id": "0.0-76.0-0.0", "key_presses": [87, 79, 82, 76, 68, 13, 80, 69, 67, 65, 78, 13, 67, 79, 73, 78, 13, 70, 76, 65, 83, 75, 13, 76, 69, 77, 79, 78, 13, 83, 72, 73, 82, 84, 13, 83, 76, 73, 80, 80, 69, 82, 13, 83, 67, 65, 82, 70, 13], "trial": 2, "time_elapsed": 557640, "type": "FREE_RECALL", "trial_index": 103}, "uniqueid": "MTK2408:317HQ483I8ZI8VUZEUQ8DBGE1IINIW", "dateTime": 1517079423744}, {"current_trial": 104, "trialdata": {"rt": 2418, "trial_type": "text", "internal_node_id": "0.0-77.0", "time_elapsed": 562062, "key_press": 72, "type": "INSTRUCTIONS", "trial_index": 104}, "uniqueid": "MTK2408:317HQ483I8ZI8VUZEUQ8DBGE1IINIW", "dateTime": 1517079428163}, {"current_trial": 105, "trialdata": {"rt": [3086, 5471, 8039, 10606], "trial_type": "math-distractor", "key_times": [2157, 2566, 3086, 4647, 4991, 5471, 7431, 7727, 8039, 9959, 10302, 10606], "responses": ["18", "20", "13", "14"], "num2": [7, 6, 8, 3, 4], "num3": [8, 8, 1, 3, 5], "conditions": [12, 1600, "a", 12000], "internal_node_id": "0.0-78.0", "key_presses": [49, 56, 13, 50, 48, 13, 49, 51, 13, 49, 52, 13], "trial": 3, "time_elapsed": 576065, "type": "DISTRACTOR", "trial_index": 105, "num1": [3, 6, 4, 8, 9]}, "uniqueid": "MTK2408:317HQ483I8ZI8VUZEUQ8DBGE1IINIW", "dateTime": 1517079442166}, {"current_trial": 106, "trialdata": {"rt": -1, "trial_type": "single-stim", "stimulus": "<p id=\"stim\">10</p>", "internal_node_id": "0.0-79.0-0.0", "time_elapsed": 579066, "key_press": -1, "trial_index": 106}, "uniqueid": "MTK2408:317HQ483I8ZI8VUZEUQ8DBGE1IINIW", "dateTime": 1517079445167}, {"current_trial": 107, "trialdata": {"rt": -1, "trial_type": "single-stim", "stimulus": "<p id=\"stim\">9</p>", "internal_node_id": "0.0-79.0-1.0", "time_elapsed": 580067, "key_press": -1, "trial_index": 107}, "uniqueid": "MTK2408:317HQ483I8ZI8VUZEUQ8DBGE1IINIW", "dateTime": 1517079446168}, {"current_trial": 108, "trialdata": {"rt": -1, "trial_type": "single-stim", "stimulus": "<p id=\"stim\">8</p>", "internal_node_id": "0.0-79.0-2.0", "time_elapsed": 581067, "key_press": -1, "trial_index": 108}, "uniqueid": "MTK2408:317HQ483I8ZI8VUZEUQ8DBGE1IINIW", "dateTime": 1517079447168}, {"current_trial": 109, "trialdata": {"rt": -1, "trial_type": "single-stim", "stimulus": "<p id=\"stim\">7</p>", "internal_node_id": "0.0-79.0-3.0", "time_elapsed": 582068, "key_press": -1, "trial_index": 109}, "uniqueid": "MTK2408:317HQ483I8ZI8VUZEUQ8DBGE1IINIW", "dateTime": 1517079448169}, {"current_trial": 110, "trialdata": {"rt": -1, "trial_type": "single-stim", "stimulus": "<p id=\"stim\">6</p>", "internal_node_id": "0.0-79.0-4.0", "time_elapsed": 583069, "key_press": -1, "trial_index": 110}, "uniqueid": "MTK2408:317HQ483I8ZI8VUZEUQ8DBGE1IINIW", "dateTime": 1517079449170}, {"current_trial": 111, "trialdata": {"rt": -1, "trial_type": "single-stim", "stimulus": "<p id=\"stim\">5</p>", "internal_node_id": "0.0-79.0-5.0", "time_elapsed": 584070, "key_press": -1, "trial_index": 111}, "uniqueid": "MTK2408:317HQ483I8ZI8VUZEUQ8DBGE1IINIW", "dateTime": 1517079450171}, {"current_trial": 112, "trialdata": {"rt": -1, "trial_type": "single-stim", "stimulus": "<p id=\"stim\">4</p>", "internal_node_id": "0.0-79.0-6.0", "time_elapsed": 585071, "key_press": -1, "trial_index": 112}, "uniqueid": "MTK2408:317HQ483I8ZI8VUZEUQ8DBGE1IINIW", "dateTime": 1517079451172}, {"current_trial": 113, "trialdata": {"rt": -1, "trial_type": "single-stim", "stimulus": "<p id=\"stim\">3</p>", "internal_node_id": "0.0-79.0-7.0", "time_elapsed": 586072, "key_press": -1, "trial_index": 113}, "uniqueid": "MTK2408:317HQ483I8ZI8VUZEUQ8DBGE1IINIW", "dateTime": 1517079452173}, {"current_trial": 114, "trialdata": {"rt": -1, "trial_type": "single-stim", "stimulus": "<p id=\"stim\">2</p>", "internal_node_id": "0.0-79.0-8.0", "time_elapsed": 587072, "key_press": -1, "trial_index": 114}, "uniqueid": "MTK2408:317HQ483I8ZI8VUZEUQ8DBGE1IINIW", "dateTime": 1517079453173}, {"current_trial": 115, "trialdata": {"rt": -1, "trial_type": "single-stim", "stimulus": "<p id=\"stim\">1</p>", "internal_node_id": "0.0-79.0-9.0", "time_elapsed": 588073, "key_press": -1, "trial_index": 115}, "uniqueid": "MTK2408:317HQ483I8ZI8VUZEUQ8DBGE1IINIW", "dateTime": 1517079454174}, {"current_trial": 116, "trialdata": {"rt": -1, "trial_type": "single-stim", "stimulus": "<p id=\"stim\">+</p>", "internal_node_id": "0.0-80.0-0.0", "time_elapsed": 589574, "key_press": -1, "type": "FIXATION", "trial_index": 116}, "uniqueid": "MTK2408:317HQ483I8ZI8VUZEUQ8DBGE1IINIW", "dateTime": 1517079455675}, {"current_trial": 117, "trialdata": {"rt": -1000, "trial_type": "single-audio", "word": "shortcake", "stimulus": "/static/audio/wordpool/SHORTCAKE.wav", "conditions": [12, 1600, "a", 12000], "internal_node_id": "0.0-81.0", "trial": 3, "time_elapsed": 592166, "serialpos": 0, "key_press": -1, "wordID": 1291, "type": "PRES_AUD", "trial_index": 117}, "uniqueid": "MTK2408:317HQ483I8ZI8VUZEUQ8DBGE1IINIW", "dateTime": 1517079458268}, {"current_trial": 118, "trialdata": {"rt": -1000, "trial_type": "single-audio", "word": "summit", "stimulus": "/static/audio/wordpool/SUMMIT.wav", "conditions": [12, 1600, "a", 12000], "internal_node_id": "0.0-82.0", "trial": 3, "time_elapsed": 594938, "serialpos": 1, "key_press": -1, "wordID": 1404, "type": "PRES_AUD", "trial_index": 118}, "uniqueid": "MTK2408:317HQ483I8ZI8VUZEUQ8DBGE1IINIW", "dateTime": 1517079461040}, {"current_trial": 119, "trialdata": {"rt": -1000, "trial_type": "single-audio", "word": "lace", "stimulus": "/static/audio/wordpool/LACE.wav", "conditions": [12, 1600, "a", 12000], "internal_node_id": "0.0-83.0", "trial": 3, "time_elapsed": 597396, "serialpos": 2, "key_press": -1, "wordID": 791, "type": "PRES_AUD", "trial_index": 119}, "uniqueid": "MTK2408:317HQ483I8ZI8VUZEUQ8DBGE1IINIW", "dateTime": 1517079463498}, {"current_trial": 120, "trialdata": {"rt": -1000, "trial_type": "single-audio", "word": "twig", "stimulus": "/static/audio/wordpool/TWIG.wav", "conditions": [12, 1600, "a", 12000], "internal_node_id": "0.0-84.0", "trial": 3, "time_elapsed": 600156, "serialpos": 3, "key_press": -1, "wordID": 1526, "type": "PRES_AUD", "trial_index": 120}, "uniqueid": "MTK2408:317HQ483I8ZI8VUZEUQ8DBGE1IINIW", "dateTime": 1517079466258}, {"current_trial": 121, "trialdata": {"rt": -1000, "trial_type": "single-audio", "word": "motel", "stimulus": "/static/audio/wordpool/MOTEL.wav", "conditions": [12, 1600, "a", 12000], "internal_node_id": "0.0-85.0", "trial": 3, "time_elapsed": 602904, "serialpos": 4, "key_press": -1, "wordID": 918, "type": "PRES_AUD", "trial_index": 121}, "uniqueid": "MTK2408:317HQ483I8ZI8VUZEUQ8DBGE1IINIW", "dateTime": 1517079469006}, {"current_trial": 122, "trialdata": {"rt": -1000, "trial_type": "single-audio", "word": "snail", "stimulus": "/static/audio/wordpool/SNAIL.wav", "conditions": [12, 1600, "a", 12000], "internal_node_id": "0.0-86.0", "trial": 3, "time_elapsed": 605498, "serialpos": 5, "key_press": -1, "wordID": 1331, "type": "PRES_AUD", "trial_index": 122}, "uniqueid": "MTK2408:317HQ483I8ZI8VUZEUQ8DBGE1IINIW", "dateTime": 1517079471599}, {"current_trial": 123, "trialdata": {"rt": -1000, "trial_type": "single-audio", "word": "tortoise", "stimulus": "/static/audio/wordpool/TORTOISE.wav", "conditions": [12, 1600, "a", 12000], "internal_node_id": "0.0-87.0", "trial": 3, "time_elapsed": 607934, "serialpos": 6, "key_press": -1, "wordID": 1485, "type": "PRES_AUD", "trial_index": 123}, "uniqueid": "MTK2408:317HQ483I8ZI8VUZEUQ8DBGE1IINIW", "dateTime": 1517079474035}, {"current_trial": 124, "trialdata": {"rt": -1000, "trial_type": "single-audio", "word": "silk", "stimulus": "/static/audio/wordpool/SILK.wav", "conditions": [12, 1600, "a", 12000], "internal_node_id": "0.0-88.0", "trial": 3, "time_elapsed": 610502, "serialpos": 7, "key_press": -1, "wordID": 1306, "type": "PRES_AUD", "trial_index": 124}, "uniqueid": "MTK2408:317HQ483I8ZI8VUZEUQ8DBGE1IINIW", "dateTime": 1517079476604}, {"current_trial": 125, "trialdata": {"rt": -1000, "trial_type": "single-audio", "word": "pork", "stimulus": "/static/audio/wordpool/PORK.wav", "conditions": [12, 1600, "a", 12000], "internal_node_id": "0.0-89.0", "trial": 3, "time_elapsed": 612964, "serialpos": 8, "key_press": -1, "wordID": 1107, "type": "PRES_AUD", "trial_index": 125}, "uniqueid": "MTK2408:317HQ483I8ZI8VUZEUQ8DBGE1IINIW", "dateTime": 1517079479066}, {"current_trial": 126, "trialdata": {"rt": -1000, "trial_type": "single-audio", "word": "drawing", "stimulus": "/static/audio/wordpool/DRAWING.wav", "conditions": [12, 1600, "a", 12000], "internal_node_id": "0.0-90.0", "trial": 3, "time_elapsed": 615665, "serialpos": 9, "key_press": -1, "wordID": 493, "type": "PRES_AUD", "trial_index": 126}, "uniqueid": "MTK2408:317HQ483I8ZI8VUZEUQ8DBGE1IINIW", "dateTime": 1517079481766}, {"current_trial": 127, "trialdata": {"rt": -1000, "trial_type": "single-audio", "word": "cookbook", "stimulus": "/static/audio/wordpool/COOKBOOK.wav", "conditions": [12, 1600, "a", 12000], "internal_node_id": "0.0-91.0", "trial": 3, "time_elapsed": 618333, "serialpos": 10, "key_press": -1, "wordID": 372, "type": "PRES_AUD", "trial_index": 127}, "uniqueid": "MTK2408:317HQ483I8ZI8VUZEUQ8DBGE1IINIW", "dateTime": 1517079484435}, {"current_trial": 128, "trialdata": {"rt": -1000, "trial_type": "single-audio", "word": "gift", "stimulus": "/static/audio/wordpool/GIFT.wav", "conditions": [12, 1600, "a", 12000], "internal_node_id": "0.0-92.0", "trial": 3, "time_elapsed": 620894, "serialpos": 11, "key_press": -1, "wordID": 634, "type": "PRES_AUD", "trial_index": 128}, "uniqueid": "MTK2408:317HQ483I8ZI8VUZEUQ8DBGE1IINIW", "dateTime": 1517079486996}, {"current_trial": 129, "trialdata": {"rt": -1, "trial_type": "single-stim", "stimulus": "", "internal_node_id": "0.0-93.0-0.0", "time_elapsed": 622149, "key_press": -1, "type": "PRE_RECALL_DELAY", "trial_index": 129}, "uniqueid": "MTK2408:317HQ483I8ZI8VUZEUQ8DBGE1IINIW", "dateTime": 1517079488250}, {"current_trial": 130, "trialdata": {"rt": -1000, "trial_type": "single-audio", "stimulus": "/static/audio/400Hz.wav", "internal_node_id": "0.0-94.0", "time_elapsed": 622649, "key_press": -1, "type": "PRE_RECALL_ALERT", "trial_index": 130}, "uniqueid": "MTK2408:317HQ483I8ZI8VUZEUQ8DBGE1IINIW", "dateTime": 1517079488750}, {"current_trial": 131, "trialdata": {"rt": [4323, 11019, 13059, 15906, 22323, 26499, 30939, 37914, 51194], "recwords": ["drawing", "cokbook", "gift", "snail", "tortoise", "lace", "silk", "summit", "pork"], "key_times": [1340, 1635, 2235, 2475, 2795, 3075, 3307, 4323, 4987, 5659, 6011, 6651, 7059, 7203, 8963, 9843, 10515, 11019, 11692, 11835, 12147, 12411, 13059, 13507, 13699, 13883, 14003, 14899, 15275, 15467, 15906, 16507, 16779, 17563, 17971, 18283, 19827, 20635, 20923, 21243, 21931, 22323, 25339, 25587, 25947, 26203, 26499, 29619, 29891, 30115, 30363, 30939, 36187, 36451, 36746, 36874, 37123, 37603, 37914, 49411, 49611, 50034, 50347, 51194], "trial_type": "free-recall", "conditions": [12, 1600, "a", 12000], "internal_node_id": "0.0-95.0-0.0", "key_presses": [68, 82, 65, 87, 73, 78, 71, 13, 67, 79, 75, 66, 79, 79, 66, 8, 75, 13, 71, 73, 70, 84, 13, 83, 78, 65, 85, 8, 73, 76, 13, 84, 73, 8, 79, 82, 84, 79, 73, 83, 69, 13, 76, 65, 67, 69, 13, 83, 73, 76, 75, 13, 83, 85, 77, 77, 73, 84, 13, 80, 79, 82, 75, 13], "trial": 3, "time_elapsed": 682652, "type": "FREE_RECALL", "trial_index": 131}, "uniqueid": "MTK2408:317HQ483I8ZI8VUZEUQ8DBGE1IINIW", "dateTime": 1517079548756}, {"current_trial": 132, "trialdata": {"rt": 2024, "trial_type": "text", "internal_node_id": "0.0-96.0", "time_elapsed": 686679, "key_press": 32, "type": "INSTRUCTIONS", "trial_index": 132}, "uniqueid": "MTK2408:317HQ483I8ZI8VUZEUQ8DBGE1IINIW", "dateTime": 1517079552780}, {"current_trial": 133, "trialdata": {"rt": [2389, 5462, 8317, 10678], "trial_type": "math-distractor", "key_times": [2158, 2389, 4686, 5246, 5462, 7582, 8110, 8317, 10205, 10389, 10678], "responses": ["9", "19", "18", "11"], "num2": [2, 7, 6, 6, 4], "num3": [4, 6, 4, 1, 5], "conditions": [24, 1600, "a", 12000], "internal_node_id": "0.0-97.0", "key_presses": [57, 13, 49, 57, 13, 49, 56, 13, 49, 49, 13], "trial": 4, "time_elapsed": 700680, "type": "DISTRACTOR", "trial_index": 133, "num1": [3, 6, 8, 4, 9]}, "uniqueid": "MTK2408:317HQ483I8ZI8VUZEUQ8DBGE1IINIW", "dateTime": 1517079566781}, {"current_trial": 134, "trialdata": {"rt": -1, "trial_type": "single-stim", "stimulus": "<p id=\"stim\">10</p>", "internal_node_id": "0.0-98.0-0.0", "time_elapsed": 703680, "key_press": -1, "trial_index": 134}, "uniqueid": "MTK2408:317HQ483I8ZI8VUZEUQ8DBGE1IINIW", "dateTime": 1517079569781}, {"current_trial": 135, "trialdata": {"rt": -1, "trial_type": "single-stim", "stimulus": "<p id=\"stim\">9</p>", "internal_node_id": "0.0-98.0-1.0", "time_elapsed": 704681, "key_press": -1, "trial_index": 135}, "uniqueid": "MTK2408:317HQ483I8ZI8VUZEUQ8DBGE1IINIW", "dateTime": 1517079570782}, {"current_trial": 136, "trialdata": {"rt": -1, "trial_type": "single-stim", "stimulus": "<p id=\"stim\">8</p>", "internal_node_id": "0.0-98.0-2.0", "time_elapsed": 705681, "key_press": -1, "trial_index": 136}, "uniqueid": "MTK2408:317HQ483I8ZI8VUZEUQ8DBGE1IINIW", "dateTime": 1517079571782}, {"current_trial": 137, "trialdata": {"rt": -1, "trial_type": "single-stim", "stimulus": "<p id=\"stim\">7</p>", "internal_node_id": "0.0-98.0-3.0", "time_elapsed": 706682, "key_press": -1, "trial_index": 137}, "uniqueid": "MTK2408:317HQ483I8ZI8VUZEUQ8DBGE1IINIW", "dateTime": 1517079572783}, {"current_trial": 138, "trialdata": {"rt": -1, "trial_type": "single-stim", "stimulus": "<p id=\"stim\">6</p>", "internal_node_id": "0.0-98.0-4.0", "time_elapsed": 707683, "key_press": -1, "trial_index": 138}, "uniqueid": "MTK2408:317HQ483I8ZI8VUZEUQ8DBGE1IINIW", "dateTime": 1517079573784}, {"current_trial": 139, "trialdata": {"rt": -1, "trial_type": "single-stim", "stimulus": "<p id=\"stim\">5</p>", "internal_node_id": "0.0-98.0-5.0", "time_elapsed": 708685, "key_press": -1, "trial_index": 139}, "uniqueid": "MTK2408:317HQ483I8ZI8VUZEUQ8DBGE1IINIW", "dateTime": 1517079574786}, {"current_trial": 140, "trialdata": {"rt": -1, "trial_type": "single-stim", "stimulus": "<p id=\"stim\">4</p>", "internal_node_id": "0.0-98.0-6.0", "time_elapsed": 709686, "key_press": -1, "trial_index": 140}, "uniqueid": "MTK2408:317HQ483I8ZI8VUZEUQ8DBGE1IINIW", "dateTime": 1517079575789}, {"current_trial": 141, "trialdata": {"rt": -1, "trial_type": "single-stim", "stimulus": "<p id=\"stim\">3</p>", "internal_node_id": "0.0-98.0-7.0", "time_elapsed": 710688, "key_press": -1, "trial_index": 141}, "uniqueid": "MTK2408:317HQ483I8ZI8VUZEUQ8DBGE1IINIW", "dateTime": 1517079576789}, {"current_trial": 142, "trialdata": {"rt": -1, "trial_type": "single-stim", "stimulus": "<p id=\"stim\">2</p>", "internal_node_id": "0.0-98.0-8.0", "time_elapsed": 711689, "key_press": -1, "trial_index": 142}, "uniqueid": "MTK2408:317HQ483I8ZI8VUZEUQ8DBGE1IINIW", "dateTime": 1517079577790}, {"current_trial": 143, "trialdata": {"rt": -1, "trial_type": "single-stim", "stimulus": "<p id=\"stim\">1</p>", "internal_node_id": "0.0-98.0-9.0", "time_elapsed": 712690, "key_press": -1, "trial_index": 143}, "uniqueid": "MTK2408:317HQ483I8ZI8VUZEUQ8DBGE1IINIW", "dateTime": 1517079578791}, {"current_trial": 144, "trialdata": {"rt": -1, "trial_type": "single-stim", "stimulus": "<p id=\"stim\">+</p>", "internal_node_id": "0.0-99.0-0.0", "time_elapsed": 714190, "key_press": -1, "type": "FIXATION", "trial_index": 144}, "uniqueid": "MTK2408:317HQ483I8ZI8VUZEUQ8DBGE1IINIW", "dateTime": 1517079580291}, {"current_trial": 145, "trialdata": {"rt": -1000, "trial_type": "single-audio", "word": "catcher", "stimulus": "/static/audio/wordpool/CATCHER.wav", "conditions": [24, 1600, "a", 12000], "internal_node_id": "0.0-100.0", "trial": 4, "time_elapsed": 716677, "serialpos": 0, "key_press": -1, "wordID": 257, "type": "PRES_AUD", "trial_index": 145}, "uniqueid": "MTK2408:317HQ483I8ZI8VUZEUQ8DBGE1IINIW", "dateTime": 1517079582779}, {"current_trial": 146, "trialdata": {"rt": -1000, "trial_type": "single-audio", "word": "airport", "stimulus": "/static/audio/wordpool/AIRPORT.wav", "conditions": [24, 1600, "a", 12000], "internal_node_id": "0.0-101.0", "trial": 4, "time_elapsed": 719343, "serialpos": 1, "key_press": -1, "wordID": 12, "type": "PRES_AUD", "trial_index": 146}, "uniqueid": "MTK2408:317HQ483I8ZI8VUZEUQ8DBGE1IINIW", "dateTime": 1517079585444}, {"current_trial": 147, "trialdata": {"rt": -1000, "trial_type": "single-audio", "word": "witness", "stimulus": "/static/audio/wordpool/WITNESS.wav", "conditions": [24, 1600, "a", 12000], "internal_node_id": "0.0-102.0", "trial": 4, "time_elapsed": 722129, "serialpos": 2, "key_press": -1, "wordID": 1617, "type": "PRES_AUD", "trial_index": 147}, "uniqueid": "MTK2408:317HQ483I8ZI8VUZEUQ8DBGE1IINIW", "dateTime": 1517079588230}, {"current_trial": 148, "trialdata": {"rt": -1000, "trial_type": "single-audio", "word": "temple", "stimulus": "/static/audio/wordpool/TEMPLE.wav", "conditions": [24, 1600, "a", 12000], "internal_node_id": "0.0-103.0", "trial": 4, "time_elapsed": 724713, "serialpos": 3, "key_press": -1, "wordID": 1447, "type": "PRES_AUD", "trial_index": 148}, "uniqueid": "MTK2408:317HQ483I8ZI8VUZEUQ8DBGE1IINIW", "dateTime": 1517079590815}, {"current_trial": 149, "trialdata": {"rt": -1000, "trial_type": "single-audio", "word": "banker", "stimulus": "/static/audio/wordpool/BANKER.wav", "conditions": [24, 1600, "a", 12000], "internal_node_id": "0.0-104.0", "trial": 4, "time_elapsed": 727236, "serialpos": 4, "key_press": -1, "wordID": 83, "type": "PRES_AUD", "trial_index": 149}, "uniqueid": "MTK2408:317HQ483I8ZI8VUZEUQ8DBGE1IINIW", "dateTime": 1517079593337}, {"current_trial": 150, "trialdata": {"rt": -1000, "trial_type": "single-audio", "word": "expert", "stimulus": "/static/audio/wordpool/EXPERT.wav", "conditions": [24, 1600, "a", 12000], "internal_node_id": "0.0-105.0", "trial": 4, "time_elapsed": 729829, "serialpos": 5, "key_press": -1, "wordID": 542, "type": "PRES_AUD", "trial_index": 150}, "uniqueid": "MTK2408:317HQ483I8ZI8VUZEUQ8DBGE1IINIW", "dateTime": 1517079595930}, {"current_trial": 151, "trialdata": {"rt": -1000, "trial_type": "single-audio", "word": "chapel", "stimulus": "/static/audio/wordpool/CHAPEL.wav", "conditions": [24, 1600, "a", 12000], "internal_node_id": "0.0-106.0", "trial": 4, "time_elapsed": 732602, "serialpos": 6, "key_press": -1, "wordID": 279, "type": "PRES_AUD", "trial_index": 151}, "uniqueid": "MTK2408:317HQ483I8ZI8VUZEUQ8DBGE1IINIW", "dateTime": 1517079598703}, {"current_trial": 152, "trialdata": {"rt": -1000, "trial_type": "single-audio", "word": "wrist", "stimulus": "/static/audio/wordpool/WRIST.wav", "conditions": [24, 1600, "a", 12000], "internal_node_id": "0.0-107.0", "trial": 4, "time_elapsed": 735006, "serialpos": 7, "key_press": -1, "wordID": 1625, "type": "PRES_AUD", "trial_index": 152}, "uniqueid": "MTK2408:317HQ483I8ZI8VUZEUQ8DBGE1IINIW", "dateTime": 1517079601108}, {"current_trial": 153, "trialdata": {"rt": -1000, "trial_type": "single-audio", "word": "onion", "stimulus": "/static/audio/wordpool/ONION.wav", "conditions": [24, 1600, "a", 12000], "internal_node_id": "0.0-108.0", "trial": 4, "time_elapsed": 737736, "serialpos": 8, "key_press": -1, "wordID": 976, "type": "PRES_AUD", "trial_index": 153}, "uniqueid": "MTK2408:317HQ483I8ZI8VUZEUQ8DBGE1IINIW", "dateTime": 1517079603837}, {"current_trial": 154, "trialdata": {"rt": -1000, "trial_type": "single-audio", "word": "pepper", "stimulus": "/static/audio/wordpool/PEPPER.wav", "conditions": [24, 1600, "a", 12000], "internal_node_id": "0.0-109.0", "trial": 4, "time_elapsed": 740159, "serialpos": 9, "key_press": -1, "wordID": 1046, "type": "PRES_AUD", "trial_index": 154}, "uniqueid": "MTK2408:317HQ483I8ZI8VUZEUQ8DBGE1IINIW", "dateTime": 1517079606260}, {"current_trial": 155, "trialdata": {"rt": -1000, "trial_type": "single-audio", "word": "ankle", "stimulus": "/static/audio/wordpool/ANKLE.wav", "conditions": [24, 1600, "a", 12000], "internal_node_id": "0.0-110.0", "trial": 4, "time_elapsed": 742792, "serialpos": 10, "key_press": -1, "wordID": 23, "type": "PRES_AUD", "trial_index": 155}, "uniqueid": "MTK2408:317HQ483I8ZI8VUZEUQ8DBGE1IINIW", "dateTime": 1517079608894}, {"current_trial": 156, "trialdata": {"rt": -1000, "trial_type": "single-audio", "word": "puppy", "stimulus": "/static/audio/wordpool/PUPPY.wav", "conditions": [24, 1600, "a", 12000], "internal_node_id": "0.0-111.0", "trial": 4, "time_elapsed": 745384, "serialpos": 11, "key_press": -1, "wordID": 1143, "type": "PRES_AUD", "trial_index": 156}, "uniqueid": "MTK2408:317HQ483I8ZI8VUZEUQ8DBGE1IINIW", "dateTime": 1517079611485}, {"current_trial": 157, "trialdata": {"rt": -1000, "trial_type": "single-audio", "word": "scalpel", "stimulus": "/static/audio/wordpool/SCALPEL.wav", "conditions": [24, 1600, "a", 12000], "internal_node_id": "0.0-112.0", "trial": 4, "time_elapsed": 747802, "serialpos": 12, "key_press": -1, "wordID": 1242, "type": "PRES_AUD", "trial_index": 157}, "uniqueid": "MTK2408:317HQ483I8ZI8VUZEUQ8DBGE1IINIW", "dateTime": 1517079613904}, {"current_trial": 158, "trialdata": {"rt": -1000, "trial_type": "single-audio", "word": "helmet", "stimulus": "/static/audio/wordpool/HELMET.wav", "conditions": [24, 1600, "a", 12000], "internal_node_id": "0.0-113.0", "trial": 4, "time_elapsed": 750415, "serialpos": 13, "key_press": -1, "wordID": 701, "type": "PRES_AUD", "trial_index": 158}, "uniqueid": "MTK2408:317HQ483I8ZI8VUZEUQ8DBGE1IINIW", "dateTime": 1517079616516}, {"current_trial": 159, "trialdata": {"rt": -1000, "trial_type": "single-audio", "word": "skillet", "stimulus": "/static/audio/wordpool/SKILLET.wav", "conditions": [24, 1600, "a", 12000], "internal_node_id": "0.0-114.0", "trial": 4, "time_elapsed": 753086, "serialpos": 14, "key_press": -1, "wordID": 1316, "type": "PRES_AUD", "trial_index": 159}, "uniqueid": "MTK2408:317HQ483I8ZI8VUZEUQ8DBGE1IINIW", "dateTime": 1517079619188}, {"current_trial": 160, "trialdata": {"rt": -1000, "trial_type": "single-audio", "word": "mammal", "stimulus": "/static/audio/wordpool/MAMMAL.wav", "conditions": [24, 1600, "a", 12000], "internal_node_id": "0.0-115.0", "trial": 4, "time_elapsed": 755582, "serialpos": 15, "key_press": -1, "wordID": 860, "type": "PRES_AUD", "trial_index": 160}, "uniqueid": "MTK2408:317HQ483I8ZI8VUZEUQ8DBGE1IINIW", "dateTime": 1517079621683}, {"current_trial": 161, "trialdata": {"rt": -1000, "trial_type": "single-audio", "word": "primate", "stimulus": "/static/audio/wordpool/PRIMATE.wav", "conditions": [24, 1600, "a", 12000], "internal_node_id": "0.0-116.0", "trial": 4, "time_elapsed": 758223, "serialpos": 16, "key_press": -1, "wordID": 1122, "type": "PRES_AUD", "trial_index": 161}, "uniqueid": "MTK2408:317HQ483I8ZI8VUZEUQ8DBGE1IINIW", "dateTime": 1517079624324}, {"current_trial": 162, "trialdata": {"rt": -1000, "trial_type": "single-audio", "word": "college", "stimulus": "/static/audio/wordpool/COLLEGE.wav", "conditions": [24, 1600, "a", 12000], "internal_node_id": "0.0-117.0", "trial": 4, "time_elapsed": 760777, "serialpos": 17, "key_press": -1, "wordID": 345, "type": "PRES_AUD", "trial_index": 162}, "uniqueid": "MTK2408:317HQ483I8ZI8VUZEUQ8DBGE1IINIW", "dateTime": 1517079626879}, {"current_trial": 163, "trialdata": {"rt": -1000, "trial_type": "single-audio", "word": "clamp", "stimulus": "/static/audio/wordpool/CLAMP.wav", "conditions": [24, 1600, "a", 12000], "internal_node_id": "0.0-118.0", "trial": 4, "time_elapsed": 763351, "serialpos": 18, "key_press": -1, "wordID": 315, "type": "PRES_AUD", "trial_index": 163}, "uniqueid": "MTK2408:317HQ483I8ZI8VUZEUQ8DBGE1IINIW", "dateTime": 1517079629452}, {"current_trial": 164, "trialdata": {"rt": -1000, "trial_type": "single-audio", "word": "razor", "stimulus": "/static/audio/wordpool/RAZOR.wav", "conditions": [24, 1600, "a", 12000], "internal_node_id": "0.0-119.0", "trial": 4, "time_elapsed": 765858, "serialpos": 19, "key_press": -1, "wordID": 1170, "type": "PRES_AUD", "trial_index": 164}, "uniqueid": "MTK2408:317HQ483I8ZI8VUZEUQ8DBGE1IINIW", "dateTime": 1517079631959}, {"current_trial": 165, "trialdata": {"rt": -1000, "trial_type": "single-audio", "word": "dresser", "stimulus": "/static/audio/wordpool/DRESSER.wav", "conditions": [24, 1600, "a", 12000], "internal_node_id": "0.0-120.0", "trial": 4, "time_elapsed": 768416, "serialpos": 20, "key_press": -1, "wordID": 495, "type": "PRES_AUD", "trial_index": 165}, "uniqueid": "MTK2408:317HQ483I8ZI8VUZEUQ8DBGE1IINIW", "dateTime": 1517079634517}, {"current_trial": 166, "trialdata": {"rt": -1000, "trial_type": "single-audio", "word": "lily", "stimulus": "/static/audio/wordpool/LILY.wav", "conditions": [24, 1600, "a", 12000], "internal_node_id": "0.0-121.0", "trial": 4, "time_elapsed": 770986, "serialpos": 21, "key_press": -1, "wordID": 820, "type": "PRES_AUD", "trial_index": 166}, "uniqueid": "MTK2408:317HQ483I8ZI8VUZEUQ8DBGE1IINIW", "dateTime": 1517079637087}, {"current_trial": 167, "trialdata": {"rt": -1000, "trial_type": "single-audio", "word": "dustpan", "stimulus": "/static/audio/wordpool/DUSTPAN.wav", "conditions": [24, 1600, "a", 12000], "internal_node_id": "0.0-122.0", "trial": 4, "time_elapsed": 773567, "serialpos": 22, "key_press": -1, "wordID": 508, "type": "PRES_AUD", "trial_index": 167}, "uniqueid": "MTK2408:317HQ483I8ZI8VUZEUQ8DBGE1IINIW", "dateTime": 1517079639669}, {"current_trial": 168, "trialdata": {"rt": -1000, "trial_type": "single-audio", "word": "match", "stimulus": "/static/audio/wordpool/MATCH.wav", "conditions": [24, 1600, "a", 12000], "internal_node_id": "0.0-123.0", "trial": 4, "time_elapsed": 776112, "serialpos": 23, "key_press": -1, "wordID": 877, "type": "PRES_AUD", "trial_index": 168}, "uniqueid": "MTK2408:317HQ483I8ZI8VUZEUQ8DBGE1IINIW", "dateTime": 1517079642214}, {"current_trial": 169, "trialdata": {"rt": -1, "trial_type": "single-stim", "stimulus": "", "internal_node_id": "0.0-124.0-0.0", "time_elapsed": 777395, "key_press": -1, "type": "PRE_RECALL_DELAY", "trial_index": 169}, "uniqueid": "MTK2408:317HQ483I8ZI8VUZEUQ8DBGE1IINIW", "dateTime": 1517079643496}, {"current_trial": 170, "trialdata": {"rt": -1000, "trial_type": "single-audio", "stimulus": "/static/audio/400Hz.wav", "internal_node_id": "0.0-125.0", "time_elapsed": 777896, "key_press": -1, "type": "PRE_RECALL_ALERT", "trial_index": 170}, "uniqueid": "MTK2408:317HQ483I8ZI8VUZEUQ8DBGE1IINIW", "dateTime": 1517079643997}, {"current_trial": 171, "trialdata": {"rt": [3683, 7019, 8979, 11451, 14283, 18107, 21219, 23755, 27818, 31396, 35955, 38372, 45899, 55731], "recwords": ["match", "dustpan", "lily", "razor", "expert", "banker", "college", "temple", "witness", "scapel", "wrist", "ankle", "puppy", "temple"], "key_times": [1964, 2139, 2579, 2843, 3027, 3683, 4379, 4627, 4779, 4963, 5763, 6115, 6363, 7019, 7443, 7683, 7923, 8379, 8979, 9555, 9763, 10043, 10267, 11043, 11451, 12324, 12731, 12995, 13171, 13387, 13635, 14283, 14819, 15011, 15219, 15539, 15819, 16027, 18107, 18579, 18739, 18955, 19099, 19323, 19515, 19667, 21219, 22131, 22411, 22587, 22891, 23107, 23347, 23755, 25899, 26139, 26563, 26795, 26987, 27275, 27451, 27818, 29315, 29579, 29931, 30123, 30387, 30668, 31396, 34252, 34587, 34860, 35195, 35364, 35955, 36404, 36572, 36931, 37116, 37427, 38372, 43780, 44187, 44604, 44748, 45060, 45899, 54076, 54387, 54539, 54868, 55067, 55324, 55731], "trial_type": "free-recall", "conditions": [24, 1600, "a", 12000], "internal_node_id": "0.0-126.0-0.0", "key_presses": [77, 65, 84, 67, 72, 13, 68, 85, 83, 84, 80, 65, 78, 13, 76, 73, 76, 89, 13, 82, 65, 90, 79, 82, 13, 69, 88, 80, 69, 82, 84, 13, 66, 65, 78, 75, 69, 82, 13, 67, 79, 76, 76, 69, 71, 69, 13, 84, 69, 77, 80, 76, 69, 13, 87, 73, 84, 78, 69, 83, 83, 13, 83, 67, 65, 80, 69, 76, 13, 87, 82, 73, 83, 84, 13, 65, 78, 75, 76, 69, 13, 80, 85, 80, 80, 89, 13, 84, 69, 77, 80, 76, 69, 13], "trial": 4, "time_elapsed": 837900, "type": "FREE_RECALL", "trial_index": 171}, "uniqueid": "MTK2408:317HQ483I8ZI8VUZEUQ8DBGE1IINIW", "dateTime": 1517079704005}, {"current_trial": 172, "trialdata": {"rt": 3069, "trial_type": "text", "internal_node_id": "0.0-127.0", "time_elapsed": 842974, "key_press": 78, "type": "INSTRUCTIONS", "trial_index": 172}, "uniqueid": "MTK2408:317HQ483I8ZI8VUZEUQ8DBGE1IINIW", "dateTime": 1517079709075}, {"current_trial": 173, "trialdata": {"rt": [3588, 6453, 9173, 12069, 14125, 20444, 23725], "trial_type": "math-distractor", "key_times": [1613, 3277, 3588, 5972, 6173, 6453, 8509, 8901, 9173, 11493, 11845, 12069, 13676, 13861, 14125, 19661, 20189, 20444, 23325, 23556, 23725], "responses": ["16", "11", "13", "14", "11", "25", "12"], "num2": [2, 3, 4, 3, 4, 7, 5, 9], "num3": [6, 4, 8, 7, 6, 8, 1, 4], "conditions": [24, 1600, "a", 24000], "internal_node_id": "0.0-128.0", "key_presses": [49, 54, 13, 49, 49, 13, 49, 51, 13, 49, 52, 13, 49, 49, 13, 50, 53, 13, 49, 50, 13], "trial": 5, "time_elapsed": 868978, "type": "DISTRACTOR", "trial_index": 173, "num1": [8, 4, 1, 4, 1, 9, 6, 5]}, "uniqueid": "MTK2408:317HQ483I8ZI8VUZEUQ8DBGE1IINIW", "dateTime": 1517079735079}, {"current_trial": 174, "trialdata": {"rt": -1, "trial_type": "single-stim", "stimulus": "<p id=\"stim\">10</p>", "internal_node_id": "0.0-129.0-0.0", "time_elapsed": 871980, "key_press": -1, "trial_index": 174}, "uniqueid": "MTK2408:317HQ483I8ZI8VUZEUQ8DBGE1IINIW", "dateTime": 1517079738081}, {"current_trial": 175, "trialdata": {"rt": -1, "trial_type": "single-stim", "stimulus": "<p id=\"stim\">9</p>", "internal_node_id": "0.0-129.0-1.0", "time_elapsed": 872981, "key_press": -1, "trial_index": 175}, "uniqueid": "MTK2408:317HQ483I8ZI8VUZEUQ8DBGE1IINIW", "dateTime": 1517079739084}, {"current_trial": 176, "trialdata": {"rt": -1, "trial_type": "single-stim", "stimulus": "<p id=\"stim\">8</p>", "internal_node_id": "0.0-129.0-2.0", "time_elapsed": 873983, "key_press": -1, "trial_index": 176}, "uniqueid": "MTK2408:317HQ483I8ZI8VUZEUQ8DBGE1IINIW", "dateTime": 1517079740084}, {"current_trial": 177, "trialdata": {"rt": -1, "trial_type": "single-stim", "stimulus": "<p id=\"stim\">7</p>", "internal_node_id": "0.0-129.0-3.0", "time_elapsed": 874986, "key_press": -1, "trial_index": 177}, "uniqueid": "MTK2408:317HQ483I8ZI8VUZEUQ8DBGE1IINIW", "dateTime": 1517079741087}, {"current_trial": 178, "trialdata": {"rt": -1, "trial_type": "single-stim", "stimulus": "<p id=\"stim\">6</p>", "internal_node_id": "0.0-129.0-4.0", "time_elapsed": 875987, "key_press": -1, "trial_index": 178}, "uniqueid": "MTK2408:317HQ483I8ZI8VUZEUQ8DBGE1IINIW", "dateTime": 1517079742088}, {"current_trial": 179, "trialdata": {"rt": -1, "trial_type": "single-stim", "stimulus": "<p id=\"stim\">5</p>", "internal_node_id": "0.0-129.0-5.0", "time_elapsed": 876989, "key_press": -1, "trial_index": 179}, "uniqueid": "MTK2408:317HQ483I8ZI8VUZEUQ8DBGE1IINIW", "dateTime": 1517079743090}, {"current_trial": 180, "trialdata": {"rt": -1, "trial_type": "single-stim", "stimulus": "<p id=\"stim\">4</p>", "internal_node_id": "0.0-129.0-6.0", "time_elapsed": 877991, "key_press": -1, "trial_index": 180}, "uniqueid": "MTK2408:317HQ483I8ZI8VUZEUQ8DBGE1IINIW", "dateTime": 1517079744092}, {"current_trial": 181, "trialdata": {"rt": -1, "trial_type": "single-stim", "stimulus": "<p id=\"stim\">3</p>", "internal_node_id": "0.0-129.0-7.0", "time_elapsed": 878993, "key_press": -1, "trial_index": 181}, "uniqueid": "MTK2408:317HQ483I8ZI8VUZEUQ8DBGE1IINIW", "dateTime": 1517079745094}, {"current_trial": 182, "trialdata": {"rt": -1, "trial_type": "single-stim", "stimulus": "<p id=\"stim\">2</p>", "internal_node_id": "0.0-129.0-8.0", "time_elapsed": 879994, "key_press": -1, "trial_index": 182}, "uniqueid": "MTK2408:317HQ483I8ZI8VUZEUQ8DBGE1IINIW", "dateTime": 1517079746095}, {"current_trial": 183, "trialdata": {"rt": -1, "trial_type": "single-stim", "stimulus": "<p id=\"stim\">1</p>", "internal_node_id": "0.0-129.0-9.0", "time_elapsed": 880995, "key_press": -1, "trial_index": 183}, "uniqueid": "MTK2408:317HQ483I8ZI8VUZEUQ8DBGE1IINIW", "dateTime": 1517079747096}, {"current_trial": 184, "trialdata": {"rt": -1, "trial_type": "single-stim", "stimulus": "<p id=\"stim\">+</p>", "internal_node_id": "0.0-130.0-0.0", "time_elapsed": 882495, "key_press": -1, "type": "FIXATION", "trial_index": 184}, "uniqueid": "MTK2408:317HQ483I8ZI8VUZEUQ8DBGE1IINIW", "dateTime": 1517079748596}, {"current_trial": 185, "trialdata": {"rt": -1000, "trial_type": "single-audio", "word": "marsh", "stimulus": "/static/audio/wordpool/MARSH.wav", "conditions": [24, 1600, "a", 24000], "internal_node_id": "0.0-131.0", "trial": 5, "time_elapsed": 885231, "serialpos": 0, "key_press": -1, "wordID": 873, "type": "PRES_AUD", "trial_index": 185}, "uniqueid": "MTK2408:317HQ483I8ZI8VUZEUQ8DBGE1IINIW", "dateTime": 1517079751333}, {"current_trial": 186, "trialdata": {"rt": -1000, "trial_type": "single-audio", "word": "robin", "stimulus": "/static/audio/wordpool/ROBIN.wav", "conditions": [24, 1600, "a", 24000], "internal_node_id": "0.0-132.0", "trial": 5, "time_elapsed": 887709, "serialpos": 1, "key_press": -1, "wordID": 1198, "type": "PRES_AUD", "trial_index": 186}, "uniqueid": "MTK2408:317HQ483I8ZI8VUZEUQ8DBGE1IINIW", "dateTime": 1517079753811}, {"current_trial": 187, "trialdata": {"rt": -1000, "trial_type": "single-audio", "word": "crayon", "stimulus": "/static/audio/wordpool/CRAYON.wav", "conditions": [24, 1600, "a", 24000], "internal_node_id": "0.0-133.0", "trial": 5, "time_elapsed": 890453, "serialpos": 2, "key_press": -1, "wordID": 400, "type": "PRES_AUD", "trial_index": 187}, "uniqueid": "MTK2408:317HQ483I8ZI8VUZEUQ8DBGE1IINIW", "dateTime": 1517079756555}, {"current_trial": 188, "trialdata": {"rt": -1000, "trial_type": "single-audio", "word": "crutch", "stimulus": "/static/audio/wordpool/CRUTCH.wav", "conditions": [24, 1600, "a", 24000], "internal_node_id": "0.0-134.0", "trial": 5, "time_elapsed": 893095, "serialpos": 3, "key_press": -1, "wordID": 416, "type": "PRES_AUD", "trial_index": 188}, "uniqueid": "MTK2408:317HQ483I8ZI8VUZEUQ8DBGE1IINIW", "dateTime": 1517079759196}, {"current_trial": 189, "trialdata": {"rt": -1000, "trial_type": "single-audio", "word": "eyelash", "stimulus": "/static/audio/wordpool/EYELASH.wav", "conditions": [24, 1600, "a", 24000], "internal_node_id": "0.0-135.0", "trial": 5, "time_elapsed": 895834, "serialpos": 4, "key_press": -1, "wordID": 545, "type": "PRES_AUD", "trial_index": 189}, "uniqueid": "MTK2408:317HQ483I8ZI8VUZEUQ8DBGE1IINIW", "dateTime": 1517079761936}, {"current_trial": 190, "trialdata": {"rt": -1000, "trial_type": "single-audio", "word": "handbag", "stimulus": "/static/audio/wordpool/HANDBAG.wav", "conditions": [24, 1600, "a", 24000], "internal_node_id": "0.0-136.0", "trial": 5, "time_elapsed": 898279, "serialpos": 5, "key_press": -1, "wordID": 683, "type": "PRES_AUD", "trial_index": 190}, "uniqueid": "MTK2408:317HQ483I8ZI8VUZEUQ8DBGE1IINIW", "dateTime": 1517079764381}, {"current_trial": 191, "trialdata": {"rt": -1000, "trial_type": "single-audio", "word": "sheriff", "stimulus": "/static/audio/wordpool/SHERIFF.wav", "conditions": [24, 1600, "a", 24000], "internal_node_id": "0.0-137.0", "trial": 5, "time_elapsed": 900972, "serialpos": 6, "key_press": -1, "wordID": 1283, "type": "PRES_AUD", "trial_index": 191}, "uniqueid": "MTK2408:317HQ483I8ZI8VUZEUQ8DBGE1IINIW", "dateTime": 1517079767073}, {"current_trial": 192, "trialdata": {"rt": -1000, "trial_type": "single-audio", "word": "county", "stimulus": "/static/audio/wordpool/COUNTY.wav", "conditions": [24, 1600, "a", 24000], "internal_node_id": "0.0-138.0", "trial": 5, "time_elapsed": 903377, "serialpos": 7, "key_press": -1, "wordID": 388, "type": "PRES_AUD", "trial_index": 192}, "uniqueid": "MTK2408:317HQ483I8ZI8VUZEUQ8DBGE1IINIW", "dateTime": 1517079769479}, {"current_trial": 193, "trialdata": {"rt": -1000, "trial_type": "single-audio", "word": "receipt", "stimulus": "/static/audio/wordpool/RECEIPT.wav", "conditions": [24, 1600, "a", 24000], "internal_node_id": "0.0-139.0", "trial": 5, "time_elapsed": 906109, "serialpos": 8, "key_press": -1, "wordID": 1172, "type": "PRES_AUD", "trial_index": 193}, "uniqueid": "MTK2408:317HQ483I8ZI8VUZEUQ8DBGE1IINIW", "dateTime": 1517079772212}, {"current_trial": 194, "trialdata": {"rt": -1000, "trial_type": "single-audio", "word": "report", "stimulus": "/static/audio/wordpool/REPORT.wav", "conditions": [24, 1600, "a", 24000], "internal_node_id": "0.0-140.0", "trial": 5, "time_elapsed": 908865, "serialpos": 9, "key_press": -1, "wordID": 1183, "type": "PRES_AUD", "trial_index": 194}, "uniqueid": "MTK2408:317HQ483I8ZI8VUZEUQ8DBGE1IINIW", "dateTime": 1517079774967}, {"current_trial": 195, "trialdata": {"rt": -1000, "trial_type": "single-audio", "word": "sparrow", "stimulus": "/static/audio/wordpool/SPARROW.wav", "conditions": [24, 1600, "a", 24000], "internal_node_id": "0.0-141.0", "trial": 5, "time_elapsed": 911629, "serialpos": 10, "key_press": -1, "wordID": 1346, "type": "PRES_AUD", "trial_index": 195}, "uniqueid": "MTK2408:317HQ483I8ZI8VUZEUQ8DBGE1IINIW", "dateTime": 1517079777730}, {"current_trial": 196, "trialdata": {"rt": -1000, "trial_type": "single-audio", "word": "branch", "stimulus": "/static/audio/wordpool/BRANCH.wav", "conditions": [24, 1600, "a", 24000], "internal_node_id": "0.0-142.0", "trial": 5, "time_elapsed": 914198, "serialpos": 11, "key_press": -1, "wordID": 167, "type": "PRES_AUD", "trial_index": 196}, "uniqueid": "MTK2408:317HQ483I8ZI8VUZEUQ8DBGE1IINIW", "dateTime": 1517079780299}, {"current_trial": 197, "trialdata": {"rt": -1000, "trial_type": "single-audio", "word": "cricket", "stimulus": "/static/audio/wordpool/CRICKET.wav", "conditions": [24, 1600, "a", 24000], "internal_node_id": "0.0-143.0", "trial": 5, "time_elapsed": 916747, "serialpos": 12, "key_press": -1, "wordID": 407, "type": "PRES_AUD", "trial_index": 197}, "uniqueid": "MTK2408:317HQ483I8ZI8VUZEUQ8DBGE1IINIW", "dateTime": 1517079782849}, {"current_trial": 198, "trialdata": {"rt": -1000, "trial_type": "single-audio", "word": "chauffeur", "stimulus": "/static/audio/wordpool/CHAUFFEUR.wav", "conditions": [24, 1600, "a", 24000], "internal_node_id": "0.0-144.0", "trial": 5, "time_elapsed": 919494, "serialpos": 13, "key_press": -1, "wordID": 282, "type": "PRES_AUD", "trial_index": 198}, "uniqueid": "MTK2408:317HQ483I8ZI8VUZEUQ8DBGE1IINIW", "dateTime": 1517079785595}, {"current_trial": 199, "trialdata": {"rt": -1000, "trial_type": "single-audio", "word": "hood", "stimulus": "/static/audio/wordpool/HOOD.wav", "conditions": [24, 1600, "a", 24000], "internal_node_id": "0.0-145.0", "trial": 5, "time_elapsed": 922199, "serialpos": 14, "key_press": -1, "wordID": 713, "type": "PRES_AUD", "trial_index": 199}, "uniqueid": "MTK2408:317HQ483I8ZI8VUZEUQ8DBGE1IINIW", "dateTime": 1517079788300}, {"current_trial": 200, "trialdata": {"rt": -1000, "trial_type": "single-audio", "word": "bullet", "stimulus": "/static/audio/wordpool/BULLET.wav", "conditions": [24, 1600, "a", 24000], "internal_node_id": "0.0-146.0", "trial": 5, "time_elapsed": 924673, "serialpos": 15, "key_press": -1, "wordID": 193, "type": "PRES_AUD", "trial_index": 200}, "uniqueid": "MTK2408:317HQ483I8ZI8VUZEUQ8DBGE1IINIW", "dateTime": 1517079790774}, {"current_trial": 201, "trialdata": {"rt": -1000, "trial_type": "single-audio", "word": "poet", "stimulus": "/static/audio/wordpool/POET.wav", "conditions": [24, 1600, "a", 24000], "internal_node_id": "0.0-147.0", "trial": 5, "time_elapsed": 927282, "serialpos": 16, "key_press": -1, "wordID": 1094, "type": "PRES_AUD", "trial_index": 201}, "uniqueid": "MTK2408:317HQ483I8ZI8VUZEUQ8DBGE1IINIW", "dateTime": 1517079793383}, {"current_trial": 202, "trialdata": {"rt": -1000, "trial_type": "single-audio", "word": "panther", "stimulus": "/static/audio/wordpool/PANTHER.wav", "conditions": [24, 1600, "a", 24000], "internal_node_id": "0.0-148.0", "trial": 5, "time_elapsed": 929757, "serialpos": 17, "key_press": -1, "wordID": 1008, "type": "PRES_AUD", "trial_index": 202}, "uniqueid": "MTK2408:317HQ483I8ZI8VUZEUQ8DBGE1IINIW", "dateTime": 1517079795859}, {"current_trial": 203, "trialdata": {"rt": -1000, "trial_type": "single-audio", "word": "cellar", "stimulus": "/static/audio/wordpool/CELLAR.wav", "conditions": [24, 1600, "a", 24000], "internal_node_id": "0.0-149.0", "trial": 5, "time_elapsed": 932401, "serialpos": 18, "key_press": -1, "wordID": 266, "type": "PRES_AUD", "trial_index": 203}, "uniqueid": "MTK2408:317HQ483I8ZI8VUZEUQ8DBGE1IINIW", "dateTime": 1517079798503}, {"current_trial": 204, "trialdata": {"rt": -1000, "trial_type": "single-audio", "word": "basement", "stimulus": "/static/audio/wordpool/BASEMENT.wav", "conditions": [24, 1600, "a", 24000], "internal_node_id": "0.0-150.0", "trial": 5, "time_elapsed": 935034, "serialpos": 19, "key_press": -1, "wordID": 93, "type": "PRES_AUD", "trial_index": 204}, "uniqueid": "MTK2408:317HQ483I8ZI8VUZEUQ8DBGE1IINIW", "dateTime": 1517079801135}, {"current_trial": 205, "trialdata": {"rt": -1000, "trial_type": "single-audio", "word": "zebra", "stimulus": "/static/audio/wordpool/ZEBRA.wav", "conditions": [24, 1600, "a", 24000], "internal_node_id": "0.0-151.0", "trial": 5, "time_elapsed": 937823, "serialpos": 20, "key_press": -1, "wordID": 1634, "type": "PRES_AUD", "trial_index": 205}, "uniqueid": "MTK2408:317HQ483I8ZI8VUZEUQ8DBGE1IINIW", "dateTime": 1517079803924}, {"current_trial": 206, "trialdata": {"rt": -1000, "trial_type": "single-audio", "word": "leopard", "stimulus": "/static/audio/wordpool/LEOPARD.wav", "conditions": [24, 1600, "a", 24000], "internal_node_id": "0.0-152.0", "trial": 5, "time_elapsed": 940341, "serialpos": 21, "key_press": -1, "wordID": 811, "type": "PRES_AUD", "trial_index": 206}, "uniqueid": "MTK2408:317HQ483I8ZI8VUZEUQ8DBGE1IINIW", "dateTime": 1517079806442}, {"current_trial": 207, "trialdata": {"rt": -1000, "trial_type": "single-audio", "word": "novel", "stimulus": "/static/audio/wordpool/NOVEL.wav", "conditions": [24, 1600, "a", 24000], "internal_node_id": "0.0-153.0", "trial": 5, "time_elapsed": 942894, "serialpos": 22, "key_press": -1, "wordID": 959, "type": "PRES_AUD", "trial_index": 207}, "uniqueid": "MTK2408:317HQ483I8ZI8VUZEUQ8DBGE1IINIW", "dateTime": 1517079808995}, {"current_trial": 208, "trialdata": {"rt": -1000, "trial_type": "single-audio", "word": "scissors", "stimulus": "/static/audio/wordpool/SCISSORS.wav", "conditions": [24, 1600, "a", 24000], "internal_node_id": "0.0-154.0", "trial": 5, "time_elapsed": 945384, "serialpos": 23, "key_press": -1, "wordID": 1249, "type": "PRES_AUD", "trial_index": 208}, "uniqueid": "MTK2408:317HQ483I8ZI8VUZEUQ8DBGE1IINIW", "dateTime": 1517079811485}, {"current_trial": 209, "trialdata": {"rt": -1, "trial_type": "single-stim", "stimulus": "", "internal_node_id": "0.0-155.0-0.0", "time_elapsed": 946604, "key_press": -1, "type": "PRE_RECALL_DELAY", "trial_index": 209}, "uniqueid": "MTK2408:317HQ483I8ZI8VUZEUQ8DBGE1IINIW", "dateTime": 1517079812705}, {"current_trial": 210, "trialdata": {"rt": -1000, "trial_type": "single-audio", "stimulus": "/static/audio/400Hz.wav", "internal_node_id": "0.0-156.0", "time_elapsed": 947105, "key_press": -1, "type": "PRE_RECALL_ALERT", "trial_index": 210}, "uniqueid": "MTK2408:317HQ483I8ZI8VUZEUQ8DBGE1IINIW", "dateTime": 1517079813206}, {"current_trial": 211, "trialdata": {"rt": [3083, 5363, 7563, 9955, 12443, 16283, 22851, 25227, 35586, 37986, 40923, 50203, 53034], "recwords": ["marsh", "robin", "sparrow", "reciept", "report", "purse", "sheriff", "bullet", "marsh", "branch", "cricket", "county", "basement"], "key_times": [1139, 1355, 1763, 2107, 2235, 3083, 3587, 3899, 4275, 4627, 4859, 5363, 5747, 5955, 6123, 6491, 6667, 6851, 7171, 7563, 8067, 8259, 8531, 8787, 8923, 9211, 9539, 9955, 10499, 10707, 10947, 11179, 11491, 11731, 12443, 14227, 14579, 14947, 15235, 15467, 16283, 20267, 20491, 20843, 21083, 21827, 22219, 22379, 22851, 23323, 23619, 23971, 24115, 24339, 24547, 25227, 34004, 34227, 34539, 34850, 35026, 35586, 36043, 36418, 36706, 36882, 37083, 37322, 37986, 38587, 38851, 39170, 39410, 39651, 39947, 40155, 40923, 48235, 48546, 48811, 49051, 49338, 49466, 50203, 50691, 50875, 51099, 51610, 51923, 52051, 52154, 52435, 53034, 56203, 57275], "trial_type": "free-recall", "conditions": [24, 1600, "a", 24000], "internal_node_id": "0.0-157.0-0.0", "key_presses": [77, 65, 82, 83, 72, 13, 82, 79, 66, 73, 78, 13, 83, 80, 65, 82, 82, 79, 87, 13, 82, 69, 67, 73, 69, 80, 84, 13, 82, 69, 80, 79, 82, 84, 13, 80, 85, 82, 83, 69, 13, 83, 72, 69, 82, 73, 70, 70, 13, 66, 85, 76, 76, 69, 84, 13, 77, 65, 82, 83, 72, 13, 66, 82, 65, 78, 67, 72, 13, 67, 82, 73, 67, 75, 69, 84, 13, 67, 79, 85, 78, 84, 89, 13, 66, 65, 83, 69, 77, 69, 78, 84, 13, 66, 8], "trial": 5, "time_elapsed": 1007108, "type": "FREE_RECALL", "trial_index": 211}, "uniqueid": "MTK2408:317HQ483I8ZI8VUZEUQ8DBGE1IINIW", "dateTime": 1517079873213}, {"current_trial": 212, "trialdata": {"rt": 11006, "trial_type": "text", "internal_node_id": "0.0-158.0", "time_elapsed": 1020119, "key_press": 32, "type": "INSTRUCTIONS", "trial_index": 212}, "uniqueid": "MTK2408:317HQ483I8ZI8VUZEUQ8DBGE1IINIW", "dateTime": 1517079886220}, {"current_trial": 213, "trialdata": {"rt": [3974, 6398, 8789], "trial_type": "math-distractor", "key_times": [3038, 3590, 3974, 5846, 6134, 6398, 7950, 8526, 8789, 11958], "responses": ["17", "13", "15"], "num2": [7, 3, 4, 8], "num3": [4, 8, 5, 5], "conditions": [12, 1600, "a", 12000], "internal_node_id": "0.0-159.0", "key_presses": [49, 55, 13, 49, 51, 13, 49, 53, 13, 49], "trial": 6, "time_elapsed": 1034121, "type": "DISTRACTOR", "trial_index": 213, "num1": [6, 2, 6, 3]}, "uniqueid": "MTK2408:317HQ483I8ZI8VUZEUQ8DBGE1IINIW", "dateTime": 1517079900222}, {"current_trial": 214, "trialdata": {"rt": -1, "trial_type": "single-stim", "stimulus": "<p id=\"stim\">10</p>", "internal_node_id": "0.0-160.0-0.0", "time_elapsed": 1037122, "key_press": -1, "trial_index": 214}, "uniqueid": "MTK2408:317HQ483I8ZI8VUZEUQ8DBGE1IINIW", "dateTime": 1517079903223}, {"current_trial": 215, "trialdata": {"rt": -1, "trial_type": "single-stim", "stimulus": "<p id=\"stim\">9</p>", "internal_node_id": "0.0-160.0-1.0", "time_elapsed": 1038123, "key_press": -1, "trial_index": 215}, "uniqueid": "MTK2408:317HQ483I8ZI8VUZEUQ8DBGE1IINIW", "dateTime": 1517079904224}, {"current_trial": 216, "trialdata": {"rt": -1, "trial_type": "single-stim", "stimulus": "<p id=\"stim\">8</p>", "internal_node_id": "0.0-160.0-2.0", "time_elapsed": 1039124, "key_press": -1, "trial_index": 216}, "uniqueid": "MTK2408:317HQ483I8ZI8VUZEUQ8DBGE1IINIW", "dateTime": 1517079905225}, {"current_trial": 217, "trialdata": {"rt": -1, "trial_type": "single-stim", "stimulus": "<p id=\"stim\">7</p>", "internal_node_id": "0.0-160.0-3.0", "time_elapsed": 1040125, "key_press": -1, "trial_index": 217}, "uniqueid": "MTK2408:317HQ483I8ZI8VUZEUQ8DBGE1IINIW", "dateTime": 1517079906226}, {"current_trial": 218, "trialdata": {"rt": -1, "trial_type": "single-stim", "stimulus": "<p id=\"stim\">6</p>", "internal_node_id": "0.0-160.0-4.0", "time_elapsed": 1041126, "key_press": -1, "trial_index": 218}, "uniqueid": "MTK2408:317HQ483I8ZI8VUZEUQ8DBGE1IINIW", "dateTime": 1517079907227}, {"current_trial": 219, "trialdata": {"rt": -1, "trial_type": "single-stim", "stimulus": "<p id=\"stim\">5</p>", "internal_node_id": "0.0-160.0-5.0", "time_elapsed": 1042128, "key_press": -1, "trial_index": 219}, "uniqueid": "MTK2408:317HQ483I8ZI8VUZEUQ8DBGE1IINIW", "dateTime": 1517079908229}, {"current_trial": 220, "trialdata": {"rt": -1, "trial_type": "single-stim", "stimulus": "<p id=\"stim\">4</p>", "internal_node_id": "0.0-160.0-6.0", "time_elapsed": 1043129, "key_press": -1, "trial_index": 220}, "uniqueid": "MTK2408:317HQ483I8ZI8VUZEUQ8DBGE1IINIW", "dateTime": 1517079909230}, {"current_trial": 221, "trialdata": {"rt": -1, "trial_type": "single-stim", "stimulus": "<p id=\"stim\">3</p>", "internal_node_id": "0.0-160.0-7.0", "time_elapsed": 1044131, "key_press": -1, "trial_index": 221}, "uniqueid": "MTK2408:317HQ483I8ZI8VUZEUQ8DBGE1IINIW", "dateTime": 1517079910232}, {"current_trial": 222, "trialdata": {"rt": -1, "trial_type": "single-stim", "stimulus": "<p id=\"stim\">2</p>", "internal_node_id": "0.0-160.0-8.0", "time_elapsed": 1045133, "key_press": -1, "trial_index": 222}, "uniqueid": "MTK2408:317HQ483I8ZI8VUZEUQ8DBGE1IINIW", "dateTime": 1517079911234}, {"current_trial": 223, "trialdata": {"rt": -1, "trial_type": "single-stim", "stimulus": "<p id=\"stim\">1</p>", "internal_node_id": "0.0-160.0-9.0", "time_elapsed": 1046135, "key_press": -1, "trial_index": 223}, "uniqueid": "MTK2408:317HQ483I8ZI8VUZEUQ8DBGE1IINIW", "dateTime": 1517079912238}, {"current_trial": 224, "trialdata": {"rt": -1, "trial_type": "single-stim", "stimulus": "<p id=\"stim\">+</p>", "internal_node_id": "0.0-161.0-0.0", "time_elapsed": 1047637, "key_press": -1, "type": "FIXATION", "trial_index": 224}, "uniqueid": "MTK2408:317HQ483I8ZI8VUZEUQ8DBGE1IINIW", "dateTime": 1517079913738}, {"current_trial": 225, "trialdata": {"rt": -1000, "trial_type": "single-audio", "word": "dress", "stimulus": "/static/audio/wordpool/DRESS.wav", "conditions": [12, 1600, "a", 12000], "internal_node_id": "0.0-162.0", "trial": 6, "time_elapsed": 1050143, "serialpos": 0, "key_press": -1, "wordID": 494, "type": "PRES_AUD", "trial_index": 225}, "uniqueid": "MTK2408:317HQ483I8ZI8VUZEUQ8DBGE1IINIW", "dateTime": 1517079916244}, {"current_trial": 226, "trialdata": {"rt": -1000, "trial_type": "single-audio", "word": "denim", "stimulus": "/static/audio/wordpool/DENIM.wav", "conditions": [12, 1600, "a", 12000], "internal_node_id": "0.0-163.0", "trial": 6, "time_elapsed": 1052715, "serialpos": 1, "key_press": -1, "wordID": 445, "type": "PRES_AUD", "trial_index": 226}, "uniqueid": "MTK2408:317HQ483I8ZI8VUZEUQ8DBGE1IINIW", "dateTime": 1517079918816}, {"current_trial": 227, "trialdata": {"rt": -1000, "trial_type": "single-audio", "word": "mask", "stimulus": "/static/audio/wordpool/MASK.wav", "conditions": [12, 1600, "a", 12000], "internal_node_id": "0.0-164.0", "trial": 6, "time_elapsed": 1055181, "serialpos": 2, "key_press": -1, "wordID": 875, "type": "PRES_AUD", "trial_index": 227}, "uniqueid": "MTK2408:317HQ483I8ZI8VUZEUQ8DBGE1IINIW", "dateTime": 1517079921283}, {"current_trial": 228, "trialdata": {"rt": -1000, "trial_type": "single-audio", "word": "portrait", "stimulus": "/static/audio/wordpool/PORTRAIT.wav", "conditions": [12, 1600, "a", 12000], "internal_node_id": "0.0-165.0", "trial": 6, "time_elapsed": 1057780, "serialpos": 3, "key_press": -1, "wordID": 1110, "type": "PRES_AUD", "trial_index": 228}, "uniqueid": "MTK2408:317HQ483I8ZI8VUZEUQ8DBGE1IINIW", "dateTime": 1517079923882}, {"current_trial": 229, "trialdata": {"rt": -1000, "trial_type": "single-audio", "word": "penguin", "stimulus": "/static/audio/wordpool/PENGUIN.wav", "conditions": [12, 1600, "a", 12000], "internal_node_id": "0.0-166.0", "trial": 6, "time_elapsed": 1060525, "serialpos": 4, "key_press": -1, "wordID": 1043, "type": "PRES_AUD", "trial_index": 229}, "uniqueid": "MTK2408:317HQ483I8ZI8VUZEUQ8DBGE1IINIW", "dateTime": 1517079926626}, {"current_trial": 230, "trialdata": {"rt": -1000, "trial_type": "single-audio", "word": "doughnut", "stimulus": "/static/audio/wordpool/DOUGHNUT.wav", "conditions": [12, 1600, "a", 12000], "internal_node_id": "0.0-167.0", "trial": 6, "time_elapsed": 1063306, "serialpos": 5, "key_press": -1, "wordID": 489, "type": "PRES_AUD", "trial_index": 230}, "uniqueid": "MTK2408:317HQ483I8ZI8VUZEUQ8DBGE1IINIW", "dateTime": 1517079929407}, {"current_trial": 231, "trialdata": {"rt": -1000, "trial_type": "single-audio", "word": "racket", "stimulus": "/static/audio/wordpool/RACKET.wav", "conditions": [12, 1600, "a", 12000], "internal_node_id": "0.0-168.0", "trial": 6, "time_elapsed": 1065766, "serialpos": 6, "key_press": -1, "wordID": 1154, "type": "PRES_AUD", "trial_index": 231}, "uniqueid": "MTK2408:317HQ483I8ZI8VUZEUQ8DBGE1IINIW", "dateTime": 1517079931867}, {"current_trial": 232, "trialdata": {"rt": -1000, "trial_type": "single-audio", "word": "tuba", "stimulus": "/static/audio/wordpool/TUBA.wav", "conditions": [12, 1600, "a", 12000], "internal_node_id": "0.0-169.0", "trial": 6, "time_elapsed": 1068303, "serialpos": 7, "key_press": -1, "wordID": 1514, "type": "PRES_AUD", "trial_index": 232}, "uniqueid": "MTK2408:317HQ483I8ZI8VUZEUQ8DBGE1IINIW", "dateTime": 1517079934404}, {"current_trial": 233, "trialdata": {"rt": -1000, "trial_type": "single-audio", "word": "agent", "stimulus": "/static/audio/wordpool/AGENT.wav", "conditions": [12, 1600, "a", 12000], "internal_node_id": "0.0-170.0", "trial": 6, "time_elapsed": 1070821, "serialpos": 8, "key_press": -1, "wordID": 9, "type": "PRES_AUD", "trial_index": 233}, "uniqueid": "MTK2408:317HQ483I8ZI8VUZEUQ8DBGE1IINIW", "dateTime": 1517079936922}, {"current_trial": 234, "trialdata": {"rt": -1000, "trial_type": "single-audio", "word": "gymnast", "stimulus": "/static/audio/wordpool/GYMNAST.wav", "conditions": [12, 1600, "a", 12000], "internal_node_id": "0.0-171.0", "trial": 6, "time_elapsed": 1073619, "serialpos": 9, "key_press": -1, "wordID": 674, "type": "PRES_AUD", "trial_index": 234}, "uniqueid": "MTK2408:317HQ483I8ZI8VUZEUQ8DBGE1IINIW", "dateTime": 1517079939721}, {"current_trial": 235, "trialdata": {"rt": -1000, "trial_type": "single-audio", "word": "headband", "stimulus": "/static/audio/wordpool/HEADBAND.wav", "conditions": [12, 1600, "a", 12000], "internal_node_id": "0.0-172.0", "trial": 6, "time_elapsed": 1076205, "serialpos": 10, "key_press": -1, "wordID": 695, "type": "PRES_AUD", "trial_index": 235}, "uniqueid": "MTK2408:317HQ483I8ZI8VUZEUQ8DBGE1IINIW", "dateTime": 1517079942306}, {"current_trial": 236, "trialdata": {"rt": -1000, "trial_type": "single-audio", "word": "bunny", "stimulus": "/static/audio/wordpool/BUNNY.wav", "conditions": [12, 1600, "a", 12000], "internal_node_id": "0.0-173.0", "trial": 6, "time_elapsed": 1078816, "serialpos": 11, "key_press": -1, "wordID": 197, "type": "PRES_AUD", "trial_index": 236}, "uniqueid": "MTK2408:317HQ483I8ZI8VUZEUQ8DBGE1IINIW", "dateTime": 1517079944917}, {"current_trial": 237, "trialdata": {"rt": -1, "trial_type": "single-stim", "stimulus": "", "internal_node_id": "0.0-174.0-0.0", "time_elapsed": 1080138, "key_press": -1, "type": "PRE_RECALL_DELAY", "trial_index": 237}, "uniqueid": "MTK2408:317HQ483I8ZI8VUZEUQ8DBGE1IINIW", "dateTime": 1517079946239}, {"current_trial": 238, "trialdata": {"rt": -1000, "trial_type": "single-audio", "stimulus": "/static/audio/400Hz.wav", "internal_node_id": "0.0-175.0", "time_elapsed": 1080638, "key_press": -1, "type": "PRE_RECALL_ALERT", "trial_index": 238}, "uniqueid": "MTK2408:317HQ483I8ZI8VUZEUQ8DBGE1IINIW", "dateTime": 1517079946739}, {"current_trial": 239, "trialdata": {"rt": [3285, 6213, 7997, 9685, 13301, 18125, 27453, 37486], "recwords": ["bunny", "penquin", "denim", "mask", "dress", "buny", "rabbit", "agent"], "key_times": [990, 1365, 1733, 1829, 2205, 3285, 3741, 4133, 4405, 5005, 5261, 5437, 5677, 6213, 6631, 6845, 7029, 7253, 7502, 7997, 8453, 8661, 8901, 9141, 9685, 10229, 10453, 10677, 10989, 11157, 13301, 16197, 16461, 16869, 17133, 18125, 25877, 26117, 26357, 26502, 26829, 27181, 27453, 35861, 36078, 36325, 36534, 36854, 37486], "trial_type": "free-recall", "conditions": [12, 1600, "a", 12000], "internal_node_id": "0.0-176.0-0.0", "key_presses": [66, 85, 78, 78, 89, 13, 80, 69, 78, 81, 85, 73, 78, 13, 68, 69, 78, 73, 77, 13, 77, 65, 83, 75, 13, 68, 82, 69, 83, 83, 13, 66, 85, 78, 89, 13, 82, 65, 66, 66, 73, 84, 13, 65, 71, 69, 78, 84, 13], "trial": 6, "time_elapsed": 1140642, "type": "FREE_RECALL", "trial_index": 239}, "uniqueid": "MTK2408:317HQ483I8ZI8VUZEUQ8DBGE1IINIW", "dateTime": 1517080006749}, {"current_trial": 240, "trialdata": {"rt": 3454, "trial_type": "text", "internal_node_id": "0.0-177.0", "time_elapsed": 1146103, "key_press": 32, "type": "INSTRUCTIONS", "trial_index": 240}, "uniqueid": "MTK2408:317HQ483I8ZI8VUZEUQ8DBGE1IINIW", "dateTime": 1517080012204}, {"current_trial": 241, "trialdata": {"rt": [4645, 11893], "trial_type": "math-distractor", "key_times": [3804, 4197, 4645, 11053, 11590, 11893], "responses": ["20", "23"], "num2": [9, 9, 1], "num3": [5, 6, 3], "conditions": [12, 800, "a", 12000], "internal_node_id": "0.0-178.0", "key_presses": [50, 48, 13, 50, 51, 13], "trial": 7, "time_elapsed": 1160107, "type": "DISTRACTOR", "trial_index": 241, "num1": [6, 7, 7]}, "uniqueid": "MTK2408:317HQ483I8ZI8VUZEUQ8DBGE1IINIW", "dateTime": 1517080026208}, {"current_trial": 242, "trialdata": {"rt": -1, "trial_type": "single-stim", "stimulus": "<p id=\"stim\">10</p>", "internal_node_id": "0.0-179.0-0.0", "time_elapsed": 1163108, "key_press": -1, "trial_index": 242}, "uniqueid": "MTK2408:317HQ483I8ZI8VUZEUQ8DBGE1IINIW", "dateTime": 1517080029210}, {"current_trial": 243, "trialdata": {"rt": -1, "trial_type": "single-stim", "stimulus": "<p id=\"stim\">9</p>", "internal_node_id": "0.0-179.0-1.0", "time_elapsed": 1164110, "key_press": -1, "trial_index": 243}, "uniqueid": "MTK2408:317HQ483I8ZI8VUZEUQ8DBGE1IINIW", "dateTime": 1517080030211}, {"current_trial": 244, "trialdata": {"rt": -1, "trial_type": "single-stim", "stimulus": "<p id=\"stim\">8</p>", "internal_node_id": "0.0-179.0-2.0", "time_elapsed": 1165111, "key_press": -1, "trial_index": 244}, "uniqueid": "MTK2408:317HQ483I8ZI8VUZEUQ8DBGE1IINIW", "dateTime": 1517080031212}, {"current_trial": 245, "trialdata": {"rt": -1, "trial_type": "single-stim", "stimulus": "<p id=\"stim\">7</p>", "internal_node_id": "0.0-179.0-3.0", "time_elapsed": 1166112, "key_press": -1, "trial_index": 245}, "uniqueid": "MTK2408:317HQ483I8ZI8VUZEUQ8DBGE1IINIW", "dateTime": 1517080032213}, {"current_trial": 246, "trialdata": {"rt": -1, "trial_type": "single-stim", "stimulus": "<p id=\"stim\">6</p>", "internal_node_id": "0.0-179.0-4.0", "time_elapsed": 1167115, "key_press": -1, "trial_index": 246}, "uniqueid": "MTK2408:317HQ483I8ZI8VUZEUQ8DBGE1IINIW", "dateTime": 1517080033216}, {"current_trial": 247, "trialdata": {"rt": -1, "trial_type": "single-stim", "stimulus": "<p id=\"stim\">5</p>", "internal_node_id": "0.0-179.0-5.0", "time_elapsed": 1168115, "key_press": -1, "trial_index": 247}, "uniqueid": "MTK2408:317HQ483I8ZI8VUZEUQ8DBGE1IINIW", "dateTime": 1517080034216}, {"current_trial": 248, "trialdata": {"rt": -1, "trial_type": "single-stim", "stimulus": "<p id=\"stim\">4</p>", "internal_node_id": "0.0-179.0-6.0", "time_elapsed": 1169117, "key_press": -1, "trial_index": 248}, "uniqueid": "MTK2408:317HQ483I8ZI8VUZEUQ8DBGE1IINIW", "dateTime": 1517080035219}, {"current_trial": 249, "trialdata": {"rt": -1, "trial_type": "single-stim", "stimulus": "<p id=\"stim\">3</p>", "internal_node_id": "0.0-179.0-7.0", "time_elapsed": 1170119, "key_press": -1, "trial_index": 249}, "uniqueid": "MTK2408:317HQ483I8ZI8VUZEUQ8DBGE1IINIW", "dateTime": 1517080036220}, {"current_trial": 250, "trialdata": {"rt": -1, "trial_type": "single-stim", "stimulus": "<p id=\"stim\">2</p>", "internal_node_id": "0