{"assignmentId": "3V0Z7YWSIZ7R5FP6RIR70C3AZD9V29", "workerId": "MTK2624", "questiondata": {"origin": "United States", "strat-rehearsal": "30", "marital": "Married/Domestic Partnership", "education": "Associate degree", "ethnicity": "Not Hispanic", "color_depth": 24, "distracted": "No", "wrote-notes": "No", "strat-other": "", "screen_width": 1093, "avail_screen_width": 1093, "avail_screen_height": 615, "strat-image": "69", "language": "english", "gender": "Female", "age": "44", "gender_other": "", "race": ["White"], "strat-categorize": "96", "pixel_depth": 24, "strat-spatial": "15", "strat-story": "24", "race_other": "", "screen_height": 615}, "bonus": 0, "hitId": "33NOQL7T9O6HDUYBIUK96PXPPIB8ZM", "counterbalance": 2624, "useragent": "Mozilla/5.0 (Windows NT 10.0; Win64; x64) AppleWebKit/537.36 (KHTML, like Gecko) Chrome/63.0.3239.132 Safari/537.36", "eventdata": [{"eventtype": "initialized", "interval": 0, "value": null, "timestamp": 1519159986501}, {"eventtype": "window_resize", "interval": 0, "value": [1096, 567], "timestamp": 1519159986501}, {"eventtype": "window_resize", "interval": 4232, "value": [1094, 564], "timestamp": 1519159990733}], "data": [{"current_trial": 0, "trialdata": {"rt": 5474, "trial_type": "text", "internal_node_id": "0.0-0.0", "time_elapsed": 5477, "key_press": 32, "type": "INSTRUCTIONS", "trial_index": 0}, "uniqueid": "MTK2624:3V0Z7YWSIZ7R5FP6RIR70C3AZD9V29", "dateTime": 1519160019047}, {"current_trial": 1, "trialdata": {"rt": 20721, "trial_type": "text", "internal_node_id": "0.0-1.0", "time_elapsed": 26200, "key_press": 32, "type": "INSTRUCTIONS", "trial_index": 1}, "uniqueid": "MTK2624:3V0Z7YWSIZ7R5FP6RIR70C3AZD9V29", "dateTime": 1519160039770}, {"current_trial": 2, "trialdata": {"rt": [13327], "trial_type": "audio-test", "responses": ["ocean"], "internal_node_id": "0.0-2.0", "time_elapsed": 39548, "type": "AUDIO_TEST", "trial_index": 2}, "uniqueid": "MTK2624:3V0Z7YWSIZ7R5FP6RIR70C3AZD9V29", "dateTime": 1519160053117}, {"current_trial": 3, "trialdata": {"rt": [11857], "trial_type": "audio-test", "responses": ["crystal"], "internal_node_id": "0.0-3.0", "time_elapsed": 51412, "type": "AUDIO_TEST", "trial_index": 3}, "uniqueid": "MTK2624:3V0Z7YWSIZ7R5FP6RIR70C3AZD9V29", "dateTime": 1519160064981}, {"current_trial": 4, "trialdata": {"rt": [12774], "trial_type": "audio-test", "responses": ["spice"], "internal_node_id": "0.0-4.0", "time_elapsed": 64194, "type": "AUDIO_TEST", "trial_index": 4}, "uniqueid": "MTK2624:3V0Z7YWSIZ7R5FP6RIR70C3AZD9V29", "dateTime": 1519160077763}, {"current_trial": 5, "trialdata": {"rt": 45310, "trial_type": "survey-text", "responses": "{\"Q0\":\"11:00 am\",\"Q1\":\"7:30am\",\"Q2\":\"5\"}", "internal_node_id": "0.0-5.0", "time_elapsed": 110257, "type": "SLEEP_SURVEY", "trial_index": 5}, "uniqueid": "MTK2624:3V0Z7YWSIZ7R5FP6RIR70C3AZD9V29", "dateTime": 1519160123826}, {"current_trial": 6, "trialdata": {"rt": 69770, "trial_type": "text", "internal_node_id": "0.0-6.0", "time_elapsed": 181028, "key_press": 32, "type": "INSTRUCTIONS", "trial_index": 6}, "uniqueid": "MTK2624:3V0Z7YWSIZ7R5FP6RIR70C3AZD9V29", "dateTime": 1519160194597}, {"current_trial": 7, "trialdata": {"rt": 13270, "trial_type": "text", "internal_node_id": "0.0-7.0", "time_elapsed": 194800, "key_press": 32, "type": "INSTRUCTIONS", "trial_index": 7}, "uniqueid": "MTK2624:3V0Z7YWSIZ7R5FP6RIR70C3AZD9V29", "dateTime": 1519160208369}, {"current_trial": 8, "trialdata": {"rt": 16945, "trial_type": "text", "internal_node_id": "0.0-8.0", "time_elapsed": 212247, "key_press": 32, "type": "INSTRUCTIONS", "trial_index": 8}, "uniqueid": "MTK2624:3V0Z7YWSIZ7R5FP6RIR70C3AZD9V29", "dateTime": 1519160225816}, {"current_trial": 9, "trialdata": {"rt": [3191, 5998, 8383, 10433, 12801, 15232, 17030], "trial_type": "math-distractor", "key_times": [2083, 3191, 5445, 5695, 5998, 7639, 8002, 8383, 9751, 10018, 10433, 12157, 12423, 12801, 14518, 14851, 15232, 16610, 17030], "responses": ["9", "21", "19", "13", "13", "19", "7"], "num2": [1, 8, 8, 1, 1, 6, 3, 9], "num3": [4, 7, 8, 3, 6, 5, 3, 1], "conditions": [18, 1200, "a", 18000], "internal_node_id": "0.0-9.0", "key_presses": [105, 13, 98, 97, 13, 97, 105, 13, 97, 99, 13, 97, 99, 13, 97, 105, 13, 103, 13], "trial": 0, "time_elapsed": 231256, "type": "DISTRACTOR", "trial_index": 9, "num1": [4, 7, 3, 9, 6, 8, 1, 9]}, "uniqueid": "MTK2624:3V0Z7YWSIZ7R5FP6RIR70C3AZD9V29", "dateTime": 1519160244825}, {"current_trial": 10, "trialdata": {"rt": -1, "trial_type": "single-stim", "stimulus": "<p id=\"stim\">10</p>", "internal_node_id": "0.0-10.0-0.0", "time_elapsed": 234259, "key_press": -1, "trial_index": 10}, "uniqueid": "MTK2624:3V0Z7YWSIZ7R5FP6RIR70C3AZD9V29", "dateTime": 1519160247828}, {"current_trial": 11, "trialdata": {"rt": -1, "trial_type": "single-stim", "stimulus": "<p id=\"stim\">9</p>", "internal_node_id": "0.0-10.0-1.0", "time_elapsed": 235261, "key_press": -1, "trial_index": 11}, "uniqueid": "MTK2624:3V0Z7YWSIZ7R5FP6RIR70C3AZD9V29", "dateTime": 1519160248830}, {"current_trial": 12, "trialdata": {"rt": -1, "trial_type": "single-stim", "stimulus": "<p id=\"stim\">8</p>", "internal_node_id": "0.0-10.0-2.0", "time_elapsed": 236262, "key_press": -1, "trial_index": 12}, "uniqueid": "MTK2624:3V0Z7YWSIZ7R5FP6RIR70C3AZD9V29", "dateTime": 1519160249831}, {"current_trial": 13, "trialdata": {"rt": -1, "trial_type": "single-stim", "stimulus": "<p id=\"stim\">7</p>", "internal_node_id": "0.0-10.0-3.0", "time_elapsed": 237263, "key_press": -1, "trial_index": 13}, "uniqueid": "MTK2624:3V0Z7YWSIZ7R5FP6RIR70C3AZD9V29", "dateTime": 1519160250832}, {"current_trial": 14, "trialdata": {"rt": -1, "trial_type": "single-stim", "stimulus": "<p id=\"stim\">6</p>", "internal_node_id": "0.0-10.0-4.0", "time_elapsed": 238265, "key_press": -1, "trial_index": 14}, "uniqueid": "MTK2624:3V0Z7YWSIZ7R5FP6RIR70C3AZD9V29", "dateTime": 1519160251834}, {"current_trial": 15, "trialdata": {"rt": -1, "trial_type": "single-stim", "stimulus": "<p id=\"stim\">5</p>", "internal_node_id": "0.0-10.0-5.0", "time_elapsed": 239266, "key_press": -1, "trial_index": 15}, "uniqueid": "MTK2624:3V0Z7YWSIZ7R5FP6RIR70C3AZD9V29", "dateTime": 1519160252836}, {"current_trial": 16, "trialdata": {"rt": -1, "trial_type": "single-stim", "stimulus": "<p id=\"stim\">4</p>", "internal_node_id": "0.0-10.0-6.0", "time_elapsed": 240268, "key_press": -1, "trial_index": 16}, "uniqueid": "MTK2624:3V0Z7YWSIZ7R5FP6RIR70C3AZD9V29", "dateTime": 1519160253837}, {"current_trial": 17, "trialdata": {"rt": -1, "trial_type": "single-stim", "stimulus": "<p id=\"stim\">3</p>", "internal_node_id": "0.0-10.0-7.0", "time_elapsed": 241269, "key_press": -1, "trial_index": 17}, "uniqueid": "MTK2624:3V0Z7YWSIZ7R5FP6RIR70C3AZD9V29", "dateTime": 1519160254839}, {"current_trial": 18, "trialdata": {"rt": -1, "trial_type": "single-stim", "stimulus": "<p id=\"stim\">2</p>", "internal_node_id": "0.0-10.0-8.0", "time_elapsed": 242271, "key_press": -1, "trial_index": 18}, "uniqueid": "MTK2624:3V0Z7YWSIZ7R5FP6RIR70C3AZD9V29", "dateTime": 1519160255840}, {"current_trial": 19, "trialdata": {"rt": -1, "trial_type": "single-stim", "stimulus": "<p id=\"stim\">1</p>", "internal_node_id": "0.0-10.0-9.0", "time_elapsed": 243272, "key_press": -1, "trial_index": 19}, "uniqueid": "MTK2624:3V0Z7YWSIZ7R5FP6RIR70C3AZD9V29", "dateTime": 1519160256841}, {"current_trial": 20, "trialdata": {"rt": -1, "trial_type": "single-stim", "stimulus": "<p id=\"stim\">+</p>", "internal_node_id": "0.0-11.0-0.0", "time_elapsed": 244774, "key_press": -1, "type": "FIXATION", "trial_index": 20}, "uniqueid": "MTK2624:3V0Z7YWSIZ7R5FP6RIR70C3AZD9V29", "dateTime": 1519160258343}, {"current_trial": 21, "trialdata": {"rt": -1000, "trial_type": "single-audio", "word": "dashboard", "stimulus": "/static/audio/wordpool/DASHBOARD.wav", "conditions": [18, 1200, "a", 18000], "internal_node_id": "0.0-12.0", "trial": 0, "time_elapsed": 247148, "serialpos": 0, "key_press": -1, "wordID": 440, "type": "PRES_AUD", "trial_index": 21}, "uniqueid": "MTK2624:3V0Z7YWSIZ7R5FP6RIR70C3AZD9V29", "dateTime": 1519160260718}, {"current_trial": 22, "trialdata": {"rt": -1000, "trial_type": "single-audio", "word": "shrub", "stimulus": "/static/audio/wordpool/SHRUB.wav", "conditions": [18, 1200, "a", 18000], "internal_node_id": "0.0-13.0", "trial": 0, "time_elapsed": 249209, "serialpos": 1, "key_press": -1, "wordID": 1298, "type": "PRES_AUD", "trial_index": 22}, "uniqueid": "MTK2624:3V0Z7YWSIZ7R5FP6RIR70C3AZD9V29", "dateTime": 1519160262779}, {"current_trial": 23, "trialdata": {"rt": -1000, "trial_type": "single-audio", "word": "rebel", "stimulus": "/static/audio/wordpool/REBEL.wav", "conditions": [18, 1200, "a", 18000], "internal_node_id": "0.0-14.0", "trial": 0, "time_elapsed": 251287, "serialpos": 2, "key_press": -1, "wordID": 1171, "type": "PRES_AUD", "trial_index": 23}, "uniqueid": "MTK2624:3V0Z7YWSIZ7R5FP6RIR70C3AZD9V29", "dateTime": 1519160264856}, {"current_trial": 24, "trialdata": {"rt": -1000, "trial_type": "single-audio", "word": "swimmer", "stimulus": "/static/audio/wordpool/SWIMMER.wav", "conditions": [18, 1200, "a", 18000], "internal_node_id": "0.0-15.0", "trial": 0, "time_elapsed": 253302, "serialpos": 3, "key_press": -1, "wordID": 1419, "type": "PRES_AUD", "trial_index": 24}, "uniqueid": "MTK2624:3V0Z7YWSIZ7R5FP6RIR70C3AZD9V29", "dateTime": 1519160266871}, {"current_trial": 25, "trialdata": {"rt": -1000, "trial_type": "single-audio", "word": "globe", "stimulus": "/static/audio/wordpool/GLOBE.wav", "conditions": [18, 1200, "a", 18000], "internal_node_id": "0.0-16.0", "trial": 0, "time_elapsed": 255408, "serialpos": 4, "key_press": -1, "wordID": 640, "type": "PRES_AUD", "trial_index": 25}, "uniqueid": "MTK2624:3V0Z7YWSIZ7R5FP6RIR70C3AZD9V29", "dateTime": 1519160268977}, {"current_trial": 26, "trialdata": {"rt": -1000, "trial_type": "single-audio", "word": "slide", "stimulus": "/static/audio/wordpool/SLIDE.wav", "conditions": [18, 1200, "a", 18000], "internal_node_id": "0.0-17.0", "trial": 0, "time_elapsed": 257501, "serialpos": 5, "key_press": -1, "wordID": 1325, "type": "PRES_AUD", "trial_index": 26}, "uniqueid": "MTK2624:3V0Z7YWSIZ7R5FP6RIR70C3AZD9V29", "dateTime": 1519160271070}, {"current_trial": 27, "trialdata": {"rt": -1000, "trial_type": "single-audio", "word": "termite", "stimulus": "/static/audio/wordpool/TERMITE.wav", "conditions": [18, 1200, "a", 18000], "internal_node_id": "0.0-18.0", "trial": 0, "time_elapsed": 259517, "serialpos": 6, "key_press": -1, "wordID": 1450, "type": "PRES_AUD", "trial_index": 27}, "uniqueid": "MTK2624:3V0Z7YWSIZ7R5FP6RIR70C3AZD9V29", "dateTime": 1519160273086}, {"current_trial": 28, "trialdata": {"rt": -1000, "trial_type": "single-audio", "word": "breast", "stimulus": "/static/audio/wordpool/BREAST.wav", "conditions": [18, 1200, "a", 18000], "internal_node_id": "0.0-19.0", "trial": 0, "time_elapsed": 261717, "serialpos": 7, "key_press": -1, "wordID": 170, "type": "PRES_AUD", "trial_index": 28}, "uniqueid": "MTK2624:3V0Z7YWSIZ7R5FP6RIR70C3AZD9V29", "dateTime": 1519160275286}, {"current_trial": 29, "trialdata": {"rt": -1000, "trial_type": "single-audio", "word": "gangster", "stimulus": "/static/audio/wordpool/GANGSTER.wav", "conditions": [18, 1200, "a", 18000], "internal_node_id": "0.0-20.0", "trial": 0, "time_elapsed": 263852, "serialpos": 8, "key_press": -1, "wordID": 619, "type": "PRES_AUD", "trial_index": 29}, "uniqueid": "MTK2624:3V0Z7YWSIZ7R5FP6RIR70C3AZD9V29", "dateTime": 1519160277421}, {"current_trial": 30, "trialdata": {"rt": -1000, "trial_type": "single-audio", "word": "bunny", "stimulus": "/static/audio/wordpool/BUNNY.wav", "conditions": [18, 1200, "a", 18000], "internal_node_id": "0.0-21.0", "trial": 0, "time_elapsed": 266178, "serialpos": 9, "key_press": -1, "wordID": 197, "type": "PRES_AUD", "trial_index": 30}, "uniqueid": "MTK2624:3V0Z7YWSIZ7R5FP6RIR70C3AZD9V29", "dateTime": 1519160279747}, {"current_trial": 31, "trialdata": {"rt": -1000, "trial_type": "single-audio", "word": "ghetto", "stimulus": "/static/audio/wordpool/GHETTO.wav", "conditions": [18, 1200, "a", 18000], "internal_node_id": "0.0-22.0", "trial": 0, "time_elapsed": 268564, "serialpos": 10, "key_press": -1, "wordID": 632, "type": "PRES_AUD", "trial_index": 31}, "uniqueid": "MTK2624:3V0Z7YWSIZ7R5FP6RIR70C3AZD9V29", "dateTime": 1519160282133}, {"current_trial": 32, "trialdata": {"rt": -1000, "trial_type": "single-audio", "word": "preacher", "stimulus": "/static/audio/wordpool/PREACHER.wav", "conditions": [18, 1200, "a", 18000], "internal_node_id": "0.0-23.0", "trial": 0, "time_elapsed": 270896, "serialpos": 11, "key_press": -1, "wordID": 1118, "type": "PRES_AUD", "trial_index": 32}, "uniqueid": "MTK2624:3V0Z7YWSIZ7R5FP6RIR70C3AZD9V29", "dateTime": 1519160284465}, {"current_trial": 33, "trialdata": {"rt": -1000, "trial_type": "single-audio", "word": "chauffeur", "stimulus": "/static/audio/wordpool/CHAUFFEUR.wav", "conditions": [18, 1200, "a", 18000], "internal_node_id": "0.0-24.0", "trial": 0, "time_elapsed": 273037, "serialpos": 12, "key_press": -1, "wordID": 282, "type": "PRES_AUD", "trial_index": 33}, "uniqueid": "MTK2624:3V0Z7YWSIZ7R5FP6RIR70C3AZD9V29", "dateTime": 1519160286606}, {"current_trial": 34, "trialdata": {"rt": -1000, "trial_type": "single-audio", "word": "snail", "stimulus": "/static/audio/wordpool/SNAIL.wav", "conditions": [18, 1200, "a", 18000], "internal_node_id": "0.0-25.0", "trial": 0, "time_elapsed": 275132, "serialpos": 13, "key_press": -1, "wordID": 1331, "type": "PRES_AUD", "trial_index": 34}, "uniqueid": "MTK2624:3V0Z7YWSIZ7R5FP6RIR70C3AZD9V29", "dateTime": 1519160288701}, {"current_trial": 35, "trialdata": {"rt": -1000, "trial_type": "single-audio", "word": "spool", "stimulus": "/static/audio/wordpool/SPOOL.wav", "conditions": [18, 1200, "a", 18000], "internal_node_id": "0.0-26.0", "trial": 0, "time_elapsed": 277208, "serialpos": 14, "key_press": -1, "wordID": 1355, "type": "PRES_AUD", "trial_index": 35}, "uniqueid": "MTK2624:3V0Z7YWSIZ7R5FP6RIR70C3AZD9V29", "dateTime": 1519160290777}, {"current_trial": 36, "trialdata": {"rt": -1000, "trial_type": "single-audio", "word": "dancer", "stimulus": "/static/audio/wordpool/DANCER.wav", "conditions": [18, 1200, "a", 18000], "internal_node_id": "0.0-27.0", "trial": 0, "time_elapsed": 279471, "serialpos": 15, "key_press": -1, "wordID": 436, "type": "PRES_AUD", "trial_index": 36}, "uniqueid": "MTK2624:3V0Z7YWSIZ7R5FP6RIR70C3AZD9V29", "dateTime": 1519160293040}, {"current_trial": 37, "trialdata": {"rt": -1000, "trial_type": "single-audio", "word": "statue", "stimulus": "/static/audio/wordpool/STATUE.wav", "conditions": [18, 1200, "a", 18000], "internal_node_id": "0.0-28.0", "trial": 0, "time_elapsed": 281695, "serialpos": 16, "key_press": -1, "wordID": 1373, "type": "PRES_AUD", "trial_index": 37}, "uniqueid": "MTK2624:3V0Z7YWSIZ7R5FP6RIR70C3AZD9V29", "dateTime": 1519160295264}, {"current_trial": 38, "trialdata": {"rt": -1000, "trial_type": "single-audio", "word": "clock", "stimulus": "/static/audio/wordpool/CLOCK.wav", "conditions": [18, 1200, "a", 18000], "internal_node_id": "0.0-29.0", "trial": 0, "time_elapsed": 283794, "serialpos": 17, "key_press": -1, "wordID": 324, "type": "PRES_AUD", "trial_index": 38}, "uniqueid": "MTK2624:3V0Z7YWSIZ7R5FP6RIR70C3AZD9V29", "dateTime": 1519160297363}, {"current_trial": 39, "trialdata": {"rt": -1, "trial_type": "single-stim", "stimulus": "", "internal_node_id": "0.0-30.0-0.0", "time_elapsed": 285132, "key_press": -1, "type": "PRE_RECALL_DELAY", "trial_index": 39}, "uniqueid": "MTK2624:3V0Z7YWSIZ7R5FP6RIR70C3AZD9V29", "dateTime": 1519160298701}, {"current_trial": 40, "trialdata": {"rt": -1000, "trial_type": "single-audio", "stimulus": "/static/audio/400Hz.wav", "internal_node_id": "0.0-31.0", "time_elapsed": 285637, "key_press": -1, "type": "PRE_RECALL_ALERT", "trial_index": 40}, "uniqueid": "MTK2624:3V0Z7YWSIZ7R5FP6RIR70C3AZD9V29", "dateTime": 1519160299206}, {"current_trial": 41, "trialdata": {"rt": [4898, 9724, 12276, 15129, 18983, 33551], "recwords": ["clock", "gangster", "statue", "snail", "washboard", ""], "key_times": [2140, 2407, 2636, 3151, 3711, 4898, 6987, 7256, 7476, 7792, 8153, 8365, 8671, 8886, 9724, 10233, 10477, 10687, 10857, 11448, 11747, 12276, 13567, 13879, 14141, 14417, 14659, 15129, 15766, 16013, 16284, 16561, 16951, 17470, 17775, 18076, 18462, 18983, 33551], "trial_type": "free-recall", "conditions": [18, 1200, "a", 18000], "internal_node_id": "0.0-32.0-0.0", "key_presses": [67, 76, 79, 67, 75, 13, 71, 65, 78, 71, 83, 84, 69, 82, 13, 83, 84, 65, 84, 85, 69, 13, 83, 78, 65, 73, 76, 13, 87, 65, 83, 72, 66, 79, 65, 82, 68, 13, 13], "trial": 0, "time_elapsed": 345641, "type": "FREE_RECALL", "trial_index": 41}, "uniqueid": "MTK2624:3V0Z7YWSIZ7R5FP6RIR70C3AZD9V29", "dateTime": 1519160359214}, {"current_trial": 42, "trialdata": {"rt": 1854, "trial_type": "text", "internal_node_id": "0.0-33.0", "time_elapsed": 349503, "key_press": 32, "type": "INSTRUCTIONS", "trial_index": 42}, "uniqueid": "MTK2624:3V0Z7YWSIZ7R5FP6RIR70C3AZD9V29", "dateTime": 1519160363072}, {"current_trial": 43, "trialdata": {"rt": [3424, 7919, 9815, 12009, 14339, 15985], "trial_type": "math-distractor", "key_times": [2620, 3034, 3424, 6482, 6963, 7919, 9188, 9471, 9815, 11516, 11739, 12009, 13735, 14029, 14339, 15597, 15985], "responses": ["19", "15", "16", "14", "17", "5"], "num2": [4, 3, 1, 4, 7, 2, 7], "num3": [6, 2, 6, 2, 8, 2, 7], "conditions": [18, 1200, "a", 18000], "internal_node_id": "0.0-34.0", "key_presses": [97, 105, 13, 97, 101, 13, 97, 102, 13, 97, 100, 13, 97, 103, 13, 101, 13], "trial": 1, "time_elapsed": 369507, "type": "DISTRACTOR", "trial_index": 43, "num1": [9, 9, 9, 8, 2, 1, 9]}, "uniqueid": "MTK2624:3V0Z7YWSIZ7R5FP6RIR70C3AZD9V29", "dateTime": 1519160383076}, {"current_trial": 44, "trialdata": {"rt": -1, "trial_type": "single-stim", "stimulus": "<p id=\"stim\">10</p>", "internal_node_id": "0.0-35.0-0.0", "time_elapsed": 372511, "key_press": -1, "trial_index": 44}, "uniqueid": "MTK2624:3V0Z7YWSIZ7R5FP6RIR70C3AZD9V29", "dateTime": 1519160386080}, {"current_trial": 45, "trialdata": {"rt": -1, "trial_type": "single-stim", "stimulus": "<p id=\"stim\">9</p>", "internal_node_id": "0.0-35.0-1.0", "time_elapsed": 373512, "key_press": -1, "trial_index": 45}, "uniqueid": "MTK2624:3V0Z7YWSIZ7R5FP6RIR70C3AZD9V29", "dateTime": 1519160387082}, {"current_trial": 46, "trialdata": {"rt": -1, "trial_type": "single-stim", "stimulus": "<p id=\"stim\">8</p>", "internal_node_id": "0.0-35.0-2.0", "time_elapsed": 374513, "key_press": -1, "trial_index": 46}, "uniqueid": "MTK2624:3V0Z7YWSIZ7R5FP6RIR70C3AZD9V29", "dateTime": 1519160388082}, {"current_trial": 47, "trialdata": {"rt": -1, "trial_type": "single-stim", "stimulus": "<p id=\"stim\">7</p>", "internal_node_id": "0.0-35.0-3.0", "time_elapsed": 375514, "key_press": -1, "trial_index": 47}, "uniqueid": "MTK2624:3V0Z7YWSIZ7R5FP6RIR70C3AZD9V29", "dateTime": 1519160389084}, {"current_trial": 48, "trialdata": {"rt": -1, "trial_type": "single-stim", "stimulus": "<p id=\"stim\">6</p>", "internal_node_id": "0.0-35.0-4.0", "time_elapsed": 376516, "key_press": -1, "trial_index": 48}, "uniqueid": "MTK2624:3V0Z7YWSIZ7R5FP6RIR70C3AZD9V29", "dateTime": 1519160390085}, {"current_trial": 49, "trialdata": {"rt": 106, "trial_type": "single-stim", "stimulus": "<p id=\"stim\">5</p>", "internal_node_id": "0.0-35.0-5.0", "time_elapsed": 377517, "key_press": 233, "trial_index": 49}, "uniqueid": "MTK2624:3V0Z7YWSIZ7R5FP6RIR70C3AZD9V29", "dateTime": 1519160391087}, {"current_trial": 50, "trialdata": {"rt": -1, "trial_type": "single-stim", "stimulus": "<p id=\"stim\">4</p>", "internal_node_id": "0.0-35.0-6.0", "time_elapsed": 378519, "key_press": -1, "trial_index": 50}, "uniqueid": "MTK2624:3V0Z7YWSIZ7R5FP6RIR70C3AZD9V29", "dateTime": 1519160392088}, {"current_trial": 51, "trialdata": {"rt": -1, "trial_type": "single-stim", "stimulus": "<p id=\"stim\">3</p>", "internal_node_id": "0.0-35.0-7.0", "time_elapsed": 379520, "key_press": -1, "trial_index": 51}, "uniqueid": "MTK2624:3V0Z7YWSIZ7R5FP6RIR70C3AZD9V29", "dateTime": 1519160393090}, {"current_trial": 52, "trialdata": {"rt": -1, "trial_type": "single-stim", "stimulus": "<p id=\"stim\">2</p>", "internal_node_id": "0.0-35.0-8.0", "time_elapsed": 380522, "key_press": -1, "trial_index": 52}, "uniqueid": "MTK2624:3V0Z7YWSIZ7R5FP6RIR70C3AZD9V29", "dateTime": 1519160394091}, {"current_trial": 53, "trialdata": {"rt": -1, "trial_type": "single-stim", "stimulus": "<p id=\"stim\">1</p>", "internal_node_id": "0.0-35.0-9.0", "time_elapsed": 381523, "key_press": -1, "trial_index": 53}, "uniqueid": "MTK2624:3V0Z7YWSIZ7R5FP6RIR70C3AZD9V29", "dateTime": 1519160395093}, {"current_trial": 54, "trialdata": {"rt": -1, "trial_type": "single-stim", "stimulus": "<p id=\"stim\">+</p>", "internal_node_id": "0.0-36.0-0.0", "time_elapsed": 383024, "key_press": -1, "type": "FIXATION", "trial_index": 54}, "uniqueid": "MTK2624:3V0Z7YWSIZ7R5FP6RIR70C3AZD9V29", "dateTime": 1519160396594}, {"current_trial": 55, "trialdata": {"rt": -1000, "trial_type": "single-audio", "word": "fruit", "stimulus": "/static/audio/wordpool/FRUIT.wav", "conditions": [18, 1200, "a", 18000], "internal_node_id": "0.0-37.0", "trial": 1, "time_elapsed": 385296, "serialpos": 0, "key_press": -1, "wordID": 609, "type": "PRES_AUD", "trial_index": 55}, "uniqueid": "MTK2624:3V0Z7YWSIZ7R5FP6RIR70C3AZD9V29", "dateTime": 1519160398865}, {"current_trial": 56, "trialdata": {"rt": -1000, "trial_type": "single-audio", "word": "atom", "stimulus": "/static/audio/wordpool/ATOM.wav", "conditions": [18, 1200, "a", 18000], "internal_node_id": "0.0-38.0", "trial": 1, "time_elapsed": 387697, "serialpos": 1, "key_press": -1, "wordID": 54, "type": "PRES_AUD", "trial_index": 56}, "uniqueid": "MTK2624:3V0Z7YWSIZ7R5FP6RIR70C3AZD9V29", "dateTime": 1519160401266}, {"current_trial": 57, "trialdata": {"rt": -1000, "trial_type": "single-audio", "word": "apron", "stimulus": "/static/audio/wordpool/APRON.wav", "conditions": [18, 1200, "a", 18000], "internal_node_id": "0.0-39.0", "trial": 1, "time_elapsed": 389946, "serialpos": 2, "key_press": -1, "wordID": 34, "type": "PRES_AUD", "trial_index": 57}, "uniqueid": "MTK2624:3V0Z7YWSIZ7R5FP6RIR70C3AZD9V29", "dateTime": 1519160403515}, {"current_trial": 58, "trialdata": {"rt": -1000, "trial_type": "single-audio", "word": "pliers", "stimulus": "/static/audio/wordpool/PLIERS.wav", "conditions": [18, 1200, "a", 18000], "internal_node_id": "0.0-40.0", "trial": 1, "time_elapsed": 392013, "serialpos": 3, "key_press": -1, "wordID": 1088, "type": "PRES_AUD", "trial_index": 58}, "uniqueid": "MTK2624:3V0Z7YWSIZ7R5FP6RIR70C3AZD9V29", "dateTime": 1519160405582}, {"current_trial": 59, "trialdata": {"rt": -1000, "trial_type": "single-audio", "word": "cottage", "stimulus": "/static/audio/wordpool/COTTAGE.wav", "conditions": [18, 1200, "a", 18000], "internal_node_id": "0.0-41.0", "trial": 1, "time_elapsed": 394358, "serialpos": 4, "key_press": -1, "wordID": 383, "type": "PRES_AUD", "trial_index": 59}, "uniqueid": "MTK2624:3V0Z7YWSIZ7R5FP6RIR70C3AZD9V29", "dateTime": 1519160407927}, {"current_trial": 60, "trialdata": {"rt": -1000, "trial_type": "single-audio", "word": "drug", "stimulus": "/static/audio/wordpool/DRUG.wav", "conditions": [18, 1200, "a", 18000], "internal_node_id": "0.0-42.0", "trial": 1, "time_elapsed": 396575, "serialpos": 5, "key_press": -1, "wordID": 500, "type": "PRES_AUD", "trial_index": 60}, "uniqueid": "MTK2624:3V0Z7YWSIZ7R5FP6RIR70C3AZD9V29", "dateTime": 1519160410144}, {"current_trial": 61, "trialdata": {"rt": -1000, "trial_type": "single-audio", "word": "rug", "stimulus": "/static/audio/wordpool/RUG.wav", "conditions": [18, 1200, "a", 18000], "internal_node_id": "0.0-43.0", "trial": 1, "time_elapsed": 398622, "serialpos": 6, "key_press": -1, "wordID": 1214, "type": "PRES_AUD", "trial_index": 61}, "uniqueid": "MTK2624:3V0Z7YWSIZ7R5FP6RIR70C3AZD9V29", "dateTime": 1519160412191}, {"current_trial": 62, "trialdata": {"rt": -1000, "trial_type": "single-audio", "word": "spider", "stimulus": "/static/audio/wordpool/SPIDER.wav", "conditions": [18, 1200, "a", 18000], "internal_node_id": "0.0-44.0", "trial": 1, "time_elapsed": 401006, "serialpos": 7, "key_press": -1, "wordID": 1350, "type": "PRES_AUD", "trial_index": 62}, "uniqueid": "MTK2624:3V0Z7YWSIZ7R5FP6RIR70C3AZD9V29", "dateTime": 1519160414575}, {"current_trial": 63, "trialdata": {"rt": -1000, "trial_type": "single-audio", "word": "spoon", "stimulus": "/static/audio/wordpool/SPOON.wav", "conditions": [18, 1200, "a", 18000], "internal_node_id": "0.0-45.0", "trial": 1, "time_elapsed": 403239, "serialpos": 8, "key_press": -1, "wordID": 1356, "type": "PRES_AUD", "trial_index": 63}, "uniqueid": "MTK2624:3V0Z7YWSIZ7R5FP6RIR70C3AZD9V29", "dateTime": 1519160416808}, {"current_trial": 64, "trialdata": {"rt": -1000, "trial_type": "single-audio", "word": "crab", "stimulus": "/static/audio/wordpool/CRAB.wav", "conditions": [18, 1200, "a", 18000], "internal_node_id": "0.0-46.0", "trial": 1, "time_elapsed": 405592, "serialpos": 9, "key_press": -1, "wordID": 396, "type": "PRES_AUD", "trial_index": 64}, "uniqueid": "MTK2624:3V0Z7YWSIZ7R5FP6RIR70C3AZD9V29", "dateTime": 1519160419161}, {"current_trial": 65, "trialdata": {"rt": -1000, "trial_type": "single-audio", "word": "climber", "stimulus": "/static/audio/wordpool/CLIMBER.wav", "conditions": [18, 1200, "a", 18000], "internal_node_id": "0.0-47.0", "trial": 1, "time_elapsed": 407716, "serialpos": 10, "key_press": -1, "wordID": 322, "type": "PRES_AUD", "trial_index": 65}, "uniqueid": "MTK2624:3V0Z7YWSIZ7R5FP6RIR70C3AZD9V29", "dateTime": 1519160421285}, {"current_trial": 66, "trialdata": {"rt": -1000, "trial_type": "single-audio", "word": "sphinx", "stimulus": "/static/audio/wordpool/SPHINX.wav", "conditions": [18, 1200, "a", 18000], "internal_node_id": "0.0-48.0", "trial": 1, "time_elapsed": 410039, "serialpos": 11, "key_press": -1, "wordID": 1348, "type": "PRES_AUD", "trial_index": 66}, "uniqueid": "MTK2624:3V0Z7YWSIZ7R5FP6RIR70C3AZD9V29", "dateTime": 1519160423608}, {"current_trial": 67, "trialdata": {"rt": -1000, "trial_type": "single-audio", "word": "beaker", "stimulus": "/static/audio/wordpool/BEAKER.wav", "conditions": [18, 1200, "a", 18000], "internal_node_id": "0.0-49.0", "trial": 1, "time_elapsed": 412441, "serialpos": 12, "key_press": -1, "wordID": 103, "type": "PRES_AUD", "trial_index": 67}, "uniqueid": "MTK2624:3V0Z7YWSIZ7R5FP6RIR70C3AZD9V29", "dateTime": 1519160426010}, {"current_trial": 68, "trialdata": {"rt": -1000, "trial_type": "single-audio", "word": "maple", "stimulus": "/static/audio/wordpool/MAPLE.wav", "conditions": [18, 1200, "a", 18000], "internal_node_id": "0.0-50.0", "trial": 1, "time_elapsed": 414579, "serialpos": 13, "key_press": -1, "wordID": 865, "type": "PRES_AUD", "trial_index": 68}, "uniqueid": "MTK2624:3V0Z7YWSIZ7R5FP6RIR70C3AZD9V29", "dateTime": 1519160428150}, {"current_trial": 69, "trialdata": {"rt": -1000, "trial_type": "single-audio", "word": "pilot", "stimulus": "/static/audio/wordpool/PILOT.wav", "conditions": [18, 1200, "a", 18000], "internal_node_id": "0.0-51.0", "trial": 1, "time_elapsed": 416871, "serialpos": 14, "key_press": -1, "wordID": 1069, "type": "PRES_AUD", "trial_index": 69}, "uniqueid": "MTK2624:3V0Z7YWSIZ7R5FP6RIR70C3AZD9V29", "dateTime": 1519160430440}, {"current_trial": 70, "trialdata": {"rt": -1000, "trial_type": "single-audio", "word": "female", "stimulus": "/static/audio/wordpool/FEMALE.wav", "conditions": [18, 1200, "a", 18000], "internal_node_id": "0.0-52.0", "trial": 1, "time_elapsed": 419133, "serialpos": 15, "key_press": -1, "wordID": 558, "type": "PRES_AUD", "trial_index": 70}, "uniqueid": "MTK2624:3V0Z7YWSIZ7R5FP6RIR70C3AZD9V29", "dateTime": 1519160432702}, {"current_trial": 71, "trialdata": {"rt": -1000, "trial_type": "single-audio", "word": "harp", "stimulus": "/static/audio/wordpool/HARP.wav", "conditions": [18, 1200, "a", 18000], "internal_node_id": "0.0-53.0", "trial": 1, "time_elapsed": 421256, "serialpos": 16, "key_press": -1, "wordID": 688, "type": "PRES_AUD", "trial_index": 71}, "uniqueid": "MTK2624:3V0Z7YWSIZ7R5FP6RIR70C3AZD9V29", "dateTime": 1519160434825}, {"current_trial": 72, "trialdata": {"rt": -1000, "trial_type": "single-audio", "word": "seagull", "stimulus": "/static/audio/wordpool/SEAGULL.wav", "conditions": [18, 1200, "a", 18000], "internal_node_id": "0.0-54.0", "trial": 1, "time_elapsed": 423457, "serialpos": 17, "key_press": -1, "wordID": 1260, "type": "PRES_AUD", "trial_index": 72}, "uniqueid": "MTK2624:3V0Z7YWSIZ7R5FP6RIR70C3AZD9V29", "dateTime": 1519160437026}, {"current_trial": 73, "trialdata": {"rt": -1, "trial_type": "single-stim", "stimulus": "", "internal_node_id": "0.0-55.0-0.0", "time_elapsed": 424781, "key_press": -1, "type": "PRE_RECALL_DELAY", "trial_index": 73}, "uniqueid": "MTK2624:3V0Z7YWSIZ7R5FP6RIR70C3AZD9V29", "dateTime": 1519160438350}, {"current_trial": 74, "trialdata": {"rt": -1000, "trial_type": "single-audio", "stimulus": "/static/audio/400Hz.wav", "internal_node_id": "0.0-56.0", "time_elapsed": 425284, "key_press": -1, "type": "PRE_RECALL_ALERT", "trial_index": 74}, "uniqueid": "MTK2624:3V0Z7YWSIZ7R5FP6RIR70C3AZD9V29", "dateTime": 1519160438853}, {"current_trial": 75, "trialdata": {"rt": [3920, 6200, 9875, 13245, 16529, 18544, 23637, 30857, 33978, 46097, 49998], "recwords": ["female", "harp", "seagull", "sphinx", "cottage", "atom", "pliers", "rug", "spider", "beaker", "root"], "key_times": [1370, 1792, 2093, 2403, 2755, 3058, 3920, 4451, 4717, 5174, 5468, 6200, 7007, 7243, 7605, 7911, 8365, 8748, 8894, 9875, 10518, 10820, 11195, 11585, 11875, 12286, 13245, 14115, 14407, 14830, 14984, 15228, 15522, 15905, 16529, 16973, 17574, 17789, 17999, 18544, 21565, 21779, 22021, 22347, 22593, 22968, 23637, 28621, 29039, 29499, 30857, 32021, 32331, 32658, 33020, 33263, 33528, 33978, 43795, 44149, 44409, 44825, 45126, 45410, 46097, 48688, 49140, 49329, 49539, 49998, 58813, 59213, 59538, 59792], "trial_type": "free-recall", "conditions": [18, 1200, "a", 18000], "internal_node_id": "0.0-57.0-0.0", "key_presses": [70, 69, 77, 65, 76, 69, 13, 72, 65, 82, 80, 13, 83, 69, 65, 71, 85, 76, 76, 13, 83, 80, 72, 73, 78, 88, 13, 67, 79, 84, 84, 65, 71, 69, 13, 65, 84, 79, 77, 13, 80, 76, 73, 69, 82, 83, 13, 82, 85, 71, 13, 83, 80, 73, 68, 69, 82, 13, 66, 69, 65, 75, 69, 82, 13, 82, 79, 79, 84, 13, 65, 80, 82, 79], "trial": 1, "time_elapsed": 485287, "type": "FREE_RECALL", "trial_index": 75}, "uniqueid": "MTK2624:3V0Z7YWSIZ7R5FP6RIR70C3AZD9V29", "dateTime": 1519160498859}, {"current_trial": 76, "trialdata": {"rt": 12928, "trial_type": "text", "internal_node_id": "0.0-58.0", "time_elapsed": 500219, "key_press": 32, "type": "INSTRUCTIONS", "trial_index": 76}, "uniqueid": "MTK2624:3V0Z7YWSIZ7R5FP6RIR70C3AZD9V29", "dateTime": 1519160513789}, {"current_trial": 77, "trialdata": {"rt": [2405, 4774, 6485, 8533, 11354], "trial_type": "math-distractor", "key_times": [1876, 2111, 2405, 4222, 4447, 4774, 5989, 6201, 6485, 7895, 8184, 8533, 10768, 11042, 11354], "responses": ["14", "15", "14", "18", "18"], "num2": [5, 8, 5, 9, 2, 4], "num3": [8, 1, 5, 8, 9, 8], "conditions": [12, 1600, "a", 12000], "internal_node_id": "0.0-59.0", "key_presses": [97, 100, 13, 97, 101, 13, 97, 100, 13, 97, 104, 13, 97, 104, 13], "trial": 2, "time_elapsed": 513223, "type": "DISTRACTOR", "trial_index": 77, "num1": [1, 6, 4, 1, 7, 3]}, "uniqueid": "MTK2624:3V0Z7YWSIZ7R5FP6RIR70C3AZD9V29", "dateTime": 1519160526792}, {"current_trial": 78, "trialdata": {"rt": -1, "trial_type": "single-stim", "stimulus": "<p id=\"stim\">10</p>", "internal_node_id": "0.0-60.0-0.0", "time_elapsed": 516225, "key_press": -1, "trial_index": 78}, "uniqueid": "MTK2624:3V0Z7YWSIZ7R5FP6RIR70C3AZD9V29", "dateTime": 1519160529794}, {"current_trial": 79, "trialdata": {"rt": -1, "trial_type": "single-stim", "stimulus": "<p id=\"stim\">9</p>", "internal_node_id": "0.0-60.0-1.0", "time_elapsed": 517226, "key_press": -1, "trial_index": 79}, "uniqueid": "MTK2624:3V0Z7YWSIZ7R5FP6RIR70C3AZD9V29", "dateTime": 1519160530795}, {"current_trial": 80, "trialdata": {"rt": -1, "trial_type": "single-stim", "stimulus": "<p id=\"stim\">8</p>", "internal_node_id": "0.0-60.0-2.0", "time_elapsed": 518228, "key_press": -1, "trial_index": 80}, "uniqueid": "MTK2624:3V0Z7YWSIZ7R5FP6RIR70C3AZD9V29", "dateTime": 1519160531797}, {"current_trial": 81, "trialdata": {"rt": -1, "trial_type": "single-stim", "stimulus": "<p id=\"stim\">7</p>", "internal_node_id": "0.0-60.0-3.0", "time_elapsed": 519229, "key_press": -1, "trial_index": 81}, "uniqueid": "MTK2624:3V0Z7YWSIZ7R5FP6RIR70C3AZD9V29", "dateTime": 1519160532798}, {"current_trial": 82, "trialdata": {"rt": -1, "trial_type": "single-stim", "stimulus": "<p id=\"stim\">6</p>", "internal_node_id": "0.0-60.0-4.0", "time_elapsed": 520231, "key_press": -1, "trial_index": 82}, "uniqueid": "MTK2624:3V0Z7YWSIZ7R5FP6RIR70C3AZD9V29", "dateTime": 1519160533800}, {"current_trial": 83, "trialdata": {"rt": -1, "trial_type": "single-stim", "stimulus": "<p id=\"stim\">5</p>", "internal_node_id": "0.0-60.0-5.0", "time_elapsed": 521232, "key_press": -1, "trial_index": 83}, "uniqueid": "MTK2624:3V0Z7YWSIZ7R5FP6RIR70C3AZD9V29", "dateTime": 1519160534801}, {"current_trial": 84, "trialdata": {"rt": -1, "trial_type": "single-stim", "stimulus": "<p id=\"stim\">4</p>", "internal_node_id": "0.0-60.0-6.0", "time_elapsed": 522233, "key_press": -1, "trial_index": 84}, "uniqueid": "MTK2624:3V0Z7YWSIZ7R5FP6RIR70C3AZD9V29", "dateTime": 1519160535802}, {"current_trial": 85, "trialdata": {"rt": -1, "trial_type": "single-stim", "stimulus": "<p id=\"stim\">3</p>", "internal_node_id": "0.0-60.0-7.0", "time_elapsed": 523235, "key_press": -1, "trial_index": 85}, "uniqueid": "MTK2624:3V0Z7YWSIZ7R5FP6RIR70C3AZD9V29", "dateTime": 1519160536805}, {"current_trial": 86, "trialdata": {"rt": -1, "trial_type": "single-stim", "stimulus": "<p id=\"stim\">2</p>", "internal_node_id": "0.0-60.0-8.0", "time_elapsed": 524237, "key_press": -1, "trial_index": 86}, "uniqueid": "MTK2624:3V0Z7YWSIZ7R5FP6RIR70C3AZD9V29", "dateTime": 1519160537806}, {"current_trial": 87, "trialdata": {"rt": -1, "trial_type": "single-stim", "stimulus": "<p id=\"stim\">1</p>", "internal_node_id": "0.0-60.0-9.0", "time_elapsed": 525237, "key_press": -1, "trial_index": 87}, "uniqueid": "MTK2624:3V0Z7YWSIZ7R5FP6RIR70C3AZD9V29", "dateTime": 1519160538807}, {"current_trial": 88, "trialdata": {"rt": -1, "trial_type": "single-stim", "stimulus": "<p id=\"stim\">+</p>", "internal_node_id": "0.0-61.0-0.0", "time_elapsed": 526738, "key_press": -1, "type": "FIXATION", "trial_index": 88}, "uniqueid": "MTK2624:3V0Z7YWSIZ7R5FP6RIR70C3AZD9V29", "dateTime": 1519160540308}, {"current_trial": 89, "trialdata": {"rt": -1000, "trial_type": "single-audio", "word": "grape", "stimulus": "/static/audio/wordpool/GRAPE.wav", "conditions": [12, 1600, "a", 12000], "internal_node_id": "0.0-62.0", "trial": 2, "time_elapsed": 529403, "serialpos": 0, "key_press": -1, "wordID": 653, "type": "PRES_AUD", "trial_index": 89}, "uniqueid": "MTK2624:3V0Z7YWSIZ7R5FP6RIR70C3AZD9V29", "dateTime": 1519160542972}, {"current_trial": 90, "trialdata": {"rt": -1000, "trial_type": "single-audio", "word": "church", "stimulus": "/static/audio/wordpool/CHURCH.wav", "conditions": [12, 1600, "a", 12000], "internal_node_id": "0.0-63.0", "trial": 2, "time_elapsed": 532151, "serialpos": 1, "key_press": -1, "wordID": 306, "type": "PRES_AUD", "trial_index": 90}, "uniqueid": "MTK2624:3V0Z7YWSIZ7R5FP6RIR70C3AZD9V29", "dateTime": 1519160545720}, {"current_trial": 91, "trialdata": {"rt": -1000, "trial_type": "single-audio", "word": "judge", "stimulus": "/static/audio/wordpool/JUDGE.wav", "conditions": [12, 1600, "a", 12000], "internal_node_id": "0.0-64.0", "trial": 2, "time_elapsed": 534660, "serialpos": 2, "key_press": -1, "wordID": 760, "type": "PRES_AUD", "trial_index": 91}, "uniqueid": "MTK2624:3V0Z7YWSIZ7R5FP6RIR70C3AZD9V29", "dateTime": 1519160548229}, {"current_trial": 92, "trialdata": {"rt": -1000, "trial_type": "single-audio", "word": "chest", "stimulus": "/static/audio/wordpool/CHEST.wav", "conditions": [12, 1600, "a", 12000], "internal_node_id": "0.0-65.0", "trial": 2, "time_elapsed": 537207, "serialpos": 3, "key_press": -1, "wordID": 294, "type": "PRES_AUD", "trial_index": 92}, "uniqueid": "MTK2624:3V0Z7YWSIZ7R5FP6RIR70C3AZD9V29", "dateTime": 1519160550776}, {"current_trial": 93, "trialdata": {"rt": -1000, "trial_type": "single-audio", "word": "contract", "stimulus": "/static/audio/wordpool/CONTRACT.wav", "conditions": [12, 1600, "a", 12000], "internal_node_id": "0.0-66.0", "trial": 2, "time_elapsed": 540000, "serialpos": 4, "key_press": -1, "wordID": 367, "type": "PRES_AUD", "trial_index": 93}, "uniqueid": "MTK2624:3V0Z7YWSIZ7R5FP6RIR70C3AZD9V29", "dateTime": 1519160553569}, {"current_trial": 94, "trialdata": {"rt": -1000, "trial_type": "single-audio", "word": "finger", "stimulus": "/static/audio/wordpool/FINGER.wav", "conditions": [12, 1600, "a", 12000], "internal_node_id": "0.0-67.0", "trial": 2, "time_elapsed": 542726, "serialpos": 5, "key_press": -1, "wordID": 566, "type": "PRES_AUD", "trial_index": 94}, "uniqueid": "MTK2624:3V0Z7YWSIZ7R5FP6RIR70C3AZD9V29", "dateTime": 1519160556295}, {"current_trial": 95, "trialdata": {"rt": -1000, "trial_type": "single-audio", "word": "wrist", "stimulus": "/static/audio/wordpool/WRIST.wav", "conditions": [12, 1600, "a", 12000], "internal_node_id": "0.0-68.0", "trial": 2, "time_elapsed": 545260, "serialpos": 6, "key_press": -1, "wordID": 1625, "type": "PRES_AUD", "trial_index": 95}, "uniqueid": "MTK2624:3V0Z7YWSIZ7R5FP6RIR70C3AZD9V29", "dateTime": 1519160558829}, {"current_trial": 96, "trialdata": {"rt": -1000, "trial_type": "single-audio", "word": "beaver", "stimulus": "/static/audio/wordpool/BEAVER.wav", "conditions": [12, 1600, "a", 12000], "internal_node_id": "0.0-69.0", "trial": 2, "time_elapsed": 547828, "serialpos": 7, "key_press": -1, "wordID": 108, "type": "PRES_AUD", "trial_index": 96}, "uniqueid": "MTK2624:3V0Z7YWSIZ7R5FP6RIR70C3AZD9V29", "dateTime": 1519160561397}, {"current_trial": 97, "trialdata": {"rt": -1000, "trial_type": "single-audio", "word": "marine", "stimulus": "/static/audio/wordpool/MARINE.wav", "conditions": [12, 1600, "a", 12000], "internal_node_id": "0.0-70.0", "trial": 2, "time_elapsed": 550537, "serialpos": 8, "key_press": -1, "wordID": 868, "type": "PRES_AUD", "trial_index": 97}, "uniqueid": "MTK2624:3V0Z7YWSIZ7R5FP6RIR70C3AZD9V29", "dateTime": 1519160564106}, {"current_trial": 98, "trialdata": {"rt": -1000, "trial_type": "single-audio", "word": "casket", "stimulus": "/static/audio/wordpool/CASKET.wav", "conditions": [12, 1600, "a", 12000], "internal_node_id": "0.0-71.0", "trial": 2, "time_elapsed": 553116, "serialpos": 9, "key_press": -1, "wordID": 254, "type": "PRES_AUD", "trial_index": 98}, "uniqueid": "MTK2624:3V0Z7YWSIZ7R5FP6RIR70C3AZD9V29", "dateTime": 1519160566685}, {"current_trial": 99, "trialdata": {"rt": -1000, "trial_type": "single-audio", "word": "barley", "stimulus": "/static/audio/wordpool/BARLEY.wav", "conditions": [12, 1600, "a", 12000], "internal_node_id": "0.0-72.0", "trial": 2, "time_elapsed": 555864, "serialpos": 10, "key_press": -1, "wordID": 87, "type": "PRES_AUD", "trial_index": 99}, "uniqueid": "MTK2624:3V0Z7YWSIZ7R5FP6RIR70C3AZD9V29", "dateTime": 1519160569433}, {"current_trial": 100, "trialdata": {"rt": -1000, "trial_type": "single-audio", "word": "elbow", "stimulus": "/static/audio/wordpool/ELBOW.wav", "conditions": [12, 1600, "a", 12000], "internal_node_id": "0.0-73.0", "trial": 2, "time_elapsed": 558396, "serialpos": 11, "key_press": -1, "wordID": 519, "type": "PRES_AUD", "trial_index": 100}, "uniqueid": "MTK2624:3V0Z7YWSIZ7R5FP6RIR70C3AZD9V29", "dateTime": 1519160571965}, {"current_trial": 101, "trialdata": {"rt": -1, "trial_type": "single-stim", "stimulus": "", "internal_node_id": "0.0-74.0-0.0", "time_elapsed": 559674, "key_press": -1, "type": "PRE_RECALL_DELAY", "trial_index": 101}, "uniqueid": "MTK2624:3V0Z7YWSIZ7R5FP6RIR70C3AZD9V29", "dateTime": 1519160573243}, {"current_trial": 102, "trialdata": {"rt": -1000, "trial_type": "single-audio", "stimulus": "/static/audio/400Hz.wav", "internal_node_id": "0.0-75.0", "time_elapsed": 560178, "key_press": -1, "type": "PRE_RECALL_ALERT", "trial_index": 102}, "uniqueid": "MTK2624:3V0Z7YWSIZ7R5FP6RIR70C3AZD9V29", "dateTime": 1519160573748}, {"current_trial": 103, "trialdata": {"rt": [5518, 7883, 10641, 15440, 19136, 28122, 32802, 36395], "recwords": ["elbow", "casket", "marine", "wrist", "finger", "judge", "church", "beaver"], "key_times": [2253, 2821, 3725, 4082, 4608, 5518, 5991, 6357, 6599, 6875, 7209, 7582, 7883, 8372, 8690, 9131, 9381, 9681, 9976, 10641, 13430, 13865, 14134, 14492, 14756, 15440, 16598, 16838, 17117, 17701, 18098, 18403, 19136, 25606, 25871, 26346, 26583, 26881, 28122, 30465, 30680, 31157, 31524, 31930, 32149, 32802, 33456, 34108, 34532, 34980, 35368, 35635, 36395], "trial_type": "free-recall", "conditions": [12, 1600, "a", 12000], "internal_node_id": "0.0-76.0-0.0", "key_presses": [69, 76, 66, 79, 87, 13, 67, 65, 83, 75, 69, 84, 13, 77, 65, 82, 73, 78, 69, 13, 87, 82, 73, 83, 84, 13, 70, 73, 78, 71, 69, 82, 13, 74, 85, 68, 71, 69, 13, 67, 72, 85, 82, 67, 72, 13, 66, 69, 65, 86, 69, 82, 13], "trial": 2, "time_elapsed": 620182, "type": "FREE_RECALL", "trial_index": 103}, "uniqueid": "MTK2624:3V0Z7YWSIZ7R5FP6RIR70C3AZD9V29", "dateTime": 1519160633754}, {"current_trial": 104, "trialdata": {"rt": 1566, "trial_type": "text", "internal_node_id": "0.0-77.0", "time_elapsed": 623752, "key_press": 32, "type": "INSTRUCTIONS", "trial_index": 104}, "uniqueid": "MTK2624:3V0Z7YWSIZ7R5FP6RIR70C3AZD9V29", "dateTime": 1519160637321}, {"current_trial": 105, "trialdata": {"rt": [3871, 6299, 8551, 10451], "trial_type": "math-distractor", "key_times": [3280, 3562, 3871, 5588, 5901, 6299, 8006, 8247, 8551, 9802, 10095, 10451, 11972], "responses": ["18", "13", "15", "16"], "num2": [6, 7, 8, 4, 4], "num3": [3, 5, 4, 6, 9], "conditions": [12, 800, "a", 12000], "internal_node_id": "0.0-78.0", "key_presses": [97, 104, 13, 97, 99, 13, 97, 101, 13, 97, 102, 13, 97], "trial": 3, "time_elapsed": 637755, "type": "DISTRACTOR", "trial_index": 105, "num1": [9, 1, 3, 6, 1]}, "uniqueid": "MTK2624:3V0Z7YWSIZ7R5FP6RIR70C3AZD9V29", "dateTime": 1519160651324}, {"current_trial": 106, "trialdata": {"rt": -1, "trial_type": "single-stim", "stimulus": "<p id=\"stim\">10</p>", "internal_node_id": "0.0-79.0-0.0", "time_elapsed": 640756, "key_press": -1, "trial_index": 106}, "uniqueid": "MTK2624:3V0Z7YWSIZ7R5FP6RIR70C3AZD9V29", "dateTime": 1519160654325}, {"current_trial": 107, "trialdata": {"rt": -1, "trial_type": "single-stim", "stimulus": "<p id=\"stim\">9</p>", "internal_node_id": "0.0-79.0-1.0", "time_elapsed": 641757, "key_press": -1, "trial_index": 107}, "uniqueid": "MTK2624:3V0Z7YWSIZ7R5FP6RIR70C3AZD9V29", "dateTime": 1519160655326}, {"current_trial": 108, "trialdata": {"rt": -1, "trial_type": "single-stim", "stimulus": "<p id=\"stim\">8</p>", "internal_node_id": "0.0-79.0-2.0", "time_elapsed": 642759, "key_press": -1, "trial_index": 108}, "uniqueid": "MTK2624:3V0Z7YWSIZ7R5FP6RIR70C3AZD9V29", "dateTime": 1519160656328}, {"current_trial": 109, "trialdata": {"rt": -1, "trial_type": "single-stim", "stimulus": "<p id=\"stim\">7</p>", "internal_node_id": "0.0-79.0-3.0", "time_elapsed": 643760, "key_press": -1, "trial_index": 109}, "uniqueid": "MTK2624:3V0Z7YWSIZ7R5FP6RIR70C3AZD9V29", "dateTime": 1519160657330}, {"current_trial": 110, "trialdata": {"rt": -1, "trial_type": "single-stim", "stimulus": "<p id=\"stim\">6</p>", "internal_node_id": "0.0-79.0-4.0", "time_elapsed": 644762, "key_press": -1, "trial_index": 110}, "uniqueid": "MTK2624:3V0Z7YWSIZ7R5FP6RIR70C3AZD9V29", "dateTime": 1519160658331}, {"current_trial": 111, "trialdata": {"rt": -1, "trial_type": "single-stim", "stimulus": "<p id=\"stim\">5</p>", "internal_node_id": "0.0-79.0-5.0", "time_elapsed": 645764, "key_press": -1, "trial_index": 111}, "uniqueid": "MTK2624:3V0Z7YWSIZ7R5FP6RIR70C3AZD9V29", "dateTime": 1519160659333}, {"current_trial": 112, "trialdata": {"rt": -1, "trial_type": "single-stim", "stimulus": "<p id=\"stim\">4</p>", "internal_node_id": "0.0-79.0-6.0", "time_elapsed": 646766, "key_press": -1, "trial_index": 112}, "uniqueid": "MTK2624:3V0Z7YWSIZ7R5FP6RIR70C3AZD9V29", "dateTime": 1519160660335}, {"current_trial": 113, "trialdata": {"rt": -1, "trial_type": "single-stim", "stimulus": "<p id=\"stim\">3</p>", "internal_node_id": "0.0-79.0-7.0", "time_elapsed": 647767, "key_press": -1, "trial_index": 113}, "uniqueid": "MTK2624:3V0Z7YWSIZ7R5FP6RIR70C3AZD9V29", "dateTime": 1519160661337}, {"current_trial": 114, "trialdata": {"rt": -1, "trial_type": "single-stim", "stimulus": "<p id=\"stim\">2</p>", "internal_node_id": "0.0-79.0-8.0", "time_elapsed": 648769, "key_press": -1, "trial_index": 114}, "uniqueid": "MTK2624:3V0Z7YWSIZ7R5FP6RIR70C3AZD9V29", "dateTime": 1519160662339}, {"current_trial": 115, "trialdata": {"rt": -1, "trial_type": "single-stim", "stimulus": "<p id=\"stim\">1</p>", "internal_node_id": "0.0-79.0-9.0", "time_elapsed": 649771, "key_press": -1, "trial_index": 115}, "uniqueid": "MTK2624:3V0Z7YWSIZ7R5FP6RIR70C3AZD9V29", "dateTime": 1519160663340}, {"current_trial": 116, "trialdata": {"rt": -1, "trial_type": "single-stim", "stimulus": "<p id=\"stim\">+</p>", "internal_node_id": "0.0-80.0-0.0", "time_elapsed": 651271, "key_press": -1, "type": "FIXATION", "trial_index": 116}, "uniqueid": "MTK2624:3V0Z7YWSIZ7R5FP6RIR70C3AZD9V29", "dateTime": 1519160664840}, {"current_trial": 117, "trialdata": {"rt": -1000, "trial_type": "single-audio", "word": "table", "stimulus": "/static/audio/wordpool/TABLE.wav", "conditions": [12, 800, "a", 12000], "internal_node_id": "0.0-81.0", "trial": 3, "time_elapsed": 653132, "serialpos": 0, "key_press": -1, "wordID": 1425, "type": "PRES_AUD", "trial_index": 117}, "uniqueid": "MTK2624:3V0Z7YWSIZ7R5FP6RIR70C3AZD9V29", "dateTime": 1519160666701}, {"current_trial": 118, "trialdata": {"rt": -1000, "trial_type": "single-audio", "word": "sandwich", "stimulus": "/static/audio/wordpool/SANDWICH.wav", "conditions": [12, 800, "a", 12000], "internal_node_id": "0.0-82.0", "trial": 3, "time_elapsed": 654856, "serialpos": 1, "key_press": -1, "wordID": 1231, "type": "PRES_AUD", "trial_index": 118}, "uniqueid": "MTK2624:3V0Z7YWSIZ7R5FP6RIR70C3AZD9V29", "dateTime": 1519160668425}, {"current_trial": 119, "trialdata": {"rt": -1000, "trial_type": "single-audio", "word": "coin", "stimulus": "/static/audio/wordpool/COIN.wav", "conditions": [12, 800, "a", 12000], "internal_node_id": "0.0-83.0", "trial": 3, "time_elapsed": 656518, "serialpos": 2, "key_press": -1, "wordID": 342, "type": "PRES_AUD", "trial_index": 119}, "uniqueid": "MTK2624:3V0Z7YWSIZ7R5FP6RIR70C3AZD9V29", "dateTime": 1519160670087}, {"current_trial": 120, "trialdata": {"rt": -1000, "trial_type": "single-audio", "word": "crib", "stimulus": "/static/audio/wordpool/CRIB.wav", "conditions": [12, 800, "a", 12000], "internal_node_id": "0.0-84.0", "trial": 3, "time_elapsed": 658439, "serialpos": 3, "key_press": -1, "wordID": 406, "type": "PRES_AUD", "trial_index": 120}, "uniqueid": "MTK2624:3V0Z7YWSIZ7R5FP6RIR70C3AZD9V29", "dateTime": 1519160672008}, {"current_trial": 121, "trialdata": {"rt": -1000, "trial_type": "single-audio", "word": "nightgown", "stimulus": "/static/audio/wordpool/NIGHTGOWN.wav", "conditions": [12, 800, "a", 12000], "internal_node_id": "0.0-85.0", "trial": 3, "time_elapsed": 660362, "serialpos": 4, "key_press": -1, "wordID": 952, "type": "PRES_AUD", "trial_index": 121}, "uniqueid": "MTK2624:3V0Z7YWSIZ7R5FP6RIR70C3AZD9V29", "dateTime": 1519160673931}, {"current_trial": 122, "trialdata": {"rt": -1000, "trial_type": "single-audio", "word": "scarf", "stimulus": "/static/audio/wordpool/SCARF.wav", "conditions": [12, 800, "a", 12000], "internal_node_id": "0.0-86.0", "trial": 3, "time_elapsed": 662364, "serialpos": 5, "key_press": -1, "wordID": 1245, "type": "PRES_AUD", "trial_index": 122}, "uniqueid": "MTK2624:3V0Z7YWSIZ7R5FP6RIR70C3AZD9V29", "dateTime": 1519160675933}, {"current_trial": 123, "trialdata": {"rt": -1000, "trial_type": "single-audio", "word": "shirt", "stimulus": "/static/audio/wordpool/SHIRT.wav", "conditions": [12, 800, "a", 12000], "internal_node_id": "0.0-87.0", "trial": 3, "time_elapsed": 664331, "serialpos": 6, "key_press": -1, "wordID": 1286, "type": "PRES_AUD", "trial_index": 123}, "uniqueid": "MTK2624:3V0Z7YWSIZ7R5FP6RIR70C3AZD9V29", "dateTime": 1519160677900}, {"current_trial": 124, "trialdata": {"rt": -1000, "trial_type": "single-audio", "word": "zebra", "stimulus": "/static/audio/wordpool/ZEBRA.wav", "conditions": [12, 800, "a", 12000], "internal_node_id": "0.0-88.0", "trial": 3, "time_elapsed": 666111, "serialpos": 7, "key_press": -1, "wordID": 1634, "type": "PRES_AUD", "trial_index": 124}, "uniqueid": "MTK2624:3V0Z7YWSIZ7R5FP6RIR70C3AZD9V29", "dateTime": 1519160679680}, {"current_trial": 125, "trialdata": {"rt": -1000, "trial_type": "single-audio", "word": "trench", "stimulus": "/static/audio/wordpool/TRENCH.wav", "conditions": [12, 800, "a", 12000], "internal_node_id": "0.0-89.0", "trial": 3, "time_elapsed": 667839, "serialpos": 8, "key_press": -1, "wordID": 1502, "type": "PRES_AUD", "trial_index": 125}, "uniqueid": "MTK2624:3V0Z7YWSIZ7R5FP6RIR70C3AZD9V29", "dateTime": 1519160681408}, {"current_trial": 126, "trialdata": {"rt": -1000, "trial_type": "single-audio", "word": "cocoon", "stimulus": "/static/audio/wordpool/COCOON.wav", "conditions": [12, 800, "a", 12000], "internal_node_id": "0.0-90.0", "trial": 3, "time_elapsed": 669686, "serialpos": 9, "key_press": -1, "wordID": 338, "type": "PRES_AUD", "trial_index": 126}, "uniqueid": "MTK2624:3V0Z7YWSIZ7R5FP6RIR70C3AZD9V29", "dateTime": 1519160683255}, {"current_trial": 127, "trialdata": {"rt": -1000, "trial_type": "single-audio", "word": "outdoors", "stimulus": "/static/audio/wordpool/OUTDOORS.wav", "conditions": [12, 800, "a", 12000], "internal_node_id": "0.0-91.0", "trial": 3, "time_elapsed": 671424, "serialpos": 10, "key_press": -1, "wordID": 986, "type": "PRES_AUD", "trial_index": 127}, "uniqueid": "MTK2624:3V0Z7YWSIZ7R5FP6RIR70C3AZD9V29", "dateTime": 1519160684993}, {"current_trial": 128, "trialdata": {"rt": -1000, "trial_type": "single-audio", "word": "sausage", "stimulus": "/static/audio/wordpool/SAUSAGE.wav", "conditions": [12, 800, "a", 12000], "internal_node_id": "0.0-92.0", "trial": 3, "time_elapsed": 673122, "serialpos": 11, "key_press": -1, "wordID": 1237, "type": "PRES_AUD", "trial_index": 128}, "uniqueid": "MTK2624:3V0Z7YWSIZ7R5FP6RIR70C3AZD9V29", "dateTime": 1519160686691}, {"current_trial": 129, "trialdata": {"rt": -1, "trial_type": "single-stim", "stimulus": "", "internal_node_id": "0.0-93.0-0.0", "time_elapsed": 674347, "key_press": -1, "type": "PRE_RECALL_DELAY", "trial_index": 129}, "uniqueid": "MTK2624:3V0Z7YWSIZ7R5FP6RIR70C3AZD9V29", "dateTime": 1519160687917}, {"current_trial": 130, "trialdata": {"rt": -1000, "trial_type": "single-audio", "stimulus": "/static/audio/400Hz.wav", "internal_node_id": "0.0-94.0", "time_elapsed": 674848, "key_press": -1, "type": "PRE_RECALL_ALERT", "trial_index": 130}, "uniqueid": "MTK2624:3V0Z7YWSIZ7R5FP6RIR70C3AZD9V29", "dateTime": 1519160688418}, {"current_trial": 131, "trialdata": {"rt": [4225, 8151, 10652, 13312, 23062, 25975, 34268, 50743], "recwords": ["sausage", "outdoors", "trench", "zebra", "nightgown", "scarf", "shirt", "crib"], "key_times": [1125, 1365, 2022, 2765, 3058, 3402, 3649, 4225, 5051, 5335, 5679, 6209, 6491, 6864, 7168, 7556, 8151, 8686, 8912, 9179, 9429, 9722, 9977, 10652, 11131, 11569, 12126, 12513, 12803, 13312, 19331, 19771, 20435, 20621, 20851, 21507, 21796, 22211, 22464, 23062, 23516, 23816, 24174, 24626, 25386, 25975, 31692, 31918, 32372, 32810, 33369, 34268, 48181, 49089, 49510, 49952, 50743], "trial_type": "free-recall", "conditions": [12, 800, "a", 12000], "internal_node_id": "0.0-95.0-0.0", "key_presses": [83, 65, 85, 83, 65, 71, 69, 13, 79, 85, 84, 68, 79, 79, 82, 83, 13, 84, 82, 69, 78, 67, 72, 13, 90, 69, 66, 82, 65, 13, 78, 73, 71, 72, 84, 71, 79, 87, 78, 13, 83, 67, 65, 82, 70, 13, 83, 72, 73, 82, 84, 13, 67, 82, 73, 66, 13], "trial": 3, "time_elapsed": 734851, "type": "FREE_RECALL", "trial_index": 131}, "uniqueid": "MTK2624:3V0Z7YWSIZ7R5FP6RIR70C3AZD9V29", "dateTime": 1519160748423}, {"current_trial": 132, "trialdata": {"rt": 1596, "trial_type": "text", "internal_node_id": "0.0-96.0", "time_elapsed": 738451, "key_press": 32, "type": "INSTRUCTIONS", "trial_index": 132}, "uniqueid": "MTK2624:3V0Z7YWSIZ7R5FP6RIR70C3AZD9V29", "dateTime": 1519160752020}, {"current_trial": 133, "trialdata": {"rt": [2824, 5395, 7454, 13265, 16221, 18382, 22348], "trial_type": "math-distractor", "key_times": [1977, 2334, 2824, 4759, 5000, 5395, 6927, 7454, 11812, 12632, 13265, 15654, 15864, 16221, 17959, 18382, 21765, 22024, 22348, 23629], "responses": ["13", "23", "9", "22", "12", "6", "16"], "num2": [2, 9, 1, 7, 1, 1, 9, 6], "num3": [9, 5, 1, 9, 8, 2, 3, 1], "conditions": [24, 1600, "a", 24000], "internal_node_id": "0.0-97.0", "key_presses": [97, 99, 13, 98, 99, 13, 105, 13, 98, 98, 13, 97, 98, 13, 102, 13, 97, 102, 13, 104], "trial": 4, "time_elapsed": 764465, "type": "DISTRACTOR", "trial_index": 133, "num1": [2, 9, 7, 6, 3, 3, 4, 1]}, "uniqueid": "MTK2624:3V0Z7YWSIZ7R5FP6RIR70C3AZD9V29", "dateTime": 1519160778034}, {"current_trial": 134, "trialdata": {"rt": -1, "trial_type": "single-stim", "stimulus": "<p id=\"stim\">10</p>", "internal_node_id": "0.0-98.0-0.0", "time_elapsed": 767466, "key_press": -1, "trial_index": 134}, "uniqueid": "MTK2624:3V0Z7YWSIZ7R5FP6RIR70C3AZD9V29", "dateTime": 1519160781035}, {"current_trial": 135, "trialdata": {"rt": -1, "trial_type": "single-stim", "stimulus": "<p id=\"stim\">9</p>", "internal_node_id": "0.0-98.0-1.0", "time_elapsed": 768468, "key_press": -1, "trial_index": 135}, "uniqueid": "MTK2624:3V0Z7YWSIZ7R5FP6RIR70C3AZD9V29", "dateTime": 1519160782037}, {"current_trial": 136, "trialdata": {"rt": -1, "trial_type": "single-stim", "stimulus": "<p id=\"stim\">8</p>", "internal_node_id": "0.0-98.0-2.0", "time_elapsed": 769470, "key_press": -1, "trial_index": 136}, "uniqueid": "MTK2624:3V0Z7YWSIZ7R5FP6RIR70C3AZD9V29", "dateTime": 1519160783039}, {"current_trial": 137, "trialdata": {"rt": -1, "trial_type": "single-stim", "stimulus": "<p id=\"stim\">7</p>", "internal_node_id": "0.0-98.0-3.0", "time_elapsed": 770471, "key_press": -1, "trial_index": 137}, "uniqueid": "MTK2624:3V0Z7YWSIZ7R5FP6RIR70C3AZD9V29", "dateTime": 1519160784040}, {"current_trial": 138, "trialdata": {"rt": -1, "trial_type": "single-stim", "stimulus": "<p id=\"stim\">6</p>", "internal_node_id": "0.0-98.0-4.0", "time_elapsed": 771472, "key_press": -1, "trial_index": 138}, "uniqueid": "MTK2624:3V0Z7YWSIZ7R5FP6RIR70C3AZD9V29", "dateTime": 1519160785041}, {"current_trial": 139, "trialdata": {"rt": -1, "trial_type": "single-stim", "stimulus": "<p id=\"stim\">5</p>", "internal_node_id": "0.0-98.0-5.0", "time_elapsed": 772475, "key_press": -1, "trial_index": 139}, "uniqueid": "MTK2624:3V0Z7YWSIZ7R5FP6RIR70C3AZD9V29", "dateTime": 1519160786044}, {"current_trial": 140, "trialdata": {"rt": -1, "trial_type": "single-stim", "stimulus": "<p id=\"stim\">4</p>", "internal_node_id": "0.0-98.0-6.0", "time_elapsed": 773477, "key_press": -1, "trial_index": 140}, "uniqueid": "MTK2624:3V0Z7YWSIZ7R5FP6RIR70C3AZD9V29", "dateTime": 1519160787046}, {"current_trial": 141, "trialdata": {"rt": -1, "trial_type": "single-stim", "stimulus": "<p id=\"stim\">3</p>", "internal_node_id": "0.0-98.0-7.0", "time_elapsed": 774478, "key_press": -1, "trial_index": 141}, "uniqueid": "MTK2624:3V0Z7YWSIZ7R5FP6RIR70C3AZD9V29", "dateTime": 1519160788047}, {"current_trial": 142, "trialdata": {"rt": -1, "trial_type": "single-stim", "stimulus": "<p id=\"stim\">2</p>", "internal_node_id": "0.0-98.0-8.0", "time_elapsed": 775480, "key_press": -1, "trial_index": 142}, "uniqueid": "MTK2624:3V0Z7YWSIZ7R5FP6RIR70C3AZD9V29", "dateTime": 1519160789050}, {"current_trial": 143, "trialdata": {"rt": -1, "trial_type": "single-stim", "stimulus": "<p id=\"stim\">1</p>", "internal_node_id": "0.0-98.0-9.0", "time_elapsed": 776482, "key_press": -1, "trial_index": 143}, "uniqueid": "MTK2624:3V0Z7YWSIZ7R5FP6RIR70C3AZD9V29", "dateTime": 1519160790051}, {"current_trial": 144, "trialdata": {"rt": -1, "trial_type": "single-stim", "stimulus": "<p id=\"stim\">+</p>", "internal_node_id": "0.0-99.0-0.0", "time_elapsed": 777983, "key_press": -1, "type": "FIXATION", "trial_index": 144}, "uniqueid": "MTK2624:3V0Z7YWSIZ7R5FP6RIR70C3AZD9V29", "dateTime": 1519160791552}, {"current_trial": 145, "trialdata": {"rt": -1000, "trial_type": "single-audio", "word": "sheriff", "stimulus": "/static/audio/wordpool/SHERIFF.wav", "conditions": [24, 1600, "a", 24000], "internal_node_id": "0.0-100.0", "trial": 4, "time_elapsed": 780728, "serialpos": 0, "key_press": -1, "wordID": 1283, "type": "PRES_AUD", "trial_index": 145}, "uniqueid": "MTK2624:3V0Z7YWSIZ7R5FP6RIR70C3AZD9V29", "dateTime": 1519160794297}, {"current_trial": 146, "trialdata": {"rt": -1000, "trial_type": "single-audio", "word": "mister", "stimulus": "/static/audio/wordpool/MISTER.wav", "conditions": [24, 1600, "a", 24000], "internal_node_id": "0.0-101.0", "trial": 4, "time_elapsed": 783237, "serialpos": 1, "key_press": -1, "wordID": 900, "type": "PRES_AUD", "trial_index": 146}, "uniqueid": "MTK2624:3V0Z7YWSIZ7R5FP6RIR70C3AZD9V29", "dateTime": 1519160796806}, {"current_trial": 147, "trialdata": {"rt": -1000, "trial_type": "single-audio", "word": "jury", "stimulus": "/static/audio/wordpool/JURY.wav", "conditions": [24, 1600, "a", 24000], "internal_node_id": "0.0-102.0", "trial": 4, "time_elapsed": 786036, "serialpos": 2, "key_press": -1, "wordID": 765, "type": "PRES_AUD", "trial_index": 147}, "uniqueid": "MTK2624:3V0Z7YWSIZ7R5FP6RIR70C3AZD9V29", "dateTime": 1519160799605}, {"current_trial": 148, "trialdata": {"rt": -1000, "trial_type": "single-audio", "word": "doughnut", "stimulus": "/static/audio/wordpool/DOUGHNUT.wav", "conditions": [24, 1600, "a", 24000], "internal_node_id": "0.0-103.0", "trial": 4, "time_elapsed": 788838, "serialpos": 3, "key_press": -1, "wordID": 489, "type": "PRES_AUD", "trial_index": 148}, "uniqueid": "MTK2624:3V0Z7YWSIZ7R5FP6RIR70C3AZD9V29", "dateTime": 1519160802407}, {"current_trial": 149, "trialdata": {"rt": -1000, "trial_type": "single-audio", "word": "county", "stimulus": "/static/audio/wordpool/COUNTY.wav", "conditions": [24, 1600, "a", 24000], "internal_node_id": "0.0-104.0", "trial": 4, "time_elapsed": 791539, "serialpos": 4, "key_press": -1, "wordID": 388, "type": "PRES_AUD", "trial_index": 149}, "uniqueid": "MTK2624:3V0Z7YWSIZ7R5FP6RIR70C3AZD9V29", "dateTime": 1519160805108}, {"current_trial": 150, "trialdata": {"rt": -1000, "trial_type": "single-audio", "word": "turkey", "stimulus": "/static/audio/wordpool/TURKEY.wav", "conditions": [24, 1600, "a", 24000], "internal_node_id": "0.0-105.0", "trial": 4, "time_elapsed": 794095, "serialpos": 5, "key_press": -1, "wordID": 1519, "type": "PRES_AUD", "trial_index": 150}, "uniqueid": "MTK2624:3V0Z7YWSIZ7R5FP6RIR70C3AZD9V29", "dateTime": 1519160807664}, {"current_trial": 151, "trialdata": {"rt": -1000, "trial_type": "single-audio", "word": "quail", "stimulus": "/static/audio/wordpool/QUAIL.wav", "conditions": [24, 1600, "a", 24000], "internal_node_id": "0.0-106.0", "trial": 4, "time_elapsed": 796669, "serialpos": 6, "key_press": -1, "wordID": 1146, "type": "PRES_AUD", "trial_index": 151}, "uniqueid": "MTK2624:3V0Z7YWSIZ7R5FP6RIR70C3AZD9V29", "dateTime": 1519160810238}, {"current_trial": 152, "trialdata": {"rt": -1000, "trial_type": "single-audio", "word": "bike", "stimulus": "/static/audio/wordpool/BIKE.wav", "conditions": [24, 1600, "a", 24000], "internal_node_id": "0.0-107.0", "trial": 4, "time_elapsed": 799358, "serialpos": 7, "key_press": -1, "wordID": 124, "type": "PRES_AUD", "trial_index": 152}, "uniqueid": "MTK2624:3V0Z7YWSIZ7R5FP6RIR70C3AZD9V29", "dateTime": 1519160812927}, {"current_trial": 153, "trialdata": {"rt": -1000, "trial_type": "single-audio", "word": "comet", "stimulus": "/static/audio/wordpool/COMET.wav", "conditions": [24, 1600, "a", 24000], "internal_node_id": "0.0-108.0", "trial": 4, "time_elapsed": 801775, "serialpos": 8, "key_press": -1, "wordID": 352, "type": "PRES_AUD", "trial_index": 153}, "uniqueid": "MTK2624:3V0Z7YWSIZ7R5FP6RIR70C3AZD9V29", "dateTime": 1519160815344}, {"current_trial": 154, "trialdata": {"rt": -1000, "trial_type": "single-audio", "word": "shoulder", "stimulus": "/static/audio/wordpool/SHOULDER.wav", "conditions": [24, 1600, "a", 24000], "internal_node_id": "0.0-109.0", "trial": 4, "time_elapsed": 804220, "serialpos": 9, "key_press": -1, "wordID": 1293, "type": "PRES_AUD", "trial_index": 154}, "uniqueid": "MTK2624:3V0Z7YWSIZ7R5FP6RIR70C3AZD9V29", "dateTime": 1519160817789}, {"current_trial": 155, "trialdata": {"rt": -1000, "trial_type": "single-audio", "word": "mask", "stimulus": "/static/audio/wordpool/MASK.wav", "conditions": [24, 1600, "a", 24000], "internal_node_id": "0.0-110.0", "trial": 4, "time_elapsed": 806852, "serialpos": 10, "key_press": -1, "wordID": 875, "type": "PRES_AUD", "trial_index": 155}, "uniqueid": "MTK2624:3V0Z7YWSIZ7R5FP6RIR70C3AZD9V29", "dateTime": 1519160820421}, {"current_trial": 156, "trialdata": {"rt": -1000, "trial_type": "single-audio", "word": "space", "stimulus": "/static/audio/wordpool/SPACE.wav", "conditions": [24, 1600, "a", 24000], "internal_node_id": "0.0-111.0", "trial": 4, "time_elapsed": 809359, "serialpos": 11, "key_press": -1, "wordID": 1344, "type": "PRES_AUD", "trial_index": 156}, "uniqueid": "MTK2624:3V0Z7YWSIZ7R5FP6RIR70C3AZD9V29", "dateTime": 1519160822928}, {"current_trial": 157, "trialdata": {"rt": -1000, "trial_type": "single-audio", "word": "apple", "stimulus": "/static/audio/wordpool/APPLE.wav", "conditions": [24, 1600, "a", 24000], "internal_node_id": "0.0-112.0", "trial": 4, "time_elapsed": 811921, "serialpos": 12, "key_press": -1, "wordID": 32, "type": "PRES_AUD", "trial_index": 157}, "uniqueid": "MTK2624:3V0Z7YWSIZ7R5FP6RIR70C3AZD9V29", "dateTime": 1519160825491}, {"current_trial": 158, "trialdata": {"rt": -1000, "trial_type": "single-audio", "word": "nurse", "stimulus": "/static/audio/wordpool/NURSE.wav", "conditions": [24, 1600, "a", 24000], "internal_node_id": "0.0-113.0", "trial": 4, "time_elapsed": 814712, "serialpos": 13, "key_press": -1, "wordID": 962, "type": "PRES_AUD", "trial_index": 158}, "uniqueid": "MTK2624:3V0Z7YWSIZ7R5FP6RIR70C3AZD9V29", "dateTime": 1519160828281}, {"current_trial": 159, "trialdata": {"rt": -1000, "trial_type": "single-audio", "word": "princess", "stimulus": "/static/audio/wordpool/PRINCESS.wav", "conditions": [24, 1600, "a", 24000], "internal_node_id": "0.0-114.0", "trial": 4, "time_elapsed": 817327, "serialpos": 14, "key_press": -1, "wordID": 1124, "type": "PRES_AUD", "trial_index": 159}, "uniqueid": "MTK2624:3V0Z7YWSIZ7R5FP6RIR70C3AZD9V29", "dateTime": 1519160830896}, {"current_trial": 160, "trialdata": {"rt": -1000, "trial_type": "single-audio", "word": "jello", "stimulus": "/static/audio/wordpool/JELLO.wav", "conditions": [24, 1600, "a", 24000], "internal_node_id": "0.0-115.0", "trial": 4, "time_elapsed": 819786, "serialpos": 15, "key_press": -1, "wordID": 753, "type": "PRES_AUD", "trial_index": 160}, "uniqueid": "MTK2624:3V0Z7YWSIZ7R5FP6RIR70C3AZD9V29", "dateTime": 1519160833355}, {"current_trial": 161, "trialdata": {"rt": -1000, "trial_type": "single-audio", "word": "cousin", "stimulus": "/static/audio/wordpool/COUSIN.wav", "conditions": [24, 1600, "a", 24000], "internal_node_id": "0.0-116.0", "trial": 4, "time_elapsed": 822465, "serialpos": 16, "key_press": -1, "wordID": 391, "type": "PRES_AUD", "trial_index": 161}, "uniqueid": "MTK2624:3V0Z7YWSIZ7R5FP6RIR70C3AZD9V29", "dateTime": 1519160836034}, {"current_trial": 162, "trialdata": {"rt": -1000, "trial_type": "single-audio", "word": "sketch", "stimulus": "/static/audio/wordpool/SKETCH.wav", "conditions": [24, 1600, "a", 24000], "internal_node_id": "0.0-117.0", "trial": 4, "time_elapsed": 824927, "serialpos": 17, "key_press": -1, "wordID": 1314, "type": "PRES_AUD", "trial_index": 162}, "uniqueid": "MTK2624:3V0Z7YWSIZ7R5FP6RIR70C3AZD9V29", "dateTime": 1519160838496}, {"current_trial": 163, "trialdata": {"rt": -1000, "trial_type": "single-audio", "word": "europe", "stimulus": "/static/audio/wordpool/EUROPE.wav", "conditions": [24, 1600, "a", 24000], "internal_node_id": "0.0-118.0", "trial": 4, "time_elapsed": 827497, "serialpos": 18, "key_press": -1, "wordID": 540, "type": "PRES_AUD", "trial_index": 163}, "uniqueid": "MTK2624:3V0Z7YWSIZ7R5FP6RIR70C3AZD9V29", "dateTime": 1519160841066}, {"current_trial": 164, "trialdata": {"rt": -1000, "trial_type": "single-audio", "word": "office", "stimulus": "/static/audio/wordpool/OFFICE.wav", "conditions": [24, 1600, "a", 24000], "internal_node_id": "0.0-119.0", "trial": 4, "time_elapsed": 830266, "serialpos": 19, "key_press": -1, "wordID": 971, "type": "PRES_AUD", "trial_index": 164}, "uniqueid": "MTK2624:3V0Z7YWSIZ7R5FP6RIR70C3AZD9V29", "dateTime": 1519160843835}, {"current_trial": 165, "trialdata": {"rt": -1000, "trial_type": "single-audio", "word": "boyfriend", "stimulus": "/static/audio/wordpool/BOYFRIEND.wav", "conditions": [24, 1600, "a", 24000], "internal_node_id": "0.0-120.0", "trial": 4, "time_elapsed": 832973, "serialpos": 20, "key_press": -1, "wordID": 161, "type": "PRES_AUD", "trial_index": 165}, "uniqueid": "MTK2624:3V0Z7YWSIZ7R5FP6RIR70C3AZD9V29", "dateTime": 1519160846542}, {"current_trial": 166, "trialdata": {"rt": -1000, "trial_type": "single-audio", "word": "pluto", "stimulus": "/static/audio/wordpool/PLUTO.wav", "conditions": [24, 1600, "a", 24000], "internal_node_id": "0.0-121.0", "trial": 4, "time_elapsed": 835726, "serialpos": 21, "key_press": -1, "wordID": 1091, "type": "PRES_AUD", "trial_index": 166}, "uniqueid": "MTK2624:3V0Z7YWSIZ7R5FP6RIR70C3AZD9V29", "dateTime": 1519160849296}, {"current_trial": 167, "trialdata": {"rt": -1000, "trial_type": "single-audio", "word": "mattress", "stimulus": "/static/audio/wordpool/MATTRESS.wav", "conditions": [24, 1600, "a", 24000], "internal_node_id": "0.0-122.0", "trial": 4, "time_elapsed": 838248, "serialpos": 22, "key_press": -1, "wordID": 878, "type": "PRES_AUD", "trial_index": 167}, "uniqueid": "MTK2624:3V0Z7YWSIZ7R5FP6RIR70C3AZD9V29", "dateTime": 1519160851817}, {"current_trial": 168, "trialdata": {"rt": -1000, "trial_type": "single-audio", "word": "couch", "stimulus": "/static/audio/wordpool/COUCH.wav", "conditions": [24, 1600, "a", 24000], "internal_node_id": "0.0-123.0", "trial": 4, "time_elapsed": 840928, "serialpos": 23, "key_press": -1, "wordID": 385, "type": "PRES_AUD", "trial_index": 168}, "uniqueid": "MTK2624:3V0Z7YWSIZ7R5FP6RIR70C3AZD9V29", "dateTime": 1519160854497}, {"current_trial": 169, "trialdata": {"rt": -1, "trial_type": "single-stim", "stimulus": "", "internal_node_id": "0.0-124.0-0.0", "time_elapsed": 842142, "key_press": -1, "type": "PRE_RECALL_DELAY", "trial_index": 169}, "uniqueid": "MTK2624:3V0Z7YWSIZ7R5FP6RIR70C3AZD9V29", "dateTime": 1519160855711}, {"current_trial": 170, "trialdata": {"rt": -1000, "trial_type": "single-audio", "stimulus": "/static/audio/400Hz.wav", "internal_node_id": "0.0-125.0", "time_elapsed": 842652, "key_press": -1, "type": "PRE_RECALL_ALERT", "trial_index": 170}, "uniqueid": "MTK2624:3V0Z7YWSIZ7R5FP6RIR70C3AZD9V29", "dateTime": 1519160856221}, {"current_trial": 171, "trialdata": {"rt": [2821, 5864, 10585, 12697, 21872, 24054, 26352, 33698, 37579, 39498, 44177, 52771], "recwords": ["couch", "matress", "boyfriend", "comet", "europe", "nurse", "jello", "apple", "quail", "bike", "donut", "mister"], "key_times": [840, 1179, 1506, 1954, 2166, 2821, 3348, 3682, 4044, 4266, 4512, 4816, 5041, 5864, 7252, 7602, 8063, 8494, 8773, 9060, 9305, 9559, 9946, 10585, 11073, 11295, 11553, 11784, 12049, 12697, 19783, 20140, 20558, 20875, 21110, 21501, 21872, 22457, 22823, 23136, 23493, 23807, 24054, 24562, 24856, 25117, 25286, 25487, 26352, 32140, 32475, 32635, 32994, 33306, 33698, 35183, 35917, 36643, 36838, 37069, 37579, 38334, 38588, 38822, 39065, 39498, 42107, 42387, 42746, 43131, 43512, 44177, 50590, 50933, 51335, 51597, 51824, 52015, 52771], "trial_type": "free-recall", "conditions": [24, 1600, "a", 24000], "internal_node_id": "0.0-126.0-0.0", "key_presses": [67, 79, 85, 67, 72, 13, 77, 65, 84, 82, 69, 83, 83, 13, 66, 79, 89, 70, 82, 73, 69, 78, 68, 13, 67, 79, 77, 69, 84, 13, 69, 85, 82, 79, 80, 69, 13, 78, 85, 82, 83, 69, 13, 74, 69, 76, 76, 79, 13, 65, 80, 80, 76, 69, 13, 81, 85, 65, 73, 76, 13, 66, 73, 75, 69, 13, 68, 79, 78, 85, 84, 13, 77, 73, 83, 84, 69, 82, 13], "trial": 4, "time_elapsed": 902654, "type": "FREE_RECALL", "trial_index": 171}, "uniqueid": "MTK2624:3V0Z7YWSIZ7R5FP6RIR70C3AZD9V29", "dateTime": 1519160916227}, {"current_trial": 172, "trialdata": {"rt": 26645, "trial_type": "text", "internal_node_id": "0.0-127.0", "time_elapsed": 931304, "key_press": 32, "type": "INSTRUCTIONS", "trial_index": 172}, "uniqueid": "MTK2624:3V0Z7YWSIZ7R5FP6RIR70C3AZD9V29", "dateTime": 1519160944873}, {"current_trial": 173, "trialdata": {"rt": [2673, 5471, 7307, 10740, 13066, 17338, 19080, 21073, 23291], "trial_type": "math-distractor", "key_times": [2207, 2408, 2673, 4916, 5168, 5471, 6798, 6994, 7307, 10106, 10382, 10740, 12537, 12754, 13066, 16789, 17036, 17338, 18646, 18851, 19080, 20650, 20816, 21073, 22833, 23291], "responses": ["14", "18", "12", "16", "15", "18", "14", "11", "9"], "num2": [6, 3, 4, 8, 5, 3, 6, 1, 3, 3], "num3": [7, 6, 4, 5, 4, 9, 4, 8, 4, 7], "conditions": [12, 800, "a", 24000], "internal_node_id": "0.0-128.0", "key_presses": [97, 100, 13, 97, 104, 13, 97, 98, 13, 97, 102, 13, 97, 101, 13, 97, 104, 13, 97, 100, 13, 97, 97, 13, 105, 13], "trial": 5, "time_elapsed": 957307, "type": "DISTRACTOR", "trial_index": 173, "num1": [1, 9, 4, 3, 6, 6, 4, 2, 2, 1]}, "uniqueid": "MTK2624:3V0Z7YWSIZ7R5FP6RIR70C3AZD9V29", "dateTime": 1519160970876}, {"current_trial": 174, "trialdata": {"rt": -1, "trial_type": "single-stim", "stimulus": "<p id=\"stim\">10</p>", "internal_node_id": "0.0-129.0-0.0", "time_elapsed": 960309, "key_press": -1, "trial_index": 174}, "uniqueid": "MTK2624:3V0Z7YWSIZ7R5FP6RIR70C3AZD9V29", "dateTime": 1519160973879}, {"current_trial": 175, "trialdata": {"rt": -1, "trial_type": "single-stim", "stimulus": "<p id=\"stim\">9</p>", "internal_node_id": "0.0-129.0-1.0", "time_elapsed": 961311, "key_press": -1, "trial_index": 175}, "uniqueid": "MTK2624:3V0Z7YWSIZ7R5FP6RIR70C3AZD9V29", "dateTime": 1519160974881}, {"current_trial": 176, "trialdata": {"rt": -1, "trial_type": "single-stim", "stimulus": "<p id=\"stim\">8</p>", "internal_node_id": "0.0-129.0-2.0", "time_elapsed": 962312, "key_press": -1, "trial_index": 176}, "uniqueid": "MTK2624:3V0Z7YWSIZ7R5FP6RIR70C3AZD9V29", "dateTime": 1519160975881}, {"current_trial": 177, "trialdata": {"rt": -1, "trial_type": "single-stim", "stimulus": "<p id=\"stim\">7</p>", "internal_node_id": "0.0-129.0-3.0", "time_elapsed": 963313, "key_press": -1, "trial_index": 177}, "uniqueid": "MTK2624:3V0Z7YWSIZ7R5FP6RIR70C3AZD9V29", "dateTime": 1519160976882}, {"current_trial": 178, "trialdata": {"rt": -1, "trial_type": "single-stim", "stimulus": "<p id=\"stim\">6</p>", "internal_node_id": "0.0-129.0-4.0", "time_elapsed": 964315, "key_press": -1, "trial_index": 178}, "uniqueid": "MTK2624:3V0Z7YWSIZ7R5FP6RIR70C3AZD9V29", "dateTime": 1519160977884}, {"current_trial": 179, "trialdata": {"rt": -1, "trial_type": "single-stim", "stimulus": "<p id=\"stim\">5</p>", "internal_node_id": "0.0-129.0-5.0", "time_elapsed": 965316, "key_press": -1, "trial_index": 179}, "uniqueid": "MTK2624:3V0Z7YWSIZ7R5FP6RIR70C3AZD9V29", "dateTime": 1519160978886}, {"current_trial": 180, "trialdata": {"rt": -1, "trial_type": "single-stim", "stimulus": "<p id=\"stim\">4</p>", "internal_node_id": "0.0-129.0-6.0", "time_elapsed": 966318, "key_press": -1, "trial_index": 180}, "uniqueid": "MTK2624:3V0Z7YWSIZ7R5FP6RIR70C3AZD9V29", "dateTime": 1519160979888}, {"current_trial": 181, "trialdata": {"rt": -1, "trial_type": "single-stim", "stimulus": "<p id=\"stim\">3</p>", "internal_node_id": "0.0-129.0-7.0", "time_elapsed": 967320, "key_press": -1, "trial_index": 181}, "uniqueid": "MTK2624:3V0Z7YWSIZ7R5FP6RIR70C3AZD9V29", "dateTime": 1519160980889}, {"current_trial": 182, "trialdata": {"rt": -1, "trial_type": "single-stim", "stimulus": "<p id=\"stim\">2</p>", "internal_node_id": "0.0-129.0-8.0", "time_elapsed": 968322, "key_press": -1, "trial_index": 182}, "uniqueid": "MTK2624:3V0Z7YWSIZ7R5FP6RIR70C3AZD9V29", "dateTime": 1519160981892}, {"current_trial": 183, "trialdata": {"rt": -1, "trial_type": "single-stim", "stimulus": "<p id=\"stim\">1</p>", "internal_node_id": "0.0-129.0-9.0", "time_elapsed": 969324, "key_press": -1, "trial_index": 183}, "uniqueid": "MTK2624:3V0Z7YWSIZ7R5FP6RIR70C3AZD9V29", "dateTime": 1519160982894}, {"current_trial": 184, "trialdata": {"rt": -1, "trial_type": "single-stim", "stimulus": "<p id=\"stim\">+</p>", "internal_node_id": "0.0-130.0-0.0", "time_elapsed": 970825, "key_press": -1, "type": "FIXATION", "trial_index": 184}, "uniqueid": "MTK2624:3V0Z7YWSIZ7R5FP6RIR70C3AZD9V29", "dateTime": 1519160984394}, {"current_trial": 185, "trialdata": {"rt": -1000, "trial_type": "single-audio", "word": "lizard", "stimulus": "/static/audio/wordpool/LIZARD.wav", "conditions": [12, 800, "a", 24000], "internal_node_id": "0.0-131.0", "trial": 5, "time_elapsed": 972682, "serialpos": 0, "key_press": -1, "wordID": 833, "type": "PRES_AUD", "trial_index": 185}, "uniqueid": "MTK2624:3V0Z7YWSIZ7R5FP6RIR70C3AZD9V29", "dateTime": 1519160986251}, {"current_trial": 186, "trialdata": {"rt": -1000, "trial_type": "single-audio", "word": "leader", "stimulus": "/static/audio/wordpool/LEADER.wav", "conditions": [12, 800, "a", 24000], "internal_node_id": "0.0-132.0", "trial": 5, "time_elapsed": 974429, "serialpos": 1, "key_press": -1, "wordID": 806, "type": "PRES_AUD", "trial_index": 186}, "uniqueid": "MTK2624:3V0Z7YWSIZ7R5FP6RIR70C3AZD9V29", "dateTime": 1519160987998}, {"current_trial": 187, "trialdata": {"rt": -1000, "trial_type": "single-audio", "word": "queen", "stimulus": "/static/audio/wordpool/QUEEN.wav", "conditions": [12, 800, "a", 24000], "internal_node_id": "0.0-133.0", "trial": 5, "time_elapsed": 976117, "serialpos": 2, "key_press": -1, "wordID": 1148, "type": "PRES_AUD", "trial_index": 187}, "uniqueid": "MTK2624:3V0Z7YWSIZ7R5FP6RIR70C3AZD9V29", "dateTime": 1519160989686}, {"current_trial": 188, "trialdata": {"rt": -1000, "trial_type": "single-audio", "word": "venus", "stimulus": "/static/audio/wordpool/VENUS.wav", "conditions": [12, 800, "a", 24000], "internal_node_id": "0.0-134.0", "trial": 5, "time_elapsed": 978093, "serialpos": 3, "key_press": -1, "wordID": 1556, "type": "PRES_AUD", "trial_index": 188}, "uniqueid": "MTK2624:3V0Z7YWSIZ7R5FP6RIR70C3AZD9V29", "dateTime": 1519160991662}, {"current_trial": 189, "trialdata": {"rt": -1000, "trial_type": "single-audio", "word": "patrol", "stimulus": "/static/audio/wordpool/PATROL.wav", "conditions": [12, 800, "a", 24000], "internal_node_id": "0.0-135.0", "trial": 5, "time_elapsed": 979875, "serialpos": 4, "key_press": -1, "wordID": 1026, "type": "PRES_AUD", "trial_index": 189}, "uniqueid": "MTK2624:3V0Z7YWSIZ7R5FP6RIR70C3AZD9V29", "dateTime": 1519160993444}, {"current_trial": 190, "trialdata": {"rt": -1000, "trial_type": "single-audio", "word": "survey", "stimulus": "/static/audio/wordpool/SURVEY.wav", "conditions": [12, 800, "a", 24000], "internal_node_id": "0.0-136.0", "trial": 5, "time_elapsed": 981629, "serialpos": 5, "key_press": -1, "wordID": 1413, "type": "PRES_AUD", "trial_index": 190}, "uniqueid": "MTK2624:3V0Z7YWSIZ7R5FP6RIR70C3AZD9V29", "dateTime": 1519160995198}, {"current_trial": 191, "trialdata": {"rt": -1000, "trial_type": "single-audio", "word": "report", "stimulus": "/static/audio/wordpool/REPORT.wav", "conditions": [12, 800, "a", 24000], "internal_node_id": "0.0-137.0", "trial": 5, "time_elapsed": 983489, "serialpos": 6, "key_press": -1, "wordID": 1183, "type": "PRES_AUD", "trial_index": 191}, "uniqueid": "MTK2624:3V0Z7YWSIZ7R5FP6RIR70C3AZD9V29", "dateTime": 1519160997058}, {"current_trial": 192, "trialdata": {"rt": -1000, "trial_type": "single-audio", "word": "taxi", "stimulus": "/static/audio/wordpool/TAXI.wav", "conditions": [12, 800, "a", 24000], "internal_node_id": "0.0-138.0", "trial": 5, "time_elapsed": 985259, "serialpos": 7, "key_press": -1, "wordID": 1437, "type": "PRES_AUD", "trial_index": 192}, "uniqueid": "MTK2624:3V0Z7YWSIZ7R5FP6RIR70C3AZD9V29", "dateTime": 1519160998828}, {"current_trial": 193, "trialdata": {"rt": -1000, "trial_type": "single-audio", "word": "rod", "stimulus": "/static/audio/wordpool/ROD.wav", "conditions": [12, 800, "a", 24000], "internal_node_id": "0.0-139.0", "trial": 5, "time_elapsed": 987228, "serialpos": 8, "key_press": -1, "wordID": 1202, "type": "PRES_AUD", "trial_index": 193}, "uniqueid": "MTK2624:3V0Z7YWSIZ7R5FP6RIR70C3AZD9V29", "dateTime": 1519161000797}, {"current_trial": 194, "trialdata": {"rt": -1000, "trial_type": "single-audio", "word": "egypt", "stimulus": "/static/audio/wordpool/EGYPT.wav", "conditions": [12, 800, "a", 24000], "internal_node_id": "0.0-140.0", "trial": 5, "time_elapsed": 989061, "serialpos": 9, "key_press": -1, "wordID": 518, "type": "PRES_AUD", "trial_index": 194}, "uniqueid": "MTK2624:3V0Z7YWSIZ7R5FP6RIR70C3AZD9V29", "dateTime": 1519161002631}, {"current_trial": 195, "trialdata": {"rt": -1000, "trial_type": "single-audio", "word": "daughter", "stimulus": "/static/audio/wordpool/DAUGHTER.wav", "conditions": [12, 800, "a", 24000], "internal_node_id": "0.0-141.0", "trial": 5, "time_elapsed": 990858, "serialpos": 10, "key_press": -1, "wordID": 441, "type": "PRES_AUD", "trial_index": 195}, "uniqueid": "MTK2624:3V0Z7YWSIZ7R5FP6RIR70C3AZD9V29", "dateTime": 1519161004427}, {"current_trial": 196, "trialdata": {"rt": -1000, "trial_type": "single-audio", "word": "tortoise", "stimulus": "/static/audio/wordpool/TORTOISE.wav", "conditions": [12, 800, "a", 24000], "internal_node_id": "0.0-142.0", "trial": 5, "time_elapsed": 992735, "serialpos": 11, "key_press": -1, "wordID": 1485, "type": "PRES_AUD", "trial_index": 196}, "uniqueid": "MTK2624:3V0Z7YWSIZ7R5FP6RIR70C3AZD9V29", "dateTime": 1519161006304}, {"current_trial": 197, "trialdata": {"rt": -1, "trial_type": "single-stim", "stimulus": "", "internal_node_id": "0.0-143.0-0.0", "time_elapsed": 994043, "key_press": -1, "type": "PRE_RECALL_DELAY", "trial_index": 197}, "uniqueid": "MTK2624:3V0Z7YWSIZ7R5FP6RIR70C3AZD9V29", "dateTime": 1519161007612}, {"current_trial": 198, "trialdata": {"rt": -1000, "trial_type": "single-audio", "stimulus": "/static/audio/400Hz.wav", "internal_node_id": "0.0-144.0", "time_elapsed": 994549, "key_press": -1, "type": "PRE_RECALL_ALERT", "trial_index": 198}, "uniqueid": "MTK2624:3V0Z7YWSIZ7R5FP6RIR70C3AZD9V29", "dateTime": 1519161008118}, {"current_trial": 199, "trialdata": {"rt": [4431, 7587, 11201, 13505, 15282, 21322, 31812, 34476], "recwords": ["tortoise", "daughter", "egypt", "taxi", "rod", "daughter", "venus", "queen"], "key_times": [1781, 2142, 2502, 2763, 3090, 3315, 3640, 3926, 4431, 5167, 5566, 5868, 6165, 6326, 6574, 6748, 6972, 7587, 8364, 9412, 9947, 10500, 10918, 11201, 11769, 12062, 12526, 12916, 13505, 13977, 14274, 14669, 15282, 18858, 19219, 19615, 19959, 20126, 20364, 20570, 20764, 21322, 29789, 30238, 30514, 30989, 31463, 31812, 32624, 33002, 33337, 33525, 33757, 34476], "trial_type": "free-recall", "conditions": [12, 800, "a", 24000], "internal_node_id": "0.0-145.0-0.0", "key_presses": [84, 79, 82, 84, 79, 73, 83, 69, 13, 68, 65, 85, 71, 72, 84, 69, 82, 13, 69, 71, 89, 80, 84, 13, 84, 65, 88, 73, 13, 82, 79, 68, 13, 68, 65, 85, 71, 72, 84, 69, 82, 13, 86, 69, 78, 85, 83, 13, 81, 85, 69, 69, 78, 13], "trial": 5, "time_elapsed": 1054551, "type": "FREE_RECALL", "trial_index": 199}, "uniqueid": "MTK2624:3V0Z7YWSIZ7R5FP6RIR70C3AZD9V29", "dateTime": 1519161068124}, {"current_trial": 200, "trialdata": {"rt": 1268, "trial_type": "text", "internal_node_id": "0.0-146.0", "time_elapsed": 1057825, "key_press": 16, "type": "INSTRUCTIONS", "trial_index": 200}, "uniqueid": "MTK2624:3V0Z7YWSIZ7R5FP6RIR70C3AZD9V29", "dateTime": 1519161071394}, {"current_trial": 201, "trialdata": {"rt": [1856, 3775, 6269, 7916, 10851, 12520, 15800, 17743, 20341, 23337], "trial_type": "math-distractor", "key_times": [1321, 1558, 1856, 3378, 3775, 5192, 5873, 6269, 7510, 7916, 10357, 10549, 10851, 11970, 12520, 15309, 15524, 15800, 17112, 17381, 17743, 19681, 19964, 20341, 22838, 23063, 23337], "responses": ["15", "8", "15", "9", "12", "9", "14", "16", "16", "15"], "num2": [2, 3, 2, 3, 3, 4, 3, 7, 9, 4, 5], "num3": [5, 1, 6, 2, 1, 1, 2, 6, 2, 9, 7], "conditions": [24, 800, "a", 24000], "internal_node_id": "0.0-147.0", "key_presses": [97, 101, 13, 104, 13, 97, 101, 13, 105, 13, 97, 98, 13, 105, 13, 97, 100, 13, 97, 102, 13, 97, 102, 13, 97, 101, 13], "trial": 6, "time_elapsed": 1083829, "type": "DISTRACTOR", "trial_index": 201, "num1": [8, 4, 7, 4, 8, 4, 9, 3, 5, 2, 1]}, "uniqueid": "MTK2624:3V0Z7YWSIZ7R5FP6RIR70C3AZD9V29", "dateTime": 1519161097398}, {"current_trial": 202, "trialdata": {"rt": -1, "trial_type": "single-stim", "stimulus": "<p id=\"stim\">10</p>", "internal_node_id": "0.0-148.0-0.0", "time_elapsed": 1086830, "key_press": -1, "trial_index": 202}, "uniqueid": "MTK2624:3V0Z7YWSIZ7R5FP6RIR70C3AZD9V29", "dateTime": 1519161100400}, {"current_trial": 203, "trialdata": {"rt": -1, "trial_type": "single-stim", "stimulus": "<p id=\"stim\">9</p>", "internal_node_id": "0.0-148.0-1.0", "time_elapsed": 1087833, "key_press": -1, "trial_index": 203}, "uniqueid": "MTK2624:3V0Z7YWSIZ7R5FP6RIR70C3AZD9V29", "dateTime": 1519161101402}, {"current_trial": 204, "trialdata": {"rt": -1, "trial_type": "single-stim", "stimulus": "<p id=\"stim\">8</p>", "internal_node_id": "0.0-148.0-2.0", "time_elapsed": 1088833, "key_press": -1, "trial_index": 204}, "uniqueid": "MTK2624:3V0Z7YWSIZ7R5FP6RIR70C3AZD9V29", "dateTime": 1519161102403}, {"current_trial": 205, "trialdata": {"rt": -1, "trial_type": "single-stim", "stimulus": "<p id=\"stim\">7</p>", "internal_node_id": "0.0-148.0-3.0", "time_elapsed": 1089834, "key_press": -1, "trial_index": 205}, "uniqueid": "MTK2624:3V0Z7YWSIZ7R5FP6RIR70C3AZD9V29", "dateTime": 1519161103404}, {"current_trial": 206, "trialdata": {"rt": -1, "trial_type": "single-stim", "stimulus": "<p id=\"stim\">6</p>", "internal_node_id": "0.0-148.0-4.0", "time_elapsed": 1090836, "key_press": -1, "trial_index": 206}, "uniqueid": "MTK2624:3V0Z7YWSIZ7R5FP6RIR70C3AZD9V29", "dateTime": 1519161104405}, {"current_trial": 207, "trialdata": {"rt": -1, "trial_type": "single-stim", "stimulus": "<p id=\"stim\">5</p>", "internal_node_id": "0.0-148.0-5.0", "time_elapsed": 1091837, "key_press": -1, "trial_index": 207}, "uniqueid": "MTK2624:3V0Z7YWSIZ7R5FP6RIR70C3AZD9V29", "dateTime": 1519161105407}, {"current_trial": 208, "trialdata": {"rt": -1, "trial_type": "single-stim", "stimulus": "<p id=\"stim\">4</p>", "internal_node_id": "0.0-148.0-6.0", "time_elapsed": 1092839, "key_press": -1, "trial_index": 208}, "uniqueid": "MTK2624:3V0Z7YWSIZ7R5FP6RIR70C3AZD9V29", "dateTime": 1519161106409}, {"current_trial": 209, "trialdata": {"rt": -1, "trial_type": "single-stim", "stimulus": "<p id=\"stim\">3</p>", "internal_node_id": "0.0-148.0-7.0", "time_elapsed": 1093841, "key_press": -1, "trial_index": 209}, "uniqueid": "MTK2624:3V0Z7YWSIZ7R5FP6RIR70C3AZD9V29", "dateTime": 1519161107410}, {"current_trial": 210, "trialdata": {"rt": -1, "trial_type": "single-stim", "stimulus": "<p id=\"stim\">2</p>", "internal_node_id": "0.0-148.0-8.0", "time_elapsed": 1094843, "key_press": -1, "trial_index": 210}, "uniqueid": "MTK2624:3V0Z7YWSIZ7R5FP6RIR70C3AZD9V29", "dateTime": 1519161108412}, {"current_trial": 211, "trialdata": {"rt": -1, "trial_type": "single-stim", "stimulus": "<p id=\"stim\">1</p>", "internal_node_id": "0.0-148.0-9.0", "time_elapsed": 1095843, "key_press": -1, "trial_index": 211}, "uniqueid": "MTK2624:3V0Z7YWSIZ7R5FP6RIR70C3AZD9V29", "dateTime": 1519161109412}, {"current_trial": 212, "trialdata": {"rt": -1, "trial_type": "single-stim", "stimulus": "<p id=\"stim\">+</p>", "internal_node_id": "0.0-149.0-0.0", "time_elapsed": 1097344, "key_press": -1, "type": "FIXATION", "trial_index": 212}, "uniqueid": "MTK2624:3V0Z7YWSIZ7R5FP6RIR70C3AZD9V29", "dateTime": 1519161110913}, {"current_trial": 213, "trialdata": {"rt": -1000, "trial_type": "single-audio", "word": "waitress", "stimulus": "/static/audio/wordpool/WAITRESS.wav", "conditions": [24, 800, "a", 24000], "internal_node_id": "0.0-150.0", "trial": 6, "time_elapsed": 1099041, "serialpos": 0, "key_press": -1, "wordID": 1580, "type": "PRES_AUD", "trial_index": 213}, "uniqueid": "MTK2624:3V0Z7YWSIZ7R5FP6RIR70C3AZD9V29", "dateTime": 1519161112610}, {"current_trial": 214, "trialdata": {"rt": -1000, "trial_type": "single-audio", "word": "transplant", "stimulus": "/static/audio/wordpool/TRANSPLANT.wav", "conditions": [24, 800, "a", 24000], "internal_node_id": "0.0-151.0", "trial": 6, "time_elapsed": 1100656, "serialpos": 1, "key_press": -1, "wordID": 1495, "type": "PRES_AUD", "trial_index": 214}, "uniqueid": "MTK2624:3V0Z7YWSIZ7R5FP6RIR70C3AZD9V29", "dateTime": 1519161114225}, {"current_trial": 215, "trialdata": {"rt": -1000, "trial_type": "single-audio", "word": "kidney", "stimulus": "/static/audio/wordpool/KIDNEY.wav", "conditions": [24, 800, "a", 24000], "internal_node_id": "0.0-152.0", "trial": 6, "time_elapsed": 1102364, "serialpos": 2, "key_press": -1, "wordID": 775, "type": "PRES_AUD", "trial_index": 215}, "uniqueid": "MTK2624:3V0Z7YWSIZ7R5FP6RIR70C3AZD9V29", "dateTime": 1519161115933}, {"current_trial": 216, "trialdata": {"rt": -1000, "trial_type": "single-audio", "word": "dime", "stimulus": "/static/audio/wordpool/DIME.wav", "conditions": [24, 800, "a", 24000], "internal_node_id": "0.0-153.0", "trial": 6, "time_elapsed": 1104131, "serialpos": 3, "key_press": -1, "wordID": 465, "type": "PRES_AUD", "trial_index": 216}, "uniqueid": "MTK2624:3V0Z7YWSIZ7R5FP6RIR70C3AZD9V29", "dateTime": 1519161117700}, {"current_trial": 217, "trialdata": {"rt": -1000, "trial_type": "single-audio", "word": "spouse", "stimulus": "/static/audio/wordpool/SPOUSE.wav", "conditions": [24, 800, "a", 24000], "internal_node_id": "0.0-154.0", "trial": 6, "time_elapsed": 1105855, "serialpos": 4, "key_press": -1, "wordID": 1357, "type": "PRES_AUD", "trial_index": 217}, "uniqueid": "MTK2624:3V0Z7YWSIZ7R5FP6RIR70C3AZD9V29", "dateTime": 1519161119424}, {"current_trial": 218, "trialdata": {"rt": -1000, "trial_type": "single-audio", "word": "paper", "stimulus": "/static/audio/wordpool/PAPER.wav", "conditions": [24, 800, "a", 24000], "internal_node_id": "0.0-155.0", "trial": 6, "time_elapsed": 1107838, "serialpos": 5, "key_press": -1, "wordID": 1010, "type": "PRES_AUD", "trial_index": 218}, "uniqueid": "MTK2624:3V0Z7YWSIZ7R5FP6RIR70C3AZD9V29", "dateTime": 1519161121407}, {"current_trial": 219, "trialdata": {"rt": -1000, "trial_type": "single-audio", "word": "crevice", "stimulus": "/static/audio/wordpool/CREVICE.wav", "conditions": [24, 800, "a", 24000], "internal_node_id": "0.0-156.0", "trial": 6, "time_elapsed": 1109747, "serialpos": 6, "key_press": -1, "wordID": 404, "type": "PRES_AUD", "trial_index": 219}, "uniqueid": "MTK2624:3V0Z7YWSIZ7R5FP6RIR70C3AZD9V29", "dateTime": 1519161123316}, {"current_trial": 220, "trialdata": {"rt": -1000, "trial_type": "single-audio", "word": "sparrow", "stimulus": "/static/audio/wordpool/SPARROW.wav", "conditions": [24, 800, "a", 24000], "internal_node_id": "0.0-157.0", "trial": 6, "time_elapsed": 1111623, "serialpos": 7, "key_press": -1, "wordID": 1346, "type": "PRES_AUD", "trial_index": 220}, "uniqueid": "MTK2624:3V0Z7YWSIZ7R5FP6RIR70C3AZD9V29", "dateTime": 1519161125192}, {"current_trial": 221, "trialdata": {"rt": -1000, "trial_type": "single-audio", "word": "hostess", "stimulus": "/static/audio/wordpool/HOSTESS.wav", "conditions": [24, 800, "a", 24000], "internal_node_id": "0.0-158.0", "trial": 6, "time_elapsed": 1113565, "serialpos": 8, "key_press": -1, "wordID": 722, "type": "PRES_AUD", "trial_index": 221}, "uniqueid": "MTK2624:3V0Z7YWSIZ7R5FP6RIR70C3AZD9V29", "dateTime": 1519161127134}, {"current_trial": 222, "trialdata": {"rt": -1000, "trial_type": "single-audio", "word": "tombstone", "stimulus": "/static/audio/wordpool/TOMBSTONE.wav", "conditions": [24, 800, "a", 24000], "internal_node_id": "0.0-159.0", "trial": 6, "time_elapsed": 1115540, "serialpos": 9, "key_press": -1, "wordID": 1477, "type": "PRES_AUD", "trial_index": 222}, "uniqueid": "MTK2624:3V0Z7YWSIZ7R5FP6RIR70C3AZD9V29", "dateTime": 1519161129109}, {"current_trial": 223, "trialdata": {"rt": -1000, "trial_type": "single-audio", "word": "cupboard", "stimulus": "/static/audio/wordpool/CUPBOARD.wav", "conditions": [24, 800, "a", 24000], "internal_node_id": "0.0-160.0", "trial": 6, "time_elapsed": 1117161, "serialpos": 10, "key_press": -1, "wordID": 424, "type": "PRES_AUD", "trial_index": 223}, "uniqueid": "MTK2624:3V0Z7YWSIZ7R5FP6RIR70C3AZD9V29", "dateTime": 1519161130730}, {"current_trial": 224, "trialdata": {"rt": -1000, "trial_type": "single-audio", "word": "blade", "stimulus": "/static/audio/wordpool/BLADE.wav", "conditions": [24, 800, "a", 24000], "internal_node_id": "0.0-161.0", "trial": 6, "time_elapsed": 1119162, "serialpos": 11, "key_press": -1, "wordID": 133, "type": "PRES_AUD", "trial_index": 224}, "uniqueid": "MTK2624:3V0Z7YWSIZ7R5FP6RIR70C3AZD9V29", "dateTime": 1519161132731}, {"current_trial": 225, "trialdata": {"rt": -1000, "trial_type": "single-audio", "word": "patient", "stimulus": "/static/audio/wordpool/PATIENT.wav", "conditions": [24, 800, "a", 24000], "internal_node_id": "0.0-162.0", "trial": 6, "time_elapsed": 1121083, "serialpos": 12, "key_press": -1, "wordID": 1023, "type": "PRES_AUD", "trial_index": 225}, "uniqueid": "MTK2624:3V0Z7YWSIZ7R5FP6RIR70C3AZD9V29", "dateTime": 1519161134652}, {"current_trial": 226, "trialdata": {"rt": -1000, "trial_type": "single-audio", "word": "marrow", "stimulus": "/static/audio/wordpool/MARROW.wav", "conditions": [24, 800, "a", 24000], "internal_node_id": "0.0-163.0", "trial": 6, "time_elapsed": 1122814, "serialpos": 13, "key_press": -1, "wordID": 871, "type": "PRES_AUD", "trial_index": 226}, "uniqueid": "MTK2624:3V0Z7YWSIZ7R5FP6RIR70C3AZD9V29", "dateTime": 1519161136383}, {"current_trial": 227, "trialdata": {"rt": -1000, "trial_type": "single-audio", "word": "poet", "stimulus": "/static/audio/wordpool/POET.wav", "conditions": [24, 800, "a", 24000], "internal_node_id": "0.0-164.0", "trial": 6, "time_elapsed": 1124585, "serialpos": 14, "key_press": -1, "wordID": 1094, "type": "PRES_AUD", "trial_index": 227}, "uniqueid": "MTK2624:3V0Z7YWSIZ7R5FP6RIR70C3AZD9V29", "dateTime": 1519161138154}, {"current_trial": 228, "trialdata": {"rt": -1000, "trial_type": "single-audio", "word": "airplane", "stimulus": "/static/audio/wordpool/AIRPLANE.wav", "conditions": [24, 800, "a", 24000], "internal_node_id": "0.0-165.0", "trial": 6, "time_elapsed": 1126527, "serialpos": 15, "key_press": -1, "wordID": 11, "type": "PRES_AUD", "trial_index": 228}, "uniqueid": "MTK2624:3V0Z7YWSIZ7R5FP6RIR70C3AZD9V29", "dateTime": 1519161140097}, {"current_trial": 229, "trialdata": {"rt": -1000, "trial_type": "single-audio", "word": "guitar", "stimulus": "/static/audio/wordpool/GUITAR.wav", "conditions": [24, 800, "a", 24000], "internal_node_id": "0.0-166.0", "trial": 6, "time_elapsed": 1128209, "serialpos": 16, "key_press": -1, "wordID": 669, "type": "PRES_AUD", "trial_index": 229}, "uniqueid": "MTK2624:3V0Z7YWSIZ7R5FP6RIR70C3AZD9V29", "dateTime": 1519161141778}, {"current_trial": 230, "trialdata": {"rt": -1000, "trial_type": "single-audio", "word": "mustard", "stimulus": "/static/audio/wordpool/MUSTARD.wav", "conditions": [24, 800, "a", 24000], "internal_node_id": "0.0-167.0", "trial": 6, "time_elapsed": 1129870, "serialpos": 17, "key_press": -1, "wordID": 934, "type": "PRES_AUD", "trial_index": 230}, "uniqueid": "MTK2624:3V0Z7YWSIZ7R5FP6RIR70C3AZD9V29", "dateTime": 1519161143439}, {"current_trial": 231, "trialdata": {"rt": -1000, "trial_type": "single-audio", "word": "banker", "stimulus": "/static/audio/wordpool/BANKER.wav", "conditions": [24, 800, "a", 24000], "internal_node_id": "0.0-168.0", "trial": 6, "time_elapsed": 1131791, "serialpos": 18, "key_press": -1, "wordID": 83, "type": "PRES_AUD", "trial_index": 231}, "uniqueid": "MTK2624:3V0Z7YWSIZ7R5FP6RIR70C3AZD9V29", "dateTime": 1519161145360}, {"current_trial": 232, "trialdata": {"rt": -1000, "trial_type": "single-audio", "word": "bank", "stimulus": "/static/audio/wordpool/BANK.wav", "conditions": [24, 800, "a", 24000], "internal_node_id": "0.0-169.0", "trial": 6, "time_elapsed": 1133670, "serialpos": 19, "key_press": -1, "wordID": 82, "type": "PRES_AUD", "trial_index": 232}, "uniqueid": "MTK2624:3V0Z7YWSIZ7R5FP6RIR70C3AZD9V29", "dateTime": 1519161147239}, {"current_trial": 233, "trialdata": {"rt": -1000, "trial_type": "single-audio", "word": "beast", "stimulus": "/static/audio/wordpool/BEAST.wav", "conditions": [24, 800, "a", 24000], "internal_node_id": "0.0-170.0", "trial": 6, "time_elapsed": 1135376, "serialpos": 20, "key_press": -1, "wordID": 107, "type": "PRES_AUD", "trial_index": 233}, "uniqueid": "MTK2624:3V0Z7YWSIZ7R5FP6RIR70C3AZD9V29", "dateTime": 1519161148945}, {"current_trial": 234, "trialdata": {"rt": -1000, "trial_type": "single-audio", "word": "fungus", "stimulus": "/static/audio/wordpool/FUNGUS.wav", "conditions": [24, 800, "a", 24000], "internal_node_id": "0.0-171.0", "trial": 6, "time_elapsed": 1137191, "serialpos": 21, "key_press": -1, "wordID": 613, "type": "PRES_AUD", "trial_index": 234}, "uniqueid": "MTK2624:3V0Z7YWSIZ7R5FP6RIR70C3AZD9V29", "dateTime": 1519161150760}, {"current_trial": 235, "trialdata": {"rt": -1000, "trial_type": "single-audio", "word": "costume", "stimulus": "/static/audio/wordpool/COSTUME.wav", "conditions": [24, 800, "a", 24000], "internal_node_id": "0.0-172.0", "trial": 6, "time_elapsed": 1138838, "serialpos": 22, "key_press": -1, "wordID": 382, "type": "PRES_AUD", "trial_index": 235}, "uniqueid": "MTK2624:3V0Z7YWSIZ7R5FP6RIR70C3AZD9V29", "dateTime": 1519161152407}, {"current_trial": 236, "trialdata": {"rt": -1000, "trial_type": "single-audio", "word": "monster", "stimulus": "/static/audio/wordpool/MONSTER.wav", "conditions": [24, 800, "a", 24000], "internal_node_id": "0.0-173.0", "trial": 6, "time_elapsed": 1140481, "serialpos": 23, "key_press": -1, "wordID": 911, "type": "PRES_AUD", "trial_index": 236}, "uniqueid": "MTK2624:3V0Z7YWSIZ7R5FP6RIR70C3AZD9V29", "dateTime": 1519161154050}, {"current_trial": 237, "trialdata": {"rt": -1, "trial_type": "single-stim", "stimulus": "", "internal_node_id": "0.0-174.0-0.0", "time_elapsed": 1141887, "key_press": -1, "type": "PRE_RECALL_DELAY", "trial_index": 237}, "uniqueid": "MTK2624:3V0Z7YWSIZ7R5FP6RIR70C3AZD9V29", "dateTime": 1519161155456}, {"current_trial": 238, "trialdata": {"rt": -1000, "trial_type": "single-audio", "stimulus": "/static/audio/400Hz.wav", "internal_node_id": "0.0-175.0", "time_elapsed": 1142392, "key_press": -1, "type": "PRE_RECALL_ALERT", "trial_index": 238}, "uniqueid": "MTK2624:3V0Z7YWSIZ7R5FP6RIR70C3AZD9V29", "dateTime": 1519161155961}, {"current_trial": 239, "trialdata": {"rt": [4180, 7147, 11238, 16644, 19037, 21261, 25258, 31345, 34005, 39867, 44078, 50435, 55001], "recwords": ["costume", "monster", "fungus", "banker", "bank", "marrow", "transplant", "kidney", "waitress", "hostess", "tombstone", "guitar", "airplane"], "key_times": [1923, 2245, 2575, 2831, 3267, 3525, 3866, 4180, 4725, 5097, 5415, 5750, 5989, 6229, 6454, 7147, 8474, 8677, 8943, 9331, 9897, 10439, 11238, 14926, 15303, 15510, 15889, 16131, 16399, 16644, 17338, 17652, 18151, 18562, 19037, 19494, 19796, 20251, 20427, 20661, 20977, 21261, 21821, 22072, 22342, 22605, 22883, 23261, 23488, 23869, 24085, 24433, 25258, 29135, 29418, 29762, 30019, 30420, 30644, 31345, 31815, 32123, 32380, 32751, 32956, 33184, 33459, 33680, 34005, 37813, 37963, 38379, 38724, 39002, 39315, 39521, 39867, 40818, 41006, 41296, 41735, 42260, 42521, 43044, 43368, 43745, 44078, 48295, 48544, 48744, 49133, 49456, 49710, 50435, 52016, 52995, 53349, 53611, 53826, 54098, 54292, 54571, 55001], "trial_type": "free-recall", "conditions": [24, 800, "a", 24000], "internal_node_id": "0.0-176.0-0.0", "key_presses": [67, 79, 83, 84, 85, 77, 69, 13, 77, 79, 78, 83, 84, 69, 82, 13, 70, 85, 78, 71, 85, 83, 13, 66, 65, 78, 75, 69, 82, 13, 66, 65, 78, 75, 13, 77, 65, 82, 82, 79, 87, 13, 84, 82, 65, 78, 83, 80, 76, 65, 78, 84, 13, 75, 73, 68, 78, 69, 89, 13, 87, 65, 73, 84, 82, 69, 83, 83, 13, 72, 79, 83, 84, 69, 83, 83, 13, 84, 79, 77, 66, 83, 84, 79, 78, 69, 13, 71, 85, 73, 84, 65, 82, 13, 65, 73, 82, 80, 76, 65, 78, 69, 13], "trial": 6, "time_elapsed": 1202397, "type": "FREE_RECALL", "trial_index": 239}, "uniqueid": "MTK2624:3V0Z7YWSIZ7R5FP6RIR70C3AZD9V29", "dateTime": 1519161215971}, {"current_trial": 240, "trialdata": {"rt": 5278, "trial_type": "text", "internal_node_id": "0.0-177.0", "time_elapsed": 1209680, "key_press": 86, "type": "INSTRUCTIONS", "trial_index": 240}, "uniqueid": "MTK2624:3V0Z7YWSIZ7R5FP6RIR70C3AZD9V29", "dateTime": 1519161223250}, {"current_trial": 241, "trialdata": {"rt": [2470, 4126, 6700, 9199, 11623], "trial_type": "math-distractor", "key_times": [1891, 2163, 2470, 3754, 4126, 6188, 6416, 6700, 8713, 8924, 9199, 11018, 11209, 11623], "responses": ["18", "6", "21", "15", "12"], "num2": [8, 2, 6, 9, 5, 1], "num3": [1, 1, 6, 3, 3, 9], "conditions": [24, 1600, "a", 12000], "internal_node_id": "0.0-178.0", "key_presses": [97, 104, 13, 102, 13, 98, 97, 13, 97, 101, 13, 97, 98, 13], "trial": 7, "time_elapsed": 1223684, "type": "DISTRACTOR", "trial_index": 241, "num1": [9, 3, 9, 3, 4, 9]}, "uniqueid": "MTK2624:3V0Z7YWSIZ7R5FP6RIR70C3AZD9V29", "dateTime": 1519161237253}, {"current_trial": 242, "trialdata": {"rt": -1, "trial_type": "single-stim", "stimulus": "<p id=\"stim\">10</p>", "internal_node_id": "0.0-179.0-0.0", "time_elapsed": 1226685, "key_press": -1, "trial_index": 242}, "uniqueid": "MTK2624:3V0Z7YWSIZ7R5FP6RIR70C3AZD9V29", "dateTime": 1519161240255}, {"current_trial": 243, "trialdata": {"rt": -1, "trial_type": "single-stim", "stimulus": "<p id=\"stim\">9</p>", "internal_node_id": "0.0-179.0-1.0", "time_elapsed": 1227688, "key_press": -1, "trial_index": 243}, "uniqueid": "MTK2624:3V0Z7YWSIZ7R5FP6RIR70C3AZD9V29", "dateTime": 1519161241257}, {"current_trial": 244, "trialdata": {"rt": -1, "trial_type": "single-stim", "stimulus": "<p id=\"stim\">8</p>", "internal_node_id": "0.0-179.0-2.0", "time_elapsed": 1228689, "key_press": -1, "trial_index": 244}, "uniqueid": "MTK2624:3V0Z7YWSIZ7R5FP6RIR70C3AZD9V29", "dateTime": 1519161242258}, {"current_trial": 245, "trialdata": {"rt": -1, "trial_type": "single-stim", "stimulus": "<p id=\"stim\">7</p>", "internal_node_id": "0.0-179.0-3.0", "time_elapsed": 1229690, "key_press": -1, "trial_index": 245}, "uniqueid": "MTK2624:3V0Z7YWSIZ7R5FP6RIR70C3AZD9V29", "dateTime": 1519161243259}, {"current_trial": 246, "trialdata": {"rt": -1, "trial_type": "single-stim", "stimulus": "<p id=\"stim\">6</p>", "internal_node_id": "0.0-179.0-4.0", "time_elapsed": 1230690, "key_press": -1, "trial_index": 246}, "uniqueid": "MTK2624:3V0Z7YWSIZ7R5FP6RIR70C3AZD9V29", "dateTime": 1519161244260}, {"current_trial": 247, "trialdata": {"rt": -1, "trial_type": "single-stim", "stimulus": "<p id=\"stim\">5</p>", "internal_node_id": "0.0-179.0-5.0", "time_elapsed": 1231691, "key_press": -1, "trial_index": 247}, "uniqueid": "MTK2624:3V0Z7YWSIZ7R5FP6RIR70C3AZD9V29", "dateTime": 1519161245261}, {"current_trial": 248, "trialdata": {"rt": -1, "trial_type": "single-stim", "stimulus": "<p id=\"stim\">4</p>", "internal_node_id": "0.0-179.0-6.0", "time_elapsed": 1232692, "key_press": -1, "trial_index": 248}, "uniqueid": "MTK2624:3V0Z7YWSIZ7R5FP6RIR70C3AZD9V29", "dateTime": 1519161246262}, {"current_trial": 249, "trialdata": {"rt": -1, "trial_type": "single-stim", "stimulus": "<p id=\"stim\">3</p>", 