{"assignmentId": "3YDTZAI2WYNLMHOVOIQ6M3TSS3S41D", "workerId": "MTK2011", "questiondata": {"origin": "United States", "strat-rehearsal": "2", "marital": "Single", "education": "Bachelor's degree", "ethnicity": "Not Hispanic", "color_depth": 24, "distracted": "No", "wrote-notes": "No", "strat-other": "", "screen_width": 3440, "avail_screen_width": 3440, "avail_screen_height": 1440, "strat-image": "98", "language": "English", "gender": "Male", "age": "25", "gender_other": "", "race": ["White"], "strat-categorize": "85", "pixel_depth": 24, "strat-spatial": "23", "strat-story": "89", "race_other": "", "screen_height": 1440}, "bonus": 0, "hitId": "34F34TZU7W6GR0RIKR8M84WWKUV2J1", "counterbalance": 73, "useragent": "Mozilla/5.0 (Windows NT 10.0; Win64; x64) AppleWebKit/537.36 (KHTML, like Gecko) Chrome/63.0.3239.132 Safari/537.36", "eventdata": [{"eventtype": "initialized", "interval": 0, "value": null, "timestamp": 1516645803917}, {"eventtype": "window_resize", "interval": 0, "value": [3440, 1393], "timestamp": 1516645803917}, {"eventtype": "focus", "interval": 1666011, "value": "off", "timestamp": 1516647469928}, {"eventtype": "focus", "interval": 43718, "value": "on", "timestamp": 1516647513646}, {"eventtype": "focus", "interval": 419184, "value": "off", "timestamp": 1516647932830}, {"eventtype": "focus", "interval": 46429, "value": "on", "timestamp": 1516647979259}, {"eventtype": "focus", "interval": 6767, "value": "off", "timestamp": 1516647986026}, {"eventtype": "focus", "interval": 4628, "value": "on", "timestamp": 1516647990654}, {"eventtype": "focus", "interval": 276423, "value": "off", "timestamp": 1516648267077}, {"eventtype": "focus", "interval": 11219, "value": "on", "timestamp": 1516648278296}, {"eventtype": "focus", "interval": 417994, "value": "off", "timestamp": 1516648696290}, {"eventtype": "focus", "interval": 173488, "value": "on", "timestamp": 1516648869778}, {"eventtype": "window_resize", "interval": 217, "value": [1718, 1380], "timestamp": 1516648869995}, {"eventtype": "window_resize", "interval": 1137, "value": [3440, 1393], "timestamp": 1516648871132}, {"eventtype": "window_resize", "interval": 2896, "value": [3440, 1389], "timestamp": 1516648874028}], "data": [{"current_trial": 0, "trialdata": {"rt": 2316, "trial_type": "text", "internal_node_id": "0.0-0.0", "time_elapsed": 2318, "key_press": 13, "type": "INSTRUCTIONS", "trial_index": 0}, "uniqueid": "MTK2011:3YDTZAI2WYNLMHOVOIQ6M3TSS3S41D", "dateTime": 1516645815845}, {"current_trial": 1, "trialdata": {"rt": 20902, "trial_type": "text", "internal_node_id": "0.0-1.0", "time_elapsed": 23222, "key_press": 13, "type": "INSTRUCTIONS", "trial_index": 1}, "uniqueid": "MTK2011:3YDTZAI2WYNLMHOVOIQ6M3TSS3S41D", "dateTime": 1516645836748}, {"current_trial": 2, "trialdata": {"rt": [5115], "trial_type": "audio-test", "responses": ["ocean"], "internal_node_id": "0.0-2.0", "time_elapsed": 28342, "type": "AUDIO_TEST", "trial_index": 2}, "uniqueid": "MTK2011:3YDTZAI2WYNLMHOVOIQ6M3TSS3S41D", "dateTime": 1516645841868}, {"current_trial": 3, "trialdata": {"rt": [4749], "trial_type": "audio-test", "responses": ["crystal"], "internal_node_id": "0.0-3.0", "time_elapsed": 33095, "type": "AUDIO_TEST", "trial_index": 3}, "uniqueid": "MTK2011:3YDTZAI2WYNLMHOVOIQ6M3TSS3S41D", "dateTime": 1516645846621}, {"current_trial": 4, "trialdata": {"rt": [5341], "trial_type": "audio-test", "responses": ["spice"], "internal_node_id": "0.0-4.0", "time_elapsed": 38439, "type": "AUDIO_TEST", "trial_index": 4}, "uniqueid": "MTK2011:3YDTZAI2WYNLMHOVOIQ6M3TSS3S41D", "dateTime": 1516645851965}, {"current_trial": 5, "trialdata": {"rt": 16249, "trial_type": "survey-text", "responses": "{\"Q0\":\"9 PM\",\"Q1\":\"4 AM\",\"Q2\":\"4\"}", "internal_node_id": "0.0-5.0", "time_elapsed": 55440, "type": "SLEEP_SURVEY", "trial_index": 5}, "uniqueid": "MTK2011:3YDTZAI2WYNLMHOVOIQ6M3TSS3S41D", "dateTime": 1516645868966}, {"current_trial": 6, "trialdata": {"rt": 43103, "trial_type": "text", "internal_node_id": "0.0-6.0", "time_elapsed": 99544, "key_press": 13, "type": "INSTRUCTIONS", "trial_index": 6}, "uniqueid": "MTK2011:3YDTZAI2WYNLMHOVOIQ6M3TSS3S41D", "dateTime": 1516645913070}, {"current_trial": 7, "trialdata": {"rt": 16659, "trial_type": "text", "internal_node_id": "0.0-7.0", "time_elapsed": 116704, "key_press": 13, "type": "INSTRUCTIONS", "trial_index": 7}, "uniqueid": "MTK2011:3YDTZAI2WYNLMHOVOIQ6M3TSS3S41D", "dateTime": 1516645930230}, {"current_trial": 8, "trialdata": {"rt": 12052, "trial_type": "text", "internal_node_id": "0.0-8.0", "time_elapsed": 129256, "key_press": 32, "type": "INSTRUCTIONS", "trial_index": 8}, "uniqueid": "MTK2011:3YDTZAI2WYNLMHOVOIQ6M3TSS3S41D", "dateTime": 1516645942782}, {"current_trial": 9, "trialdata": {"rt": [4478, 6654, 8174, 9806, 11950, 14238, 17262], "trial_type": "math-distractor", "key_times": [4110, 4246, 4478, 6438, 6654, 8014, 8174, 9471, 9574, 9806, 11654, 11782, 11950, 13750, 14046, 14238, 16798, 16958, 17262], "responses": ["25", "8", "8", "10", "16", "13", "20"], "num2": [7, 1, 1, 4, 9, 7, 6, 1], "num3": [9, 2, 6, 2, 3, 4, 5, 9], "conditions": [18, 1200, "a", 18000], "internal_node_id": "0.0-9.0", "key_presses": [50, 53, 13, 56, 13, 56, 13, 49, 48, 13, 49, 54, 13, 49, 51, 13, 50, 48, 13], "trial": 0, "time_elapsed": 148258, "type": "DISTRACTOR", "trial_index": 9, "num1": [9, 5, 1, 4, 4, 2, 9, 8]}, "uniqueid": "MTK2011:3YDTZAI2WYNLMHOVOIQ6M3TSS3S41D", "dateTime": 1516645961785}, {"current_trial": 10, "trialdata": {"rt": -1, "trial_type": "single-stim", "stimulus": "<p id=\"stim\">10</p>", "internal_node_id": "0.0-10.0-0.0", "time_elapsed": 151261, "key_press": -1, "trial_index": 10}, "uniqueid": "MTK2011:3YDTZAI2WYNLMHOVOIQ6M3TSS3S41D", "dateTime": 1516645964787}, {"current_trial": 11, "trialdata": {"rt": -1, "trial_type": "single-stim", "stimulus": "<p id=\"stim\">9</p>", "internal_node_id": "0.0-10.0-1.0", "time_elapsed": 152262, "key_press": -1, "trial_index": 11}, "uniqueid": "MTK2011:3YDTZAI2WYNLMHOVOIQ6M3TSS3S41D", "dateTime": 1516645965788}, {"current_trial": 12, "trialdata": {"rt": -1, "trial_type": "single-stim", "stimulus": "<p id=\"stim\">8</p>", "internal_node_id": "0.0-10.0-2.0", "time_elapsed": 153263, "key_press": -1, "trial_index": 12}, "uniqueid": "MTK2011:3YDTZAI2WYNLMHOVOIQ6M3TSS3S41D", "dateTime": 1516645966789}, {"current_trial": 13, "trialdata": {"rt": -1, "trial_type": "single-stim", "stimulus": "<p id=\"stim\">7</p>", "internal_node_id": "0.0-10.0-3.0", "time_elapsed": 154264, "key_press": -1, "trial_index": 13}, "uniqueid": "MTK2011:3YDTZAI2WYNLMHOVOIQ6M3TSS3S41D", "dateTime": 1516645967790}, {"current_trial": 14, "trialdata": {"rt": -1, "trial_type": "single-stim", "stimulus": "<p id=\"stim\">6</p>", "internal_node_id": "0.0-10.0-4.0", "time_elapsed": 155264, "key_press": -1, "trial_index": 14}, "uniqueid": "MTK2011:3YDTZAI2WYNLMHOVOIQ6M3TSS3S41D", "dateTime": 1516645968791}, {"current_trial": 15, "trialdata": {"rt": -1, "trial_type": "single-stim", "stimulus": "<p id=\"stim\">5</p>", "internal_node_id": "0.0-10.0-5.0", "time_elapsed": 156265, "key_press": -1, "trial_index": 15}, "uniqueid": "MTK2011:3YDTZAI2WYNLMHOVOIQ6M3TSS3S41D", "dateTime": 1516645969792}, {"current_trial": 16, "trialdata": {"rt": -1, "trial_type": "single-stim", "stimulus": "<p id=\"stim\">4</p>", "internal_node_id": "0.0-10.0-6.0", "time_elapsed": 157267, "key_press": -1, "trial_index": 16}, "uniqueid": "MTK2011:3YDTZAI2WYNLMHOVOIQ6M3TSS3S41D", "dateTime": 1516645970793}, {"current_trial": 17, "trialdata": {"rt": -1, "trial_type": "single-stim", "stimulus": "<p id=\"stim\">3</p>", "internal_node_id": "0.0-10.0-7.0", "time_elapsed": 158268, "key_press": -1, "trial_index": 17}, "uniqueid": "MTK2011:3YDTZAI2WYNLMHOVOIQ6M3TSS3S41D", "dateTime": 1516645971794}, {"current_trial": 18, "trialdata": {"rt": -1, "trial_type": "single-stim", "stimulus": "<p id=\"stim\">2</p>", "internal_node_id": "0.0-10.0-8.0", "time_elapsed": 159268, "key_press": -1, "trial_index": 18}, "uniqueid": "MTK2011:3YDTZAI2WYNLMHOVOIQ6M3TSS3S41D", "dateTime": 1516645972794}, {"current_trial": 19, "trialdata": {"rt": -1, "trial_type": "single-stim", "stimulus": "<p id=\"stim\">1</p>", "internal_node_id": "0.0-10.0-9.0", "time_elapsed": 160269, "key_press": -1, "trial_index": 19}, "uniqueid": "MTK2011:3YDTZAI2WYNLMHOVOIQ6M3TSS3S41D", "dateTime": 1516645973795}, {"current_trial": 20, "trialdata": {"rt": -1, "trial_type": "single-stim", "stimulus": "<p id=\"stim\">+</p>", "internal_node_id": "0.0-11.0-0.0", "time_elapsed": 161770, "key_press": -1, "type": "FIXATION", "trial_index": 20}, "uniqueid": "MTK2011:3YDTZAI2WYNLMHOVOIQ6M3TSS3S41D", "dateTime": 1516645975296}, {"current_trial": 21, "trialdata": {"rt": -1000, "trial_type": "single-audio", "word": "waitress", "stimulus": "/static/audio/wordpool/WAITRESS.wav", "conditions": [18, 1200, "a", 18000], "internal_node_id": "0.0-12.0", "trial": 0, "time_elapsed": 164077, "serialpos": 0, "key_press": -1, "wordID": 1580, "type": "PRES_AUD", "trial_index": 21}, "uniqueid": "MTK2011:3YDTZAI2WYNLMHOVOIQ6M3TSS3S41D", "dateTime": 1516645977603}, {"current_trial": 22, "trialdata": {"rt": 430.6666666666672, "trial_type": "single-audio", "word": "pastry", "stimulus": "/static/audio/wordpool/PASTRY.wav", "conditions": [18, 1200, "a", 18000], "internal_node_id": "0.0-13.0", "trial": 0, "time_elapsed": 166228, "serialpos": 1, "key_press": 175, "wordID": 1021, "type": "PRES_AUD", "trial_index": 22}, "uniqueid": "MTK2011:3YDTZAI2WYNLMHOVOIQ6M3TSS3S41D", "dateTime": 1516645979754}, {"current_trial": 23, "trialdata": {"rt": -1000, "trial_type": "single-audio", "word": "shelf", "stimulus": "/static/audio/wordpool/SHELF.wav", "conditions": [18, 1200, "a", 18000], "internal_node_id": "0.0-14.0", "trial": 0, "time_elapsed": 168259, "serialpos": 2, "key_press": -1, "wordID": 1279, "type": "PRES_AUD", "trial_index": 23}, "uniqueid": "MTK2011:3YDTZAI2WYNLMHOVOIQ6M3TSS3S41D", "dateTime": 1516645981785}, {"current_trial": 24, "trialdata": {"rt": -1000, "trial_type": "single-audio", "word": "ointment", "stimulus": "/static/audio/wordpool/OINTMENT.wav", "conditions": [18, 1200, "a", 18000], "internal_node_id": "0.0-15.0", "trial": 0, "time_elapsed": 170586, "serialpos": 3, "key_press": -1, "wordID": 973, "type": "PRES_AUD", "trial_index": 24}, "uniqueid": "MTK2011:3YDTZAI2WYNLMHOVOIQ6M3TSS3S41D", "dateTime": 1516645984113}, {"current_trial": 25, "trialdata": {"rt": -1000, "trial_type": "single-audio", "word": "actor", "stimulus": "/static/audio/wordpool/ACTOR.wav", "conditions": [18, 1200, "a", 18000], "internal_node_id": "0.0-16.0", "trial": 0, "time_elapsed": 172891, "serialpos": 4, "key_press": -1, "wordID": 4, "type": "PRES_AUD", "trial_index": 25}, "uniqueid": "MTK2011:3YDTZAI2WYNLMHOVOIQ6M3TSS3S41D", "dateTime": 1516645986417}, {"current_trial": 26, "trialdata": {"rt": -1000, "trial_type": "single-audio", "word": "servant", "stimulus": "/static/audio/wordpool/SERVANT.wav", "conditions": [18, 1200, "a", 18000], "internal_node_id": "0.0-17.0", "trial": 0, "time_elapsed": 175047, "serialpos": 5, "key_press": -1, "wordID": 1270, "type": "PRES_AUD", "trial_index": 26}, "uniqueid": "MTK2011:3YDTZAI2WYNLMHOVOIQ6M3TSS3S41D", "dateTime": 1516645988573}, {"current_trial": 27, "trialdata": {"rt": -1000, "trial_type": "single-audio", "word": "leader", "stimulus": "/static/audio/wordpool/LEADER.wav", "conditions": [18, 1200, "a", 18000], "internal_node_id": "0.0-18.0", "trial": 0, "time_elapsed": 177399, "serialpos": 6, "key_press": -1, "wordID": 806, "type": "PRES_AUD", "trial_index": 27}, "uniqueid": "MTK2011:3YDTZAI2WYNLMHOVOIQ6M3TSS3S41D", "dateTime": 1516645990925}, {"current_trial": 28, "trialdata": {"rt": -1000, "trial_type": "single-audio", "word": "guitar", "stimulus": "/static/audio/wordpool/GUITAR.wav", "conditions": [18, 1200, "a", 18000], "internal_node_id": "0.0-19.0", "trial": 0, "time_elapsed": 179448, "serialpos": 7, "key_press": -1, "wordID": 669, "type": "PRES_AUD", "trial_index": 28}, "uniqueid": "MTK2011:3YDTZAI2WYNLMHOVOIQ6M3TSS3S41D", "dateTime": 1516645992974}, {"current_trial": 29, "trialdata": {"rt": -1000, "trial_type": "single-audio", "word": "icing", "stimulus": "/static/audio/wordpool/ICING.wav", "conditions": [18, 1200, "a", 18000], "internal_node_id": "0.0-20.0", "trial": 0, "time_elapsed": 181700, "serialpos": 8, "key_press": -1, "wordID": 731, "type": "PRES_AUD", "trial_index": 29}, "uniqueid": "MTK2011:3YDTZAI2WYNLMHOVOIQ6M3TSS3S41D", "dateTime": 1516645995226}, {"current_trial": 30, "trialdata": {"rt": -1000, "trial_type": "single-audio", "word": "xerox", "stimulus": "/static/audio/wordpool/XEROX.wav", "conditions": [18, 1200, "a", 18000], "internal_node_id": "0.0-21.0", "trial": 0, "time_elapsed": 183820, "serialpos": 9, "key_press": -1, "wordID": 1627, "type": "PRES_AUD", "trial_index": 30}, "uniqueid": "MTK2011:3YDTZAI2WYNLMHOVOIQ6M3TSS3S41D", "dateTime": 1516645997346}, {"current_trial": 31, "trialdata": {"rt": -1000, "trial_type": "single-audio", "word": "kitchen", "stimulus": "/static/audio/wordpool/KITCHEN.wav", "conditions": [18, 1200, "a", 18000], "internal_node_id": "0.0-22.0", "trial": 0, "time_elapsed": 186178, "serialpos": 10, "key_press": -1, "wordID": 777, "type": "PRES_AUD", "trial_index": 31}, "uniqueid": "MTK2011:3YDTZAI2WYNLMHOVOIQ6M3TSS3S41D", "dateTime": 1516645999705}, {"current_trial": 32, "trialdata": {"rt": -1000, "trial_type": "single-audio", "word": "contract", "stimulus": "/static/audio/wordpool/CONTRACT.wav", "conditions": [18, 1200, "a", 18000], "internal_node_id": "0.0-23.0", "trial": 0, "time_elapsed": 188343, "serialpos": 11, "key_press": -1, "wordID": 367, "type": "PRES_AUD", "trial_index": 32}, "uniqueid": "MTK2011:3YDTZAI2WYNLMHOVOIQ6M3TSS3S41D", "dateTime": 1516646001869}, {"current_trial": 33, "trialdata": {"rt": -1000, "trial_type": "single-audio", "word": "mildew", "stimulus": "/static/audio/wordpool/MILDEW.wav", "conditions": [18, 1200, "a", 18000], "internal_node_id": "0.0-24.0", "trial": 0, "time_elapsed": 190445, "serialpos": 12, "key_press": -1, "wordID": 892, "type": "PRES_AUD", "trial_index": 33}, "uniqueid": "MTK2011:3YDTZAI2WYNLMHOVOIQ6M3TSS3S41D", "dateTime": 1516646003971}, {"current_trial": 34, "trialdata": {"rt": -1000, "trial_type": "single-audio", "word": "hatchet", "stimulus": "/static/audio/wordpool/HATCHET.wav", "conditions": [18, 1200, "a", 18000], "internal_node_id": "0.0-25.0", "trial": 0, "time_elapsed": 192839, "serialpos": 13, "key_press": -1, "wordID": 690, "type": "PRES_AUD", "trial_index": 34}, "uniqueid": "MTK2011:3YDTZAI2WYNLMHOVOIQ6M3TSS3S41D", "dateTime": 1516646006365}, {"current_trial": 35, "trialdata": {"rt": -1000, "trial_type": "single-audio", "word": "antler", "stimulus": "/static/audio/wordpool/ANTLER.wav", "conditions": [18, 1200, "a", 18000], "internal_node_id": "0.0-26.0", "trial": 0, "time_elapsed": 195165, "serialpos": 14, "key_press": -1, "wordID": 28, "type": "PRES_AUD", "trial_index": 35}, "uniqueid": "MTK2011:3YDTZAI2WYNLMHOVOIQ6M3TSS3S41D", "dateTime": 1516646008691}, {"current_trial": 36, "trialdata": {"rt": -1000, "trial_type": "single-audio", "word": "buggy", "stimulus": "/static/audio/wordpool/BUGGY.wav", "conditions": [18, 1200, "a", 18000], "internal_node_id": "0.0-27.0", "trial": 0, "time_elapsed": 197336, "serialpos": 15, "key_press": -1, "wordID": 187, "type": "PRES_AUD", "trial_index": 36}, "uniqueid": "MTK2011:3YDTZAI2WYNLMHOVOIQ6M3TSS3S41D", "dateTime": 1516646010862}, {"current_trial": 37, "trialdata": {"rt": -1000, "trial_type": "single-audio", "word": "breast", "stimulus": "/static/audio/wordpool/BREAST.wav", "conditions": [18, 1200, "a", 18000], "internal_node_id": "0.0-28.0", "trial": 0, "time_elapsed": 199605, "serialpos": 16, "key_press": -1, "wordID": 170, "type": "PRES_AUD", "trial_index": 37}, "uniqueid": "MTK2011:3YDTZAI2WYNLMHOVOIQ6M3TSS3S41D", "dateTime": 1516646013131}, {"current_trial": 38, "trialdata": {"rt": -1000, "trial_type": "single-audio", "word": "creature", "stimulus": "/static/audio/wordpool/CREATURE.wav", "conditions": [18, 1200, "a", 18000], "internal_node_id": "0.0-29.0", "trial": 0, "time_elapsed": 201976, "serialpos": 17, "key_press": -1, "wordID": 402, "type": "PRES_AUD", "trial_index": 38}, "uniqueid": "MTK2011:3YDTZAI2WYNLMHOVOIQ6M3TSS3S41D", "dateTime": 1516646015502}, {"current_trial": 39, "trialdata": {"rt": -1, "trial_type": "single-stim", "stimulus": "", "internal_node_id": "0.0-30.0-0.0", "time_elapsed": 203179, "key_press": -1, "type": "PRE_RECALL_DELAY", "trial_index": 39}, "uniqueid": "MTK2011:3YDTZAI2WYNLMHOVOIQ6M3TSS3S41D", "dateTime": 1516646016705}, {"current_trial": 40, "trialdata": {"rt": -1000, "trial_type": "single-audio", "stimulus": "/static/audio/400Hz.wav", "internal_node_id": "0.0-31.0", "time_elapsed": 203680, "key_press": -1, "type": "PRE_RECALL_ALERT", "trial_index": 40}, "uniqueid": "MTK2011:3YDTZAI2WYNLMHOVOIQ6M3TSS3S41D", "dateTime": 1516646017206}, {"current_trial": 41, "trialdata": {"rt": [3585, 7642, 8690, 10386, 13369, 15594, 17866, 23922, 25762, 27699, 29563, 31707, 36292, 38331, 44612, 46292, 48244], "recwords": ["waitress", "cupcake", "shelf", "ointment", "actor", "servant", "leader", "icing", "xerox", "kitchen", "contract", "mildew", "hatchet", "antler", "buggy", "breast", "creature"], "key_times": [1754, 1873, 2034, 2137, 2353, 2497, 2897, 3049, 3585, 4890, 5009, 6089, 6426, 6538, 6706, 7417, 7642, 7890, 8009, 8114, 8257, 8361, 8690, 9219, 9418, 9561, 9689, 9914, 10001, 10106, 10202, 10386, 10842, 11098, 11481, 12274, 12370, 13369, 14049, 14186, 14274, 14514, 14930, 15098, 15218, 15594, 15826, 15907, 16042, 16170, 16434, 16586, 17866, 19426, 19634, 19834, 20074, 20186, 20282, 20410, 21386, 21886, 21919, 21952, 21985, 22018, 22051, 22084, 22117, 22150, 22184, 22216, 22249, 22283, 22546, 22634, 22898, 23090, 23210, 23922, 24554, 24962, 25082, 25226, 25370, 25762, 26042, 26210, 26298, 26490, 26586, 26682, 27148, 27699, 28347, 28436, 28563, 28667, 28811, 29019, 29139, 29372, 29563, 29859, 30115, 30275, 30364, 30635, 30772, 31707, 33804, 33932, 34403, 34588, 34676, 34788, 35011, 36292, 36548, 36659, 36828, 37347, 37436, 37523, 38331, 43756, 43868, 44076, 44204, 44460, 44612, 44892, 45004, 45099, 45532, 46028, 46156, 46292, 46732, 46908, 47084, 47316, 47508, 47644, 47964, 48076, 48244], "trial_type": "free-recall", "conditions": [18, 1200, "a", 18000], "internal_node_id": "0.0-32.0-0.0", "key_presses": [87, 65, 73, 84, 82, 69, 83, 83, 13, 67, 85, 80, 67, 65, 75, 69, 13, 83, 72, 69, 76, 70, 13, 79, 73, 78, 84, 77, 69, 78, 84, 13, 65, 67, 84, 79, 82, 13, 83, 69, 82, 86, 65, 78, 84, 13, 76, 69, 65, 68, 69, 82, 13, 75, 73, 84, 67, 72, 69, 78, 8, 8, 8, 8, 8, 8, 8, 8, 8, 8, 8, 8, 8, 8, 73, 67, 73, 78, 71, 13, 88, 69, 82, 79, 88, 13, 75, 73, 84, 67, 72, 69, 78, 13, 67, 79, 78, 84, 82, 65, 67, 84, 13, 77, 73, 76, 68, 69, 87, 13, 72, 65, 84, 67, 72, 69, 84, 13, 65, 78, 84, 76, 69, 82, 13, 66, 85, 71, 71, 89, 13, 66, 82, 69, 65, 83, 84, 13, 67, 82, 69, 65, 84, 85, 82, 69, 13], "trial": 0, "time_elapsed": 263682, "type": "FREE_RECALL", "trial_index": 41}, "uniqueid": "MTK2011:3YDTZAI2WYNLMHOVOIQ6M3TSS3S41D", "dateTime": 1516646077209}, {"current_trial": 42, "trialdata": {"rt": 21731, "trial_type": "text", "internal_node_id": "0.0-33.0", "time_elapsed": 287414, "key_press": 13, "type": "INSTRUCTIONS", "trial_index": 42}, "uniqueid": "MTK2011:3YDTZAI2WYNLMHOVOIQ6M3TSS3S41D", "dateTime": 1516646100940}, {"current_trial": 43, "trialdata": {"rt": [1903, 5087, 7392, 9039, 11623, 14760, 16384], "trial_type": "math-distractor", "key_times": [1591, 1751, 1903, 4816, 4880, 5087, 7119, 7192, 7392, 8735, 8871, 9039, 11152, 11312, 11623, 14200, 14600, 14760, 15984, 16144, 16384], "responses": ["17", "19", "10", "15", "15", "13", "14"], "num2": [7, 7, 1, 7, 7, 2, 5, 7], "num3": [3, 3, 2, 5, 5, 1, 4, 6], "conditions": [18, 1200, "a", 18000], "internal_node_id": "0.0-34.0", "key_presses": [49, 55, 13, 49, 57, 13, 49, 48, 13, 49, 53, 13, 49, 53, 13, 49, 51, 13, 49, 52, 13], "trial": 1, "time_elapsed": 307413, "type": "DISTRACTOR", "trial_index": 43, "num1": [9, 9, 7, 3, 3, 9, 5, 1]}, "uniqueid": "MTK2011:3YDTZAI2WYNLMHOVOIQ6M3TSS3S41D", "dateTime": 1516646120939}, {"current_trial": 44, "trialdata": {"rt": -1, "trial_type": "single-stim", "stimulus": "<p id=\"stim\">10</p>", "internal_node_id": "0.0-35.0-0.0", "time_elapsed": 310414, "key_press": -1, "trial_index": 44}, "uniqueid": "MTK2011:3YDTZAI2WYNLMHOVOIQ6M3TSS3S41D", "dateTime": 1516646123940}, {"current_trial": 45, "trialdata": {"rt": -1, "trial_type": "single-stim", "stimulus": "<p id=\"stim\">9</p>", "internal_node_id": "0.0-35.0-1.0", "time_elapsed": 311416, "key_press": -1, "trial_index": 45}, "uniqueid": "MTK2011:3YDTZAI2WYNLMHOVOIQ6M3TSS3S41D", "dateTime": 1516646124942}, {"current_trial": 46, "trialdata": {"rt": -1, "trial_type": "single-stim", "stimulus": "<p id=\"stim\">8</p>", "internal_node_id": "0.0-35.0-2.0", "time_elapsed": 312416, "key_press": -1, "trial_index": 46}, "uniqueid": "MTK2011:3YDTZAI2WYNLMHOVOIQ6M3TSS3S41D", "dateTime": 1516646125942}, {"current_trial": 47, "trialdata": {"rt": -1, "trial_type": "single-stim", "stimulus": "<p id=\"stim\">7</p>", "internal_node_id": "0.0-35.0-3.0", "time_elapsed": 313416, "key_press": -1, "trial_index": 47}, "uniqueid": "MTK2011:3YDTZAI2WYNLMHOVOIQ6M3TSS3S41D", "dateTime": 1516646126942}, {"current_trial": 48, "trialdata": {"rt": -1, "trial_type": "single-stim", "stimulus": "<p id=\"stim\">6</p>", "internal_node_id": "0.0-35.0-4.0", "time_elapsed": 314417, "key_press": -1, "trial_index": 48}, "uniqueid": "MTK2011:3YDTZAI2WYNLMHOVOIQ6M3TSS3S41D", "dateTime": 1516646127943}, {"current_trial": 49, "trialdata": {"rt": -1, "trial_type": "single-stim", "stimulus": "<p id=\"stim\">5</p>", "internal_node_id": "0.0-35.0-5.0", "time_elapsed": 315417, "key_press": -1, "trial_index": 49}, "uniqueid": "MTK2011:3YDTZAI2WYNLMHOVOIQ6M3TSS3S41D", "dateTime": 1516646128943}, {"current_trial": 50, "trialdata": {"rt": -1, "trial_type": "single-stim", "stimulus": "<p id=\"stim\">4</p>", "internal_node_id": "0.0-35.0-6.0", "time_elapsed": 316417, "key_press": -1, "trial_index": 50}, "uniqueid": "MTK2011:3YDTZAI2WYNLMHOVOIQ6M3TSS3S41D", "dateTime": 1516646129943}, {"current_trial": 51, "trialdata": {"rt": 788, "trial_type": "single-stim", "stimulus": "<p id=\"stim\">3</p>", "internal_node_id": "0.0-35.0-7.0", "time_elapsed": 317419, "key_press": 175, "trial_index": 51}, "uniqueid": "MTK2011:3YDTZAI2WYNLMHOVOIQ6M3TSS3S41D", "dateTime": 1516646130945}, {"current_trial": 52, "trialdata": {"rt": -1, "trial_type": "single-stim", "stimulus": "<p id=\"stim\">2</p>", "internal_node_id": "0.0-35.0-8.0", "time_elapsed": 318420, "key_press": -1, "trial_index": 52}, "uniqueid": "MTK2011:3YDTZAI2WYNLMHOVOIQ6M3TSS3S41D", "dateTime": 1516646131946}, {"current_trial": 53, "trialdata": {"rt": -1, "trial_type": "single-stim", "stimulus": "<p id=\"stim\">1</p>", "internal_node_id": "0.0-35.0-9.0", "time_elapsed": 319420, "key_press": -1, "trial_index": 53}, "uniqueid": "MTK2011:3YDTZAI2WYNLMHOVOIQ6M3TSS3S41D", "dateTime": 1516646132946}, {"current_trial": 54, "trialdata": {"rt": -1, "trial_type": "single-stim", "stimulus": "<p id=\"stim\">+</p>", "internal_node_id": "0.0-36.0-0.0", "time_elapsed": 320921, "key_press": -1, "type": "FIXATION", "trial_index": 54}, "uniqueid": "MTK2011:3YDTZAI2WYNLMHOVOIQ6M3TSS3S41D", "dateTime": 1516646134447}, {"current_trial": 55, "trialdata": {"rt": 1790.6666666666524, "trial_type": "single-audio", "word": "cross", "stimulus": "/static/audio/wordpool/CROSS.wav", "conditions": [18, 1200, "a", 18000], "internal_node_id": "0.0-37.0", "trial": 1, "time_elapsed": 323148, "serialpos": 0, "key_press": 175, "wordID": 412, "type": "PRES_AUD", "trial_index": 55}, "uniqueid": "MTK2011:3YDTZAI2WYNLMHOVOIQ6M3TSS3S41D", "dateTime": 1516646136674}, {"current_trial": 56, "trialdata": {"rt": -1000, "trial_type": "single-audio", "word": "foot", "stimulus": "/static/audio/wordpool/FOOT.wav", "conditions": [18, 1200, "a", 18000], "internal_node_id": "0.0-38.0", "trial": 1, "time_elapsed": 325169, "serialpos": 1, "key_press": -1, "wordID": 589, "type": "PRES_AUD", "trial_index": 56}, "uniqueid": "MTK2011:3YDTZAI2WYNLMHOVOIQ6M3TSS3S41D", "dateTime": 1516646138695}, {"current_trial": 57, "trialdata": {"rt": -1000, "trial_type": "single-audio", "word": "lagoon", "stimulus": "/static/audio/wordpool/LAGOON.wav", "conditions": [18, 1200, "a", 18000], "internal_node_id": "0.0-39.0", "trial": 1, "time_elapsed": 327505, "serialpos": 2, "key_press": -1, "wordID": 794, "type": "PRES_AUD", "trial_index": 57}, "uniqueid": "MTK2011:3YDTZAI2WYNLMHOVOIQ6M3TSS3S41D", "dateTime": 1516646141031}, {"current_trial": 58, "trialdata": {"rt": -1000, "trial_type": "single-audio", "word": "box", "stimulus": "/static/audio/wordpool/BOX.wav", "conditions": [18, 1200, "a", 18000], "internal_node_id": "0.0-40.0", "trial": 1, "time_elapsed": 329868, "serialpos": 3, "key_press": -1, "wordID": 158, "type": "PRES_AUD", "trial_index": 58}, "uniqueid": "MTK2011:3YDTZAI2WYNLMHOVOIQ6M3TSS3S41D", "dateTime": 1516646143394}, {"current_trial": 59, "trialdata": {"rt": -1000, "trial_type": "single-audio", "word": "gift", "stimulus": "/static/audio/wordpool/GIFT.wav", "conditions": [18, 1200, "a", 18000], "internal_node_id": "0.0-41.0", "trial": 1, "time_elapsed": 331954, "serialpos": 4, "key_press": -1, "wordID": 634, "type": "PRES_AUD", "trial_index": 59}, "uniqueid": "MTK2011:3YDTZAI2WYNLMHOVOIQ6M3TSS3S41D", "dateTime": 1516646145481}, {"current_trial": 60, "trialdata": {"rt": -1000, "trial_type": "single-audio", "word": "pebble", "stimulus": "/static/audio/wordpool/PEBBLE.wav", "conditions": [18, 1200, "a", 18000], "internal_node_id": "0.0-42.0", "trial": 1, "time_elapsed": 334157, "serialpos": 5, "key_press": -1, "wordID": 1034, "type": "PRES_AUD", "trial_index": 60}, "uniqueid": "MTK2011:3YDTZAI2WYNLMHOVOIQ6M3TSS3S41D", "dateTime": 1516646147683}, {"current_trial": 61, "trialdata": {"rt": -1000, "trial_type": "single-audio", "word": "monster", "stimulus": "/static/audio/wordpool/MONSTER.wav", "conditions": [18, 1200, "a", 18000], "internal_node_id": "0.0-43.0", "trial": 1, "time_elapsed": 336354, "serialpos": 6, "key_press": -1, "wordID": 911, "type": "PRES_AUD", "trial_index": 61}, "uniqueid": "MTK2011:3YDTZAI2WYNLMHOVOIQ6M3TSS3S41D", "dateTime": 1516646149880}, {"current_trial": 62, "trialdata": {"rt": -1000, "trial_type": "single-audio", "word": "forehead", "stimulus": "/static/audio/wordpool/FOREHEAD.wav", "conditions": [18, 1200, "a", 18000], "internal_node_id": "0.0-44.0", "trial": 1, "time_elapsed": 338565, "serialpos": 7, "key_press": -1, "wordID": 591, "type": "PRES_AUD", "trial_index": 62}, "uniqueid": "MTK2011:3YDTZAI2WYNLMHOVOIQ6M3TSS3S41D", "dateTime": 1516646152091}, {"current_trial": 63, "trialdata": {"rt": -1000, "trial_type": "single-audio", "word": "possum", "stimulus": "/static/audio/wordpool/POSSUM.wav", "conditions": [18, 1200, "a", 18000], "internal_node_id": "0.0-45.0", "trial": 1, "time_elapsed": 340817, "serialpos": 8, "key_press": -1, "wordID": 1111, "type": "PRES_AUD", "trial_index": 63}, "uniqueid": "MTK2011:3YDTZAI2WYNLMHOVOIQ6M3TSS3S41D", "dateTime": 1516646154343}, {"current_trial": 64, "trialdata": {"rt": -1000, "trial_type": "single-audio", "word": "blockade", "stimulus": "/static/audio/wordpool/BLOCKADE.wav", "conditions": [18, 1200, "a", 18000], "internal_node_id": "0.0-46.0", "trial": 1, "time_elapsed": 343131, "serialpos": 9, "key_press": -1, "wordID": 136, "type": "PRES_AUD", "trial_index": 64}, "uniqueid": "MTK2011:3YDTZAI2WYNLMHOVOIQ6M3TSS3S41D", "dateTime": 1516646156657}, {"current_trial": 65, "trialdata": {"rt": -1000, "trial_type": "single-audio", "word": "headband", "stimulus": "/static/audio/wordpool/HEADBAND.wav", "conditions": [18, 1200, "a", 18000], "internal_node_id": "0.0-47.0", "trial": 1, "time_elapsed": 345314, "serialpos": 10, "key_press": -1, "wordID": 695, "type": "PRES_AUD", "trial_index": 65}, "uniqueid": "MTK2011:3YDTZAI2WYNLMHOVOIQ6M3TSS3S41D", "dateTime": 1516646158840}, {"current_trial": 66, "trialdata": {"rt": -1000, "trial_type": "single-audio", "word": "dust", "stimulus": "/static/audio/wordpool/DUST.wav", "conditions": [18, 1200, "a", 18000], "internal_node_id": "0.0-48.0", "trial": 1, "time_elapsed": 347561, "serialpos": 11, "key_press": -1, "wordID": 507, "type": "PRES_AUD", "trial_index": 66}, "uniqueid": "MTK2011:3YDTZAI2WYNLMHOVOIQ6M3TSS3S41D", "dateTime": 1516646161087}, {"current_trial": 67, "trialdata": {"rt": -1000, "trial_type": "single-audio", "word": "raft", "stimulus": "/static/audio/wordpool/RAFT.wav", "conditions": [18, 1200, "a", 18000], "internal_node_id": "0.0-49.0", "trial": 1, "time_elapsed": 349672, "serialpos": 12, "key_press": -1, "wordID": 1158, "type": "PRES_AUD", "trial_index": 67}, "uniqueid": "MTK2011:3YDTZAI2WYNLMHOVOIQ6M3TSS3S41D", "dateTime": 1516646163199}, {"current_trial": 68, "trialdata": {"rt": -1000, "trial_type": "single-audio", "word": "dolphin", "stimulus": "/static/audio/wordpool/DOLPHIN.wav", "conditions": [18, 1200, "a", 18000], "internal_node_id": "0.0-50.0", "trial": 1, "time_elapsed": 351942, "serialpos": 13, "key_press": -1, "wordID": 482, "type": "PRES_AUD", "trial_index": 68}, "uniqueid": "MTK2011:3YDTZAI2WYNLMHOVOIQ6M3TSS3S41D", "dateTime": 1516646165470}, {"current_trial": 69, "trialdata": {"rt": -1000, "trial_type": "single-audio", "word": "pasta", "stimulus": "/static/audio/wordpool/PASTA.wav", "conditions": [18, 1200, "a", 18000], "internal_node_id": "0.0-51.0", "trial": 1, "time_elapsed": 354009, "serialpos": 14, "key_press": -1, "wordID": 1020, "type": "PRES_AUD", "trial_index": 69}, "uniqueid": "MTK2011:3YDTZAI2WYNLMHOVOIQ6M3TSS3S41D", "dateTime": 1516646167535}, {"current_trial": 70, "trialdata": {"rt": -1000, "trial_type": "single-audio", "word": "pistol", "stimulus": "/static/audio/wordpool/PISTOL.wav", "conditions": [18, 1200, "a", 18000], "internal_node_id": "0.0-52.0", "trial": 1, "time_elapsed": 356103, "serialpos": 15, "key_press": -1, "wordID": 1074, "type": "PRES_AUD", "trial_index": 70}, "uniqueid": "MTK2011:3YDTZAI2WYNLMHOVOIQ6M3TSS3S41D", "dateTime": 1516646169629}, {"current_trial": 71, "trialdata": {"rt": -1000, "trial_type": "single-audio", "word": "barley", "stimulus": "/static/audio/wordpool/BARLEY.wav", "conditions": [18, 1200, "a", 18000], "internal_node_id": "0.0-53.0", "trial": 1, "time_elapsed": 358119, "serialpos": 16, "key_press": -1, "wordID": 87, "type": "PRES_AUD", "trial_index": 71}, "uniqueid": "MTK2011:3YDTZAI2WYNLMHOVOIQ6M3TSS3S41D", "dateTime": 1516646171645}, {"current_trial": 72, "trialdata": {"rt": -1000, "trial_type": "single-audio", "word": "shrub", "stimulus": "/static/audio/wordpool/SHRUB.wav", "conditions": [18, 1200, "a", 18000], "internal_node_id": "0.0-54.0", "trial": 1, "time_elapsed": 360201, "serialpos": 17, "key_press": -1, "wordID": 1298, "type": "PRES_AUD", "trial_index": 72}, "uniqueid": "MTK2011:3YDTZAI2WYNLMHOVOIQ6M3TSS3S41D", "dateTime": 1516646173727}, {"current_trial": 73, "trialdata": {"rt": -1, "trial_type": "single-stim", "stimulus": "", "internal_node_id": "0.0-55.0-0.0", "time_elapsed": 361548, "key_press": -1, "type": "PRE_RECALL_DELAY", "trial_index": 73}, "uniqueid": "MTK2011:3YDTZAI2WYNLMHOVOIQ6M3TSS3S41D", "dateTime": 1516646175074}, {"current_trial": 74, "trialdata": {"rt": -1000, "trial_type": "single-audio", "stimulus": "/static/audio/400Hz.wav", "internal_node_id": "0.0-56.0", "time_elapsed": 362050, "key_press": -1, "type": "PRE_RECALL_ALERT", "trial_index": 74}, "uniqueid": "MTK2011:3YDTZAI2WYNLMHOVOIQ6M3TSS3S41D", "dateTime": 1516646175576}, {"current_trial": 75, "trialdata": {"rt": [4206, 6302, 8926, 11966, 12902, 14230, 16071, 19935, 22567, 26775, 28991, 30775, 32599, 37719, 40807, 43879, 47528], "recwords": ["cross", "foot", "lagoon", "box", "gift", "pebble", "monster", "possum", "lockhead", "headband", "dust", "raft", "dolphin", "pasta", "barley", "pistol", "shrub"], "key_times": [2223, 2446, 2582, 2694, 2846, 4206, 4574, 4726, 4854, 4958, 6302, 6694, 6790, 6966, 7102, 7238, 7646, 8926, 10478, 10822, 10942, 11966, 12278, 12398, 12502, 12694, 12902, 13182, 13295, 13638, 13782, 13966, 14078, 14230, 14670, 14798, 14943, 14999, 15142, 15270, 15359, 16071, 16318, 16566, 16694, 16846, 17022, 17423, 17559, 17703, 17846, 18327, 18495, 18630, 18751, 18935, 19935, 20279, 20439, 20535, 21142, 21391, 21471, 21606, 21703, 22567, 24687, 24791, 24951, 25039, 25367, 25487, 25599, 25767, 26775, 27919, 28047, 28143, 28279, 28991, 29863, 29976, 30087, 30311, 30775, 31199, 31383, 31575, 31759, 32031, 32135, 32255, 32599, 36335, 36407, 36591, 36959, 37199, 37719, 39743, 39847, 40007, 40135, 40255, 40487, 40807, 42616, 42824, 42904, 43103, 43199, 43351, 43879, 46200, 46336, 46528, 46648, 46919, 47528], "trial_type": "free-recall", "conditions": [18, 1200, "a", 18000], "internal_node_id": "0.0-57.0-0.0", "key_presses": [67, 82, 79, 83, 83, 13, 70, 79, 79, 84, 13, 76, 65, 71, 79, 79, 78, 13, 66, 79, 88, 13, 71, 73, 70, 84, 13, 80, 69, 66, 66, 76, 69, 13, 77, 79, 78, 83, 84, 69, 82, 13, 80, 83, 83, 85, 77, 8, 8, 8, 8, 79, 83, 83, 85, 77, 13, 76, 79, 67, 75, 72, 69, 65, 68, 13, 72, 69, 65, 68, 66, 65, 78, 68, 13, 68, 85, 83, 84, 13, 82, 65, 70, 84, 13, 68, 79, 76, 80, 72, 73, 78, 13, 80, 65, 83, 84, 65, 13, 66, 65, 82, 76, 69, 89, 13, 80, 73, 83, 84, 79, 76, 13, 83, 72, 82, 85, 66, 13], "trial": 1, "time_elapsed": 422051, "type": "FREE_RECALL", "trial_index": 75}, "uniqueid": "MTK2011:3YDTZAI2WYNLMHOVOIQ6M3TSS3S41D", "dateTime": 1516646235578}, {"current_trial": 76, "trialdata": {"rt": 14070, "trial_type": "text", "internal_node_id": "0.0-58.0", "time_elapsed": 438123, "key_press": 13, "type": "INSTRUCTIONS", "trial_index": 76}, "uniqueid": "MTK2011:3YDTZAI2WYNLMHOVOIQ6M3TSS3S41D", "dateTime": 1516646251649}, {"current_trial": 77, "trialdata": {"rt": [1847, 6559, 8439, 10319, 12519, 14415, 16279, 17968, 19543, 21591, 23607], "trial_type": "math-distractor", "key_times": [1703, 1847, 6191, 6335, 6559, 8072, 8215, 8439, 10143, 10319, 12239, 12359, 12519, 14152, 14271, 14415, 15967, 16072, 16279, 17647, 17775, 17968, 19191, 19344, 19543, 21232, 21375, 21591, 23279, 23392, 23607], "responses": ["8", "18", "18", "6", "23", "14", "18", "11", "11", "19", "12"], "num2": [4, 2, 5, 1, 9, 5, 1, 1, 8, 8, 4, 2], "num3": [2, 9, 9, 1, 5, 1, 9, 9, 1, 8, 7, 9], "conditions": [24, 800, "a", 24000], "internal_node_id": "0.0-59.0", "key_presses": [56, 13, 49, 56, 13, 49, 56, 13, 54, 13, 50, 51, 13, 49, 52, 13, 49, 56, 13, 49, 49, 13, 49, 49, 13, 49, 57, 13, 49, 50, 13], "trial": 2, "time_elapsed": 463125, "type": "DISTRACTOR", "trial_index": 77, "num1": [6, 7, 4, 4, 9, 8, 8, 1, 2, 3, 1, 5]}, "uniqueid": "MTK2011:3YDTZAI2WYNLMHOVOIQ6M3TSS3S41D", "dateTime": 1516646276651}, {"current_trial": 78, "trialdata": {"rt": -1, "trial_type": "single-stim", "stimulus": "<p id=\"stim\">10</p>", "internal_node_id": "0.0-60.0-0.0", "time_elapsed": 466125, "key_press": -1, "trial_index": 78}, "uniqueid": "MTK2011:3YDTZAI2WYNLMHOVOIQ6M3TSS3S41D", "dateTime": 1516646279651}, {"current_trial": 79, "trialdata": {"rt": -1, "trial_type": "single-stim", "stimulus": "<p id=\"stim\">9</p>", "internal_node_id": "0.0-60.0-1.0", "time_elapsed": 467127, "key_press": -1, "trial_index": 79}, "uniqueid": "MTK2011:3YDTZAI2WYNLMHOVOIQ6M3TSS3S41D", "dateTime": 1516646280653}, {"current_trial": 80, "trialdata": {"rt": -1, "trial_type": "single-stim", "stimulus": "<p id=\"stim\">8</p>", "internal_node_id": "0.0-60.0-2.0", "time_elapsed": 468128, "key_press": -1, "trial_index": 80}, "uniqueid": "MTK2011:3YDTZAI2WYNLMHOVOIQ6M3TSS3S41D", "dateTime": 1516646281654}, {"current_trial": 81, "trialdata": {"rt": -1, "trial_type": "single-stim", "stimulus": "<p id=\"stim\">7</p>", "internal_node_id": "0.0-60.0-3.0", "time_elapsed": 469128, "key_press": -1, "trial_index": 81}, "uniqueid": "MTK2011:3YDTZAI2WYNLMHOVOIQ6M3TSS3S41D", "dateTime": 1516646282654}, {"current_trial": 82, "trialdata": {"rt": -1, "trial_type": "single-stim", "stimulus": "<p id=\"stim\">6</p>", "internal_node_id": "0.0-60.0-4.0", "time_elapsed": 470128, "key_press": -1, "trial_index": 82}, "uniqueid": "MTK2011:3YDTZAI2WYNLMHOVOIQ6M3TSS3S41D", "dateTime": 1516646283654}, {"current_trial": 83, "trialdata": {"rt": -1, "trial_type": "single-stim", "stimulus": "<p id=\"stim\">5</p>", "internal_node_id": "0.0-60.0-5.0", "time_elapsed": 471130, "key_press": -1, "trial_index": 83}, "uniqueid": "MTK2011:3YDTZAI2WYNLMHOVOIQ6M3TSS3S41D", "dateTime": 1516646284656}, {"current_trial": 84, "trialdata": {"rt": -1, "trial_type": "single-stim", "stimulus": "<p id=\"stim\">4</p>", "internal_node_id": "0.0-60.0-6.0", "time_elapsed": 472130, "key_press": -1, "trial_index": 84}, "uniqueid": "MTK2011:3YDTZAI2WYNLMHOVOIQ6M3TSS3S41D", "dateTime": 1516646285656}, {"current_trial": 85, "trialdata": {"rt": -1, "trial_type": "single-stim", "stimulus": "<p id=\"stim\">3</p>", "internal_node_id": "0.0-60.0-7.0", "time_elapsed": 473131, "key_press": -1, "trial_index": 85}, "uniqueid": "MTK2011:3YDTZAI2WYNLMHOVOIQ6M3TSS3S41D", "dateTime": 1516646286657}, {"current_trial": 86, "trialdata": {"rt": -1, "trial_type": "single-stim", "stimulus": "<p id=\"stim\">2</p>", "internal_node_id": "0.0-60.0-8.0", "time_elapsed": 474133, "key_press": -1, "trial_index": 86}, "uniqueid": "MTK2011:3YDTZAI2WYNLMHOVOIQ6M3TSS3S41D", "dateTime": 1516646287659}, {"current_trial": 87, "trialdata": {"rt": -1, "trial_type": "single-stim", "stimulus": "<p id=\"stim\">1</p>", "internal_node_id": "0.0-60.0-9.0", "time_elapsed": 475133, "key_press": -1, "trial_index": 87}, "uniqueid": "MTK2011:3YDTZAI2WYNLMHOVOIQ6M3TSS3S41D", "dateTime": 1516646288659}, {"current_trial": 88, "trialdata": {"rt": -1, "trial_type": "single-stim", "stimulus": "<p id=\"stim\">+</p>", "internal_node_id": "0.0-61.0-0.0", "time_elapsed": 476633, "key_press": -1, "type": "FIXATION", "trial_index": 88}, "uniqueid": "MTK2011:3YDTZAI2WYNLMHOVOIQ6M3TSS3S41D", "dateTime": 1516646290159}, {"current_trial": 89, "trialdata": {"rt": -1000, "trial_type": "single-audio", "word": "coffee", "stimulus": "/static/audio/wordpool/COFFEE.wav", "conditions": [24, 800, "a", 24000], "internal_node_id": "0.0-62.0", "trial": 2, "time_elapsed": 478589, "serialpos": 0, "key_press": -1, "wordID": 340, "type": "PRES_AUD", "trial_index": 89}, "uniqueid": "MTK2011:3YDTZAI2WYNLMHOVOIQ6M3TSS3S41D", "dateTime": 1516646292115}, {"current_trial": 90, "trialdata": {"rt": -1000, "trial_type": "single-audio", "word": "world", "stimulus": "/static/audio/wordpool/WORLD.wav", "conditions": [24, 800, "a", 24000], "internal_node_id": "0.0-63.0", "trial": 2, "time_elapsed": 480236, "serialpos": 1, "key_press": -1, "wordID": 1621, "type": "PRES_AUD", "trial_index": 90}, "uniqueid": "MTK2011:3YDTZAI2WYNLMHOVOIQ6M3TSS3S41D", "dateTime": 1516646293762}, {"current_trial": 91, "trialdata": {"rt": -1000, "trial_type": "single-audio", "word": "transplant", "stimulus": "/static/audio/wordpool/TRANSPLANT.wav", "conditions": [24, 800, "a", 24000], "internal_node_id": "0.0-64.0", "trial": 2, "time_elapsed": 481836, "serialpos": 2, "key_press": -1, "wordID": 1495, "type": "PRES_AUD", "trial_index": 91}, "uniqueid": "MTK2011:3YDTZAI2WYNLMHOVOIQ6M3TSS3S41D", "dateTime": 1516646295362}, {"current_trial": 92, "trialdata": {"rt": -1000, "trial_type": "single-audio", "word": "dancer", "stimulus": "/static/audio/wordpool/DANCER.wav", "conditions": [24, 800, "a", 24000], "internal_node_id": "0.0-65.0", "trial": 2, "time_elapsed": 483705, "serialpos": 3, "key_press": -1, "wordID": 436, "type": "PRES_AUD", "trial_index": 92}, "uniqueid": "MTK2011:3YDTZAI2WYNLMHOVOIQ6M3TSS3S41D", "dateTime": 1516646297231}, {"current_trial": 93, "trialdata": {"rt": -1000, "trial_type": "single-audio", "word": "washer", "stimulus": "/static/audio/wordpool/WASHER.wav", "conditions": [24, 800, "a", 24000], "internal_node_id": "0.0-66.0", "trial": 2, "time_elapsed": 485470, "serialpos": 4, "key_press": -1, "wordID": 1591, "type": "PRES_AUD", "trial_index": 93}, "uniqueid": "MTK2011:3YDTZAI2WYNLMHOVOIQ6M3TSS3S41D", "dateTime": 1516646298996}, {"current_trial": 94, "trialdata": {"rt": -1000, "trial_type": "single-audio", "word": "item", "stimulus": "/static/audio/wordpool/ITEM.wav", "conditions": [24, 800, "a", 24000], "internal_node_id": "0.0-67.0", "trial": 2, "time_elapsed": 487285, "serialpos": 5, "key_press": -1, "wordID": 745, "type": "PRES_AUD", "trial_index": 94}, "uniqueid": "MTK2011:3YDTZAI2WYNLMHOVOIQ6M3TSS3S41D", "dateTime": 1516646300811}, {"current_trial": 95, "trialdata": {"rt": -1000, "trial_type": "single-audio", "word": "globe", "stimulus": "/static/audio/wordpool/GLOBE.wav", "conditions": [24, 800, "a", 24000], "internal_node_id": "0.0-68.0", "trial": 2, "time_elapsed": 488948, "serialpos": 6, "key_press": -1, "wordID": 640, "type": "PRES_AUD", "trial_index": 95}, "uniqueid": "MTK2011:3YDTZAI2WYNLMHOVOIQ6M3TSS3S41D", "dateTime": 1516646302474}, {"current_trial": 96, "trialdata": {"rt": -1000, "trial_type": "single-audio", "word": "liver", "stimulus": "/static/audio/wordpool/LIVER.wav", "conditions": [24, 800, "a", 24000], "internal_node_id": "0.0-69.0", "trial": 2, "time_elapsed": 490782, "serialpos": 7, "key_press": -1, "wordID": 832, "type": "PRES_AUD", "trial_index": 96}, "uniqueid": "MTK2011:3YDTZAI2WYNLMHOVOIQ6M3TSS3S41D", "dateTime": 1516646304308}, {"current_trial": 97, "trialdata": {"rt": -1000, "trial_type": "single-audio", "word": "bacon", "stimulus": "/static/audio/wordpool/BACON.wav", "conditions": [24, 800, "a", 24000], "internal_node_id": "0.0-70.0", "trial": 2, "time_elapsed": 492565, "serialpos": 8, "key_press": -1, "wordID": 66, "type": "PRES_AUD", "trial_index": 97}, "uniqueid": "MTK2011:3YDTZAI2WYNLMHOVOIQ6M3TSS3S41D", "dateTime": 1516646306091}, {"current_trial": 98, "trialdata": {"rt": -1000, "trial_type": "single-audio", "word": "omelet", "stimulus": "/static/audio/wordpool/OMELET.wav", "conditions": [24, 800, "a", 24000], "internal_node_id": "0.0-71.0", "trial": 2, "time_elapsed": 494401, "serialpos": 9, "key_press": -1, "wordID": 975, "type": "PRES_AUD", "trial_index": 98}, "uniqueid": "MTK2011:3YDTZAI2WYNLMHOVOIQ6M3TSS3S41D", "dateTime": 1516646307927}, {"current_trial": 99, "trialdata": {"rt": -1000, "trial_type": "single-audio", "word": "permit", "stimulus": "/static/audio/wordpool/PERMIT.wav", "conditions": [24, 800, "a", 24000], "internal_node_id": "0.0-72.0", "trial": 2, "time_elapsed": 496210, "serialpos": 10, "key_press": -1, "wordID": 1050, "type": "PRES_AUD", "trial_index": 99}, "uniqueid": "MTK2011:3YDTZAI2WYNLMHOVOIQ6M3TSS3S41D", "dateTime": 1516646309736}, {"current_trial": 100, "trialdata": {"rt": -1000, "trial_type": "single-audio", "word": "cocoon", "stimulus": "/static/audio/wordpool/COCOON.wav", "conditions": [24, 800, "a", 24000], "internal_node_id": "0.0-73.0", "trial": 2, "time_elapsed": 498052, "serialpos": 11, "key_press": -1, "wordID": 338, "type": "PRES_AUD", "trial_index": 100}, "uniqueid": "MTK2011:3YDTZAI2WYNLMHOVOIQ6M3TSS3S41D", "dateTime": 1516646311578}, {"current_trial": 101, "trialdata": {"rt": -1000, "trial_type": "single-audio", "word": "plaza", "stimulus": "/static/audio/wordpool/PLAZA.wav", "conditions": [24, 800, "a", 24000], "internal_node_id": "0.0-74.0", "trial": 2, "time_elapsed": 499922, "serialpos": 12, "key_press": -1, "wordID": 1087, "type": "PRES_AUD", "trial_index": 101}, "uniqueid": "MTK2011:3YDTZAI2WYNLMHOVOIQ6M3TSS3S41D", "dateTime": 1516646313448}, {"current_trial": 102, "trialdata": {"rt": -1000, "trial_type": "single-audio", "word": "cellar", "stimulus": "/static/audio/wordpool/CELLAR.wav", "conditions": [24, 800, "a", 24000], "internal_node_id": "0.0-75.0", "trial": 2, "time_elapsed": 501817, "serialpos": 13, "key_press": -1, "wordID": 266, "type": "PRES_AUD", "trial_index": 102}, "uniqueid": "MTK2011:3YDTZAI2WYNLMHOVOIQ6M3TSS3S41D", "dateTime": 1516646315343}, {"current_trial": 103, "trialdata": {"rt": -1000, "trial_type": "single-audio", "word": "egypt", "stimulus": "/static/audio/wordpool/EGYPT.wav", "conditions": [24, 800, "a", 24000], "internal_node_id": "0.0-76.0", "trial": 2, "time_elapsed": 503621, "serialpos": 14, "key_press": -1, "wordID": 518, "type": "PRES_AUD", "trial_index": 103}, "uniqueid": "MTK2011:3YDTZAI2WYNLMHOVOIQ6M3TSS3S41D", "dateTime": 1516646317147}, {"current_trial": 104, "trialdata": {"rt": -1000, "trial_type": "single-audio", "word": "europe", "stimulus": "/static/audio/wordpool/EUROPE.wav", "conditions": [24, 800, "a", 24000], "internal_node_id": "0.0-77.0", "trial": 2, "time_elapsed": 505588, "serialpos": 15, "key_press": -1, "wordID": 540, "type": "PRES_AUD", "trial_index": 104}, "uniqueid": "MTK2011:3YDTZAI2WYNLMHOVOIQ6M3TSS3S41D", "dateTime": 1516646319114}, {"current_trial": 105, "trialdata": {"rt": -1000, "trial_type": "single-audio", "word": "smog", "stimulus": "/static/audio/wordpool/SMOG.wav", "conditions": [24, 800, "a", 24000], "internal_node_id": "0.0-78.0", "trial": 2, "time_elapsed": 507442, "serialpos": 16, "key_press": -1, "wordID": 1329, "type": "PRES_AUD", "trial_index": 105}, "uniqueid": "MTK2011:3YDTZAI2WYNLMHOVOIQ6M3TSS3S41D", "dateTime": 1516646320968}, {"current_trial": 106, "trialdata": {"rt": -1000, "trial_type": "single-audio", "word": "loft", "stimulus": "/static/audio/wordpool/LOFT.wav", "conditions": [24, 800, "a", 24000], "internal_node_id": "0.0-79.0", "trial": 2, "time_elapsed": 509221, "serialpos": 17, "key_press": -1, "wordID": 839, "type": "PRES_AUD", "trial_index": 106}, "uniqueid": "MTK2011:3YDTZAI2WYNLMHOVOIQ6M3TSS3S41D", "dateTime": 1516646322747}, {"current_trial": 107, "trialdata": {"rt": -1000, "trial_type": "single-audio", "word": "victim", "stimulus": "/static/audio/wordpool/VICTIM.wav", "conditions": [24, 800, "a", 24000], "internal_node_id": "0.0-80.0", "trial": 2, "time_elapsed": 511186, "serialpos": 18, "key_press": -1, "wordID": 1561, "type": "PRES_AUD", "trial_index": 107}, "uniqueid": "MTK2011:3YDTZAI2WYNLMHOVOIQ6M3TSS3S41D", "dateTime": 1516646324712}, {"current_trial": 108, "trialdata": {"rt": -1000, "trial_type": "single-audio", "word": "burglar", "stimulus": "/static/audio/wordpool/BURGLAR.wav", "conditions": [24, 800, "a", 24000], "internal_node_id": "0.0-81.0", "trial": 2, "time_elapsed": 513066, "serialpos": 19, "key_press": -1, "wordID": 199, "type": "PRES_AUD", "trial_index": 108}, "uniqueid": "MTK2011:3YDTZAI2WYNLMHOVOIQ6M3TSS3S41D", "dateTime": 1516646326593}, {"current_trial": 109, "trialdata": {"rt": -1000, "trial_type": "single-audio", "word": "spouse", "stimulus": "/static/audio/wordpool/SPOUSE.wav", "conditions": [24, 800, "a", 24000], "internal_node_id": "0.0-82.0", "trial": 2, "time_elapsed": 514970, "serialpos": 20, "key_press": -1, "wordID": 1357, "type": "PRES_AUD", "trial_index": 109}, "uniqueid": "MTK2011:3YDTZAI2WYNLMHOVOIQ6M3TSS3S41D", "dateTime": 1516646328496}, {"current_trial": 110, "trialdata": {"rt": -1000, "trial_type": "single-audio", "word": "cupboard", "stimulus": "/static/audio/wordpool/CUPBOARD.wav", "conditions": [24, 800, "a", 24000], "internal_node_id": "0.0-83.0", "trial": 2, "time_elapsed": 516619, "serialpos": 21, "key_press": -1, "wordID": 424, "type": "PRES_AUD", "trial_index": 110}, "uniqueid": "MTK2011:3YDTZAI2WYNLMHOVOIQ6M3TSS3S41D", "dateTime": 1516646330145}, {"current_trial": 111, "trialdata": {"rt": -1000, "trial_type": "single-audio", "word": "basement", "stimulus": "/static/audio/wordpool/BASEMENT.wav", "conditions": [24, 800, "a", 24000], "internal_node_id": "0.0-84.0", "trial": 2, "time_elapsed": 518450, "serialpos": 22, "key_press": -1, "wordID": 93, "type": "PRES_AUD", "trial_index": 111}, "uniqueid": "MTK2011:3YDTZAI2WYNLMHOVOIQ6M3TSS3S41D", "dateTime": 1516646331976}, {"current_trial": 112, "trialdata": {"rt": -1000, "trial_type": "single-audio", "word": "wagon", "stimulus": "/static/audio/wordpool/WAGON.wav", "conditions": [24, 800, "a", 24000], "internal_node_id": "0.0-85.0", "trial": 2, "time_elapsed": 520279, "serialpos": 23, "key_press": -1, "wordID": 1577, "type": "PRES_AUD", "trial_index": 112}, "uniqueid": "MTK2011:3YDTZAI2WYNLMHOVOIQ6M3TSS3S41D", "dateTime": 1516646333805}, {"current_trial": 113, "trialdata": {"rt": -1, "trial_type": "single-stim", "stimulus": "", "internal_node_id": "0.0-86.0-0.0", "time_elapsed": 521648, "key_press": -1, "type": "PRE_RECALL_DELAY", "trial_index": 113}, "uniqueid": "MTK2011:3YDTZAI2WYNLMHOVOIQ6M3TSS3S41D", "dateTime": 1516646335174}, {"current_trial": 114, "trialdata": {"rt": -1000, "trial_type": "single-audio", "stimulus": "/static/audio/400Hz.wav", "internal_node_id": "0.0-87.0", "time_elapsed": 522149, "key_press": -1, "type": "PRE_RECALL_ALERT", "trial_index": 114}, "uniqueid": "MTK2011:3YDTZAI2WYNLMHOVOIQ6M3TSS3S41D", "dateTime": 1516646335675}, {"current_trial": 115, "trialdata": {"rt": [7513, 9937, 12825, 13993, 16041, 19393, 21466, 23034, 25201, 27409, 28498, 30698, 33690, 37658, 43770, 49203, 55203, 56483], "recwords": ["cofee", "world", "transplant", "dancer", "washer", "plaza", "cellar", "egypt", "europe", "smog", "loft", "victim", "burglar", "spouse", "cubboard", "wagon", "liver", "bacon"], "key_times": [4001, 4161, 4313, 4457, 5449, 5569, 5977, 6137, 6273, 6641, 6770, 7513, 8249, 8313, 8441, 8545, 8657, 9937, 10353, 10513, 10777, 10897, 11458, 11634, 11793, 11905, 12025, 12177, 12825, 13201, 13313, 13401, 13569, 13729, 13833, 13993, 14169, 14273, 14473, 14569, 14649, 14745, 16041, 17097, 17786, 17961, 18225, 18482, 19393, 19817, 19993, 20145, 20337, 20521, 20673, 21466, 21882, 22113, 22417, 22529, 22626, 23034, 23609, 23689, 23849, 24017, 24185, 24305, 25201, 26778, 26890, 27081, 27194, 27409, 27882, 28042, 28106, 28290, 28498, 29602, 29730, 29842, 30082, 30162, 30322, 30698, 31929, 32058, 32178, 33082, 33250, 33346, 33481, 33690, 34458, 34794, 34922, 35057, 35818, 36122, 36281, 36474, 36874, 37026, 37658, 38306, 38426, 38866, 41770, 41874, 41946, 42122, 42330, 43770, 47986, 48106, 48275, 48866, 48994, 49203, 54498, 54682, 54770, 54931, 55043, 55203, 55475, 55611, 56050, 56154, 56290, 56483], "trial_type": "free-recall", "conditions": [24, 800, "a", 24000], "internal_node_id": "0.0-88.0-0.0", "key_presses": [67, 79, 70, 70, 69, 69, 8, 8, 8, 69, 69, 13, 87, 79, 82, 76, 68, 13, 84, 82, 65, 78, 83, 80, 76, 65, 78, 84, 13, 68, 65, 78, 67, 69, 82, 13, 87, 65, 83, 72, 69, 82, 13, 80, 76, 65, 90, 65, 13, 67, 69, 76, 76, 65, 82, 13, 69, 71, 89, 80, 84, 13, 69, 85, 82, 79, 80, 69, 13, 83, 77, 79, 71, 13, 76, 79, 70, 84, 13, 86, 73, 67, 84, 73, 77, 13, 66, 85, 82, 71, 76, 65, 82, 13, 80, 8, 83, 80, 85, 8, 79, 85, 83, 69, 13, 67, 85, 66, 66, 79, 65, 82, 68, 13, 87, 65, 71, 79, 78, 13, 76, 73, 86, 69, 82, 13, 66, 65, 67, 79, 78, 13], "trial": 2, "time_elapsed": 582151, "type": "FREE_RECALL", "trial_index": 115}, "uniqueid": "MTK2011:3YDTZAI2WYNLMHOVOIQ6M3TSS3S41D", "dateTime": 1516646395678}, {"current_trial": 116, "trialdata": {"rt": 1320, "trial_type": "text", "internal_node_id": "0.0-89.0", "time_elapsed": 585473, "key_press": 16, "type": "INSTRUCTIONS", "trial_index": 116}, "uniqueid": "MTK2011:3YDTZAI2WYNLMHOVOIQ6M3TSS3S41D", "dateTime": 1516646398999}, {"current_trial": 117, "trialdata": {"rt": [2015, 3542, 5590, 8134, 10238, 11918, 13446, 15054, 17031, 18935, 22078, 23614], "trial_type": "math-distractor", "key_times": [1719, 1855, 2015, 3326, 3542, 4759, 4879, 5278, 5406, 5590, 7726, 7894, 8134, 9310, 9686, 9814, 9910, 10238, 11590, 11766, 11918, 13270, 13446, 14694, 14871, 15054, 16743, 16895, 17031, 18655, 18799, 18935, 21814, 21919, 22078, 23439, 23614], "responses": ["14", "9", "13", "18", "20", "16", "9", "13", "15", "15", "13", "9"], "num2": [6, 4, 4, 3, 9, 8, 3, 4, 7, 5, 1, 3, 1], "num3": [1, 2, 1, 9, 2, 1, 2, 3, 3, 8, 4, 3, 2], "conditions": [24, 1600, "a", 24000], "internal_node_id": "0.0-90.0", "key_presses": [49, 52, 13, 57, 13, 49, 52, 8, 51, 13, 49, 56, 13, 49, 8, 50, 48, 13, 49, 54, 13, 57, 13, 49, 51, 13, 49, 53, 13, 49, 53, 13, 49, 51, 13, 57, 13], "trial": 3, "time_elapsed": 611473, "type": "DISTRACTOR", "trial_index": 117, "num1": [7, 3, 8, 6, 9, 7, 4, 6, 5, 2, 8, 3, 9]}, "uniqueid": "MTK2011:3YDTZAI2WYNLMHOVOIQ6M3TSS3S41D", "dateTime": 1516646424999}, {"current_trial": 118, "trialdata": {"rt": -1, "trial_type": "single-stim", "stimulus": "<p id=\"stim\">10</p>", "internal_node_id": "0.0-91.0-0.0", "time_elapsed": 614473, "key_press": -1, "trial_index": 118}, "uniqueid": "MTK2011:3YDTZAI2WYNLMHOVOIQ6M3TSS3S41D", "dateTime": 1516646427999}, {"current_trial": 119, "trialdata": {"rt": -1, "trial_type": "single-stim", "stimulus": "<p id=\"stim\">9</p>", "internal_node_id": "0.0-91.0-1.0", "time_elapsed": 615474, "key_press": -1, "trial_index": 119}, "uniqueid": "MTK2011:3YDTZAI2WYNLMHOVOIQ6M3TSS3S41D", "dateTime": 1516646429000}, {"current_trial": 120, "trialdata": {"rt": -1, "trial_type": "single-stim", "stimulus": "<p id=\"stim\">8</p>", "internal_node_id": "0.0-91.0-2.0", "time_elapsed": 616475, "key_press": -1, "trial_index": 120}, "uniqueid": "MTK2011:3YDTZAI2WYNLMHOVOIQ6M3TSS3S41D", "dateTime": 1516646430001}, {"current_trial": 121, "trialdata": {"rt": -1, "trial_type": "single-stim", "stimulus": "<p id=\"stim\">7</p>", "internal_node_id": "0.0-91.0-3.0", "time_elapsed": 617476, "key_press": -1, "trial_index": 121}, "uniqueid": "MTK2011:3YDTZAI2WYNLMHOVOIQ6M3TSS3S41D", "dateTime": 1516646431002}, {"current_trial": 122, "trialdata": {"rt": -1, "trial_type": "single-stim", "stimulus": "<p id=\"stim\">6</p>", "internal_node_id": "0.0-91.0-4.0", "time_elapsed": 618477, "key_press": -1, "trial_index": 122}, "uniqueid": "MTK2011:3YDTZAI2WYNLMHOVOIQ6M3TSS3S41D", "dateTime": 1516646432003}, {"current_trial": 123, "trialdata": {"rt": -1, "trial_type": "single-stim", "stimulus": "<p id=\"stim\">5</p>", "internal_node_id": "0.0-91.0-5.0", "time_elapsed": 619478, "key_press": -1, "trial_index": 123}, "uniqueid": "MTK2011:3YDTZAI2WYNLMHOVOIQ6M3TSS3S41D", "dateTime": 1516646433004}, {"current_trial": 124, "trialdata": {"rt": -1, "trial_type": "single-stim", "stimulus": "<p id=\"stim\">4</p>", "internal_node_id": "0.0-91.0-6.0", "time_elapsed": 620479, "key_press": -1, "trial_index": 124}, "uniqueid": "MTK2011:3YDTZAI2WYNLMHOVOIQ6M3TSS3S41D", "dateTime": 1516646434005}, {"current_trial": 125, "trialdata": {"rt": -1, "trial_type": "single-stim", "stimulus": "<p id=\"stim\">3</p>", "internal_node_id": "0.0-91.0-7.0", "time_elapsed": 621479, "key_press": -1, "trial_index": 125}, "uniqueid": "MTK2011:3YDTZAI2WYNLMHOVOIQ6M3TSS3S41D", "dateTime": 1516646435005}, {"current_trial": 126, "trialdata": {"rt": -1, "trial_type": "single-stim", "stimulus": "<p id=\"stim\">2</p>", "internal_node_id": "0.0-91.0-8.0", "time_elapsed": 622479, "key_press": -1, "trial_index": 126}, "uniqueid": "MTK2011:3YDTZAI2WYNLMHOVOIQ6M3TSS3S41D", "dateTime": 1516646436005}, {"current_trial": 127, "trialdata": {"rt": -1, "trial_type": "single-stim", "stimulus": "<p id=\"stim\">1</p>", "internal_node_id": "0.0-91.0-9.0", "time_elapsed": 623479, "key_press": -1, "trial_index": 127}, "uniqueid": "MTK2011:3YDTZAI2WYNLMHOVOIQ6M3TSS3S41D", "dateTime": 1516646437005}, {"current_trial": 128, "trialdata": {"rt": -1, "trial_type": "single-stim", "stimulus": "<p id=\"stim\">+</p>", "internal_node_id": "0.0-92.0-0.0", "time_elapsed": 624980, "key_press": -1, "type": "FIXATION", "trial_index": 128}, "uniqueid": "MTK2011:3YDTZAI2WYNLMHOVOIQ6M3TSS3S41D", "dateTime": 1516646438506}, {"current_trial": 129, "trialdata": {"rt": -1000, "trial_type": "single-audio", "word": "knife", "stimulus": "/static/audio/wordpool/KNIFE.wav", "conditions": [24, 1600, "a", 24000], "internal_node_id": "0.0-93.0", "trial": 3, "time_elapsed": 627695, "serialpos": 0, "key_press": -1, "wordID": 784, "type": "PRES_AUD", "trial_index": 129}, "uniqueid": "MTK2011:3YDTZAI2WYNLMHOVOIQ6M3TSS3S41D", "dateTime": 1516646441221}, {"current_trial": 130, "trialdata": {"rt": -1000, "trial_type": "single-audio", "word": "scissors", "stimulus": "/static/audio/wordpool/SCISSORS.wav", "conditions": [24, 1600, "a", 24000], "internal_node_id": "0.0-94.0", "trial": 3, "time_elapsed": 630099, "serialpos": 1, "key_press": -1, "wordID": 1249, "type": "PRES_AUD", "trial_index": 130}, "uniqueid": "MTK2011:3YDTZAI2WYNLMHOVOIQ6M3TSS3S41D", "dateTime": 1516646443625}, {"current_trial": 131, "trialdata": {"rt": -1000, "trial_type": "single-audio", "word": "patient", "stimulus": "/static/audio/wordpool/PATIENT.wav", "conditions": [24, 1600, "a", 24000], "internal_node_id": "0.0-95.0", "trial": 3, "time_elapsed": 632571, "serialpos": 2, "key_press": -1, "wordID": 1023, "type": "PRES_AUD", "trial_index": 131}, "uniqueid": "MTK2011:3YDTZAI2WYNLMHOVOIQ6M3TSS3S41D", "dateTime": 1516646446097}, {"current_trial": 132, "trialdata": {"rt": -1000, "trial_type": "single-audio", "word": "marrow", "stimulus": "/static/audio/wordpool/MARROW.wav", "conditions": [24, 1600, "a", 24000], "internal_node_id": "0.0-96.0", "trial": 3, "time_elapsed": 634994, "serialpos": 3, "key_press": -1, "wordID": 871, "type": "PRES_AUD", "trial_index": 132}, "uniqueid": "MTK2011:3YDTZAI2WYNLMHOVOIQ6M3TSS3S41D", "dateTime": 1516646448520}, {"current_trial": 133, "trialdata": {"rt": -1000, "trial_type": "single-audio", "word": "wrench", "stimulus": "/static/audio/wordpool/WRENCH.wav", "conditions": [24, 1600, "a", 24000], "internal_node_id": "0.0-97.0", "trial": 3, "time_elapsed": 637789, "serialpos": 4, "key_press": -1, "wordID": 1624, "type": "PRES_AUD", "trial_index": 133}, "uniqueid": "MTK2011:3YDTZAI2WYNLMHOVOIQ6M3TSS3S41D", "dateTime": 1516646451315}, {"current_trial": 134, "trialdata": {"rt": -1000, "trial_type": "single-audio", "word": "mister", "stimulus": "/static/audio/wordpool/MISTER.wav", "conditions": [24, 1600, "a", 24000], "internal_node_id": "0.0-98.0", "trial": 3, "time_elapsed": 640388, "serialpos": 5, "key_press": -1, "wordID": 900, "type": "PRES_AUD", "trial_index": 134}, "uniqueid": "MTK2011:3YDTZAI2WYNLMHOVOIQ6M3TSS3S41D", "dateTime": 1516646453914}, {"current_trial": 135, "trialdata": {"rt": -1000, "trial_type": "single-audio", "word": "clothes", "stimulus": "/static/audio/wordpool/CLOTHES.wav", "conditions": [24, 1600, "a", 24000], "internal_node_id": "0.0-99.0", "trial": 3, "time_elapsed": 643111, "serialpos": 6, "key_press": -1, "wordID": 326, "type": "PRES_AUD", "trial_index": 135}, "uniqueid": "MTK2011:3YDTZAI2WYNLMHOVOIQ6M3TSS3S41D", "dateTime": 1516646456637}, {"current_trial": 136, "trialdata": {"rt": -1000, "trial_type": "single-audio", "word": "match", "stimulus": "/static/audio/wordpool/MATCH.wav", "conditions": [24, 1600, "a", 24000], "internal_node_id": "0.0-100.0", "trial": 3, "time_elapsed": 645824, "serialpos": 7, "key_press": -1, "wordID": 877, "type": "PRES_AUD", "trial_index": 136}, "uniqueid": "MTK2011:3YDTZAI2WYNLMHOVOIQ6M3TSS3S41D", "dateTime": 1516646459350}, {"current_trial": 137, "trialdata": {"rt": -1000, "trial_type": "single-audio", "word": "sheriff", "stimulus": "/static/audio/wordpool/SHERIFF.wav", "conditions": [24, 1600, "a", 24000], "internal_node_id": "0.0-101.0", "trial": 3, "time_elapsed": 648483, "serialpos": 8, "key_press": -1, "wordID": 1283, "type": "PRES_AUD", "trial_index": 137}, "uniqueid": "MTK2011:3YDTZAI2WYNLMHOVOIQ6M3TSS3S41D", "dateTime": 1516646462009}, {"current_trial": 138, "trialdata": {"rt": -1000, "trial_type": "single-audio", "word": "wardrobe", "stimulus": "/static/audio/wordpool/WARDROBE.wav", "conditions": [24, 1600, "a", 24000], "internal_node_id": "0.0-102.0", "trial": 3, "time_elapsed": 651279, "serialpos": 9, "key_press": -1, "wordID": 1586, "type": "PRES_AUD", "trial_index": 138}, "uniqueid": "MTK2011:3YDTZAI2WYNLMHOVOIQ6M3TSS3S41D", "dateTime": 1516646464805}, {"current_trial": 139, "trialdata": {"rt": -1000, "trial_type": "single-audio", "word": "lettuce", "stimulus": "/static/audio/wordpool/LETTUCE.wav", "conditions": [24, 1600, "a", 24000], "internal_node_id": "0.0-103.0", "trial": 3, "time_elapsed": 654032, "serialpos": 10, "key_press": -1, "wordID": 813, "type": "PRES_AUD", "trial_index": 139}, "uniqueid": "MTK2011:3YDTZAI2WYNLMHOVOIQ6M3TSS3S41D", "dateTime": 1516646467558}, {"current_trial": 140, "trialdata": {"rt": -1000, "trial_type": "single-audio", "word": "girl", "stimulus": "/static/audio/wordpool/GIRL.wav", "conditions": [24, 1600, "a", 24000], "internal_node_id": "0.0-104.0", "trial": 3, "time_elapsed": 656672, "serialpos": 11, "key_press": -1, "wordID": 636, "type": "PRES_AUD", "trial_index": 140}, "uniqueid": "MTK2011:3YDTZAI2WYNLMHOVOIQ6M3TSS3S41D", "dateTime": 1516646470198}, {"current_trial": 141, "trialdata": {"rt": -1000, "trial_type": "single-audio", "word": "pepper", "stimulus": "/static/audio/wordpool/PEPPER.wav", "conditions": [24, 1600, "a", 24000], "internal_node_id": "0.0-105.0", "trial": 3, "time_elapsed": 659417, "serialpos": 12, "key_press": -1, "wordID": 1046, "type": "PRES_AUD", "trial_index": 141}, "uniqueid": "MTK2011:3YDTZAI2WYNLMHOVOIQ6M3TSS3S41D", "dateTime": 1516646472943}, {"current_trial": 142, "trialdata": {"rt": -1000, "trial_type": "single-audio", "word": "zebra", "stimulus": "/static/audio/wordpool/ZEBRA.wav", "conditions": [24, 1600, "a", 24000], "internal_node_id": "0.0-106.0", "trial": 3, "time_elapsed": 661923, "serialpos": 13, "key_press": -1, "wordID": 1634, "type": "PRES_AUD", "trial_index": 142}, "uniqueid": "MTK2011:3YDTZAI2WYNLMHOVOIQ6M3TSS3S41D", "dateTime": 1516646475449}, {"current_trial": 143, "trialdata": {"rt": -1000, "trial_type": "single-audio", "word": "popcorn", "stimulus": "/static/audio/wordpool/POPCORN.wav", "conditions": [24, 1600, "a", 24000], "internal_node_id": "0.0-107.0", "trial": 3, "time_elapsed": 664332, "serialpos": 14, "key_press": -1, "wordID": 1103, "type": "PRES_AUD", "trial_index": 143}, "uniqueid": "MTK2011:3YDTZAI2WYNLMHOVOIQ6M3TSS3S41D", "dateTime": 1516646477858}, {"current_trial": 144, "trialdata": {"rt": -1000, "trial_type": "single-audio", "word": "jelly", "stimulus": "/static/audio/wordpool/JELLY.wav", "conditions": [24, 1600, "a", 24000], "internal_node_id": "0.0-108.0", "trial": 3, "time_elapsed": 666789, "serialpos": 15, "key_press": -1, "wordID": 754, "type": "PRES_AUD", "trial_index": 144}, "uniqueid": "MTK2011:3YDTZAI2WYNLMHOVOIQ6M3TSS3S41D", "dateTime": 1516646480315}, {"current_trial": 145, "trialdata": {"rt": -1000, "trial_type": "single-audio", "word": "skillet", "stimulus": "/static/audio/wordpool/SKILLET.wav", "conditions": [24, 1600, "a", 24000], "internal_node_id": "0.0-109.0", "trial": 3, "time_elapsed": 669300, "serialpos": 16, "key_press": -1, "wordID": 1316, "type": "PRES_AUD", "trial_index": 145}, "uniqueid": "MTK2011:3YDTZAI2WYNLMHOVOIQ6M3TSS3S41D", "dateTime": 1516646482826}, {"current_trial": 146, "trialdata": {"rt": -1000, "trial_type": "single-audio", "word": "virus", "stimulus": "/static/audio/wordpool/VIRUS.wav", "conditions": [24, 1600, "a", 24000], "internal_node_id": "0.0-110.0", "trial": 3, "time_elapsed": 671845, "serialpos": 17, "key_press": -1, "wordID": 1571, "type": "PRES_AUD", "trial_index": 146}, "uniqueid": "MTK2011:3YDTZAI2WYNLMHOVOIQ6M3TSS3S41D", "dateTime": 1516646485371}, {"current_trial": 147, "trialdata": {"rt": -1000, "trial_type": "single-audio", "word": "bug", "stimulus": "/static/audio/wordpool/BUG.wav", "conditions": [24, 1600, "a", 24000], "internal_node_id": "0.0-111.0", "trial": 3, "time_elapsed": 674396, "serialpos": 18, "key_press": -1, "wordID": 186, "type": "PRES_AUD", "trial_index": 147}, "uniqueid": "MTK2011:3YDTZAI2WYNLMHOVOIQ6M3TSS3S41D", "dateTime": 1516646487922}, {"current_trial": 148, "trialdata": {"rt": -1000, "trial_type": "single-audio", "word": "binder", "stimulus": "/static/audio/wordpool/BINDER.wav", "conditions": [24, 1600, "a", 24000], "internal_node_id": "0.0-112.0", "trial": 3, "time_elapsed": 676870, "serialpos": 19, "key_press": -1, "wordID": 126, "type": "PRES_AUD", "trial_index": 148}, "uniqueid": "MTK2011:3YDTZAI2WYNLMHOVOIQ6M3TSS3S41D", "dateTime": 1516646490396}, {"current_trial": 149, "trialdata": {"rt": -1000, "trial_type": "single-audio", "word": "scallop", "stimulus": "/static/audio/wordpool/SCALLOP.wav", "conditions": [24, 1600, "a", 24000], "internal_node_id": "0.0-113.0", "trial": 3, "time_elapsed": 679501, "serialpos": 20, "key_press": -1, "wordID": 1241, "type": "PRES_AUD", "trial_index": 149}, "uniqueid": "MTK2011:3YDTZAI2WYNLMHOVOIQ6M3TSS3S41D", "dateTime": 1516646493027}, {"current_trial": 150, "trialdata": {"rt": -1000, "trial_type": "single-audio", "word": "rod", "stimulus": "/static/audio/wordpool/ROD.wav", "conditions": [24, 1600, "a", 24000], "internal_node_id": "0.0-114.0", "trial": 3, "time_elapsed": 682002, "serialpos": 21, "key_press": -1, "wordID": 1202, "type": "PRES_AUD", "trial_index": 150}, "uniqueid": "MTK2011:3YDTZAI2WYNLMHOVOIQ6M3TSS3S41D", "dateTime": 1516646495528}, {"current_trial": 151, "trialdata": {"rt": -1000, "trial_type": "single-audio", "word": "pigment", "stimulus": "/static/audio/wordpool/PIGMENT.wav", "conditions": [24, 1600, "a", 24000], "internal_node_id": "0.0-115.0", "trial": 3, "time_elapsed": 684538, "serialpos": 22, "key_press": -1, "wordID": 1065, "type": "PRES_AUD", "trial_index": 151}, "uniqueid": "MTK2011:3YDTZAI2WYNLMHOVOIQ6M3TSS3S41D", "dateTime": 1516646498064}, {"current_trial": 152, "trialdata": {"rt": -1000, "trial_type": "single-audio", "word": "spoon", "stimulus": "/static/audio/wordpool/SPOON.wav", "conditions": [24, 1600, "a", 24000], "internal_node_id": "0.0-116.0", "trial": 3, "time_elapsed": 687115, "serialpos": 23, "key_press": -1, "wordID": 1356, "type": "PRES_AUD", "trial_index": 152}, "uniqueid": "MTK2011:3YDTZAI2WYNLMHOVOIQ6M3TSS3S41D", "dateTime": 1516646500641}, {"current_trial": 153, "trialdata": {"rt": -1, "trial_type": "single-stim", "stimulus": "", "internal_node_id": "0.0-117.0-0.0", "time_elapsed": 688322, "key_press": -1, "type": "PRE_RECALL_DELAY", "trial_index": 153}, "uniqueid": "MTK2011:3YDTZAI2WYNLMHOVOIQ6M3TSS3S41D", "dateTime": 1516646501848}, {"current_trial": 154, "trialdata": {"rt": -1000, "trial_type": "single-audio", "stimulus": "/static/audio/400Hz.wav", "internal_node_id": "0.0-118.0", "time_elapsed": 688824, "key_press": -1, "type": "PRE_RECALL_ALERT", "trial_index": 154}, "uniqueid": "MTK2011:3YDTZAI2WYNLMHOVOIQ6M3TSS3S41D", "dateTime": 1516646502350}, {"current_trial": 155, "trialdata": {"rt": [4356, 6484, 9668, 14292, 16796, 19908, 24323, 27155, 28435, 29851, 31996, 35580, 37660, 40812, 42100, 44156, 46549, 49756, 51509, 55325], "recwords": ["knife", "scissors", "patient", "match", "wrench", "sherrif", "wardrobe", "lettuce", "girl", "pepper", "zebra", "popcorn", "jelly", "skillet", "virus", "bug", "binder", "scallop", "rod", "pigment"], "key_times": [2900, 3051, 3188, 3332, 3436, 4356, 4676, 4836, 5172, 5371, 5516, 5748, 5891, 6084, 6484, 7371, 7492, 7676, 7844, 8324, 8468, 8908, 9668, 12588, 12668, 12804, 13044, 13212, 14292, 15020, 15188, 15708, 16164, 16276, 16444, 16796, 17204, 17316, 17476, 17612, 18356, 18484, 18668, 19052, 19188, 19332, 19420, 19908, 21899, 22011, 22163, 22539, 23627, 23779, 23907, 24059, 24323, 24707, 24819, 24996, 25155, 25227, 25564, 25675, 26275, 26491, 26588, 26707, 27155, 27771, 27859, 27963, 28084, 28435, 28795, 28916, 29035, 29163, 29284, 29395, 29851, 30571, 30756, 31011, 31124, 31243, 31996, 32676, 33028, 33692, 34412, 34587, 34708, 34876, 35580, 36204, 36316, 36452, 36604, 36756, 37660, 38428, 38548, 38740, 38948, 39092, 39820, 39948, 40812, 41212, 41324, 41604, 41780, 41860, 42100, 42716, 42876, 42996, 44156, 45556, 45684, 45820, 45972, 46157, 46252, 46549, 47860, 48020, 48484, 48628, 48780, 48996, 49204, 49756, 50668, 50837, 50949, 51509, 53548, 53900, 54036, 54269, 54372, 54484, 54564, 55325], "trial_type": "free-recall", "conditions": [24, 1600, "a", 24000], "internal_node_id": "0.0-119.0-0.0", "key_presses": [75, 78, 73, 70, 69, 13, 83, 67, 73, 83, 83, 79, 82, 83, 13, 80, 65, 84, 73, 69, 78, 84, 13, 77, 65, 84, 67, 72, 13, 87, 82, 69, 78, 67, 72, 13, 83, 72, 82, 82, 8, 8, 69, 82, 82, 73, 70, 13, 87, 65, 82, 68, 82, 79, 66, 69, 13, 76, 69, 84, 84, 85, 8, 84, 8, 85, 67, 69, 13, 71, 73, 82, 76, 13, 80, 69, 80, 80, 69, 82, 13, 90, 69, 66, 82, 65, 13, 80, 79, 80, 67, 79, 82, 78, 13, 74, 69, 76, 76, 89, 13, 83, 75, 73, 76, 76, 69, 84, 13, 86, 73, 82, 85, 83, 13, 66, 85, 71, 13, 66, 73, 78, 68, 69, 82, 13, 83, 67, 65, 76, 76, 79, 80, 13, 82, 79, 68, 13, 80, 73, 71, 77, 69, 78, 84, 13], "trial": 3, "time_elapsed": 748824, "type": "FREE_RECALL", "trial_index": 155}, "uniqueid": "MTK2011:3YDTZAI2WYNLMHOVOIQ6M3TSS3S41D", "dateTime": 1516646562352}, {"current_trial": 156, "trialdata": {"rt": 1811, "trial_type": "text", "internal_node_id": "0.0-120.0", "time_elapsed": 752638, "key_press": 13, "type": "INSTRUCTIONS", "trial_index": 156}, "uniqueid": "MTK2011:3YDTZAI2WYNLMHOVOIQ6M3TSS3S41D", "dateTime": 1516646566164}, {"current_trial": 157, "trialdata": {"rt": [2167, 4879, 6943, 8551, 11567, 13767, 17225, 18880, 21000], "trial_type": "math-distractor", "key_times": [1999, 2167, 3743, 4455, 4879, 6535, 6807, 6943, 8135, 8335, 8551, 11319, 11408, 11567, 13295, 13479, 13767, 16496, 16800, 16904, 17001, 17225, 18489, 18688, 18880, 20672, 20841, 21000], "responses": ["9", "19", "16", "14", "24", "10", "20", "16", "11"], "num2": [6, 8, 3, 2, 9, 1, 3, 6, 3, 8], "num3": [1, 8, 8, 4, 8, 2, 8, 6, 4, 4], "conditions": [24, 1600, "a", 24000], "internal_node_id": "0.0-121.0", "key_presses": [57, 13, 49, 57, 13, 49, 54, 13, 49, 52, 13, 50, 52, 13, 49, 48, 13, 49, 8, 50, 48, 13, 49, 54, 13, 49, 49, 13], "trial": 4, "time_elapsed": 778641, "type": "DISTRACTOR", "trial_index": 157, "num1": [2, 3, 5, 9, 7, 7, 9, 4, 2, 9]}, "uniqueid": "MTK2011:3YDTZAI2WYNLMHOVOIQ6M3TSS3S41D", "dateTime": 1516646592167}, {"current_trial": 158, "trialdata": {"rt": -1, "trial_type": "single-stim", "stimulus": "<p id=\"stim\">10</p>", "internal_node_id": "0.0-122.0-0.0", "time_elapsed": 781641, "key_press": -1, "trial_index": 158}, "uniqueid": "MTK2011:3YDTZAI2WYNLMHOVOIQ6M3TSS3S41D", "dateTime": 1516646595167}, {"current_trial": 159, "trialdata": {"rt": -1, "trial_type": "single-stim", "stimulus": "<p id=\"stim\">9</p>", "internal_node_id": "0.0-122.0-1.0", "time_elapsed": 782642, "key_press": -1, "trial_index": 159}, "uniqueid": "MTK2011:3YDTZAI2WYNLMHOVOIQ6M3TSS3S41D", "dateTime": 1516646596168}, {"current_trial": 160, "trialdata": {"rt": -1, "trial_type": "single-stim", "stimulus": "<p id=\"stim\">8</p>", "internal_node_id": "0.0-122.0-2.0", "time_elapsed": 783643, "key_press": -1, "trial_index": 160}, "uniqueid": "MTK2011:3YDTZAI2WYNLMHOVOIQ6M3TSS3S41D", "dateTime": 1516646597169}, {"current_trial": 161, "trialdata": {"rt": -1, "trial_type": "single-stim", "stimulus": "<p id=\"stim\">7</p>", "internal_node_id": "0.0-122.0-3.0", "time_elapsed": 784643, "key_press": -1, "trial_index": 161}, "uniqueid": "MTK2011:3YDTZAI2WYNLMHOVOIQ6M3TSS3S41D", "dateTime": 1516646598169}, {"current_trial": 162, "trialdata": {"rt": -1, "trial_type": "single-stim", "stimulus": "<p id=\"stim\">6</p>", "internal_node_id": "0.0-122.0-4.0", "time_elapsed": 785643, "key_press": -1, "trial_index": 162}, "uniqueid": "MTK2011:3YDTZAI2WYNLMHOVOIQ6M3TSS3S41D", "dateTime": 1516646599169}, {"current_trial": 163, "trialdata": {"rt": -1, "trial_type": "single-stim", "stimulus": "<p id=\"stim\">5</p>", "internal_node_id": "0.0-122.0-5.0", "time_elapsed": 786644, "key_press": -1, "trial_index": 163}, "uniqueid": "MTK2011:3YDTZAI2WYNLMHOVOIQ6M3TSS3S41D", "dateTime": 1516646600170}, {"current_trial": 164, "trialdata": {"rt": -1, "trial_type": "single-stim", "stimulus": "<p id=\"stim\">4</p>", "internal_node_id": "0.0-122.0-6.0", "time_elapsed": 787644, "key_press": -1, "trial_index": 164}, "uniqueid": "MTK2011:3YDTZAI2WYNLMHOVOIQ6M3TSS3S41D", "dateTime": 1516646601170}, {"current_trial": 165, "trialdata": {"rt": -1, "trial_type": "single-stim", "stimulus": "<p id=\"stim\">3</p>", "internal_node_id": "0.0-122.0-7.0", "time_elapsed": 788645, "key_press": -1, "trial_index": 165}, "uniqueid": "MTK2011:3YDTZAI2WYNLMHOVOIQ6M3TSS3S41D", "dateTime": 1516646602171}, {"current_trial": 166, "trialdata": {"rt": -1, "trial_type": "single-stim", "stimulus": "<p id=\"stim\">2</p>", "internal_node_id": "0.0-122.0-8.0", "time_elapsed": 789647, "key_press": -1, "trial_index": 166}, "uniqueid": "MTK2011:3YDTZAI2WYNLMHOVOIQ6M3TSS3S41D", "dateTime": 1516646603173}, {"current_trial": 167, "trialdata": {"rt": -1, "trial_type": "single-stim", "stimulus": "<p id=\"stim\">1</p>", "internal_node_id": "0.0-122.0-9.0", "time_elapsed": 790647, "key_press": -1, "trial_index": 167}, "uniqueid": "MTK2011:3YDTZAI2WYNLMHOVOIQ6M3TSS3S41D", "dateTime": 1516646604173}, {"current_trial": 168, "trialdata": {"rt": -1, "trial_type": "single-stim", "stimulus": "<p id=\"stim\">+</p>", "internal_node_id": "0.0-123.0-0.0", "time_elapsed": 792149, "key_press": -1, "type": "FIXATION", "trial_index": 168}, "uniqueid": "MTK2011:3YDTZAI2WYNLMHOVOIQ6M3TSS3S41D", "dateTime": 1516646605675}, {"current_trial": 169, "trialdata": {"rt": -1000, "trial_type": "single-audio", "word": "palace", "stimulus": "/static/audio/wordpool/PALACE.wav", "conditions": [24, 1600, "a", 24000], "internal_node_id": "0.0-124.0", "trial": 4, "time_elapsed": 794731, "serialpos": 0, "key_press": -1, "wordID": 1005, "type": "PRES_AUD", "trial_index": 169}, "uniqueid": "MTK2011:3YDTZAI2WYNLMHOVOIQ6M3TSS3S41D", "dateTime": 1516646608257}, {"current_trial": 170, "trialdata": {"rt": -1000, "trial_type": "single-audio", "word": "scarecrow", "stimulus": "/static/audio/wordpool/SCARECROW.wav", "conditions": [24, 1600, "a", 24000], "internal_node_id": "0.0-125.0", "trial": 4, "time_elapsed": 797135, "serialpos": 1, "key_press": -1, "wordID": 1244, "type": "PRES_AUD", "trial_index": 170}, "uniqueid": "MTK2011:3YDTZAI2WYNLMHOVOIQ6M3TSS3S41D", "dateTime": 1516646610662}, {"current_trial": 171, "trialdata": {"rt": -1000, "trial_type": "single-audio", "word": "child", "stimulus": "/static/audio/wordpool/CHILD.wav", "conditions": [24, 1600, "a", 24000], "internal_node_id": "0.0-126.0", "trial": 4, "time_elapsed": 799608, "serialpos": 2, "key_press": -1, "wordID": 298, "type": "PRES_AUD", "trial_index": 171}, "uniqueid": "MTK2011:3YDTZAI2WYNLMHOVOIQ6M3TSS3S41D", "dateTime": 1516646613134}, {"current_trial": 172, "trialdata": {"rt": -1000, "trial_type": "single-audio", "word": "twig", "stimulus": "/static/audio/wordpool/TWIG.wav", "conditions": [24, 1600, "a", 24000], "internal_node_id": "0.0-127.0", "trial": 4, "time_elapsed": 802247, "serialpos": 3, "key_press": -1, "wordID": 1526, "type": "PRES_AUD", "trial_index": 172}, "uniqueid": "MTK2011:3YDTZAI2WYNLMHOVOIQ6M3TSS3S41D", "dateTime": 1516646615773}, {"current_trial": 173, "trialdata": {"rt": -1000, "trial_type": "single-audio", "word": "canal", "stimulus": "/static/audio/wordpool/CANAL.wav", "conditions": [24, 1600, "a", 24000], "internal_node_id": "0.0-128.0", "trial": 4, "time_elapsed": 805000, "serialpos": 4, "key_press": -1, "wordID": 225, "type": "PRES_AUD", "trial_index": 173}, "uniqueid": "MTK2011:3YDTZAI2WYNLMHOVOIQ6M3TSS3S41D", "dateTime": 1516646618526}, {"current_trial": 174, "trialdata": {"rt": -1000, "trial_type": "single-audio", "word": "human", "stimulus": "/static/audio/wordpool/HUMAN.wav", "conditions": [24, 1600, "a", 24000], "internal_node_id": "0.0-129.0", "trial": 4, "time_elapsed": 807600, "serialpos": 5, "key_press": -1, "wordID": 725, "type": "PRES_AUD", "trial_index": 174}, "uniqueid": "MTK2011:3YDTZAI2WYNLMHOVOIQ6M3TSS3S41D", "dateTime": 1516646621126}, {"current_trial": 175, "trialdata": {"rt": -1000, "trial_type": "single-audio", "word": "mailbox", "stimulus": "/static/audio/wordpool/MAILBOX.wav", "conditions": [24, 1600, "a", 24000], "internal_node_id": "0.0-130.0", "trial": 4, "time_elapsed": 810314, "serialpos": 6, "key_press": -1, "wordID": 856, "type": "PRES_AUD", "trial_index": 175}, "uniqueid": "MTK2011:3YDTZAI2WYNLMHOVOIQ6M3TSS3S41D", "dateTime": 1516646623840}, {"current_trial": 176, "trialdata": {"rt": -1000, "trial_type": "single-audio", "word": "garbage", "stimulus": "/static/audio/wordpool/GARBAGE.wav", "conditions": [24, 1600, "a", 24000], "internal_node_id": "0.0-131.0", "trial": 4, "time_elapsed": 812750, "serialpos": 7, "key_press": -1, "wordID": 621, "type": "PRES_AUD", "trial_index": 176}, "uniqueid": "MTK2011:3YDTZAI2WYNLMHOVOIQ6M3TSS3S41D", "dateTime": 1516646626276}, {"current_trial": 177, "trialdata": {"rt": -1000, "trial_type": "single-audio", "word": "dragon", "stimulus": "/static/audio/wordpool/DRAGON.wav", "conditions": [24, 1600, "a", 24000], "internal_node_id": "0.0-132.0", "trial": 4, "time_elapsed": 815198, "serialpos": 8, "key_press": -1, "wordID": 491, "type": "PRES_AUD", "trial_index": 177}, "uniqueid": "MTK2011:3YDTZAI2WYNLMHOVOIQ6M3TSS3S41D", "dateTime": 1516646628724}, {"current_trial": 178, "trialdata": {"rt": -1000, "trial_type": "single-audio", "word": "goblin", "stimulus": "/static/audio/wordpool/GOBLIN.wav", "conditions": [24, 1600, "a", 24000], "internal_node_id": "0.0-133.0", "trial": 4, "time_elapsed": 817833, "serialpos": 9, "key_press": -1, "wordID": 644, "type": "PRES_AUD", "trial_index": 178}, "uniqueid": "MTK2011:3YDTZAI2WYNLMHOVOIQ6M3TSS3S41D", "dateTime": 1516646631359}, {"current_trial": 179, "trialdata": {"rt": -1000, "trial_type": "single-audio", "word": "ghetto", "stimulus": "/static/audio/wordpool/GHETTO.wav", "conditions": [24, 1600, "a", 24000], "internal_node_id": "0.0-134.0", "trial": 4, "time_elapsed": 820457, "serialpos": 10, "key_press": -1, "wordID": 632, "type": "PRES_AUD", "trial_index": 179}, "uniqueid": "MTK2011:3YDTZAI2WYNLMHOVOIQ6M3TSS3S41D", "dateTime": 1516646633983}, {"current_trial": 180, "trialdata": {"rt": -1000, "trial_type": "single-audio", "word": "river", "stimulus": "/static/audio/wordpool/RIVER.wav", "conditions": [24, 1600, "a", 24000], "internal_node_id": "0.0-135.0", "trial": 4, "time_elapsed": 823185, "serialpos": 11, "key_press": -1, "wordID": 1193, "type": "PRES_AUD", "trial_index": 180}, "uniqueid": "MTK2011:3YDTZAI2WYNLMHOVOIQ6M3TSS3S41D", "dateTime": 1516646636711}, {"current_trial": 181, "trialdata": {"rt": -1000, "trial_type": "single-audio", "word": "muffin", "stimulus": "/static/audio/wordpool/MUFFIN.wav", "conditions": [24, 1600, "a", 24000], "internal_node_id": "0.0-136.0", "trial": 4, "time_elapsed": 825937, "serialpos": 12, "key_press": -1, "wordID": 928, "type": "PRES_AUD", "trial_index": 181}, "uniqueid": "MTK2011:3YDTZAI2WYNLMHOVOIQ6M3TSS3S41D", "dateTime": 1516646639463}, {"current_trial": 182, "trialdata": {"rt": -1000, "trial_type": "single-audio", "word": "valve", "stimulus": "/static/audio/wordpool/VALVE.wav", "conditions": [24, 1600, "a", 24000], "internal_node_id": "0.0-137.0", "trial": 4, "time_elapsed": 828642, "serialpos": 13, "key_press": -1, "wordID": 1545, "type": "PRES_AUD", "trial_index": 182}, "uniqueid": "MTK2011:3YDTZAI2WYNLMHOVOIQ6M3TSS3S41D", "dateTime": 1516646642168}, {"current_trial": 183, "trialdata": {"rt": -1000, "trial_type": "single-audio", "word": "clamp", "stimulus": "/static/audio/wordpool/CLAMP.wav", "conditions": [24, 1600, "a", 24000], "internal_node_id": "0.0-138.0", "trial": 4, "time_elapsed": 831319, "serialpos": 14, "key_press": -1, "wordID": 315, "type": "PRES_AUD", "trial_index": 183}, "uniqueid": "MTK2011:3YDTZAI2WYNLMHOVOIQ6M3TSS3S41D", "dateTime": 1516646644845}, {"current_trial": 184, "trialdata": {"rt": -1000, "trial_type": "single-audio", "word": "turkey", "stimulus": "/static/audio/wordpool/TURKEY.wav", "conditions": [24, 1600, "a", 24000], "internal_node_id": "0.0-139.0", "trial": 4, "time_elapsed": 834089, "serialpos": 15, "key_press": -1, "wordID": 1519, "type": "PRES_AUD", "trial_index": 184}, "uniqueid": "MTK2011:3YDTZAI2WYNLMHOVOIQ6M3TSS3S41D", "dateTime": 1516646647615}, {"current_trial": 185, "trialdata": {"rt": -1000, "trial_type": "single-audio", "word": "bubble", "stimulus": "/static/audio/wordpool/BUBBLE.wav", "conditions": [24, 1600, "a", 24000], "internal_node_id": "0.0-140.0", "trial": 4, "time_elapsed": 836767, "serialpos": 16, "key_press": -1, "wordID": 182, "type": "PRES_AUD", "trial_index": 185}, "uniqueid": "MTK2011:3YDTZAI2WYNLMHOVOIQ6M3TSS3S41D", "dateTime": 1516646650293}, {"current_trial": 186, "trialdata": {"rt": -1000, "trial_type": "single-audio", "word": "garlic", "stimulus": "/static/audio/wordpool/GARLIC.wav", "conditions": [24, 1600, "a", 24000], "internal_node_id": "0.0-141.0", "trial": 4, "time_elapsed": 839446, "serialpos": 17, "key_press": -1, "wordID": 623, "type": "PRES_AUD", "trial_index": 186}, "uniqueid": "MTK2011:3YDTZAI2WYNLMHOVOIQ6M3TSS3S41D", "dateTime": 1516646652972}, {"current_trial": 187, "trialdata": {"rt": -1000, "trial_type": "single-audio", "word": "onion", "stimulus": "/static/audio/wordpool/ONION.wav", "conditions": [24, 1600, "a", 24000], "internal_node_id": "0.0-142.0", "trial": 4, "time_elapsed": 842119, "serialpos": 18, "key_press": -1, "wordID": 976, "type": "PRES_AUD", "trial_index": 187}, "uniqueid": "MTK2011:3YDTZAI2WYNLMHOVOIQ6M3TSS3S41D", "dateTime": 1516646655645}, {"current_trial": 188, "trialdata": {"rt": -1000, "trial_type": "single-audio", "word": "journal", "stimulus": "/static/audio/wordpool/JOURNAL.wav", "conditions": [24, 1600, "a", 24000], "internal_node_id": "0.0-143.0", "trial": 4, "time_elapsed": 844599, "serialpos": 19, "key_press": -1, "wordID": 759, "type": "PRES_AUD", "trial_index": 188}, "uniqueid": "MTK2011:3YDTZAI2WYNLMHOVOIQ6M3TSS3S41D", "dateTime": 1516646658125}, {"current_trial": 189, "trialdata": {"rt": -1000, "trial_type": "single-audio", "word": "cookbook", "stimulus": "/static/audio/wordpool/COOKBOOK.wav", "conditions": [24, 1600, "a", 24000], "internal_node_id": "0.0-144.0", "trial": 4, "time_elapsed": 847205, "serialpos": 20, "key_press": -1, "wordID": 372, "type": "PRES_AUD", "trial_index": 189}, "uniqueid": "MTK2011:3YDTZAI2WYNLMHOVOIQ6M3TSS3S41D", "dateTime": 1516646660731}, {"current_trial": 190, "trialdata": {"rt": -1000, "trial_type": "single-audio", "word": "gavel", "stimulus": "/static/audio/wordpool/GAVEL.wav", "conditions": [24, 1600, "a", 24000], "internal_node_id": "0.0-145.0", "trial": 4, "time_elapsed": 849833, "serialpos": 21, "key_press": -1, "wordID": 626, "type": "PRES_AUD", "trial_index": 190}, "uniqueid": "MTK2011:3YDTZAI2WYNLMHOVOIQ6M3TSS3S41D", "dateTime": 1516646663359}, {"current_trial": 191, "trialdata": {"rt": -1000, "trial_type": "single-audio", "word": "pork", "stimulus": "/static/audio/wordpool/PORK.wav", "conditions": [24, 1600, "a", 24000], "internal_node_id": "0.0-146.0", "trial": 4, "time_elapsed": 852294, "serialpos": 22, "key_press": -1, "wordID": 1107, "type": "PRES_AUD", "trial_index": 191}, "uniqueid": "MTK2011:3YDTZAI2WYNLMHOVOIQ6M3TSS3S41D", "dateTime": 1516646665820}, {"current_trial": 192, "trialdata": {"rt": -1000, "trial_type": "single-audio", "word": "switch", "stimulus": "/static/audio/wordpool/SWITCH.wav", "conditions": [24, 1600, "a", 24000], "internal_node_id": "0.0-147.0", "trial": 4, "time_elapsed": 854810, "serialpos": 23, "key_press": -1, "wordID": 1421, "type": "PRES_AUD", "trial_index": 192}, "uniqueid": "MTK2011:3YDTZAI2WYNLMHOVOIQ6M3TSS3S41D", "dateTime": 1516646668336}, {"current_trial": 193, "trialdata": {"rt": -1, "trial_type": "single-stim", "stimulus": "", "internal_node_id": "0.0-148.0-0.0", "time_elapsed": 856091, "key_press": -1, "type": "PRE_RECALL_DELAY", "trial_index": 193}, "uniqueid": "MTK2011:3YDTZAI2WYNLMHOVOIQ6M3TSS3S41D", "dateTime": 1516646669617}, {"current_trial": 194, "trialdata": {"rt": -1000, "trial_type": "single-audio", "stimulus": "/static/audio/400Hz.wav", "internal_node_id": "0.0-149.0", "time_elapsed": 856591, "key_press": -1, "type": "PRE_RECALL_ALERT", "trial_index": 194}, "uniqueid": "MTK2011:3YDTZAI2WYNLMHOVOIQ6M3TSS3S41D", "dateTime": 1516646670117}, {"current_trial": 195, "trialdata": {"rt": [2593, 5818, 7986, 9722, 11595, 13683, 15114, 16738, 18291, 19634, 22482, 25674, 29139, 30651, 32810, 34747, 36564, 38924, 40517, 56020], "recwords": ["palace", "scarecrow", "child", "twig", "human", "mailbox", "canal", "trash", "river", "dragon", "goblin", "ghetto", "bubble", "garlic", "onion", "journal", "cookbook", "pork", "muffin", "turkey"], "key_times": [1001, 1153, 1329, 1457, 2290, 2426, 2593, 3081, 3402, 3729, 3826, 4218, 4346, 4473, 4794, 5082, 5226, 5298, 5818, 6090, 6923, 7122, 7346, 7482, 7986, 8722, 9154, 9322, 9418, 9722, 10242, 10418, 10762, 10946, 11114, 11203, 11322, 11595, 11922, 12018, 12114, 12282, 12466, 12578, 12858, 13683, 14034, 14186, 14266, 14410, 14699, 15114, 15522, 15642, 15890, 16114, 16242, 16738, 17178, 17314, 17410, 17570, 17706, 18291, 18498, 18682, 18770, 18962, 19130, 19282, 19634, 20002, 20114, 21186, 21498, 21682, 21842, 22482, 23618, 24122, 24314, 24603, 24746, 25018, 25674, 27730, 27890, 28050, 28186, 28474, 28858, 29139, 29675, 29883, 30019, 30139, 30306, 30426, 30651, 31019, 31194, 31691, 32442, 32611, 32810, 33042, 33227, 33394, 33810, 34123, 34251, 34396, 34747, 34971, 35084, 35220, 35403, 35676, 35828, 35956, 36164, 36564, 37316, 37571, 37724, 37852, 38924, 39204, 39452, 39604, 39748, 40004, 40156, 40517, 55053, 55188, 55252, 55612, 55724, 55885, 56020, 59421, 59581, 59788], "trial_type": "free-recall", "conditions": [24, 1600, "a", 24000], "internal_node_id": "0.0-150.0-0.0", "key_presses": [80, 65, 76, 65, 67, 69, 13, 83, 65, 8, 67, 65, 82, 69, 67, 82, 79, 87, 13, 67, 72, 73, 76, 68, 13, 84, 87, 73, 71, 13, 72, 73, 8, 85, 77, 65, 78, 13, 77, 65, 73, 76, 66, 79, 88, 13, 67, 65, 78, 65, 76, 13, 84, 82, 65, 83, 72, 13, 82, 73, 86, 69, 82, 13, 68, 82, 65, 71, 79, 78, 13, 71, 79, 66, 76, 73, 78, 13, 71, 72, 69, 84, 84, 79, 13, 66, 85, 66, 66, 76, 69, 13, 71, 65, 82, 76, 73, 67, 13, 79, 78, 73, 79, 78, 13, 74, 79, 85, 82, 78, 65, 76, 13, 67, 79, 79, 75, 66, 79, 79, 75, 13, 80, 79, 82, 75, 13, 77, 85, 70, 70, 73, 78, 13, 84, 85, 82, 75, 69, 89, 13, 86, 65, 86], "trial": 4, "time_elapsed": 916593, "type": "FREE_RECALL", "trial_index": 195}, "uniqueid": "MTK2011:3YDTZAI2WYNLMHOVOIQ6M3TSS3S41D", "dateTime": 1516646730121}, {"current_trial": 196, "trialdata": {"rt": 1441, "trial_type": "text", "internal_node_id": "0.0-151.0", "time_elapsed": 920037, "key_press": 13, "type": "INSTRUCTIONS", "trial_index": 196}, "uniqueid": "MTK2011:3YDTZAI2WYNLMHOVOIQ6M3TSS3S41D", "dateTime": 1516646733563}, {"current_trial": 197, "trialdata": {"rt": [2247, 5391, 7223, 9703, 11375, 13231, 15295, 17519, 19815, 21984], "trial_type": "math-distractor", "key_times": [1960, 2063, 2247, 4695, 5127, 5391, 6951, 7071, 7223, 9399, 9495, 9703, 11159, 11375, 12904, 13031, 13231, 14903, 15103, 15295, 17175, 17359, 17519, 19479, 19599, 19815, 21776, 21984, 23760, 23895], "responses": ["25", "13", "21", "19", "8", "19", "16", "16", "18", "6"], "num2": [9, 4, 9, 8, 4, 7, 9, 7, 9, 3, 9], "num3": [7, 6, 3, 4, 2, 7, 2, 5, 6, 2, 2], "conditions": [12, 800, "a", 24000], "internal_node_id": "0.0-152.0", "key_presses": [50, 53, 13, 49, 51, 13, 50, 49, 13, 49, 57, 13, 56, 13, 49, 57, 13, 49, 54, 13, 49, 54, 13, 49, 56, 13, 54, 13, 50, 48], "trial": 5, "time_elapsed": 946039, "type": "DISTRACTOR", "trial_index": 197, "num1": [9, 3, 9, 7, 2, 5, 5, 4, 3, 1, 9]}, "uniqueid": "MTK2011:3YDTZAI2WYNLMHOVOIQ6M3TSS3S41D", "dateTime": 1516646759565}, {"current_trial": 198, "trialdata": {"rt": -1, "trial_type": "single-stim", "stimulus": "<p id=\"stim\">10</p>", "internal_node_id": "0.0-153.0-0.0", "time_elapsed": 949039, "key_press": -1, "trial_index": 198}, "uniqueid": "MTK2011:3YDTZAI2WYNLMHOVOIQ6M3TSS3S41D", "dateTime": 1516646762565}, {"current_trial": 199, "trialdata": {"rt": -1, "trial_type": "single-stim", "stimulus": "<p id=\"stim\">9</p>", "internal_node_id": "0.0-153.0-1.0", "time_elapsed": 950040, "key_press": -1, "trial_index": 199}, "uniqueid": "MTK2011:3YDTZAI2WYNLMHOVOIQ6M3TSS3S41D", "dateTime": 1516646763566}, {"current_trial": 200, "trialdata": {"rt": -1, "trial_type": "single-stim", "stimulus": "<p id=\"stim\">8</p>", "internal_node_id": "0.0-153.0-2.0", "time_elapsed": 951039, "key_press": -1, "trial_index": 200}, "uniqueid": "MTK2011:3YDTZAI2WYNLMHOVOIQ6M3TSS3S41D", "dateTime": 1516646764565}, {"current_trial": 201, "trialdata": {"rt": -1, "trial_type": "single-stim", "stimulus": "<p id=\"stim\">7</p>", "internal_node_id": "0.0-153.0-3.0", "time_elapsed": 952041, "key_press": -1, "trial_index": 201}, "uniqueid": "MTK2011:3YDTZAI2WYNLMHOVOIQ6M3TSS3S41D", "dateTime": 1516646765567}, {"current_trial": 202, "trialdata": {"rt": -1, "trial_type": "single-stim", "stimulus": "<p id=\"stim\">6</p>", "internal_node_id": "0.0-153.0-4.0", "time_elapsed": 953041, "key_press": -1, "trial_index": 202}, "uniqueid": "MTK2011:3YDTZAI2WYNLMHOVOIQ6M3TSS3S41D", "dateTime": 1516646766567}, {"current_trial": 203, "trialdata": {"rt": -1, "trial_type": "single-stim", "stimulus": "<p id=\"stim\">5</p>", "internal_node_id": "0.0-153.0-5.0", "time_elapsed": 954042, "key_press": -1, "trial_index": 203}, "uniqueid": "MTK2011:3YDTZAI2WYNLMHOVOIQ6M3TSS3S41D", "dateTime": 1516646767568}, {"current_trial": 204, "trialdata": {"rt": -1, "trial_type": "single-stim", "stimulus": "<p id=\"stim\">4</p>", "internal_node_id": "0.0-153.0-6.0", "time_elapsed": 955044, "key_press": -1, "trial_index": 204}, "uniqueid": "MTK2011:3YDTZAI2WYNLMHOVOIQ6M3TSS3S41D", "dateTime": 1516646768570}, {"current_trial": 205, "trialdata": {"rt": -1, "trial_type": "single-stim", "stimulus": "<p id=\"stim\">3</p>", "internal_node_id": "0.0-153.0-7.0", "time_elapsed": 956045, "key_press": -1, "trial_index": 205}, "uniqueid": "MTK2011:3YDTZAI2WYNLMHOVOIQ6M3TSS3S41D", "dateTime": 1516646769571}, {"current_trial": 206, "trialdata": {"rt": -1, "trial_type": "single-stim", "stimulus": "<p id=\"stim\">2</p>", "internal_node_id": "0.0-153.0-8.0", "time_elapsed": 957045, "key_press": -1, "trial_index": 206}, "uniqueid": "MTK2011:3YDTZAI2WYNLMHOVOIQ6M3TSS3S41D", "dateTime": 1516646770571}, {"current_trial": 207, "trialdata": {"rt": -1, "trial_type": "single-stim", "stimulus": "<p id=\"stim\">1</p>", "internal_node_id": "0.0-153.0-9.0", "time_elapsed": 958046, "key_press": -1, "trial_index": 207}, "uniqueid": "MTK2011:3YDTZAI2WYNLMHOVOIQ6M3TSS3S41D", "dateTime": 1516646771572}, {"current_trial": 208, "trialdata": {"rt": -1, "trial_type": "single-stim", "stimulus": "<p id=\"stim\">+</p>", "internal_node_id": "0.0-154.0-0.0", "time_elapsed": 959546, "key_press": -1, "type": "FIXATION", "trial_index": 208}, "uniqueid": "MTK2011:3YDTZAI2WYNLMHOVOIQ6M3TSS3S41D", "dateTime": 1516646773072}, {"current_trial": 209, "trialdata": {"rt": -1000, "trial_type": "single-audio", "word": "panther", "stimulus": "/static/audio/wordpool/PANTHER.wav", "conditions": [12, 800, "a", 24000], "internal_node_id": "0.0-155.0", "trial": 5, "time_elapsed": 961497, "serialpos": 0, "key_press": -1, "wordID": 1008, "type": "PRES_AUD", "trial_index": 209}, "uniqueid": "MTK2011:3YDTZAI2WYNLMHOVOIQ6M3TSS3S41D", "dateTime": 1516646775023}, {"current_trial": 210, "trialdata": {"rt": -1000, "trial_type": "single-audio", "word": "catcher", "stimulus": "/static/audio/wordpool/CATCHER.wav", "conditions": [12, 800, "a", 24000], "internal_node_id": "0.0-156.0", "trial": 5, "time_elapsed": 963153, "serialpos": 1, "key_press": -1, "wordID": 257, "type": "PRES_AUD", "trial_index": 210}, "uniqueid": "MTK2011:3YDTZAI2WYNLMHOVOIQ6M3TSS3S41D", "dateTime": 1516646776679}, {"current_trial": 211, "trialdata": {"rt": -1000, "trial_type": "single-audio", "word": "maple", "stimulus": "/static/audio/wordpool/MAPLE.wav", "conditions": [12, 800, "a", 24000], "internal_node_id": "0.0-157.0", "trial": 5, "time_elapsed": 965050, "serialpos": 2, "key_press": -1, "wordID": 865, "type": "PRES_AUD", "trial_index": 211}, "uniqueid": "MTK2011:3YDTZAI2WYNLMHOVOIQ6M3TSS3S41D", "dateTime": 1516646778576}, {"current_trial": 212, "trialdata": {"rt": -1000, "trial_type": "single-audio", "word": "student", "stimulus": "/static/audio/wordpool/STUDENT.wav", "conditions": [12, 800, "a", 24000], "internal_node_id": "0.0-158.0", "trial": 5, "time_elapsed": 966739, "serialpos": 3, "key_press": -1, "wordID": 1394, "type": "PRES_AUD", "trial_index": 212}, "uniqueid": "MTK2011:3YDTZAI2WYNLMHOVOIQ6M3TSS3S41D", "dateTime": 1516646780266}, {"current_trial": 213, "trialdata": {"rt": -1000, "trial_type": "single-audio", "word": "college", "stimulus": "/static/audio/wordpool/COLLEGE.wav", "conditions": [12, 800, "a", 24000], "internal_node_id": "0.0-159.0", "trial": 5, "time_elapsed": 968396, "serialpos": 4, "key_press": -1, "wordID": 345, "type": "PRES_AUD", "trial_index": 213}, "uniqueid": "MTK2011:3YDTZAI2WYNLMHOVOIQ6M3TSS3S41D", "dateTime": 1516646781922}, {"current_trial": 214, "trialdata": {"rt": -1000, "trial_type": "single-audio", "word": "bison", "stimulus": "/static/audio/wordpool/BISON.wav", "conditions": [12, 800, "a", 24000], "internal_node_id": "0.0-160.0", "trial": 5, "time_elapsed": 970377, "serialpos": 5, "key_press": -1, "wordID": 130, "type": "PRES_AUD", "trial_index": 214}, "uniqueid": "MTK2011:3YDTZAI2WYNLMHOVOIQ6M3TSS3S41D", "dateTime": 1516646783903}, {"current_trial": 215, "trialdata": {"rt": -1000, "trial_type": "single-audio", "word": "bank", "stimulus": "/static/audio/wordpool/BANK.wav", "conditions": [12, 800, "a", 24000], "internal_node_id": "0.0-161.0", "trial": 5, "time_elapsed": 972113, "serialpos": 6, "key_press": -1, "wordID": 82, "type": "PRES_AUD", "trial_index": 215}, "uniqueid": "MTK2011:3YDTZAI2WYNLMHOVOIQ6M3TSS3S41D", "dateTime": 1516646785639}, {"current_trial": 216, "trialdata": {"rt": -1000, "trial_type": "single-audio", "word": "queen", "stimulus": "/static/audio/wordpool/QUEEN.wav", "conditions": [12, 800, "a", 24000], "internal_node_id": "0.0-162.0", "trial": 5, "time_elapsed": 974002, "serialpos": 7, "key_press": -1, "wordID": 1148, "type": "PRES_AUD", "trial_index": 216}, "uniqueid": "MTK2011:3YDTZAI2WYNLMHOVOIQ6M3TSS3S41D", "dateTime": 1516646787528}, {"current_trial": 217, "trialdata": {"rt": -1000, "trial_type": "single-audio", "word": "tortoise", "stimulus": "/static/audio/wordpool/TORTOISE.wav", "conditions": [12, 800, "a", 24000], "internal_node_id": "0.0-163.0", "trial": 5, "time_elapsed": 975855, "serialpos": 8, "key_press": -1, "wordID": 1485, "type": "PRES_AUD", "trial_index": 217}, "uniqueid": "MTK2011:3YDTZAI2WYNLMHOVOIQ6M3TSS3S41D", "dateTime": 1516646789381}, {"current_trial": 218, "trialdata": {"rt": -1000, "trial_type": "single-audio", "word": "bouquet", "stimulus": "/static/audio/wordpool/BOUQUET.wav", "conditions": [12, 800, "a", 24000], "internal_node_id": "0.0-164.0", "trial": 5, "time_elapsed": 977742, "serialpos": 9, "key_press": -1, "wordID": 156, "type": "PRES_AUD", "trial_index": 218}, "uniqueid": "MTK2011:3YDTZAI2WYNLMHOVOIQ6M3TSS3S41D", "dateTime": 1516646791268}, {"current_trial": 219, "trialdata": {"rt": -1000, "trial_type": "single-audio", "word": "zipper", "stimulus": "/static/audio/wordpool/ZIPPER.wav", "conditions": [12, 800, "a", 24000], "internal_node_id": "0.0-165.0", "trial": 5, "time_elapsed": 979532, "serialpos": 10, "key_press": -1, "wordID": 1635, "type": "PRES_AUD", "trial_index": 219}, "uniqueid": "MTK2011:3YDTZAI2WYNLMHOVOIQ6M3TSS3S41D", "dateTime": 1516646793058}, {"current_trial": 220, "trialdata": {"rt": -1000, "trial_type": "single-audio", "word": "nightgown", "stimulus": "/static/audio/wordpool/NIGHTGOWN.wav", "conditions": [12, 800, "a", 24000], "internal_node_id": "0.0-166.0", "trial": 5, "time_elapsed": 981273, "serialpos": 11, "key_press": -1, "wordID": 952, "type": "PRES_AUD", "trial_index": 220}, "uniqueid": "MTK2011:3YDTZAI2WYNLMHOVOIQ6M3TSS3S41D", "dateTime": 1516646794799}, {"current_trial": 221, "trialdata": {"rt": -1, "trial_type": "single-stim", "stimulus": "", "internal_node_id": "0.0-167.0-0.0", "time_elapsed": 982495, "key_press": -1, "type": "PRE_RECALL_DELAY", "trial_index": 221}, "uniqueid": "MTK2011:3YDTZAI2WYNLMHOVOIQ6M3TSS3S41D", "dateTime": 1516646796022}, {"current_trial": 222, "trialdata": {"rt": -1000, "trial_type": "single-audio", "stimulus": "/static/audio/400Hz.wav", "internal_node_id": "0.0-168.0", "time_elapsed": 982996, "key_press": -1, "type": "PRE_RECALL_ALERT", "trial_index": 222}, "uniqueid": "MTK2011:3YDTZAI2WYNLMHOVOIQ6M3TSS3S41D", "dateTime": 1516646796522}, {"current_trial": 223, "trialdata": {"rt": [3177, 5377, 6873, 8857, 11433, 18010, 21890, 23754, 27042, 30659, 32635, 48764], "recwords": ["panther", "catcher", "maple", "student", "college", "bank", "tortoise", "queen", "bouquet", "nightgown", "zipper", "bison"], "key_times": [1690, 1985, 2105, 2225, 2569, 2697, 2777, 3177, 3641, 4177, 4345, 4537, 4657, 4826, 4961, 5377, 5657, 5793, 5937, 6121, 6281, 6873, 7577, 7737, 7857, 8161, 8345, 8465, 8569, 8857, 9354, 9465, 9649, 9785, 10065, 10209, 10361, 11433, 11915, 12010, 13297, 13497, 15762, 16121, 16473, 16570, 16713, 16969, 18010, 19666, 20178, 20298, 20754, 21010, 21186, 21266, 21418, 21890, 22266, 22419, 22626, 23170, 23482, 23754, 24482, 24666, 25114, 25858, 26474, 26554, 26666, 27042, 28635, 28811, 28915, 29059, 29156, 29971, 30123, 30243, 30387, 30659, 31275, 31491, 31699, 31827, 31923, 32027, 32635, 47948, 48068, 48363, 48468, 48604, 48764], "trial_type": "free-recall", "conditions": [12, 800, "a", 24000], "internal_node_id": "0.0-169.0-0.0", "key_presses": [80, 65, 78, 84, 72, 69, 82, 13, 67, 65, 84, 67, 72, 69, 82, 13, 77, 65, 80, 76, 69, 13, 83, 84, 85, 68, 69, 78, 84, 13, 67, 79, 76, 76, 69, 71, 69, 13, 84, 82, 8, 8, 66, 78, 8, 65, 78, 75, 13, 84, 79, 82, 84, 79, 73, 83, 69, 13, 81, 85, 69, 69, 78, 13, 66, 79, 85, 81, 85, 69, 84, 13, 78, 73, 71, 72, 84, 71, 79, 87, 78, 13, 90, 73, 80, 80, 69, 82, 13, 66, 73, 83, 79, 78, 13], "trial": 5, "time_elapsed": 1042999, "type": "FREE_RECALL", "trial_index": 223}, "uniqueid": "MTK2011:3YDTZAI2WYNLMHOVOIQ6M3TSS3S41D", "dateTime": 1516646856527}, {"current_trial": 224, "trialdata": {"rt": 1176, "trial_type": "text", "internal_node_id": "0.0-170.0", "time_elapsed": 1046177, "key_press": 32, "type": "INSTRUCTIONS", "trial_index": 224}, "uniqueid": "MTK2011:3YDTZAI2WYNLMHOVOIQ6M3TSS3S41D", "dateTime": 1516646859704}, {"current_trial": 225, "trialdata": {"rt": [2263, 4279, 6135, 8463, 10696, 13048, 14808, 16872, 18984, 21288, 23455], "trial_type": "math-distractor", "key_times": [1623, 1783, 2263, 3895, 4024, 4279, 5824, 5928, 6135, 8088, 8231, 8463, 10407, 10536, 10696, 12719, 12872, 13048, 14616, 14808, 16560, 16664, 16872, 18648, 18760, 18984, 20912, 21137, 21288, 23127, 23303, 23455], "responses": ["11", "20", "19", "17", "15", "14", "9", "19", "10", "17", "16"], "num2": [1, 7, 9, 4, 3, 4, 1, 3, 6, 3, 4, 1], "num3": [1, 9, 9, 6, 8, 7, 2, 7, 3, 8, 8, 5], "conditions": [12, 1600, "a", 24000], "internal_node_id": "0.0-171.0", "key_presses": [49, 49, 13, 50, 48, 13, 49, 57, 13, 49, 55, 13, 49, 53, 13, 49, 52, 13, 57, 13, 49, 57, 13, 49, 48, 13, 49, 55, 13, 49, 54, 13], "trial": 6, "time_elapsed": 1072178, "type": "DISTRACTOR", "trial_index": 225, "num1": [9, 4, 1, 7, 4, 3, 6, 9, 1, 6, 2, 2]}, "uniqueid": "MTK2011:3YDTZAI2WYNLMHOVOIQ6M3TSS3S41D", "dateTime": 1516646885704}, {"current_trial": 226, "trialdata": {"rt": -1, "trial_type": "single-stim", "stimulus": "<p id=\"stim\">10</p>", "internal_node_id": "0.0-172.0-0.0", "time_elapsed": 1075178, "key_press": -1, "trial_index": 226}, "uniqueid": "MTK2011:3YDTZAI2WYNLMHOVOIQ6M3TSS3S41D", "dateTime": 1516646888704}, {"current_trial": 227, "trialdata": {"rt": -1, "trial_type": "single-stim", "stimulus": "<p id=\"stim\">9</p>", "internal_node_id": "0.0-172.0-1.0", "time_elapsed": 1076178, "key_press": -1, "trial_index": 227}, "uniqueid": "MTK2011:3YDTZAI2WYNLMHOVOIQ6M3TSS3S41D", "dateTime": 1516646889704}, {"current_trial": 228, "trialdata": {"rt": -1, "trial_type": "single-stim", "stimulus": "<p id=\"stim\">8</p>", "internal_node_id": "0.0-172.0-2.0", "time_elapsed": 1077178, "key_press": -1, "trial_index": 228}, "uniqueid": "MTK2011:3YDTZAI2WYNLMHOVOIQ6M3TSS3S41D", "dateTime": 1516646890704}, {"current_trial": 229, "trialdata": {"rt": -1, "trial_type": "single-stim", "stimulus": "<p id=\"stim\">7</p>", "internal_node_id": "0.0-172.0-3.0", "time_elapsed": 1078178, "key