{"assignmentId": "3NG53N1RLWQPMAUZLNR94BRVX928P8", "workerId": "MTK2038", "questiondata": {"origin": "United States", "strat-rehearsal": "32", "marital": "Married/Domestic Partnership", "education": "Associate degree", "ethnicity": "Not Hispanic", "color_depth": 24, "distracted": "No", "wrote-notes": "No", "strat-other": "", "screen_width": 1366, "avail_screen_width": 1366, "avail_screen_height": 720, "strat-image": "95", "language": "English", "gender": "Female", "age": "24", "gender_other": "", "race": ["White"], "strat-categorize": "91", "pixel_depth": 24, "strat-spatial": "0", "strat-story": "0", "race_other": "", "screen_height": 768}, "bonus": 0, "hitId": "3W5PY7V3UPE6SLKPDCFHH8X1Z9OJYX", "counterbalance": 2810, "useragent": "Mozilla/5.0 (X11; CrOS x86_64 10032.86.0) AppleWebKit/537.36 (KHTML, like Gecko) Chrome/63.0.3239.140 Safari/537.36", "eventdata": [{"eventtype": "initialized", "interval": 0, "value": null, "timestamp": 1516652849340}, {"eventtype": "window_resize", "interval": 1, "value": [1366, 656], "timestamp": 1516652849341}, {"eventtype": "focus", "interval": 944405, "value": "off", "timestamp": 1516653793746}, {"eventtype": "focus", "interval": 8647, "value": "on", "timestamp": 1516653802393}, {"eventtype": "focus", "interval": 776597, "value": "off", "timestamp": 1516654578990}, {"eventtype": "focus", "interval": 66043, "value": "on", "timestamp": 1516654645033}], "data": [{"current_trial": 0, "trialdata": {"rt": 2293, "trial_type": "text", "internal_node_id": "0.0-0.0", "time_elapsed": 2301, "key_press": 32, "type": "INSTRUCTIONS", "trial_index": 0}, "uniqueid": "MTK2038:3NG53N1RLWQPMAUZLNR94BRVX928P8", "dateTime": 1516652873899}, {"current_trial": 1, "trialdata": {"rt": 16235, "trial_type": "text", "internal_node_id": "0.0-1.0", "time_elapsed": 18544, "key_press": 32, "type": "INSTRUCTIONS", "trial_index": 1}, "uniqueid": "MTK2038:3NG53N1RLWQPMAUZLNR94BRVX928P8", "dateTime": 1516652890140}, {"current_trial": 2, "trialdata": {"rt": [6460], "trial_type": "audio-test", "responses": ["ocean"], "internal_node_id": "0.0-2.0", "time_elapsed": 25053, "type": "AUDIO_TEST", "trial_index": 2}, "uniqueid": "MTK2038:3NG53N1RLWQPMAUZLNR94BRVX928P8", "dateTime": 1516652896650}, {"current_trial": 3, "trialdata": {"rt": [4402], "trial_type": "audio-test", "responses": ["crystal"], "internal_node_id": "0.0-3.0", "time_elapsed": 29474, "type": "AUDIO_TEST", "trial_index": 3}, "uniqueid": "MTK2038:3NG53N1RLWQPMAUZLNR94BRVX928P8", "dateTime": 1516652901070}, {"current_trial": 4, "trialdata": {"rt": [7463], "trial_type": "audio-test", "responses": ["spice"], "internal_node_id": "0.0-4.0", "time_elapsed": 36950, "type": "AUDIO_TEST", "trial_index": 4}, "uniqueid": "MTK2038:3NG53N1RLWQPMAUZLNR94BRVX928P8", "dateTime": 1516652908546}, {"current_trial": 5, "trialdata": {"rt": 17884, "trial_type": "survey-text", "responses": "{\"Q0\":\"12:45 am\",\"Q1\":\"8:00 am\",\"Q2\":\"4\"}", "internal_node_id": "0.0-5.0", "time_elapsed": 55592, "type": "SLEEP_SURVEY", "trial_index": 5}, "uniqueid": "MTK2038:3NG53N1RLWQPMAUZLNR94BRVX928P8", "dateTime": 1516652927189}, {"current_trial": 6, "trialdata": {"rt": 20393, "trial_type": "text", "internal_node_id": "0.0-6.0", "time_elapsed": 76989, "key_press": 32, "type": "INSTRUCTIONS", "trial_index": 6}, "uniqueid": "MTK2038:3NG53N1RLWQPMAUZLNR94BRVX928P8", "dateTime": 1516652948585}, {"current_trial": 7, "trialdata": {"rt": 5842, "trial_type": "text", "internal_node_id": "0.0-7.0", "time_elapsed": 83333, "key_press": 32, "type": "INSTRUCTIONS", "trial_index": 7}, "uniqueid": "MTK2038:3NG53N1RLWQPMAUZLNR94BRVX928P8", "dateTime": 1516652954929}, {"current_trial": 8, "trialdata": {"rt": 8476, "trial_type": "text", "internal_node_id": "0.0-8.0", "time_elapsed": 92313, "key_press": 32, "type": "INSTRUCTIONS", "trial_index": 8}, "uniqueid": "MTK2038:3NG53N1RLWQPMAUZLNR94BRVX928P8", "dateTime": 1516652963909}, {"current_trial": 9, "trialdata": {"rt": [4693, 8637, 10889, 13307, 15827], "trial_type": "math-distractor", "key_times": [4126, 4291, 4693, 7717, 8078, 8637, 10563, 10725, 10889, 12705, 13080, 13307, 15069, 15547, 15827], "responses": ["20", "16", "11", "10", "15"], "num2": [2, 5, 7, 2, 5, 3], "num3": [9, 8, 2, 2, 5, 6], "conditions": [18, 1200, "a", 18000], "internal_node_id": "0.0-9.0", "key_presses": [50, 48, 13, 49, 54, 13, 49, 49, 13, 49, 48, 13, 49, 53, 13], "trial": 0, "time_elapsed": 111348, "type": "DISTRACTOR", "trial_index": 9, "num1": [9, 3, 2, 5, 5, 8]}, "uniqueid": "MTK2038:3NG53N1RLWQPMAUZLNR94BRVX928P8", "dateTime": 1516652982944}, {"current_trial": 10, "trialdata": {"rt": -1, "trial_type": "single-stim", "stimulus": "<p id=\"stim\">10</p>", "internal_node_id": "0.0-10.0-0.0", "time_elapsed": 114354, "key_press": -1, "trial_index": 10}, "uniqueid": "MTK2038:3NG53N1RLWQPMAUZLNR94BRVX928P8", "dateTime": 1516652985951}, {"current_trial": 11, "trialdata": {"rt": -1, "trial_type": "single-stim", "stimulus": "<p id=\"stim\">9</p>", "internal_node_id": "0.0-10.0-1.0", "time_elapsed": 115357, "key_press": -1, "trial_index": 11}, "uniqueid": "MTK2038:3NG53N1RLWQPMAUZLNR94BRVX928P8", "dateTime": 1516652986954}, {"current_trial": 12, "trialdata": {"rt": -1, "trial_type": "single-stim", "stimulus": "<p id=\"stim\">8</p>", "internal_node_id": "0.0-10.0-2.0", "time_elapsed": 116362, "key_press": -1, "trial_index": 12}, "uniqueid": "MTK2038:3NG53N1RLWQPMAUZLNR94BRVX928P8", "dateTime": 1516652987958}, {"current_trial": 13, "trialdata": {"rt": -1, "trial_type": "single-stim", "stimulus": "<p id=\"stim\">7</p>", "internal_node_id": "0.0-10.0-3.0", "time_elapsed": 117404, "key_press": -1, "trial_index": 13}, "uniqueid": "MTK2038:3NG53N1RLWQPMAUZLNR94BRVX928P8", "dateTime": 1516652989000}, {"current_trial": 14, "trialdata": {"rt": -1, "trial_type": "single-stim", "stimulus": "<p id=\"stim\">6</p>", "internal_node_id": "0.0-10.0-4.0", "time_elapsed": 118408, "key_press": -1, "trial_index": 14}, "uniqueid": "MTK2038:3NG53N1RLWQPMAUZLNR94BRVX928P8", "dateTime": 1516652990004}, {"current_trial": 15, "trialdata": {"rt": -1, "trial_type": "single-stim", "stimulus": "<p id=\"stim\">5</p>", "internal_node_id": "0.0-10.0-5.0", "time_elapsed": 119414, "key_press": -1, "trial_index": 15}, "uniqueid": "MTK2038:3NG53N1RLWQPMAUZLNR94BRVX928P8", "dateTime": 1516652991010}, {"current_trial": 16, "trialdata": {"rt": -1, "trial_type": "single-stim", "stimulus": "<p id=\"stim\">4</p>", "internal_node_id": "0.0-10.0-6.0", "time_elapsed": 120419, "key_press": -1, "trial_index": 16}, "uniqueid": "MTK2038:3NG53N1RLWQPMAUZLNR94BRVX928P8", "dateTime": 1516652992015}, {"current_trial": 17, "trialdata": {"rt": -1, "trial_type": "single-stim", "stimulus": "<p id=\"stim\">3</p>", "internal_node_id": "0.0-10.0-7.0", "time_elapsed": 121431, "key_press": -1, "trial_index": 17}, "uniqueid": "MTK2038:3NG53N1RLWQPMAUZLNR94BRVX928P8", "dateTime": 1516652993028}, {"current_trial": 18, "trialdata": {"rt": -1, "trial_type": "single-stim", "stimulus": "<p id=\"stim\">2</p>", "internal_node_id": "0.0-10.0-8.0", "time_elapsed": 122436, "key_press": -1, "trial_index": 18}, "uniqueid": "MTK2038:3NG53N1RLWQPMAUZLNR94BRVX928P8", "dateTime": 1516652994032}, {"current_trial": 19, "trialdata": {"rt": -1, "trial_type": "single-stim", "stimulus": "<p id=\"stim\">1</p>", "internal_node_id": "0.0-10.0-9.0", "time_elapsed": 123441, "key_press": -1, "trial_index": 19}, "uniqueid": "MTK2038:3NG53N1RLWQPMAUZLNR94BRVX928P8", "dateTime": 1516652995037}, {"current_trial": 20, "trialdata": {"rt": -1, "trial_type": "single-stim", "stimulus": "<p id=\"stim\">+</p>", "internal_node_id": "0.0-11.0-0.0", "time_elapsed": 124945, "key_press": -1, "type": "FIXATION", "trial_index": 20}, "uniqueid": "MTK2038:3NG53N1RLWQPMAUZLNR94BRVX928P8", "dateTime": 1516652996541}, {"current_trial": 21, "trialdata": {"rt": -1000, "trial_type": "single-audio", "word": "woman", "stimulus": "/static/audio/wordpool/WOMAN.wav", "conditions": [18, 1200, "a", 18000], "internal_node_id": "0.0-12.0", "trial": 0, "time_elapsed": 127010, "serialpos": 0, "key_press": -1, "wordID": 1619, "type": "PRES_AUD", "trial_index": 21}, "uniqueid": "MTK2038:3NG53N1RLWQPMAUZLNR94BRVX928P8", "dateTime": 1516652998606}, {"current_trial": 22, "trialdata": {"rt": -1000, "trial_type": "single-audio", "word": "temple", "stimulus": "/static/audio/wordpool/TEMPLE.wav", "conditions": [18, 1200, "a", 18000], "internal_node_id": "0.0-13.0", "trial": 0, "time_elapsed": 129080, "serialpos": 1, "key_press": -1, "wordID": 1447, "type": "PRES_AUD", "trial_index": 22}, "uniqueid": "MTK2038:3NG53N1RLWQPMAUZLNR94BRVX928P8", "dateTime": 1516653000676}, {"current_trial": 23, "trialdata": {"rt": -1000, "trial_type": "single-audio", "word": "carriage", "stimulus": "/static/audio/wordpool/CARRIAGE.wav", "conditions": [18, 1200, "a", 18000], "internal_node_id": "0.0-14.0", "trial": 0, "time_elapsed": 131356, "serialpos": 2, "key_press": -1, "wordID": 247, "type": "PRES_AUD", "trial_index": 23}, "uniqueid": "MTK2038:3NG53N1RLWQPMAUZLNR94BRVX928P8", "dateTime": 1516653002952}, {"current_trial": 24, "trialdata": {"rt": -1000, "trial_type": "single-audio", "word": "gallon", "stimulus": "/static/audio/wordpool/GALLON.wav", "conditions": [18, 1200, "a", 18000], "internal_node_id": "0.0-15.0", "trial": 0, "time_elapsed": 133667, "serialpos": 3, "key_press": -1, "wordID": 617, "type": "PRES_AUD", "trial_index": 24}, "uniqueid": "MTK2038:3NG53N1RLWQPMAUZLNR94BRVX928P8", "dateTime": 1516653005263}, {"current_trial": 25, "trialdata": {"rt": -1000, "trial_type": "single-audio", "word": "pliers", "stimulus": "/static/audio/wordpool/PLIERS.wav", "conditions": [18, 1200, "a", 18000], "internal_node_id": "0.0-16.0", "trial": 0, "time_elapsed": 135983, "serialpos": 4, "key_press": -1, "wordID": 1088, "type": "PRES_AUD", "trial_index": 25}, "uniqueid": "MTK2038:3NG53N1RLWQPMAUZLNR94BRVX928P8", "dateTime": 1516653007579}, {"current_trial": 26, "trialdata": {"rt": -1000, "trial_type": "single-audio", "word": "freckle", "stimulus": "/static/audio/wordpool/FRECKLE.wav", "conditions": [18, 1200, "a", 18000], "internal_node_id": "0.0-17.0", "trial": 0, "time_elapsed": 138334, "serialpos": 5, "key_press": -1, "wordID": 601, "type": "PRES_AUD", "trial_index": 26}, "uniqueid": "MTK2038:3NG53N1RLWQPMAUZLNR94BRVX928P8", "dateTime": 1516653009930}, {"current_trial": 27, "trialdata": {"rt": -1000, "trial_type": "single-audio", "word": "loft", "stimulus": "/static/audio/wordpool/LOFT.wav", "conditions": [18, 1200, "a", 18000], "internal_node_id": "0.0-18.0", "trial": 0, "time_elapsed": 140435, "serialpos": 6, "key_press": -1, "wordID": 839, "type": "PRES_AUD", "trial_index": 27}, "uniqueid": "MTK2038:3NG53N1RLWQPMAUZLNR94BRVX928P8", "dateTime": 1516653012032}, {"current_trial": 28, "trialdata": {"rt": -1000, "trial_type": "single-audio", "word": "champagne", "stimulus": "/static/audio/wordpool/CHAMPAGNE.wav", "conditions": [18, 1200, "a", 18000], "internal_node_id": "0.0-19.0", "trial": 0, "time_elapsed": 142613, "serialpos": 7, "key_press": -1, "wordID": 277, "type": "PRES_AUD", "trial_index": 28}, "uniqueid": "MTK2038:3NG53N1RLWQPMAUZLNR94BRVX928P8", "dateTime": 1516653014209}, {"current_trial": 29, "trialdata": {"rt": -1000, "trial_type": "single-audio", "word": "hawk", "stimulus": "/static/audio/wordpool/HAWK.wav", "conditions": [18, 1200, "a", 18000], "internal_node_id": "0.0-20.0", "trial": 0, "time_elapsed": 144864, "serialpos": 8, "key_press": -1, "wordID": 691, "type": "PRES_AUD", "trial_index": 29}, "uniqueid": "MTK2038:3NG53N1RLWQPMAUZLNR94BRVX928P8", "dateTime": 1516653016460}, {"current_trial": 30, "trialdata": {"rt": -1000, "trial_type": "single-audio", "word": "portrait", "stimulus": "/static/audio/wordpool/PORTRAIT.wav", "conditions": [18, 1200, "a", 18000], "internal_node_id": "0.0-21.0", "trial": 0, "time_elapsed": 147237, "serialpos": 9, "key_press": -1, "wordID": 1110, "type": "PRES_AUD", "trial_index": 30}, "uniqueid": "MTK2038:3NG53N1RLWQPMAUZLNR94BRVX928P8", "dateTime": 1516653018833}, {"current_trial": 31, "trialdata": {"rt": -1000, "trial_type": "single-audio", "word": "plate", "stimulus": "/static/audio/wordpool/PLATE.wav", "conditions": [18, 1200, "a", 18000], "internal_node_id": "0.0-22.0", "trial": 0, "time_elapsed": 149469, "serialpos": 10, "key_press": -1, "wordID": 1085, "type": "PRES_AUD", "trial_index": 31}, "uniqueid": "MTK2038:3NG53N1RLWQPMAUZLNR94BRVX928P8", "dateTime": 1516653021065}, {"current_trial": 32, "trialdata": {"rt": -1000, "trial_type": "single-audio", "word": "stream", "stimulus": "/static/audio/wordpool/STREAM.wav", "conditions": [18, 1200, "a", 18000], "internal_node_id": "0.0-23.0", "trial": 0, "time_elapsed": 151773, "serialpos": 11, "key_press": -1, "wordID": 1391, "type": "PRES_AUD", "trial_index": 32}, "uniqueid": "MTK2038:3NG53N1RLWQPMAUZLNR94BRVX928P8", "dateTime": 1516653023369}, {"current_trial": 33, "trialdata": {"rt": -1000, "trial_type": "single-audio", "word": "spider", "stimulus": "/static/audio/wordpool/SPIDER.wav", "conditions": [18, 1200, "a", 18000], "internal_node_id": "0.0-24.0", "trial": 0, "time_elapsed": 154068, "serialpos": 12, "key_press": -1, "wordID": 1350, "type": "PRES_AUD", "trial_index": 33}, "uniqueid": "MTK2038:3NG53N1RLWQPMAUZLNR94BRVX928P8", "dateTime": 1516653025664}, {"current_trial": 34, "trialdata": {"rt": -1000, "trial_type": "single-audio", "word": "river", "stimulus": "/static/audio/wordpool/RIVER.wav", "conditions": [18, 1200, "a", 18000], "internal_node_id": "0.0-25.0", "trial": 0, "time_elapsed": 156288, "serialpos": 13, "key_press": -1, "wordID": 1193, "type": "PRES_AUD", "trial_index": 34}, "uniqueid": "MTK2038:3NG53N1RLWQPMAUZLNR94BRVX928P8", "dateTime": 1516653027884}, {"current_trial": 35, "trialdata": {"rt": -1000, "trial_type": "single-audio", "word": "camel", "stimulus": "/static/audio/wordpool/CAMEL.wav", "conditions": [18, 1200, "a", 18000], "internal_node_id": "0.0-26.0", "trial": 0, "time_elapsed": 158310, "serialpos": 14, "key_press": -1, "wordID": 222, "type": "PRES_AUD", "trial_index": 35}, "uniqueid": "MTK2038:3NG53N1RLWQPMAUZLNR94BRVX928P8", "dateTime": 1516653029907}, {"current_trial": 36, "trialdata": {"rt": -1000, "trial_type": "single-audio", "word": "tunnel", "stimulus": "/static/audio/wordpool/TUNNEL.wav", "conditions": [18, 1200, "a", 18000], "internal_node_id": "0.0-27.0", "trial": 0, "time_elapsed": 160314, "serialpos": 15, "key_press": -1, "wordID": 1518, "type": "PRES_AUD", "trial_index": 36}, "uniqueid": "MTK2038:3NG53N1RLWQPMAUZLNR94BRVX928P8", "dateTime": 1516653031911}, {"current_trial": 37, "trialdata": {"rt": -1000, "trial_type": "single-audio", "word": "snack", "stimulus": "/static/audio/wordpool/SNACK.wav", "conditions": [18, 1200, "a", 18000], "internal_node_id": "0.0-28.0", "trial": 0, "time_elapsed": 162661, "serialpos": 16, "key_press": -1, "wordID": 1330, "type": "PRES_AUD", "trial_index": 37}, "uniqueid": "MTK2038:3NG53N1RLWQPMAUZLNR94BRVX928P8", "dateTime": 1516653034258}, {"current_trial": 38, "trialdata": {"rt": -1000, "trial_type": "single-audio", "word": "twister", "stimulus": "/static/audio/wordpool/TWISTER.wav", "conditions": [18, 1200, "a", 18000], "internal_node_id": "0.0-29.0", "trial": 0, "time_elapsed": 164907, "serialpos": 17, "key_press": -1, "wordID": 1529, "type": "PRES_AUD", "trial_index": 38}, "uniqueid": "MTK2038:3NG53N1RLWQPMAUZLNR94BRVX928P8", "dateTime": 1516653036503}, {"current_trial": 39, "trialdata": {"rt": -1, "trial_type": "single-stim", "stimulus": "", "internal_node_id": "0.0-30.0-0.0", "time_elapsed": 166127, "key_press": -1, "type": "PRE_RECALL_DELAY", "trial_index": 39}, "uniqueid": "MTK2038:3NG53N1RLWQPMAUZLNR94BRVX928P8", "dateTime": 1516653037723}, {"current_trial": 40, "trialdata": {"rt": -1000, "trial_type": "single-audio", "stimulus": "/static/audio/400Hz.wav", "internal_node_id": "0.0-31.0", "time_elapsed": 166632, "key_press": -1, "type": "PRE_RECALL_ALERT", "trial_index": 40}, "uniqueid": "MTK2038:3NG53N1RLWQPMAUZLNR94BRVX928P8", "dateTime": 1516653038228}, {"current_trial": 41, "trialdata": {"rt": [2627, 4076, 5719, 6761, 8601, 9797, 30460, 57150], "recwords": ["apple", "carriage", "freckle", "spider", "twister", "snack", "mountain", "camel"], "key_times": [1360, 1537, 1706, 1956, 2199, 2627, 2895, 2999, 3228, 3394, 3505, 3608, 3762, 3859, 4076, 4484, 4682, 4776, 5053, 5226, 5417, 5503, 5719, 5907, 6024, 6235, 6306, 6488, 6596, 6761, 7020, 7202, 7330, 7437, 8065, 8205, 8301, 8601, 8844, 9037, 9099, 9359, 9454, 9797, 29242, 29455, 29613, 29817, 29919, 30031, 30146, 30193, 30460, 55448, 55561, 55750, 55898, 55902, 56056, 56417, 56571, 56831, 57150], "trial_type": "free-recall", "conditions": [18, 1200, "a", 18000], "internal_node_id": "0.0-32.0-0.0", "key_presses": [65, 80, 80, 76, 69, 13, 67, 65, 82, 82, 73, 65, 71, 69, 13, 70, 82, 69, 67, 75, 76, 69, 13, 83, 80, 73, 68, 69, 82, 13, 84, 87, 73, 83, 84, 69, 82, 13, 83, 78, 65, 67, 75, 13, 77, 79, 85, 78, 84, 65, 73, 78, 13, 67, 65, 77, 69, 82, 76, 8, 8, 76, 13], "trial": 0, "time_elapsed": 226647, "type": "FREE_RECALL", "trial_index": 41}, "uniqueid": "MTK2038:3NG53N1RLWQPMAUZLNR94BRVX928P8", "dateTime": 1516653098255}, {"current_trial": 42, "trialdata": {"rt": 1647, "trial_type": "text", "internal_node_id": "0.0-33.0", "time_elapsed": 230310, "key_press": 32, "type": "INSTRUCTIONS", "trial_index": 42}, "uniqueid": "MTK2038:3NG53N1RLWQPMAUZLNR94BRVX928P8", "dateTime": 1516653101906}, {"current_trial": 43, "trialdata": {"rt": [3803, 6784, 9868, 11908, 15835], "trial_type": "math-distractor", "key_times": [3246, 3580, 3803, 6286, 6474, 6784, 9504, 9756, 9868, 11640, 11814, 11908, 15447, 15714, 15835], "responses": ["16", "20", "13", "11", "14"], "num2": [5, 8, 3, 2, 1, 6], "num3": [2, 4, 1, 8, 5, 1], "conditions": [18, 1200, "a", 18000], "internal_node_id": "0.0-34.0", "key_presses": [49, 54, 13, 50, 48, 13, 49, 51, 13, 49, 49, 13, 49, 52, 13], "trial": 1, "time_elapsed": 250321, "type": "DISTRACTOR", "trial_index": 43, "num1": [9, 8, 9, 1, 8, 8]}, "uniqueid": "MTK2038:3NG53N1RLWQPMAUZLNR94BRVX928P8", "dateTime": 1516653121918}, {"current_trial": 44, "trialdata": {"rt": -1, "trial_type": "single-stim", "stimulus": "<p id=\"stim\">10</p>", "internal_node_id": "0.0-35.0-0.0", "time_elapsed": 253326, "key_press": -1, "trial_index": 44}, "uniqueid": "MTK2038:3NG53N1RLWQPMAUZLNR94BRVX928P8", "dateTime": 1516653124922}, {"current_trial": 45, "trialdata": {"rt": -1, "trial_type": "single-stim", "stimulus": "<p id=\"stim\">9</p>", "internal_node_id": "0.0-35.0-1.0", "time_elapsed": 254329, "key_press": -1, "trial_index": 45}, "uniqueid": "MTK2038:3NG53N1RLWQPMAUZLNR94BRVX928P8", "dateTime": 1516653125925}, {"current_trial": 46, "trialdata": {"rt": -1, "trial_type": "single-stim", "stimulus": "<p id=\"stim\">8</p>", "internal_node_id": "0.0-35.0-2.0", "time_elapsed": 255332, "key_press": -1, "trial_index": 46}, "uniqueid": "MTK2038:3NG53N1RLWQPMAUZLNR94BRVX928P8", "dateTime": 1516653126928}, {"current_trial": 47, "trialdata": {"rt": -1, "trial_type": "single-stim", "stimulus": "<p id=\"stim\">7</p>", "internal_node_id": "0.0-35.0-3.0", "time_elapsed": 256334, "key_press": -1, "trial_index": 47}, "uniqueid": "MTK2038:3NG53N1RLWQPMAUZLNR94BRVX928P8", "dateTime": 1516653127930}, {"current_trial": 48, "trialdata": {"rt": -1, "trial_type": "single-stim", "stimulus": "<p id=\"stim\">6</p>", "internal_node_id": "0.0-35.0-4.0", "time_elapsed": 257336, "key_press": -1, "trial_index": 48}, "uniqueid": "MTK2038:3NG53N1RLWQPMAUZLNR94BRVX928P8", "dateTime": 1516653128932}, {"current_trial": 49, "trialdata": {"rt": -1, "trial_type": "single-stim", "stimulus": "<p id=\"stim\">5</p>", "internal_node_id": "0.0-35.0-5.0", "time_elapsed": 258340, "key_press": -1, "trial_index": 49}, "uniqueid": "MTK2038:3NG53N1RLWQPMAUZLNR94BRVX928P8", "dateTime": 1516653129936}, {"current_trial": 50, "trialdata": {"rt": -1, "trial_type": "single-stim", "stimulus": "<p id=\"stim\">4</p>", "internal_node_id": "0.0-35.0-6.0", "time_elapsed": 259464, "key_press": -1, "trial_index": 50}, "uniqueid": "MTK2038:3NG53N1RLWQPMAUZLNR94BRVX928P8", "dateTime": 1516653131060}, {"current_trial": 51, "trialdata": {"rt": -1, "trial_type": "single-stim", "stimulus": "<p id=\"stim\">3</p>", "internal_node_id": "0.0-35.0-7.0", "time_elapsed": 260466, "key_press": -1, "trial_index": 51}, "uniqueid": "MTK2038:3NG53N1RLWQPMAUZLNR94BRVX928P8", "dateTime": 1516653132062}, {"current_trial": 52, "trialdata": {"rt": -1, "trial_type": "single-stim", "stimulus": "<p id=\"stim\">2</p>", "internal_node_id": "0.0-35.0-8.0", "time_elapsed": 261472, "key_press": -1, "trial_index": 52}, "uniqueid": "MTK2038:3NG53N1RLWQPMAUZLNR94BRVX928P8", "dateTime": 1516653133069}, {"current_trial": 53, "trialdata": {"rt": -1, "trial_type": "single-stim", "stimulus": "<p id=\"stim\">1</p>", "internal_node_id": "0.0-35.0-9.0", "time_elapsed": 262477, "key_press": -1, "trial_index": 53}, "uniqueid": "MTK2038:3NG53N1RLWQPMAUZLNR94BRVX928P8", "dateTime": 1516653134074}, {"current_trial": 54, "trialdata": {"rt": -1, "trial_type": "single-stim", "stimulus": "<p id=\"stim\">+</p>", "internal_node_id": "0.0-36.0-0.0", "time_elapsed": 263983, "key_press": -1, "type": "FIXATION", "trial_index": 54}, "uniqueid": "MTK2038:3NG53N1RLWQPMAUZLNR94BRVX928P8", "dateTime": 1516653135580}, {"current_trial": 55, "trialdata": {"rt": -1000, "trial_type": "single-audio", "word": "plaster", "stimulus": "/static/audio/wordpool/PLASTER.wav", "conditions": [18, 1200, "a", 18000], "internal_node_id": "0.0-37.0", "trial": 1, "time_elapsed": 266316, "serialpos": 0, "key_press": -1, "wordID": 1084, "type": "PRES_AUD", "trial_index": 55}, "uniqueid": "MTK2038:3NG53N1RLWQPMAUZLNR94BRVX928P8", "dateTime": 1516653137912}, {"current_trial": 56, "trialdata": {"rt": -1000, "trial_type": "single-audio", "word": "eyelash", "stimulus": "/static/audio/wordpool/EYELASH.wav", "conditions": [18, 1200, "a", 18000], "internal_node_id": "0.0-38.0", "trial": 1, "time_elapsed": 268670, "serialpos": 1, "key_press": -1, "wordID": 545, "type": "PRES_AUD", "trial_index": 56}, "uniqueid": "MTK2038:3NG53N1RLWQPMAUZLNR94BRVX928P8", "dateTime": 1516653140266}, {"current_trial": 57, "trialdata": {"rt": -1000, "trial_type": "single-audio", "word": "keeper", "stimulus": "/static/audio/wordpool/KEEPER.wav", "conditions": [18, 1200, "a", 18000], "internal_node_id": "0.0-39.0", "trial": 1, "time_elapsed": 270733, "serialpos": 2, "key_press": -1, "wordID": 768, "type": "PRES_AUD", "trial_index": 57}, "uniqueid": "MTK2038:3NG53N1RLWQPMAUZLNR94BRVX928P8", "dateTime": 1516653142330}, {"current_trial": 58, "trialdata": {"rt": -1000, "trial_type": "single-audio", "word": "preacher", "stimulus": "/static/audio/wordpool/PREACHER.wav", "conditions": [18, 1200, "a", 18000], "internal_node_id": "0.0-40.0", "trial": 1, "time_elapsed": 272830, "serialpos": 3, "key_press": -1, "wordID": 1118, "type": "PRES_AUD", "trial_index": 58}, "uniqueid": "MTK2038:3NG53N1RLWQPMAUZLNR94BRVX928P8", "dateTime": 1516653144426}, {"current_trial": 59, "trialdata": {"rt": -1000, "trial_type": "single-audio", "word": "bouquet", "stimulus": "/static/audio/wordpool/BOUQUET.wav", "conditions": [18, 1200, "a", 18000], "internal_node_id": "0.0-41.0", "trial": 1, "time_elapsed": 275003, "serialpos": 4, "key_press": -1, "wordID": 156, "type": "PRES_AUD", "trial_index": 59}, "uniqueid": "MTK2038:3NG53N1RLWQPMAUZLNR94BRVX928P8", "dateTime": 1516653146600}, {"current_trial": 60, "trialdata": {"rt": -1000, "trial_type": "single-audio", "word": "gangster", "stimulus": "/static/audio/wordpool/GANGSTER.wav", "conditions": [18, 1200, "a", 18000], "internal_node_id": "0.0-42.0", "trial": 1, "time_elapsed": 277066, "serialpos": 5, "key_press": -1, "wordID": 619, "type": "PRES_AUD", "trial_index": 60}, "uniqueid": "MTK2038:3NG53N1RLWQPMAUZLNR94BRVX928P8", "dateTime": 1516653148663}, {"current_trial": 61, "trialdata": {"rt": -1000, "trial_type": "single-audio", "word": "wrist", "stimulus": "/static/audio/wordpool/WRIST.wav", "conditions": [18, 1200, "a", 18000], "internal_node_id": "0.0-43.0", "trial": 1, "time_elapsed": 279346, "serialpos": 6, "key_press": -1, "wordID": 1625, "type": "PRES_AUD", "trial_index": 61}, "uniqueid": "MTK2038:3NG53N1RLWQPMAUZLNR94BRVX928P8", "dateTime": 1516653150943}, {"current_trial": 62, "trialdata": {"rt": -1000, "trial_type": "single-audio", "word": "rattle", "stimulus": "/static/audio/wordpool/RATTLE.wav", "conditions": [18, 1200, "a", 18000], "internal_node_id": "0.0-44.0", "trial": 1, "time_elapsed": 281401, "serialpos": 7, "key_press": -1, "wordID": 1169, "type": "PRES_AUD", "trial_index": 62}, "uniqueid": "MTK2038:3NG53N1RLWQPMAUZLNR94BRVX928P8", "dateTime": 1516653152997}, {"current_trial": 63, "trialdata": {"rt": -1000, "trial_type": "single-audio", "word": "blueprint", "stimulus": "/static/audio/wordpool/BLUEPRINT.wav", "conditions": [18, 1200, "a", 18000], "internal_node_id": "0.0-45.0", "trial": 1, "time_elapsed": 283751, "serialpos": 8, "key_press": -1, "wordID": 141, "type": "PRES_AUD", "trial_index": 63}, "uniqueid": "MTK2038:3NG53N1RLWQPMAUZLNR94BRVX928P8", "dateTime": 1516653155347}, {"current_trial": 64, "trialdata": {"rt": -1000, "trial_type": "single-audio", "word": "handbag", "stimulus": "/static/audio/wordpool/HANDBAG.wav", "conditions": [18, 1200, "a", 18000], "internal_node_id": "0.0-46.0", "trial": 1, "time_elapsed": 285849, "serialpos": 9, "key_press": -1, "wordID": 683, "type": "PRES_AUD", "trial_index": 64}, "uniqueid": "MTK2038:3NG53N1RLWQPMAUZLNR94BRVX928P8", "dateTime": 1516653157445}, {"current_trial": 65, "trialdata": {"rt": -1000, "trial_type": "single-audio", "word": "soda", "stimulus": "/static/audio/wordpool/SODA.wav", "conditions": [18, 1200, "a", 18000], "internal_node_id": "0.0-47.0", "trial": 1, "time_elapsed": 288242, "serialpos": 10, "key_press": -1, "wordID": 1340, "type": "PRES_AUD", "trial_index": 65}, "uniqueid": "MTK2038:3NG53N1RLWQPMAUZLNR94BRVX928P8", "dateTime": 1516653159838}, {"current_trial": 66, "trialdata": {"rt": -1000, "trial_type": "single-audio", "word": "shovel", "stimulus": "/static/audio/wordpool/SHOVEL.wav", "conditions": [18, 1200, "a", 18000], "internal_node_id": "0.0-48.0", "trial": 1, "time_elapsed": 290383, "serialpos": 11, "key_press": -1, "wordID": 1294, "type": "PRES_AUD", "trial_index": 66}, "uniqueid": "MTK2038:3NG53N1RLWQPMAUZLNR94BRVX928P8", "dateTime": 1516653161979}, {"current_trial": 67, "trialdata": {"rt": -1000, "trial_type": "single-audio", "word": "trout", "stimulus": "/static/audio/wordpool/TROUT.wav", "conditions": [18, 1200, "a", 18000], "internal_node_id": "0.0-49.0", "trial": 1, "time_elapsed": 292729, "serialpos": 12, "key_press": -1, "wordID": 1510, "type": "PRES_AUD", "trial_index": 67}, "uniqueid": "MTK2038:3NG53N1RLWQPMAUZLNR94BRVX928P8", "dateTime": 1516653164326}, {"current_trial": 68, "trialdata": {"rt": -1000, "trial_type": "single-audio", "word": "brook", "stimulus": "/static/audio/wordpool/BROOK.wav", "conditions": [18, 1200, "a", 18000], "internal_node_id": "0.0-50.0", "trial": 1, "time_elapsed": 295021, "serialpos": 13, "key_press": -1, "wordID": 176, "type": "PRES_AUD", "trial_index": 68}, "uniqueid": "MTK2038:3NG53N1RLWQPMAUZLNR94BRVX928P8", "dateTime": 1516653166617}, {"current_trial": 69, "trialdata": {"rt": -1000, "trial_type": "single-audio", "word": "buggy", "stimulus": "/static/audio/wordpool/BUGGY.wav", "conditions": [18, 1200, "a", 18000], "internal_node_id": "0.0-51.0", "trial": 1, "time_elapsed": 297187, "serialpos": 14, "key_press": -1, "wordID": 187, "type": "PRES_AUD", "trial_index": 69}, "uniqueid": "MTK2038:3NG53N1RLWQPMAUZLNR94BRVX928P8", "dateTime": 1516653168783}, {"current_trial": 70, "trialdata": {"rt": -1000, "trial_type": "single-audio", "word": "airplane", "stimulus": "/static/audio/wordpool/AIRPLANE.wav", "conditions": [18, 1200, "a", 18000], "internal_node_id": "0.0-52.0", "trial": 1, "time_elapsed": 299270, "serialpos": 15, "key_press": -1, "wordID": 11, "type": "PRES_AUD", "trial_index": 70}, "uniqueid": "MTK2038:3NG53N1RLWQPMAUZLNR94BRVX928P8", "dateTime": 1516653170867}, {"current_trial": 71, "trialdata": {"rt": -1000, "trial_type": "single-audio", "word": "burglar", "stimulus": "/static/audio/wordpool/BURGLAR.wav", "conditions": [18, 1200, "a", 18000], "internal_node_id": "0.0-53.0", "trial": 1, "time_elapsed": 301587, "serialpos": 16, "key_press": -1, "wordID": 199, "type": "PRES_AUD", "trial_index": 71}, "uniqueid": "MTK2038:3NG53N1RLWQPMAUZLNR94BRVX928P8", "dateTime": 1516653173184}, {"current_trial": 72, "trialdata": {"rt": -1000, "trial_type": "single-audio", "word": "lipstick", "stimulus": "/static/audio/wordpool/LIPSTICK.wav", "conditions": [18, 1200, "a", 18000], "internal_node_id": "0.0-54.0", "trial": 1, "time_elapsed": 303913, "serialpos": 17, "key_press": -1, "wordID": 828, "type": "PRES_AUD", "trial_index": 72}, "uniqueid": "MTK2038:3NG53N1RLWQPMAUZLNR94BRVX928P8", "dateTime": 1516653175509}, {"current_trial": 73, "trialdata": {"rt": -1, "trial_type": "single-stim", "stimulus": "", "internal_node_id": "0.0-55.0-0.0", "time_elapsed": 305257, "key_press": -1, "type": "PRE_RECALL_DELAY", "trial_index": 73}, "uniqueid": "MTK2038:3NG53N1RLWQPMAUZLNR94BRVX928P8", "dateTime": 1516653176853}, {"current_trial": 74, "trialdata": {"rt": -1000, "trial_type": "single-audio", "stimulus": "/static/audio/400Hz.wav", "internal_node_id": "0.0-56.0", "time_elapsed": 305761, "key_press": -1, "type": "PRE_RECALL_ALERT", "trial_index": 74}, "uniqueid": "MTK2038:3NG53N1RLWQPMAUZLNR94BRVX928P8", "dateTime": 1516653177358}, {"current_trial": 75, "trialdata": {"rt": [1960, 3579, 4800, 6065, 9007, 11288, 12818, 16586, 28425], "recwords": ["plaster", "preacher", "buggy", "wrist", "burgular", "lipstick", "airplane", "brook", "eyelash"], "key_times": [885, 1065, 1143, 1330, 1513, 1636, 1748, 1960, 2190, 2303, 2376, 2440, 2946, 3127, 3232, 3306, 3579, 4039, 4229, 4324, 4480, 4682, 4800, 5369, 5585, 5681, 5798, 5917, 6065, 6357, 6543, 6673, 7989, 8163, 8480, 8496, 8633, 9007, 9037, 9516, 9801, 10422, 10652, 10768, 10902, 11015, 11288, 11551, 11720, 11806, 12012, 12214, 12319, 12510, 12609, 12818, 14622, 14725, 14869, 15003, 15181, 15259, 15974, 16586, 27332, 27434, 27507, 27789, 27910, 28081, 28165, 28425], "trial_type": "free-recall", "conditions": [18, 1200, "a", 18000], "internal_node_id": "0.0-57.0-0.0", "key_presses": [80, 76, 65, 83, 84, 69, 82, 13, 80, 82, 69, 65, 67, 72, 69, 82, 13, 66, 85, 71, 71, 89, 13, 87, 82, 73, 83, 84, 13, 66, 85, 82, 71, 85, 76, 65, 82, 13, 76, 73, 80, 83, 84, 73, 67, 75, 13, 65, 73, 82, 80, 76, 65, 78, 69, 13, 66, 82, 79, 79, 75, 69, 8, 13, 69, 89, 69, 76, 65, 83, 72, 13], "trial": 1, "time_elapsed": 365777, "type": "FREE_RECALL", "trial_index": 75}, "uniqueid": "MTK2038:3NG53N1RLWQPMAUZLNR94BRVX928P8", "dateTime": 1516653237381}, {"current_trial": 76, "trialdata": {"rt": 1846, "trial_type": "text", "internal_node_id": "0.0-58.0", "time_elapsed": 369634, "key_press": 32, "type": "INSTRUCTIONS", "trial_index": 76}, "uniqueid": "MTK2038:3NG53N1RLWQPMAUZLNR94BRVX928P8", "dateTime": 1516653241231}, {"current_trial": 77, "trialdata": {"rt": [4423, 8214, 10747, 13557, 16312, 19918, 22588], "trial_type": "math-distractor", "key_times": [4114, 4222, 4423, 7925, 8077, 8214, 10449, 10631, 10747, 13235, 13423, 13557, 15778, 16187, 16312, 19593, 19778, 19918, 21994, 22470, 22588], "responses": ["21", "14", "12", "13", "17", "12", "16"], "num2": [9, 5, 7, 3, 7, 4, 5, 9], "num3": [6, 1, 2, 6, 3, 4, 6, 6], "conditions": [24, 800, "a", 24000], "internal_node_id": "0.0-59.0", "key_presses": [50, 49, 13, 49, 52, 13, 49, 50, 13, 49, 51, 13, 49, 55, 13, 49, 50, 13, 49, 54, 13], "trial": 2, "time_elapsed": 394651, "type": "DISTRACTOR", "trial_index": 77, "num1": [6, 8, 3, 4, 7, 4, 5, 7]}, "uniqueid": "MTK2038:3NG53N1RLWQPMAUZLNR94BRVX928P8", "dateTime": 1516653266247}, {"current_trial": 78, "trialdata": {"rt": -1, "trial_type": "single-stim", "stimulus": "<p id=\"stim\">10</p>", "internal_node_id": "0.0-60.0-0.0", "time_elapsed": 397657, "key_press": -1, "trial_index": 78}, "uniqueid": "MTK2038:3NG53N1RLWQPMAUZLNR94BRVX928P8", "dateTime": 1516653269253}, {"current_trial": 79, "trialdata": {"rt": -1, "trial_type": "single-stim", "stimulus": "<p id=\"stim\">9</p>", "internal_node_id": "0.0-60.0-1.0", "time_elapsed": 398662, "key_press": -1, "trial_index": 79}, "uniqueid": "MTK2038:3NG53N1RLWQPMAUZLNR94BRVX928P8", "dateTime": 1516653270259}, {"current_trial": 80, "trialdata": {"rt": -1, "trial_type": "single-stim", "stimulus": "<p id=\"stim\">8</p>", "internal_node_id": "0.0-60.0-2.0", "time_elapsed": 399667, "key_press": -1, "trial_index": 80}, "uniqueid": "MTK2038:3NG53N1RLWQPMAUZLNR94BRVX928P8", "dateTime": 1516653271263}, {"current_trial": 81, "trialdata": {"rt": -1, "trial_type": "single-stim", "stimulus": "<p id=\"stim\">7</p>", "internal_node_id": "0.0-60.0-3.0", "time_elapsed": 400671, "key_press": -1, "trial_index": 81}, "uniqueid": "MTK2038:3NG53N1RLWQPMAUZLNR94BRVX928P8", "dateTime": 1516653272270}, {"current_trial": 82, "trialdata": {"rt": -1, "trial_type": "single-stim", "stimulus": "<p id=\"stim\">6</p>", "internal_node_id": "0.0-60.0-4.0", "time_elapsed": 401678, "key_press": -1, "trial_index": 82}, "uniqueid": "MTK2038:3NG53N1RLWQPMAUZLNR94BRVX928P8", "dateTime": 1516653273275}, {"current_trial": 83, "trialdata": {"rt": -1, "trial_type": "single-stim", "stimulus": "<p id=\"stim\">5</p>", "internal_node_id": "0.0-60.0-5.0", "time_elapsed": 402686, "key_press": -1, "trial_index": 83}, "uniqueid": "MTK2038:3NG53N1RLWQPMAUZLNR94BRVX928P8", "dateTime": 1516653274283}, {"current_trial": 84, "trialdata": {"rt": -1, "trial_type": "single-stim", "stimulus": "<p id=\"stim\">4</p>", "internal_node_id": "0.0-60.0-6.0", "time_elapsed": 403690, "key_press": -1, "trial_index": 84}, "uniqueid": "MTK2038:3NG53N1RLWQPMAUZLNR94BRVX928P8", "dateTime": 1516653275287}, {"current_trial": 85, "trialdata": {"rt": -1, "trial_type": "single-stim", "stimulus": "<p id=\"stim\">3</p>", "internal_node_id": "0.0-60.0-7.0", "time_elapsed": 404693, "key_press": -1, "trial_index": 85}, "uniqueid": "MTK2038:3NG53N1RLWQPMAUZLNR94BRVX928P8", "dateTime": 1516653276289}, {"current_trial": 86, "trialdata": {"rt": -1, "trial_type": "single-stim", "stimulus": "<p id=\"stim\">2</p>", "internal_node_id": "0.0-60.0-8.0", "time_elapsed": 405698, "key_press": -1, "trial_index": 86}, "uniqueid": "MTK2038:3NG53N1RLWQPMAUZLNR94BRVX928P8", "dateTime": 1516653277295}, {"current_trial": 87, "trialdata": {"rt": -1, "trial_type": "single-stim", "stimulus": "<p id=\"stim\">1</p>", "internal_node_id": "0.0-60.0-9.0", "time_elapsed": 406703, "key_press": -1, "trial_index": 87}, "uniqueid": "MTK2038:3NG53N1RLWQPMAUZLNR94BRVX928P8", "dateTime": 1516653278300}, {"current_trial": 88, "trialdata": {"rt": -1, "trial_type": "single-stim", "stimulus": "<p id=\"stim\">+</p>", "internal_node_id": "0.0-61.0-0.0", "time_elapsed": 408210, "key_press": -1, "type": "FIXATION", "trial_index": 88}, "uniqueid": "MTK2038:3NG53N1RLWQPMAUZLNR94BRVX928P8", "dateTime": 1516653279807}, {"current_trial": 89, "trialdata": {"rt": -1000, "trial_type": "single-audio", "word": "turtle", "stimulus": "/static/audio/wordpool/TURTLE.wav", "conditions": [24, 800, "a", 24000], "internal_node_id": "0.0-62.0", "trial": 2, "time_elapsed": 410128, "serialpos": 0, "key_press": -1, "wordID": 1521, "type": "PRES_AUD", "trial_index": 89}, "uniqueid": "MTK2038:3NG53N1RLWQPMAUZLNR94BRVX928P8", "dateTime": 1516653281724}, {"current_trial": 90, "trialdata": {"rt": -1000, "trial_type": "single-audio", "word": "tablet", "stimulus": "/static/audio/wordpool/TABLET.wav", "conditions": [24, 800, "a", 24000], "internal_node_id": "0.0-63.0", "trial": 2, "time_elapsed": 411777, "serialpos": 1, "key_press": -1, "wordID": 1426, "type": "PRES_AUD", "trial_index": 90}, "uniqueid": "MTK2038:3NG53N1RLWQPMAUZLNR94BRVX928P8", "dateTime": 1516653283373}, {"current_trial": 91, "trialdata": {"rt": -1000, "trial_type": "single-audio", "word": "gymnast", "stimulus": "/static/audio/wordpool/GYMNAST.wav", "conditions": [24, 800, "a", 24000], "internal_node_id": "0.0-64.0", "trial": 2, "time_elapsed": 413665, "serialpos": 2, "key_press": -1, "wordID": 674, "type": "PRES_AUD", "trial_index": 91}, "uniqueid": "MTK2038:3NG53N1RLWQPMAUZLNR94BRVX928P8", "dateTime": 1516653285261}, {"current_trial": 92, "trialdata": {"rt": -1000, "trial_type": "single-audio", "word": "salad", "stimulus": "/static/audio/wordpool/SALAD.wav", "conditions": [24, 800, "a", 24000], "internal_node_id": "0.0-65.0", "trial": 2, "time_elapsed": 415633, "serialpos": 3, "key_press": -1, "wordID": 1223, "type": "PRES_AUD", "trial_index": 92}, "uniqueid": "MTK2038:3NG53N1RLWQPMAUZLNR94BRVX928P8", "dateTime": 1516653287230}, {"current_trial": 93, "trialdata": {"rt": -1000, "trial_type": "single-audio", "word": "neutron", "stimulus": "/static/audio/wordpool/NEUTRON.wav", "conditions": [24, 800, "a", 24000], "internal_node_id": "0.0-66.0", "trial": 2, "time_elapsed": 417292, "serialpos": 4, "key_press": -1, "wordID": 946, "type": "PRES_AUD", "trial_index": 93}, "uniqueid": "MTK2038:3NG53N1RLWQPMAUZLNR94BRVX928P8", "dateTime": 1516653288888}, {"current_trial": 94, "trialdata": {"rt": -1000, "trial_type": "single-audio", "word": "chipmunk", "stimulus": "/static/audio/wordpool/CHIPMUNK.wav", "conditions": [24, 800, "a", 24000], "internal_node_id": "0.0-67.0", "trial": 2, "time_elapsed": 418949, "serialpos": 5, "key_press": -1, "wordID": 303, "type": "PRES_AUD", "trial_index": 94}, "uniqueid": "MTK2038:3NG53N1RLWQPMAUZLNR94BRVX928P8", "dateTime": 1516653290545}, {"current_trial": 95, "trialdata": {"rt": -1000, "trial_type": "single-audio", "word": "dancer", "stimulus": "/static/audio/wordpool/DANCER.wav", "conditions": [24, 800, "a", 24000], "internal_node_id": "0.0-68.0", "trial": 2, "time_elapsed": 420573, "serialpos": 6, "key_press": -1, "wordID": 436, "type": "PRES_AUD", "trial_index": 95}, "uniqueid": "MTK2038:3NG53N1RLWQPMAUZLNR94BRVX928P8", "dateTime": 1516653292169}, {"current_trial": 96, "trialdata": {"rt": -1000, "trial_type": "single-audio", "word": "inmate", "stimulus": "/static/audio/wordpool/INMATE.wav", "conditions": [24, 800, "a", 24000], "internal_node_id": "0.0-69.0", "trial": 2, "time_elapsed": 422351, "serialpos": 7, "key_press": -1, "wordID": 737, "type": "PRES_AUD", "trial_index": 96}, "uniqueid": "MTK2038:3NG53N1RLWQPMAUZLNR94BRVX928P8", "dateTime": 1516653293951}, {"current_trial": 97, "trialdata": {"rt": -1000, "trial_type": "single-audio", "word": "victim", "stimulus": "/static/audio/wordpool/VICTIM.wav", "conditions": [24, 800, "a", 24000], "internal_node_id": "0.0-70.0", "trial": 2, "time_elapsed": 424085, "serialpos": 8, "key_press": -1, "wordID": 1561, "type": "PRES_AUD", "trial_index": 97}, "uniqueid": "MTK2038:3NG53N1RLWQPMAUZLNR94BRVX928P8", "dateTime": 1516653295681}, {"current_trial": 98, "trialdata": {"rt": -1000, "trial_type": "single-audio", "word": "scalpel", "stimulus": "/static/audio/wordpool/SCALPEL.wav", "conditions": [24, 800, "a", 24000], "internal_node_id": "0.0-71.0", "trial": 2, "time_elapsed": 426061, "serialpos": 9, "key_press": -1, "wordID": 1242, "type": "PRES_AUD", "trial_index": 98}, "uniqueid": "MTK2038:3NG53N1RLWQPMAUZLNR94BRVX928P8", "dateTime": 1516653297657}, {"current_trial": 99, "trialdata": {"rt": -1000, "trial_type": "single-audio", "word": "razor", "stimulus": "/static/audio/wordpool/RAZOR.wav", "conditions": [24, 800, "a", 24000], "internal_node_id": "0.0-72.0", "trial": 2, "time_elapsed": 427961, "serialpos": 10, "key_press": -1, "wordID": 1170, "type": "PRES_AUD", "trial_index": 99}, "uniqueid": "MTK2038:3NG53N1RLWQPMAUZLNR94BRVX928P8", "dateTime": 1516653299557}, {"current_trial": 100, "trialdata": {"rt": -1000, "trial_type": "single-audio", "word": "female", "stimulus": "/static/audio/wordpool/FEMALE.wav", "conditions": [24, 800, "a", 24000], "internal_node_id": "0.0-73.0", "trial": 2, "time_elapsed": 429635, "serialpos": 11, "key_press": -1, "wordID": 558, "type": "PRES_AUD", "trial_index": 100}, "uniqueid": "MTK2038:3NG53N1RLWQPMAUZLNR94BRVX928P8", "dateTime": 1516653301231}, {"current_trial": 101, "trialdata": {"rt": -1000, "trial_type": "single-audio", "word": "dragon", "stimulus": "/static/audio/wordpool/DRAGON.wav", "conditions": [24, 800, "a", 24000], "internal_node_id": "0.0-74.0", "trial": 2, "time_elapsed": 431362, "serialpos": 12, "key_press": -1, "wordID": 491, "type": "PRES_AUD", "trial_index": 101}, "uniqueid": "MTK2038:3NG53N1RLWQPMAUZLNR94BRVX928P8", "dateTime": 1516653302959}, {"current_trial": 102, "trialdata": {"rt": -1000, "trial_type": "single-audio", "word": "guard", "stimulus": "/static/audio/wordpool/GUARD.wav", "conditions": [24, 800, "a", 24000], "internal_node_id": "0.0-75.0", "trial": 2, "time_elapsed": 432965, "serialpos": 13, "key_press": -1, "wordID": 666, "type": "PRES_AUD", "trial_index": 102}, "uniqueid": "MTK2038:3NG53N1RLWQPMAUZLNR94BRVX928P8", "dateTime": 1516653304561}, {"current_trial": 103, "trialdata": {"rt": -1000, "trial_type": "single-audio", "word": "robber", "stimulus": "/static/audio/wordpool/ROBBER.wav", "conditions": [24, 800, "a", 24000], "internal_node_id": "0.0-76.0", "trial": 2, "time_elapsed": 434791, "serialpos": 14, "key_press": -1, "wordID": 1196, "type": "PRES_AUD", "trial_index": 103}, "uniqueid": "MTK2038:3NG53N1RLWQPMAUZLNR94BRVX928P8", "dateTime": 1516653306388}, {"current_trial": 104, "trialdata": {"rt": -1000, "trial_type": "single-audio", "word": "uncle", "stimulus": "/static/audio/wordpool/UNCLE.wav", "conditions": [24, 800, "a", 24000], "internal_node_id": "0.0-77.0", "trial": 2, "time_elapsed": 436651, "serialpos": 15, "key_press": -1, "wordID": 1535, "type": "PRES_AUD", "trial_index": 104}, "uniqueid": "MTK2038:3NG53N1RLWQPMAUZLNR94BRVX928P8", "dateTime": 1516653308247}, {"current_trial": 105, "trialdata": {"rt": -1000, "trial_type": "single-audio", "word": "garden", "stimulus": "/static/audio/wordpool/GARDEN.wav", "conditions": [24, 800, "a", 24000], "internal_node_id": "0.0-78.0", "trial": 2, "time_elapsed": 438378, "serialpos": 16, "key_press": -1, "wordID": 622, "type": "PRES_AUD", "trial_index": 105}, "uniqueid": "MTK2038:3NG53N1RLWQPMAUZLNR94BRVX928P8", "dateTime": 1516653309974}, {"current_trial": 106, "trialdata": {"rt": -1000, "trial_type": "single-audio", "word": "marsh", "stimulus": "/static/audio/wordpool/MARSH.wav", "conditions": [24, 800, "a", 24000], "internal_node_id": "0.0-79.0", "trial": 2, "time_elapsed": 440192, "serialpos": 17, "key_press": -1, "wordID": 873, "type": "PRES_AUD", "trial_index": 106}, "uniqueid": "MTK2038:3NG53N1RLWQPMAUZLNR94BRVX928P8", "dateTime": 1516653311788}, {"current_trial": 107, "trialdata": {"rt": -1000, "trial_type": "single-audio", "word": "ox", "stimulus": "/static/audio/wordpool/OX.wav", "conditions": [24, 800, "a", 24000], "internal_node_id": "0.0-80.0", "trial": 2, "time_elapsed": 442128, "serialpos": 18, "key_press": -1, "wordID": 993, "type": "PRES_AUD", "trial_index": 107}, "uniqueid": "MTK2038:3NG53N1RLWQPMAUZLNR94BRVX928P8", "dateTime": 1516653313725}, {"current_trial": 108, "trialdata": {"rt": -1000, "trial_type": "single-audio", "word": "snail", "stimulus": "/static/audio/wordpool/SNAIL.wav", "conditions": [24, 800, "a", 24000], "internal_node_id": "0.0-81.0", "trial": 2, "time_elapsed": 443797, "serialpos": 19, "key_press": -1, "wordID": 1331, "type": "PRES_AUD", "trial_index": 108}, "uniqueid": "MTK2038:3NG53N1RLWQPMAUZLNR94BRVX928P8", "dateTime": 1516653315394}, {"current_trial": 109, "trialdata": {"rt": -1000, "trial_type": "single-audio", "word": "tortoise", "stimulus": "/static/audio/wordpool/TORTOISE.wav", "conditions": [24, 800, "a", 24000], "internal_node_id": "0.0-82.0", "trial": 2, "time_elapsed": 445693, "serialpos": 20, "key_press": -1, "wordID": 1485, "type": "PRES_AUD", "trial_index": 109}, "uniqueid": "MTK2038:3NG53N1RLWQPMAUZLNR94BRVX928P8", "dateTime": 1516653317290}, {"current_trial": 110, "trialdata": {"rt": -1000, "trial_type": "single-audio", "word": "farmer", "stimulus": "/static/audio/wordpool/FARMER.wav", "conditions": [24, 800, "a", 24000], "internal_node_id": "0.0-83.0", "trial": 2, "time_elapsed": 447673, "serialpos": 21, "key_press": -1, "wordID": 552, "type": "PRES_AUD", "trial_index": 110}, "uniqueid": "MTK2038:3NG53N1RLWQPMAUZLNR94BRVX928P8", "dateTime": 1516653319270}, {"current_trial": 111, "trialdata": {"rt": -1000, "trial_type": "single-audio", "word": "brother", "stimulus": "/static/audio/wordpool/BROTHER.wav", "conditions": [24, 800, "a", 24000], "internal_node_id": "0.0-84.0", "trial": 2, "time_elapsed": 449515, "serialpos": 22, "key_press": -1, "wordID": 178, "type": "PRES_AUD", "trial_index": 111}, "uniqueid": "MTK2038:3NG53N1RLWQPMAUZLNR94BRVX928P8", "dateTime": 1516653321111}, {"current_trial": 112, "trialdata": {"rt": -1000, "trial_type": "single-audio", "word": "church", "stimulus": "/static/audio/wordpool/CHURCH.wav", "conditions": [24, 800, "a", 24000], "internal_node_id": "0.0-85.0", "trial": 2, "time_elapsed": 451207, "serialpos": 23, "key_press": -1, "wordID": 306, "type": "PRES_AUD", "trial_index": 112}, "uniqueid": "MTK2038:3NG53N1RLWQPMAUZLNR94BRVX928P8", "dateTime": 1516653322803}, {"current_trial": 113, "trialdata": {"rt": -1, "trial_type": "single-stim", "stimulus": "", "internal_node_id": "0.0-86.0-0.0", "time_elapsed": 452557, "key_press": -1, "type": "PRE_RECALL_DELAY", "trial_index": 113}, "uniqueid": "MTK2038:3NG53N1RLWQPMAUZLNR94BRVX928P8", "dateTime": 1516653324153}, {"current_trial": 114, "trialdata": {"rt": -1000, "trial_type": "single-audio", "stimulus": "/static/audio/400Hz.wav", "internal_node_id": "0.0-87.0", "time_elapsed": 453069, "key_press": -1, "type": "PRE_RECALL_ALERT", "trial_index": 114}, "uniqueid": "MTK2038:3NG53N1RLWQPMAUZLNR94BRVX928P8", "dateTime": 1516653324665}, {"current_trial": 115, "trialdata": {"rt": [2094, 3133, 7447, 9932, 11602, 12965, 17949, 19931, 22898], "recwords": ["turtle", "tablet", "church", "brother", "tortoise", "garden", "victim", "scalpel", "inmate"], "key_times": [839, 1011, 1107, 1322, 1587, 1591, 2094, 2247, 2411, 2559, 2721, 2786, 2959, 3133, 4130, 4315, 4605, 4750, 5018, 5399, 5817, 5983, 6120, 6242, 6805, 6919, 7133, 7180, 7447, 7691, 7858, 8244, 8413, 9200, 9320, 9413, 9514, 9597, 9688, 9749, 9932, 10230, 10361, 10486, 10742, 10891, 11080, 11228, 11376, 11602, 11959, 12093, 12227, 12419, 12611, 12712, 12965, 16637, 16758, 16882, 17161, 17295, 17626, 17949, 18184, 18401, 18497, 18780, 19351, 19447, 19643, 19931, 21910, 22039, 22258, 22299, 22543, 22598, 22898], "trial_type": "free-recall", "conditions": [24, 800, "a", 24000], "internal_node_id": "0.0-88.0-0.0", "key_presses": [84, 85, 82, 84, 76, 69, 13, 84, 65, 66, 76, 69, 84, 13, 67, 72, 82, 85, 67, 72, 8, 8, 8, 8, 85, 82, 67, 72, 13, 84, 65, 8, 8, 66, 82, 79, 84, 72, 69, 82, 13, 84, 79, 82, 84, 79, 73, 83, 69, 13, 71, 65, 82, 68, 69, 78, 13, 86, 73, 67, 84, 73, 77, 13, 83, 67, 65, 76, 80, 69, 76, 32, 73, 78, 77, 65, 84, 69, 13], "trial": 2, "time_elapsed": 513078, "type": "FREE_RECALL", "trial_index": 115}, "uniqueid": "MTK2038:3NG53N1RLWQPMAUZLNR94BRVX928P8", "dateTime": 1516653384679}, {"current_trial": 116, "trialdata": {"rt": 3054, "trial_type": "text", "internal_node_id": "0.0-89.0", "time_elapsed": 518142, "key_press": 32, "type": "INSTRUCTIONS", "trial_index": 116}, "uniqueid": "MTK2038:3NG53N1RLWQPMAUZLNR94BRVX928P8", "dateTime": 1516653389738}, {"current_trial": 117, "trialdata": {"rt": [2483, 7772, 10475], "trial_type": "math-distractor", "key_times": [2170, 2320, 2483, 7411, 7593, 7772, 10074, 10330, 10475], "responses": ["13", "22", "14"], "num2": [5, 6, 1, 7], "num3": [4, 6, 4, 3], "conditions": [24, 1600, "a", 12000], "internal_node_id": "0.0-90.0", "key_presses": [49, 51, 13, 50, 50, 13, 49, 52, 13], "trial": 3, "time_elapsed": 532155, "type": "DISTRACTOR", "trial_index": 117, "num1": [6, 9, 9, 9]}, "uniqueid": "MTK2038:3NG53N1RLWQPMAUZLNR94BRVX928P8", "dateTime": 1516653403751}, {"current_trial": 118, "trialdata": {"rt": -1, "trial_type": "single-stim", "stimulus": "<p id=\"stim\">10</p>", "internal_node_id": "0.0-91.0-0.0", "time_elapsed": 535159, "key_press": -1, "trial_index": 118}, "uniqueid": "MTK2038:3NG53N1RLWQPMAUZLNR94BRVX928P8", "dateTime": 1516653406756}, {"current_trial": 119, "trialdata": {"rt": -1, "trial_type": "single-stim", "stimulus": "<p id=\"stim\">9</p>", "internal_node_id": "0.0-91.0-1.0", "time_elapsed": 536165, "key_press": -1, "trial_index": 119}, "uniqueid": "MTK2038:3NG53N1RLWQPMAUZLNR94BRVX928P8", "dateTime": 1516653407761}, {"current_trial": 120, "trialdata": {"rt": -1, "trial_type": "single-stim", "stimulus": "<p id=\"stim\">8</p>", "internal_node_id": "0.0-91.0-2.0", "time_elapsed": 537174, "key_press": -1, "trial_index": 120}, "uniqueid": "MTK2038:3NG53N1RLWQPMAUZLNR94BRVX928P8", "dateTime": 1516653408771}, {"current_trial": 121, "trialdata": {"rt": -1, "trial_type": "single-stim", "stimulus": "<p id=\"stim\">7</p>", "internal_node_id": "0.0-91.0-3.0", "time_elapsed": 538181, "key_press": -1, "trial_index": 121}, "uniqueid": "MTK2038:3NG53N1RLWQPMAUZLNR94BRVX928P8", "dateTime": 1516653409777}, {"current_trial": 122, "trialdata": {"rt": -1, "trial_type": "single-stim", "stimulus": "<p id=\"stim\">6</p>", "internal_node_id": "0.0-91.0-4.0", "time_elapsed": 539184, "key_press": -1, "trial_index": 122}, "uniqueid": "MTK2038:3NG53N1RLWQPMAUZLNR94BRVX928P8", "dateTime": 1516653410781}, {"current_trial": 123, "trialdata": {"rt": -1, "trial_type": "single-stim", "stimulus": "<p id=\"stim\">5</p>", "internal_node_id": "0.0-91.0-5.0", "time_elapsed": 540192, "key_press": -1, "trial_index": 123}, "uniqueid": "MTK2038:3NG53N1RLWQPMAUZLNR94BRVX928P8", "dateTime": 1516653411790}, {"current_trial": 124, "trialdata": {"rt": -1, "trial_type": "single-stim", "stimulus": "<p id=\"stim\">4</p>", "internal_node_id": "0.0-91.0-6.0", "time_elapsed": 541198, "key_press": -1, "trial_index": 124}, "uniqueid": "MTK2038:3NG53N1RLWQPMAUZLNR94BRVX928P8", "dateTime": 1516653412794}, {"current_trial": 125, "trialdata": {"rt": -1, "trial_type": "single-stim", "stimulus": "<p id=\"stim\">3</p>", "internal_node_id": "0.0-91.0-7.0", "time_elapsed": 542202, "key_press": -1, "trial_index": 125}, "uniqueid": "MTK2038:3NG53N1RLWQPMAUZLNR94BRVX928P8", "dateTime": 1516653413798}, {"current_trial": 126, "trialdata": {"rt": -1, "trial_type": "single-stim", "stimulus": "<p id=\"stim\">2</p>", "internal_node_id": "0.0-91.0-8.0", "time_elapsed": 543206, "key_press": -1, "trial_index": 126}, "uniqueid": "MTK2038:3NG53N1RLWQPMAUZLNR94BRVX928P8", "dateTime": 1516653414802}, {"current_trial": 127, "trialdata": {"rt": -1, "trial_type": "single-stim", "stimulus": "<p id=\"stim\">1</p>", "internal_node_id": "0.0-91.0-9.0", "time_elapsed": 544211, "key_press": -1, "trial_index": 127}, "uniqueid": "MTK2038:3NG53N1RLWQPMAUZLNR94BRVX928P8", "dateTime": 1516653415808}, {"current_trial": 128, "trialdata": {"rt": -1, "trial_type": "single-stim", "stimulus": "<p id=\"stim\">+</p>", "internal_node_id": "0.0-92.0-0.0", "time_elapsed": 545721, "key_press": -1, "type": "FIXATION", "trial_index": 128}, "uniqueid": "MTK2038:3NG53N1RLWQPMAUZLNR94BRVX928P8", "dateTime": 1516653417317}, {"current_trial": 129, "trialdata": {"rt": -1000, "trial_type": "single-audio", "word": "tuba", "stimulus": "/static/audio/wordpool/TUBA.wav", "conditions": [24, 1600, "a", 12000], "internal_node_id": "0.0-93.0", "trial": 3, "time_elapsed": 548385, "serialpos": 0, "key_press": -1, "wordID": 1514, "type": "PRES_AUD", "trial_index": 129}, "uniqueid": "MTK2038:3NG53N1RLWQPMAUZLNR94BRVX928P8", "dateTime": 1516653419981}, {"current_trial": 130, "trialdata": {"rt": -1000, "trial_type": "single-audio", "word": "picnic", "stimulus": "/static/audio/wordpool/PICNIC.wav", "conditions": [24, 1600, "a", 12000], "internal_node_id": "0.0-94.0", "trial": 3, "time_elapsed": 550861, "serialpos": 1, "key_press": -1, "wordID": 1059, "type": "PRES_AUD", "trial_index": 130}, "uniqueid": "MTK2038:3NG53N1RLWQPMAUZLNR94BRVX928P8", "dateTime": 1516653422457}, {"current_trial": 131, "trialdata": {"rt": -1000, "trial_type": "single-audio", "word": "asia", "stimulus": "/static/audio/wordpool/ASIA.wav", "conditions": [24, 1600, "a", 12000], "internal_node_id": "0.0-95.0", "trial": 3, "time_elapsed": 553437, "serialpos": 2, "key_press": -1, "wordID": 45, "type": "PRES_AUD", "trial_index": 131}, "uniqueid": "MTK2038:3NG53N1RLWQPMAUZLNR94BRVX928P8", "dateTime": 1516653425034}, {"current_trial": 132, "trialdata": {"rt": -1000, "trial_type": "single-audio", "word": "bunny", "stimulus": "/static/audio/wordpool/BUNNY.wav", "conditions": [24, 1600, "a", 12000], "internal_node_id": "0.0-96.0", "trial": 3, "time_elapsed": 555909, "serialpos": 3, "key_press": -1, "wordID": 197, "type": "PRES_AUD", "trial_index": 132}, "uniqueid": "MTK2038:3NG53N1RLWQPMAUZLNR94BRVX928P8", "dateTime": 1516653427505}, {"current_trial": 133, "trialdata": {"rt": -1000, "trial_type": "single-audio", "word": "couch", "stimulus": "/static/audio/wordpool/COUCH.wav", "conditions": [24, 1600, "a", 12000], "internal_node_id": "0.0-97.0", "trial": 3, "time_elapsed": 558398, "serialpos": 4, "key_press": -1, "wordID": 385, "type": "PRES_AUD", "trial_index": 133}, "uniqueid": "MTK2038:3NG53N1RLWQPMAUZLNR94BRVX928P8", "dateTime": 1516653429994}, {"current_trial": 134, "trialdata": {"rt": -1000, "trial_type": "single-audio", "word": "flag", "stimulus": "/static/audio/wordpool/FLAG.wav", "conditions": [24, 1600, "a", 12000], "internal_node_id": "0.0-98.0", "trial": 3, "time_elapsed": 561075, "serialpos": 5, "key_press": -1, "wordID": 572, "type": "PRES_AUD", "trial_index": 134}, "uniqueid": "MTK2038:3NG53N1RLWQPMAUZLNR94BRVX928P8", "dateTime": 1516653432671}, {"current_trial": 135, "trialdata": {"rt": -1000, "trial_type": "single-audio", "word": "tombstone", "stimulus": "/static/audio/wordpool/TOMBSTONE.wav", "conditions": [24, 1600, "a", 12000], "internal_node_id": "0.0-99.0", "trial": 3, "time_elapsed": 563575, "serialpos": 6, "key_press": -1, "wordID": 1477, "type": "PRES_AUD", "trial_index": 135}, "uniqueid": "MTK2038:3NG53N1RLWQPMAUZLNR94BRVX928P8", "dateTime": 1516653435171}, {"current_trial": 136, "trialdata": {"rt": -1000, "trial_type": "single-audio", "word": "crater", "stimulus": "/static/audio/wordpool/CRATER.wav", "conditions": [24, 1600, "a", 12000], "internal_node_id": "0.0-100.0", "trial": 3, "time_elapsed": 566258, "serialpos": 7, "key_press": -1, "wordID": 399, "type": "PRES_AUD", "trial_index": 136}, "uniqueid": "MTK2038:3NG53N1RLWQPMAUZLNR94BRVX928P8", "dateTime": 1516653437855}, {"current_trial": 137, "trialdata": {"rt": -1000, "trial_type": "single-audio", "word": "world", "stimulus": "/static/audio/wordpool/WORLD.wav", "conditions": [24, 1600, "a", 12000], "internal_node_id": "0.0-101.0", "trial": 3, "time_elapsed": 568776, "serialpos": 8, "key_press": -1, "wordID": 1621, "type": "PRES_AUD", "trial_index": 137}, "uniqueid": "MTK2038:3NG53N1RLWQPMAUZLNR94BRVX928P8", "dateTime": 1516653440373}, {"current_trial": 138, "trialdata": {"rt": -1000, "trial_type": "single-audio", "word": "casket", "stimulus": "/static/audio/wordpool/CASKET.wav", "conditions": [24, 1600, "a", 12000], "internal_node_id": "0.0-102.0", "trial": 3, "time_elapsed": 571500, "serialpos": 9, "key_press": -1, "wordID": 254, "type": "PRES_AUD", "trial_index": 138}, "uniqueid": "MTK2038:3NG53N1RLWQPMAUZLNR94BRVX928P8", "dateTime": 1516653443096}, {"current_trial": 139, "trialdata": {"rt": -1000, "trial_type": "single-audio", "word": "europe", "stimulus": "/static/audio/wordpool/EUROPE.wav", "conditions": [24, 1600, "a", 12000], "internal_node_id": "0.0-103.0", "trial": 3, "time_elapsed": 574301, "serialpos": 10, "key_press": -1, "wordID": 540, "type": "PRES_AUD", "trial_index": 139}, "uniqueid": "MTK2038:3NG53N1RLWQPMAUZLNR94BRVX928P8", "dateTime": 1516653445897}, {"current_trial": 140, "trialdata": {"rt": -1000, "trial_type": "single-audio", "word": "london", "stimulus": "/static/audio/wordpool/LONDON.wav", "conditions": [24, 1600, "a", 12000], "internal_node_id": "0.0-104.0", "trial": 3, "time_elapsed": 577018, "serialpos": 11, "key_press": -1, "wordID": 842, "type": "PRES_AUD", "trial_index": 140}, "uniqueid": "MTK2038:3NG53N1RLWQPMAUZLNR94BRVX928P8", "dateTime": 1516653448614}, {"current_trial": 141, "trialdata": {"rt": -1000, "trial_type": "single-audio", "word": "valve", "stimulus": "/static/audio/wordpool/VALVE.wav", "conditions": [24, 1600, "a", 12000], "internal_node_id": "0.0-105.0", "trial": 3, "time_elapsed": 579725, "serialpos": 12, "key_press": -1, "wordID": 1545, "type": "PRES_AUD", "trial_index": 141}, "uniqueid": "MTK2038:3NG53N1RLWQPMAUZLNR94BRVX928P8", "dateTime": 1516653451321}, {"current_trial": 142, "trialdata": {"rt": -1000, "trial_type": "single-audio", "word": "cabin", "stimulus": "/static/audio/wordpool/CABIN.wav", "conditions": [24, 1600, "a", 12000], "internal_node_id": "0.0-106.0", "trial": 3, "time_elapsed": 582350, "serialpos": 13, "key_press": -1, "wordID": 210, "type": "PRES_AUD", "trial_index": 142}, "uniqueid": "MTK2038:3NG53N1RLWQPMAUZLNR94BRVX928P8", "dateTime": 1516653453946}, {"current_trial": 143, "trialdata": {"rt": -1000, "trial_type": "single-audio", "word": "maple", "stimulus": "/static/audio/wordpool/MAPLE.wav", "conditions": [24, 1600, "a", 12000], "internal_node_id": "0.0-107.0", "trial": 3, "time_elapsed": 584899, "serialpos": 14, "key_press": -1, "wordID": 865, "type": "PRES_AUD", "trial_index": 143}, "uniqueid": "MTK2038:3NG53N1RLWQPMAUZLNR94BRVX928P8", "dateTime": 1516653456495}, {"current_trial": 144, "trialdata": {"rt": -1000, "trial_type": "single-audio", "word": "gravel", "stimulus": "/static/audio/wordpool/GRAVEL.wav", "conditions": [24, 1600, "a", 12000], "internal_node_id": "0.0-108.0", "trial": 3, "time_elapsed": 587489, "serialpos": 15, "key_press": -1, "wordID": 658, "type": "PRES_AUD", "trial_index": 144}, "uniqueid": "MTK2038:3NG53N1RLWQPMAUZLNR94BRVX928P8", "dateTime": 1516653459086}, {"current_trial": 145, "trialdata": {"rt": -1000, "trial_type": "single-audio", "word": "chest", "stimulus": "/static/audio/wordpool/CHEST.wav", "conditions": [24, 1600, "a", 12000], "internal_node_id": "0.0-109.0", "trial": 3, "time_elapsed": 590024, "serialpos": 16, "key_press": -1, "wordID": 294, "type": "PRES_AUD", "trial_index": 145}, "uniqueid": "MTK2038:3NG53N1RLWQPMAUZLNR94BRVX928P8", "dateTime": 1516653461620}, {"current_trial": 146, "trialdata": {"rt": -1000, "trial_type": "single-audio", "word": "server", "stimulus": "/static/audio/wordpool/SERVER.wav", "conditions": [24, 1600, "a", 12000], "internal_node_id": "0.0-110.0", "trial": 3, "time_elapsed": 592644, "serialpos": 17, "key_press": -1, "wordID": 1271, "type": "PRES_AUD", "trial_index": 146}, "uniqueid": "MTK2038:3NG53N1RLWQPMAUZLNR94BRVX928P8", "dateTime": 1516653464241}, {"current_trial": 147, "trialdata": {"rt": -1000, "trial_type": "single-audio", "word": "infant", "stimulus": "/static/audio/wordpool/INFANT.wav", "conditions": [24, 1600, "a", 12000], "internal_node_id": "0.0-111.0", "trial": 3, "time_elapsed": 595129, "serialpos": 18, "key_press": -1, "wordID": 736, "type": "PRES_AUD", "trial_index": 147}, "uniqueid": "MTK2038:3NG53N1RLWQPMAUZLNR94BRVX928P8", "dateTime": 1516653466725}, {"current_trial": 148, "trialdata": {"rt": -1000, "trial_type": "single-audio", "word": "fireplace", "stimulus": "/static/audio/wordpool/FIREPLACE.wav", "conditions": [24, 1600, "a", 12000], "internal_node_id": "0.0-112.0", "trial": 3, "time_elapsed": 597886, "serialpos": 19, "key_press": -1, "wordID": 569, "type": "PRES_AUD", "trial_index": 148}, "uniqueid": "MTK2038:3NG53N1RLWQPMAUZLNR94BRVX928P8", "dateTime": 1516653469482}, {"current_trial": 149, "trialdata": {"rt": -1000, "trial_type": "single-audio", "word": "piston", "stimulus": "/static/audio/wordpool/PISTON.wav", "conditions": [24, 1600, "a", 12000], "internal_node_id": "0.0-113.0", "trial": 3, "time_elapsed": 600304, "serialpos": 20, "key_press": -1, "wordID": 1075, "type": "PRES_AUD", "trial_index": 149}, "uniqueid": "MTK2038:3NG53N1RLWQPMAUZLNR94BRVX928P8", "dateTime": 1516653471901}, {"current_trial": 150, "trialdata": {"rt": -1000, "trial_type": "single-audio", "word": "france", "stimulus": "/static/audio/wordpool/FRANCE.wav", "conditions": [24, 1600, "a", 12000], "internal_node_id": "0.0-114.0", "trial": 3, "time_elapsed": 602733, "serialpos": 21, "key_press": -1, "wordID": 600, "type": "PRES_AUD", "trial_index": 150}, "uniqueid": "MTK2038:3NG53N1RLWQPMAUZLNR94BRVX928P8", "dateTime": 1516653474330}, {"current_trial": 151, "trialdata": {"rt": -1000, "trial_type": "single-audio", "word": "radish", "stimulus": "/static/audio/wordpool/RADISH.wav", "conditions": [24, 1600, "a", 12000], "internal_node_id": "0.0-115.0", "trial": 3, "time_elapsed": 605494, "serialpos": 22, "key_press": -1, "wordID": 1157, "type": "PRES_AUD", "trial_index": 151}, "uniqueid": "MTK2038:3NG53N1RLWQPMAUZLNR94BRVX928P8", "dateTime": 1516653477091}, {"current_trial": 152, "trialdata": {"rt": -1000, "trial_type": "single-audio", "word": "onion", "stimulus": "/static/audio/wordpool/ONION.wav", "conditions": [24, 1600, "a", 12000], "internal_node_id": "0.0-116.0", "trial": 3, "time_elapsed": 608138, "serialpos": 23, "key_press": -1, "wordID": 976, "type": "PRES_AUD", "trial_index": 152}, "uniqueid": "MTK2038:3NG53N1RLWQPMAUZLNR94BRVX928P8", "dateTime": 1516653479734}, {"current_trial": 153, "trialdata": {"rt": -1, "trial_type": "single-stim", "stimulus": "", "internal_node_id": "0.0-117.0-0.0", "time_elapsed": 609386, "key_press": -1, "type": "PRE_RECALL_DELAY", "trial_index": 153}, "uniqueid": "MTK2038:3NG53N1RLWQPMAUZLNR94BRVX928P8", "dateTime": 1516653480982}, {"current_trial": 154, "trialdata": {"rt": -1000, "trial_type": "single-audio", "stimulus": "/static/audio/400Hz.wav", "internal_node_id": "0.0-118.0", "time_elapsed": 609888, "key_press": -1, "type": "PRE_RECALL_ALERT", "trial_index": 154}, "uniqueid": "MTK2038:3NG53N1RLWQPMAUZLNR94BRVX928P8", "dateTime": 1516653481485}, {"current_trial": 155, "trialdata": {"rt": [2158, 3403, 4848, 6403, 8422, 12121, 54645], "recwords": ["france", "london", "europe", "onion", "tombstone", "radish", "squriel"], "key_times": [1117, 1312, 1406, 1587, 1727, 1873, 2158, 2428, 2623, 2698, 2801, 3069, 3150, 3403, 3722, 3931, 4099, 4384, 4566, 4668, 4848, 5584, 5714, 5882, 6065, 6142, 6403, 6692, 6792, 6979, 7213, 7406, 7612, 7885, 7974, 8053, 8422, 11141, 11222, 11571, 11588, 11648, 11766, 12121, 52628, 52886, 53146, 53590, 53737, 53980, 54280, 54645], "trial_type": "free-recall", "conditions": [24, 1600, "a", 12000], "internal_node_id": "0.0-119.0-0.0", "key_presses": [70, 82, 65, 78, 67, 69, 13, 76, 79, 78, 68, 79, 78, 13, 69, 85, 82, 79, 80, 69, 13, 79, 78, 73, 79, 78, 13, 84, 79, 77, 66, 83, 84, 79, 78, 69, 13, 82, 65, 68, 73, 83, 72, 13, 83, 81, 85, 82, 73, 69, 76, 32], "trial": 3, "time_elapsed": 669896, "type": "FREE_RECALL", "trial_index": 155}, "uniqueid": "MTK2038:3NG53N1RLWQPMAUZLNR94BRVX928P8", "dateTime": 1516653541510}, {"current_trial": 156, "trialdata": {"rt": 82, "trial_type": "text", "internal_node_id": "0.0-120.0", "time_elapsed": 672000, "key_press": 67, "type": "INSTRUCTIONS", "trial_index": 156}, "uniqueid": "MTK2038:3NG53N1RLWQPMAUZLNR94BRVX928P8", "dateTime": 1516653543596}, {"current_trial": 157, "trialdata": {"rt": [3766, 7752, 10932], "trial_type": "math-distractor", "key_times": [3099, 3514, 3766, 7378, 7535, 7752, 10700, 10761, 10932], "responses": ["19", "20", "21"], "num2": [7, 9, 8, 8], "num3": [6, 4, 4, 7], "conditions": [12, 1600, "a", 12000], "internal_node_id": "0.0-121.0", "key_presses": [49, 57, 13, 50, 48, 13, 50, 49, 13], "trial": 4, "time_elapsed": 686014, "type": "DISTRACTOR", "trial_index": 157, "num1": [6, 7, 9, 4]}, "uniqueid": "MTK2038:3NG53N1RLWQPMAUZLNR94BRVX928P8", "dateTime": 1516653557610}, {"current_trial": 158, "trialdata": {"rt": -1, "trial_type": "single-stim", "stimulus": "<p id=\"stim\">10</p>", "internal_node_id": "0.0-122.0-0.0", "time_elapsed": 689019, "key_press": -1, "trial_index": 158}, "uniqueid": "MTK2038:3NG53N1RLWQPMAUZLNR94BRVX928P8", "dateTime": 1516653560616}, {"current_trial": 159, "trialdata": {"rt": -1, "trial_type": "single-stim", "stimulus": "<p id=\"stim\">9</p>", "internal_node_id": "0.0-122.0-1.0", "time_elapsed": 690047, "key_press": -1, "trial_index": 159}, "uniqueid": "MTK2038:3NG53N1RLWQPMAUZLNR94BRVX928P8", "dateTime": 1516653561643}, {"current_trial": 160, "trialdata": {"rt": -1, "trial_type": "single-stim", "stimulus": "<p id=\"stim\">8</p>", "internal_node_id": "0.0-122.0-2.0", "time_elapsed": 691050, "key_press": -1, "trial_index": 160}, "uniqueid": "MTK2038:3NG53N1RLWQPMAUZLNR94BRVX928P8", "dateTime": 1516653562647}, {"current_trial": 161, "trialdata": {"rt": -1, "trial_type": "single-stim", "stimulus": "<p id=\"stim\">7</p>", "internal_node_id": "0.0-122.0-3.0", "time_elapsed": 692056, "key_press": -1, "trial_index": 161}, "uniqueid": "MTK2038:3NG53N1RLWQPMAUZLNR94BRVX928P8", "dateTime": 1516653563652}, {"current_trial": 162, "trialdata": {"rt": -1, "trial_type": "single-stim", "stimulus": "<p id=\"stim\">6</p>", "internal_node_id": "0.0-122.0-4.0", "time_elapsed": 693062, "key_press": -1, "trial_index": 162}, "uniqueid": "MTK2038:3NG53N1RLWQPMAUZLNR94BRVX928P8", "dateTime": 1516653564658}, {"current_trial": 163, "trialdata": {"rt": -1, "trial_type": "single-stim", "stimulus": "<p id=\"stim\">5</p>", "internal_node_id": "0.0-122.0-5.0", "time_elapsed": 694066, "key_press": -1, "trial_index": 163}, "uniqueid": "MTK2038:3NG53N1RLWQPMAUZLNR94BRVX928P8", "dateTime": 1516653565662}, {"current_trial": 164, "trialdata": {"rt": -1, "trial_type": "single-stim", "stimulus": "<p id=\"stim\">4</p>", "internal_node_id": "0.0-122.0-6.0", "time_elapsed": 695072, "key_press": -1, "trial_index": 164}, "uniqueid": "MTK2038:3NG53N1RLWQPMAUZLNR94BRVX928P8", "dateTime": 1516653566670}, {"current_trial": 165, "trialdata": {"rt": -1, "trial_type": "single-stim", "stimulus": "<p id=\"stim\">3</p>", "internal_node_id": "0.0-122.0-7.0", "time_elapsed": 696080, "key_press": -1, "trial_index": 165}, "uniqueid": "MTK2038:3NG53N1RLWQPMAUZLNR94BRVX928P8", "dateTime": 1516653567676}, {"current_trial": 166, "trialdata": {"rt": -1, "trial_type": "single-stim", "stimulus": "<p id=\"stim\">2</p>", "internal_node_id": "0.0-122.0-8.0", "time_elapsed": 697085, "key_press": -1, "trial_index": 166}, "uniqueid": "MTK2038:3NG53N1RLWQPMAUZLNR94BRVX928P8", "dateTime": 1516653568682}, {"current_trial": 167, "trialdata": {"rt": -1, "trial_type": "single-stim", "stimulus": "<p id=\"stim\">1</p>", "internal_node_id": "0.0-122.0-9.0", "time_elapsed": 698090, "key_press": -1, "trial_index": 167}, "uniqueid": "MTK2038:3NG53N1RLWQPMAUZLNR94BRVX928P8", "dateTime": 1516653569687}, {"current_trial": 168, "trialdata": {"rt": -1, "trial_type": "single-stim", "stimulus": "<p id=\"stim\">+</p>", "internal_node_id": "0.0-123.0-0.0", "time_elapsed": 699595, "key_press": -1, "type": "FIXATION", "trial_index": 168}, "uniqueid": "MTK2038:3NG53N1RLWQPMAUZLNR94BRVX928P8", "dateTime": 1516653571191}, {"current_trial": 169, "trialdata": {"rt": -1000, "trial_type": "single-audio", "word": "ankle", "stimulus": "/static/audio/wordpool/ANKLE.wav", "conditions": [12, 1600, "a", 12000], "internal_node_id": "0.0-124.0", "trial": 4, "time_elapsed": 702387, "serialpos": 0, "key_press": -1, "wordID": 23, "type": "PRES_AUD", "trial_index": 169}, "uniqueid": "MTK2038:3NG53N1RLWQPMAUZLNR94BRVX928P8", "dateTime": 1516653573983}, {"current_trial": 170, "trialdata": {"rt": -1000, "trial_type": "single-audio", "word": "lizard", "stimulus": "/static/audio/wordpool/LIZARD.wav", "conditions": [12, 1600, "a", 12000], "internal_node_id": "0.0-125.0", "trial": 4, "time_elapsed": 705120, "serialpos": 1, "key_press": -1, "wordID": 833, "type": "PRES_AUD", "trial_index": 170}, "uniqueid": "MTK2038:3NG53N1RLWQPMAUZLNR94BRVX928P8", "dateTime": 1516653576716}, {"current_trial": 171, "trialdata": {"rt": -1000, "trial_type": "single-audio", "word": "captive", "stimulus": "/static/audio/wordpool/CAPTIVE.wav", "conditions": [12, 1600, "a", 12000], "internal_node_id": "0.0-126.0", "trial": 4, "time_elapsed": 707633, "serialpos": 2, "key_press": -1, "wordID": 239, "type": "PRES_AUD", "trial_index": 171}, "uniqueid": "MTK2038:3NG53N1RLWQPMAUZLNR94BRVX928P8", "dateTime": 1516653579229}, {"current_trial": 172, "trialdata": {"rt": -1000, "trial_type": "single-audio", "word": "lapel", "stimulus": "/static/audio/wordpool/LAPEL.wav", "conditions": [12, 1600, "a", 12000], "internal_node_id": "0.0-127.0", "trial": 4, "time_elapsed": 710268, "serialpos": 3, "key_press": -1, "wordID": 799, "type": "PRES_AUD", "trial_index": 172}, "uniqueid": "MTK2038:3NG53N1RLWQPMAUZLNR94BRVX928P8", "dateTime": 1516653581864}, {"current_trial": 173, "trialdata": {"rt": -1000, "trial_type": "single-audio", "word": "shark", "stimulus": "/static/audio/wordpool/SHARK.wav", "conditions": [12, 1600, "a", 12000], "internal_node_id": "0.0-128.0", "trial": 4, "time_elapsed": 712743, "serialpos": 4, "key_press": -1, "wordID": 1274, "type": "PRES_AUD", "trial_index": 173}, "uniqueid": "MTK2038:3NG53N1RLWQPMAUZLNR94BRVX928P8", "dateTime": 1516653584339}, {"current_trial": 174, "trialdata": {"rt": -1000, "trial_type": "single-audio", "word": "boyfriend", "stimulus": "/static/audio/wordpool/BOYFRIEND.wav", "conditions": [12, 1600, "a", 12000], "internal_node_id": "0.0-129.0", "trial": 4, "time_elapsed": 715361, "serialpos": 5, "key_press": -1, "wordID": 161, "type": "PRES_AUD", "trial_index": 174}, "uniqueid": "MTK2038:3NG53N1RLWQPMAUZLNR94BRVX928P8", "dateTime": 1516653586957}, {"current_trial": 175, "trialdata": {"rt": -1000, "trial_type": "single-audio", "word": "window", "stimulus": "/static/audio/wordpool/WINDOW.wav", "conditions": [12, 1600, "a", 12000], "internal_node_id": "0.0-130.0", "trial": 4, "time_elapsed": 718149, "serialpos": 6, "key_press": -1, "wordID": 1610, "type": "PRES_AUD", "trial_index": 175}, "uniqueid": "MTK2038:3NG53N1RLWQPMAUZLNR94BRVX928P8", "dateTime": 1516653589745}, {"current_trial": 176, "trialdata": {"rt": -1000, "trial_type": "single-audio", "word": "atlas", "stimulus": "/static/audio/wordpool/ATLAS.wav", "conditions": [12, 1600, "a", 12000], "internal_node_id": "0.0-131.0", "trial": 4, "time_elapsed": 720904, "serialpos": 7, "key_press": -1, "wordID": 52, "type": "PRES_AUD", "trial_index": 176}, "uniqueid": "MTK2038:3NG53N1RLWQPMAUZLNR94BRVX928P8", "dateTime": 1516653592501}, {"current_trial": 177, "trialdata": {"rt": -1000, "trial_type": "single-audio", "word": "diver", "stimulus": "/static/audio/wordpool/DIVER.wav", "conditions": [12, 1600, "a", 12000], "internal_node_id": "0.0-132.0", "trial": 4, "time_elapsed": 723453, "serialpos": 8, "key_press": -1, "wordID": 475, "type": "PRES_AUD", "trial_index": 177}, "uniqueid": "MTK2038:3NG53N1RLWQPMAUZLNR94BRVX928P8", "dateTime": 1516653595049}, {"current_trial": 178, "trialdata": {"rt": -1000, "trial_type": "single-audio", "word": "swimmer", "stimulus": "/static/audio/wordpool/SWIMMER.wav", "conditions": [12, 1600, "a", 12000], "internal_node_id": "0.0-133.0", "trial": 4, "time_elapsed": 726021, "serialpos": 9, "key_press": -1, "wordID": 1419, "type": "PRES_AUD", "trial_index": 178}, "uniqueid": "MTK2038:3NG53N1RLWQPMAUZLNR94BRVX928P8", "dateTime": 1516653597617}, {"current_trial": 179, "trialdata": {"rt": -1000, "trial_type": "single-audio", "word": "dolphin", "stimulus": "/static/audio/wordpool/DOLPHIN.wav", "conditions": [12, 1600, "a", 12000], "internal_node_id": "0.0-134.0", "trial": 4, "time_elapsed": 728639, "serialpos": 10, "key_press": -1, "wordID": 482, "type": "PRES_AUD", "trial_index": 179}, "uniqueid": "MTK2038:3NG53N1RLWQPMAUZLNR94BRVX928P8", "dateTime": 1516653600235}, {"current_trial": 180, "trialdata": {"rt": -1000, "trial_type": "single-audio", "word": "scissors", "stimulus": "/static/audio/wordpool/SCISSORS.wav", "conditions": [12, 1600, "a", 12000], "internal_node_id": "0.0-135.0", "trial": 4, "time_elapsed": 731337, "serialpos": 11, "key_press": -1, "wordID": 1249, "type": "PRES_AUD", "trial_index": 180}, "uniqueid": "MTK2038:3NG53N1RLWQPMAUZLNR94BRVX928P8", "dateTime": 1516653602933}, {"current_trial": 181, "trialdata": {"rt": -1, "trial_type": "single-stim", "stimulus": "", "internal_node_id": "0.0-136.0-0.0", "time_elapsed": 732546, "key_press": -1, "type": "PRE_RECALL_DELAY", "trial_index": 181}, "uniqueid": "MTK2038:3NG53N1RLWQPMAUZLNR94BRVX928P8", "dateTime": 1516653604143}, {"current_trial": 182, "trialdata": {"rt": -1000, "trial_type": "single-audio", "stimulus": "/static/audio/400Hz.wav", "internal_node_id": "0.0-137.0", "time_elapsed": 733048, "key_press": -1, "type": "PRE_RECALL_ALERT", "trial_index": 182}, "uniqueid": "MTK2038:3NG53N1RLWQPMAUZLNR94BRVX928P8", "dateTime": 1516653604645}, {"current_trial": 183, "trialdata": {"rt": [3111, 4518, 6236, 7069, 30160, 36372], "recwords": ["dolphin", "scissors", "swimmer", "diver", "boyfriend", "ocean"], "key_times": [1445, 1681, 2188, 2210, 2515, 2673, 2787, 3111, 3247, 3482, 3646, 3817, 3995, 4085, 4187, 4345, 4518, 5213, 5447, 5592, 5808, 5960, 6011, 6096, 6236, 6455, 6600, 6717, 6867, 6947, 7069, 28839, 29035, 29173, 29427, 29602, 29703, 29783, 29886, 29993, 30160, 35098, 35441, 35687, 35754, 36063, 36372, 46193, 47400, 47899, 58105, 58557], "trial_type": "free-recall", "conditions": [12, 1600, "a", 12000], "internal_node_id": "0.0-138.0-0.0", "key_presses": [68, 79, 76, 80, 72, 73, 78, 13, 83, 67, 73, 83, 83, 79, 82, 83, 13, 83, 87, 73, 77, 77, 69, 82, 13, 68, 73, 86, 69, 82, 13, 66, 79, 89, 70, 82, 73, 69, 78, 68, 13, 79, 67, 69, 65, 78, 13, 8, 70, 8, 68, 8], "trial": 4, "time_elapsed": 793058, "type": "FREE_RECALL", "trial_index": 183}, "uniqueid": "MTK2038:3NG53N1RLWQPMAUZLNR94BRVX928P8", "dateTime": 1516653664672}, {"current_trial": 184, "trialdata": {"rt": 1273, "trial_type": "text", "internal_node_id": "0.0-139.0", "time_elapsed": 796352, "key_press": 32, "type": "INSTRUCTIONS", "trial_index": 184}, "uniqueid": "MTK2038:3NG53N1RLWQPMAUZLNR94BRVX928P8", "dateTime": 1516653667948}, {"current_trial": 185, "trialdata": {"rt": [4065, 6485, 9322], "trial_type": "math-distractor", "key_times": [3545, 3904, 4065, 6176, 6334, 6485, 8958, 9183, 9322], "responses": ["17", "12", "15"], "num2": [5, 1, 8, 5], "num3": [4, 8, 3, 4], "conditions": [12, 1600, "a", 12000], "internal_node_id": "0.0-140.0", "key_presses": [49, 55, 13, 49, 50, 13, 49, 53, 13], "trial": 5, "time_elapsed": 810362, "type": "DISTRACTOR", "trial_index": 185, "num1": [8, 3, 4, 7]}, "uniqueid": "MTK2038:3NG53N1RLWQPMAUZLNR94BRVX928P8", "dateTime": 1516653681961}, {"current_trial": 186, "trialdata": {"rt": -1, "trial_type": "single-stim", "stimulus": "<p id=\"stim\">10</p>", "internal_node_id": "0.0-141.0-0.0", "time_elapsed": 813371, "key_press": -1, "trial_index": 186}, "uniqueid": "MTK2038:3NG53N1RLWQPMAUZLNR94BRVX928P8", "dateTime": 1516653684967}, {"current_trial": 187, "trialdata": {"rt": -1, "trial_type": "single-stim", "stimulus": "<p id=\"stim\">9</p>", "internal_node_id": "0.0-141.0-1.0", "time_elapsed": 814374, "key_press": -1, "trial_index": 187}, "uniqueid": "MTK2038:3NG53N1RLWQPMAUZLNR94BRVX928P8", "dateTime": 1516653685971}, {"current_trial": 188, "trialdata": {"rt": -1, "trial_type": "single-stim", "stimulus": "<p id=\"stim\">8</p>", "internal_node_id": "0.0-141.0-2.0", "time_elapsed": 815378, "key_press": -1, "trial_index": 188}, "uniqueid": "MTK2038:3NG53N1RLWQPMAUZLNR94BRVX928P8", "dateTime": 1516653686974}, {"current_trial": 189, "trialdata": {"rt": -1, "trial_type": "single-stim", "stimulus": "<p id=\"stim\">7</p>", "internal_node_id": "0.0-141.0-3.0", "time_elapsed": 816381, "key_press": -1, "trial_index": 189}, "uniqueid": "MTK2038:3NG53N1RLWQPMAUZLNR94BRVX928P8", "dateTime": 1516653687978}, {"current_trial": 190, "trialdata": {"rt": -1, "trial_type": "single-stim", "stimulus": "<p id=\"stim\">6</p>", "internal_node_id": "0.0-141.0-4.0", "time_elapsed": 817385, "key_press": -1, "trial_index": 190}, "uniqueid": "MTK2038:3NG53N1RLWQPMAUZLNR94BRVX928P8", "dateTime": 1516653688981}, {"current_trial": 191, "trialdata": {"rt": -1, "trial_type": "single-stim", "stimulus": "<p id=\"stim\">5</p>", "internal_node_id": "0.0-141.0-5.0", "time_elapsed": 818465, "key_press": -1, "trial_index": 191}, "uniqueid": "MTK2038:3NG53N1RLWQPMAUZLNR94BRVX928P8", "dateTime": 1516653690062}, {"current_trial": 192, "trialdata": {"rt": -1, "trial_type": "single-stim", "stimulus": "<p id=\"stim\">4</p>", "internal_node_id": "0.0-141.0-6.0", "time_elapsed": 819470, "key_press": -1, "trial_index": 192}, "uniqueid": "MTK2038:3NG53N1RLWQPMAUZLNR94BRVX928P8", "dateTime": 1516653691066}, {"current_trial": 193, "trialdata": {"rt": -1, "trial_type": "single-stim", "stimulus": "<p id=\"stim\">3</p>", "internal_node_id": "0.0-141.0-7.0", "time_elapsed": 820475, "key_press": -1, "trial_index": 193}, "uniqueid": "MTK2038:3NG53N1RLWQPMAUZLNR94BRVX928P8", "dateTime": 1516653692072}, {"current_trial": 194, "trialdata": {"rt": -1, "trial_type": "single-stim", "stimulus": "<p id=\"stim\">2</p>", "internal_node_id": "0.0-141.0-8.0", "time_elapsed": 821479, "key_press": -1, "trial_index": 194}, "uniqueid": "MTK2038:3NG53N1RLWQPMAUZLNR94BRVX928P8", "dateTime": 1516653693076}, {"current_trial": 195, "trialdata": {"rt": -1, "trial_type": "single-stim", "stimulus": "<p id=\"stim\">1</p>", "internal_node_id": "0.0-141.0-9.0", "time_elapsed": 822483, "key_press": -1, "trial_index": 195}, "uniqueid": "MTK2038:3NG53N1RLWQPMAUZLNR94BRVX928P8", "dateTime": 1516653694079}, {"current_trial": 196, "trialdata": {"rt": -1, "trial_type": "single-stim", "stimulus": "<p id=\"stim\">+</p>", "internal_node_id": "0.0-142.0-0.0", "time_elapsed": 823986, "key_press": -1, "type": "FIXATION", "trial_index": 196}, "uniqueid": "MTK2038:3NG53N1RLWQPMAUZLNR94BRVX928P8", "dateTime": 1516653695582}, {"current_trial": 197, "trialdata": {"rt": -1000, "trial_type": "single-audio", "word": "mailbox", "stimulus": "/static/audio/wordpool/MAILBOX.wav", "conditions": [12, 1600, "a", 12000], "internal_node_id": "0.0-143.0", "trial": 5, "time_elapsed": 826730, "serialpos": 0, "key_press": -1, "wordID": 856, "type": "PRES_AUD", "trial_index": 197}, "uniqueid": "MTK2038:3NG53N1RLWQPMAUZLNR94BRVX928P8", "dateTime": 1516653698327}, {"current_trial": 198, "trialdata": {"rt": -1000, "trial_type": "single-audio", "word": "table", "stimulus": "/static/audio/wordpool/TABLE.wav", "conditions": [12, 1600, "a", 12000], "internal_node_id": "0.0-144.0", "trial": 5, "time_elapsed": 829396, "serialpos": 1, "key_press": -1, "wordID": 1425, "type": "PRES_AUD", "trial_index": 198}, "uniqueid": "MTK2038:3NG53N1RLWQPMAUZLNR94BRVX928P8", "dateTime": 1516653700993}, {"current_trial": 199, "trialdata": {"rt": -1000, "trial_type": "single-audio", "word": "statue", "stimulus": "/static/audio/wordpool/STATUE.wav", "conditions": [12, 1600, "a", 12000], "internal_node_id": "0.0-145.0", "trial": 5, "time_elapsed": 831930, "serialpos": 2, "key_press": -1, "wordID": 1373, "type": "PRES_AUD", "trial_index": 199}, "uniqueid": "MTK2038:3NG53N1RLWQPMAUZLNR94BRVX928P8", "dateTime": 1516653703526}, {"current_trial": 200, "trialdata": {"rt": -1000, "trial_type": "single-audio", "word": "island", "stimulus": "/static/audio/wordpool/ISLAND.wav", "conditions": [12, 1600, "a", 12000], "internal_node_id": "0.0-146.0", "trial": 5, "time_elapsed": 834623, "serialpos": 3, "key_press": -1, "wordID": 744, "type": "PRES_AUD", "trial_index": 200}, "uniqueid": "MTK2038:3NG53N1RLWQPMAUZLNR94BRVX928P8", "dateTime": 1516653706220}, {"current_trial": 201, "trialdata": {"rt": -1000, "trial_type": "single-audio", "word": "grave", "stimulus": "/static/audio/wordpool/GRAVE.wav", "conditions": [12, 1600, "a", 12000], "internal_node_id": "0.0-147.0", "trial": 5, "time_elapsed": 837327, "serialpos": 4, "key_press": -1, "wordID": 657, "type": "PRES_AUD", "trial_index": 201}, "uniqueid": "MTK2038:3NG53N1RLWQPMAUZLNR94BRVX928P8", "dateTime": 1516653708923}, {"current_trial": 202, "trialdata": {"rt": -1000, "trial_type": "single-audio", "word": "kleenex", "stimulus": "/static/audio/wordpool/KLEENEX.wav", "conditions": [12, 1600, "a", 12000], "internal_node_id": "0.0-148.0", "trial": 5, "time_elapsed": 840019, "serialpos": 5, "key_press": -1, "wordID": 781, "type": "PRES_AUD", "trial_index": 202}, "uniqueid": "MTK2038:3NG53N1RLWQPMAUZLNR94BRVX928P8", "dateTime": 1516653711616}, {"current_trial": 203, "trialdata": {"rt": -1000, "trial_type": "single-audio", "word": "dust", "stimulus": "/static/audio/wordpool/DUST.wav", "conditions": [12, 1600, "a", 12000], "internal_node_id": "0.0-149.0", "trial": 5, "time_elapsed": 842608, "serialpos": 6, "key_press": -1, "wordID": 507, "type": "PRES_AUD", "trial_index": 203}, "uniqueid": "MTK2038:3NG53N1RLWQPMAUZLNR94BRVX928P8", "dateTime": 1516653714204}, {"current_trial": 204, "trialdata": {"rt": -1000, "trial_type": "single-audio", "word": "globe", "stimulus": "/static/audio/wordpool/GLOBE.wav", "conditions": [12, 1600, "a", 12000], "internal_node_id": "0.0-150.0", "trial": 5, "time_elapsed": 845195, "serialpos": 7, "key_press": -1, "wordID": 640, "type": "PRES_AUD", "trial_index": 204}, "uniqueid": "MTK2038:3NG53N1RLWQPMAUZLNR94BRVX928P8", "dateTime": 1516653716791}, {"current_trial": 205, "trialdata": {"rt": -1000, "trial_type": "single-audio", "word": "ointment", "stimulus": "/static/audio/wordpool/OINTMENT.wav", "conditions": [12, 1600, "a", 12000], "internal_node_id": "0.0-151.0", "trial": 5, "time_elapsed": 847945, "serialpos": 8, "key_press": -1, "wordID": 973, "type": "PRES_AUD", "trial_index": 205}, "uniqueid": "MTK2038:3NG53N1RLWQPMAUZLNR94BRVX928P8", "dateTime": 1516653719541}, {"current_trial": 206, "trialdata": {"rt": -1000, "trial_type": "single-audio", "word": "sculpture", "stimulus": "/static/audio/wordpool/SCULPTURE.wav", "conditions": [12, 1600, "a", 12000], "internal_node_id": "0.0-152.0", "trial": 5, "time_elapsed": 850692, "serialpos": 9, "key_press": -1, "wordID": 1257, "type": "PRES_AUD", "trial_index": 206}, "uniqueid": "MTK2038:3NG53N1RLWQPMAUZLNR94BRVX928P8", "dateTime": 1516653722288}, {"current_trial": 207, "trialdata": {"rt": -1000, "trial_type": "single-audio", "word": "pork", "stimulus": "/static/audio/wordpool/PORK.wav", "conditions": [12, 1600, "a", 12000], "internal_node_id": "0.0-153.0", "trial": 5, "time_elapsed": 853492, "serialpos": 10, "key_press": -1, "wordID": 1107, "type": "PRES_AUD", "trial_index": 207}, "uniqueid": "MTK2038:3NG53N1RLWQPMAUZLNR94BRVX928P8", "dateTime": 1516653725088}, {"current_trial": 208, "trialdata": {"rt": -1000, "trial_type": "single-audio", "word": "turkey", "stimulus": "/static/audio/wordpool/TURKEY.wav", "conditions": [12, 1600, "a", 12000], "internal_node_id": "0.0-154.0", "trial": 5, "time_elapsed": 855910, "serialpos": 11, "key_press": -1, "wordID": 1519, "type": "PRES_AUD", "trial_index": 208}, "uniqueid": "MTK2038:3NG53N1RLWQPMAUZLNR94BRVX928P8", "dateTime": 1516653727506}, {"current_trial": 209, "trialdata": {"rt": -1, "trial_type": "single-stim", "stimulus": "", "internal_node_id": "0.0-155.0-0.0", "time_elapsed": 857199, "key_press": -1, "type": "PRE_RECALL_DELAY", "trial_index": 209}, "uniqueid": "MTK2038:3NG53N1RLWQPMAUZLNR94BRVX928P8", "dateTime": 1516653728795}, {"current_trial": 210, "trialdata": {"rt": -1000, "trial_type": "single-audio", "stimulus": "/static/audio/400Hz.wav", "internal_node_id": "0.0-156.0", "time_elapsed": 857701, "key_press": -1, "type": "PRE_RECALL_ALERT", "trial_index": 210}, "uniqueid": "MTK2038:3NG53N1RLWQPMAUZLNR94BRVX928P8", "dateTime": 1516653729298}, {"current_trial": 211, "trialdata": {"rt": [3250, 4852, 7314, 8850, 10133, 35040], "recwords": ["sculpture", "turkey", "globe", "eyeglass", "grave", "creature"], "key_times": [1078, 1267, 1423, 2027, 2373, 2631, 2869, 2872, 2924, 3250, 3585, 3698, 3816, 4124, 4195, 4450, 4852, 5707, 5873, 6095, 6624, 6841, 7011, 7126, 7314, 7521, 7689, 7766, 8096, 8290, 8367, 8555, 8724, 8850, 9298, 9498, 9600, 9810, 9910, 10133, 33822, 34062, 34153, 34263, 34523, 34675, 34763, 34840, 35040, 42011, 42608], "trial_type": "free-recall", "conditions": [12, 1600, "a", 12000], "internal_node_id": "0.0-157.0-0.0", "key_presses": [83, 67, 85, 76, 80, 84, 85, 82, 69, 13, 84, 85, 82, 75, 69, 89, 13, 71, 76, 73, 8, 79, 66, 69, 13, 69, 89, 69, 71, 76, 65, 83, 83, 13, 71, 82, 65, 86, 69, 13, 67, 82, 69, 65, 84, 85, 82, 69, 13, 83, 8], "trial": 5, "time_elapsed": 917711, "type": "FREE_RECALL", "trial_index": 211}, "uniqueid": "MTK2038:3NG53N1RLWQPMAUZLNR94BRVX928P8", "dateTime": 1516653789322}, {"current_trial": 212, "trialdata": {"rt": 12021, "trial_type": "text", "internal_node_id": "0.0-158.0", "time_elapsed": 931753, "key_press": 32, "type": "INSTRUCTIONS", "trial_index": 212}, "uniqueid": "MTK2038:3NG53N1RLWQPMAUZLNR94BRVX928P8", "dateTime": 1516653803350}, {"current_trial": 213, "trialdata": {"rt": [3307, 6109, 8746, 10858, 15359, 19948, 21813], "trial_type": "math-distractor", "key_times": [2713, 3031, 3307, 5747, 6007, 6109, 8346, 8527, 8746, 10472, 10636, 10858, 14879, 15211, 15359, 19546, 19754, 19948, 21683, 21813], "responses": ["16", "15", "10", "19", "16", "13", "8"], "num2": [3, 5, 4, 9, 8, 6, 1, 7], "num3": [5, 9, 3, 1, 6, 2, 1, 3], "conditions": [12, 1600, "a", 24000], "internal_node_id": "0.0-159.0", "key_presses": [49, 54, 13, 49, 53, 13, 49, 48, 13, 49, 57, 13, 49, 54, 13, 49, 51, 13, 56, 13], "trial": 6, "time_elapsed": 957763, "type": "DISTRACTOR", "trial_index": 213, "num1": [8, 1, 3, 9, 2, 5, 6, 4]}, "uniqueid": "MTK2038:3NG53N1RLWQPMAUZLNR94BRVX928P8", "dateTime": 1516653829360}, {"current_trial": 214, "trialdata": {"rt": -1, "trial_type": "single-stim", "stimulus": "<p id=\"stim\">10</p>", "internal_node_id": "0.0-160.0-0.0", "time_elapsed": 960770, "key_press": -1, "trial_index": 214}, "uniqueid": "MTK2038:3NG53N1RLWQPMAUZLNR94BRVX928P8", "dateTime": 1516653832367}, {"current_trial": 215, "trialdata": {"rt": -1, "trial_type": "single-stim", "stimulus": "<p id=\"stim\">9</p>", "internal_node_id": "0.0-160.0-1.0", "time_elapsed": 961778, "key_press": -1, "trial_index": 215}, "uniqueid": "MTK2038:3NG53N1RLWQPMAUZLNR94BRVX928P8", "dateTime": 1516653833375}, {"current_trial": 216, "trialdata": {"rt": -1, "trial_type": "single-stim", "stimulus": "<p id=\"stim\">8</p>", "internal_node_id": "0.0-160.0-2.0", "time_elapsed": 962784, "key_press": -1, "trial_index": 216}, "uniqueid": "MTK2038:3NG53N1RLWQPMAUZLNR94BRVX928P8", "dateTime": 1516653834380}, {"current_trial": 217, "trialdata": {"rt": -1, "trial_type": "single-stim", "stimulus": "<p id=\"stim\">7</p>", "internal_node_id": "0.0-160.0-3.0", "time_elapsed": 963795, "key_press": -1, "trial_index": 217}, "uniqueid": "MTK2038:3NG53N1RLWQPMAUZLNR94BRVX928P8", "dateTime": 1516653835392}, {"current_trial": 218, "trialdata": {"rt": -1, "trial_type": "single-stim", "stimulus": "<p id=\"stim\">6</p>", "internal_node_id": "0.0-160.0-4.0", "time_elapsed": 964798, "key_press": -1, "trial_index": 218}, "uniqueid": "MTK2038:3NG53N1RLWQPMAUZLNR94BRVX928P8", "dateTime": 1516653836395}, {"current_trial": 219, "trialdata": {"rt": -1, "trial_type": "single-stim", "stimulus": "<p id=\"stim\">5</p>", "internal_node_id": "0.0-160.0-5.0", "time_elapsed": 965802, "key_press": -1, "trial_index": 219}, "uniqueid": "MTK2038:3NG53N1RLWQPMAUZLNR94BRVX928P8", "dateTime": 1516653837399}, {"current_trial": 220, "trialdata": {"rt": -1, "trial_type": "single-stim", "stimulus": "<p id=\"stim\">4</p>", "internal_node_id": "0.0-160.0-6.0", "time_elapsed": 966811, "key_press": -1, "trial_index": 220}, "uniqueid": "MTK2038:3NG53N1RLWQPMAUZLNR94BRVX928P8", "dateTime": 1516653838407}, {"current_trial": 221, "trialdata": {"rt": -1, "trial_type": "single-stim", "stimulus": "<p id=\"stim\">3</p>", "internal_node_id": "0.0-160.0-7.0", "time_elapsed": 967816, "key_press": -1, "trial_index": 221}, "uniqueid": "MTK2038:3NG53N1RLWQPMAUZLNR94BRVX928P8", "dateTime": 1516653839413}, {"current_trial": 222, "trialdata": {"rt": -1, "trial_type": "single-stim", "stimulus": "<p id=\"stim\">2</p>", "internal_node_id": "0.0-160.0-8.0", "time_elapsed": 968824, "key_press": -1, "trial_index": 222}, "uniqueid": "MTK2038:3NG53N1RLWQPMAUZLNR94BRVX928P8", "dateTime": 1516653840420}, {"current_trial": 223, "trialdata": {"rt": -1, "trial_type": "single-stim", "stimulus": "<p id=\"stim\">1</p>", "internal_node_id": "0.0-160.0-9.0", "time_elapsed": 969828, "key_press": -1, "trial_index": 223}, "uniqueid": "MTK2038:3NG53N1RLWQPMAUZLNR94BRVX928P8", "dateTime": 1516653841425}, {"current_trial": 224, "trialdata": {"rt": -1, "trial_type": "single-stim", "stimulus": "<p id=\"stim\">+</p>", "internal_node_id": "0.0-161.0-0.0", "time_elapsed": 971336, "key_press": -1, "type": "FIXATION", "trial_index": 224}, "uniqueid": "MTK2038:3NG53N1RLWQPMAUZLNR94BRVX928P8", "dateTime": 1516653842933}, {"current_trial": 225, "trialdata": {"rt": -1000, "trial_type": "single-audio", "word": "perfume", "stimulus": "/static/audio/wordpool/PERFUME.wav", "conditions": [12, 1600, "a", 24000], "internal_node_id": "0.0-162.0", "trial": 6, "time_elapsed": 973833, "serialpos": 0, "key_press": -1, "wordID": 1048, "type": "PRES_AUD", "trial_index": 225}, "uniqueid": "MTK2038:3NG53N1RLWQPMAUZLNR94BRVX928P8", "dateTime": 1516653845430}, {"current_trial": 226, "trialdata": {"rt": -1000, "trial_type": "single-audio", "word": "blade", "stimulus": "/static/audio/wordpool/BLADE.wav", "conditions": [12, 1600, "a", 24000], "internal_node_id": "0.0-163.0", "trial": 6, "time_elapsed": 976461, "serialpos": 1, "key_press": -1, "wordID": 133, "type": "PRES_AUD", "trial_index": 226}, "uniqueid": "MTK2038:3NG53N1RLWQPMAUZLNR94BRVX928P8", "dateTime": 1516653848058}, {"current_trial": 227, "trialdata": {"rt": -1000, "trial_type": "single-audio", "word": "bank", "stimulus": "/static/audio/wordpool/BANK.wav", "conditions": [12, 1600, "a", 24000], "internal_node_id": "0.0-164.0", "trial": 6, "time_elapsed": 978934, "serialpos": 2, "key_press": -1, "wordID": 82, "type": "PRES_AUD", "trial_index": 227}, "uniqueid": "MTK2038:3NG53N1RLWQPMAUZLNR94BRVX928P8", "dateTime": 1516653850530}, {"current_trial": 228, "trialdata": {"rt": -1000, "trial_type": "single-audio", "word": "cowboy", "stimulus": "/static/audio/wordpool/COWBOY.wav", "conditions": [12, 1600, "a", 24000], "internal_node_id": "0.0-165.0", "trial": 6, "time_elapsed": 981449, "serialpos": 3, "key_press": -1, "wordID": 394, "type": "PRES_AUD", "trial_index": 228}, "uniqueid": "MTK2038:3NG53N1RLWQPMAUZLNR94BRVX928P8", "dateTime": 1516653853045}, {"current_trial": 229, "trialdata": {"rt": -1000, "trial_type": "single-audio", "word": "gazelle", "stimulus": "/static/audio/wordpool/GAZELLE.wav", "conditions": [12, 1600, "a", 24000], "internal_node_id": "0.0-166.0", "trial": 6, "time_elapsed": 984016, "serialpos": 4, "key_press": -1, "wordID": 627, "type": "PRES_AUD", "trial_index": 229}, "uniqueid": "MTK2038:3NG53N1RLWQPMAUZLNR94BRVX928P8", "dateTime": 1516653855613}, {"current_trial": 230, "trialdata": {"rt": -1000, "trial_type": "single-audio", "word": "branch", "stimulus": "/static/audio/wordpool/BRANCH.wav", "conditions": [12, 1600, "a", 24000], "internal_node_id": "0.0-167.0", "trial": 6, "time_elapsed": 986446, "serialpos": 5, "key_press": -1, "wordID": 167, "type": "PRES_AUD", "trial_index": 230}, "uniqueid": "MTK2038:3NG53N1RLWQPMAUZLNR94BRVX928P8", "dateTime": 1516653858042}, {"current_trial": 231, "trialdata": {"rt": -1000, "trial_type": "single-audio", "word": "piano", "stimulus": "/static/audio/wordpool/PIANO.wav", "conditions": [12, 1600, "a", 24000], "internal_node_id": "0.0-168.0", "trial": 6, "time_elapsed": 989161, "serialpos": 6, "key_press": -1, "wordID": 1056, "type": "PRES_AUD", "trial_index": 231}, "uniqueid": "MTK2038:3NG53N1RLWQPMAUZLNR94BRVX928P8", "dateTime": 1516653860758}, {"current_trial": 232, "trialdata": {"rt": -1000, "trial_type": "single-audio", "word": "cod", "stimulus": "/static/audio/wordpool/COD.wav", "conditions": [12, 1600, "a", 24000], "internal_node_id": "0.0-169.0", "trial": 6, "time_elapsed": 991569, "serialpos": 7, "key_press": -1, "wordID": 339, "type": "PRES_AUD", "trial_index": 232}, "uniqueid": "MTK2038:3NG53N1RLWQPMAUZLNR94BRVX928P8", "dateTime": 1516653863165}, {"current_trial": 233, "trialdata": {"rt": -1000, "trial_type": "single-audio", "word": "crab", "stimulus": "/static/audio/wordpool/CRAB.wav", "conditions": [12, 1600, "a", 24000], "internal_node_id": "0.0-170.0", "trial": 6, "time_elapsed": 994334, "serialpos": 8, "key_press": -1, "wordID": 396, "type": "PRES_AUD", "trial_index": 233}, "uniqueid": "MTK2038:3NG53N1RLWQPMAUZLNR94BRVX928P8", "dateTime": 1516653865930}, {"current_trial": 234, "trialdata": {"rt": -1000, "trial_type": "single-audio", "word": "mammal", "stimulus": "/static/audio/wordpool/MAMMAL.wav", "conditions": [12, 1600, "a", 24000], "internal_node_id": "0.0-171.0", "trial": 6, "time_elapsed": 996874, "serialpos": 9, "key_press": -1, "wordID": 860, "type": "PRES_AUD", "trial_index": 234}, "uniqueid": "MTK2038:3NG53N1RLWQPMAUZLNR94BRVX928P8", "dateTime": 1516653868470}, {"current_trial": 235, "trialdata": {"rt": -1000, "trial_type": "single-audio", "word": "money", "stimulus": "/static/audio/wordpool/MONEY.wav", "conditions": [12, 1600, "a", 24000], "internal_node_id": "0.0-172.0", "trial": 6, "time_elapsed": 999320, "serialpos": 10, "key_press": -1, "wordID": 907, "type": "PRES_AUD", "trial_index": 235}, "uniqueid": "MTK2038:3NG53N1RLWQPMAUZLNR94BRVX928P8", "dateTime": 1516653870917}, {"current_trial": 236, "trialdata": {"rt": -1000, "trial_type": "single-audio", "word": "gift", "stimulus": "/static/audio/wordpool/GIFT.wav", "conditions": [12, 1600, "a", 24000], "internal_node_id": "0.0-173.0", "trial": 6, "time_elapsed": 1001938, "serialpos": 11, "key_press": -1, "wordID": 634, "type": "PRES_AUD", "trial_index": 236}, "uniqueid": "MTK2038:3NG53N1RLWQPMAUZLNR94BRVX928P8", "dateTime": 1516653873535}, {"current_trial": 237, "trialdata": {"rt": -1, "trial_type": "single-stim", "stimulus": "", "internal_node_id": "0.0-174.0-0.0", "time_elapsed": 1003236, "key_press": -1, "type": "PRE_RECALL_DELAY", "trial_index": 237}, "uniqueid": "MTK2038:3NG53N1RLWQPMAUZLNR94BRVX928P8", "dateTime": 1516653874833}, {"current_trial": 238, "trialdata": {"rt": -1000, "trial_type": "single-audio", "stimulus": "/static/audio/400Hz.wav", "internal_node_id": "0.0-175.0", "time_elapsed": 1003740, "key_press": -1, "type": "PRE_RECALL_ALERT", "trial_index": 238}, "uniqueid": "MTK2038:3NG53N1RLWQPMAUZLNR94BRVX928P8", "dateTime": 1516653875336}, {"current_trial": 239, "trialdata": {"rt": [1778, 2793, 3650, 6601, 7529, 25068], "recwords": ["money", "gift", "cod", "cowboy", "table", "table"], "key_times": [1030, 1137, 1274, 1355, 1513, 1778, 2147, 2263, 2378, 2569, 2793, 3266, 3374, 3473, 3650, 4575, 4709, 5082, 5730, 6121, 6124, 6601, 6772, 6906, 7055, 7211, 7263, 7529, 23510, 23701, 23870, 24072, 24154, 25068], "trial_type": "free-recall", "conditions": [12, 1600, "a", 24000], "internal_node_id": "0.0-176.0-0.0", "key_presses": [77, 79, 78, 69, 89, 13, 71, 73, 70, 84, 13, 67, 79, 68, 13, 67, 79, 87, 66, 79, 89, 13, 84, 65, 66, 76, 69, 13, 84, 65, 66, 76, 69, 13], "trial": 6, "time_elapsed": 1063749, "type": "FREE_RECALL", "trial_index": 239}, "uniqueid": "MTK2038:3NG53N1RLWQPMAUZLNR94BRVX928P8", "dateTime": 1516653935358}, {"current_trial": 240, "trialdata": {"rt": 53091, "trial_type": "text", "internal_node_id": "0.0-177.0", "time_elapsed": 1118860, "key_press": 32, "type": "INSTRUCTIONS", "trial_index": 240}, "uniqueid": "MTK2038:3NG53N1RLWQPMAUZLNR94BRVX928P8", "dateTime": 1516653990457}, {"current_trial": 241, "trialdata": {"rt": [3362, 7309, 9418, 12195, 14271, 19892], "trial_type": "math-distractor", "key_times": [2991, 3120, 3362, 6810, 7174, 7309, 9196, 9418, 11883, 12063, 12195, 13921, 14163, 14271, 19543, 19647, 19892, 23688, 23798], "responses": ["20", "18", "9", "12", "15", "20"], "num2": [7, 7, 5, 6, 6, 8, 4], "num3": [5, 9, 1, 1, 6, 6, 6], "conditions": [24, 1600, "a", 24000], "internal_node_id": "0.0-178.0", "key_presses": [50, 48, 13, 49, 56, 13, 57, 13, 49, 50, 13, 49, 53, 13, 50, 48, 13, 49, 50], "trial": 7, "time_elapsed": 1144871, "type": "DISTRACTOR", "trial_index": 241, "num1": [9, 2, 3, 5, 3, 6, 2]}, "uniqueid": "MTK2038:3NG53N1RLWQPMAUZLNR94BRVX928P8", "dateTime": 1516654016468}, {"current_trial": 242, "trialdata": {"rt": -1, "trial_type": "single-stim", "stimulus": "<p id=\"stim\">10</p>", "internal_node_id": "0.0-179.0-0.0", "time_elapsed": 1147882, "key_press": -1, "trial_index": 242}, "uniqueid": "MTK2038:3NG53N1RLWQPMAUZLNR94BRVX928P8", "dateTime": 1516654019479}, {"current_trial": 243, "trialdata": {"rt": -1, "trial_type": "single-stim", "stimulus": "<p id=\"stim\">9</p>", "internal_node_id": "0.0-179.0-1.0", "time_elapsed": 1148887, "key_press": -1, "trial_index": 243}, "uniqueid": "MTK2038:3NG53N1RLWQPMAUZLNR94BRVX928P8", "dateTime": 1516654020483}, {"current_trial": 244, "trialdata": {"rt": -1, "trial_type": "single-stim", "stimulus": "<p id=\"stim\">8</p>", "internal_node_id": "0.0-179.0-2.0", "time_elapsed": 1149890, "key_press": -1, "trial_index": 244}, "uniqueid": "MTK2038:3NG53N1RLWQPMAUZLNR94BRVX928P8", "dateTime": 1516654021487}, {"current_trial": 245, "trialdata": {"rt": -1, "trial_type": "single-stim", "stimulus": "<p id=\"stim\">7</p>", "internal_node_id": "0.0-179.0-3.0", "time_elapsed": 1150895, "key_press": -1, "trial_index": 245}, "uniqueid": "MTK2038:3NG53N1RLWQPMAUZLNR94BRVX928P8", "dateTime": 1516654022492}, {"current_trial": 246, "trialdata": {"rt": -1, "trial_type": "single-stim", "stimulus": "<p id=\"stim\">6</p>", "internal_node_id": "0.0-179.0-4.0", "time_elapsed": 1151899, "key_press": -1, "trial_index": 246}, "uniqueid": "MTK2038:3NG53N1RLWQPMAUZLNR94BRVX928P8", "dateTime": 1516654023495}, {"current_trial": 247, "trialdata": {"rt": -1, "trial_type": "single-stim", "stimulus": "<p id=\"stim\">5</p>", "internal_node_id": "0.0-179.0-5.0", "time_elapsed": 1153026, "key_press": -1, "trial_index": 247}, "uniqueid": "MTK2038:3NG53N1RLWQPMAUZLNR94BRVX928P8", "dateTime": 1516654024622}, {"current_trial": 248, "trialdata": {"rt": -1, "trial_type": "single-stim", "stimulus": "<p id=\"stim\">4</p>", "internal_node_id": "0.0-179.0-6.0", "time_elapsed": 1154029, "key_press": -1, "trial_index": 248}, "uniqueid": "MTK2038:3NG53N1RLWQPMAUZLNR94BRVX928P8", "dateTime": 1516654025625}, {"current_trial": 249, "trialdata": {"rt": -1, "trial_type": "single-stim", "stimulus": "<p id=\"stim\">3</p>", "internal_node_id": "0.0-179.0-7.0", "time_elapsed": 1155032, "key_press": -1, "trial_index": 249}, "uniqueid": "MTK2038:3NG53N1RLWQPMAUZLNR94BRVX928P8", "dateTime": 1516654026629}, {"current_trial": 250, "trialdata": {"rt": -1, "trial_type": "single-stim", "stimulus": "<p id=\"stim\">2</p>", "internal_node_id": "0.0-179.0-8.0", "time_elapsed": 1156037, "key_press": -1, "trial_index": 250}, "uniqueid": "MTK2038:3NG53N1RLWQPMAUZLNR94BRVX928P8", "dateTime": 1516654027633}, {"current_trial": 251, "trialdata": {"rt": -1, "trial_type": "single-stim", "stimulus": "<p id=\"stim\">1</p>", "internal_node_id": "0.0-179.0-9.0", "time_elapsed": 1157041, "key_press": -1, "trial_index": 251}, "uniqueid": "MTK2038:3NG53N1RLWQPMAUZLNR94BRVX928P8", "dateTime": 1516654028638}, {"current_trial": 252, "trialdata": {"rt": -1, "trial_type": "single-stim", "stimulus": "<p id=\"stim\">+</p>", "internal_node_id": "0.0-180.0-0.0", "time_elapsed": 1158547, "key_press": -1, "type": "FIXATION", "trial_index": 252}, "uniqueid": "MTK2038:3NG53N1RLWQPMAUZLNR94BRVX928P8", "dateTime": 1516654030144}, {"current_trial": 253, "trialdata": {"rt": -1000, "trial_type": "single-audio", "word": "ozone", "stimulus": "/static/audio/wordpool/OZONE.wav", "conditions": [24, 1600, "a", 24000], "internal_node_id": "0.0-181.0", "trial": 7, "time_elapsed": 1161354, "serialpos": 0, "key_press": -1, "wordID": 995, "type": "PRES_AUD", "trial_index": 253}, "uniqueid": "MTK2038:3NG53