{"assignmentId": "30BXRYBRP548ZUST0DZA9ISQV49HW1", "workerId": "MTK2606", "questiondata": {"origin": "United States", "strat-rehearsal": "18", "marital": "Single", "education": "Bachelor's degree", "ethnicity": "Not Hispanic", "color_depth": 24, "distracted": "Yes", "wrote-notes": "No", "strat-other": "", "screen_width": 1280, "avail_screen_width": 1280, "avail_screen_height": 722, "strat-image": "99", "language": "English", "gender": "Female", "age": "24", "gender_other": "", "race": ["White"], "strat-categorize": "59", "pixel_depth": 24, "strat-spatial": "16", "strat-story": "52", "race_other": "", "screen_height": 800}, "bonus": 0, "hitId": "3R4QIDVOJPJ0B0H6ZASWDPSTCFZEEK", "counterbalance": 1995, "useragent": "Mozilla/5.0 (Macintosh; Intel Mac OS X 10_11_5) AppleWebKit/537.36 (KHTML, like Gecko) Chrome/52.0.2743.82 Safari/537.36", "eventdata": [{"eventtype": "initialized", "interval": 0, "value": null, "timestamp": 1519150542258}, {"eventtype": "window_resize", "interval": 1, "value": [1280, 671], "timestamp": 1519150542259}, {"eventtype": "focus", "interval": 65502, "value": "off", "timestamp": 1519150607761}, {"eventtype": "focus", "interval": 11639, "value": "on", "timestamp": 1519150619400}, {"eventtype": "focus", "interval": 1915439, "value": "off", "timestamp": 1519152534839}, {"eventtype": "focus", "interval": 24880, "value": "on", "timestamp": 1519152559719}, {"eventtype": "focus", "interval": 119942, "value": "off", "timestamp": 1519152679661}, {"eventtype": "focus", "interval": 31801, "value": "on", "timestamp": 1519152711462}], "data": [{"current_trial": 0, "trialdata": {"rt": 1843, "trial_type": "text", "internal_node_id": "0.0-0.0", "time_elapsed": 1845, "key_press": 13, "type": "INSTRUCTIONS", "trial_index": 0}, "uniqueid": "MTK2606:30BXRYBRP548ZUST0DZA9ISQV49HW1", "dateTime": 1519150544265}, {"current_trial": 1, "trialdata": {"rt": 17543, "trial_type": "text", "internal_node_id": "0.0-1.0", "time_elapsed": 19390, "key_press": 13, "type": "INSTRUCTIONS", "trial_index": 1}, "uniqueid": "MTK2606:30BXRYBRP548ZUST0DZA9ISQV49HW1", "dateTime": 1519150561809}, {"current_trial": 2, "trialdata": {"rt": [11051], "trial_type": "audio-test", "responses": ["ocean"], "internal_node_id": "0.0-2.0", "time_elapsed": 30455, "type": "AUDIO_TEST", "trial_index": 2}, "uniqueid": "MTK2606:30BXRYBRP548ZUST0DZA9ISQV49HW1", "dateTime": 1519150572874}, {"current_trial": 3, "trialdata": {"rt": [7224], "trial_type": "audio-test", "responses": ["crystal"], "internal_node_id": "0.0-3.0", "time_elapsed": 37682, "type": "AUDIO_TEST", "trial_index": 3}, "uniqueid": "MTK2606:30BXRYBRP548ZUST0DZA9ISQV49HW1", "dateTime": 1519150580101}, {"current_trial": 4, "trialdata": {"rt": [4451], "trial_type": "audio-test", "responses": ["spice"], "internal_node_id": "0.0-4.0", "time_elapsed": 42135, "type": "AUDIO_TEST", "trial_index": 4}, "uniqueid": "MTK2606:30BXRYBRP548ZUST0DZA9ISQV49HW1", "dateTime": 1519150584554}, {"current_trial": 5, "trialdata": {"rt": 17267, "trial_type": "survey-text", "responses": "{\"Q0\":\"6am\",\"Q1\":\"12:30pm\",\"Q2\":\"4\"}", "internal_node_id": "0.0-5.0", "time_elapsed": 60156, "type": "SLEEP_SURVEY", "trial_index": 5}, "uniqueid": "MTK2606:30BXRYBRP548ZUST0DZA9ISQV49HW1", "dateTime": 1519150602575}, {"current_trial": 6, "trialdata": {"rt": 47201, "trial_type": "text", "internal_node_id": "0.0-6.0", "time_elapsed": 108361, "key_press": 32, "type": "INSTRUCTIONS", "trial_index": 6}, "uniqueid": "MTK2606:30BXRYBRP548ZUST0DZA9ISQV49HW1", "dateTime": 1519150650780}, {"current_trial": 7, "trialdata": {"rt": 16511, "trial_type": "text", "internal_node_id": "0.0-7.0", "time_elapsed": 125377, "key_press": 32, "type": "INSTRUCTIONS", "trial_index": 7}, "uniqueid": "MTK2606:30BXRYBRP548ZUST0DZA9ISQV49HW1", "dateTime": 1519150667796}, {"current_trial": 8, "trialdata": {"rt": 13041, "trial_type": "text", "internal_node_id": "0.0-8.0", "time_elapsed": 138922, "key_press": 32, "type": "INSTRUCTIONS", "trial_index": 8}, "uniqueid": "MTK2606:30BXRYBRP548ZUST0DZA9ISQV49HW1", "dateTime": 1519150681341}, {"current_trial": 9, "trialdata": {"rt": [3915, 6224, 12173], "trial_type": "math-distractor", "key_times": [3473, 3610, 3915, 5746, 5878, 6224, 10771, 11629, 12173], "responses": ["13", "10", "18"], "num2": [3, 4, 5, 9], "num3": [9, 2, 4, 8], "conditions": [18, 1200, "v", 18000], "internal_node_id": "0.0-9.0", "key_presses": [49, 51, 13, 49, 48, 13, 49, 56, 13], "trial": 0, "time_elapsed": 157933, "type": "DISTRACTOR", "trial_index": 9, "num1": [1, 4, 9, 6]}, "uniqueid": "MTK2606:30BXRYBRP548ZUST0DZA9ISQV49HW1", "dateTime": 1519150700352}, {"current_trial": 10, "trialdata": {"rt": -1, "trial_type": "single-stim", "stimulus": "<p id=\"stim\">10</p>", "internal_node_id": "0.0-10.0-0.0", "time_elapsed": 160944, "key_press": -1, "trial_index": 10}, "uniqueid": "MTK2606:30BXRYBRP548ZUST0DZA9ISQV49HW1", "dateTime": 1519150703363}, {"current_trial": 11, "trialdata": {"rt": -1, "trial_type": "single-stim", "stimulus": "<p id=\"stim\">9</p>", "internal_node_id": "0.0-10.0-1.0", "time_elapsed": 161948, "key_press": -1, "trial_index": 11}, "uniqueid": "MTK2606:30BXRYBRP548ZUST0DZA9ISQV49HW1", "dateTime": 1519150704367}, {"current_trial": 12, "trialdata": {"rt": -1, "trial_type": "single-stim", "stimulus": "<p id=\"stim\">8</p>", "internal_node_id": "0.0-10.0-2.0", "time_elapsed": 162952, "key_press": -1, "trial_index": 12}, "uniqueid": "MTK2606:30BXRYBRP548ZUST0DZA9ISQV49HW1", "dateTime": 1519150705371}, {"current_trial": 13, "trialdata": {"rt": -1, "trial_type": "single-stim", "stimulus": "<p id=\"stim\">7</p>", "internal_node_id": "0.0-10.0-3.0", "time_elapsed": 163957, "key_press": -1, "trial_index": 13}, "uniqueid": "MTK2606:30BXRYBRP548ZUST0DZA9ISQV49HW1", "dateTime": 1519150706376}, {"current_trial": 14, "trialdata": {"rt": -1, "trial_type": "single-stim", "stimulus": "<p id=\"stim\">6</p>", "internal_node_id": "0.0-10.0-4.0", "time_elapsed": 164957, "key_press": -1, "trial_index": 14}, "uniqueid": "MTK2606:30BXRYBRP548ZUST0DZA9ISQV49HW1", "dateTime": 1519150707376}, {"current_trial": 15, "trialdata": {"rt": -1, "trial_type": "single-stim", "stimulus": "<p id=\"stim\">5</p>", "internal_node_id": "0.0-10.0-5.0", "time_elapsed": 165960, "key_press": -1, "trial_index": 15}, "uniqueid": "MTK2606:30BXRYBRP548ZUST0DZA9ISQV49HW1", "dateTime": 1519150708379}, {"current_trial": 16, "trialdata": {"rt": -1, "trial_type": "single-stim", "stimulus": "<p id=\"stim\">4</p>", "internal_node_id": "0.0-10.0-6.0", "time_elapsed": 166965, "key_press": -1, "trial_index": 16}, "uniqueid": "MTK2606:30BXRYBRP548ZUST0DZA9ISQV49HW1", "dateTime": 1519150709384}, {"current_trial": 17, "trialdata": {"rt": -1, "trial_type": "single-stim", "stimulus": "<p id=\"stim\">3</p>", "internal_node_id": "0.0-10.0-7.0", "time_elapsed": 167968, "key_press": -1, "trial_index": 17}, "uniqueid": "MTK2606:30BXRYBRP548ZUST0DZA9ISQV49HW1", "dateTime": 1519150710387}, {"current_trial": 18, "trialdata": {"rt": -1, "trial_type": "single-stim", "stimulus": "<p id=\"stim\">2</p>", "internal_node_id": "0.0-10.0-8.0", "time_elapsed": 168972, "key_press": -1, "trial_index": 18}, "uniqueid": "MTK2606:30BXRYBRP548ZUST0DZA9ISQV49HW1", "dateTime": 1519150711391}, {"current_trial": 19, "trialdata": {"rt": -1, "trial_type": "single-stim", "stimulus": "<p id=\"stim\">1</p>", "internal_node_id": "0.0-10.0-9.0", "time_elapsed": 169974, "key_press": -1, "trial_index": 19}, "uniqueid": "MTK2606:30BXRYBRP548ZUST0DZA9ISQV49HW1", "dateTime": 1519150712393}, {"current_trial": 20, "trialdata": {"rt": -1, "trial_type": "single-stim", "stimulus": "<p id=\"stim\">+</p>", "internal_node_id": "0.0-11.0-0.0", "time_elapsed": 171480, "key_press": -1, "type": "FIXATION", "trial_index": 20}, "uniqueid": "MTK2606:30BXRYBRP548ZUST0DZA9ISQV49HW1", "dateTime": 1519150713899}, {"current_trial": 21, "trialdata": {"rt": -1, "trial_type": "single-stim", "word": "package", "stimulus": "<p id=\"stim\">PACKAGE</p>", "conditions": [18, 1200, "v", 18000], "internal_node_id": "0.0-12.0", "trial": 0, "time_elapsed": 172685, "serialpos": 0, "key_press": -1, "wordID": 996, "type": "PRES_VIS", "trial_index": 21}, "uniqueid": "MTK2606:30BXRYBRP548ZUST0DZA9ISQV49HW1", "dateTime": 1519150715105}, {"current_trial": 22, "trialdata": {"rt": -1, "trial_type": "single-stim", "word": "tribe", "stimulus": "<p id=\"stim\">TRIBE</p>", "conditions": [18, 1200, "v", 18000], "internal_node_id": "0.0-13.0", "trial": 0, "time_elapsed": 174940, "serialpos": 1, "key_press": -1, "wordID": 1504, "type": "PRES_VIS", "trial_index": 22}, "uniqueid": "MTK2606:30BXRYBRP548ZUST0DZA9ISQV49HW1", "dateTime": 1519150717359}, {"current_trial": 23, "trialdata": {"rt": -1, "trial_type": "single-stim", "word": "hiker", "stimulus": "<p id=\"stim\">HIKER</p>", "conditions": [18, 1200, "v", 18000], "internal_node_id": "0.0-14.0", "trial": 0, "time_elapsed": 177082, "serialpos": 2, "key_press": -1, "wordID": 707, "type": "PRES_VIS", "trial_index": 23}, "uniqueid": "MTK2606:30BXRYBRP548ZUST0DZA9ISQV49HW1", "dateTime": 1519150719501}, {"current_trial": 24, "trialdata": {"rt": -1, "trial_type": "single-stim", "word": "pasta", "stimulus": "<p id=\"stim\">PASTA</p>", "conditions": [18, 1200, "v", 18000], "internal_node_id": "0.0-15.0", "trial": 0, "time_elapsed": 179224, "serialpos": 3, "key_press": -1, "wordID": 1020, "type": "PRES_VIS", "trial_index": 24}, "uniqueid": "MTK2606:30BXRYBRP548ZUST0DZA9ISQV49HW1", "dateTime": 1519150721643}, {"current_trial": 25, "trialdata": {"rt": -1, "trial_type": "single-stim", "word": "heart", "stimulus": "<p id=\"stim\">HEART</p>", "conditions": [18, 1200, "v", 18000], "internal_node_id": "0.0-16.0", "trial": 0, "time_elapsed": 181377, "serialpos": 4, "key_press": -1, "wordID": 696, "type": "PRES_VIS", "trial_index": 25}, "uniqueid": "MTK2606:30BXRYBRP548ZUST0DZA9ISQV49HW1", "dateTime": 1519150723796}, {"current_trial": 26, "trialdata": {"rt": -1, "trial_type": "single-stim", "word": "summit", "stimulus": "<p id=\"stim\">SUMMIT</p>", "conditions": [18, 1200, "v", 18000], "internal_node_id": "0.0-17.0", "trial": 0, "time_elapsed": 183491, "serialpos": 5, "key_press": -1, "wordID": 1404, "type": "PRES_VIS", "trial_index": 26}, "uniqueid": "MTK2606:30BXRYBRP548ZUST0DZA9ISQV49HW1", "dateTime": 1519150725910}, {"current_trial": 27, "trialdata": {"rt": -1, "trial_type": "single-stim", "word": "typist", "stimulus": "<p id=\"stim\">TYPIST</p>", "conditions": [18, 1200, "v", 18000], "internal_node_id": "0.0-18.0", "trial": 0, "time_elapsed": 185860, "serialpos": 6, "key_press": -1, "wordID": 1531, "type": "PRES_VIS", "trial_index": 27}, "uniqueid": "MTK2606:30BXRYBRP548ZUST0DZA9ISQV49HW1", "dateTime": 1519150728279}, {"current_trial": 28, "trialdata": {"rt": -1, "trial_type": "single-stim", "word": "lodge", "stimulus": "<p id=\"stim\">LODGE</p>", "conditions": [18, 1200, "v", 18000], "internal_node_id": "0.0-19.0", "trial": 0, "time_elapsed": 187920, "serialpos": 7, "key_press": -1, "wordID": 838, "type": "PRES_VIS", "trial_index": 28}, "uniqueid": "MTK2606:30BXRYBRP548ZUST0DZA9ISQV49HW1", "dateTime": 1519150730339}, {"current_trial": 29, "trialdata": {"rt": -1, "trial_type": "single-stim", "word": "bureau", "stimulus": "<p id=\"stim\">BUREAU</p>", "conditions": [18, 1200, "v", 18000], "internal_node_id": "0.0-20.0", "trial": 0, "time_elapsed": 190004, "serialpos": 8, "key_press": -1, "wordID": 198, "type": "PRES_VIS", "trial_index": 29}, "uniqueid": "MTK2606:30BXRYBRP548ZUST0DZA9ISQV49HW1", "dateTime": 1519150732423}, {"current_trial": 30, "trialdata": {"rt": -1, "trial_type": "single-stim", "word": "relish", "stimulus": "<p id=\"stim\">RELISH</p>", "conditions": [18, 1200, "v", 18000], "internal_node_id": "0.0-21.0", "trial": 0, "time_elapsed": 192158, "serialpos": 9, "key_press": -1, "wordID": 1182, "type": "PRES_VIS", "trial_index": 30}, "uniqueid": "MTK2606:30BXRYBRP548ZUST0DZA9ISQV49HW1", "dateTime": 1519150734577}, {"current_trial": 31, "trialdata": {"rt": -1, "trial_type": "single-stim", "word": "camel", "stimulus": "<p id=\"stim\">CAMEL</p>", "conditions": [18, 1200, "v", 18000], "internal_node_id": "0.0-22.0", "trial": 0, "time_elapsed": 194517, "serialpos": 10, "key_press": -1, "wordID": 222, "type": "PRES_VIS", "trial_index": 31}, "uniqueid": "MTK2606:30BXRYBRP548ZUST0DZA9ISQV49HW1", "dateTime": 1519150736936}, {"current_trial": 32, "trialdata": {"rt": -1, "trial_type": "single-stim", "word": "shark", "stimulus": "<p id=\"stim\">SHARK</p>", "conditions": [18, 1200, "v", 18000], "internal_node_id": "0.0-23.0", "trial": 0, "time_elapsed": 196785, "serialpos": 11, "key_press": -1, "wordID": 1274, "type": "PRES_VIS", "trial_index": 32}, "uniqueid": "MTK2606:30BXRYBRP548ZUST0DZA9ISQV49HW1", "dateTime": 1519150739204}, {"current_trial": 33, "trialdata": {"rt": -1, "trial_type": "single-stim", "word": "sheriff", "stimulus": "<p id=\"stim\">SHERIFF</p>", "conditions": [18, 1200, "v", 18000], "internal_node_id": "0.0-24.0", "trial": 0, "time_elapsed": 198893, "serialpos": 12, "key_press": -1, "wordID": 1283, "type": "PRES_VIS", "trial_index": 33}, "uniqueid": "MTK2606:30BXRYBRP548ZUST0DZA9ISQV49HW1", "dateTime": 1519150741312}, {"current_trial": 34, "trialdata": {"rt": -1, "trial_type": "single-stim", "word": "stove", "stimulus": "<p id=\"stim\">STOVE</p>", "conditions": [18, 1200, "v", 18000], "internal_node_id": "0.0-25.0", "trial": 0, "time_elapsed": 201203, "serialpos": 13, "key_press": -1, "wordID": 1387, "type": "PRES_VIS", "trial_index": 34}, "uniqueid": "MTK2606:30BXRYBRP548ZUST0DZA9ISQV49HW1", "dateTime": 1519150743622}, {"current_trial": 35, "trialdata": {"rt": -1, "trial_type": "single-stim", "word": "statue", "stimulus": "<p id=\"stim\">STATUE</p>", "conditions": [18, 1200, "v", 18000], "internal_node_id": "0.0-26.0", "trial": 0, "time_elapsed": 203341, "serialpos": 14, "key_press": -1, "wordID": 1373, "type": "PRES_VIS", "trial_index": 35}, "uniqueid": "MTK2606:30BXRYBRP548ZUST0DZA9ISQV49HW1", "dateTime": 1519150745760}, {"current_trial": 36, "trialdata": {"rt": -1, "trial_type": "single-stim", "word": "saddle", "stimulus": "<p id=\"stim\">SADDLE</p>", "conditions": [18, 1200, "v", 18000], "internal_node_id": "0.0-27.0", "trial": 0, "time_elapsed": 205719, "serialpos": 15, "key_press": -1, "wordID": 1220, "type": "PRES_VIS", "trial_index": 36}, "uniqueid": "MTK2606:30BXRYBRP548ZUST0DZA9ISQV49HW1", "dateTime": 1519150748138}, {"current_trial": 37, "trialdata": {"rt": -1, "trial_type": "single-stim", "word": "salmon", "stimulus": "<p id=\"stim\">SALMON</p>", "conditions": [18, 1200, "v", 18000], "internal_node_id": "0.0-28.0", "trial": 0, "time_elapsed": 207803, "serialpos": 16, "key_press": -1, "wordID": 1226, "type": "PRES_VIS", "trial_index": 37}, "uniqueid": "MTK2606:30BXRYBRP548ZUST0DZA9ISQV49HW1", "dateTime": 1519150750222}, {"current_trial": 38, "trialdata": {"rt": -1, "trial_type": "single-stim", "word": "badge", "stimulus": "<p id=\"stim\">BADGE</p>", "conditions": [18, 1200, "v", 18000], "internal_node_id": "0.0-29.0", "trial": 0, "time_elapsed": 209934, "serialpos": 17, "key_press": -1, "wordID": 67, "type": "PRES_VIS", "trial_index": 38}, "uniqueid": "MTK2606:30BXRYBRP548ZUST0DZA9ISQV49HW1", "dateTime": 1519150752353}, {"current_trial": 39, "trialdata": {"rt": -1, "trial_type": "single-stim", "stimulus": "", "internal_node_id": "0.0-30.0-0.0", "time_elapsed": 212252, "key_press": -1, "type": "PRE_RECALL_DELAY", "trial_index": 39}, "uniqueid": "MTK2606:30BXRYBRP548ZUST0DZA9ISQV49HW1", "dateTime": 1519150754671}, {"current_trial": 40, "trialdata": {"rt": -1000, "trial_type": "single-audio", "stimulus": "/static/audio/400Hz.wav", "internal_node_id": "0.0-31.0", "time_elapsed": 212759, "key_press": -1, "type": "PRE_RECALL_ALERT", "trial_index": 40}, "uniqueid": "MTK2606:30BXRYBRP548ZUST0DZA9ISQV49HW1", "dateTime": 1519150755178}, {"current_trial": 41, "trialdata": {"rt": [3049, 4946, 7762, 13135, 21313, 34581], "recwords": ["hiker", "badge", "tribe", "stone", "badge", "watch"], "key_times": [2215, 2320, 2534, 2666, 2766, 3049, 4004, 4159, 4263, 4457, 4588, 4946, 5670, 5806, 5999, 6169, 6289, 6768, 6948, 7374, 7556, 7762, 12483, 12616, 12692, 12812, 12979, 13135, 20711, 20792, 20856, 20992, 21135, 21313, 33683, 33786, 33982, 34181, 34309, 34581], "trial_type": "free-recall", "conditions": [18, 1200, "v", 18000], "internal_node_id": "0.0-32.0-0.0", "key_presses": [72, 73, 75, 69, 82, 13, 66, 65, 68, 71, 69, 13, 84, 82, 73, 68, 69, 8, 8, 66, 69, 13, 83, 84, 79, 78, 69, 13, 66, 65, 68, 71, 69, 13, 87, 65, 84, 67, 72, 13], "trial": 0, "time_elapsed": 272768, "type": "FREE_RECALL", "trial_index": 41}, "uniqueid": "MTK2606:30BXRYBRP548ZUST0DZA9ISQV49HW1", "dateTime": 1519150815189}, {"current_trial": 42, "trialdata": {"rt": 1331, "trial_type": "text", "internal_node_id": "0.0-33.0", "time_elapsed": 276104, "key_press": 13, "type": "INSTRUCTIONS", "trial_index": 42}, "uniqueid": "MTK2606:30BXRYBRP548ZUST0DZA9ISQV49HW1", "dateTime": 1519150818523}, {"current_trial": 43, "trialdata": {"rt": [6408, 8377, 12226, 15872], "trial_type": "math-distractor", "key_times": [6108, 6200, 6408, 8003, 8103, 8377, 11856, 11960, 12226, 15260, 15434, 15872], "responses": ["13", "10", "13", "16"], "num2": [7, 1, 2, 4, 2], "num3": [5, 8, 7, 9, 7], "conditions": [18, 1200, "v", 18000], "internal_node_id": "0.0-34.0", "key_presses": [49, 51, 13, 49, 48, 13, 49, 51, 13, 49, 54, 13], "trial": 1, "time_elapsed": 296115, "type": "DISTRACTOR", "trial_index": 43, "num1": [1, 1, 4, 3, 2]}, "uniqueid": "MTK2606:30BXRYBRP548ZUST0DZA9ISQV49HW1", "dateTime": 1519150838534}, {"current_trial": 44, "trialdata": {"rt": -1, "trial_type": "single-stim", "stimulus": "<p id=\"stim\">10</p>", "internal_node_id": "0.0-35.0-0.0", "time_elapsed": 299123, "key_press": -1, "trial_index": 44}, "uniqueid": "MTK2606:30BXRYBRP548ZUST0DZA9ISQV49HW1", "dateTime": 1519150841542}, {"current_trial": 45, "trialdata": {"rt": -1, "trial_type": "single-stim", "stimulus": "<p id=\"stim\">9</p>", "internal_node_id": "0.0-35.0-1.0", "time_elapsed": 300127, "key_press": -1, "trial_index": 45}, "uniqueid": "MTK2606:30BXRYBRP548ZUST0DZA9ISQV49HW1", "dateTime": 1519150842546}, {"current_trial": 46, "trialdata": {"rt": -1, "trial_type": "single-stim", "stimulus": "<p id=\"stim\">8</p>", "internal_node_id": "0.0-35.0-2.0", "time_elapsed": 301133, "key_press": -1, "trial_index": 46}, "uniqueid": "MTK2606:30BXRYBRP548ZUST0DZA9ISQV49HW1", "dateTime": 1519150843552}, {"current_trial": 47, "trialdata": {"rt": -1, "trial_type": "single-stim", "stimulus": "<p id=\"stim\">7</p>", "internal_node_id": "0.0-35.0-3.0", "time_elapsed": 302137, "key_press": -1, "trial_index": 47}, "uniqueid": "MTK2606:30BXRYBRP548ZUST0DZA9ISQV49HW1", "dateTime": 1519150844556}, {"current_trial": 48, "trialdata": {"rt": -1, "trial_type": "single-stim", "stimulus": "<p id=\"stim\">6</p>", "internal_node_id": "0.0-35.0-4.0", "time_elapsed": 303140, "key_press": -1, "trial_index": 48}, "uniqueid": "MTK2606:30BXRYBRP548ZUST0DZA9ISQV49HW1", "dateTime": 1519150845559}, {"current_trial": 49, "trialdata": {"rt": -1, "trial_type": "single-stim", "stimulus": "<p id=\"stim\">5</p>", "internal_node_id": "0.0-35.0-5.0", "time_elapsed": 304143, "key_press": -1, "trial_index": 49}, "uniqueid": "MTK2606:30BXRYBRP548ZUST0DZA9ISQV49HW1", "dateTime": 1519150846562}, {"current_trial": 50, "trialdata": {"rt": -1, "trial_type": "single-stim", "stimulus": "<p id=\"stim\">4</p>", "internal_node_id": "0.0-35.0-6.0", "time_elapsed": 305146, "key_press": -1, "trial_index": 50}, "uniqueid": "MTK2606:30BXRYBRP548ZUST0DZA9ISQV49HW1", "dateTime": 1519150847565}, {"current_trial": 51, "trialdata": {"rt": -1, "trial_type": "single-stim", "stimulus": "<p id=\"stim\">3</p>", "internal_node_id": "0.0-35.0-7.0", "time_elapsed": 306149, "key_press": -1, "trial_index": 51}, "uniqueid": "MTK2606:30BXRYBRP548ZUST0DZA9ISQV49HW1", "dateTime": 1519150848568}, {"current_trial": 52, "trialdata": {"rt": -1, "trial_type": "single-stim", "stimulus": "<p id=\"stim\">2</p>", "internal_node_id": "0.0-35.0-8.0", "time_elapsed": 307153, "key_press": -1, "trial_index": 52}, "uniqueid": "MTK2606:30BXRYBRP548ZUST0DZA9ISQV49HW1", "dateTime": 1519150849572}, {"current_trial": 53, "trialdata": {"rt": -1, "trial_type": "single-stim", "stimulus": "<p id=\"stim\">1</p>", "internal_node_id": "0.0-35.0-9.0", "time_elapsed": 308156, "key_press": -1, "trial_index": 53}, "uniqueid": "MTK2606:30BXRYBRP548ZUST0DZA9ISQV49HW1", "dateTime": 1519150850575}, {"current_trial": 54, "trialdata": {"rt": -1, "trial_type": "single-stim", "stimulus": "<p id=\"stim\">+</p>", "internal_node_id": "0.0-36.0-0.0", "time_elapsed": 309661, "key_press": -1, "type": "FIXATION", "trial_index": 54}, "uniqueid": "MTK2606:30BXRYBRP548ZUST0DZA9ISQV49HW1", "dateTime": 1519150852080}, {"current_trial": 55, "trialdata": {"rt": -1, "trial_type": "single-stim", "word": "banker", "stimulus": "<p id=\"stim\">BANKER</p>", "conditions": [18, 1200, "v", 18000], "internal_node_id": "0.0-37.0", "trial": 1, "time_elapsed": 310863, "serialpos": 0, "key_press": -1, "wordID": 83, "type": "PRES_VIS", "trial_index": 55}, "uniqueid": "MTK2606:30BXRYBRP548ZUST0DZA9ISQV49HW1", "dateTime": 1519150853282}, {"current_trial": 56, "trialdata": {"rt": -1, "trial_type": "single-stim", "word": "dress", "stimulus": "<p id=\"stim\">DRESS</p>", "conditions": [18, 1200, "v", 18000], "internal_node_id": "0.0-38.0", "trial": 1, "time_elapsed": 313140, "serialpos": 1, "key_press": -1, "wordID": 494, "type": "PRES_VIS", "trial_index": 56}, "uniqueid": "MTK2606:30BXRYBRP548ZUST0DZA9ISQV49HW1", "dateTime": 1519150855559}, {"current_trial": 57, "trialdata": {"rt": -1, "trial_type": "single-stim", "word": "island", "stimulus": "<p id=\"stim\">ISLAND</p>", "conditions": [18, 1200, "v", 18000], "internal_node_id": "0.0-39.0", "trial": 1, "time_elapsed": 315484, "serialpos": 2, "key_press": -1, "wordID": 744, "type": "PRES_VIS", "trial_index": 57}, "uniqueid": "MTK2606:30BXRYBRP548ZUST0DZA9ISQV49HW1", "dateTime": 1519150857903}, {"current_trial": 58, "trialdata": {"rt": -1, "trial_type": "single-stim", "word": "soda", "stimulus": "<p id=\"stim\">SODA</p>", "conditions": [18, 1200, "v", 18000], "internal_node_id": "0.0-40.0", "trial": 1, "time_elapsed": 317684, "serialpos": 3, "key_press": -1, "wordID": 1340, "type": "PRES_VIS", "trial_index": 58}, "uniqueid": "MTK2606:30BXRYBRP548ZUST0DZA9ISQV49HW1", "dateTime": 1519150860103}, {"current_trial": 59, "trialdata": {"rt": -1, "trial_type": "single-stim", "word": "hedge", "stimulus": "<p id=\"stim\">HEDGE</p>", "conditions": [18, 1200, "v", 18000], "internal_node_id": "0.0-41.0", "trial": 1, "time_elapsed": 319704, "serialpos": 4, "key_press": -1, "wordID": 698, "type": "PRES_VIS", "trial_index": 59}, "uniqueid": "MTK2606:30BXRYBRP548ZUST0DZA9ISQV49HW1", "dateTime": 1519150862123}, {"current_trial": 60, "trialdata": {"rt": -1, "trial_type": "single-stim", "word": "clamp", "stimulus": "<p id=\"stim\">CLAMP</p>", "conditions": [18, 1200, "v", 18000], "internal_node_id": "0.0-42.0", "trial": 1, "time_elapsed": 321846, "serialpos": 5, "key_press": -1, "wordID": 315, "type": "PRES_VIS", "trial_index": 60}, "uniqueid": "MTK2606:30BXRYBRP548ZUST0DZA9ISQV49HW1", "dateTime": 1519150864265}, {"current_trial": 61, "trialdata": {"rt": -1, "trial_type": "single-stim", "word": "beaver", "stimulus": "<p id=\"stim\">BEAVER</p>", "conditions": [18, 1200, "v", 18000], "internal_node_id": "0.0-43.0", "trial": 1, "time_elapsed": 324053, "serialpos": 6, "key_press": -1, "wordID": 108, "type": "PRES_VIS", "trial_index": 61}, "uniqueid": "MTK2606:30BXRYBRP548ZUST0DZA9ISQV49HW1", "dateTime": 1519150866472}, {"current_trial": 62, "trialdata": {"rt": -1, "trial_type": "single-stim", "word": "sibling", "stimulus": "<p id=\"stim\">SIBLING</p>", "conditions": [18, 1200, "v", 18000], "internal_node_id": "0.0-44.0", "trial": 1, "time_elapsed": 326113, "serialpos": 7, "key_press": -1, "wordID": 1300, "type": "PRES_VIS", "trial_index": 62}, "uniqueid": "MTK2606:30BXRYBRP548ZUST0DZA9ISQV49HW1", "dateTime": 1519150868532}, {"current_trial": 63, "trialdata": {"rt": -1, "trial_type": "single-stim", "word": "radish", "stimulus": "<p id=\"stim\">RADISH</p>", "conditions": [18, 1200, "v", 18000], "internal_node_id": "0.0-45.0", "trial": 1, "time_elapsed": 328402, "serialpos": 8, "key_press": -1, "wordID": 1157, "type": "PRES_VIS", "trial_index": 63}, "uniqueid": "MTK2606:30BXRYBRP548ZUST0DZA9ISQV49HW1", "dateTime": 1519150870822}, {"current_trial": 64, "trialdata": {"rt": -1, "trial_type": "single-stim", "word": "mattress", "stimulus": "<p id=\"stim\">MATTRESS</p>", "conditions": [18, 1200, "v", 18000], "internal_node_id": "0.0-46.0", "trial": 1, "time_elapsed": 330628, "serialpos": 9, "key_press": -1, "wordID": 878, "type": "PRES_VIS", "trial_index": 64}, "uniqueid": "MTK2606:30BXRYBRP548ZUST0DZA9ISQV49HW1", "dateTime": 1519150873047}, {"current_trial": 65, "trialdata": {"rt": -1, "trial_type": "single-stim", "word": "bison", "stimulus": "<p id=\"stim\">BISON</p>", "conditions": [18, 1200, "v", 18000], "internal_node_id": "0.0-47.0", "trial": 1, "time_elapsed": 332687, "serialpos": 10, "key_press": -1, "wordID": 130, "type": "PRES_VIS", "trial_index": 65}, "uniqueid": "MTK2606:30BXRYBRP548ZUST0DZA9ISQV49HW1", "dateTime": 1519150875106}, {"current_trial": 66, "trialdata": {"rt": -1, "trial_type": "single-stim", "word": "toaster", "stimulus": "<p id=\"stim\">TOASTER</p>", "conditions": [18, 1200, "v", 18000], "internal_node_id": "0.0-48.0", "trial": 1, "time_elapsed": 334792, "serialpos": 11, "key_press": -1, "wordID": 1471, "type": "PRES_VIS", "trial_index": 66}, "uniqueid": "MTK2606:30BXRYBRP548ZUST0DZA9ISQV49HW1", "dateTime": 1519150877211}, {"current_trial": 67, "trialdata": {"rt": -1, "trial_type": "single-stim", "word": "razor", "stimulus": "<p id=\"stim\">RAZOR</p>", "conditions": [18, 1200, "v", 18000], "internal_node_id": "0.0-49.0", "trial": 1, "time_elapsed": 336922, "serialpos": 12, "key_press": -1, "wordID": 1170, "type": "PRES_VIS", "trial_index": 67}, "uniqueid": "MTK2606:30BXRYBRP548ZUST0DZA9ISQV49HW1", "dateTime": 1519150879341}, {"current_trial": 68, "trialdata": {"rt": -1, "trial_type": "single-stim", "word": "glove", "stimulus": "<p id=\"stim\">GLOVE</p>", "conditions": [18, 1200, "v", 18000], "internal_node_id": "0.0-50.0", "trial": 1, "time_elapsed": 339290, "serialpos": 13, "key_press": -1, "wordID": 641, "type": "PRES_VIS", "trial_index": 68}, "uniqueid": "MTK2606:30BXRYBRP548ZUST0DZA9ISQV49HW1", "dateTime": 1519150881709}, {"current_trial": 69, "trialdata": {"rt": -1, "trial_type": "single-stim", "word": "helmet", "stimulus": "<p id=\"stim\">HELMET</p>", "conditions": [18, 1200, "v", 18000], "internal_node_id": "0.0-51.0", "trial": 1, "time_elapsed": 341639, "serialpos": 14, "key_press": -1, "wordID": 701, "type": "PRES_VIS", "trial_index": 69}, "uniqueid": "MTK2606:30BXRYBRP548ZUST0DZA9ISQV49HW1", "dateTime": 1519150884058}, {"current_trial": 70, "trialdata": {"rt": -1, "trial_type": "single-stim", "word": "briefcase", "stimulus": "<p id=\"stim\">BRIEFCASE</p>", "conditions": [18, 1200, "v", 18000], "internal_node_id": "0.0-52.0", "trial": 1, "time_elapsed": 343668, "serialpos": 15, "key_press": -1, "wordID": 174, "type": "PRES_VIS", "trial_index": 70}, "uniqueid": "MTK2606:30BXRYBRP548ZUST0DZA9ISQV49HW1", "dateTime": 1519150886087}, {"current_trial": 71, "trialdata": {"rt": -1, "trial_type": "single-stim", "word": "zebra", "stimulus": "<p id=\"stim\">ZEBRA</p>", "conditions": [18, 1200, "v", 18000], "internal_node_id": "0.0-53.0", "trial": 1, "time_elapsed": 345735, "serialpos": 16, "key_press": -1, "wordID": 1634, "type": "PRES_VIS", "trial_index": 71}, "uniqueid": "MTK2606:30BXRYBRP548ZUST0DZA9ISQV49HW1", "dateTime": 1519150888154}, {"current_trial": 72, "trialdata": {"rt": -1, "trial_type": "single-stim", "word": "crown", "stimulus": "<p id=\"stim\">CROWN</p>", "conditions": [18, 1200, "v", 18000], "internal_node_id": "0.0-54.0", "trial": 1, "time_elapsed": 347801, "serialpos": 17, "key_press": -1, "wordID": 414, "type": "PRES_VIS", "trial_index": 72}, "uniqueid": "MTK2606:30BXRYBRP548ZUST0DZA9ISQV49HW1", "dateTime": 1519150890220}, {"current_trial": 73, "trialdata": {"rt": -1, "trial_type": "single-stim", "stimulus": "", "internal_node_id": "0.0-55.0-0.0", "time_elapsed": 349868, "key_press": -1, "type": "PRE_RECALL_DELAY", "trial_index": 73}, "uniqueid": "MTK2606:30BXRYBRP548ZUST0DZA9ISQV49HW1", "dateTime": 1519150892287}, {"current_trial": 74, "trialdata": {"rt": -1000, "trial_type": "single-audio", "stimulus": "/static/audio/400Hz.wav", "internal_node_id": "0.0-56.0", "time_elapsed": 350373, "key_press": -1, "type": "PRE_RECALL_ALERT", "trial_index": 74}, "uniqueid": "MTK2606:30BXRYBRP548ZUST0DZA9ISQV49HW1", "dateTime": 1519150892792}, {"current_trial": 75, "trialdata": {"rt": [2984, 5516, 7835, 10118, 16119, 27896], "recwords": ["toaster", "biker", "helmet", "crown", "razor", "hedge"], "key_times": [1081, 1878, 2000, 2105, 2246, 2392, 2610, 2984, 4789, 4901, 5141, 5269, 5379, 5516, 5870, 6100, 6184, 6466, 7001, 7416, 7535, 7658, 7835, 8719, 9002, 9565, 9724, 9858, 10118, 14271, 14538, 15514, 15687, 15838, 16119, 24557, 24615, 24707, 24815, 24990, 25526, 25701, 25835, 25995, 27006, 27250, 27508, 27644, 27896], "trial_type": "free-recall", "conditions": [18, 1200, "v", 18000], "internal_node_id": "0.0-57.0-0.0", "key_presses": [84, 79, 65, 83, 84, 69, 82, 13, 66, 73, 75, 69, 82, 13, 72, 69, 76, 69, 8, 77, 69, 84, 13, 67, 82, 79, 87, 78, 13, 82, 65, 90, 79, 82, 13, 72, 65, 68, 71, 69, 8, 8, 8, 8, 69, 68, 71, 69, 13], "trial": 1, "time_elapsed": 410379, "type": "FREE_RECALL", "trial_index": 75}, "uniqueid": "MTK2606:30BXRYBRP548ZUST0DZA9ISQV49HW1", "dateTime": 1519150952800}, {"current_trial": 76, "trialdata": {"rt": 1798, "trial_type": "text", "internal_node_id": "0.0-58.0", "time_elapsed": 414180, "key_press": 13, "type": "INSTRUCTIONS", "trial_index": 76}, "uniqueid": "MTK2606:30BXRYBRP548ZUST0DZA9ISQV49HW1", "dateTime": 1519150956600}, {"current_trial": 77, "trialdata": {"rt": [4097, 5925, 7881, 10147, 11732, 13534, 15363, 17105, 18714, 22445], "trial_type": "math-distractor", "key_times": [3718, 3823, 4097, 5596, 5712, 5925, 7570, 7662, 7881, 9853, 10147, 11587, 11732, 13204, 13336, 13534, 14959, 15100, 15363, 16751, 16927, 17105, 18371, 18460, 18714, 22047, 22138, 22445], "responses": ["20", "13", "12", "7", "4", "13", "18", "14", "12", "17"], "num2": [7, 2, 1, 3, 1, 8, 2, 7, 5, 9, 3], "num3": [6, 3, 9, 3, 2, 3, 8, 4, 5, 6, 2], "conditions": [12, 1600, "v", 24000], "internal_node_id": "0.0-59.0", "key_presses": [50, 48, 13, 49, 51, 13, 49, 50, 13, 55, 13, 52, 13, 49, 51, 13, 49, 56, 13, 49, 52, 13, 49, 50, 13, 49, 55, 13], "trial": 2, "time_elapsed": 439189, "type": "DISTRACTOR", "trial_index": 77, "num1": [7, 8, 2, 1, 1, 2, 8, 3, 2, 2, 4]}, "uniqueid": "MTK2606:30BXRYBRP548ZUST0DZA9ISQV49HW1", "dateTime": 1519150981608}, {"current_trial": 78, "trialdata": {"rt": -1, "trial_type": "single-stim", "stimulus": "<p id=\"stim\">10</p>", "internal_node_id": "0.0-60.0-0.0", "time_elapsed": 442194, "key_press": -1, "trial_index": 78}, "uniqueid": "MTK2606:30BXRYBRP548ZUST0DZA9ISQV49HW1", "dateTime": 1519150984613}, {"current_trial": 79, "trialdata": {"rt": -1, "trial_type": "single-stim", "stimulus": "<p id=\"stim\">9</p>", "internal_node_id": "0.0-60.0-1.0", "time_elapsed": 443197, "key_press": -1, "trial_index": 79}, "uniqueid": "MTK2606:30BXRYBRP548ZUST0DZA9ISQV49HW1", "dateTime": 1519150985616}, {"current_trial": 80, "trialdata": {"rt": -1, "trial_type": "single-stim", "stimulus": "<p id=\"stim\">8</p>", "internal_node_id": "0.0-60.0-2.0", "time_elapsed": 444199, "key_press": -1, "trial_index": 80}, "uniqueid": "MTK2606:30BXRYBRP548ZUST0DZA9ISQV49HW1", "dateTime": 1519150986618}, {"current_trial": 81, "trialdata": {"rt": -1, "trial_type": "single-stim", "stimulus": "<p id=\"stim\">7</p>", "internal_node_id": "0.0-60.0-3.0", "time_elapsed": 445204, "key_press": -1, "trial_index": 81}, "uniqueid": "MTK2606:30BXRYBRP548ZUST0DZA9ISQV49HW1", "dateTime": 1519150987624}, {"current_trial": 82, "trialdata": {"rt": -1, "trial_type": "single-stim", "stimulus": "<p id=\"stim\">6</p>", "internal_node_id": "0.0-60.0-4.0", "time_elapsed": 446206, "key_press": -1, "trial_index": 82}, "uniqueid": "MTK2606:30BXRYBRP548ZUST0DZA9ISQV49HW1", "dateTime": 1519150988625}, {"current_trial": 83, "trialdata": {"rt": -1, "trial_type": "single-stim", "stimulus": "<p id=\"stim\">5</p>", "internal_node_id": "0.0-60.0-5.0", "time_elapsed": 447208, "key_press": -1, "trial_index": 83}, "uniqueid": "MTK2606:30BXRYBRP548ZUST0DZA9ISQV49HW1", "dateTime": 1519150989627}, {"current_trial": 84, "trialdata": {"rt": -1, "trial_type": "single-stim", "stimulus": "<p id=\"stim\">4</p>", "internal_node_id": "0.0-60.0-6.0", "time_elapsed": 448213, "key_press": -1, "trial_index": 84}, "uniqueid": "MTK2606:30BXRYBRP548ZUST0DZA9ISQV49HW1", "dateTime": 1519150990632}, {"current_trial": 85, "trialdata": {"rt": -1, "trial_type": "single-stim", "stimulus": "<p id=\"stim\">3</p>", "internal_node_id": "0.0-60.0-7.0", "time_elapsed": 449217, "key_press": -1, "trial_index": 85}, "uniqueid": "MTK2606:30BXRYBRP548ZUST0DZA9ISQV49HW1", "dateTime": 1519150991636}, {"current_trial": 86, "trialdata": {"rt": -1, "trial_type": "single-stim", "stimulus": "<p id=\"stim\">2</p>", "internal_node_id": "0.0-60.0-8.0", "time_elapsed": 450222, "key_press": -1, "trial_index": 86}, "uniqueid": "MTK2606:30BXRYBRP548ZUST0DZA9ISQV49HW1", "dateTime": 1519150992641}, {"current_trial": 87, "trialdata": {"rt": -1, "trial_type": "single-stim", "stimulus": "<p id=\"stim\">1</p>", "internal_node_id": "0.0-60.0-9.0", "time_elapsed": 451226, "key_press": -1, "trial_index": 87}, "uniqueid": "MTK2606:30BXRYBRP548ZUST0DZA9ISQV49HW1", "dateTime": 1519150993645}, {"current_trial": 88, "trialdata": {"rt": -1, "trial_type": "single-stim", "stimulus": "<p id=\"stim\">+</p>", "internal_node_id": "0.0-61.0-0.0", "time_elapsed": 452731, "key_press": -1, "type": "FIXATION", "trial_index": 88}, "uniqueid": "MTK2606:30BXRYBRP548ZUST0DZA9ISQV49HW1", "dateTime": 1519150995150}, {"current_trial": 89, "trialdata": {"rt": -1, "trial_type": "single-stim", "word": "fungus", "stimulus": "<p id=\"stim\">FUNGUS</p>", "conditions": [12, 1600, "v", 24000], "internal_node_id": "0.0-62.0", "trial": 2, "time_elapsed": 454332, "serialpos": 0, "key_press": -1, "wordID": 613, "type": "PRES_VIS", "trial_index": 89}, "uniqueid": "MTK2606:30BXRYBRP548ZUST0DZA9ISQV49HW1", "dateTime": 1519150996751}, {"current_trial": 90, "trialdata": {"rt": -1, "trial_type": "single-stim", "word": "freckle", "stimulus": "<p id=\"stim\">FRECKLE</p>", "conditions": [12, 1600, "v", 24000], "internal_node_id": "0.0-63.0", "trial": 2, "time_elapsed": 457112, "serialpos": 1, "key_press": -1, "wordID": 601, "type": "PRES_VIS", "trial_index": 90}, "uniqueid": "MTK2606:30BXRYBRP548ZUST0DZA9ISQV49HW1", "dateTime": 1519150999531}, {"current_trial": 91, "trialdata": {"rt": -1, "trial_type": "single-stim", "word": "snack", "stimulus": "<p id=\"stim\">SNACK</p>", "conditions": [12, 1600, "v", 24000], "internal_node_id": "0.0-64.0", "trial": 2, "time_elapsed": 459598, "serialpos": 2, "key_press": -1, "wordID": 1330, "type": "PRES_VIS", "trial_index": 91}, "uniqueid": "MTK2606:30BXRYBRP548ZUST0DZA9ISQV49HW1", "dateTime": 1519151002017}, {"current_trial": 92, "trialdata": {"rt": -1, "trial_type": "single-stim", "word": "salad", "stimulus": "<p id=\"stim\">SALAD</p>", "conditions": [12, 1600, "v", 24000], "internal_node_id": "0.0-65.0", "trial": 2, "time_elapsed": 462041, "serialpos": 3, "key_press": -1, "wordID": 1223, "type": "PRES_VIS", "trial_index": 92}, "uniqueid": "MTK2606:30BXRYBRP548ZUST0DZA9ISQV49HW1", "dateTime": 1519151004461}, {"current_trial": 93, "trialdata": {"rt": -1, "trial_type": "single-stim", "word": "dolphin", "stimulus": "<p id=\"stim\">DOLPHIN</p>", "conditions": [12, 1600, "v", 24000], "internal_node_id": "0.0-66.0", "trial": 2, "time_elapsed": 464659, "serialpos": 4, "key_press": -1, "wordID": 482, "type": "PRES_VIS", "trial_index": 93}, "uniqueid": "MTK2606:30BXRYBRP548ZUST0DZA9ISQV49HW1", "dateTime": 1519151007078}, {"current_trial": 94, "trialdata": {"rt": -1, "trial_type": "single-stim", "word": "mildew", "stimulus": "<p id=\"stim\">MILDEW</p>", "conditions": [12, 1600, "v", 24000], "internal_node_id": "0.0-67.0", "trial": 2, "time_elapsed": 467426, "serialpos": 5, "key_press": -1, "wordID": 892, "type": "PRES_VIS", "trial_index": 94}, "uniqueid": "MTK2606:30BXRYBRP548ZUST0DZA9ISQV49HW1", "dateTime": 1519151009845}, {"current_trial": 95, "trialdata": {"rt": -1, "trial_type": "single-stim", "word": "scribble", "stimulus": "<p id=\"stim\">SCRIBBLE</p>", "conditions": [12, 1600, "v", 24000], "internal_node_id": "0.0-68.0", "trial": 2, "time_elapsed": 469843, "serialpos": 6, "key_press": -1, "wordID": 1255, "type": "PRES_VIS", "trial_index": 95}, "uniqueid": "MTK2606:30BXRYBRP548ZUST0DZA9ISQV49HW1", "dateTime": 1519151012262}, {"current_trial": 96, "trialdata": {"rt": -1, "trial_type": "single-stim", "word": "zipper", "stimulus": "<p id=\"stim\">ZIPPER</p>", "conditions": [12, 1600, "v", 24000], "internal_node_id": "0.0-69.0", "trial": 2, "time_elapsed": 472411, "serialpos": 7, "key_press": -1, "wordID": 1635, "type": "PRES_VIS", "trial_index": 96}, "uniqueid": "MTK2606:30BXRYBRP548ZUST0DZA9ISQV49HW1", "dateTime": 1519151014830}, {"current_trial": 97, "trialdata": {"rt": -1, "trial_type": "single-stim", "word": "fragrance", "stimulus": "<p id=\"stim\">FRAGRANCE</p>", "conditions": [12, 1600, "v", 24000], "internal_node_id": "0.0-70.0", "trial": 2, "time_elapsed": 475132, "serialpos": 8, "key_press": -1, "wordID": 598, "type": "PRES_VIS", "trial_index": 97}, "uniqueid": "MTK2606:30BXRYBRP548ZUST0DZA9ISQV49HW1", "dateTime": 1519151017551}, {"current_trial": 98, "trialdata": {"rt": -1, "trial_type": "single-stim", "word": "bike", "stimulus": "<p id=\"stim\">BIKE</p>", "conditions": [12, 1600, "v", 24000], "internal_node_id": "0.0-71.0", "trial": 2, "time_elapsed": 477820, "serialpos": 9, "key_press": -1, "wordID": 124, "type": "PRES_VIS", "trial_index": 98}, "uniqueid": "MTK2606:30BXRYBRP548ZUST0DZA9ISQV49HW1", "dateTime": 1519151020239}, {"current_trial": 99, "trialdata": {"rt": -1, "trial_type": "single-stim", "word": "slope", "stimulus": "<p id=\"stim\">SLOPE</p>", "conditions": [12, 1600, "v", 24000], "internal_node_id": "0.0-72.0", "trial": 2, "time_elapsed": 480438, "serialpos": 10, "key_press": -1, "wordID": 1327, "type": "PRES_VIS", "trial_index": 99}, "uniqueid": "MTK2606:30BXRYBRP548ZUST0DZA9ISQV49HW1", "dateTime": 1519151022857}, {"current_trial": 100, "trialdata": {"rt": -1, "trial_type": "single-stim", "word": "yarn", "stimulus": "<p id=\"stim\">YARN</p>", "conditions": [12, 1600, "v", 24000], "internal_node_id": "0.0-73.0", "trial": 2, "time_elapsed": 483038, "serialpos": 11, "key_press": -1, "wordID": 1630, "type": "PRES_VIS", "trial_index": 100}, "uniqueid": "MTK2606:30BXRYBRP548ZUST0DZA9ISQV49HW1", "dateTime": 1519151025457}, {"current_trial": 101, "trialdata": {"rt": -1, "trial_type": "single-stim", "stimulus": "", "internal_node_id": "0.0-74.0-0.0", "time_elapsed": 485389, "key_press": -1, "type": "PRE_RECALL_DELAY", "trial_index": 101}, "uniqueid": "MTK2606:30BXRYBRP548ZUST0DZA9ISQV49HW1", "dateTime": 1519151027808}, {"current_trial": 102, "trialdata": {"rt": -1000, "trial_type": "single-audio", "stimulus": "/static/audio/400Hz.wav", "internal_node_id": "0.0-75.0", "time_elapsed": 485893, "key_press": -1, "type": "PRE_RECALL_ALERT", "trial_index": 102}, "uniqueid": "MTK2606:30BXRYBRP548ZUST0DZA9ISQV49HW1", "dateTime": 1519151028312}, {"current_trial": 103, "trialdata": {"rt": [4864, 7854, 13306, 17565, 40510], "recwords": ["freckle", "snack", "dolphin", "fragrance", "biker"], "key_times": [2148, 2517, 2694, 3374, 4215, 4311, 4467, 4864, 5795, 5970, 6104, 6260, 7066, 7520, 7636, 7854, 8446, 8866, 8946, 9259, 9355, 9621, 10542, 10718, 10984, 11170, 11945, 12608, 12789, 12903, 13120, 13306, 15373, 15649, 16030, 16357, 16555, 16782, 16932, 17065, 17185, 17565, 39824, 39889, 40127, 40243, 40352, 40510], "trial_type": "free-recall", "conditions": [12, 1600, "v", 24000], "internal_node_id": "0.0-76.0-0.0", "key_presses": [70, 82, 69, 67, 75, 76, 69, 13, 83, 78, 65, 75, 8, 67, 75, 13, 68, 79, 80, 72, 73, 78, 8, 8, 8, 8, 76, 80, 72, 73, 78, 13, 70, 82, 65, 71, 82, 65, 78, 67, 69, 13, 66, 73, 75, 69, 82, 13], "trial": 2, "time_elapsed": 545897, "type": "FREE_RECALL", "trial_index": 103}, "uniqueid": "MTK2606:30BXRYBRP548ZUST0DZA9ISQV49HW1", "dateTime": 1519151088317}, {"current_trial": 104, "trialdata": {"rt": 28330, "trial_type": "text", "internal_node_id": "0.0-77.0", "time_elapsed": 576229, "key_press": 13, "type": "INSTRUCTIONS", "trial_index": 104}, "uniqueid": "MTK2606:30BXRYBRP548ZUST0DZA9ISQV49HW1", "dateTime": 1519151118648}, {"current_trial": 105, "trialdata": {"rt": [2418, 4945, 8172, 10896, 13741, 15548, 17913, 21547, 23567], "trial_type": "math-distractor", "key_times": [1991, 2418, 4224, 4316, 4945, 7865, 7976, 8172, 10311, 10451, 10896, 12942, 13741, 15190, 15351, 15548, 17506, 17678, 17913, 20865, 21126, 21547, 23149, 23320, 23567], "responses": ["6", "14", "14", "19", "8", "11", "15", "15", "11"], "num2": [4, 1, 4, 7, 6, 4, 3, 4, 7, 3], "num3": [1, 9, 6, 3, 1, 1, 9, 4, 3, 2], "conditions": [24, 800, "v", 24000], "internal_node_id": "0.0-78.0", "key_presses": [54, 13, 49, 52, 13, 49, 52, 13, 49, 57, 13, 56, 13, 49, 49, 13, 49, 53, 13, 49, 53, 13, 49, 49, 13], "trial": 3, "time_elapsed": 602238, "type": "DISTRACTOR", "trial_index": 105, "num1": [1, 4, 4, 9, 1, 6, 3, 7, 1, 5]}, "uniqueid": "MTK2606:30BXRYBRP548ZUST0DZA9ISQV49HW1", "dateTime": 1519151144657}, {"current_trial": 106, "trialdata": {"rt": -1, "trial_type": "single-stim", "stimulus": "<p id=\"stim\">10</p>", "internal_node_id": "0.0-79.0-0.0", "time_elapsed": 605240, "key_press": -1, "trial_index": 106}, "uniqueid": "MTK2606:30BXRYBRP548ZUST0DZA9ISQV49HW1", "dateTime": 1519151147659}, {"current_trial": 107, "trialdata": {"rt": -1, "trial_type": "single-stim", "stimulus": "<p id=\"stim\">9</p>", "internal_node_id": "0.0-79.0-1.0", "time_elapsed": 606246, "key_press": -1, "trial_index": 107}, "uniqueid": "MTK2606:30BXRYBRP548ZUST0DZA9ISQV49HW1", "dateTime": 1519151148665}, {"current_trial": 108, "trialdata": {"rt": -1, "trial_type": "single-stim", "stimulus": "<p id=\"stim\">8</p>", "internal_node_id": "0.0-79.0-2.0", "time_elapsed": 607250, "key_press": -1, "trial_index": 108}, "uniqueid": "MTK2606:30BXRYBRP548ZUST0DZA9ISQV49HW1", "dateTime": 1519151149669}, {"current_trial": 109, "trialdata": {"rt": -1, "trial_type": "single-stim", "stimulus": "<p id=\"stim\">7</p>", "internal_node_id": "0.0-79.0-3.0", "time_elapsed": 608254, "key_press": -1, "trial_index": 109}, "uniqueid": "MTK2606:30BXRYBRP548ZUST0DZA9ISQV49HW1", "dateTime": 1519151150673}, {"current_trial": 110, "trialdata": {"rt": -1, "trial_type": "single-stim", "stimulus": "<p id=\"stim\">6</p>", "internal_node_id": "0.0-79.0-4.0", "time_elapsed": 609257, "key_press": -1, "trial_index": 110}, "uniqueid": "MTK2606:30BXRYBRP548ZUST0DZA9ISQV49HW1", "dateTime": 1519151151676}, {"current_trial": 111, "trialdata": {"rt": -1, "trial_type": "single-stim", "stimulus": "<p id=\"stim\">5</p>", "internal_node_id": "0.0-79.0-5.0", "time_elapsed": 610262, "key_press": -1, "trial_index": 111}, "uniqueid": "MTK2606:30BXRYBRP548ZUST0DZA9ISQV49HW1", "dateTime": 1519151152681}, {"current_trial": 112, "trialdata": {"rt": -1, "trial_type": "single-stim", "stimulus": "<p id=\"stim\">4</p>", "internal_node_id": "0.0-79.0-6.0", "time_elapsed": 611263, "key_press": -1, "trial_index": 112}, "uniqueid": "MTK2606:30BXRYBRP548ZUST0DZA9ISQV49HW1", "dateTime": 1519151153682}, {"current_trial": 113, "trialdata": {"rt": -1, "trial_type": "single-stim", "stimulus": "<p id=\"stim\">3</p>", "internal_node_id": "0.0-79.0-7.0", "time_elapsed": 612267, "key_press": -1, "trial_index": 113}, "uniqueid": "MTK2606:30BXRYBRP548ZUST0DZA9ISQV49HW1", "dateTime": 1519151154686}, {"current_trial": 114, "trialdata": {"rt": -1, "trial_type": "single-stim", "stimulus": "<p id=\"stim\">2</p>", "internal_node_id": "0.0-79.0-8.0", "time_elapsed": 613272, "key_press": -1, "trial_index": 114}, "uniqueid": "MTK2606:30BXRYBRP548ZUST0DZA9ISQV49HW1", "dateTime": 1519151155691}, {"current_trial": 115, "trialdata": {"rt": -1, "trial_type": "single-stim", "stimulus": "<p id=\"stim\">1</p>", "internal_node_id": "0.0-79.0-9.0", "time_elapsed": 614276, "key_press": -1, "trial_index": 115}, "uniqueid": "MTK2606:30BXRYBRP548ZUST0DZA9ISQV49HW1", "dateTime": 1519151156695}, {"current_trial": 116, "trialdata": {"rt": -1, "trial_type": "single-stim", "stimulus": "<p id=\"stim\">+</p>", "internal_node_id": "0.0-80.0-0.0", "time_elapsed": 615780, "key_press": -1, "type": "FIXATION", "trial_index": 116}, "uniqueid": "MTK2606:30BXRYBRP548ZUST0DZA9ISQV49HW1", "dateTime": 1519151158199}, {"current_trial": 117, "trialdata": {"rt": -1, "trial_type": "single-stim", "word": "banquet", "stimulus": "<p id=\"stim\">BANQUET</p>", "conditions": [24, 800, "v", 24000], "internal_node_id": "0.0-81.0", "trial": 3, "time_elapsed": 616583, "serialpos": 0, "key_press": -1, "wordID": 85, "type": "PRES_VIS", "trial_index": 117}, "uniqueid": "MTK2606:30BXRYBRP548ZUST0DZA9ISQV49HW1", "dateTime": 1519151159002}, {"current_trial": 118, "trialdata": {"rt": -1, "trial_type": "single-stim", "word": "ghetto", "stimulus": "<p id=\"stim\">GHETTO</p>", "conditions": [24, 800, "v", 24000], "internal_node_id": "0.0-82.0", "trial": 3, "time_elapsed": 618300, "serialpos": 1, "key_press": -1, "wordID": 632, "type": "PRES_VIS", "trial_index": 118}, "uniqueid": "MTK2606:30BXRYBRP548ZUST0DZA9ISQV49HW1", "dateTime": 1519151160720}, {"current_trial": 119, "trialdata": {"rt": -1, "trial_type": "single-stim", "word": "goblin", "stimulus": "<p id=\"stim\">GOBLIN</p>", "conditions": [24, 800, "v", 24000], "internal_node_id": "0.0-83.0", "trial": 3, "time_elapsed": 619946, "serialpos": 2, "key_press": -1, "wordID": 644, "type": "PRES_VIS", "trial_index": 119}, "uniqueid": "MTK2606:30BXRYBRP548ZUST0DZA9ISQV49HW1", "dateTime": 1519151162365}, {"current_trial": 120, "trialdata": {"rt": -1, "trial_type": "single-stim", "word": "daisy", "stimulus": "<p id=\"stim\">DAISY</p>", "conditions": [24, 800, "v", 24000], "internal_node_id": "0.0-84.0", "trial": 3, "time_elapsed": 621854, "serialpos": 3, "key_press": -1, "wordID": 434, "type": "PRES_VIS", "trial_index": 120}, "uniqueid": "MTK2606:30BXRYBRP548ZUST0DZA9ISQV49HW1", "dateTime": 1519151164273}, {"current_trial": 121, "trialdata": {"rt": -1, "trial_type": "single-stim", "word": "actress", "stimulus": "<p id=\"stim\">ACTRESS</p>", "conditions": [24, 800, "v", 24000], "internal_node_id": "0.0-85.0", "trial": 3, "time_elapsed": 623829, "serialpos": 4, "key_press": -1, "wordID": 5, "type": "PRES_VIS", "trial_index": 121}, "uniqueid": "MTK2606:30BXRYBRP548ZUST0DZA9ISQV49HW1", "dateTime": 1519151166248}, {"current_trial": 122, "trialdata": {"rt": -1, "trial_type": "single-stim", "word": "actor", "stimulus": "<p id=\"stim\">ACTOR</p>", "conditions": [24, 800, "v", 24000], "internal_node_id": "0.0-86.0", "trial": 3, "time_elapsed": 625809, "serialpos": 5, "key_press": -1, "wordID": 4, "type": "PRES_VIS", "trial_index": 122}, "uniqueid": "MTK2606:30BXRYBRP548ZUST0DZA9ISQV49HW1", "dateTime": 1519151168228}, {"current_trial": 123, "trialdata": {"rt": -1, "trial_type": "single-stim", "word": "princess", "stimulus": "<p id=\"stim\">PRINCESS</p>", "conditions": [24, 800, "v", 24000], "internal_node_id": "0.0-87.0", "trial": 3, "time_elapsed": 627636, "serialpos": 6, "key_press": -1, "wordID": 1124, "type": "PRES_VIS", "trial_index": 123}, "uniqueid": "MTK2606:30BXRYBRP548ZUST0DZA9ISQV49HW1", "dateTime": 1519151170055}, {"current_trial": 124, "trialdata": {"rt": -1, "trial_type": "single-stim", "word": "lily", "stimulus": "<p id=\"stim\">LILY</p>", "conditions": [24, 800, "v", 24000], "internal_node_id": "0.0-88.0", "trial": 3, "time_elapsed": 629471, "serialpos": 7, "key_press": -1, "wordID": 820, "type": "PRES_VIS", "trial_index": 124}, "uniqueid": "MTK2606:30BXRYBRP548ZUST0DZA9ISQV49HW1", "dateTime": 1519151171890}, {"current_trial": 125, "trialdata": {"rt": -1, "trial_type": "single-stim", "word": "highway", "stimulus": "<p id=\"stim\">HIGHWAY</p>", "conditions": [24, 800, "v", 24000], "internal_node_id": "0.0-89.0", "trial": 3, "time_elapsed": 631266, "serialpos": 8, "key_press": -1, "wordID": 706, "type": "PRES_VIS", "trial_index": 125}, "uniqueid": "MTK2606:30BXRYBRP548ZUST0DZA9ISQV49HW1", "dateTime": 1519151173685}, {"current_trial": 126, "trialdata": {"rt": -1, "trial_type": "single-stim", "word": "crater", "stimulus": "<p id=\"stim\">CRATER</p>", "conditions": [24, 800, "v", 24000], "internal_node_id": "0.0-90.0", "trial": 3, "time_elapsed": 633015, "serialpos": 9, "key_press": -1, "wordID": 399, "type": "PRES_VIS", "trial_index": 126}, "uniqueid": "MTK2606:30BXRYBRP548ZUST0DZA9ISQV49HW1", "dateTime": 1519151175434}, {"current_trial": 127, "trialdata": {"rt": -1, "trial_type": "single-stim", "word": "swimmer", "stimulus": "<p id=\"stim\">SWIMMER</p>", "conditions": [24, 800, "v", 24000], "internal_node_id": "0.0-91.0", "trial": 3, "time_elapsed": 634942, "serialpos": 10, "key_press": -1, "wordID": 1419, "type": "PRES_VIS", "trial_index": 127}, "uniqueid": "MTK2606:30BXRYBRP548ZUST0DZA9ISQV49HW1", "dateTime": 1519151177362}, {"current_trial": 128, "trialdata": {"rt": -1, "trial_type": "single-stim", "word": "viking", "stimulus": "<p id=\"stim\">VIKING</p>", "conditions": [24, 800, "v", 24000], "internal_node_id": "0.0-92.0", "trial": 3, "time_elapsed": 636574, "serialpos": 11, "key_press": -1, "wordID": 1564, "type": "PRES_VIS", "trial_index": 128}, "uniqueid": "MTK2606:30BXRYBRP548ZUST0DZA9ISQV49HW1", "dateTime": 1519151178993}, {"current_trial": 129, "trialdata": {"rt": -1, "trial_type": "single-stim", "word": "onion", "stimulus": "<p id=\"stim\">ONION</p>", "conditions": [24, 800, "v", 24000], "internal_node_id": "0.0-93.0", "trial": 3, "time_elapsed": 638224, "serialpos": 12, "key_press": -1, "wordID": 976, "type": "PRES_VIS", "trial_index": 129}, "uniqueid": "MTK2606:30BXRYBRP548ZUST0DZA9ISQV49HW1", "dateTime": 1519151180643}, {"current_trial": 130, "trialdata": {"rt": -1, "trial_type": "single-stim", "word": "rooster", "stimulus": "<p id=\"stim\">ROOSTER</p>", "conditions": [24, 800, "v", 24000], "internal_node_id": "0.0-94.0", "trial": 3, "time_elapsed": 640037, "serialpos": 13, "key_press": -1, "wordID": 1208, "type": "PRES_VIS", "trial_index": 130}, "uniqueid": "MTK2606:30BXRYBRP548ZUST0DZA9ISQV49HW1", "dateTime": 1519151182456}, {"current_trial": 131, "trialdata": {"rt": -1, "trial_type": "single-stim", "word": "knife", "stimulus": "<p id=\"stim\">KNIFE</p>", "conditions": [24, 800, "v", 24000], "internal_node_id": "0.0-95.0", "trial": 3, "time_elapsed": 641797, "serialpos": 14, "key_press": -1, "wordID": 784, "type": "PRES_VIS", "trial_index": 131}, "uniqueid": "MTK2606:30BXRYBRP548ZUST0DZA9ISQV49HW1", "dateTime": 1519151184217}, {"current_trial": 132, "trialdata": {"rt": -1, "trial_type": "single-stim", "word": "cricket", "stimulus": "<p id=\"stim\">CRICKET</p>", "conditions": [24, 800, "v", 24000], "internal_node_id": "0.0-96.0", "trial": 3, "time_elapsed": 643627, "serialpos": 15, "key_press": -1, "wordID": 407, "type": "PRES_VIS", "trial_index": 132}, "uniqueid": "MTK2606:30BXRYBRP548ZUST0DZA9ISQV49HW1", "dateTime": 1519151186046}, {"current_trial": 133, "trialdata": {"rt": -1, "trial_type": "single-stim", "word": "asia", "stimulus": "<p id=\"stim\">ASIA</p>", "conditions": [24, 800, "v", 24000], "internal_node_id": "0.0-97.0", "trial": 3, "time_elapsed": 645537, "serialpos": 16, "key_press": -1, "wordID": 45, "type": "PRES_VIS", "trial_index": 133}, "uniqueid": "MTK2606:30BXRYBRP548ZUST0DZA9ISQV49HW1", "dateTime": 1519151187956}, {"current_trial": 134, "trialdata": {"rt": -1, "trial_type": "single-stim", "word": "blade", "stimulus": "<p id=\"stim\">BLADE</p>", "conditions": [24, 800, "v", 24000], "internal_node_id": "0.0-98.0", "trial": 3, "time_elapsed": 647232, "serialpos": 17, "key_press": -1, "wordID": 133, "type": "PRES_VIS", "trial_index": 134}, "uniqueid": "MTK2606:30BXRYBRP548ZUST0DZA9ISQV49HW1", "dateTime": 1519151189651}, {"current_trial": 135, "trialdata": {"rt": -1, "trial_type": "single-stim", "word": "sister", "stimulus": "<p id=\"stim\">SISTER</p>", "conditions": [24, 800, "v", 24000], "internal_node_id": "0.0-99.0", "trial": 3, "time_elapsed": 648875, "serialpos": 18, "key_press": -1, "wordID": 1311, "type": "PRES_VIS", "trial_index": 135}, "uniqueid": "MTK2606:30BXRYBRP548ZUST0DZA9ISQV49HW1", "dateTime": 1519151191294}, {"current_trial": 136, "trialdata": {"rt": -1, "trial_type": "single-stim", "word": "headband", "stimulus": "<p id=\"stim\">HEADBAND</p>", "conditions": [24, 800, "v", 24000], "internal_node_id": "0.0-100.0", "trial": 3, "time_elapsed": 650757, "serialpos": 19, "key_press": -1, "wordID": 695, "type": "PRES_VIS", "trial_index": 136}, "uniqueid": "MTK2606:30BXRYBRP548ZUST0DZA9ISQV49HW1", "dateTime": 1519151193176}, {"current_trial": 137, "trialdata": {"rt": -1, "trial_type": "single-stim", "word": "shirt", "stimulus": "<p id=\"stim\">SHIRT</p>", "conditions": [24, 800, "v", 24000], "internal_node_id": "0.0-101.0", "trial": 3, "time_elapsed": 652747, "serialpos": 20, "key_press": -1, "wordID": 1286, "type": "PRES_VIS", "trial_index": 137}, "uniqueid": "MTK2606:30BXRYBRP548ZUST0DZA9ISQV49HW1", "dateTime": 1519151195166}, {"current_trial": 138, "trialdata": {"rt": -1, "trial_type": "single-stim", "word": "cookbook", "stimulus": "<p id=\"stim\">COOKBOOK</p>", "conditions": [24, 800, "v", 24000], "internal_node_id": "0.0-102.0", "trial": 3, "time_elapsed": 654387, "serialpos": 21, "key_press": -1, "wordID": 372, "type": "PRES_VIS", "trial_index": 138}, "uniqueid": "MTK2606:30BXRYBRP548ZUST0DZA9ISQV49HW1", "dateTime": 1519151196806}, {"current_trial": 139, "trialdata": {"rt": -1, "trial_type": "single-stim", "word": "sandwich", "stimulus": "<p id=\"stim\">SANDWICH</p>", "conditions": [24, 800, "v", 24000], "internal_node_id": "0.0-103.0", "trial": 3, "time_elapsed": 656021, "serialpos": 22, "key_press": -1, "wordID": 1231, "type": "PRES_VIS", "trial_index": 139}, "uniqueid": "MTK2606:30BXRYBRP548ZUST0DZA9ISQV49HW1", "dateTime": 1519151198440}, {"current_trial": 140, "trialdata": {"rt": -1, "trial_type": "single-stim", "word": "barley", "stimulus": "<p id=\"stim\">BARLEY</p>", "conditions": [24, 800, "v", 24000], "internal_node_id": "0.0-104.0", "trial": 3, "time_elapsed": 657647, "serialpos": 23, "key_press": -1, "wordID": 87, "type": "PRES_VIS", "trial_index": 140}, "uniqueid": "MTK2606:30BXRYBRP548ZUST0DZA9ISQV49HW1", "dateTime": 1519151200066}, {"current_trial": 141, "trialdata": {"rt": -1, "trial_type": "single-stim", "stimulus": "", "internal_node_id": "0.0-105.0-0.0", "time_elapsed": 659766, "key_press": -1, "type": "PRE_RECALL_DELAY", "trial_index": 141}, "uniqueid": "MTK2606:30BXRYBRP548ZUST0DZA9ISQV49HW1", "dateTime": 1519151202185}, {"current_trial": 142, "trialdata": {"rt": -1000, "trial_type": "single-audio", "stimulus": "/static/audio/400Hz.wav", "internal_node_id": "0.0-106.0", "time_elapsed": 660271, "key_press": -1, "type": "PRE_RECALL_ALERT", "trial_index": 142}, "uniqueid": "MTK2606:30BXRYBRP548ZUST0DZA9ISQV49HW1", "dateTime": 1519151202690}, {"current_trial": 143, "trialdata": {"rt": [2910, 4245, 6284, 9037, 12676, 14361, 15853, 18536], "recwords": ["actress", "actore", "princess", "sister", "headband", "barley", "shirt", "whale"], "key_times": [1903, 1988, 2069, 2208, 2292, 2547, 2709, 2910, 3057, 3157, 3456, 3584, 3797, 3901, 4245, 4770, 4983, 5108, 5334, 5574, 5702, 5890, 6140, 6284, 6448, 6617, 8346, 8550, 8685, 8833, 9037, 11471, 11527, 11690, 11846, 11982, 12101, 12253, 12395, 12676, 13444, 13558, 13678, 13838, 13979, 14147, 14361, 15120, 15224, 15324, 15440, 15695, 15853, 17739, 17894, 18049, 18204, 18390, 18536], "trial_type": "free-recall", "conditions": [24, 800, "v", 24000], "internal_node_id": "0.0-107.0-0.0", "key_presses": [65, 67, 84, 82, 69, 83, 83, 32, 65, 67, 84, 79, 82, 69, 32, 80, 82, 73, 78, 67, 69, 83, 83, 32, 83, 73, 83, 84, 69, 82, 13, 72, 69, 65, 68, 66, 65, 78, 68, 13, 66, 65, 82, 76, 69, 89, 13, 83, 72, 73, 82, 84, 13, 87, 72, 65, 76, 69, 13], "trial": 3, "time_elapsed": 720279, "type": "FREE_RECALL", "trial_index": 143}, "uniqueid": "MTK2606:30BXRYBRP548ZUST0DZA9ISQV49HW1", "dateTime": 1519151262700}, {"current_trial": 144, "trialdata": {"rt": 4284, "trial_type": "text", "internal_node_id": "0.0-108.0", "time_elapsed": 726565, "key_press": 13, "type": "INSTRUCTIONS", "trial_index": 144}, "uniqueid": "MTK2606:30BXRYBRP548ZUST0DZA9ISQV49HW1", "dateTime": 1519151268984}, {"current_trial": 145, "trialdata": {"rt": [6651, 10002], "trial_type": "math-distractor", "key_times": [6378, 6505, 6651, 9275, 9721, 10002], "responses": ["22", "13"], "num2": [8, 3, 7], "num3": [9, 8, 7], "conditions": [24, 800, "v", 12000], "internal_node_id": "0.0-109.0", "key_presses": [50, 50, 13, 49, 51, 13], "trial": 4, "time_elapsed": 740574, "type": "DISTRACTOR", "trial_index": 145, "num1": [5, 2, 6]}, "uniqueid": "MTK2606:30BXRYBRP548ZUST0DZA9ISQV49HW1", "dateTime": 1519151282993}, {"current_trial": 146, "trialdata": {"rt": -1, "trial_type": "single-stim", "stimulus": "<p id=\"stim\">10</p>", "internal_node_id": "0.0-110.0-0.0", "time_elapsed": 743582, "key_press": -1, "trial_index": 146}, "uniqueid": "MTK2606:30BXRYBRP548ZUST0DZA9ISQV49HW1", "dateTime": 1519151286001}, {"current_trial": 147, "trialdata": {"rt": -1, "trial_type": "single-stim", "stimulus": "<p id=\"stim\">9</p>", "internal_node_id": "0.0-110.0-1.0", "time_elapsed": 744587, "key_press": -1, "trial_index": 147}, "uniqueid": "MTK2606:30BXRYBRP548ZUST0DZA9ISQV49HW1", "dateTime": 1519151287006}, {"current_trial": 148, "trialdata": {"rt": -1, "trial_type": "single-stim", "stimulus": "<p id=\"stim\">8</p>", "internal_node_id": "0.0-110.0-2.0", "time_elapsed": 745589, "key_press": -1, "trial_index": 148}, "uniqueid": "MTK2606:30BXRYBRP548ZUST0DZA9ISQV49HW1", "dateTime": 1519151288008}, {"current_trial": 149, "trialdata": {"rt": -1, "trial_type": "single-stim", "stimulus": "<p id=\"stim\">7</p>", "internal_node_id": "0.0-110.0-3.0", "time_elapsed": 746594, "key_press": -1, "trial_index": 149}, "uniqueid": "MTK2606:30BXRYBRP548ZUST0DZA9ISQV49HW1", "dateTime": 1519151289013}, {"current_trial": 150, "trialdata": {"rt": -1, "trial_type": "single-stim", "stimulus": "<p id=\"stim\">6</p>", "internal_node_id": "0.0-110.0-4.0", "time_elapsed": 747598, "key_press": -1, "trial_index": 150}, "uniqueid": "MTK2606:30BXRYBRP548ZUST0DZA9ISQV49HW1", "dateTime": 1519151290017}, {"current_trial": 151, "trialdata": {"rt": -1, "trial_type": "single-stim", "stimulus": "<p id=\"stim\">5</p>", "internal_node_id": "0.0-110.0-5.0", "time_elapsed": 748602, "key_press": -1, "trial_index": 151}, "uniqueid": "MTK2606:30BXRYBRP548ZUST0DZA9ISQV49HW1", "dateTime": 1519151291021}, {"current_trial": 152, "trialdata": {"rt": -1, "trial_type": "single-stim", "stimulus": "<p id=\"stim\">4</p>", "internal_node_id": "0.0-110.0-6.0", "time_elapsed": 749603, "key_press": -1, "trial_index": 152}, "uniqueid": "MTK2606:30BXRYBRP548ZUST0DZA9ISQV49HW1", "dateTime": 1519151292023}, {"current_trial": 153, "trialdata": {"rt": -1, "trial_type": "single-stim", "stimulus": "<p id=\"stim\">3</p>", "internal_node_id": "0.0-110.0-7.0", "time_elapsed": 750609, "key_press": -1, "trial_index": 153}, "uniqueid": "MTK2606:30BXRYBRP548ZUST0DZA9ISQV49HW1", "dateTime": 1519151293028}, {"current_trial": 154, "trialdata": {"rt": -1, "trial_type": "single-stim", "stimulus": "<p id=\"stim\">2</p>", "internal_node_id": "0.0-110.0-8.0", "time_elapsed": 751615, "key_press": -1, "trial_index": 154}, "uniqueid": "MTK2606:30BXRYBRP548ZUST0DZA9ISQV49HW1", "dateTime": 1519151294034}, {"current_trial": 155, "trialdata": {"rt": -1, "trial_type": "single-stim", "stimulus": "<p id=\"stim\">1</p>", "internal_node_id": "0.0-110.0-9.0", "time_elapsed": 752620, "key_press": -1, "trial_index": 155}, "uniqueid": "MTK2606:30BXRYBRP548ZUST0DZA9ISQV49HW1", "dateTime": 1519151295039}, {"current_trial": 156, "trialdata": {"rt": -1, "trial_type": "single-stim", "stimulus": "<p id=\"stim\">+</p>", "internal_node_id": "0.0-111.0-0.0", "time_elapsed": 754123, "key_press": -1, "type": "FIXATION", "trial_index": 156}, "uniqueid": "MTK2606:30BXRYBRP548ZUST0DZA9ISQV49HW1", "dateTime": 1519151296542}, {"current_trial": 157, "trialdata": {"rt": -1, "trial_type": "single-stim", "word": "cyclone", "stimulus": "<p id=\"stim\">CYCLONE</p>", "conditions": [24, 800, "v", 12000], "internal_node_id": "0.0-112.0", "trial": 4, "time_elapsed": 754928, "serialpos": 0, "key_press": -1, "wordID": 430, "type": "PRES_VIS", "trial_index": 157}, "uniqueid": "MTK2606:30BXRYBRP548ZUST0DZA9ISQV49HW1", "dateTime": 1519151297347}, {"current_trial": 158, "trialdata": {"rt": -1, "trial_type": "single-stim", "word": "forehead", "stimulus": "<p id=\"stim\">FOREHEAD</p>", "conditions": [24, 800, "v", 12000], "internal_node_id": "0.0-113.0", "trial": 4, "time_elapsed": 756750, "serialpos": 1, "key_press": -1, "wordID": 591, "type": "PRES_VIS", "trial_index": 158}, "uniqueid": "MTK2606:30BXRYBRP548ZUST0DZA9ISQV49HW1", "dateTime": 1519151299169}, {"current_trial": 159, "trialdata": {"rt": -1, "trial_type": "single-stim", "word": "sticker", "stimulus": "<p id=\"stim\">STICKER</p>", "conditions": [24, 800, "v", 12000], "internal_node_id": "0.0-114.0", "trial": 4, "time_elapsed": 758407, "serialpos": 2, "key_press": -1, "wordID": 1381, "type": "PRES_VIS", "trial_index": 159}, "uniqueid": "MTK2606:30BXRYBRP548ZUST0DZA9ISQV49HW1", "dateTime": 1519151300826}, {"current_trial": 160, "trialdata": {"rt": -1, "trial_type": "single-stim", "word": "grave", "stimulus": "<p id=\"stim\">GRAVE</p>", "conditions": [24, 800, "v", 12000], "internal_node_id": "0.0-115.0", "trial": 4, "time_elapsed": 760041, "serialpos": 3, "key_press": -1, "wordID": 657, "type": "PRES_VIS", "trial_index": 160}, "uniqueid": "MTK2606:30BXRYBRP548ZUST0DZA9ISQV49HW1", "dateTime": 1519151302460}, {"current_trial": 161, "trialdata": {"rt": -1, "trial_type": "single-stim", "word": "powder", "stimulus": "<p id=\"stim\">POWDER</p>", "conditions": [24, 800, "v", 12000], "internal_node_id": "0.0-116.0", "trial": 4, "time_elapsed": 761688, "serialpos": 4, "key_press": -1, "wordID": 1116, "type": "PRES_VIS", "trial_index": 161}, "uniqueid": "MTK2606:30BXRYBRP548ZUST0DZA9ISQV49HW1", "dateTime": 1519151304107}, {"current_trial": 162, "trialdata": {"rt": -1, "trial_type": "single-stim", "word": "penguin", "stimulus": "<p id=\"stim\">PENGUIN</p>", "conditions": [24, 800, "v", 12000], "internal_node_id": "0.0-117.0", "trial": 4, "time_elapsed": 763312, "serialpos": 5, "key_press": -1, "wordID": 1043, "type": "PRES_VIS", "trial_index": 162}, "uniqueid": "MTK2606:30BXRYBRP548ZUST0DZA9ISQV49HW1", "dateTime": 1519151305731}, {"current_trial": 163, "trialdata": {"rt": -1, "trial_type": "single-stim", "word": "turtle", "stimulus": "<p id=\"stim\">TURTLE</p>", "conditions": [24, 800, "v", 12000], "internal_node_id": "0.0-118.0", "trial": 4, "time_elapsed": 765070, "serialpos": 6, "key_press": -1, "wordID": 1521, "type": "PRES_VIS", "trial_index": 163}, "uniqueid": "MTK2606:30BXRYBRP548ZUST0DZA9ISQV49HW1", "dateTime": 1519151307489}, {"current_trial": 164, "trialdata": {"rt": -1, "trial_type": "single-stim", "word": "panther", "stimulus": "<p id=\"stim\">PANTHER</p>", "conditions": [24, 800, "v", 12000], "internal_node_id": "0.0-119.0", "trial": 4, "time_elapsed": 766803, "serialpos": 7, "key_press": -1, "wordID": 1008, "type": "PRES_VIS", "trial_index": 164}, "uniqueid": "MTK2606:30BXRYBRP548ZUST0DZA9ISQV49HW1", "dateTime": 1519151309222}, {"current_trial": 165, "trialdata": {"rt": -1, "trial_type": "single-stim", "word": "peanut", "stimulus": "<p id=\"stim\">PEANUT</p>", "conditions": [24, 800, "v", 12000], "internal_node_id": "0.0-120.0", "trial": 4, "time_elapsed": 768589, "serialpos": 8, "key_press": -1, "wordID": 1031, "type": "PRES_VIS", "trial_index": 165}, "uniqueid": "MTK2606:30BXRYBRP548ZUST0DZA9ISQV49HW1", "dateTime": 1519151311008}, {"current_trial": 166, "trialdata": {"rt": -1, "trial_type": "single-stim", "word": "clam", "stimulus": "<p id=\"stim\">CLAM</p>", "conditions": [24, 800, "v", 12000], "internal_node_id": "0.0-121.0", "trial": 4, "time_elapsed": 770412, "serialpos": 9, "key_press": -1, "wordID": 314, "type": "PRES_VIS", "trial_index": 166}, "uniqueid": "MTK2606:30BXRYBRP548ZUST0DZA9ISQV49HW1", "dateTime": 1519151312831}, {"current_trial": 167, "trialdata": {"rt": -1, "trial_type": "single-stim", "word": "chest", "stimulus": "<p id=\"stim\">CHEST</p>", "conditions": [24, 800, "v", 12000], "internal_node_id": "0.0-122.0", "trial": 4, "time_elapsed": 772270, "serialpos": 10, "key_press": -1, "wordID": 294, "type": "PRES_VIS", "trial_index": 167}, "uniqueid": "MTK2606:30BXRYBRP548ZUST0DZA9ISQV49HW1", "dateTime": 1519151314689}, {"current_trial": 168, "trialdata": {"rt": -1, "trial_type": "single-stim", "word": "rebel", "stimulus": "<p id=\"stim\">REBEL</p>", "conditions": [24, 800, "v", 12000], "internal_node_id": "0.0-123.0", "trial": 4, "time_elapsed": 774235, "serialpos": 11, "key_press": -1, "wordID": 1171, "type": "PRES_VIS", "trial_index": 168}, "uniqueid": "MTK2606:30BXRYBRP548ZUST0DZA9ISQV49HW1", "dateTime": 1519151316654}, {"current_trial": 169, "trialdata": {"rt": -1, "trial_type": "single-stim", "word": "climber", "stimulus": "<p id=\"stim\">CLIMBER</p>", "conditions": [24, 800, "v", 12000], "internal_node_id": "0.0-124.0", "trial": 4, "time_elapsed": 775887, "serialpos": 12, "key_press": -1, "wordID": 322, "type": "PRES_VIS", "trial_index": 169}, "uniqueid": "MTK2606:30BXRYBRP548ZUST0DZA9ISQV49HW1", "dateTime": 1519151318306}, {"current_trial": 170, "trialdata": {"rt": -1, "trial_type": "single-stim", "word": "nightgown", "stimulus": "<p id=\"stim\">NIGHTGOWN</p>", "conditions": [24, 800, "v", 12000], "internal_node_id": "0.0-125.0", "trial": 4, "time_elapsed": 777636, "serialpos": 13, "key_press": -1, "wordID": 952, "type": "PRES_VIS", "trial_index": 170}, "uniqueid": "MTK2606:30BXRYBRP548ZUST0DZA9ISQV49HW1", "dateTime": 1519151320056}, {"current_trial": 171, "trialdata": {"rt": -1, "trial_type": "single-stim", "word": "fruit", "stimulus": "<p id=\"stim\">FRUIT</p>", "conditions": [24, 800, "v", 12000], "internal_node_id": "0.0-126.0", "trial": 4, "time_elapsed": 779323, "serialpos": 14, "key_press": -1, "wordID": 609, "type": "PRES_VIS", "trial_index": 171}, "uniqueid": "MTK2606:30BXRYBRP548ZUST0DZA9ISQV49HW1", "dateTime": 1519151321742}, {"current_trial": 172, "trialdata": {"rt": -1, "trial_type": "single-stim", "word": "machine", "stimulus": "<p id=\"stim\">MACHINE</p>", "conditions": [24, 800, "v", 12000], "internal_node_id": "0.0-127.0", "trial": 4, "time_elapsed": 780961, "serialpos": 15, "key_press": -1, "wordID": 851, "type": "PRES_VIS", "trial_index": 172}, "uniqueid": "MTK2606:30BXRYBRP548ZUST0DZA9ISQV49HW1", "dateTime": 1519151323380}, {"current_trial": 173, "trialdata": {"rt": -1, "trial_type": "single-stim", "word": "empire", "stimulus": "<p id=\"stim\">EMPIRE</p>", "conditions": [24, 800, "v", 12000], "internal_node_id": "0.0-128.0", "trial": 4, "time_elapsed": 782783, "serialpos": 16, "key_press": -1, "wordID": 529, "type": "PRES_VIS", "trial_index": 173}, "uniqueid": "MTK2606:30BXRYBRP548ZUST0DZA9ISQV49HW1", "dateTime": 1519151325202}, {"current_trial": 174, "trialdata": {"rt": -1, "trial_type": "single-stim", "word": "apron", "stimulus": "<p id=\"stim\">APRON</p>", "conditions": [24, 800, "v", 12000], "internal_node_id": "0.0-129.0", "trial": 4, "time_elapsed": 784624, "serialpos": 17, "key_press": -1, "wordID": 34, "type": "PRES_VIS", "trial_index": 174}, "uniqueid": "MTK2606:30BXRYBRP548ZUST0DZA9ISQV49HW1", "dateTime": 1519151327043}, {"current_trial": 175, "trialdata": {"rt": -1, "trial_type": "single-stim", "word": "citrus", "stimulus": "<p id=\"stim\">CITRUS</p>", "conditions": [24, 800, "v", 12000], "internal_node_id": "0.0-130.0", "trial": 4, "time_elapsed": 786440, "serialpos": 18, "key_press": -1, "wordID": 312, "type": "PRES_VIS", "trial_index": 175}, "uniqueid": "MTK2606:30BXRYBRP548ZUST0DZA9ISQV49HW1", "dateTime": 1519151328859}, {"current_trial": 176, "trialdata": {"rt": -1, "trial_type": "single-stim", "word": "rug", "stimulus": "<p id=\"stim\">RUG</p>", "conditions": [24, 800, "v", 12000], "internal_node_id": "0.0-131.0", "trial": 4, "time_elapsed": 788122, "serialpos": 19, "key_press": -1, "wordID": 1214, "type": "PRES_VIS", "trial_index": 176}, "uniqueid": "MTK2606:30BXRYBRP548ZUST0DZA9ISQV49HW1", "dateTime": 1519151330541}, {"current_trial": 177, "trialdata": {"rt": -1, "trial_type": "single-stim", "word": "grill", "stimulus": "<p id=\"stim\">GRILL</p>", "conditions": [24, 800, "v", 12000], "internal_node_id": "0.0-132.0", "trial": 4, "time_elapsed": 789763, "serialpos": 20, "key_press": -1, "wordID": 660, "type": "PRES_VIS", "trial_index": 177}, "uniqueid": "MTK2606:30BXRYBRP548ZUST0DZA9ISQV49HW1", "dateTime": 1519151332182}, {"current_trial": 178, "trialdata": {"rt": -1, "trial_type": "single-stim", "word": "skillet", "stimulus": "<p id=\"stim\">SKILLET</p>", "conditions": [24, 800, "v", 12000], "internal_node_id": "0.0-133.0", "trial": 4, "time_elapsed": 791723, "serialpos": 21, "key_press": -1, "wordID": 1316, "type": "PRES_VIS", "trial_index": 178}, "uniqueid": "MTK2606:30BXRYBRP548ZUST0DZA9ISQV49HW1", "dateTime": 1519151334142}, {"current_trial": 179, "trialdata": {"rt": -1, "trial_type": "single-stim", "word": "suitcase", "stimulus": "<p id=\"stim\">SUITCASE</p>", "conditions": [24, 800, "v", 12000], "internal_node_id": "0.0-134.0", "trial": 4, "time_elapsed": 793348, "serialpos": 22, "key_press": -1, "wordID": 1402, "type": "PRES_VIS", "trial_index": 179}, "uniqueid": "MTK2606:30BXRYBRP548ZUST0DZA9ISQV49HW1", "dateTime": 1519151335767}, {"current_trial": 180, "trialdata": {"rt": -1, "trial_type": "single-stim", "word": "grape", "stimulus": "<p id=\"stim\">GRAPE</p>", "conditions": [24, 800, "v", 12000], "internal_node_id": "0.0-135.0", "trial": 4, "time_elapsed": 795310, "serialpos": 23, "key_press": -1, "wordID": 653, "type": "PRES_VIS", "trial_index": 180}, "uniqueid": "MTK2606:30BXRYBRP548ZUST0DZA9ISQV49HW1", "dateTime": 1519151337730}, {"current_trial": 181, "trialdata": {"rt": -1, "trial_type": "single-stim", "stimulus": "", "internal_node_id": "0.0-136.0-0.0", "time_elapsed": 797603, "key_press": -1, "type": "PRE_RECALL_DELAY", "trial_index": 181}, "uniqueid": "MTK2606:30BXRYBRP548ZUST0DZA9ISQV49HW1", "dateTime": 1519151340022}, {"current_trial": 182, "trialdata": {"rt": -1000, "trial_type": "single-audio", "stimulus": "/static/audio/400Hz.wav", "internal_node_id": "0.0-137.0", "time_elapsed": 798108, "key_press": -1, "type": "PRE_RECALL_ALERT", "trial_index": 182}, "uniqueid": "MTK2606:30BXRYBRP548ZUST0DZA9ISQV49HW1", "dateTime": 1519151340527}, {"current_trial": 183, "trialdata": {"rt": [2020, 3611, 5829, 7285, 10039, 13402, 15555, 17249, 21977, 26408], "recwords": ["grill", "skillet", "suitcase", "cycloe", "grave", "forehead", "sticker", "clam", "peanut", "tiger"], "key_times": [817, 965, 1423, 1511, 1718, 2020, 2409, 2561, 2762, 2920, 3093, 3243, 3367, 3611, 4303, 4469, 4564, 4708, 5088, 5208, 5384, 5690, 5829, 6168, 6324, 6468, 6620, 6873, 7055, 7285, 9119, 9263, 9475, 9600, 9789, 10039, 10751, 10917, 11116, 11465, 11655, 11889, 12182, 12455, 12628, 12727, 12868, 13079, 13402, 14257, 14531, 14679, 14827, 14981, 15164, 15328, 15555, 16428, 16550, 16733, 16887, 17249, 20319, 20463, 21261, 21470, 21600, 21737, 21977, 25294, 25494, 25728, 25837, 25973, 26408], "trial_type": "free-recall", "conditions": [24, 800, "v", 12000], "internal_node_id": "0.0-138.0-0.0", "key_presses": [71, 82, 73, 76, 76, 13, 83, 75, 73, 76, 76, 69, 84, 13, 83, 85, 73, 84, 67, 65, 83, 69, 13, 67, 89, 67, 76, 79, 69, 13, 71, 82, 65, 86, 69, 13, 70, 79, 82, 69, 72, 65, 69, 8, 8, 69, 65, 68, 13, 83, 84, 73, 67, 75, 69, 82, 13, 67, 76, 65, 77, 13, 80, 69, 65, 78, 85, 84, 13, 84, 73, 71, 69, 82, 13], "trial": 4, "time_elapsed": 858115, "type": "FREE_RECALL", "trial_index": 183}, "uniqueid": "MTK2606:30BXRYBRP548ZUST0DZA9ISQV49HW1", "dateTime": 1519151400535}, {"current_trial": 184, "trialdata": {"rt": 1590, "trial_type": "text", "internal_node_id": "0.0-139.0", "time_elapsed": 861709, "key_press": 13, "type": "INSTRUCTIONS", "trial_index": 184}, "uniqueid": "MTK2606:30BXRYBRP548ZUST0DZA9ISQV49HW1", "dateTime": 1519151404129}, {"current_trial": 185, "trialdata": {"rt": [2722, 6582, 11286], "trial_type": "math-distractor", "key_times": [2330, 2424, 2722, 5876, 6021, 6582, 10899, 11058, 11286], "responses": ["10", "28", "11"], "num2": [2, 6, 3, 1], "num3": [3, 6, 2, 1], "conditions": [24, 800, "v", 12000], "internal_node_id": "0.0-140.0", "key_presses": [49, 48, 13, 50, 56, 13, 49, 49, 13], "trial": 5, "time_elapsed": 875718, "type": "DISTRACTOR", "trial_index": 185, "num1": [5, 7, 6, 4]}, "uniqueid": "MTK2606:30BXRYBRP548ZUST0DZA9ISQV49HW1", "dateTime": 1519151418137}, {"current_trial": 186, "trialdata": {"rt": -1, "trial_type": "single-stim", "stimulus": "<p id=\"stim\">10</p>", "internal_node_id": "0.0-141.0-0.0", "time_elapsed": 878725, "key_press": -1, "trial_index": 186}, "uniqueid": "MTK2606:30BXRYBRP548ZUST0DZA9ISQV49HW1", "dateTime": 1519151421144}, {"current_trial": 187, "trialdata": {"rt": -1, "trial_type": "single-stim", "stimulus": "<p id=\"stim\">9</p>", "internal_node_id": "0.0-141.0-1.0", "time_elapsed": 879729, "key_press": -1, "trial_index": 187}, "uniqueid": "MTK2606:30BXRYBRP548ZUST0DZA9ISQV49HW1", "dateTime": 1519151422148}, {"current_trial": 188, "trialdata": {"rt": -1, "trial_type": "single-stim", "stimulus": "<p id=\"stim\">8</p>", "internal_node_id": "0.0-141.0-2.0", "time_elapsed": 880734, "key_press": -1, "trial_index": 188}, "uniqueid": "MTK2606:30BXRYBRP548ZUST0DZA9ISQV49HW1", "dateTime": 1519151423153}, {"current_trial": 189, "trialdata": {"rt": -1, "trial_type": "single-stim", "stimulus": "<p id=\"stim\">7</p>", "internal_node_id": "0.0-141.0-3.0", "time_elapsed": 881736, "key_press": -1, "trial_index": 189}, "uniqueid": "MTK2606:30BXRYBRP548ZUST0DZA9ISQV49HW1", "dateTime": 1519151424155}, {"current_trial": 190, "trialdata": {"rt": -1, "trial_type": "single-stim", "stimulus": "<p id=\"stim\">6</p>", "internal_node_id": "0.0-141.0-4.0", "time_elapsed": 882737, "key_press": -1, "trial_index": 190}, "uniqueid": "MTK2606:30BXRYBRP548ZUST0DZA9ISQV49HW1", "dateTime": 1519151425156}, {"current_trial": 191, "trialdata": {"rt": -1, "trial_type": "single-stim", "stimulus": "<p id=\"stim\">5</p>", "internal_node_id": "0.0-141.0-5.0", "time_elapsed": 883742, "key_press": -1, "trial_index": 191}, "uniqueid": "MTK2606:30BXRYBRP548ZUST0DZA9ISQV49HW1", "dateTime": 1519151426161}, {"current_trial": 192, "trialdata": {"rt": -1, "trial_type": "single-stim", "stimulus": "<p id=\"stim\">4</p>", "internal_node_id": "0.0-141.0-6.0", "time_elapsed": 884743, "key_press": -1, "trial_index": 192}, "uniqueid": "MTK2606:30BXRYBRP548ZUST0DZA9ISQV49HW1", "dateTime": 1519151427162}, {"current_trial": 193, "trialdata": {"rt": -1, "trial_type": "single-stim", "stimulus": "<p id=\"stim\">3</p>", "internal_node_id": "0.0-141.0-7.0", "time_elapsed": 885745, "key_press": -1, "trial_index": 193}, "uniqueid": "MTK2606:30BXRYBRP548ZUST0DZA9ISQV49HW1", "dateTime": 1519151428164}, {"current_trial": 194, "trialdata": {"rt": -1, "trial_type": "single-stim", "stimulus": "<p id=\"stim\">2</p>", "internal_node_id": "0.0-141.0-8.0", "time_elapsed": 886747, "key_press": -1, "trial_index": 194}, "uniqueid": "MTK2606:30BXRYBRP548ZUST0DZA9ISQV49HW1", "dateTime": 1519151429167}, {"current_trial": 195, "trialdata": {"rt": -1, "trial_type": "single-stim", "stimulus": "<p id=\"stim\">1</p>", "internal_node_id": "0.0-141.0-9.0", "time_elapsed": 887752, "key_press": -1, "trial_index": 195}, "uniqueid": "MTK2606:30BXRYBRP548ZUST0DZA9ISQV49HW1", "dateTime": 1519151430171}, {"current_trial": 196, "trialdata": {"rt": -1, "trial_type": "single-stim", "stimulus": "<p id=\"stim\">+</p>", "internal_node_id": "0.0-142.0-0.0", "time_elapsed": 889256, "key_press": -1, "type": "FIXATION", "trial_index": 196}, "uniqueid": "MTK2606:30BXRYBRP548ZUST0DZA9ISQV49HW1", "dateTime": 1519151431675}, {"current_trial": 197, "trialdata": {"rt": -1, "trial_type": "single-stim", "word": "pliers", "stimulus": "<p id=\"stim\">PLIERS</p>", "conditions": [24, 800, "v", 12000], "internal_node_id": "0.0-143.0", "trial": 5, "time_elapsed": 890057, "serialpos": 0, "key_press": -1, "wordID": 1088, "type": "PRES_VIS", "trial_index": 197}, "uniqueid": "MTK2606:30BXRYBRP548ZUST0DZA9ISQV49HW1", "dateTime": 1519151432476}, {"current_trial": 198, "trialdata": {"rt": -1, "trial_type": "single-stim", "word": "rod", "stimulus": "<p id=\"stim\">ROD</p>", "conditions": [24, 800, "v", 12000], "internal_node_id": "0.0-144.0", "trial": 5, "time_elapsed": 891754, "serialpos": 1, "key_press": -1, "wordID": 1202, "type": "PRES_VIS", "trial_index": 198}, "uniqueid": "MTK2606:30BXRYBRP548ZUST0DZA9ISQV49HW1", "dateTime": 1519151434173}, {"current_trial": 199, "trialdata": {"rt": -1, "trial_type": "single-stim", "word": "boyfriend", "stimulus": "<p id=\"stim\">BOYFRIEND</p>", "conditions": [24, 800, "v", 12000], "internal_node_id": "0.0-145.0", "trial": 5, "time_elapsed": 893541, "serialpos": 2, "key_press": -1, "wordID": 161, "type": "PRES_VIS", "trial_index": 199}, "uniqueid": "MTK2606:30BXRYBRP548ZUST0DZA9ISQV49HW1", "dateTime": 1519151435960}, {"current_trial": 200, "trialdata": {"rt": -1, "trial_type": "single-stim", "word": "kitchen", "stimulus": "<p id=\"stim\">KITCHEN</p>", "conditions": [24, 800, "v", 12000], "internal_node_id": "0.0-146.0", "trial": 5, "time_elapsed": 895536, "serialpos": 3, "key_press": -1, "wordID": 777, "type": "PRES_VIS", "trial_index": 200}, "uniqueid": "MTK2606:30BXRYBRP548ZUST0DZA9ISQV49HW1", "dateTime": 1519151437955}, {"current_trial": 201, "trialdata": {"rt": -1, "trial_type": "single-stim", "word": "thief", "stimulus": "<p id=\"stim\">THIEF</p>", "conditions": [24, 800, "v", 12000], "internal_node_id": "0.0-147.0", "trial": 5, "time_elapsed": 897377, "serialpos": 4, "key_press": -1, "wordID": 1455, "type": "PRES_VIS", "trial_index": 201}, "uniqueid": "MTK2606:30BXRYBRP548ZUST0DZA9ISQV49HW1", "dateTime": 1519151439796}, {"current_trial": 202, "trialdata": {"rt": -1, "trial_type": "single-stim", "word": "captive", "stimulus": "<p id=\"stim\">CAPTIVE</p>", "conditions": [24, 800, "v", 12000], "internal_node_id": "0.0-148.0", "trial": 5, "time_elapsed": 899229, "serialpos": 5, "key_press": -1, "wordID": 239, "type": "PRES_VIS", "trial_index": 202}, "uniqueid": "MTK2606:30BXRYBRP548ZUST0DZA9ISQV49HW1", "dateTime": 1519151441648}, {"current_trial": 203, "trialdata": {"rt": -1, "trial_type": "single-stim", "word": "piston", "stimulus": "<p id=\"stim\">PISTON</p>", "conditions": [24, 800, "v", 12000], "internal_node_id": "0.0-149.0", "trial": 5, "time_elapsed": 901180, "serialpos": 6, "key_press": -1, "wordID": 1075, "type": "PRES_VIS", "trial_index": 203}, "uniqueid": "MTK2606:30BXRYBRP548ZUST0DZA9ISQV49HW1", "dateTime": 1519151443599}, {"current_trial": 204, "trialdata": {"rt": -1, "trial_type": "single-stim", "word": "apple", "stimulus": "<p id=\"stim\">APPLE</p>", "conditions": [24, 800, "v", 12000], "internal_node_id": "0.0-150.0", "trial": 5, "time_elapsed": 902956, "serialpos": 7, "key_press": -1, "wordID": 32, "type": "PRES_VIS", "trial_index": 204}, "uniqueid": "MTK2606:30BXRYBRP548ZUST0DZA9ISQV49HW1", "dateTime": 1519151445375}, {"current_trial": 205, "trialdata": {"rt": -1, "trial_type": "single-stim", "word": "peach", "stimulus": "<p id=\"stim\">PEACH</p>", "conditions": [24, 800, "v", 12000], "internal_node_id": "0.0-151.0", "trial": 5, "time_elapsed": 904947, "serialpos": 8, "key_press": -1, "wordID": 1030, "type": "PRES_VIS", "trial_index": 205}, "uniqueid": "MTK2606:30BXRYBRP548ZUST0DZA9ISQV49HW1", "dateTime": 1519151447366}, {"current_trial": 206, "trialdata": {"rt": -1, "trial_type": "single-stim", "word": "cook", "stimulus": "<p id=\"stim\">COOK</p>", "conditions": [24, 800, "v", 12000], "internal_node_id": "0.0-152.0", "trial": 5, "time_elapsed": 906607, "serialpos": 9, "key_press": -1, "wordID": 371, "type": "PRES_VIS", "trial_index": 206}, "uniqueid": "MTK2606:30BXRYBRP548ZUST0DZA9ISQV49HW1", "dateTime": 1519151449026}, {"current_trial": 207, "trialdata": {"rt": -1, "trial_type": "single-stim", "word": "fiddle", "stimulus": "<p id=\"stim\">FIDDLE</p>", "conditions": [24, 800, "v", 12000], "internal_node_id": "0.0-153.0", "trial": 5, "time_elapsed": 908517, "serialpos": 10, "key_press": -1, "wordID": 560, "type": "PRES_VIS", "trial_index": 207}, "uniqueid": "MTK2606:30BXRYBRP548ZUST0DZA9ISQV49HW1", "dateTime": 1519151450936}, {"current_trial": 208, "trialdata": {"rt": -1, "trial_type": "single-stim", "word": "dashboard", "stimulus": "<p id=\"stim\">DASHBOARD</p>", "conditions": [24, 800, "v", 12000], "internal_node_id": "0.0-154.0", "trial": 5, "time_elapsed": 910410, "serialpos": 11, "key_press": -1, "wordID": 440, "type": "PRES_VIS", "trial_index": 208}, "uniqueid": "MTK2606:30BXRYBRP548ZUST0DZA9ISQV49HW1", "dateTime": 1519151452829}, {"current_trial": 209, "trialdata": {"rt": -1, "trial_type": "single-stim", "word": "waitress", "stimulus": "<p id=\"stim\">WAITRESS</p>", "conditions": [24, 800, "v", 12000], "internal_node_id": "0.0-155.0", "trial": 5, "time_elapsed": 912209, "serialpos": 12, "key_press": -1, "wordID": 1580, "type": "PRES_VIS", "trial_index": 209}, "uniqueid": "MTK2606:30BXRYBRP548ZUST0DZA9ISQV49HW1", "dateTime": 1519151454628}, {"current_trial": 210, "trialdata": {"rt": -1, "trial_type": "single-stim", "word": "custard", "stimulus": "<p id=\"stim\">CUSTARD</p>", "conditions": [24, 800, "v", 12000], "internal_node_id": "0.0-156.0", "trial": 5, "time_elapsed": 913930, "serialpos": 13, "key_press": -1, "wordID": 428, "type": "PRES_VIS", "trial_index": 210}, "uniqueid": "MTK2606:30BXRYBRP548ZUST0DZA9ISQV49HW1", "dateTime": 1519151456349}, {"current_trial": 211, "trialdata": {"rt": -1, "trial_type": "single-stim", "word": "diner", "stimulus": "<p id=\"stim\">DINER</p>", "conditions": [24, 800, "v", 12000], "internal_node_id": "0.0-157.0", "trial": 5, "time_elapsed": 915569, "serialpos": 14, "key_press": -1, "wordID": 466, "type": "PRES_VIS", "trial_index": 211}, "uniqueid": "MTK2606:30BXRYBRP548ZUST0DZA9ISQV49HW1", "dateTime": 1519151457988}, {"current_trial": 212, "trialdata": {"rt": -1, "trial_type": "single-stim", "word": "cocktail", "stimulus": "<p id=\"stim\">COCKTAIL</p>", "conditions": [24, 800, "v", 12000], "internal_node_id": "0.0-158.0", "trial": 5, "time_elapsed": 917339, "serialpos": 15, "key_press": -1, "wordID": 337, "type": "PRES_VIS", "trial_index": 212}, "uniqueid": "MTK2606:30BXRYBRP548ZUST0DZA9ISQV49HW1", "dateTime": 1519151459758}, {"current_trial": 213, "trialdata": {"rt": -1, "trial_type": "single-stim", "word": "concert", "stimulus": "<p id=\"stim\">CONCERT</p>", "conditions": [24, 800, "v", 12000], "internal_node_id": "0.0-159.0", "trial": 5, "time_elapsed": 919127, "serialpos": 16, "key_press": -1, "wordID": 359, "type": "PRES_VIS", "trial_index": 213}, "uniqueid": "MTK2606:30BXRYBRP548ZUST0DZA9ISQV49HW1", "dateTime": 1519151461546}, {"current_trial": 214, "trialdata": {"rt": -1, "trial_type": "single-stim", "word": "jungle", "stimulus": "<p id=\"stim\">JUNGLE</p>", "conditions": [24, 800, "v", 12000], "internal_node_id": "0.0-160.0", "trial": 5, "time_elapsed": 921086, "serialpos": 17, "key_press": -1, "wordID": 763, "type": "PRES_VIS", "trial_index": 214}, "uniqueid": "MTK2606:30BXRYBRP548ZUST0DZA9ISQV49HW1", "dateTime": 1519151463505}, {"current_trial": 215, "trialdata": {"rt": -1, "trial_type": "single-stim", "word": "sponge", "stimulus": "<p id=\"stim\">SPONGE</p>", "conditions": [24, 800, "v", 12000], "internal_node_id": "0.0-161.0", "trial": 5, "time_elapsed": 923053, "serialpos": 18, "key_press": -1, "wordID": 1354, "type": "PRES_VIS", "trial_index": 215}, "uniqueid": "MTK2606:30BXRYBRP548ZUST0DZA9ISQV49HW1", "dateTime": 1519151465472}, {"current_trial": 216, "trialdata": {"rt": -1, "trial_type": "single-stim", "word": "cafe", "stimulus": "<p id=\"stim\">CAFE</p>", "conditions": [24, 800, "v", 12000], "internal_node_id": "0.0-162.0", "trial": 5, "time_elapsed": 924690, "serialpos": 19, "key_press": -1, "wordID": 215, "type": "PRES_VIS", "trial_index": 216}, "uniqueid": "MTK2606:30BXRYBRP548ZUST0DZA9ISQV49HW1", "dateTime": 1519151467110}, {"current_trial": 217, "trialdata": {"rt": -1, "trial_type": "single-stim", "word": "scissors", "stimulus": "<p id=\"stim\">SCISSORS</p>", "conditions": [24, 800, "v", 12000], "internal_node_id": "0.0-163.0", "trial": 5, "time_elapsed": 926560, "serialpos": 20, "key_press": -1, "wordID": 1249, "type": "PRES_VIS", "trial_index": 217}, "uniqueid": "MTK2606:30BXRYBRP548ZUST0DZA9ISQV49HW1", "dateTime": 1519151468979}, {"current_trial": 218, "trialdata": {"rt": -1, "trial_type": "single-stim", "word": "scalpel", "stimulus": "<p id=\"stim\">SCALPEL</p>", "conditions": [24, 800, "v", 12000], "internal_node_id": "0.0-164.0", "trial": 5, "time_elapsed": 928371, "serialpos": 21, "key_press": -1, "wordID": 1242, "type": "PRES_VIS", "trial_index": 218}, "uniqueid": "MTK2606:30BXRYBRP548ZUST0DZA9ISQV49HW1", "dateTime": 1519151470790}, {"current_trial": 219, "trialdata": {"rt": -1, "trial_type": "single-stim", "word": "crib", "stimulus": "<p id=\"stim\">CRIB</p>", "conditions": [24, 800, "v", 12000], "internal_node_id": "0.0-165.0", "trial": 5, "time_elapsed": 930095, "serialpos": 22, "key_press": -1, "wordID": 406, "type": "PRES_VIS", "trial_index": 219}, "uniqueid": "MTK2606:30BXRYBRP548ZUST0DZA9ISQV49HW1", "dateTime": 1519151472514}, {"current_trial": 220, "trialdata": {"rt": -1, "trial_type": "single-stim", "word": "tweezers", "stimulus": "<p id=\"stim\">TWEEZERS</p>", "conditions": [24, 800, "v", 12000], "internal_node_id": "0.0-166.0", "trial": 5, "time_elapsed": 931750, "serialpos": 23, "key_press": -1, "wordID": 1525, "type": "PRES_VIS", "trial_index": 220}, "uniqueid": "MTK2606:30BXRYBRP548ZUST0DZA9ISQV49HW1", "dateTime": 1519151474169}, {"current_trial": 221, "trialdata": {"rt": -1, "trial_type": "single-stim", "stimulus": "", "internal_node_id": "0.0-167.0-0.0", "time_elapsed": 934176, "key_press": -1, "type": "PRE_RECALL_DELAY", "trial_index": 221}, "uniqueid": "MTK2606:30BXRYBRP548ZUST0DZA9ISQV49HW1", "dateTime": 1519151476595}, {"current_trial": 222, "trialdata": {"rt": -1000, "trial_type": "single-audio", "stimulus": "/static/audio/400Hz.wav", "internal_node_id": "0.0-168.0", "time_elapsed": 934678, "key_press": -1, "type": "PRE_RECALL_ALERT", "trial_index": 222}, "uniqueid": "MTK2606:30BXRYBRP548ZUST0DZA9ISQV49HW1", "dateTime": 1519151477097}, {"current_trial": 223, "trialdata": {"rt": [2010, 4367, 6784, 8157, 24768, 43334], "recwords": ["crib", "scissors", "waitress", "custard", "restaurant", "crisp"], "key_times": [1183, 1436, 1615, 1802, 2010, 2883, 3015, 3248, 3468, 3620, 3753, 3881, 4159, 4367, 5235, 5375, 5628, 5766, 6042, 6182, 6491, 6660, 6784, 6946, 7117, 7268, 7444, 7622, 7734, 7913, 8157, 21466, 21593, 22152, 23048, 23252, 23904, 24066, 24304, 24436, 24587, 24768, 42350, 42610, 42773, 42946, 43065, 43334], "trial_type": "free-recall", "conditions": [24, 800, "v", 12000], "internal_node_id": "0.0-169.0-0.0", "key_presses": [67, 82, 73, 66, 13, 83, 67, 73, 83, 83, 79, 82, 83, 13, 87, 65, 73, 84, 82, 69, 83, 83, 13, 67, 85, 83, 84, 65, 82, 68, 13, 82, 69, 83, 84, 65, 85, 82, 65, 78, 84, 13, 67, 82, 73, 83, 80, 13], "trial": 5, "time_elapsed": 994686, "type": "FREE_RECALL", "trial_index": 223}, "uniqueid": "MTK2606:30BXRYBRP548ZUST0DZA9ISQV49HW1", "dateTime": 1519151537107}, {"current_trial": 224, "trialdata": {"rt": 13865, "trial_type": "text", "internal_node_id": "0.0-170.0", "time_elapsed": 1010557, "key_press": 13, "type": "INSTRUCTIONS", "trial_index": 224}, "uniqueid": "MTK2606:30BXRYBRP548ZUST0DZA9ISQV49HW1", "dateTime": 1519151552976}, {"current_trial": 225, "trialdata": {"rt": [2418, 6157, 11196, 13797, 15689, 18587, 21101], "trial_type": "math-distractor", "key_times": [2262, 2418, 5707, 5857, 6157, 10911, 11055, 11196, 13323, 13451, 13797, 15284, 15473, 15689, 18175, 18303, 18587, 20740, 20906, 21101], "responses": ["7", "18", "22", "15", "14", "18", "11"], "num2": [1, 8, 6, 9, 2, 4, 3, 2], "num3": [3, 4, 7, 5, 8, 6, 2, 6], "conditions": [12, 800, "v", 24000], "internal_node_id": "0.0-171.0", "key_presses": [55, 13, 49, 56, 13, 50, 50, 13, 49, 53, 13, 49, 52, 13, 49, 56, 13, 49, 49, 13], "trial": 6, "time_elapsed": 1036568, "type": "DISTRACTOR", "trial_index": 225, "num1": [3, 6, 9, 1, 4, 8, 6, 7]}, "uniqueid": "MTK2606:30BXRYBRP548ZUST0DZA9ISQV49HW1", "dateTime": 1519151578987}, {"current_trial": 226, "trialdata": {"rt": -1, "trial_type": "single-stim", "stimulus": "<p id=\"stim\">10</p>", "internal_node_id": "0.0-172.0-0.0", "time_elapsed": 1039572, "key_press": -1, "trial_index": 226}, "uniqueid": "MTK2606:30BXRYBRP548ZUST0DZA9ISQV49HW1", "dateTime": 1519151581991}, {"current_trial": 227, "trialdata": {"rt": -1, "trial_type": "single-stim", "stimulus": "<p id=\"stim\">9</p>", "internal_node_id": "0.0-172.0-1.0", "time_elapsed": 1040574, "key_press": -1, "trial_index": 227}, "uniqueid": "MTK2606:30BXRYBRP548ZUST0DZA9ISQV49HW1", "dateTime": 1519151582993}, {"current_trial": 228, "trialdata": {"rt": -1, "trial_type": "single-stim", "stimulus": "<p id=\"stim\">8</p>", "internal_node_id": "0.0-172.0-2.0", "time_elapsed": 1041578, "key_press": -1, "trial_index": 228}, "uniqueid": "MTK2606:30BXRYBRP548ZUST0DZA9ISQV49HW1", "dateTime": 1519151583997}, {"current_trial": 229, "trialdata": {"rt": -1, "trial_type": "single-stim", "stimulus": "<p id=\"stim\">7</p>", "internal_node_id": "0.0-172.0-3.0", "time_elapsed": 1042582, "key_press": -1, "trial_index": 229}, "uniqueid": "MTK2606:30BXRYBRP548ZUST0DZA9ISQV49HW1", "dateTime": 1519151585001}, {"current_trial": 230, "trialdata": {"rt": -1, "trial_type": "single-stim", "stimulus": "<p id=\"stim\">6</p>", "internal_node_id": "0.0-172.0-4.0", "time_elapsed": 1043583, "key_press": -1, "trial_index": 230}, "uniqueid": "MTK2606:30BXRYBRP548ZUST0DZA9ISQV49HW1", "dateTime": 1519151586002}, {"current_trial": 231, "trialdata": {"rt": -1, "trial_type": "single-stim", "stimulus": "<p id=\"stim\">5</p>", "internal_node_id": "0.0-172.0-5.0", "time_elapsed": 1044587, "key_press": -1, "trial_index": 231}, "uniqueid": "MTK2606:30BXRYBRP548ZUST0DZA9ISQV49HW1", "dateTime": 1519151587006}, {"current_trial": 232, "trialdata": {"rt": -1, "trial_type": "single-stim", "stimulus": "<p id=\"stim\">4</p>", "internal_node_id": "0.0-172.0-6.0", "time_elapsed": 1045589, "key_press": -1, "trial_index": 232}, "uniqueid": "MTK2606:30BXRYBRP548ZUST0DZA9ISQV49HW1", "dateTime": 1519151588008}, {"current_trial": 233, "trialdata": {"rt": -1, "trial_type": "single-stim", "stimulus": "<p id=\"stim\">3</p>", "internal_node_id": "0.0-172.0-7.0", "time_elapsed": 1046593, "key_press": -1, "trial_index": 233}, "uniqueid": "MTK2606:30BXRYBRP548ZUST0DZA9ISQV49HW1", "dateTime": 1519151589013}, {"current_trial": 234, "trialdata": {"rt": -1, "trial_type": "single-stim", "stimulus": "<p id=\"stim\">2</p>", "internal_node_id": "0.0-172.0-8.0", "time_elapsed": 1047598, "key_press": -1, "trial_index": 234}, "uniqueid": "MTK2606:30BXRYBRP548ZUST0DZA9ISQV49HW1", "dateTime": 1519151590017}, {"current_trial": 235, "trialdata": {"rt": -1, "trial_type": "single-stim", "stimulus": "<p id=\"stim\">1</p>", "internal_node_id": "0.0-172.0-9.0", "time_elapsed": 1048601, "key_press": -1, "trial_index": 235}, "uniqueid": "MTK2606:30BXRYBRP548ZUST0DZA9ISQV49HW1", "dateTime": 1519151591020}, {"current_trial": 236, "trialdata": {"rt": -1, "trial_type": "single-stim", "stimulus": "<p id=\"stim\">+</p>", "internal_node_id": "0.0-173.0-0.0", "time_elapsed": 1050104, "key_press": -1, "type": "FIXATION", "trial_index": 236}, "uniqueid": "MTK2606:30BXRYBRP548ZUST0DZA9ISQV49HW1", "dateTime": 1519151592523}, {"current_trial": 237, "trialdata": {"rt": -1, "trial_type": "single-stim", "word": "spider", "stimulus": "<p id=\"stim\">SPIDER</p>", "conditions": [12, 800, "v", 24000], "internal_node_id": "0.0-174.0", "trial": 6, "time_elapsed": 1050907, "serialpos": 0, "key_press": -1, "wordID": 1350, "type": "PRES_VIS", "trial_index": 237}, "uniqueid": "MTK2606:30BXRYBRP548ZUST0DZA9ISQV49HW1", "dateTime": 1519151593326}, {"current_trial": 238, "trialdata": {"rt": -1, "trial_type": "single-stim", "word": "snake", "stimulus": "<p id=\"stim\">SNAKE</p>", "conditions": [12, 800, "v", 24000], "internal_node_id": "0.0-175.0", "trial": 6, "time_elapsed": 1052584, "serialpos": 1, "key_press": -1, "wordID": 1332, "type": "PRES_VIS", "trial_index": 238}, "uniqueid": "MTK2606:30BXRYBRP548ZUST0DZA9ISQV49HW1", "dateTime": 1519151595003}, {"current_trial": 239, "trialdata": {"rt": -1, "trial_type": "single-stim", "word": "backbone", "stimulus": "<p id=\"stim\">BACKBONE</p>", "conditions": [12, 800, "v", 24000], "internal_node_id": "0.0-176.0", "trial": 6, "time_elapsed": 1054343, "serialpos": 2, "key_press": -1, "wordID": 65, "type": "PRES_VIS", "trial_index": 239}, "uniqueid": "MTK2606:30BXRYBRP548ZUST0DZA9ISQV49HW1", "dateTime": 1519151596762}, {"current_trial": 240, "trialdata": {"rt": -1, "trial_type": "single-stim", "word": "missile", "stimulus": "<p id=\"stim\">MISSILE</p>", "conditions": [12, 800, "v", 24000], "internal_node_id": "0.0-177.0", "trial": 6, "time_elapsed": 1056251, "serialpos": 3, "key_press": -1, "wordID": 899, "type": "PRES_VIS", "trial_index": 240}, "uniqueid": "MTK2606:30BXRYBRP548ZUST0DZA9ISQV49HW1", "dateTime": 1519151598670}, {"current_trial": 241, "trialdata": {"rt": -1, "trial_type": "single-stim", "word": "cashew", "stimulus": "<p id=\"stim\">CASHEW</p>", "conditions": [12, 800, "v", 24000], "internal_node_id": "0.0-178.0", "trial": 6, "time_elapsed": 1058051, "serialpos": 4, "key_press": -1, "wordID": 252, "type": "PRES_VIS", "trial_index": 241}, "uniqueid": "MTK2606:30BXRYBRP548ZUST0DZA9ISQV49HW1", "dateTime": 1519151600470}, {"current_trial": 242, "trialdata": {"rt": -1, "trial_type": "single-stim", "word": "pigment", "stimulus": "<p id=\"stim\">PIGMENT</p>", "conditions": [12, 800, "v", 24000], "internal_node_id": "0.0-179.0", "trial": 6, "time_elapsed": 1059684, "serialpos": 5, "key_press": -1, "wordID": 1065, "type": "PRES_VIS", "trial_index": 242}, "uniqueid": "MTK2606:30BXRYBRP548ZUST0DZA9ISQV49HW1", "dateTime": 1519151602103}, {"current_trial": 243, "trialdata": {"rt": -1, "trial_type": "single-stim", "word": "rocket", "stimulus": "<p id=\"stim\">ROCKET</p>", "conditions": [12, 800, "v", 24000], "internal_node_id": "0.0-180.0", "trial": 6, "time_elapsed": 1061577, "serialpos": 6, "key_press": -1, "wordID": 1201, "type": "PRES_VIS", "trial_index": 243}, "uniqueid": "MTK2606:30BXRYBRP548ZUST0DZA9ISQV49HW1", "dateTime": 1519151603996}, {"current_trial": 244, "trialdata": {"rt": -1, "trial_type": "single-stim", "word": "clock", "stimulus": "<p id=\"stim\">CLOCK</p>", "conditions": [12, 800, "v", 24000], "internal_node_id": "0.0-181.0", "trial": 6, "time_elapsed": 1063521, "serialpos": 7, "key_press": -1, "wordID": 324, "type": "PRES_VIS", "trial_index": 244}, "uniqueid": "MTK2606:30BXRYBRP548ZUST0DZA9ISQV49HW1", "dateTime": 1519151605940}, {"current_trial": 245, "trialdata": {"rt": -1, "trial_type": "single-stim", "word": "xerox", "stimulus": "<p id=\"stim\">XEROX</p>", "conditions": [12, 800, "v", 24000], "internal_node_id": "0.0-182.0", "trial": 6, "time_elapsed": 1065455, "serialpos": 8, "key_press": -1, "wordID": 1627, "type": "PRES_VIS", "trial_index": 245}, "uniqueid": "MTK2606:30BXRYBRP548ZUST0DZA9ISQV49HW1", "dateTime": 1519151607874}, {"current_trial": 246, "trialdata": {"rt": -1, "trial_type": "single-stim", "word": "tuba", "stimulus": "<p id=\"stim\">TUBA</p>", "conditions": [12, 800, "v", 24000], "internal_node_id": "0.0-183.0", "trial": 6, "time_elapsed": 1067394, "serialpos": 9, "key_press": -1, "wordID": 1514, "type": "PRES_VIS", "trial_index": 246}, "uniqueid": "MTK2606:30BXRYBRP548ZUST0DZA9ISQV49HW1", "dateTime": 1519151609813}, {"current_trial": 247, "trialdata": {"rt": -1, "trial_type": "single-stim", "word": "blockade", "stimulus": "<p id=\"stim\">BLOCKADE</p>", "conditions": [12, 800, "v", 24000], "internal_node_id": "0.0-184.0", "trial": 6, "time_elapsed": 1069239, "serialpos": 10, "key_press": -1, "wordID": 136, "type": "PRES_VIS", "trial_index": 247}, "uniqueid": "MTK2606:30BXRYBRP548ZUST0DZA9ISQV49HW1", "dateTime": 1519151611659}, {"current_trial": 248, "trialdata": {"rt": -1, "trial_type": "single-stim", "word": "lunch", "stimulus": "<p id=\"stim\">LUNCH</p>", "conditions": [12, 800, "v", 24000], "internal_node_id": "0.0-185.0", "trial": 6, "time_elapsed": 1071078, "serialpos": 11, "key_press": -1, "wordID": 848, "type": "PRES_VIS", "trial_index": 248}, "uniqueid": "MTK2606:30BXRYBRP548ZUST0DZA9ISQV49HW1", "dateTime": 1519151613497}, {"current_trial": 249, "trialdata": {"rt": -1, "trial_type": "single-stim", "stimulus": "", "internal_node_id": "0.0-186.0-0.0", "time_elapsed": 1073367, "key_press": -1, "type": "PRE_RECALL_DELAY", "trial_index": 249}, "uniqueid": "MTK2606:30BXRYBRP548ZUST0DZA9ISQV49HW1", "dateTime": 1519151615786}, {"current_trial": 250, "trialdata": {"rt": -1000, "trial_type": "single-audio", "stimulus": "/static/audio/400Hz.wav", "internal_node_id": "0.0-187.0", "time_elapsed": 1073868, "key_press": -1, "type": "PRE_RECALL_ALERT", "trial_index": 250}, "uniqueid": "MTK2606:30BXRYBRP548ZUST0DZA9ISQV49HW1", "dateTime": 1519151616287}, {"current_trial": 251, "trialdata": {"rt": [5521, 7330, 9276, 11070, 14698, 16113], "recwords": ["blockade", "missel", "rocket", "clock", "spider", "snake"], "key_times": [1827, 1979, 2170, 2333, 2473, 2706, 2866, 3726, 3887, 4038, 4732, 4967, 5075, 5287, 5521, 6132, 6227, 6387, 6540, 6762, 6909, 7330, 8252, 8415, 8590, 8714, 8881, 9033, 9276, 10031, 10265, 10457, 10618, 10800, 11070, 13725, 13895, 14023, 14271, 14366, 14543, 14698, 15305, 15466, 15587, 15735, 15876, 16113], "trial_type": "free-recall", "conditions": [12, 800, "v", 24000], "internal_node_id": "0.0-188.0-0.0", "key_presses": [66, 76, 79, 67, 65, 68, 69, 8, 8, 8, 75, 65, 68, 69, 13, 77, 73, 83, 83, 69, 76, 13, 82, 79, 67, 75, 69, 84, 13, 67, 76, 79, 67, 75, 13, 83, 80, 73, 68, 69, 82, 13, 83, 78, 65, 75, 69, 13], "trial": 6, "time_elapsed": 1133874, "type": "FREE_RECALL", "trial_index": 251}, "uniqueid": "MTK2606:30BXRYBRP548ZUST0DZA9ISQV49HW1", "dateTime": 1519151676296}, {"current_trial": 252, "trialdata": {"rt": 623, "trial_type": "text", "internal_node_id": "0.0-189.0", "time_elapsed": 1136506, "key_press": 13, "type": "INSTRUCTIONS", "trial_index": 252}, "uniqueid": "MTK2606:30BXRYBRP548ZUST0DZA9ISQV49HW1", "dateTime": 1519151678925}, {"current_trial": 253, "trialdata": {"rt": [5699, 8115, 10185], "trial_type": "math-distractor", "key_times": [4913, 5323, 5699, 7785, 7884, 8115, 9961, 10185, 11978], "responses": ["20", "12", "5"], "num2": [6, 2, 3, 2], "num3": [9, 3, 1, 3], "conditions": [12, 1600, "v", 12000], "internal_node_id": "0.0-190.0", "key_presses": [50, 48, 13, 49, 50, 13, 53, 13, 54], "trial": 7, "time_elapsed": 1150509, "type": "DISTRACTOR", "trial_index": 253, "num1": [5, 6, 1, 1]}, "uniqueid": "MTK2606:30BXRYBRP548ZUST0DZA9ISQV49HW1", "dateTime": 1519151692929}, {"current_trial": 254, "trialdata": {"rt": -1, "trial_type": "single-stim", "stimulus": "<p id=\"stim\">10</p>", "internal_node_id": "0.0-191.0-0.0", "time_elapsed": 1153513, "key_press": -1, "trial_index": 254}, "uniqueid": "MTK2606:30BXRYBRP548ZUST0DZA9ISQV49HW1", "dateTime": 1519151695932}, {"curre