{"assignmentId": "3QUO65DNQVV5Z7PB9QFZB34UNKQOUW", "workerId": "MTK2853", "questiondata": {"origin": "United States", "strat-rehearsal": "1", "marital": "Single", "education": "High school diploma", "ethnicity": "Not Hispanic", "color_depth": 24, "distracted": "No", "wrote-notes": "No", "strat-other": "I mainly just did what was asked. To only focus on the current word being said. I believe this hurt my recall but I did it anyway to follow directions.", "screen_width": 1920, "avail_screen_width": 1920, "avail_screen_height": 1080, "strat-image": "95", "language": "english", "gender": "Male", "age": "31", "gender_other": "", "race": ["White"], "strat-categorize": "11", "pixel_depth": 24, "strat-spatial": "0", "strat-story": "0", "race_other": "", "screen_height": 1080}, "bonus": 0, "hitId": "3BCRDCM0OD1ZKLG1PEK1ZWDLFGQ6KY", "counterbalance": 2552, "useragent": "Mozilla/5.0 (Windows NT 10.0; Win64; x64) AppleWebKit/537.36 (KHTML, like Gecko) Chrome/63.0.3239.132 Safari/537.36", "eventdata": [{"eventtype": "initialized", "interval": 0, "value": null, "timestamp": 1519414045741}, {"eventtype": "window_resize", "interval": 0, "value": [1920, 1029], "timestamp": 1519414045741}, {"eventtype": "focus", "interval": 2855, "value": "off", "timestamp": 1519414048596}, {"eventtype": "focus", "interval": 5400, "value": "on", "timestamp": 1519414053996}, {"eventtype": "focus", "interval": 1613, "value": "off", "timestamp": 1519414055609}, {"eventtype": "focus", "interval": 24, "value": "on", "timestamp": 1519414055633}, {"eventtype": "window_resize", "interval": 218, "value": [1920, 1014], "timestamp": 1519414055851}, {"eventtype": "focus", "interval": 1964, "value": "off", "timestamp": 1519414057815}, {"eventtype": "focus", "interval": 1215, "value": "on", "timestamp": 1519414059030}, {"eventtype": "focus", "interval": 19838, "value": "off", "timestamp": 1519414078868}, {"eventtype": "focus", "interval": 70323, "value": "on", "timestamp": 1519414149191}, {"eventtype": "focus", "interval": 17175, "value": "off", "timestamp": 1519414166366}, {"eventtype": "focus", "interval": 7955, "value": "on", "timestamp": 1519414174321}, {"eventtype": "focus", "interval": 6051, "value": "off", "timestamp": 1519414180372}, {"eventtype": "focus", "interval": 1097, "value": "on", "timestamp": 1519414181469}, {"eventtype": "focus", "interval": 104592, "value": "off", "timestamp": 1519414286061}, {"eventtype": "focus", "interval": 44420, "value": "on", "timestamp": 1519414330481}, {"eventtype": "focus", "interval": 196964, "value": "off", "timestamp": 1519414527445}, {"eventtype": "focus", "interval": 931, "value": "on", "timestamp": 1519414528376}, {"eventtype": "focus", "interval": 22058, "value": "off", "timestamp": 1519414550434}, {"eventtype": "focus", "interval": 19950, "value": "on", "timestamp": 1519414570384}, {"eventtype": "focus", "interval": 438109, "value": "off", "timestamp": 1519415008493}, {"eventtype": "focus", "interval": 6660, "value": "on", "timestamp": 1519415015153}, {"eventtype": "focus", "interval": 540296, "value": "off", "timestamp": 1519415555449}, {"eventtype": "focus", "interval": 7030, "value": "on", "timestamp": 1519415562479}, {"eventtype": "focus", "interval": 276905, "value": "off", "timestamp": 1519415839384}, {"eventtype": "focus", "interval": 9651, "value": "on", "timestamp": 1519415849035}, {"eventtype": "focus", "interval": 622389, "value": "off", "timestamp": 1519416471424}, {"eventtype": "focus", "interval": 5727, "value": "on", "timestamp": 1519416477151}, {"eventtype": "focus", "interval": 47854, "value": "off", "timestamp": 1519416525005}, {"eventtype": "focus", "interval": 5840, "value": "on", "timestamp": 1519416530845}, {"eventtype": "focus", "interval": 92477, "value": "off", "timestamp": 1519416623322}, {"eventtype": "focus", "interval": 15633, "value": "on", "timestamp": 1519416638955}], "data": [{"current_trial": 0, "trialdata": {"rt": 3046, "trial_type": "text", "internal_node_id": "0.0-0.0", "time_elapsed": 3046, "key_press": 32, "type": "INSTRUCTIONS", "trial_index": 0}, "uniqueid": "MTK2853:3QUO65DNQVV5Z7PB9QFZB34UNKQOUW", "dateTime": 1519414060923}, {"current_trial": 1, "trialdata": {"rt": 91290, "trial_type": "text", "internal_node_id": "0.0-1.0", "time_elapsed": 94337, "key_press": 13, "type": "INSTRUCTIONS", "trial_index": 1}, "uniqueid": "MTK2853:3QUO65DNQVV5Z7PB9QFZB34UNKQOUW", "dateTime": 1519414152213}, {"current_trial": 2, "trialdata": {"rt": [9391], "trial_type": "audio-test", "responses": ["ocean"], "internal_node_id": "0.0-2.0", "time_elapsed": 103735, "type": "AUDIO_TEST", "trial_index": 2}, "uniqueid": "MTK2853:3QUO65DNQVV5Z7PB9QFZB34UNKQOUW", "dateTime": 1519414161611}, {"current_trial": 3, "trialdata": {"rt": [16017], "trial_type": "audio-test", "responses": ["crystal"], "internal_node_id": "0.0-3.0", "time_elapsed": 119756, "type": "AUDIO_TEST", "trial_index": 3}, "uniqueid": "MTK2853:3QUO65DNQVV5Z7PB9QFZB34UNKQOUW", "dateTime": 1519414177632}, {"current_trial": 4, "trialdata": {"rt": [9744], "trial_type": "audio-test", "responses": ["spice"], "internal_node_id": "0.0-4.0", "time_elapsed": 129504, "type": "AUDIO_TEST", "trial_index": 4}, "uniqueid": "MTK2853:3QUO65DNQVV5Z7PB9QFZB34UNKQOUW", "dateTime": 1519414187380}, {"current_trial": 5, "trialdata": {"rt": 40825, "trial_type": "survey-text", "responses": "{\"Q0\":\"7:00 pm\",\"Q1\":\"7:00 am\",\"Q2\":\"3\"}", "internal_node_id": "0.0-5.0", "time_elapsed": 171080, "type": "SLEEP_SURVEY", "trial_index": 5}, "uniqueid": "MTK2853:3QUO65DNQVV5Z7PB9QFZB34UNKQOUW", "dateTime": 1519414228956}, {"current_trial": 6, "trialdata": {"rt": 102164, "trial_type": "text", "internal_node_id": "0.0-6.0", "time_elapsed": 274247, "key_press": 13, "type": "INSTRUCTIONS", "trial_index": 6}, "uniqueid": "MTK2853:3QUO65DNQVV5Z7PB9QFZB34UNKQOUW", "dateTime": 1519414332123}, {"current_trial": 7, "trialdata": {"rt": 15028, "trial_type": "text", "internal_node_id": "0.0-7.0", "time_elapsed": 289776, "key_press": 13, "type": "INSTRUCTIONS", "trial_index": 7}, "uniqueid": "MTK2853:3QUO65DNQVV5Z7PB9QFZB34UNKQOUW", "dateTime": 1519414347652}, {"current_trial": 8, "trialdata": {"rt": 8983, "trial_type": "text", "internal_node_id": "0.0-8.0", "time_elapsed": 299260, "key_press": 13, "type": "INSTRUCTIONS", "trial_index": 8}, "uniqueid": "MTK2853:3QUO65DNQVV5Z7PB9QFZB34UNKQOUW", "dateTime": 1519414357136}, {"current_trial": 9, "trialdata": {"rt": [3813, 7209, 11786, 15184, 17244], "trial_type": "math-distractor", "key_times": [3535, 3603, 3813, 6940, 7009, 7209, 11544, 11646, 11786, 14883, 15073, 15184, 16963, 17134, 17244], "responses": ["19", "13", "15", "14", "14"], "num2": [8, 7, 8, 5, 2, 5], "num3": [3, 1, 7, 8, 6, 5], "conditions": [18, 1200, "a", 18000], "internal_node_id": "0.0-9.0", "key_presses": [97, 105, 13, 97, 99, 13, 97, 101, 13, 97, 100, 13, 97, 100, 13], "trial": 0, "time_elapsed": 318267, "type": "DISTRACTOR", "trial_index": 9, "num1": [8, 5, 9, 1, 6, 2]}, "uniqueid": "MTK2853:3QUO65DNQVV5Z7PB9QFZB34UNKQOUW", "dateTime": 1519414376143}, {"current_trial": 10, "trialdata": {"rt": -1, "trial_type": "single-stim", "stimulus": "<p id=\"stim\">10</p>", "internal_node_id": "0.0-10.0-0.0", "time_elapsed": 321270, "key_press": -1, "trial_index": 10}, "uniqueid": "MTK2853:3QUO65DNQVV5Z7PB9QFZB34UNKQOUW", "dateTime": 1519414379146}, {"current_trial": 11, "trialdata": {"rt": -1, "trial_type": "single-stim", "stimulus": "<p id=\"stim\">9</p>", "internal_node_id": "0.0-10.0-1.0", "time_elapsed": 322272, "key_press": -1, "trial_index": 11}, "uniqueid": "MTK2853:3QUO65DNQVV5Z7PB9QFZB34UNKQOUW", "dateTime": 1519414380148}, {"current_trial": 12, "trialdata": {"rt": -1, "trial_type": "single-stim", "stimulus": "<p id=\"stim\">8</p>", "internal_node_id": "0.0-10.0-2.0", "time_elapsed": 323273, "key_press": -1, "trial_index": 12}, "uniqueid": "MTK2853:3QUO65DNQVV5Z7PB9QFZB34UNKQOUW", "dateTime": 1519414381150}, {"current_trial": 13, "trialdata": {"rt": -1, "trial_type": "single-stim", "stimulus": "<p id=\"stim\">7</p>", "internal_node_id": "0.0-10.0-3.0", "time_elapsed": 324275, "key_press": -1, "trial_index": 13}, "uniqueid": "MTK2853:3QUO65DNQVV5Z7PB9QFZB34UNKQOUW", "dateTime": 1519414382152}, {"current_trial": 14, "trialdata": {"rt": -1, "trial_type": "single-stim", "stimulus": "<p id=\"stim\">6</p>", "internal_node_id": "0.0-10.0-4.0", "time_elapsed": 325277, "key_press": -1, "trial_index": 14}, "uniqueid": "MTK2853:3QUO65DNQVV5Z7PB9QFZB34UNKQOUW", "dateTime": 1519414383153}, {"current_trial": 15, "trialdata": {"rt": -1, "trial_type": "single-stim", "stimulus": "<p id=\"stim\">5</p>", "internal_node_id": "0.0-10.0-5.0", "time_elapsed": 326278, "key_press": -1, "trial_index": 15}, "uniqueid": "MTK2853:3QUO65DNQVV5Z7PB9QFZB34UNKQOUW", "dateTime": 1519414384154}, {"current_trial": 16, "trialdata": {"rt": -1, "trial_type": "single-stim", "stimulus": "<p id=\"stim\">4</p>", "internal_node_id": "0.0-10.0-6.0", "time_elapsed": 327279, "key_press": -1, "trial_index": 16}, "uniqueid": "MTK2853:3QUO65DNQVV5Z7PB9QFZB34UNKQOUW", "dateTime": 1519414385155}, {"current_trial": 17, "trialdata": {"rt": -1, "trial_type": "single-stim", "stimulus": "<p id=\"stim\">3</p>", "internal_node_id": "0.0-10.0-7.0", "time_elapsed": 328280, "key_press": -1, "trial_index": 17}, "uniqueid": "MTK2853:3QUO65DNQVV5Z7PB9QFZB34UNKQOUW", "dateTime": 1519414386156}, {"current_trial": 18, "trialdata": {"rt": -1, "trial_type": "single-stim", "stimulus": "<p id=\"stim\">2</p>", "internal_node_id": "0.0-10.0-8.0", "time_elapsed": 329282, "key_press": -1, "trial_index": 18}, "uniqueid": "MTK2853:3QUO65DNQVV5Z7PB9QFZB34UNKQOUW", "dateTime": 1519414387158}, {"current_trial": 19, "trialdata": {"rt": -1, "trial_type": "single-stim", "stimulus": "<p id=\"stim\">1</p>", "internal_node_id": "0.0-10.0-9.0", "time_elapsed": 330282, "key_press": -1, "trial_index": 19}, "uniqueid": "MTK2853:3QUO65DNQVV5Z7PB9QFZB34UNKQOUW", "dateTime": 1519414388159}, {"current_trial": 20, "trialdata": {"rt": -1, "trial_type": "single-stim", "stimulus": "<p id=\"stim\">+</p>", "internal_node_id": "0.0-11.0-0.0", "time_elapsed": 331783, "key_press": -1, "type": "FIXATION", "trial_index": 20}, "uniqueid": "MTK2853:3QUO65DNQVV5Z7PB9QFZB34UNKQOUW", "dateTime": 1519414389660}, {"current_trial": 21, "trialdata": {"rt": -1000, "trial_type": "single-audio", "word": "turnip", "stimulus": "/static/audio/wordpool/TURNIP.wav", "conditions": [18, 1200, "a", 18000], "internal_node_id": "0.0-12.0", "trial": 0, "time_elapsed": 334109, "serialpos": 0, "key_press": -1, "wordID": 1520, "type": "PRES_AUD", "trial_index": 21}, "uniqueid": "MTK2853:3QUO65DNQVV5Z7PB9QFZB34UNKQOUW", "dateTime": 1519414391985}, {"current_trial": 22, "trialdata": {"rt": -1000, "trial_type": "single-audio", "word": "garden", "stimulus": "/static/audio/wordpool/GARDEN.wav", "conditions": [18, 1200, "a", 18000], "internal_node_id": "0.0-13.0", "trial": 0, "time_elapsed": 336265, "serialpos": 1, "key_press": -1, "wordID": 622, "type": "PRES_AUD", "trial_index": 22}, "uniqueid": "MTK2853:3QUO65DNQVV5Z7PB9QFZB34UNKQOUW", "dateTime": 1519414394141}, {"current_trial": 23, "trialdata": {"rt": -1000, "trial_type": "single-audio", "word": "box", "stimulus": "/static/audio/wordpool/BOX.wav", "conditions": [18, 1200, "a", 18000], "internal_node_id": "0.0-14.0", "trial": 0, "time_elapsed": 338406, "serialpos": 2, "key_press": -1, "wordID": 158, "type": "PRES_AUD", "trial_index": 23}, "uniqueid": "MTK2853:3QUO65DNQVV5Z7PB9QFZB34UNKQOUW", "dateTime": 1519414396282}, {"current_trial": 24, "trialdata": {"rt": -1000, "trial_type": "single-audio", "word": "pigeon", "stimulus": "/static/audio/wordpool/PIGEON.wav", "conditions": [18, 1200, "a", 18000], "internal_node_id": "0.0-15.0", "trial": 0, "time_elapsed": 340537, "serialpos": 3, "key_press": -1, "wordID": 1064, "type": "PRES_AUD", "trial_index": 24}, "uniqueid": "MTK2853:3QUO65DNQVV5Z7PB9QFZB34UNKQOUW", "dateTime": 1519414398413}, {"current_trial": 25, "trialdata": {"rt": -1000, "trial_type": "single-audio", "word": "shelf", "stimulus": "/static/audio/wordpool/SHELF.wav", "conditions": [18, 1200, "a", 18000], "internal_node_id": "0.0-16.0", "trial": 0, "time_elapsed": 342873, "serialpos": 4, "key_press": -1, "wordID": 1279, "type": "PRES_AUD", "trial_index": 25}, "uniqueid": "MTK2853:3QUO65DNQVV5Z7PB9QFZB34UNKQOUW", "dateTime": 1519414400749}, {"current_trial": 26, "trialdata": {"rt": -1000, "trial_type": "single-audio", "word": "market", "stimulus": "/static/audio/wordpool/MARKET.wav", "conditions": [18, 1200, "a", 18000], "internal_node_id": "0.0-17.0", "trial": 0, "time_elapsed": 345075, "serialpos": 5, "key_press": -1, "wordID": 870, "type": "PRES_AUD", "trial_index": 26}, "uniqueid": "MTK2853:3QUO65DNQVV5Z7PB9QFZB34UNKQOUW", "dateTime": 1519414402951}, {"current_trial": 27, "trialdata": {"rt": -1000, "trial_type": "single-audio", "word": "antler", "stimulus": "/static/audio/wordpool/ANTLER.wav", "conditions": [18, 1200, "a", 18000], "internal_node_id": "0.0-18.0", "trial": 0, "time_elapsed": 347078, "serialpos": 6, "key_press": -1, "wordID": 28, "type": "PRES_AUD", "trial_index": 27}, "uniqueid": "MTK2853:3QUO65DNQVV5Z7PB9QFZB34UNKQOUW", "dateTime": 1519414404954}, {"current_trial": 28, "trialdata": {"rt": -1000, "trial_type": "single-audio", "word": "icing", "stimulus": "/static/audio/wordpool/ICING.wav", "conditions": [18, 1200, "a", 18000], "internal_node_id": "0.0-19.0", "trial": 0, "time_elapsed": 349288, "serialpos": 7, "key_press": -1, "wordID": 731, "type": "PRES_AUD", "trial_index": 28}, "uniqueid": "MTK2853:3QUO65DNQVV5Z7PB9QFZB34UNKQOUW", "dateTime": 1519414407164}, {"current_trial": 29, "trialdata": {"rt": -1000, "trial_type": "single-audio", "word": "apron", "stimulus": "/static/audio/wordpool/APRON.wav", "conditions": [18, 1200, "a", 18000], "internal_node_id": "0.0-20.0", "trial": 0, "time_elapsed": 351349, "serialpos": 8, "key_press": -1, "wordID": 34, "type": "PRES_AUD", "trial_index": 29}, "uniqueid": "MTK2853:3QUO65DNQVV5Z7PB9QFZB34UNKQOUW", "dateTime": 1519414409225}, {"current_trial": 30, "trialdata": {"rt": -1000, "trial_type": "single-audio", "word": "hatchet", "stimulus": "/static/audio/wordpool/HATCHET.wav", "conditions": [18, 1200, "a", 18000], "internal_node_id": "0.0-21.0", "trial": 0, "time_elapsed": 353529, "serialpos": 9, "key_press": -1, "wordID": 690, "type": "PRES_AUD", "trial_index": 30}, "uniqueid": "MTK2853:3QUO65DNQVV5Z7PB9QFZB34UNKQOUW", "dateTime": 1519414411405}, {"current_trial": 31, "trialdata": {"rt": -1000, "trial_type": "single-audio", "word": "balloon", "stimulus": "/static/audio/wordpool/BALLOON.wav", "conditions": [18, 1200, "a", 18000], "internal_node_id": "0.0-22.0", "trial": 0, "time_elapsed": 355669, "serialpos": 10, "key_press": -1, "wordID": 74, "type": "PRES_AUD", "trial_index": 31}, "uniqueid": "MTK2853:3QUO65DNQVV5Z7PB9QFZB34UNKQOUW", "dateTime": 1519414413545}, {"current_trial": 32, "trialdata": {"rt": -1000, "trial_type": "single-audio", "word": "banker", "stimulus": "/static/audio/wordpool/BANKER.wav", "conditions": [18, 1200, "a", 18000], "internal_node_id": "0.0-23.0", "trial": 0, "time_elapsed": 357976, "serialpos": 11, "key_press": -1, "wordID": 83, "type": "PRES_AUD", "trial_index": 32}, "uniqueid": "MTK2853:3QUO65DNQVV5Z7PB9QFZB34UNKQOUW", "dateTime": 1519414415853}, {"current_trial": 33, "trialdata": {"rt": -1000, "trial_type": "single-audio", "word": "infant", "stimulus": "/static/audio/wordpool/INFANT.wav", "conditions": [18, 1200, "a", 18000], "internal_node_id": "0.0-24.0", "trial": 0, "time_elapsed": 360151, "serialpos": 12, "key_press": -1, "wordID": 736, "type": "PRES_AUD", "trial_index": 33}, "uniqueid": "MTK2853:3QUO65DNQVV5Z7PB9QFZB34UNKQOUW", "dateTime": 1519414418027}, {"current_trial": 34, "trialdata": {"rt": -1000, "trial_type": "single-audio", "word": "pecan", "stimulus": "/static/audio/wordpool/PECAN.wav", "conditions": [18, 1200, "a", 18000], "internal_node_id": "0.0-25.0", "trial": 0, "time_elapsed": 362391, "serialpos": 13, "key_press": -1, "wordID": 1035, "type": "PRES_AUD", "trial_index": 34}, "uniqueid": "MTK2853:3QUO65DNQVV5Z7PB9QFZB34UNKQOUW", "dateTime": 1519414420267}, {"current_trial": 35, "trialdata": {"rt": -1000, "trial_type": "single-audio", "word": "padding", "stimulus": "/static/audio/wordpool/PADDING.wav", "conditions": [18, 1200, "a", 18000], "internal_node_id": "0.0-26.0", "trial": 0, "time_elapsed": 364406, "serialpos": 14, "key_press": -1, "wordID": 998, "type": "PRES_AUD", "trial_index": 35}, "uniqueid": "MTK2853:3QUO65DNQVV5Z7PB9QFZB34UNKQOUW", "dateTime": 1519414422282}, {"current_trial": 36, "trialdata": {"rt": -1000, "trial_type": "single-audio", "word": "ketchup", "stimulus": "/static/audio/wordpool/KETCHUP.wav", "conditions": [18, 1200, "a", 18000], "internal_node_id": "0.0-27.0", "trial": 0, "time_elapsed": 366558, "serialpos": 15, "key_press": -1, "wordID": 770, "type": "PRES_AUD", "trial_index": 36}, "uniqueid": "MTK2853:3QUO65DNQVV5Z7PB9QFZB34UNKQOUW", "dateTime": 1519414424435}, {"current_trial": 37, "trialdata": {"rt": -1000, "trial_type": "single-audio", "word": "patient", "stimulus": "/static/audio/wordpool/PATIENT.wav", "conditions": [18, 1200, "a", 18000], "internal_node_id": "0.0-28.0", "trial": 0, "time_elapsed": 368917, "serialpos": 16, "key_press": -1, "wordID": 1023, "type": "PRES_AUD", "trial_index": 37}, "uniqueid": "MTK2853:3QUO65DNQVV5Z7PB9QFZB34UNKQOUW", "dateTime": 1519414426793}, {"current_trial": 38, "trialdata": {"rt": -1000, "trial_type": "single-audio", "word": "pepper", "stimulus": "/static/audio/wordpool/PEPPER.wav", "conditions": [18, 1200, "a", 18000], "internal_node_id": "0.0-29.0", "trial": 0, "time_elapsed": 371247, "serialpos": 17, "key_press": -1, "wordID": 1046, "type": "PRES_AUD", "trial_index": 38}, "uniqueid": "MTK2853:3QUO65DNQVV5Z7PB9QFZB34UNKQOUW", "dateTime": 1519414429123}, {"current_trial": 39, "trialdata": {"rt": -1, "trial_type": "single-stim", "stimulus": "", "internal_node_id": "0.0-30.0-0.0", "time_elapsed": 372613, "key_press": -1, "type": "PRE_RECALL_DELAY", "trial_index": 39}, "uniqueid": "MTK2853:3QUO65DNQVV5Z7PB9QFZB34UNKQOUW", "dateTime": 1519414430489}, {"current_trial": 40, "trialdata": {"rt": -1000, "trial_type": "single-audio", "stimulus": "/static/audio/400Hz.wav", "internal_node_id": "0.0-31.0", "time_elapsed": 373115, "key_press": -1, "type": "PRE_RECALL_ALERT", "trial_index": 40}, "uniqueid": "MTK2853:3QUO65DNQVV5Z7PB9QFZB34UNKQOUW", "dateTime": 1519414430991}, {"current_trial": 41, "trialdata": {"rt": [3225, 4844, 7782, 11293, 13270, 17359, 20466, 55150], "recwords": ["pepper", "padding", "patient", "turnip", "garden", "antler", "ball", ""], "key_times": [1692, 2130, 2335, 2472, 2916, 3018, 3225, 3831, 4069, 4274, 4445, 4564, 4662, 4733, 4844, 5044, 5449, 5618, 5925, 6367, 6472, 6806, 7782, 9162, 9400, 9705, 10143, 10245, 10619, 11293, 11665, 11836, 11904, 12111, 12282, 12399, 13270, 15221, 15459, 15664, 16842, 17011, 17215, 17359, 19878, 20083, 20185, 20325, 20466, 55150], "trial_type": "free-recall", "conditions": [18, 1200, "a", 18000], "internal_node_id": "0.0-32.0-0.0", "key_presses": [80, 69, 80, 80, 69, 82, 13, 80, 65, 68, 68, 73, 78, 71, 13, 80, 65, 84, 73, 69, 78, 84, 13, 84, 85, 82, 78, 73, 80, 13, 71, 65, 82, 68, 69, 78, 13, 65, 78, 84, 76, 69, 82, 13, 66, 65, 76, 76, 13, 13], "trial": 0, "time_elapsed": 433119, "type": "FREE_RECALL", "trial_index": 41}, "uniqueid": "MTK2853:3QUO65DNQVV5Z7PB9QFZB34UNKQOUW", "dateTime": 1519414490996}, {"current_trial": 42, "trialdata": {"rt": 2191, "trial_type": "text", "internal_node_id": "0.0-33.0", "time_elapsed": 437312, "key_press": 13, "type": "INSTRUCTIONS", "trial_index": 42}, "uniqueid": "MTK2853:3QUO65DNQVV5Z7PB9QFZB34UNKQOUW", "dateTime": 1519414495188}, {"current_trial": 43, "trialdata": {"rt": [2887, 5990, 7964, 11268, 13923, 16520], "trial_type": "math-distractor", "key_times": [2539, 2707, 2887, 5675, 5811, 5990, 7721, 7892, 7964, 10993, 11164, 11268, 13188, 13392, 13923, 16277, 16413, 16520], "responses": ["10", "16", "14", "11", "11", "15"], "num2": [2, 3, 6, 5, 2, 3, 8], "num3": [6, 8, 1, 4, 4, 4, 8], "conditions": [18, 1200, "a", 18000], "internal_node_id": "0.0-34.0", "key_presses": [97, 96, 13, 97, 102, 13, 97, 100, 13, 97, 97, 13, 97, 97, 13, 97, 101, 13], "trial": 1, "time_elapsed": 457316, "type": "DISTRACTOR", "trial_index": 43, "num1": [2, 5, 7, 2, 5, 8, 8]}, "uniqueid": "MTK2853:3QUO65DNQVV5Z7PB9QFZB34UNKQOUW", "dateTime": 1519414515192}, {"current_trial": 44, "trialdata": {"rt": -1, "trial_type": "single-stim", "stimulus": "<p id=\"stim\">10</p>", "internal_node_id": "0.0-35.0-0.0", "time_elapsed": 460319, "key_press": -1, "trial_index": 44}, "uniqueid": "MTK2853:3QUO65DNQVV5Z7PB9QFZB34UNKQOUW", "dateTime": 1519414518195}, {"current_trial": 45, "trialdata": {"rt": -1, "trial_type": "single-stim", "stimulus": "<p id=\"stim\">9</p>", "internal_node_id": "0.0-35.0-1.0", "time_elapsed": 461321, "key_press": -1, "trial_index": 45}, "uniqueid": "MTK2853:3QUO65DNQVV5Z7PB9QFZB34UNKQOUW", "dateTime": 1519414519197}, {"current_trial": 46, "trialdata": {"rt": -1, "trial_type": "single-stim", "stimulus": "<p id=\"stim\">8</p>", "internal_node_id": "0.0-35.0-2.0", "time_elapsed": 462323, "key_press": -1, "trial_index": 46}, "uniqueid": "MTK2853:3QUO65DNQVV5Z7PB9QFZB34UNKQOUW", "dateTime": 1519414520199}, {"current_trial": 47, "trialdata": {"rt": -1, "trial_type": "single-stim", "stimulus": "<p id=\"stim\">7</p>", "internal_node_id": "0.0-35.0-3.0", "time_elapsed": 463324, "key_press": -1, "trial_index": 47}, "uniqueid": "MTK2853:3QUO65DNQVV5Z7PB9QFZB34UNKQOUW", "dateTime": 1519414521200}, {"current_trial": 48, "trialdata": {"rt": -1, "trial_type": "single-stim", "stimulus": "<p id=\"stim\">6</p>", "internal_node_id": "0.0-35.0-4.0", "time_elapsed": 464326, "key_press": -1, "trial_index": 48}, "uniqueid": "MTK2853:3QUO65DNQVV5Z7PB9QFZB34UNKQOUW", "dateTime": 1519414522202}, {"current_trial": 49, "trialdata": {"rt": -1, "trial_type": "single-stim", "stimulus": "<p id=\"stim\">5</p>", "internal_node_id": "0.0-35.0-5.0", "time_elapsed": 465327, "key_press": -1, "trial_index": 49}, "uniqueid": "MTK2853:3QUO65DNQVV5Z7PB9QFZB34UNKQOUW", "dateTime": 1519414523203}, {"current_trial": 50, "trialdata": {"rt": -1, "trial_type": "single-stim", "stimulus": "<p id=\"stim\">4</p>", "internal_node_id": "0.0-35.0-6.0", "time_elapsed": 466328, "key_press": -1, "trial_index": 50}, "uniqueid": "MTK2853:3QUO65DNQVV5Z7PB9QFZB34UNKQOUW", "dateTime": 1519414524204}, {"current_trial": 51, "trialdata": {"rt": -1, "trial_type": "single-stim", "stimulus": "<p id=\"stim\">3</p>", "internal_node_id": "0.0-35.0-7.0", "time_elapsed": 467331, "key_press": -1, "trial_index": 51}, "uniqueid": "MTK2853:3QUO65DNQVV5Z7PB9QFZB34UNKQOUW", "dateTime": 1519414525207}, {"current_trial": 52, "trialdata": {"rt": -1, "trial_type": "single-stim", "stimulus": "<p id=\"stim\">2</p>", "internal_node_id": "0.0-35.0-8.0", "time_elapsed": 468332, "key_press": -1, "trial_index": 52}, "uniqueid": "MTK2853:3QUO65DNQVV5Z7PB9QFZB34UNKQOUW", "dateTime": 1519414526209}, {"current_trial": 53, "trialdata": {"rt": -1, "trial_type": "single-stim", "stimulus": "<p id=\"stim\">1</p>", "internal_node_id": "0.0-35.0-9.0", "time_elapsed": 469334, "key_press": -1, "trial_index": 53}, "uniqueid": "MTK2853:3QUO65DNQVV5Z7PB9QFZB34UNKQOUW", "dateTime": 1519414527210}, {"current_trial": 54, "trialdata": {"rt": -1, "trial_type": "single-stim", "stimulus": "<p id=\"stim\">+</p>", "internal_node_id": "0.0-36.0-0.0", "time_elapsed": 470835, "key_press": -1, "type": "FIXATION", "trial_index": 54}, "uniqueid": "MTK2853:3QUO65DNQVV5Z7PB9QFZB34UNKQOUW", "dateTime": 1519414528711}, {"current_trial": 55, "trialdata": {"rt": -1000, "trial_type": "single-audio", "word": "crutch", "stimulus": "/static/audio/wordpool/CRUTCH.wav", "conditions": [18, 1200, "a", 18000], "internal_node_id": "0.0-37.0", "trial": 1, "time_elapsed": 473007, "serialpos": 0, "key_press": -1, "wordID": 416, "type": "PRES_AUD", "trial_index": 55}, "uniqueid": "MTK2853:3QUO65DNQVV5Z7PB9QFZB34UNKQOUW", "dateTime": 1519414530883}, {"current_trial": 56, "trialdata": {"rt": -1000, "trial_type": "single-audio", "word": "permit", "stimulus": "/static/audio/wordpool/PERMIT.wav", "conditions": [18, 1200, "a", 18000], "internal_node_id": "0.0-38.0", "trial": 1, "time_elapsed": 475070, "serialpos": 1, "key_press": -1, "wordID": 1050, "type": "PRES_AUD", "trial_index": 56}, "uniqueid": "MTK2853:3QUO65DNQVV5Z7PB9QFZB34UNKQOUW", "dateTime": 1519414532946}, {"current_trial": 57, "trialdata": {"rt": -1000, "trial_type": "single-audio", "word": "flesh", "stimulus": "/static/audio/wordpool/FLESH.wav", "conditions": [18, 1200, "a", 18000], "internal_node_id": "0.0-39.0", "trial": 1, "time_elapsed": 477448, "serialpos": 2, "key_press": -1, "wordID": 578, "type": "PRES_AUD", "trial_index": 57}, "uniqueid": "MTK2853:3QUO65DNQVV5Z7PB9QFZB34UNKQOUW", "dateTime": 1519414535324}, {"current_trial": 58, "trialdata": {"rt": -1000, "trial_type": "single-audio", "word": "finger", "stimulus": "/static/audio/wordpool/FINGER.wav", "conditions": [18, 1200, "a", 18000], "internal_node_id": "0.0-40.0", "trial": 1, "time_elapsed": 479520, "serialpos": 3, "key_press": -1, "wordID": 566, "type": "PRES_AUD", "trial_index": 58}, "uniqueid": "MTK2853:3QUO65DNQVV5Z7PB9QFZB34UNKQOUW", "dateTime": 1519414537396}, {"current_trial": 59, "trialdata": {"rt": -1000, "trial_type": "single-audio", "word": "motel", "stimulus": "/static/audio/wordpool/MOTEL.wav", "conditions": [18, 1200, "a", 18000], "internal_node_id": "0.0-41.0", "trial": 1, "time_elapsed": 481734, "serialpos": 4, "key_press": -1, "wordID": 918, "type": "PRES_AUD", "trial_index": 59}, "uniqueid": "MTK2853:3QUO65DNQVV5Z7PB9QFZB34UNKQOUW", "dateTime": 1519414539610}, {"current_trial": 60, "trialdata": {"rt": -1000, "trial_type": "single-audio", "word": "grape", "stimulus": "/static/audio/wordpool/GRAPE.wav", "conditions": [18, 1200, "a", 18000], "internal_node_id": "0.0-42.0", "trial": 1, "time_elapsed": 483799, "serialpos": 5, "key_press": -1, "wordID": 653, "type": "PRES_AUD", "trial_index": 60}, "uniqueid": "MTK2853:3QUO65DNQVV5Z7PB9QFZB34UNKQOUW", "dateTime": 1519414541675}, {"current_trial": 61, "trialdata": {"rt": -1000, "trial_type": "single-audio", "word": "subway", "stimulus": "/static/audio/wordpool/SUBWAY.wav", "conditions": [18, 1200, "a", 18000], "internal_node_id": "0.0-43.0", "trial": 1, "time_elapsed": 486176, "serialpos": 6, "key_press": -1, "wordID": 1399, "type": "PRES_AUD", "trial_index": 61}, "uniqueid": "MTK2853:3QUO65DNQVV5Z7PB9QFZB34UNKQOUW", "dateTime": 1519414544052}, {"current_trial": 62, "trialdata": {"rt": -1000, "trial_type": "single-audio", "word": "wardrobe", "stimulus": "/static/audio/wordpool/WARDROBE.wav", "conditions": [18, 1200, "a", 18000], "internal_node_id": "0.0-44.0", "trial": 1, "time_elapsed": 488255, "serialpos": 7, "key_press": -1, "wordID": 1586, "type": "PRES_AUD", "trial_index": 62}, "uniqueid": "MTK2853:3QUO65DNQVV5Z7PB9QFZB34UNKQOUW", "dateTime": 1519414546131}, {"current_trial": 63, "trialdata": {"rt": -1000, "trial_type": "single-audio", "word": "climber", "stimulus": "/static/audio/wordpool/CLIMBER.wav", "conditions": [18, 1200, "a", 18000], "internal_node_id": "0.0-45.0", "trial": 1, "time_elapsed": 490651, "serialpos": 8, "key_press": -1, "wordID": 322, "type": "PRES_AUD", "trial_index": 63}, "uniqueid": "MTK2853:3QUO65DNQVV5Z7PB9QFZB34UNKQOUW", "dateTime": 1519414548527}, {"current_trial": 64, "trialdata": {"rt": -1000, "trial_type": "single-audio", "word": "record", "stimulus": "/static/audio/wordpool/RECORD.wav", "conditions": [18, 1200, "a", 18000], "internal_node_id": "0.0-46.0", "trial": 1, "time_elapsed": 492936, "serialpos": 9, "key_press": -1, "wordID": 1175, "type": "PRES_AUD", "trial_index": 64}, "uniqueid": "MTK2853:3QUO65DNQVV5Z7PB9QFZB34UNKQOUW", "dateTime": 1519414550812}, {"current_trial": 65, "trialdata": {"rt": -1000, "trial_type": "single-audio", "word": "poison", "stimulus": "/static/audio/wordpool/POISON.wav", "conditions": [18, 1200, "a", 18000], "internal_node_id": "0.0-47.0", "trial": 1, "time_elapsed": 495133, "serialpos": 10, "key_press": -1, "wordID": 1095, "type": "PRES_AUD", "trial_index": 65}, "uniqueid": "MTK2853:3QUO65DNQVV5Z7PB9QFZB34UNKQOUW", "dateTime": 1519414553009}, {"current_trial": 66, "trialdata": {"rt": -1000, "trial_type": "single-audio", "word": "clamp", "stimulus": "/static/audio/wordpool/CLAMP.wav", "conditions": [18, 1200, "a", 18000], "internal_node_id": "0.0-48.0", "trial": 1, "time_elapsed": 497147, "serialpos": 11, "key_press": -1, "wordID": 315, "type": "PRES_AUD", "trial_index": 66}, "uniqueid": "MTK2853:3QUO65DNQVV5Z7PB9QFZB34UNKQOUW", "dateTime": 1519414555023}, {"current_trial": 67, "trialdata": {"rt": -1000, "trial_type": "single-audio", "word": "tweezers", "stimulus": "/static/audio/wordpool/TWEEZERS.wav", "conditions": [18, 1200, "a", 18000], "internal_node_id": "0.0-49.0", "trial": 1, "time_elapsed": 499523, "serialpos": 12, "key_press": -1, "wordID": 1525, "type": "PRES_AUD", "trial_index": 67}, "uniqueid": "MTK2853:3QUO65DNQVV5Z7PB9QFZB34UNKQOUW", "dateTime": 1519414557399}, {"current_trial": 68, "trialdata": {"rt": -1000, "trial_type": "single-audio", "word": "tuba", "stimulus": "/static/audio/wordpool/TUBA.wav", "conditions": [18, 1200, "a", 18000], "internal_node_id": "0.0-50.0", "trial": 1, "time_elapsed": 501569, "serialpos": 13, "key_press": -1, "wordID": 1514, "type": "PRES_AUD", "trial_index": 68}, "uniqueid": "MTK2853:3QUO65DNQVV5Z7PB9QFZB34UNKQOUW", "dateTime": 1519414559446}, {"current_trial": 69, "trialdata": {"rt": -1000, "trial_type": "single-audio", "word": "chipmunk", "stimulus": "/static/audio/wordpool/CHIPMUNK.wav", "conditions": [18, 1200, "a", 18000], "internal_node_id": "0.0-51.0", "trial": 1, "time_elapsed": 503873, "serialpos": 14, "key_press": -1, "wordID": 303, "type": "PRES_AUD", "trial_index": 69}, "uniqueid": "MTK2853:3QUO65DNQVV5Z7PB9QFZB34UNKQOUW", "dateTime": 1519414561749}, {"current_trial": 70, "trialdata": {"rt": -1000, "trial_type": "single-audio", "word": "valve", "stimulus": "/static/audio/wordpool/VALVE.wav", "conditions": [18, 1200, "a", 18000], "internal_node_id": "0.0-52.0", "trial": 1, "time_elapsed": 506222, "serialpos": 15, "key_press": -1, "wordID": 1545, "type": "PRES_AUD", "trial_index": 70}, "uniqueid": "MTK2853:3QUO65DNQVV5Z7PB9QFZB34UNKQOUW", "dateTime": 1519414564098}, {"current_trial": 71, "trialdata": {"rt": -1000, "trial_type": "single-audio", "word": "loft", "stimulus": "/static/audio/wordpool/LOFT.wav", "conditions": [18, 1200, "a", 18000], "internal_node_id": "0.0-53.0", "trial": 1, "time_elapsed": 508520, "serialpos": 16, "key_press": -1, "wordID": 839, "type": "PRES_AUD", "trial_index": 71}, "uniqueid": "MTK2853:3QUO65DNQVV5Z7PB9QFZB34UNKQOUW", "dateTime": 1519414566396}, {"current_trial": 72, "trialdata": {"rt": -1000, "trial_type": "single-audio", "word": "lily", "stimulus": "/static/audio/wordpool/LILY.wav", "conditions": [18, 1200, "a", 18000], "internal_node_id": "0.0-54.0", "trial": 1, "time_elapsed": 510919, "serialpos": 17, "key_press": -1, "wordID": 820, "type": "PRES_AUD", "trial_index": 72}, "uniqueid": "MTK2853:3QUO65DNQVV5Z7PB9QFZB34UNKQOUW", "dateTime": 1519414568795}, {"current_trial": 73, "trialdata": {"rt": -1, "trial_type": "single-stim", "stimulus": "", "internal_node_id": "0.0-55.0-0.0", "time_elapsed": 512175, "key_press": -1, "type": "PRE_RECALL_DELAY", "trial_index": 73}, "uniqueid": "MTK2853:3QUO65DNQVV5Z7PB9QFZB34UNKQOUW", "dateTime": 1519414570052}, {"current_trial": 74, "trialdata": {"rt": -1000, "trial_type": "single-audio", "stimulus": "/static/audio/400Hz.wav", "internal_node_id": "0.0-56.0", "time_elapsed": 512678, "key_press": -1, "type": "PRE_RECALL_ALERT", "trial_index": 74}, "uniqueid": "MTK2853:3QUO65DNQVV5Z7PB9QFZB34UNKQOUW", "dateTime": 1519414570554}, {"current_trial": 75, "trialdata": {"rt": [2399, 4500, 7248, 11076, 26695], "recwords": ["lilly", "loft", "chipmonk", "poison", "grape"], "key_times": [1334, 1436, 1576, 1714, 1894, 2399, 2707, 2908, 3280, 3652, 3788, 3961, 4500, 4805, 4906, 5011, 5184, 5489, 5761, 5896, 6001, 7248, 8157, 8258, 8509, 8680, 8749, 8886, 11076, 25940, 26047, 26146, 26319, 26421, 26695], "trial_type": "free-recall", "conditions": [18, 1200, "a", 18000], "internal_node_id": "0.0-57.0-0.0", "key_presses": [76, 73, 76, 76, 89, 13, 76, 79, 65, 8, 70, 84, 13, 67, 72, 73, 80, 77, 79, 78, 75, 13, 80, 79, 73, 83, 79, 78, 13, 71, 82, 65, 80, 69, 13], "trial": 1, "time_elapsed": 572681, "type": "FREE_RECALL", "trial_index": 75}, "uniqueid": "MTK2853:3QUO65DNQVV5Z7PB9QFZB34UNKQOUW", "dateTime": 1519414630559}, {"current_trial": 76, "trialdata": {"rt": 2958, "trial_type": "text", "internal_node_id": "0.0-58.0", "time_elapsed": 577643, "key_press": 13, "type": "INSTRUCTIONS", "trial_index": 76}, "uniqueid": "MTK2853:3QUO65DNQVV5Z7PB9QFZB34UNKQOUW", "dateTime": 1519414635519}, {"current_trial": 77, "trialdata": {"rt": [4724, 10183], "trial_type": "math-distractor", "key_times": [4312, 4550, 4724, 9768, 10039, 10183], "responses": ["25", "21"], "num2": [7, 5, 3], "num3": [9, 9, 4], "conditions": [12, 800, "a", 12000], "internal_node_id": "0.0-59.0", "key_presses": [98, 101, 13, 98, 97, 13], "trial": 2, "time_elapsed": 590647, "type": "DISTRACTOR", "trial_index": 77, "num1": [9, 7, 9]}, "uniqueid": "MTK2853:3QUO65DNQVV5Z7PB9QFZB34UNKQOUW", "dateTime": 1519414648523}, {"current_trial": 78, "trialdata": {"rt": -1, "trial_type": "single-stim", "stimulus": "<p id=\"stim\">10</p>", "internal_node_id": "0.0-60.0-0.0", "time_elapsed": 593649, "key_press": -1, "trial_index": 78}, "uniqueid": "MTK2853:3QUO65DNQVV5Z7PB9QFZB34UNKQOUW", "dateTime": 1519414651525}, {"current_trial": 79, "trialdata": {"rt": -1, "trial_type": "single-stim", "stimulus": "<p id=\"stim\">9</p>", "internal_node_id": "0.0-60.0-1.0", "time_elapsed": 594651, "key_press": -1, "trial_index": 79}, "uniqueid": "MTK2853:3QUO65DNQVV5Z7PB9QFZB34UNKQOUW", "dateTime": 1519414652527}, {"current_trial": 80, "trialdata": {"rt": -1, "trial_type": "single-stim", "stimulus": "<p id=\"stim\">8</p>", "internal_node_id": "0.0-60.0-2.0", "time_elapsed": 595652, "key_press": -1, "trial_index": 80}, "uniqueid": "MTK2853:3QUO65DNQVV5Z7PB9QFZB34UNKQOUW", "dateTime": 1519414653528}, {"current_trial": 81, "trialdata": {"rt": -1, "trial_type": "single-stim", "stimulus": "<p id=\"stim\">7</p>", "internal_node_id": "0.0-60.0-3.0", "time_elapsed": 596653, "key_press": -1, "trial_index": 81}, "uniqueid": "MTK2853:3QUO65DNQVV5Z7PB9QFZB34UNKQOUW", "dateTime": 1519414654529}, {"current_trial": 82, "trialdata": {"rt": -1, "trial_type": "single-stim", "stimulus": "<p id=\"stim\">6</p>", "internal_node_id": "0.0-60.0-4.0", "time_elapsed": 597655, "key_press": -1, "trial_index": 82}, "uniqueid": "MTK2853:3QUO65DNQVV5Z7PB9QFZB34UNKQOUW", "dateTime": 1519414655531}, {"current_trial": 83, "trialdata": {"rt": -1, "trial_type": "single-stim", "stimulus": "<p id=\"stim\">5</p>", "internal_node_id": "0.0-60.0-5.0", "time_elapsed": 598657, "key_press": -1, "trial_index": 83}, "uniqueid": "MTK2853:3QUO65DNQVV5Z7PB9QFZB34UNKQOUW", "dateTime": 1519414656533}, {"current_trial": 84, "trialdata": {"rt": -1, "trial_type": "single-stim", "stimulus": "<p id=\"stim\">4</p>", "internal_node_id": "0.0-60.0-6.0", "time_elapsed": 599658, "key_press": -1, "trial_index": 84}, "uniqueid": "MTK2853:3QUO65DNQVV5Z7PB9QFZB34UNKQOUW", "dateTime": 1519414657534}, {"current_trial": 85, "trialdata": {"rt": -1, "trial_type": "single-stim", "stimulus": "<p id=\"stim\">3</p>", "internal_node_id": "0.0-60.0-7.0", "time_elapsed": 600659, "key_press": -1, "trial_index": 85}, "uniqueid": "MTK2853:3QUO65DNQVV5Z7PB9QFZB34UNKQOUW", "dateTime": 1519414658535}, {"current_trial": 86, "trialdata": {"rt": -1, "trial_type": "single-stim", "stimulus": "<p id=\"stim\">2</p>", "internal_node_id": "0.0-60.0-8.0", "time_elapsed": 601659, "key_press": -1, "trial_index": 86}, "uniqueid": "MTK2853:3QUO65DNQVV5Z7PB9QFZB34UNKQOUW", "dateTime": 1519414659536}, {"current_trial": 87, "trialdata": {"rt": -1, "trial_type": "single-stim", "stimulus": "<p id=\"stim\">1</p>", "internal_node_id": "0.0-60.0-9.0", "time_elapsed": 602660, "key_press": -1, "trial_index": 87}, "uniqueid": "MTK2853:3QUO65DNQVV5Z7PB9QFZB34UNKQOUW", "dateTime": 1519414660537}, {"current_trial": 88, "trialdata": {"rt": -1, "trial_type": "single-stim", "stimulus": "<p id=\"stim\">+</p>", "internal_node_id": "0.0-61.0-0.0", "time_elapsed": 604161, "key_press": -1, "type": "FIXATION", "trial_index": 88}, "uniqueid": "MTK2853:3QUO65DNQVV5Z7PB9QFZB34UNKQOUW", "dateTime": 1519414662038}, {"current_trial": 89, "trialdata": {"rt": -1000, "trial_type": "single-audio", "word": "uncle", "stimulus": "/static/audio/wordpool/UNCLE.wav", "conditions": [12, 800, "a", 12000], "internal_node_id": "0.0-62.0", "trial": 2, "time_elapsed": 606044, "serialpos": 0, "key_press": -1, "wordID": 1535, "type": "PRES_AUD", "trial_index": 89}, "uniqueid": "MTK2853:3QUO65DNQVV5Z7PB9QFZB34UNKQOUW", "dateTime": 1519414663920}, {"current_trial": 90, "trialdata": {"rt": -1000, "trial_type": "single-audio", "word": "honey", "stimulus": "/static/audio/wordpool/HONEY.wav", "conditions": [12, 800, "a", 12000], "internal_node_id": "0.0-63.0", "trial": 2, "time_elapsed": 607931, "serialpos": 1, "key_press": -1, "wordID": 712, "type": "PRES_AUD", "trial_index": 90}, "uniqueid": "MTK2853:3QUO65DNQVV5Z7PB9QFZB34UNKQOUW", "dateTime": 1519414665807}, {"current_trial": 91, "trialdata": {"rt": -1000, "trial_type": "single-audio", "word": "yacht", "stimulus": "/static/audio/wordpool/YACHT.wav", "conditions": [12, 800, "a", 12000], "internal_node_id": "0.0-64.0", "trial": 2, "time_elapsed": 609719, "serialpos": 2, "key_press": -1, "wordID": 1628, "type": "PRES_AUD", "trial_index": 91}, "uniqueid": "MTK2853:3QUO65DNQVV5Z7PB9QFZB34UNKQOUW", "dateTime": 1519414667595}, {"current_trial": 92, "trialdata": {"rt": -1000, "trial_type": "single-audio", "word": "grave", "stimulus": "/static/audio/wordpool/GRAVE.wav", "conditions": [12, 800, "a", 12000], "internal_node_id": "0.0-65.0", "trial": 2, "time_elapsed": 611689, "serialpos": 3, "key_press": -1, "wordID": 657, "type": "PRES_AUD", "trial_index": 92}, "uniqueid": "MTK2853:3QUO65DNQVV5Z7PB9QFZB34UNKQOUW", "dateTime": 1519414669565}, {"current_trial": 93, "trialdata": {"rt": -1000, "trial_type": "single-audio", "word": "crater", "stimulus": "/static/audio/wordpool/CRATER.wav", "conditions": [12, 800, "a", 12000], "internal_node_id": "0.0-66.0", "trial": 2, "time_elapsed": 613464, "serialpos": 4, "key_press": -1, "wordID": 399, "type": "PRES_AUD", "trial_index": 93}, "uniqueid": "MTK2853:3QUO65DNQVV5Z7PB9QFZB34UNKQOUW", "dateTime": 1519414671340}, {"current_trial": 94, "trialdata": {"rt": -1000, "trial_type": "single-audio", "word": "milk", "stimulus": "/static/audio/wordpool/MILK.wav", "conditions": [12, 800, "a", 12000], "internal_node_id": "0.0-67.0", "trial": 2, "time_elapsed": 615067, "serialpos": 5, "key_press": -1, "wordID": 894, "type": "PRES_AUD", "trial_index": 94}, "uniqueid": "MTK2853:3QUO65DNQVV5Z7PB9QFZB34UNKQOUW", "dateTime": 1519414672943}, {"current_trial": 95, "trialdata": {"rt": -1000, "trial_type": "single-audio", "word": "scissors", "stimulus": "/static/audio/wordpool/SCISSORS.wav", "conditions": [12, 800, "a", 12000], "internal_node_id": "0.0-68.0", "trial": 2, "time_elapsed": 616730, "serialpos": 6, "key_press": -1, "wordID": 1249, "type": "PRES_AUD", "trial_index": 95}, "uniqueid": "MTK2853:3QUO65DNQVV5Z7PB9QFZB34UNKQOUW", "dateTime": 1519414674606}, {"current_trial": 96, "trialdata": {"rt": -1000, "trial_type": "single-audio", "word": "knife", "stimulus": "/static/audio/wordpool/KNIFE.wav", "conditions": [12, 800, "a", 12000], "internal_node_id": "0.0-69.0", "trial": 2, "time_elapsed": 618682, "serialpos": 7, "key_press": -1, "wordID": 784, "type": "PRES_AUD", "trial_index": 96}, "uniqueid": "MTK2853:3QUO65DNQVV5Z7PB9QFZB34UNKQOUW", "dateTime": 1519414676559}, {"current_trial": 97, "trialdata": {"rt": -1000, "trial_type": "single-audio", "word": "pistol", "stimulus": "/static/audio/wordpool/PISTOL.wav", "conditions": [12, 800, "a", 12000], "internal_node_id": "0.0-70.0", "trial": 2, "time_elapsed": 620504, "serialpos": 8, "key_press": -1, "wordID": 1074, "type": "PRES_AUD", "trial_index": 97}, "uniqueid": "MTK2853:3QUO65DNQVV5Z7PB9QFZB34UNKQOUW", "dateTime": 1519414678380}, {"current_trial": 98, "trialdata": {"rt": -1000, "trial_type": "single-audio", "word": "oyster", "stimulus": "/static/audio/wordpool/OYSTER.wav", "conditions": [12, 800, "a", 12000], "internal_node_id": "0.0-71.0", "trial": 2, "time_elapsed": 622417, "serialpos": 9, "key_press": -1, "wordID": 994, "type": "PRES_AUD", "trial_index": 98}, "uniqueid": "MTK2853:3QUO65DNQVV5Z7PB9QFZB34UNKQOUW", "dateTime": 1519414680293}, {"current_trial": 99, "trialdata": {"rt": -1000, "trial_type": "single-audio", "word": "dandruff", "stimulus": "/static/audio/wordpool/DANDRUFF.wav", "conditions": [12, 800, "a", 12000], "internal_node_id": "0.0-72.0", "trial": 2, "time_elapsed": 624353, "serialpos": 10, "key_press": -1, "wordID": 438, "type": "PRES_AUD", "trial_index": 99}, "uniqueid": "MTK2853:3QUO65DNQVV5Z7PB9QFZB34UNKQOUW", "dateTime": 1519414682229}, {"current_trial": 100, "trialdata": {"rt": -1000, "trial_type": "single-audio", "word": "beast", "stimulus": "/static/audio/wordpool/BEAST.wav", "conditions": [12, 800, "a", 12000], "internal_node_id": "0.0-73.0", "trial": 2, "time_elapsed": 626174, "serialpos": 11, "key_press": -1, "wordID": 107, "type": "PRES_AUD", "trial_index": 100}, "uniqueid": "MTK2853:3QUO65DNQVV5Z7PB9QFZB34UNKQOUW", "dateTime": 1519414684050}, {"current_trial": 101, "trialdata": {"rt": -1, "trial_type": "single-stim", "stimulus": "", "internal_node_id": "0.0-74.0-0.0", "time_elapsed": 627456, "key_press": -1, "type": "PRE_RECALL_DELAY", "trial_index": 101}, "uniqueid": "MTK2853:3QUO65DNQVV5Z7PB9QFZB34UNKQOUW", "dateTime": 1519414685332}, {"current_trial": 102, "trialdata": {"rt": -1000, "trial_type": "single-audio", "stimulus": "/static/audio/400Hz.wav", "internal_node_id": "0.0-75.0", "time_elapsed": 627957, "key_press": -1, "type": "PRE_RECALL_ALERT", "trial_index": 102}, "uniqueid": "MTK2853:3QUO65DNQVV5Z7PB9QFZB34UNKQOUW", "dateTime": 1519414685833}, {"current_trial": 103, "trialdata": {"rt": [3459, 5627, 8010, 10380, 15809], "recwords": ["beast", "knife", "scissors", "honey", "yacht"], "key_times": [1388, 1559, 1694, 1899, 2010, 3459, 4637, 4739, 4877, 4981, 5085, 5627, 5831, 6002, 6143, 6349, 6519, 6654, 6759, 6897, 8010, 9658, 9799, 9931, 10071, 10243, 10380, 14618, 14754, 14964, 15029, 15167, 15809], "trial_type": "free-recall", "conditions": [12, 800, "a", 12000], "internal_node_id": "0.0-76.0-0.0", "key_presses": [66, 69, 65, 83, 84, 13, 75, 78, 73, 70, 69, 13, 83, 67, 73, 83, 83, 79, 82, 83, 13, 72, 79, 78, 69, 89, 13, 89, 65, 67, 72, 84, 13], "trial": 2, "time_elapsed": 687959, "type": "FREE_RECALL", "trial_index": 103}, "uniqueid": "MTK2853:3QUO65DNQVV5Z7PB9QFZB34UNKQOUW", "dateTime": 1519414745837}, {"current_trial": 104, "trialdata": {"rt": 8049, "trial_type": "text", "internal_node_id": "0.0-77.0", "time_elapsed": 698010, "key_press": 13, "type": "INSTRUCTIONS", "trial_index": 104}, "uniqueid": "MTK2853:3QUO65DNQVV5Z7PB9QFZB34UNKQOUW", "dateTime": 1519414755886}, {"current_trial": 105, "trialdata": {"rt": [3037, 8223, 15584, 18470, 23454], "trial_type": "math-distractor", "key_times": [2739, 2899, 3037, 8048, 8115, 8223, 13438, 15440, 15584, 17968, 18273, 18470, 23211, 23313, 23454], "responses": ["16", "15", "21", "17", "16"], "num2": [6, 2, 4, 7, 3, 6], "num3": [3, 5, 9, 5, 8, 2], "conditions": [12, 800, "a", 24000], "internal_node_id": "0.0-78.0", "key_presses": [97, 102, 13, 97, 101, 13, 98, 97, 13, 97, 103, 13, 97, 102, 13], "trial": 3, "time_elapsed": 724014, "type": "DISTRACTOR", "trial_index": 105, "num1": [7, 8, 8, 5, 5, 9]}, "uniqueid": "MTK2853:3QUO65DNQVV5Z7PB9QFZB34UNKQOUW", "dateTime": 1519414781890}, {"current_trial": 106, "trialdata": {"rt": -1, "trial_type": "single-stim", "stimulus": "<p id=\"stim\">10</p>", "internal_node_id": "0.0-79.0-0.0", "time_elapsed": 727016, "key_press": -1, "trial_index": 106}, "uniqueid": "MTK2853:3QUO65DNQVV5Z7PB9QFZB34UNKQOUW", "dateTime": 1519414784892}, {"current_trial": 107, "trialdata": {"rt": -1, "trial_type": "single-stim", "stimulus": "<p id=\"stim\">9</p>", "internal_node_id": "0.0-79.0-1.0", "time_elapsed": 728018, "key_press": -1, "trial_index": 107}, "uniqueid": "MTK2853:3QUO65DNQVV5Z7PB9QFZB34UNKQOUW", "dateTime": 1519414785895}, {"current_trial": 108, "trialdata": {"rt": -1, "trial_type": "single-stim", "stimulus": "<p id=\"stim\">8</p>", "internal_node_id": "0.0-79.0-2.0", "time_elapsed": 729019, "key_press": -1, "trial_index": 108}, "uniqueid": "MTK2853:3QUO65DNQVV5Z7PB9QFZB34UNKQOUW", "dateTime": 1519414786895}, {"current_trial": 109, "trialdata": {"rt": -1, "trial_type": "single-stim", "stimulus": "<p id=\"stim\">7</p>", "internal_node_id": "0.0-79.0-3.0", "time_elapsed": 730021, "key_press": -1, "trial_index": 109}, "uniqueid": "MTK2853:3QUO65DNQVV5Z7PB9QFZB34UNKQOUW", "dateTime": 1519414787897}, {"current_trial": 110, "trialdata": {"rt": -1, "trial_type": "single-stim", "stimulus": "<p id=\"stim\">6</p>", "internal_node_id": "0.0-79.0-4.0", "time_elapsed": 731022, "key_press": -1, "trial_index": 110}, "uniqueid": "MTK2853:3QUO65DNQVV5Z7PB9QFZB34UNKQOUW", "dateTime": 1519414788898}, {"current_trial": 111, "trialdata": {"rt": -1, "trial_type": "single-stim", "stimulus": "<p id=\"stim\">5</p>", "internal_node_id": "0.0-79.0-5.0", "time_elapsed": 732024, "key_press": -1, "trial_index": 111}, "uniqueid": "MTK2853:3QUO65DNQVV5Z7PB9QFZB34UNKQOUW", "dateTime": 1519414789900}, {"current_trial": 112, "trialdata": {"rt": -1, "trial_type": "single-stim", "stimulus": "<p id=\"stim\">4</p>", "internal_node_id": "0.0-79.0-6.0", "time_elapsed": 733025, "key_press": -1, "trial_index": 112}, "uniqueid": "MTK2853:3QUO65DNQVV5Z7PB9QFZB34UNKQOUW", "dateTime": 1519414790901}, {"current_trial": 113, "trialdata": {"rt": -1, "trial_type": "single-stim", "stimulus": "<p id=\"stim\">3</p>", "internal_node_id": "0.0-79.0-7.0", "time_elapsed": 734026, "key_press": -1, "trial_index": 113}, "uniqueid": "MTK2853:3QUO65DNQVV5Z7PB9QFZB34UNKQOUW", "dateTime": 1519414791902}, {"current_trial": 114, "trialdata": {"rt": -1, "trial_type": "single-stim", "stimulus": "<p id=\"stim\">2</p>", "internal_node_id": "0.0-79.0-8.0", "time_elapsed": 735027, "key_press": -1, "trial_index": 114}, "uniqueid": "MTK2853:3QUO65DNQVV5Z7PB9QFZB34UNKQOUW", "dateTime": 1519414792903}, {"current_trial": 115, "trialdata": {"rt": -1, "trial_type": "single-stim", "stimulus": "<p id=\"stim\">1</p>", "internal_node_id": "0.0-79.0-9.0", "time_elapsed": 736028, "key_press": -1, "trial_index": 115}, "uniqueid": "MTK2853:3QUO65DNQVV5Z7PB9QFZB34UNKQOUW", "dateTime": 1519414793905}, {"current_trial": 116, "trialdata": {"rt": -1, "trial_type": "single-stim", "stimulus": "<p id=\"stim\">+</p>", "internal_node_id": "0.0-80.0-0.0", "time_elapsed": 737530, "key_press": -1, "type": "FIXATION", "trial_index": 116}, "uniqueid": "MTK2853:3QUO65DNQVV5Z7PB9QFZB34UNKQOUW", "dateTime": 1519414795407}, {"current_trial": 117, "trialdata": {"rt": -1000, "trial_type": "single-audio", "word": "husband", "stimulus": "/static/audio/wordpool/HUSBAND.wav", "conditions": [12, 800, "a", 24000], "internal_node_id": "0.0-81.0", "trial": 3, "time_elapsed": 739305, "serialpos": 0, "key_press": -1, "wordID": 727, "type": "PRES_AUD", "trial_index": 117}, "uniqueid": "MTK2853:3QUO65DNQVV5Z7PB9QFZB34UNKQOUW", "dateTime": 1519414797181}, {"current_trial": 118, "trialdata": {"rt": -1000, "trial_type": "single-audio", "word": "preacher", "stimulus": "/static/audio/wordpool/PREACHER.wav", "conditions": [12, 800, "a", 24000], "internal_node_id": "0.0-82.0", "trial": 3, "time_elapsed": 741114, "serialpos": 1, "key_press": -1, "wordID": 1118, "type": "PRES_AUD", "trial_index": 118}, "uniqueid": "MTK2853:3QUO65DNQVV5Z7PB9QFZB34UNKQOUW", "dateTime": 1519414798990}, {"current_trial": 119, "trialdata": {"rt": -1000, "trial_type": "single-audio", "word": "servant", "stimulus": "/static/audio/wordpool/SERVANT.wav", "conditions": [12, 800, "a", 24000], "internal_node_id": "0.0-83.0", "trial": 3, "time_elapsed": 742797, "serialpos": 2, "key_press": -1, "wordID": 1270, "type": "PRES_AUD", "trial_index": 119}, "uniqueid": "MTK2853:3QUO65DNQVV5Z7PB9QFZB34UNKQOUW", "dateTime": 1519414800673}, {"current_trial": 120, "trialdata": {"rt": -1000, "trial_type": "single-audio", "word": "seagull", "stimulus": "/static/audio/wordpool/SEAGULL.wav", "conditions": [12, 800, "a", 24000], "internal_node_id": "0.0-84.0", "trial": 3, "time_elapsed": 744433, "serialpos": 3, "key_press": -1, "wordID": 1260, "type": "PRES_AUD", "trial_index": 120}, "uniqueid": "MTK2853:3QUO65DNQVV5Z7PB9QFZB34UNKQOUW", "dateTime": 1519414802309}, {"current_trial": 121, "trialdata": {"rt": -1000, "trial_type": "single-audio", "word": "garlic", "stimulus": "/static/audio/wordpool/GARLIC.wav", "conditions": [12, 800, "a", 24000], "internal_node_id": "0.0-85.0", "trial": 3, "time_elapsed": 746178, "serialpos": 4, "key_press": -1, "wordID": 623, "type": "PRES_AUD", "trial_index": 121}, "uniqueid": "MTK2853:3QUO65DNQVV5Z7PB9QFZB34UNKQOUW", "dateTime": 1519414804054}, {"current_trial": 122, "trialdata": {"rt": -1000, "trial_type": "single-audio", "word": "parsley", "stimulus": "/static/audio/wordpool/PARSLEY.wav", "conditions": [12, 800, "a", 24000], "internal_node_id": "0.0-86.0", "trial": 3, "time_elapsed": 748001, "serialpos": 5, "key_press": -1, "wordID": 1015, "type": "PRES_AUD", "trial_index": 122}, "uniqueid": "MTK2853:3QUO65DNQVV5Z7PB9QFZB34UNKQOUW", "dateTime": 1519414805877}, {"current_trial": 123, "trialdata": {"rt": -1000, "trial_type": "single-audio", "word": "basement", "stimulus": "/static/audio/wordpool/BASEMENT.wav", "conditions": [12, 800, "a", 24000], "internal_node_id": "0.0-87.0", "trial": 3, "time_elapsed": 749962, "serialpos": 6, "key_press": -1, "wordID": 93, "type": "PRES_AUD", "trial_index": 123}, "uniqueid": "MTK2853:3QUO65DNQVV5Z7PB9QFZB34UNKQOUW", "dateTime": 1519414807838}, {"current_trial": 124, "trialdata": {"rt": -1000, "trial_type": "single-audio", "word": "vagrant", "stimulus": "/static/audio/wordpool/VAGRANT.wav", "conditions": [12, 800, "a", 24000], "internal_node_id": "0.0-88.0", "trial": 3, "time_elapsed": 751713, "serialpos": 7, "key_press": -1, "wordID": 1543, "type": "PRES_AUD", "trial_index": 124}, "uniqueid": "MTK2853:3QUO65DNQVV5Z7PB9QFZB34UNKQOUW", "dateTime": 1519414809589}, {"current_trial": 125, "trialdata": {"rt": -1000, "trial_type": "single-audio", "word": "jelly", "stimulus": "/static/audio/wordpool/JELLY.wav", "conditions": [12, 800, "a", 24000], "internal_node_id": "0.0-89.0", "trial": 3, "time_elapsed": 753467, "serialpos": 8, "key_press": -1, "wordID": 754, "type": "PRES_AUD", "trial_index": 125}, "uniqueid": "MTK2853:3QUO65DNQVV5Z7PB9QFZB34UNKQOUW", "dateTime": 1519414811343}, {"current_trial": 126, "trialdata": {"rt": -1000, "trial_type": "single-audio", "word": "spool", "stimulus": "/static/audio/wordpool/SPOOL.wav", "conditions": [12, 800, "a", 24000], "internal_node_id": "0.0-90.0", "trial": 3, "time_elapsed": 755423, "serialpos": 9, "key_press": -1, "wordID": 1355, "type": "PRES_AUD", "trial_index": 126}, "uniqueid": "MTK2853:3QUO65DNQVV5Z7PB9QFZB34UNKQOUW", "dateTime": 1519414813299}, {"current_trial": 127, "trialdata": {"rt": -1000, "trial_type": "single-audio", "word": "sunset", "stimulus": "/static/audio/wordpool/SUNSET.wav", "conditions": [12, 800, "a", 24000], "internal_node_id": "0.0-91.0", "trial": 3, "time_elapsed": 757040, "serialpos": 10, "key_press": -1, "wordID": 1407, "type": "PRES_AUD", "trial_index": 127}, "uniqueid": "MTK2853:3QUO65DNQVV5Z7PB9QFZB34UNKQOUW", "dateTime": 1519414814916}, {"current_trial": 128, "trialdata": {"rt": -1000, "trial_type": "single-audio", "word": "kitchen", "stimulus": "/static/audio/wordpool/KITCHEN.wav", "conditions": [12, 800, "a", 24000], "internal_node_id": "0.0-92.0", "trial": 3, "time_elapsed": 758880, "serialpos": 11, "key_press": -1, "wordID": 777, "type": "PRES_AUD", "trial_index": 128}, "uniqueid": "MTK2853:3QUO65DNQVV5Z7PB9QFZB34UNKQOUW", "dateTime": 1519414816756}, {"current_trial": 129, "trialdata": {"rt": -1, "trial_type": "single-stim", "stimulus": "", "internal_node_id": "0.0-93.0-0.0", "time_elapsed": 760129, "key_press": -1, "type": "PRE_RECALL_DELAY", "trial_index": 129}, "uniqueid": "MTK2853:3QUO65DNQVV5Z7PB9QFZB34UNKQOUW", "dateTime": 1519414818005}, {"current_trial": 130, "trialdata": {"rt": -1000, "trial_type": "single-audio", "stimulus": "/static/audio/400Hz.wav", "internal_node_id": "0.0-94.0", "time_elapsed": 760630, "key_press": -1, "type": "PRE_RECALL_ALERT", "trial_index": 130}, "uniqueid": "MTK2853:3QUO65DNQVV5Z7PB9QFZB34UNKQOUW", "dateTime": 1519414818506}, {"current_trial": 131, "trialdata": {"rt": [2072, 3711, 6064, 7203, 13304, 25169, 29286, 50461, 52497], "recwords": ["kitchen", "sunset", "husband", "preacher", "servant", "fragrance", "spool", "parsley", "garlic"], "key_times": [1107, 1277, 1379, 1553, 1654, 1795, 1897, 2072, 2375, 2516, 2615, 2763, 3001, 3206, 3711, 4083, 4185, 4391, 4596, 4665, 4785, 4884, 6064, 6349, 6484, 6589, 6693, 6803, 6874, 7009, 7077, 7203, 9218, 9387, 9594, 10173, 10445, 10582, 10987, 11125, 11245, 11347, 11451, 13304, 19661, 20032, 20847, 21790, 21994, 22062, 22170, 22271, 22375, 25169, 28129, 28270, 28505, 28676, 28914, 29286, 48926, 49130, 49232, 49509, 49684, 49952, 50053, 50461, 51841, 52012, 52080, 52254, 52322, 52427, 52497], "trial_type": "free-recall", "conditions": [12, 800, "a", 24000], "internal_node_id": "0.0-95.0-0.0", "key_presses": [75, 73, 84, 67, 72, 69, 78, 13, 83, 85, 78, 83, 69, 84, 13, 72, 85, 83, 66, 65, 78, 68, 13, 80, 82, 69, 65, 67, 72, 69, 82, 13, 83, 69, 82, 86, 69, 78, 8, 8, 65, 78, 84, 13, 70, 82, 65, 71, 82, 65, 78, 67, 69, 13, 83, 80, 79, 79, 76, 13, 80, 65, 82, 83, 76, 69, 89, 13, 71, 65, 82, 76, 73, 67, 13], "trial": 3, "time_elapsed": 820634, "type": "FREE_RECALL", "trial_index": 131}, "uniqueid": "MTK2853:3QUO65DNQVV5Z7PB9QFZB34UNKQOUW", "dateTime": 1519414878512}, {"current_trial": 132, "trialdata": {"rt": 1256, "trial_type": "text", "internal_node_id": "0.0-96.0", "time_elapsed": 823893, "key_press": 13, "type": "INSTRUCTIONS", "trial_index": 132}, "uniqueid": "MTK2853:3QUO65DNQVV5Z7PB9QFZB34UNKQOUW", "dateTime": 1519414881769}, {"current_trial": 133, "trialdata": {"rt": [2880, 5585, 9895, 13199, 20061, 22015], "trial_type": "math-distractor", "key_times": [2571, 2775, 2880, 5270, 5441, 5585, 9583, 9718, 9895, 12854, 13059, 13199, 19746, 19950, 20061, 21840, 21908, 22015], "responses": ["11", "11", "19", "17", "17", "12"], "num2": [4, 5, 8, 7, 5, 3, 2], "num3": [3, 2, 7, 8, 8, 2, 5], "conditions": [24, 800, "a", 24000], "internal_node_id": "0.0-97.0", "key_presses": [97, 97, 13, 97, 97, 13, 97, 105, 13, 97, 103, 13, 97, 103, 13, 97, 98, 13], "trial": 4, "time_elapsed": 849897, "type": "DISTRACTOR", "trial_index": 133, "num1": [4, 4, 4, 2, 4, 7, 9]}, "uniqueid": "MTK2853:3QUO65DNQVV5Z7PB9QFZB34UNKQOUW", "dateTime": 1519414907773}, {"current_trial": 134, "trialdata": {"rt": -1, "trial_type": "single-stim", "stimulus": "<p id=\"stim\">10</p>", "internal_node_id": "0.0-98.0-0.0", "time_elapsed": 852900, "key_press": -1, "trial_index": 134}, "uniqueid": "MTK2853:3QUO65DNQVV5Z7PB9QFZB34UNKQOUW", "dateTime": 1519414910776}, {"current_trial": 135, "trialdata": {"rt": -1, "trial_type": "single-stim", "stimulus": "<p id=\"stim\">9</p>", "internal_node_id": "0.0-98.0-1.0", "time_elapsed": 853902, "key_press": -1, "trial_index": 135}, "uniqueid": "MTK2853:3QUO65DNQVV5Z7PB9QFZB34UNKQOUW", "dateTime": 1519414911778}, {"current_trial": 136, "trialdata": {"rt": -1, "trial_type": "single-stim", "stimulus": "<p id=\"stim\">8</p>", "internal_node_id": "0.0-98.0-2.0", "time_elapsed": 854903, "key_press": -1, "trial_index": 136}, "uniqueid": "MTK2853:3QUO65DNQVV5Z7PB9QFZB34UNKQOUW", "dateTime": 1519414912779}, {"current_trial": 137, "trialdata": {"rt": -1, "trial_type": "single-stim", "stimulus": "<p id=\"stim\">7</p>", "internal_node_id": "0.0-98.0-3.0", "time_elapsed": 855905, "key_press": -1, "trial_index": 137}, "uniqueid": "MTK2853:3QUO65DNQVV5Z7PB9QFZB34UNKQOUW", "dateTime": 1519414913781}, {"current_trial": 138, "trialdata": {"rt": -1, "trial_type": "single-stim", "stimulus": "<p id=\"stim\">6</p>", "internal_node_id": "0.0-98.0-4.0", "time_elapsed": 856906, "key_press": -1, "trial_index": 138}, "uniqueid": "MTK2853:3QUO65DNQVV5Z7PB9QFZB34UNKQOUW", "dateTime": 1519414914782}, {"current_trial": 139, "trialdata": {"rt": -1, "trial_type": "single-stim", "stimulus": "<p id=\"stim\">5</p>", "internal_node_id": "0.0-98.0-5.0", "time_elapsed": 857907, "key_press": -1, "trial_index": 139}, "uniqueid": "MTK2853:3QUO65DNQVV5Z7PB9QFZB34UNKQOUW", "dateTime": 1519414915783}, {"current_trial": 140, "trialdata": {"rt": -1, "trial_type": "single-stim", "stimulus": "<p id=\"stim\">4</p>", "internal_node_id": "0.0-98.0-6.0", "time_elapsed": 858909, "key_press": -1, "trial_index": 140}, "uniqueid": "MTK2853:3QUO65DNQVV5Z7PB9QFZB34UNKQOUW", "dateTime": 1519414916785}, {"current_trial": 141, "trialdata": {"rt": -1, "trial_type": "single-stim", "stimulus": "<p id=\"stim\">3</p>", "internal_node_id": "0.0-98.0-7.0", "time_elapsed": 859911, "key_press": -1, "trial_index": 141}, "uniqueid": "MTK2853:3QUO65DNQVV5Z7PB9QFZB34UNKQOUW", "dateTime": 1519414917787}, {"current_trial": 142, "trialdata": {"rt": -1, "trial_type": "single-stim", "stimulus": "<p id=\"stim\">2</p>", "internal_node_id": "0.0-98.0-8.0", "time_elapsed": 860912, "key_press": -1, "trial_index": 142}, "uniqueid": "MTK2853:3QUO65DNQVV5Z7PB9QFZB34UNKQOUW", "dateTime": 1519414918788}, {"current_trial": 143, "trialdata": {"rt": -1, "trial_type": "single-stim", "stimulus": "<p id=\"stim\">1</p>", "internal_node_id": "0.0-98.0-9.0", "time_elapsed": 861913, "key_press": -1, "trial_index": 143}, "uniqueid": "MTK2853:3QUO65DNQVV5Z7PB9QFZB34UNKQOUW", "dateTime": 1519414919789}, {"current_trial": 144, "trialdata": {"rt": -1, "trial_type": "single-stim", "stimulus": "<p id=\"stim\">+</p>", "internal_node_id": "0.0-99.0-0.0", "time_elapsed": 863415, "key_press": -1, "type": "FIXATION", "trial_index": 144}, "uniqueid": "MTK2853:3QUO65DNQVV5Z7PB9QFZB34UNKQOUW", "dateTime": 1519414921291}, {"current_trial": 145, "trialdata": {"rt": -1000, "trial_type": "single-audio", "word": "quarter", "stimulus": "/static/audio/wordpool/QUARTER.wav", "conditions": [24, 800, "a", 24000], "internal_node_id": "0.0-100.0", "trial": 4, "time_elapsed": 865107, "serialpos": 0, "key_press": -1, "wordID": 1147, "type": "PRES_AUD", "trial_index": 145}, "uniqueid": "MTK2853:3QUO65DNQVV5Z7PB9QFZB34UNKQOUW", "dateTime": 1519414922983}, {"current_trial": 146, "trialdata": {"rt": -1000, "trial_type": "single-audio", "word": "crab", "stimulus": "/static/audio/wordpool/CRAB.wav", "conditions": [24, 800, "a", 24000], "internal_node_id": "0.0-101.0", "trial": 4, "time_elapsed": 866808, "serialpos": 1, "key_press": -1, "wordID": 396, "type": "PRES_AUD", "trial_index": 146}, "uniqueid": "MTK2853:3QUO65DNQVV5Z7PB9QFZB34UNKQOUW", "dateTime": 1519414924684}, {"current_trial": 147, "trialdata": {"rt": -1000, "trial_type": "single-audio", "word": "scallop", "stimulus": "/static/audio/wordpool/SCALLOP.wav", "conditions": [24, 800, "a", 24000], "internal_node_id": "0.0-102.0", "trial": 4, "time_elapsed": 868431, "serialpos": 2, "key_press": -1, "wordID": 1241, "type": "PRES_AUD", "trial_index": 147}, "uniqueid": "MTK2853:3QUO65DNQVV5Z7PB9QFZB34UNKQOUW", "dateTime": 1519414926307}, {"current_trial": 148, "trialdata": {"rt": -1000, "trial_type": "single-audio", "word": "police", "stimulus": "/static/audio/wordpool/POLICE.wav", "conditions": [24, 800, "a", 24000], "internal_node_id": "0.0-103.0", "trial": 4, "time_elapsed": 870409, "serialpos": 3, "key_press": -1, "wordID": 1097, "type": "PRES_AUD", "trial_index": 148}, "uniqueid": "MTK2853:3QUO65DNQVV5Z7PB9QFZB34UNKQOUW", "dateTime": 1519414928285}, {"current_trial": 149, "trialdata": {"rt": -1000, "trial_type": "single-audio", "word": "concert", "stimulus": "/static/audio/wordpool/CONCERT.wav", "conditions": [24, 800, "a", 24000], "internal_node_id": "0.0-104.0", "trial": 4, "time_elapsed": 872287, "serialpos": 4, "key_press": -1, "wordID": 359, "type": "PRES_AUD", "trial_index": 149}, "uniqueid": "MTK2853:3QUO65DNQVV5Z7PB9QFZB34UNKQOUW", "dateTime": 1519414930164}, {"current_trial": 150, "trialdata": {"rt": -1000, "trial_type": "single-audio", "word": "tortoise", "stimulus": "/static/audio/wordpool/TORTOISE.wav", "conditions": [24, 800, "a", 24000], "internal_node_id": "0.0-105.0", "trial": 4, "time_elapsed": 874200, "serialpos": 5, "key_press": -1, "wordID": 1485, "type": "PRES_AUD", "trial_index": 150}, "uniqueid": "MTK2853:3QUO65DNQVV5Z7PB9QFZB34UNKQOUW", "dateTime": 1519414932076}, {"current_trial": 151, "trialdata": {"rt": -1000, "trial_type": "single-audio", "word": "sculpture", "stimulus": "/static/audio/wordpool/SCULPTURE.wav", "conditions": [24, 800, "a", 24000], "internal_node_id": "0.0-106.0", "trial": 4, "time_elapsed": 875847, "serialpos": 6, "key_press": -1, "wordID": 1257, "type": "PRES_AUD", "trial_index": 151}, "uniqueid": "MTK2853:3QUO65DNQVV5Z7PB9QFZB34UNKQOUW", "dateTime": 1519414933724}, {"current_trial": 152, "trialdata": {"rt": -1000, "trial_type": "single-audio", "word": "wife", "stimulus": "/static/audio/wordpool/WIFE.wav", "conditions": [24, 800, "a", 24000], "internal_node_id": "0.0-107.0", "trial": 4, "time_elapsed": 877586, "serialpos": 7, "key_press": -1, "wordID": 1608, "type": "PRES_AUD", "trial_index": 152}, "uniqueid": "MTK2853:3QUO65DNQVV5Z7PB9QFZB34UNKQOUW", "dateTime": 1519414935462}, {"current_trial": 153, "trialdata": {"rt": -1000, "trial_type": "single-audio", "word": "casket", "stimulus": "/static/audio/wordpool/CASKET.wav", "conditions": [24, 800, "a", 24000], "internal_node_id": "0.0-108.0", "trial": 4, "time_elapsed": 879273, "serialpos": 8, "key_press": -1, "wordID": 254, "type": "PRES_AUD", "trial_index": 153}, "uniqueid": "MTK2853:3QUO65DNQVV5Z7PB9QFZB34UNKQOUW", "dateTime": 1519414937149}, {"current_trial": 154, "trialdata": {"rt": -1000, "trial_type": "single-audio", "word": "guard", "stimulus": "/static/audio/wordpool/GUARD.wav", "conditions": [24, 800, "a", 24000], "internal_node_id": "0.0-109.0", "trial": 4, "time_elapsed": 880905, "serialpos": 9, "key_press": -1, "wordID": 666, "type": "PRES_AUD", "trial_index": 154}, "uniqueid": "MTK2853:3QUO65DNQVV5Z7PB9QFZB34UNKQOUW", "dateTime": 1519414938781}, {"current_trial": 155, "trialdata": {"rt": -1000, "trial_type": "single-audio", "word": "igloo", "stimulus": "/static/audio/wordpool/IGLOO.wav", "conditions": [24, 800, "a", 24000], "internal_node_id": "0.0-110.0", "trial": 4, "time_elapsed": 882570, "serialpos": 10, "key_press": -1, "wordID": 733, "type": "PRES_AUD", "trial_index": 155}, "uniqueid": "MTK2853:3QUO65DNQVV5Z7PB9QFZB34UNKQOUW", "dateTime": 1519414940446}, {"current_trial": 156, "trialdata": {"rt": -1000, "trial_type": "single-audio", "word": "statue", "stimulus": "/static/audio/wordpool/STATUE.wav", "conditions": [24, 800, "a", 24000], "internal_node_id": "0.0-111.0", "trial": 4, "time_elapsed": 884307, "serialpos": 11, "key_press": -1, "wordID": 1373, "type": "PRES_AUD", "trial_index": 156}, "uniqueid": "MTK2853:3QUO65DNQVV5Z7PB9QFZB34UNKQOUW", "dateTime": 1519414942183}, {"current_trial": 157, "trialdata": {"rt": -1000, "trial_type": "single-audio", "word": "actor", "stimulus": "/static/audio/wordpool/ACTOR.wav", "conditions": [24, 800, "a", 24000], "internal_node_id": "0.0-112.0", "trial": 4, "time_elapsed": 886047, "serialpos": 12, "key_press": -1, "wordID": 4, "type": "PRES_AUD", "trial_index": 157}, "uniqueid": "MTK2853:3QUO65DNQVV5Z7PB9QFZB34UNKQOUW", "dateTime": 1519414943923}, {"current_trial": 158, "trialdata": {"rt": -1000, "trial_type": "single-audio", "word": "camel", "stimulus": "/static/audio/wordpool/CAMEL.wav", "conditions": [24, 800, "a", 24000], "internal_node_id": "0.0-113.0", "trial": 4, "time_elapsed": 887724, "serialpos": 13, "key_press": -1, "wordID": 222, "type": "PRES_AUD", "trial_index": 158}, "uniqueid": "MTK2853:3QUO65DNQVV5Z7PB9QFZB34UNKQOUW", "dateTime": 1519414945600}, {"current_trial": 159, "trialdata": {"rt": -1000, "trial_type": "single-audio", "word": "package", "stimulus": "/static/audio/wordpool/PACKAGE.wav", "conditions": [24, 800, "a", 24000], "internal_node_id": "0.0-114.0", "trial": 4, "time_elapsed": 889545, "serialpos": 14, "key_press": -1, "wordID": 996, "type": "PRES_AUD", "trial_index": 159}, "uniqueid": "MTK2853:3QUO65DNQVV5Z7PB9QFZB34UNKQOUW", "dateTime": 1519414947421}, {"current_trial": 160, "trialdata": {"rt": -1000, "trial_type": "single-audio", "word": "film", "stimulus": "/static/audio/wordpool/FILM.wav", "conditions": [24, 800, "a", 24000], "internal_node_id": "0.0-115.0", "trial": 4, "time_elapsed": 891209, "serialpos": 15, "key_press": -1, "wordID": 564, "type": "PRES_AUD", "trial_index": 160}, "uniqueid": "MTK2853:3QUO65DNQVV5Z7PB9QFZB34UNKQOUW", "dateTime": 1519414949086}, {"current_trial": 161, "trialdata": {"rt": -1000, "trial_type": "single-audio", "word": "mummy", "stimulus": "/static/audio/wordpool/MUMMY.wav", "conditions": [24, 800, "a", 24000], "internal_node_id": "0.0-116.0", "trial": 4, "time_elapsed": 892884, "serialpos": 16, "key_press": -1, "wordID": 931, "type": "PRES_AUD", "trial_index": 161}, "uniqueid": "MTK2853:3QUO65DNQVV5Z7PB9QFZB34UNKQOUW", "dateTime": 1519414950760}, {"current_trial": 162, "trialdata": {"rt": -1000, "trial_type": "single-audio", "word": "pork", "stimulus": "/static/audio/wordpool/PORK.wav", "conditions": [24, 800, "a", 24000], "internal_node_id": "0.0-117.0", "trial": 4, "time_elapsed": 894739, "serialpos": 17, "key_press": -1, "wordID": 1107, "type": "PRES_AUD", "trial_index": 162}, "uniqueid": "MTK2853:3QUO65DNQVV5Z7PB9QFZB34UNKQOUW", "dateTime": 1519414952615}, {"current_trial": 163, "trialdata": {"rt": -1000, "trial_type": "single-audio", "word": "beef", "stimulus": "/static/audio/wordpool/BEEF.wav", "conditions": [24, 800, "a", 24000], "internal_node_id": "0.0-118.0", "trial": 4, "time_elapsed": 896521, "serialpos": 18, "key_press": -1, "wordID": 112, "type": "PRES_AUD", "trial_index": 163}, "uniqueid": "MTK2853:3QUO65DNQVV5Z7PB9QFZB34UNKQOUW", "dateTime": 1519414954398}, {"current_trial": 164, "trialdata": {"rt": -1000, "trial_type": "single-audio", "word": "asia", "stimulus": "/static/audio/wordpool/ASIA.wav", "conditions": [24, 800, "a", 24000], "internal_node_id": "0.0-119.0", "trial": 4, "time_elapsed": 898256, "serialpos": 19, "key_press": -1, "wordID": 45, "type": "PRES_AUD", "trial_index": 164}, "uniqueid": "MTK2853:3QUO65DNQVV5Z7PB9QFZB34UNKQOUW", "dateTime": 1519414956132}, {"current_trial": 165, "trialdata": {"rt": -1000, "trial_type": "single-audio", "word": "canyon", "stimulus": "/static/audio/wordpool/CANYON.wav", "conditions": [24, 800, "a", 24000], "internal_node_id": "0.0-120.0", "trial": 4, "time_elapsed": 900186, "serialpos": 20, "key_press": -1, "wordID": 234, "type": "PRES_AUD", "trial_index": 165}, "uniqueid": "MTK2853:3QUO65DNQVV5Z7PB9QFZB34UNKQOUW", "dateTime": 1519414958062}, {"current_trial": 166, "trialdata": {"rt": -1000, "trial_type": "single-audio", "word": "termite", "stimulus": "/static/audio/wordpool/TERMITE.wav", "conditions": [24, 800, "a", 24000], "internal_node_id": "0.0-121.0", "trial": 4, "time_elapsed": 902185, "serialpos": 21, "key_press": -1, "wordID": 1450, "type": "PRES_AUD", "trial_index": 166}, "uniqueid": "MTK2853:3QUO65DNQVV5Z7PB9QFZB34UNKQOUW", "dateTime": 1519414960061}, {"current_trial": 167, "trialdata": {"rt": -1000, "trial_type": "single-audio", "word": "jello", "stimulus": "/static/audio/wordpool/JELLO.wav", "conditions": [24, 800, "a", 24000], "internal_node_id": "0.0-122.0", "trial": 4, "time_elapsed": 904117, "serialpos": 22, "key_press": -1, "wordID": 753, "type": "PRES_AUD", "trial_index": 167}, "uniqueid": "MTK2853:3QUO65DNQVV5Z7PB9QFZB34UNKQOUW", "dateTime": 1519414961993}, {"current_trial": 168, "trialdata": {"rt": -1000, "trial_type": "single-audio", "word": "staple", "stimulus": "/static/audio/wordpool/STAPLE.wav", "conditions": [24, 800, "a", 24000], "internal_node_id": "0.0-123.0", "trial": 4, "time_elapsed": 906088, "serialpos": 23, "key_press": -1, "wordID": 1370, "type": "PRES_AUD", "trial_index": 168}, "uniqueid": "MTK2853:3QUO65DNQVV5Z7PB9QFZB34UNKQOUW", "dateTime": 1519414963964}, {"current_trial": 169, "trialdata": {"rt": -1, "trial_type": "single-stim", "stimulus": "", "internal_node_id": "0.0-124.0-0.0", "time_elapsed": 907356, "key_press": -1, "type": "PRE_RECALL_DELAY", "trial_index": 169}, "uniqueid": "MTK2853:3QUO65DNQVV5Z7PB9QFZB34UNKQOUW", "dateTime": 1519414965232}, {"current_trial": 170, "trialdata": {"rt": -1000, "trial_type": "single-audio", "stimulus": "/static/audio/400Hz.wav", "internal_node_id": "0.0-125.0", "time_elapsed": 907857, "key_press": -1, "type": "PRE_RECALL_ALERT", "trial_index": 170}, "uniqueid": "MTK2853:3QUO65DNQVV5Z7PB9QFZB34UNKQOUW", "dateTime": 1519414965733}, {"current_trial": 171, "trialdata": {"rt": [3037, 4699, 5860, 8611, 10440, 20110, 28494, 54381], "recwords": ["staple", "jello", "mummy", "asia", "pork", "police", "crap", "beef"], "key_times": [1460, 1597, 1802, 2006, 2142, 2225, 3037, 3409, 3546, 3654, 3755, 4160, 4699, 4937, 5142, 5313, 5450, 5588, 5860, 6180, 6388, 6589, 6725, 8611, 9822, 9958, 10098, 10269, 10440, 17033, 18008, 18346, 18481, 18722, 18829, 20110, 27009, 27276, 27377, 27482, 28494, 53884, 53990, 54126, 54297, 54381], "trial_type": "free-recall", "conditions": [24, 800, "a", 24000], "internal_node_id": "0.0-126.0-0.0", "key_presses": [83, 84, 65, 80, 76, 69, 13, 74, 69, 76, 76, 79, 13, 77, 85, 77, 77, 89, 13, 65, 83, 73, 65, 13, 80, 79, 82, 75, 13, 80, 79, 76, 73, 67, 69, 13, 67, 82, 65, 80, 13, 66, 69, 69, 70, 13], "trial": 4, "time_elapsed": 967859, "type": "FREE_RECALL", "trial_index": 171}, "uniqueid": "MTK2853:3QUO65DNQVV5Z7PB9QFZB34UNKQOUW", "dateTime": 1519415025738}, {"current_trial": 172, "trialdata": {"rt": 1122, "trial_type": "text", "internal_node_id": "0.0-127.0", "time_elapsed": 970986, "key_press": 13, "type": "INSTRUCTIONS", "trial_index": 172}, "uniqueid": "MTK2853:3QUO65DNQVV5Z7PB9QFZB34UNKQOUW", "dateTime": 1519415028862}, {"current_trial": 173, "trialdata": {"rt": [2244, 4605, 7605, 10011, 14924, 18485, 21307], "trial_type": "math-distractor", "key_times": [1999, 2067, 2244, 4429, 4498, 4605, 7466, 7568, 7605, 9763, 9934, 10011, 14177, 14482, 14924, 17973, 18314, 18485, 21109, 21177, 21307], "responses": ["18", "15", "12", "14", "14", "10", "12"], "num2": [5, 9, 4, 1, 9, 5, 4, 3], "num3": [8, 1, 3, 6, 3, 3, 7, 2], "conditions": [12, 1600, "a", 24000], "internal_node_id": "0.0-128.0", "key_presses": [97, 104, 13, 97, 101, 13, 97, 98, 13, 97, 100, 13, 97, 100, 13, 97, 96, 13, 97, 98, 13], "trial": 5, "time_elapsed": 996990, "type": "DISTRACTOR", "trial_index": 173, "num1": [5, 5, 5, 7, 2, 2, 1, 9]}, "uniqueid": "MTK2853:3QUO65DNQVV5Z7PB9QFZB34UNKQOUW", "dateTime": 1519415054867}, {"current_trial": 174, "trialdata": {"rt": -1, "trial_type": "single-stim", "stimulus": "<p id=\"stim\">10</p>", "internal_node_id": "0.0-129.0-0.0", "time_elapsed": 999994, "key_press": -1, "trial_index": 174}, "uniqueid": "MTK2853:3QUO65DNQVV5Z7PB9QFZB34UNKQOUW", "dateTime": 1519415057870}, {"current_trial": 175, "trialdata": {"rt": -1, "trial_type": "single-stim", "stimulus": "<p id=\"stim\">9</p>", "internal_node_id": "0.0-129.0-1.0", "time_elapsed": 1000995, "key_press": -1, "trial_index": 175}, "uniqueid": "MTK2853:3QUO65DNQVV5Z7PB9QFZB34UNKQOUW", "dateTime": 1519415058871}, {"current_trial": 176, "trialdata": {"rt": -1, "trial_type": "single-stim", "stimulus": "<p id=\"stim\">8</p>", "internal_node_id": "0.0-129.0-2.0", "time_elapsed": 1001997, "key_press": -1, "trial_index": 176}, "uniqueid": "MTK2853:3QUO65DNQVV5Z7PB9QFZB34UNKQOUW", "dateTime": 1519415059873}, {"current_trial": 177, "trialdata": {"rt": -1, "trial_type": "single-stim", "stimulus": "<p id=\"stim\">7</p>", "internal_node_id": "0.0-129.0-3.0", "time_elapsed": 1002999, "key_press": -1, "trial_index": 177}, "uniqueid": "MTK2853:3QUO65DNQVV5Z7PB9QFZB34UNKQOUW", "dateTime": 1519415060875}, {"current_trial": 178, "trialdata": {"rt": -1, "trial_type": "single-stim", "stimulus": "<p id=\"stim\">6</p>", "internal_node_id": "0.0-129.0-4.0", "time_elapsed": 1004001, "key_press": -1, "trial_index": 178}, "uniqueid": "MTK2853:3QUO65DNQVV5Z7PB9QFZB34UNKQOUW", "dateTime": 1519415061877}, {"current_trial": 179, "trialdata": {"rt": -1, "trial_type": "single-stim", "stimulus": "<p id=\"stim\">5</p>", "internal_node_id": "0.0-129.0-5.0", "time_elapsed": 1005003, "key_press": -1, "trial_index": 179}, "uniqueid": "MTK2853:3QUO65DNQVV5Z7PB9QFZB34UNKQOUW", "dateTime": 1519415062879}, {"current_trial": 180, "trialdata": {"rt": -1, "trial_type": "single-stim", "stimulus": "<p id=\"stim\">4</p>", "internal_node_id": "0.0-129.0-6.0", "time_elapsed": 1006004, "key_press": -1, "trial_index": 180}, "uniqueid": "MTK2853:3QUO65DNQVV5Z7PB9QFZB34UNKQOUW", "dateTime": 1519415063880}, {"current_trial": 181, "trialdata": {"rt": -1, "trial_type": "single-stim", "stimulus": "<p id=\"stim\">3</p>", "internal_node_id": "0.0-129.0-7.0", "time_elapsed": 1007005, "key_press": -1, "trial_index": 181}, "uniqueid": "MTK2853:3QUO65DNQVV5Z7PB9QFZB34UNKQOUW", "dateTime": 1519415064881}, {"current_trial": 182, "trialdata": {"rt": -1, "trial_type": "single-stim", "stimulus": "<p id=\"stim\">2</p>", "internal_node_id": "0.0-129.0-8.0", "time_elapsed": 1008006, "key_press": -1, "trial_index": 182}, "uniqueid": "MTK2853:3QUO65DNQVV5Z7PB9QFZB34UNKQOUW", "dateTime": 1519415065882}, {"current_trial": 183, "trialdata": {"rt": -1, "trial_type": "single-stim", "stimulus": "<p id=\"stim\">1</p>", "internal_node_id": "0.0-129.0-9.0", "time_elapsed": 1009008, "key_press": -1, "trial_index": 183}, "uniqueid": "MTK2853:3QUO65DNQVV5Z7PB9QFZB34UNKQOUW", "dateTime": 1519415066884}, {"current_trial": 184, "trialdata": {"rt": -1, "trial_type": "single-stim", "stimulus": "<p id=\"stim\">+</p>", "internal_node_id": "0.0-130.0-0.0", "time_elapsed": 1010509, "key_press": -1, "type": "FIXATION", "trial_index": 184}, "uniqueid": "MTK2853:3QUO65DNQVV5Z7PB9QFZB34UNKQOUW", "dateTime": 1519415068385}, {"current_trial": 185, "trialdata": {"rt": -1000, "trial_type": "single-audio", "word": "waiter", "stimulus": "/static/audio/wordpool/WAITER.wav", "conditions": [12, 1600, "a", 24000], "internal_node_id": "0.0-131.0", "trial": 5, "time_elapsed": 1013199, "serialpos": 0, "key_press": -1, "wordID": 1579, "type": "PRES_AUD", "trial_index": 185}, "uniqueid": "MTK2853:3QUO65DNQVV5Z7PB9QFZB34UNKQOUW", "dateTime": 1519415071075}, {"current_trial": 186, "trialdata": {"rt": -1000, "trial_type": "single-audio", "word": "pigment", "stimulus": "/static/audio/wordpool/PIGMENT.wav", "conditions": [12, 1600, "a", 24000], "internal_node_id": "0.0-132.0", "trial": 5, "time_elapsed": 1015648, "serialpos": 1, "key_press": -1, "wordID": 1065, "type": "PRES_AUD", "trial_index": 186}, "uniqueid": "MTK2853:3QUO65DNQVV5Z7PB9QFZB34UNKQOUW", "dateTime": 1519415073524}, {"current_trial": 187, "trialdata": {"rt": -1000, "trial_type": "single-audio", "word": "flipper", "stimulus": "/static/audio/wordpool/FLIPPER.wav", "conditions": [12, 1600, "a", 24000], "internal_node_id": "0.0-133.0", "trial": 5, "time_elapsed": 1018412, "serialpos": 2, "key_press": -1, "wordID": 579, "type": "PRES_AUD", "trial_index": 187}, "uniqueid": "MTK2853:3QUO65DNQVV5Z7PB9QFZB34UNKQOUW", "dateTime": 1519415076288}, {"current_trial": 188, "trialdata": {"rt": -1000, "trial_type": "single-audio", "word": "doughnut", "stimulus": "/static/audio/wordpool/DOUGHNUT.wav", "conditions": [12, 1600, "a", 24000], "internal_node_id": "0.0-134.0", "trial": 5, "time_elapsed": 1021077, "serialpos": 3, "key_press": -1, "wordID": 489, "type": "PRES_AUD", "trial_index": 188}, "uniqueid": "MTK2853:3QUO65DNQVV5Z7PB9QFZB34UNKQOUW", "dateTime": 1519415078953}, {"current_trial": 189, "trialdata": {"rt": -1000, "trial_type": "single-audio", "word": "muffin", "stimulus": "/static/audio/wordpool/MUFFIN.wav", "conditions": [12, 1600, "a", 24000], "internal_node_id": "0.0-135.0", "trial": 5, "time_elapsed": 1023848, "serialpos": 4, "key_press": -1, "wordID": 928, "type": "PRES_AUD", "trial_index": 189}, "uniqueid": "MTK2853:3QUO65DNQVV5Z7PB9QFZB34UNKQOUW", "dateTime": 1519415081724}, {"current_trial": 190, "trialdata": {"rt": -1000, "trial_type": "single-audio", "word": "diner", "stimulus": "/static/audio/wordpool/DINER.wav", "conditions": [12, 1600, "a", 24000], "internal_node_id": "0.0-136.0", "trial": 5, "time_elapsed": 1026365, "serialpos": 5, "key_press": -1, "wordID": 466, "type": "PRES_AUD", "trial_index": 190}, "uniqueid": "MTK2853:3QUO65DNQVV5Z7PB9QFZB34UNKQOUW", "dateTime": 1519415084241}, {"current_trial": 191, "trialdata": {"rt": -1000, "trial_type": "single-audio", "word": "lizard", "stimulus": "/static/audio/wordpool/LIZARD.wav", "conditions": [12, 1600, "a", 24000], "internal_node_id": "0.0-137.0", "trial": 5, "time_elapsed": 1028965, "serialpos": 6, "key_press": -1, "wordID": 833, "type": "PRES_AUD", "trial_index": 191}, "uniqueid": "MTK2853:3QUO65DNQVV5Z7PB9QFZB34UNKQOUW", "dateTime": 1519415086841}, {"current_trial": 192, "trialdata": {"rt": -1000, "trial_type": "single-audio", "word": "bureau", "stimulus": "/static/audio/wordpool/BUREAU.wav", "conditions": [12, 1600, "a", 24000], "internal_node_id": "0.0-138.0", "trial": 5, "time_elapsed": 1031378, "serialpos": 7, "key_press": -1, "wordID": 198, "type": "PRES_AUD", "trial_index": 192}, "uniqueid": "MTK2853:3QUO65DNQVV5Z7PB9QFZB34UNKQOUW", "dateTime": 1519415089254}, {"current_trial": 193, "trialdata": {"rt": -1000, "trial_type": "single-audio", "word": "marker", "stimulus": "/static/audio/wordpool/MARKER.wav", "conditions": [12, 1600, "a", 24000], "internal_node_id": "0.0-139.0", "trial": 5, "time_elapsed": 1034001, "serialpos": 8, "key_press": -1, "wordID": 869, "type": "PRES_AUD", "trial_index": 193}, "uniqueid": "MTK2853:3QUO65DNQVV5Z7PB9QFZB34UNKQOUW", "dateTime": 1519415091877}, {"current_trial": 194, "trialdata": {"rt": -1000, "trial_type": "single-audio", "word": "portrait", "stimulus": "/static/audio/wordpool/PORTRAIT.wav", "conditions": [12, 1600, "a", 24000], "internal_node_id": "0.0-140.0", "trial": 5, "time_elapsed": 1036523, "serialpos": 9, "key_press": -1, "wordID": 1110, "type": "PRES_AUD", "trial_index": 194}, "uniqueid": "MTK2853:3QUO65DNQVV5Z7PB9QFZB34UNKQOUW", "dateTime": 1519415094399}, {"current_trial": 195, "trialdata": {"rt": -1000, "trial_type": "single-audio", "word": "taxi", "stimulus": "/static/audio/wordpool/TAXI.wav", "conditions": [12, 1600, "a", 24000], "internal_node_id": "0.0-141.0", "trial": 5, "time_elapsed": 1039254, "serialpos": 10, "key_press": -1, "wordID": 1437, "type": "PRES_AUD", "trial_index": 195}, "uniqueid": "MTK2853:3QUO65DNQVV5Z7PB9QFZB34UNKQOUW", "dateTime": 1519415097130}, {"current_trial": 196, "trialdata": {"rt": -1000, "trial_type": "single-audio", "word": "foot", "stimulus": "/static/audio/wordpool/FOOT.wav", "conditions": [12, 1600, "a", 24000], "internal_node_id": "0.0-142.0", "trial": 5, "time_elapsed": 1041690, "serialpos": 11, "key_press": -1, "wordID": 589, "type": "PRES_AUD", "trial_index": 196}, "uniqueid": "MTK2853:3QUO65DNQVV5Z7PB9QFZB34UNKQOUW", "dateTime": 1519415099566}, {"current_trial": 197, "trialdata": {"rt": -1, "trial_type": "single-stim", "stimulus": "", "internal_node_id": "0.0-143.0-0.0", "time_elapsed": 1043067, "key_press": -1, "type": "PRE_RECALL_DELAY", "trial_index": 197}, "uniqueid": "MTK2853:3QUO65DNQVV5Z7PB9QFZB34UNKQOUW", "dateTime": 1519415100943}, {"current_trial": 198, "trialdata": {"rt": -1000, "trial_type": "single-audio", "stimulus": "/static/audio/400Hz.wav", "internal_node_id": "0.0-144.0", "time_elapsed": 1043568, "key_press": -1, "type": "PRE_RECALL_ALERT", "trial_index": 198}, "uniqueid": "MTK2853:3QUO65DNQVV5Z7PB9QFZB34UNKQOUW", "dateTime": 1519415101444}, {"current_trial": 199, "trialdata": {"rt": [3104, 3796, 8157, 17171], "recwords": ["taxi", "foot", "portrait", "marker"], "key_times": [1382, 1954, 2259, 2361, 3104, 3309, 3410, 3517, 3688, 3796, 4533, 5005, 6048, 6487, 6725, 6860, 6965, 7044, 8157, 16162, 16433, 16635, 16778, 16944, 17048, 17171], "trial_type": "free-recall", "conditions": [12, 1600, "a", 24000], "internal_node_id": "0.0-145.0-0.0", "key_presses": [84, 65, 88, 73, 13, 70, 79, 79, 84, 13, 80, 79, 82, 84, 82, 65, 73, 84, 13, 77, 65, 82, 75, 69, 82, 13], "trial": 5, "time_elapsed": 1103570, "type": "FREE_RECALL", "trial_index": 199}, "uniqueid": "MTK2853:3QUO65DNQVV5Z7PB9QFZB34UNKQOUW", "dateTime": 1519415161449}, {"current_trial": 200, "trialdata": {"rt": 900, "trial_type": "text", "internal_node_id": "0.0-146.0", "time_elapsed": 1106475, "key_press": 13, "type": "INSTRUCTIONS", "trial_index": 200}, "uniqueid": "MTK2853:3QUO65DNQVV5Z7PB9QFZB34UNKQOUW", "dateTime": 1519415164351}, {"current_trial": 201, "trialdata": {"rt": [4125, 9618, 12482, 14601, 16614, 18808, 22396], "trial_type": "math-distractor", "key_times": [2874, 3045, 4125, 9304, 9439, 9618, 12070, 12308, 12482, 14186, 14427, 14601, 16299, 16470, 16614, 18460, 18664, 18808, 22000, 22222, 22396], "responses": ["15", "20", "17", "13", "11", "14", "25"], "num2": [2, 9, 1, 3, 3, 3, 7, 7], "num3": [9, 4, 9, 5, 4, 3, 9, 4], "conditions": [24, 1600, "a", 24000], "internal_node_id": "0.0-147.0", "key_presses": [97, 101, 13, 98, 96, 13, 97, 103, 13, 97, 99, 13, 97, 97, 13, 97, 100, 13, 98, 101, 13], "trial": 6, "time_elapsed": 1132479, "type": "DISTRACTOR", "trial_index": 201, "num1": [4, 7, 7, 5, 4, 8, 9, 1]}, "uniqueid": "MTK2853:3QUO65DNQVV5Z7PB9QFZB34UNKQOUW", "dateTime": 1519415190355}, {"current_trial": 202, "trialdata": {"rt": -1, "trial_type": "single-stim", "stimulus": "<p id=\"stim\">10</p>", "internal_node_id": "0.0-148.0-0.0", "time_elapsed": 1135482, "key_press": -1, "trial_index": 202}, "uniqueid": "MTK2853:3QUO65DNQVV5Z7PB9QFZB34UNKQOUW", "dateTime": 1519415193358}, {"current_trial": 203, "trialdata": {"rt": -1, "trial_type": "single-stim", "stimulus": "<p id=\"stim\">9</p>", "internal_node_id": "0.0-148.0-1.0", "time_elapsed": 1136483, "key_press": -1, "trial_index": 203}, "uniqueid": "MTK2853:3QUO65DNQVV5Z7PB9QFZB34UNKQOUW", "dateTime": 1519415194359}, {"current_trial": 204, "trialdata": {"rt": -1, "trial_type": "single-stim", "stimulus": "<p id=\"stim\">8</p>", "internal_node_id": "0.0-148.0-2.0", "time_elapsed": 1137484, "key_press": -1, "trial_index": 204}, "uniqueid": "MTK2853:3QUO65DNQVV5Z7PB9QFZB34UNKQOUW", "dateTime": 1519415195360}, {"current_trial": 205, "trialdata": {"rt": -1, "trial_type": "single-stim", "stimulus": "<p id=\"stim\">7</p>", "internal_node_id": "0.0-148.0-3.0", "time_elapsed": 1138485, "key_press": -1, "trial_index": 205}, "uniqueid": "MTK2853:3QUO65DNQVV5Z7PB9QFZB34UNKQOUW", "dateTime": 1519415196361}, {"current_trial": 206, "trialdata": {"rt": -1, "trial_type": "single-stim", "stimulus": "<p id=\"stim\">6</p>", "internal_node_id": "0.0-148.0-4.0", "time_elapsed": 1139487, "key_press": -1, "trial_index": 206}, "uniqueid": "MTK2853:3QUO65DNQVV5Z7PB9QFZB34UNKQOUW", "dateTime": 1519415197363}, {"current_trial": 207, "trialdata": {"rt": -1, "trial_type": "single-stim", "stimulus": "<p id=\"stim\">5</p>", "internal_node_id": "0.0-148.0-5.0", "time_elapsed": 1140490, "key_press": -1, "trial_index": 207}, "uniqueid": "MTK2853:3QUO65DNQVV5Z7PB9QFZB34UNKQOUW", "dateTime": 1519415198366}, {"current_trial": 208, "trialdata": {"rt": -1, "trial_type": "single-stim", "stimulus": "<p id=\"stim\">4</p>", "internal_node_id": "0.0-148.0-6.0", "time_elapsed": 1141492, "key_press": -1, "trial_index": 208}, "uniqueid": "MTK2853:3QUO65DNQVV5Z7PB9QFZB34UNKQOUW", "dateTime": 1519415199368}, {"current_trial": 209, "trialdata": {"rt": -1, "trial_type": "single-stim", "stimulus": "<p id=\"stim\">3</p>", "internal_node_id": "0.0-148.0-7.0", "time_elapsed": 1142493, "key_press": -1, "trial_index": 209}, "uniqueid": "MTK2853:3QUO65DNQVV5Z7PB9QFZB34UNKQOUW", "dateTime": 1519415200369}, {"current_trial": 210, "trialdata": {"rt": -1, "trial_type": "single-stim", "stimulus": "<p id=\"stim\">2</p>", "internal_node_id": "0.0-148.0-8.0", "time_elapsed": 1143495, "key_press": -1, "trial_index": 210}, "uniqueid": "MTK2853:3QUO65DNQVV5Z7PB9QFZB34UNKQOUW", "dateTime": 1519415201371}, {"current_trial": 211, "trialdata": {"rt": -1, "trial_type": "single-stim", "stimulus": "<p id=\"stim\">1</p>", "internal_node_id": "0.0-148.0-9.0", "time_elapsed": 1144496, "key_press": -1, "trial_index": 211}, "uniqueid": "MTK2853:3QUO65DNQVV5Z7PB9QFZB34UNKQOUW", "dateTime": 1519415202372}, {"current_trial": 212, "trialdata": {"rt": -1, "trial_type": "single-stim", "stimulus": "<p id=\"stim\">+</p>", "internal_node_id": "0.0-149.0-0.0", "time_elapsed": 1145999, "key_press": -1, "type": "FIXATION", "trial_index": 212}, "uniqueid": "MTK2853:3QUO65DNQVV5Z7PB9QFZB34UNKQOUW", "dateTime": 1519415203875}, {"current_trial": 213, "trialdata": {"rt": -1000, "trial_type": "single-audio", "word": "mattress", "stimulus": "/static/audio/wordpool/MATTRESS.wav", "conditions": [24, 1600, "a", 24000], "internal_node_id": "0.0-150.0", "trial": 6, "time_elapsed": 1148411, "serialpos": 0, "key_press": -1, "wordID": 878, "type": "PRES_AUD", "trial_index": 213}, "uniqueid": "MTK2853:3QUO65DNQVV5Z7PB9QFZB34UNKQOUW", "dateTime": 1519415206287}, {"current_trial": 214, "trialdata": {"rt": -1000, "trial_type": "single-audio", "word": "pastry", "stimulus": "/static/audio/wordpool/PASTRY.wav", "conditions": [24, 1600, "a", 24000], "internal_node_id": "0.0-151.0", "trial": 6, "time_elapsed": 1150999, "serialpos": 1, "key_press": -1, "wordID": 1021, "type": "PRES_AUD", "trial_index": 214}, "uniqueid": "MTK2853:3QUO65DNQVV5Z7PB9QFZB34UNKQOUW", "dateTime": 1519415208875}, {"current_trial": 215, "trialdata": {"rt": -1000, "trial_type": "single-audio", "word": "space", "stimulus": "/static/audio/wordpool/SPACE.wav", "conditions": [24, 1600, "a", 24000], "internal_node_id": "0.0-152.0", "trial": 6, "time_elapsed": 1153543, "serialpos": 2, "key_press": -1, "wordID": 1344, "type": "PRES_AUD", "trial_index": 215}, "uniqueid": "MTK2853:3QUO65DNQVV5Z7PB9QFZB34UNKQOUW", "dateTime": 1519415211419}, {"current_trial": 216, "trialdata": {"rt": -1000, "trial_type": "single-audio", "word": "world", "stimulus": "/static/audio/wordpool/WORLD.wav", "conditions": [24, 1600, "a", 24000], "internal_node_id": "0.0-153.0", "trial": 6, "time_elapsed": 1156260, "serialpos": 3, "key_press": -1, "wordID": 1621, "type": "PRES_AUD", "trial_index": 216}, "uniqueid": "MTK2853:3QUO65DNQVV5Z7PB9QFZB34UNKQOUW", "dateTime": 1519415214137}, {"current_trial": 217, "trialdata": {"rt": -1000, "trial_type": "single-audio", "word": "spouse", "stimulus": "/static/audio/wordpool/SPOUSE.wav", "conditions": [24, 1600, "a", 24000], "internal_node_id": "0.0-154.0", "trial": 6, "time_elapsed": 1158832, "serialpos": 4, "key_press": -1, "wordID": 1357, "type": "PRES_AUD", "trial_index": 217}, "uniqueid": "MTK2853:3QUO65DNQVV5Z7PB9QFZB34UNKQOUW", "dateTime": 1519415216708}, {"current_trial": 218, "trialdata": {"rt": -1000, "trial_type": "single-audio", "word": "dustpan", "stimulus": "/static/audio/wordpool/DUSTPAN.wav", "conditions": [24, 1600, "a", 24000], "internal_node_id": "0.0-155.0", "trial": 6, "time_elapsed": 1161605, "serialpos": 5, "key_press": -1, "wordID": 508, "type": "PRES_AUD", "trial_index": 218}, "uniqueid": "MTK2853:3QUO65DNQVV5Z7PB9QFZB34UNKQOUW", "dateTime": 1519415219481}, {"current_trial": 219, "trialdata": {"rt": -1000, "trial_type": "single-audio", "word": "salad", "stimulus": "/static/audio/wordpool/SALAD.wav", "conditions": [24, 1600, "a", 24000], "internal_node_id": "0.0-156.0", "trial": 6, "time_elapsed": 1164118, "serialpos": 6, "key_press": -1, "wordID": 1223, "type": "PRES_AUD", "trial_index": 219}, "uniqueid": "MTK2853:3QUO65DNQVV5Z7PB9QFZB34UNKQOUW", "dateTime": 1519415221994}, {"current_trial": 220, "trialdata": {"rt": -1000, "trial_type": "single-audio", "word": "shortcake", "stimulus": "/static/audio/wordpool/SHORTCAKE.wav", "conditions": [24, 1600, "a", 24000], "internal_node_id": "0.0-157.0", "trial": 6, "time_elapsed": 1166533, "serialpos": 7, "key_press": -1, "wordID": 1291, "type": "PRES_AUD", "trial_index": 220}, "uniqueid": "MTK2853:3QUO65DNQVV5Z7PB9QFZB34UNKQOUW", "dateTime": 1519415224409}, {"current_trial": 221, "trialdata": {"rt": -1000, "trial_type": "single-audio", "word": "country", "stimulus": "/static/audio/wordpool/COUNTRY.wav", "conditions": [24, 1600, "a", 24000], "internal_node_id": "0.0-158.0", "trial": 6, "time_elapsed": 1169059, "serialpos": 8, "key_press": -1, "wordID": 387, "type": "PRES_AUD", "trial_index": 221}, "uniqueid": "MTK2853:3QUO65DNQVV5Z7PB9QFZB34UNKQOUW", "dateTime": 1519415226935}, {"current_trial": 222, "trialdata": {"rt": -1000, "trial_type": "single-audio", "word": "friend", "stimulus": "/static/audio/wordpool/FRIEND.wav", "conditions": [24, 1600, "a", 24000], "internal_node_id": "0.0-159.0", "trial": 6, "time_elapsed": 1171641, "serialpos": 9, "key_press": -1, "wordID": 605, "type": "PRES_AUD", "trial_index": 222}, "uniqueid": "MTK2853:3QUO65DNQVV5Z7PB9QFZB34UNKQOUW", "dateTime": 1519415229517}, {"current_trial": 223, "trialdata": {"rt": -1000, "trial_type": "single-audio", "word": "mustard", "stimulus": "/static/audio/wordpool/MUSTARD.wav", "conditions": [24, 1600, "a", 24000], "internal_node_id": "0.0-160.0", "trial": 6, "time_elapsed": 1174434, "serialpos": 10, "key_press": -1, "wordID": 934, "type": "PRES_AUD", "trial_index": 223}, "uniqueid": "MTK2853:3QUO65DNQVV5Z7PB9QFZB34UNKQOUW", "dateTime": 1519415232310}, {"current_trial": 224, "trialdata": {"rt": -1000, "trial_type": "single-audio", "word": "typist", "stimulus": "/static/audio/wordpool/TYPIST.wav", "conditions": [24, 1600, "a", 24000], "internal_node_id": "0.0-161.0", "trial": 6, "time_elapsed": 1177021, "serialpos": 11, "key_press": -1, "wordID": 1531, "type": "PRES_AUD", "trial_index": 224}, "uniqueid": "MTK2853:3QUO65DNQVV5Z7PB9QFZB34UNKQOUW", "dateTime": 1519415234897}, {"current_trial": 225, "trialdata": {"rt": -1000, "trial_type": "single-audio", "word": "church", "stimulus": "/static/audio/wordpool/CHURCH.wav", "conditions": [24, 1600, "a", 24000], "internal_node_id": "0.0-162.0", "trial": 6, "time_elapsed": 1179590, "serialpos": 12, "key_press": -1, "wordID": 306, "type": "PRES_AUD", "trial_index": 225}, "uniqueid": "MTK2853:3QUO65DNQVV5Z7PB9QFZB34UNKQOUW", "dateTime": 1519415237466}, {"current_trial": 226, "trialdata": {"rt": -1000, "trial_type": "single-audio", "word": "belly", "stimulus": "/static/audio/wordpool/BELLY.wav", "conditions": [24, 1600, "a", 24000], "internal_node_id": "0.0-163.0", "trial": 6, "time_elapsed": 1182166, "serialpos": 13, "key_press": -1, "wordID": 118, "type": "PRES_AUD", "trial_index": 226}, "uniqueid": "MTK2853:3QUO65DNQVV5Z7PB9QFZB34UNKQOUW", "dateTime": 1519415240042}, {"current_trial": 227, "trialdata": {"rt": -1000, "trial_type": "single-audio", "word": "luggage", "stimulus": "/static/audio/wordpool/LUGGAGE.wav", "conditions": [24, 1600, "a", 24000], "internal_node_id": "0.0-164.0", "trial": 6, "time_elapsed": 1184951, "serialpos": 14, "key_press": -1, "wordID": 846, "type": "PRES_AUD", "trial_index": 227}, "uniqueid": "MTK2853:3QUO65DNQVV5Z7PB9QFZB34UNKQOUW", "dateTime": 1519415242827}, {"current_trial": 228, "trialdata": {"rt": -1000, "trial_type": "single-audio", "word": "leg", "stimulus": "/static/audio/wordpool/LEG.wav", "conditions": [24, 1600, "a", 24000], "internal_node_id": "0.0-165.0", "trial": 6, "time_elapsed": 1187549, "serialpos": 15, "key_press": -1, "wordID": 808, "type": "PRES_AUD", "trial_index": 228}, "uniqueid": "MTK2853:3QUO65DNQVV5Z7PB9QFZB34UNKQOUW", "dateTime": 1519415245426}, {"current_trial": 229, "trialdata": {"rt": -1000, "trial_type": "single-audio", "word": "novel", "stimulus": "/static/audio/wordpool/NOVEL.wav", "conditions": [24, 1600, "a", 24000], "internal_node_id": "0.0-166.0", "trial": 6, "time_elapsed": 1190172, "serialpos": 16, "key_press": -1, "wordID": 959, "type": "PRES_AUD", "trial_index": 229}, "uniqueid": "MTK2853:3QUO65DNQVV5Z7PB9QFZB34UNKQOUW", "dateTime": 1519415248049}, {"current_trial": 230, "trialdata": {"rt": -1000, "trial_type": "single-audio", "word": "smog", "stimulus": "/static/audio/wordpool/SMOG.wav", "conditions": [24, 1600, "a", 24000], "internal_node_id": "0.0-167.0", "trial": 6, "time_elapsed": 1192756, "serialpos": 17, "key_press": -1, "wordID": 1329, "type": "PRES_AUD", "trial_index": 230}, "uniqueid": "MTK2853:3QUO65DNQVV5Z7PB9QFZB34UNKQOUW", "dateTime": 1519415250632}, {"current_trial": 231, "trialdata": {"rt": -1000, "trial_type": "single-audio", "word": "ozone", "stimulus": "/static/audio/wordpool/OZONE.wav", "conditions": [24, 1600, "a", 24000], "internal_node_id": "0.0-168.0", "trial": 6, "time_elapsed": 1195401, "serialpos": 18, "key_press": -1, "wordID": 995, "type": "PRES_AUD", "trial_index": 231}, "uniqueid": "MTK2853:3QUO65DNQVV5Z7PB9QFZB34UNKQOUW", "dateTime": 1519415253278}, {"current_trial": 232, "trialdata": {"rt": -1000, "trial_type": "single-audio", "word": "chapel", "stimulus": "/static/audio/wordpool/CHAPEL.wav", "conditions": [24, 1600, "a", 24000], "internal_node_id": "0.0-169.0", "trial": 6, "time_elapsed": 1198175, "serialpos": 19, "key_press": -1, "wordID": 279, "type": "PRES_AUD", "trial_index": 232}, "uniqueid": "MTK2853:3QUO65DNQVV5Z7PB9QFZB34UNKQOUW", "dateTime": 1519415256051}, {"current_trial": 233, "trialdata": {"rt": -1000, "trial_type": "single-audio", "word": "pasta", "stimulus": "/static/audio/wordpool/PASTA.wav", "conditions": [24, 1600, "a", 24000], "internal_node_id": "0.0-170.0", "trial": 6, "time_elapsed": 1200968, "serialpos": 20, "key_press": -1, "wordID": 1020, "type": "PRES_AUD", "trial_index": 233}, "uniqueid": "MTK2853:3QUO65DNQVV5Z7PB9QFZB34UNKQOUW", "dateTime": 1519415258844}, {"current_trial": 234, "trialdata": {"rt": -1000, "trial_type": "single-audio", "word": "match", "stimulus": "/static/audio/wordpool/MATCH.wav", "conditions": [24, 1600, "a", 24000], "internal_node_id": "0.0-171.0", "trial": 6, "time_elapsed": 1203491, "serialpos": 21, "key_press": -1, "wordID": 877, "type": "PRES_AUD", "trial_index": 234}, "uniqueid": "MTK2853:3QUO65DNQVV5Z7PB9QFZB34UNKQOUW", "dateTime": 1519415261367}, {"current_trial": 235, "trialdata": {"rt": -1000, "trial_type": "single-audio", "word": "valley", "stimulus": "/static/audio/wordpool/VALLEY.wav", "conditions": [24, 1600, "a", 24000], "internal_node_id": "0.0-172.0", "trial": 6, "time_elapsed": 1205928, "serialpos": 22, "key_press": -1, "wordID": 1544, "type": "PRES_AUD", "trial_index": 235}, "uniqueid": "MTK2853:3QUO65DNQVV5Z7PB9QFZB34UNKQOUW", "dateTime": 1519415263804}, {"current_trial": 236, "trialdata": {"rt": -1000, "trial_type": "single-audio", "word": "pebble", "stimulus": "/static/audio/wordpool/PEBBLE.wav", "conditions": [24, 1600, "a", 24000], "internal_node_id": "0.0-173.0", "trial": 6, "time_elapsed": 1208596, "serialpos": 23, "key_press": -1, "wordID": 1034, "type": "PRES_AUD", "trial_index": 236}, "uniqueid": "MTK2853:3QUO65DNQVV5Z7PB9QFZB34UNKQOUW", "dateTime": 1519415266473}, {"current_trial": 237, "trialdata": {"rt": -1, "trial_type": "single-stim", "stimulus": "", "internal_node_id": "0.0-174.0-0.0", "time_elapsed": 1209934, "key_press": -1, "type": "PRE_RECALL_DELAY", "trial_index": 237}, "uniqueid": "MTK2853:3QUO65DNQVV5Z7PB9QFZB34UNKQOUW", "dateTime": 1519415267810}, {"current_trial": 238, "trialdata": {"rt": -1000, "trial_type": "single-audio", "stimulus": "/static/audio/400Hz.wav", "internal_node_id": "0.0-175.0", "time_elapsed": 1210436, "key_press": -1, "type": "PRE_RECALL_ALERT", "trial_index": 238}, "uniqueid": "MTK2853:3QUO65DNQVV5Z7PB9QFZB34UNKQOUW", "dateTime": 1519415268312}, {"current_trial": 239, "trialdata": {"rt": [2923, 3950, 7301, 13036], "recwords": ["pebble", "match", "valley", "pasta"], "key_times": [1189, 1499, 1770, 1908, 2146, 2284, 2923, 3161, 3230, 3367, 3575, 3716, 3950, 4356, 4594, 4767, 5203, 5408, 5546, 5717, 5855, 7301, 11909, 12214, 12416, 12690, 12859, 13036], "trial_type": "free-recall", "conditions": [24, 1600, "a", 24000], "internal_node_id": "0.0-176.0-0.0", "key_presses": [80, 69, 66, 66, 76, 69, 13, 77, 65, 84, 67, 72, 13, 86, 65, 65, 8, 76, 76, 69, 89, 13, 80, 65, 83, 84, 65, 13], "trial": 6, "time_elapsed": 1270439, "type": "FREE_RECALL", "trial_index": 239}, "uniqueid": "MTK2853:3QUO65DNQVV5Z7PB9QFZB34UNKQOUW", "dateTime": 1519415328318}, {"current_trial": 240, "trialdata": {"rt": 796, "trial_type": "text", "internal_node_id": "0.0-177.0", "time_elapsed": 1273239, "key_press": 13, "type": "INSTRUCTIONS", "trial_index": 240}, "uniqueid": "MTK2853:3QUO65DNQVV5Z7PB9QFZB34UNKQOUW", "dateTime": 1519415331115}, {"current_trial": 241, "trialdata": {"rt": [2515, 4168, 6736, 9312, 11634, 14330, 17158], "trial_type": "math-distractor", "key_times": [2100, 2338, 2515, 3756, 3994, 4168, 6421, 6625, 6736, 9019, 9172, 9312, 11366, 11504, 11634, 14186, 14330, 16950, 16984, 17158, 23853], "responses": ["10", "14", "21", "10", "11", "8", "12"], "num2": [2, 5, 8, 2, 5, 2, 6, 6], "num3": [2, 4, 8, 1, 3, 1, 1, 7], "conditions": [24, 800, "a", 24000], "internal_node_id": "0.0-178.0", "key_presses": [97, 96, 13, 97, 100, 13, 98, 97, 13, 97, 96, 13, 97, 97, 13, 104, 13, 97, 98, 13, 98], "trial": 7, "time_elapsed": 1299244, "type": "DISTRACTOR", "trial_index": 241, "num1": [6, 5, 5, 7, 3, 5, 5, 9]}, "uniqueid": "MTK2853:3QUO65DNQVV5Z7PB9QFZB34UNKQOUW", "dateTime": 1519415357121}, {"current_trial": 242, "trialdata": {"rt": -1, "trial_type": "single-stim", "stimulus": "<p id=\"stim\">10</p>", "internal_node_id": "0.0-179.0-0.0", "time_elapsed": 1302246, "key_press": -1, "trial_index": 242}, "uniqueid": "MTK2853:3QUO65DNQVV5Z7PB9QFZB34UNKQOUW", "dateTime": 1519415360122}, {"current_trial": 243, "trialdata": {"rt": -1, "trial_type": "single-stim", "stimulus": "<p id=\"stim\">9</p>", "internal_node_id": "0.0-179.0-1.0", "time_elapsed": 1303248, "key_press": -1, "trial_index": 243}, "uniqueid": "MTK2853:3QUO65DNQVV5Z7PB9QFZB34UNKQOUW", "dateTime": 1519415361124}, {"current_trial": 244, "trialdata": {"rt": -1, "trial_type": "single-stim", "stimulus": "<p id=\"stim\">8</p>", "internal_node_id": "0.0-179.0-2.0", "time_elapsed": 1304250, "key_press": -1, "trial_index": 244}, "uniqueid": "MTK2853:3QUO65DNQVV5Z7PB9QFZB34UNKQOUW", "dateTime": 1519415362126}, {"current_trial": 245, "trialdata": {"rt": -1, "trial_type": "single-stim", "stimulus": "<p id=\"stim\">7</p>", "internal_node_id": "0.0-179.0-3.0", "time_elapsed": 1305252, "key_press": -1, "trial_index": 245}, "uniqueid": "MTK2853:3QUO65DNQVV5Z7PB9QFZB34UNKQOUW", "dateTime": 1519415363128}, {"current_trial": 246, "trialdata": {"rt": -1, "trial_type": "single-stim", "stimulus": "<p id=\"stim\">6</p>", "internal_node_id": "0.0-179.0-4.0", "time_elapsed": 1306254, "key_press": -1, "trial_index": 246}, "uniqueid": "MTK2853:3QUO65DNQVV5Z7PB9QFZB34UNKQOUW", "dateTime": 1519415364130}, {"current_trial": 247, "trialdata": {"rt": -1, "trial_type": "single-stim", "stimulus": "<p id=\"stim\">5</p>", "internal_node_id": "0.0-179.0-5.0", "time_elapsed": 1307256, "key_press": -1, "trial_index": 247}, "uniqueid": "MTK2853:3QUO65DNQVV5Z7PB9QFZB34UNKQOUW", "dateTime": 1519415365132}, {"current_trial": 248, "trialdata": {"rt": -1, "trial_type": "single-stim", "stimulus": "<p id=\"stim\">4</p>", "internal_node_id": "0.0-179.0-6.0", "time_elapsed": 1308258, "key_press": -1, "trial_index": 248}, "uniqueid": "MTK2853:3QUO65DNQVV5Z7PB9QFZB34UNKQOUW", "dateTime": 1519415366134}, {"cu