{"assignmentId": "3Z2R0DQ0JILA343KWS2X08FO0R52ES", "workerId": "MTK2870", "questiondata": {"origin": "United States", "strat-rehearsal": "90", "marital": "Married/Domestic Partnership", "education": "Bachelor's degree", "ethnicity": "Not Hispanic", "color_depth": 24, "distracted": "No", "wrote-notes": "No", "strat-other": "I used acronyms and grouping to make the task easier. I am also a synesthete, so I thought of ways to connect my senses to create mental pictures and associations. I do mental exercises daily to help strengthen my remembering and try to create a semi-eidetic memory, so that helped me in this task, too.", "screen_width": 1600, "avail_screen_width": 1600, "avail_screen_height": 900, "strat-image": "30", "language": "English", "gender": "Male", "age": "31", "gender_other": "", "race": ["White"], "strat-categorize": "90", "pixel_depth": 24, "strat-spatial": "35", "strat-story": "0", "race_other": "", "screen_height": 900}, "bonus": 0, "hitId": "3T6EIBTM9LVUVAJI30OOLNCB6NLAAC", "counterbalance": 1686, "useragent": "Mozilla/5.0 (Windows NT 6.1) AppleWebKit/537.36 (KHTML, like Gecko) Chrome/63.0.3239.132 Safari/537.36", "eventdata": [{"eventtype": "initialized", "interval": 0, "value": null, "timestamp": 1519420079298}, {"eventtype": "window_resize", "interval": 0, "value": [1600, 850], "timestamp": 1519420079298}, {"eventtype": "window_resize", "interval": 2331000, "value": [1600, 900], "timestamp": 1519422410298}, {"eventtype": "window_resize", "interval": 271713, "value": [1600, 850], "timestamp": 1519422682011}], "data": [{"current_trial": 0, "trialdata": {"rt": 2513, "trial_type": "text", "internal_node_id": "0.0-0.0", "time_elapsed": 2515, "key_press": 32, "type": "INSTRUCTIONS", "trial_index": 0}, "uniqueid": "MTK2870:3Z2R0DQ0JILA343KWS2X08FO0R52ES", "dateTime": 1519420096735}, {"current_trial": 1, "trialdata": {"rt": 9349, "trial_type": "text", "internal_node_id": "0.0-1.0", "time_elapsed": 11866, "key_press": 32, "type": "INSTRUCTIONS", "trial_index": 1}, "uniqueid": "MTK2870:3Z2R0DQ0JILA343KWS2X08FO0R52ES", "dateTime": 1519420106085}, {"current_trial": 2, "trialdata": {"rt": [8333], "trial_type": "audio-test", "responses": ["ocean"], "internal_node_id": "0.0-2.0", "time_elapsed": 20211, "type": "AUDIO_TEST", "trial_index": 2}, "uniqueid": "MTK2870:3Z2R0DQ0JILA343KWS2X08FO0R52ES", "dateTime": 1519420114430}, {"current_trial": 3, "trialdata": {"rt": [5386], "trial_type": "audio-test", "responses": ["crystal"], "internal_node_id": "0.0-3.0", "time_elapsed": 25602, "type": "AUDIO_TEST", "trial_index": 3}, "uniqueid": "MTK2870:3Z2R0DQ0JILA343KWS2X08FO0R52ES", "dateTime": 1519420119821}, {"current_trial": 4, "trialdata": {"rt": [3655], "trial_type": "audio-test", "responses": ["spice"], "internal_node_id": "0.0-4.0", "time_elapsed": 29263, "type": "AUDIO_TEST", "trial_index": 4}, "uniqueid": "MTK2870:3Z2R0DQ0JILA343KWS2X08FO0R52ES", "dateTime": 1519420123482}, {"current_trial": 5, "trialdata": {"rt": 21361, "trial_type": "survey-text", "responses": "{\"Q0\":\"9:30 PM\",\"Q1\":\"6:30 AM\",\"Q2\":\"5\"}", "internal_node_id": "0.0-5.0", "time_elapsed": 51377, "type": "SLEEP_SURVEY", "trial_index": 5}, "uniqueid": "MTK2870:3Z2R0DQ0JILA343KWS2X08FO0R52ES", "dateTime": 1519420145596}, {"current_trial": 6, "trialdata": {"rt": 28165, "trial_type": "text", "internal_node_id": "0.0-6.0", "time_elapsed": 80543, "key_press": 32, "type": "INSTRUCTIONS", "trial_index": 6}, "uniqueid": "MTK2870:3Z2R0DQ0JILA343KWS2X08FO0R52ES", "dateTime": 1519420174762}, {"current_trial": 7, "trialdata": {"rt": 15815, "trial_type": "text", "internal_node_id": "0.0-7.0", "time_elapsed": 96859, "key_press": 32, "type": "INSTRUCTIONS", "trial_index": 7}, "uniqueid": "MTK2870:3Z2R0DQ0JILA343KWS2X08FO0R52ES", "dateTime": 1519420191078}, {"current_trial": 8, "trialdata": {"rt": 5314, "trial_type": "text", "internal_node_id": "0.0-8.0", "time_elapsed": 102674, "key_press": 32, "type": "INSTRUCTIONS", "trial_index": 8}, "uniqueid": "MTK2870:3Z2R0DQ0JILA343KWS2X08FO0R52ES", "dateTime": 1519420196893}, {"current_trial": 9, "trialdata": {"rt": [2404, 4276, 5876, 7876, 9628, 11180, 12907, 14555, 16355, 17844], "trial_type": "math-distractor", "key_times": [1724, 1900, 2404, 3901, 4020, 4276, 5612, 5756, 5876, 7548, 7652, 7876, 9332, 9420, 9628, 10940, 11004, 11180, 12484, 12668, 12907, 14172, 14332, 14555, 16107, 16227, 16355, 17539, 17708, 17844], "responses": ["21", "12", "22", "20", "19", "20", "13", "14", "23", "11"], "num2": [8, 6, 7, 3, 3, 4, 1, 1, 7, 1, 2], "num3": [4, 5, 7, 9, 7, 8, 6, 8, 8, 3, 3], "conditions": [18, 1200, "a", 18000], "internal_node_id": "0.0-9.0", "key_presses": [50, 49, 13, 49, 50, 13, 50, 50, 13, 50, 48, 13, 49, 57, 13, 50, 48, 13, 49, 51, 13, 49, 52, 13, 50, 51, 13, 49, 49, 13], "trial": 0, "time_elapsed": 121679, "type": "DISTRACTOR", "trial_index": 9, "num1": [9, 1, 8, 8, 9, 8, 6, 5, 7, 7, 8]}, "uniqueid": "MTK2870:3Z2R0DQ0JILA343KWS2X08FO0R52ES", "dateTime": 1519420215898}, {"current_trial": 10, "trialdata": {"rt": -1, "trial_type": "single-stim", "stimulus": "<p id=\"stim\">10</p>", "internal_node_id": "0.0-10.0-0.0", "time_elapsed": 124679, "key_press": -1, "trial_index": 10}, "uniqueid": "MTK2870:3Z2R0DQ0JILA343KWS2X08FO0R52ES", "dateTime": 1519420218899}, {"current_trial": 11, "trialdata": {"rt": -1, "trial_type": "single-stim", "stimulus": "<p id=\"stim\">9</p>", "internal_node_id": "0.0-10.0-1.0", "time_elapsed": 125680, "key_press": -1, "trial_index": 11}, "uniqueid": "MTK2870:3Z2R0DQ0JILA343KWS2X08FO0R52ES", "dateTime": 1519420219899}, {"current_trial": 12, "trialdata": {"rt": -1, "trial_type": "single-stim", "stimulus": "<p id=\"stim\">8</p>", "internal_node_id": "0.0-10.0-2.0", "time_elapsed": 126680, "key_press": -1, "trial_index": 12}, "uniqueid": "MTK2870:3Z2R0DQ0JILA343KWS2X08FO0R52ES", "dateTime": 1519420220899}, {"current_trial": 13, "trialdata": {"rt": -1, "trial_type": "single-stim", "stimulus": "<p id=\"stim\">7</p>", "internal_node_id": "0.0-10.0-3.0", "time_elapsed": 127680, "key_press": -1, "trial_index": 13}, "uniqueid": "MTK2870:3Z2R0DQ0JILA343KWS2X08FO0R52ES", "dateTime": 1519420221899}, {"current_trial": 14, "trialdata": {"rt": -1, "trial_type": "single-stim", "stimulus": "<p id=\"stim\">6</p>", "internal_node_id": "0.0-10.0-4.0", "time_elapsed": 128680, "key_press": -1, "trial_index": 14}, "uniqueid": "MTK2870:3Z2R0DQ0JILA343KWS2X08FO0R52ES", "dateTime": 1519420222899}, {"current_trial": 15, "trialdata": {"rt": -1, "trial_type": "single-stim", "stimulus": "<p id=\"stim\">5</p>", "internal_node_id": "0.0-10.0-5.0", "time_elapsed": 129680, "key_press": -1, "trial_index": 15}, "uniqueid": "MTK2870:3Z2R0DQ0JILA343KWS2X08FO0R52ES", "dateTime": 1519420223899}, {"current_trial": 16, "trialdata": {"rt": -1, "trial_type": "single-stim", "stimulus": "<p id=\"stim\">4</p>", "internal_node_id": "0.0-10.0-6.0", "time_elapsed": 130681, "key_press": -1, "trial_index": 16}, "uniqueid": "MTK2870:3Z2R0DQ0JILA343KWS2X08FO0R52ES", "dateTime": 1519420224900}, {"current_trial": 17, "trialdata": {"rt": -1, "trial_type": "single-stim", "stimulus": "<p id=\"stim\">3</p>", "internal_node_id": "0.0-10.0-7.0", "time_elapsed": 131682, "key_press": -1, "trial_index": 17}, "uniqueid": "MTK2870:3Z2R0DQ0JILA343KWS2X08FO0R52ES", "dateTime": 1519420225901}, {"current_trial": 18, "trialdata": {"rt": -1, "trial_type": "single-stim", "stimulus": "<p id=\"stim\">2</p>", "internal_node_id": "0.0-10.0-8.0", "time_elapsed": 132682, "key_press": -1, "trial_index": 18}, "uniqueid": "MTK2870:3Z2R0DQ0JILA343KWS2X08FO0R52ES", "dateTime": 1519420226901}, {"current_trial": 19, "trialdata": {"rt": -1, "trial_type": "single-stim", "stimulus": "<p id=\"stim\">1</p>", "internal_node_id": "0.0-10.0-9.0", "time_elapsed": 133682, "key_press": -1, "trial_index": 19}, "uniqueid": "MTK2870:3Z2R0DQ0JILA343KWS2X08FO0R52ES", "dateTime": 1519420227901}, {"current_trial": 20, "trialdata": {"rt": -1, "trial_type": "single-stim", "stimulus": "<p id=\"stim\">+</p>", "internal_node_id": "0.0-11.0-0.0", "time_elapsed": 135182, "key_press": -1, "type": "FIXATION", "trial_index": 20}, "uniqueid": "MTK2870:3Z2R0DQ0JILA343KWS2X08FO0R52ES", "dateTime": 1519420229401}, {"current_trial": 21, "trialdata": {"rt": -1000, "trial_type": "single-audio", "word": "fruit", "stimulus": "/static/audio/wordpool/FRUIT.wav", "conditions": [18, 1200, "a", 18000], "internal_node_id": "0.0-12.0", "trial": 0, "time_elapsed": 137344, "serialpos": 0, "key_press": -1, "wordID": 609, "type": "PRES_AUD", "trial_index": 21}, "uniqueid": "MTK2870:3Z2R0DQ0JILA343KWS2X08FO0R52ES", "dateTime": 1519420231563}, {"current_trial": 22, "trialdata": {"rt": -1000, "trial_type": "single-audio", "word": "yacht", "stimulus": "/static/audio/wordpool/YACHT.wav", "conditions": [18, 1200, "a", 18000], "internal_node_id": "0.0-13.0", "trial": 0, "time_elapsed": 139603, "serialpos": 1, "key_press": -1, "wordID": 1628, "type": "PRES_AUD", "trial_index": 22}, "uniqueid": "MTK2870:3Z2R0DQ0JILA343KWS2X08FO0R52ES", "dateTime": 1519420233822}, {"current_trial": 23, "trialdata": {"rt": -1000, "trial_type": "single-audio", "word": "grave", "stimulus": "/static/audio/wordpool/GRAVE.wav", "conditions": [18, 1200, "a", 18000], "internal_node_id": "0.0-14.0", "trial": 0, "time_elapsed": 141779, "serialpos": 2, "key_press": -1, "wordID": 657, "type": "PRES_AUD", "trial_index": 23}, "uniqueid": "MTK2870:3Z2R0DQ0JILA343KWS2X08FO0R52ES", "dateTime": 1519420235998}, {"current_trial": 24, "trialdata": {"rt": -1000, "trial_type": "single-audio", "word": "piston", "stimulus": "/static/audio/wordpool/PISTON.wav", "conditions": [18, 1200, "a", 18000], "internal_node_id": "0.0-15.0", "trial": 0, "time_elapsed": 143865, "serialpos": 3, "key_press": -1, "wordID": 1075, "type": "PRES_AUD", "trial_index": 24}, "uniqueid": "MTK2870:3Z2R0DQ0JILA343KWS2X08FO0R52ES", "dateTime": 1519420238084}, {"current_trial": 25, "trialdata": {"rt": -1000, "trial_type": "single-audio", "word": "gazelle", "stimulus": "/static/audio/wordpool/GAZELLE.wav", "conditions": [18, 1200, "a", 18000], "internal_node_id": "0.0-16.0", "trial": 0, "time_elapsed": 146047, "serialpos": 4, "key_press": -1, "wordID": 627, "type": "PRES_AUD", "trial_index": 25}, "uniqueid": "MTK2870:3Z2R0DQ0JILA343KWS2X08FO0R52ES", "dateTime": 1519420240266}, {"current_trial": 26, "trialdata": {"rt": -1000, "trial_type": "single-audio", "word": "guitar", "stimulus": "/static/audio/wordpool/GUITAR.wav", "conditions": [18, 1200, "a", 18000], "internal_node_id": "0.0-17.0", "trial": 0, "time_elapsed": 148338, "serialpos": 5, "key_press": -1, "wordID": 669, "type": "PRES_AUD", "trial_index": 26}, "uniqueid": "MTK2870:3Z2R0DQ0JILA343KWS2X08FO0R52ES", "dateTime": 1519420242557}, {"current_trial": 27, "trialdata": {"rt": -1000, "trial_type": "single-audio", "word": "venus", "stimulus": "/static/audio/wordpool/VENUS.wav", "conditions": [18, 1200, "a", 18000], "internal_node_id": "0.0-18.0", "trial": 0, "time_elapsed": 150397, "serialpos": 6, "key_press": -1, "wordID": 1556, "type": "PRES_AUD", "trial_index": 27}, "uniqueid": "MTK2870:3Z2R0DQ0JILA343KWS2X08FO0R52ES", "dateTime": 1519420244616}, {"current_trial": 28, "trialdata": {"rt": -1000, "trial_type": "single-audio", "word": "sandwich", "stimulus": "/static/audio/wordpool/SANDWICH.wav", "conditions": [18, 1200, "a", 18000], "internal_node_id": "0.0-19.0", "trial": 0, "time_elapsed": 152711, "serialpos": 7, "key_press": -1, "wordID": 1231, "type": "PRES_AUD", "trial_index": 28}, "uniqueid": "MTK2870:3Z2R0DQ0JILA343KWS2X08FO0R52ES", "dateTime": 1519420246930}, {"current_trial": 29, "trialdata": {"rt": -1000, "trial_type": "single-audio", "word": "finger", "stimulus": "/static/audio/wordpool/FINGER.wav", "conditions": [18, 1200, "a", 18000], "internal_node_id": "0.0-20.0", "trial": 0, "time_elapsed": 154756, "serialpos": 8, "key_press": -1, "wordID": 566, "type": "PRES_AUD", "trial_index": 29}, "uniqueid": "MTK2870:3Z2R0DQ0JILA343KWS2X08FO0R52ES", "dateTime": 1519420248975}, {"current_trial": 30, "trialdata": {"rt": -1000, "trial_type": "single-audio", "word": "swamp", "stimulus": "/static/audio/wordpool/SWAMP.wav", "conditions": [18, 1200, "a", 18000], "internal_node_id": "0.0-21.0", "trial": 0, "time_elapsed": 157075, "serialpos": 9, "key_press": -1, "wordID": 1415, "type": "PRES_AUD", "trial_index": 30}, "uniqueid": "MTK2870:3Z2R0DQ0JILA343KWS2X08FO0R52ES", "dateTime": 1519420251294}, {"current_trial": 31, "trialdata": {"rt": -1000, "trial_type": "single-audio", "word": "turkey", "stimulus": "/static/audio/wordpool/TURKEY.wav", "conditions": [18, 1200, "a", 18000], "internal_node_id": "0.0-22.0", "trial": 0, "time_elapsed": 159297, "serialpos": 10, "key_press": -1, "wordID": 1519, "type": "PRES_AUD", "trial_index": 31}, "uniqueid": "MTK2870:3Z2R0DQ0JILA343KWS2X08FO0R52ES", "dateTime": 1519420253516}, {"current_trial": 32, "trialdata": {"rt": -1000, "trial_type": "single-audio", "word": "highway", "stimulus": "/static/audio/wordpool/HIGHWAY.wav", "conditions": [18, 1200, "a", 18000], "internal_node_id": "0.0-23.0", "trial": 0, "time_elapsed": 161658, "serialpos": 11, "key_press": -1, "wordID": 706, "type": "PRES_AUD", "trial_index": 32}, "uniqueid": "MTK2870:3Z2R0DQ0JILA343KWS2X08FO0R52ES", "dateTime": 1519420255877}, {"current_trial": 33, "trialdata": {"rt": -1000, "trial_type": "single-audio", "word": "forest", "stimulus": "/static/audio/wordpool/FOREST.wav", "conditions": [18, 1200, "a", 18000], "internal_node_id": "0.0-24.0", "trial": 0, "time_elapsed": 163781, "serialpos": 12, "key_press": -1, "wordID": 592, "type": "PRES_AUD", "trial_index": 33}, "uniqueid": "MTK2870:3Z2R0DQ0JILA343KWS2X08FO0R52ES", "dateTime": 1519420258000}, {"current_trial": 34, "trialdata": {"rt": -1000, "trial_type": "single-audio", "word": "tablet", "stimulus": "/static/audio/wordpool/TABLET.wav", "conditions": [18, 1200, "a", 18000], "internal_node_id": "0.0-25.0", "trial": 0, "time_elapsed": 165921, "serialpos": 13, "key_press": -1, "wordID": 1426, "type": "PRES_AUD", "trial_index": 34}, "uniqueid": "MTK2870:3Z2R0DQ0JILA343KWS2X08FO0R52ES", "dateTime": 1519420260140}, {"current_trial": 35, "trialdata": {"rt": -1000, "trial_type": "single-audio", "word": "custard", "stimulus": "/static/audio/wordpool/CUSTARD.wav", "conditions": [18, 1200, "a", 18000], "internal_node_id": "0.0-26.0", "trial": 0, "time_elapsed": 167939, "serialpos": 14, "key_press": -1, "wordID": 428, "type": "PRES_AUD", "trial_index": 35}, "uniqueid": "MTK2870:3Z2R0DQ0JILA343KWS2X08FO0R52ES", "dateTime": 1519420262158}, {"current_trial": 36, "trialdata": {"rt": -1000, "trial_type": "single-audio", "word": "thief", "stimulus": "/static/audio/wordpool/THIEF.wav", "conditions": [18, 1200, "a", 18000], "internal_node_id": "0.0-27.0", "trial": 0, "time_elapsed": 169964, "serialpos": 15, "key_press": -1, "wordID": 1455, "type": "PRES_AUD", "trial_index": 36}, "uniqueid": "MTK2870:3Z2R0DQ0JILA343KWS2X08FO0R52ES", "dateTime": 1519420264183}, {"current_trial": 37, "trialdata": {"rt": -1000, "trial_type": "single-audio", "word": "trombone", "stimulus": "/static/audio/wordpool/TROMBONE.wav", "conditions": [18, 1200, "a", 18000], "internal_node_id": "0.0-28.0", "trial": 0, "time_elapsed": 172041, "serialpos": 16, "key_press": -1, "wordID": 1507, "type": "PRES_AUD", "trial_index": 37}, "uniqueid": "MTK2870:3Z2R0DQ0JILA343KWS2X08FO0R52ES", "dateTime": 1519420266260}, {"current_trial": 38, "trialdata": {"rt": -1000, "trial_type": "single-audio", "word": "quarter", "stimulus": "/static/audio/wordpool/QUARTER.wav", "conditions": [18, 1200, "a", 18000], "internal_node_id": "0.0-29.0", "trial": 0, "time_elapsed": 174064, "serialpos": 17, "key_press": -1, "wordID": 1147, "type": "PRES_AUD", "trial_index": 38}, "uniqueid": "MTK2870:3Z2R0DQ0JILA343KWS2X08FO0R52ES", "dateTime": 1519420268283}, {"current_trial": 39, "trialdata": {"rt": -1, "trial_type": "single-stim", "stimulus": "", "internal_node_id": "0.0-30.0-0.0", "time_elapsed": 175285, "key_press": -1, "type": "PRE_RECALL_DELAY", "trial_index": 39}, "uniqueid": "MTK2870:3Z2R0DQ0JILA343KWS2X08FO0R52ES", "dateTime": 1519420269504}, {"current_trial": 40, "trialdata": {"rt": -1000, "trial_type": "single-audio", "stimulus": "/static/audio/400Hz.wav", "internal_node_id": "0.0-31.0", "time_elapsed": 175785, "key_press": -1, "type": "PRE_RECALL_ALERT", "trial_index": 40}, "uniqueid": "MTK2870:3Z2R0DQ0JILA343KWS2X08FO0R52ES", "dateTime": 1519420270004}, {"current_trial": 41, "trialdata": {"rt": [2572, 4420, 5508, 7012, 8372, 10132, 12387, 14107, 16212, 18100, 19748, 22532, 57489, 59792], "recwords": ["fruit", "yacht", "guitar", "gazelle", "swamp", "turkey", "highway", "forest", "thief", "trombone", "tablet", "quarter", "", ""], "key_times": [1661, 1828, 1900, 2012, 2188, 2572, 3188, 3244, 3372, 3460, 3612, 4420, 4884, 4964, 5100, 5220, 5340, 5412, 5508, 6084, 6220, 6412, 6588, 6676, 6812, 6900, 7012, 7340, 7524, 7636, 7748, 8180, 8372, 8620, 8748, 8852, 8988, 9188, 9572, 10132, 11564, 11732, 11827, 11915, 12035, 12124, 12187, 12387, 13363, 13443, 13563, 13683, 13836, 14019, 14107, 15460, 15572, 15820, 15932, 16124, 16212, 16700, 16844, 16892, 17028, 17172, 17260, 17460, 17852, 18100, 18380, 18500, 18684, 18788, 18893, 19020, 19748, 20372, 20748, 20924, 20988, 21116, 21268, 21428, 21636, 21933, 22532, 57489, 58600, 59792], "trial_type": "free-recall", "conditions": [18, 1200, "a", 18000], "internal_node_id": "0.0-32.0-0.0", "key_presses": [70, 82, 85, 73, 84, 13, 89, 65, 67, 72, 84, 13, 71, 85, 73, 84, 65, 82, 13, 71, 65, 90, 69, 76, 76, 69, 13, 83, 87, 65, 77, 80, 13, 84, 85, 82, 75, 69, 89, 13, 72, 73, 71, 72, 87, 65, 89, 13, 70, 79, 82, 69, 83, 84, 13, 84, 72, 73, 69, 70, 13, 84, 82, 79, 77, 66, 79, 78, 69, 13, 84, 65, 66, 76, 69, 84, 13, 71, 8, 81, 85, 65, 82, 84, 69, 82, 13, 13, 27, 32], "trial": 0, "time_elapsed": 235784, "type": "FREE_RECALL", "trial_index": 41}, "uniqueid": "MTK2870:3Z2R0DQ0JILA343KWS2X08FO0R52ES", "dateTime": 1519420330006}, {"current_trial": 42, "trialdata": {"rt": 1759, "trial_type": "text", "internal_node_id": "0.0-33.0", "time_elapsed": 239547, "key_press": 13, "type": "INSTRUCTIONS", "trial_index": 42}, "uniqueid": "MTK2870:3Z2R0DQ0JILA343KWS2X08FO0R52ES", "dateTime": 1519420333766}, {"current_trial": 43, "trialdata": {"rt": [2775, 4623, 6743, 8183, 10047, 11519, 12895, 14806, 16374], "trial_type": "math-distractor", "key_times": [2512, 2775, 4199, 4447, 4623, 6415, 6447, 6743, 8047, 8183, 9463, 9775, 10047, 11207, 11391, 11519, 12543, 12687, 12895, 14495, 14687, 14806, 16046, 16206, 16374, 17718, 17878], "responses": ["9", "16", "20", "6", "17", "14", "14", "15", "15"], "num2": [2, 2, 4, 4, 6, 9, 5, 2, 2, 8], "num3": [3, 7, 8, 1, 7, 1, 4, 7, 8, 8], "conditions": [18, 1200, "a", 18000], "internal_node_id": "0.0-34.0", "key_presses": [57, 13, 49, 54, 13, 50, 48, 13, 54, 13, 49, 55, 13, 49, 52, 13, 49, 52, 13, 49, 53, 13, 49, 53, 13, 49, 57], "trial": 1, "time_elapsed": 259548, "type": "DISTRACTOR", "trial_index": 43, "num1": [4, 7, 8, 1, 4, 4, 5, 6, 5, 3]}, "uniqueid": "MTK2870:3Z2R0DQ0JILA343KWS2X08FO0R52ES", "dateTime": 1519420353768}, {"current_trial": 44, "trialdata": {"rt": -1, "trial_type": "single-stim", "stimulus": "<p id=\"stim\">10</p>", "internal_node_id": "0.0-35.0-0.0", "time_elapsed": 262549, "key_press": -1, "trial_index": 44}, "uniqueid": "MTK2870:3Z2R0DQ0JILA343KWS2X08FO0R52ES", "dateTime": 1519420356768}, {"current_trial": 45, "trialdata": {"rt": -1, "trial_type": "single-stim", "stimulus": "<p id=\"stim\">9</p>", "internal_node_id": "0.0-35.0-1.0", "time_elapsed": 263549, "key_press": -1, "trial_index": 45}, "uniqueid": "MTK2870:3Z2R0DQ0JILA343KWS2X08FO0R52ES", "dateTime": 1519420357768}, {"current_trial": 46, "trialdata": {"rt": -1, "trial_type": "single-stim", "stimulus": "<p id=\"stim\">8</p>", "internal_node_id": "0.0-35.0-2.0", "time_elapsed": 264549, "key_press": -1, "trial_index": 46}, "uniqueid": "MTK2870:3Z2R0DQ0JILA343KWS2X08FO0R52ES", "dateTime": 1519420358768}, {"current_trial": 47, "trialdata": {"rt": -1, "trial_type": "single-stim", "stimulus": "<p id=\"stim\">7</p>", "internal_node_id": "0.0-35.0-3.0", "time_elapsed": 265549, "key_press": -1, "trial_index": 47}, "uniqueid": "MTK2870:3Z2R0DQ0JILA343KWS2X08FO0R52ES", "dateTime": 1519420359768}, {"current_trial": 48, "trialdata": {"rt": -1, "trial_type": "single-stim", "stimulus": "<p id=\"stim\">6</p>", "internal_node_id": "0.0-35.0-4.0", "time_elapsed": 266549, "key_press": -1, "trial_index": 48}, "uniqueid": "MTK2870:3Z2R0DQ0JILA343KWS2X08FO0R52ES", "dateTime": 1519420360768}, {"current_trial": 49, "trialdata": {"rt": -1, "trial_type": "single-stim", "stimulus": "<p id=\"stim\">5</p>", "internal_node_id": "0.0-35.0-5.0", "time_elapsed": 267549, "key_press": -1, "trial_index": 49}, "uniqueid": "MTK2870:3Z2R0DQ0JILA343KWS2X08FO0R52ES", "dateTime": 1519420361768}, {"current_trial": 50, "trialdata": {"rt": -1, "trial_type": "single-stim", "stimulus": "<p id=\"stim\">4</p>", "internal_node_id": "0.0-35.0-6.0", "time_elapsed": 268549, "key_press": -1, "trial_index": 50}, "uniqueid": "MTK2870:3Z2R0DQ0JILA343KWS2X08FO0R52ES", "dateTime": 1519420362768}, {"current_trial": 51, "trialdata": {"rt": -1, "trial_type": "single-stim", "stimulus": "<p id=\"stim\">3</p>", "internal_node_id": "0.0-35.0-7.0", "time_elapsed": 269546, "key_press": -1, "trial_index": 51}, "uniqueid": "MTK2870:3Z2R0DQ0JILA343KWS2X08FO0R52ES", "dateTime": 1519420363765}, {"current_trial": 52, "trialdata": {"rt": -1, "trial_type": "single-stim", "stimulus": "<p id=\"stim\">2</p>", "internal_node_id": "0.0-35.0-8.0", "time_elapsed": 270546, "key_press": -1, "trial_index": 52}, "uniqueid": "MTK2870:3Z2R0DQ0JILA343KWS2X08FO0R52ES", "dateTime": 1519420364765}, {"current_trial": 53, "trialdata": {"rt": -1, "trial_type": "single-stim", "stimulus": "<p id=\"stim\">1</p>", "internal_node_id": "0.0-35.0-9.0", "time_elapsed": 271546, "key_press": -1, "trial_index": 53}, "uniqueid": "MTK2870:3Z2R0DQ0JILA343KWS2X08FO0R52ES", "dateTime": 1519420365765}, {"current_trial": 54, "trialdata": {"rt": -1, "trial_type": "single-stim", "stimulus": "<p id=\"stim\">+</p>", "internal_node_id": "0.0-36.0-0.0", "time_elapsed": 273047, "key_press": -1, "type": "FIXATION", "trial_index": 54}, "uniqueid": "MTK2870:3Z2R0DQ0JILA343KWS2X08FO0R52ES", "dateTime": 1519420367266}, {"current_trial": 55, "trialdata": {"rt": -1000, "trial_type": "single-audio", "word": "catcher", "stimulus": "/static/audio/wordpool/CATCHER.wav", "conditions": [18, 1200, "a", 18000], "internal_node_id": "0.0-37.0", "trial": 1, "time_elapsed": 275272, "serialpos": 0, "key_press": -1, "wordID": 257, "type": "PRES_AUD", "trial_index": 55}, "uniqueid": "MTK2870:3Z2R0DQ0JILA343KWS2X08FO0R52ES", "dateTime": 1519420369491}, {"current_trial": 56, "trialdata": {"rt": -1000, "trial_type": "single-audio", "word": "kidney", "stimulus": "/static/audio/wordpool/KIDNEY.wav", "conditions": [18, 1200, "a", 18000], "internal_node_id": "0.0-38.0", "trial": 1, "time_elapsed": 277670, "serialpos": 1, "key_press": -1, "wordID": 775, "type": "PRES_AUD", "trial_index": 56}, "uniqueid": "MTK2870:3Z2R0DQ0JILA343KWS2X08FO0R52ES", "dateTime": 1519420371889}, {"current_trial": 57, "trialdata": {"rt": -1000, "trial_type": "single-audio", "word": "woman", "stimulus": "/static/audio/wordpool/WOMAN.wav", "conditions": [18, 1200, "a", 18000], "internal_node_id": "0.0-39.0", "trial": 1, "time_elapsed": 279701, "serialpos": 2, "key_press": -1, "wordID": 1619, "type": "PRES_AUD", "trial_index": 57}, "uniqueid": "MTK2870:3Z2R0DQ0JILA343KWS2X08FO0R52ES", "dateTime": 1519420373920}, {"current_trial": 58, "trialdata": {"rt": -1000, "trial_type": "single-audio", "word": "sketch", "stimulus": "/static/audio/wordpool/SKETCH.wav", "conditions": [18, 1200, "a", 18000], "internal_node_id": "0.0-40.0", "trial": 1, "time_elapsed": 281761, "serialpos": 3, "key_press": -1, "wordID": 1314, "type": "PRES_AUD", "trial_index": 58}, "uniqueid": "MTK2870:3Z2R0DQ0JILA343KWS2X08FO0R52ES", "dateTime": 1519420375980}, {"current_trial": 59, "trialdata": {"rt": -1000, "trial_type": "single-audio", "word": "rust", "stimulus": "/static/audio/wordpool/RUST.wav", "conditions": [18, 1200, "a", 18000], "internal_node_id": "0.0-41.0", "trial": 1, "time_elapsed": 283967, "serialpos": 4, "key_press": -1, "wordID": 1218, "type": "PRES_AUD", "trial_index": 59}, "uniqueid": "MTK2870:3Z2R0DQ0JILA343KWS2X08FO0R52ES", "dateTime": 1519420378186}, {"current_trial": 60, "trialdata": {"rt": -1000, "trial_type": "single-audio", "word": "chest", "stimulus": "/static/audio/wordpool/CHEST.wav", "conditions": [18, 1200, "a", 18000], "internal_node_id": "0.0-42.0", "trial": 1, "time_elapsed": 286328, "serialpos": 5, "key_press": -1, "wordID": 294, "type": "PRES_AUD", "trial_index": 60}, "uniqueid": "MTK2870:3Z2R0DQ0JILA343KWS2X08FO0R52ES", "dateTime": 1519420380547}, {"current_trial": 61, "trialdata": {"rt": -1000, "trial_type": "single-audio", "word": "blender", "stimulus": "/static/audio/wordpool/BLENDER.wav", "conditions": [18, 1200, "a", 18000], "internal_node_id": "0.0-43.0", "trial": 1, "time_elapsed": 288690, "serialpos": 6, "key_press": -1, "wordID": 135, "type": "PRES_AUD", "trial_index": 61}, "uniqueid": "MTK2870:3Z2R0DQ0JILA343KWS2X08FO0R52ES", "dateTime": 1519420382909}, {"current_trial": 62, "trialdata": {"rt": -1000, "trial_type": "single-audio", "word": "bug", "stimulus": "/static/audio/wordpool/BUG.wav", "conditions": [18, 1200, "a", 18000], "internal_node_id": "0.0-44.0", "trial": 1, "time_elapsed": 290974, "serialpos": 7, "key_press": -1, "wordID": 186, "type": "PRES_AUD", "trial_index": 62}, "uniqueid": "MTK2870:3Z2R0DQ0JILA343KWS2X08FO0R52ES", "dateTime": 1519420385193}, {"current_trial": 63, "trialdata": {"rt": -1000, "trial_type": "single-audio", "word": "blockade", "stimulus": "/static/audio/wordpool/BLOCKADE.wav", "conditions": [18, 1200, "a", 18000], "internal_node_id": "0.0-45.0", "trial": 1, "time_elapsed": 292981, "serialpos": 8, "key_press": -1, "wordID": 136, "type": "PRES_AUD", "trial_index": 63}, "uniqueid": "MTK2870:3Z2R0DQ0JILA343KWS2X08FO0R52ES", "dateTime": 1519420387200}, {"current_trial": 64, "trialdata": {"rt": -1000, "trial_type": "single-audio", "word": "nurse", "stimulus": "/static/audio/wordpool/NURSE.wav", "conditions": [18, 1200, "a", 18000], "internal_node_id": "0.0-46.0", "trial": 1, "time_elapsed": 295197, "serialpos": 9, "key_press": -1, "wordID": 962, "type": "PRES_AUD", "trial_index": 64}, "uniqueid": "MTK2870:3Z2R0DQ0JILA343KWS2X08FO0R52ES", "dateTime": 1519420389416}, {"current_trial": 65, "trialdata": {"rt": -1000, "trial_type": "single-audio", "word": "novel", "stimulus": "/static/audio/wordpool/NOVEL.wav", "conditions": [18, 1200, "a", 18000], "internal_node_id": "0.0-47.0", "trial": 1, "time_elapsed": 297545, "serialpos": 10, "key_press": -1, "wordID": 959, "type": "PRES_AUD", "trial_index": 65}, "uniqueid": "MTK2870:3Z2R0DQ0JILA343KWS2X08FO0R52ES", "dateTime": 1519420391764}, {"current_trial": 66, "trialdata": {"rt": -1000, "trial_type": "single-audio", "word": "orchid", "stimulus": "/static/audio/wordpool/ORCHID.wav", "conditions": [18, 1200, "a", 18000], "internal_node_id": "0.0-48.0", "trial": 1, "time_elapsed": 299788, "serialpos": 11, "key_press": -1, "wordID": 981, "type": "PRES_AUD", "trial_index": 66}, "uniqueid": "MTK2870:3Z2R0DQ0JILA343KWS2X08FO0R52ES", "dateTime": 1519420394007}, {"current_trial": 67, "trialdata": {"rt": -1000, "trial_type": "single-audio", "word": "gallon", "stimulus": "/static/audio/wordpool/GALLON.wav", "conditions": [18, 1200, "a", 18000], "internal_node_id": "0.0-49.0", "trial": 1, "time_elapsed": 301973, "serialpos": 12, "key_press": -1, "wordID": 617, "type": "PRES_AUD", "trial_index": 67}, "uniqueid": "MTK2870:3Z2R0DQ0JILA343KWS2X08FO0R52ES", "dateTime": 1519420396192}, {"current_trial": 68, "trialdata": {"rt": -1000, "trial_type": "single-audio", "word": "whiskers", "stimulus": "/static/audio/wordpool/WHISKERS.wav", "conditions": [18, 1200, "a", 18000], "internal_node_id": "0.0-50.0", "trial": 1, "time_elapsed": 304092, "serialpos": 13, "key_press": -1, "wordID": 1604, "type": "PRES_AUD", "trial_index": 68}, "uniqueid": "MTK2870:3Z2R0DQ0JILA343KWS2X08FO0R52ES", "dateTime": 1519420398313}, {"current_trial": 69, "trialdata": {"rt": -1000, "trial_type": "single-audio", "word": "lettuce", "stimulus": "/static/audio/wordpool/LETTUCE.wav", "conditions": [18, 1200, "a", 18000], "internal_node_id": "0.0-51.0", "trial": 1, "time_elapsed": 306100, "serialpos": 14, "key_press": -1, "wordID": 813, "type": "PRES_AUD", "trial_index": 69}, "uniqueid": "MTK2870:3Z2R0DQ0JILA343KWS2X08FO0R52ES", "dateTime": 1519420400319}, {"current_trial": 70, "trialdata": {"rt": -1000, "trial_type": "single-audio", "word": "beast", "stimulus": "/static/audio/wordpool/BEAST.wav", "conditions": [18, 1200, "a", 18000], "internal_node_id": "0.0-52.0", "trial": 1, "time_elapsed": 308336, "serialpos": 15, "key_press": -1, "wordID": 107, "type": "PRES_AUD", "trial_index": 70}, "uniqueid": "MTK2870:3Z2R0DQ0JILA343KWS2X08FO0R52ES", "dateTime": 1519420402555}, {"current_trial": 71, "trialdata": {"rt": -1000, "trial_type": "single-audio", "word": "slide", "stimulus": "/static/audio/wordpool/SLIDE.wav", "conditions": [18, 1200, "a", 18000], "internal_node_id": "0.0-53.0", "trial": 1, "time_elapsed": 310426, "serialpos": 16, "key_press": -1, "wordID": 1325, "type": "PRES_AUD", "trial_index": 71}, "uniqueid": "MTK2870:3Z2R0DQ0JILA343KWS2X08FO0R52ES", "dateTime": 1519420404645}, {"current_trial": 72, "trialdata": {"rt": -1000, "trial_type": "single-audio", "word": "bullet", "stimulus": "/static/audio/wordpool/BULLET.wav", "conditions": [18, 1200, "a", 18000], "internal_node_id": "0.0-54.0", "trial": 1, "time_elapsed": 312727, "serialpos": 17, "key_press": -1, "wordID": 193, "type": "PRES_AUD", "trial_index": 72}, "uniqueid": "MTK2870:3Z2R0DQ0JILA343KWS2X08FO0R52ES", "dateTime": 1519420406946}, {"current_trial": 73, "trialdata": {"rt": -1, "trial_type": "single-stim", "stimulus": "", "internal_node_id": "0.0-55.0-0.0", "time_elapsed": 314071, "key_press": -1, "type": "PRE_RECALL_DELAY", "trial_index": 73}, "uniqueid": "MTK2870:3Z2R0DQ0JILA343KWS2X08FO0R52ES", "dateTime": 1519420408290}, {"current_trial": 74, "trialdata": {"rt": -1000, "trial_type": "single-audio", "stimulus": "/static/audio/400Hz.wav", "internal_node_id": "0.0-56.0", "time_elapsed": 314571, "key_press": -1, "type": "PRE_RECALL_ALERT", "trial_index": 74}, "uniqueid": "MTK2870:3Z2R0DQ0JILA343KWS2X08FO0R52ES", "dateTime": 1519420408790}, {"current_trial": 75, "trialdata": {"rt": [3562, 4850, 6034, 7098, 8226, 9258, 10498, 13977, 15214, 16462, 17559, 18831, 21023, 25719, 28199, 28567, 29247, 29431, 29607, 29814, 29966, 30071, 30190, 30271, 30374, 30455, 30558, 30630, 30718, 30807, 30886, 30991, 31070, 31166, 31262, 31367, 31454, 31551, 32534, 32750, 32935, 33126, 33294, 33398, 33494, 33598, 33678, 33784, 33894, 33958, 34087, 34151, 34287, 34351, 34495, 34543, 34695, 34727, 34888, 36055, 39015, 48318, 52951], "recwords": ["bullet", "novel", "catcher", "chest", "blender", "novel", "orchid", "blockade", "sly", "beast", "nurse", "lettuce", "whiskers", "kidney", "", "", "", "", "", "", "", "", "", "", "", "", "", "", "", "", "", "", "", "", "", "", "", "", "", "", "", "", "", "", "", "", "", "", "", "", "", "", "", "", "", "", "", "", "", "", "rust", "gallon", "blender"], "key_times": [1987, 2098, 2298, 2450, 2602, 2866, 3562, 4154, 4322, 4418, 4554, 4642, 4850, 5074, 5170, 5354, 5546, 5626, 5754, 5866, 6034, 6426, 6522, 6626, 6786, 6994, 7098, 7466, 7538, 7650, 7730, 7866, 8026, 8098, 8226, 8666, 8834, 8890, 9018, 9090, 9258, 9586, 9706, 9898, 9954, 10098, 10330, 10498, 11506, 11594, 11762, 11866, 12386, 12569, 12658, 12794, 13025, 13201, 13977, 14609, 14698, 14950, 15214, 15686, 15758, 15854, 15982, 16174, 16462, 16951, 17055, 17175, 17343, 17447, 17559, 17991, 18095, 18255, 18359, 18463, 18583, 18703, 18831, 19743, 19839, 19975, 20079, 20215, 20431, 20543, 20679, 21023, 24776, 24935, 25007, 25119, 25223, 25391, 25719, 27887, 28199, 28567, 29247, 29431, 29607, 29814, 29966, 30071, 30190, 30271, 30374, 30455, 30558, 30630, 30718, 30807, 30886, 30991, 31070, 31166, 31262, 31367, 31454, 31551, 32534, 32750, 32935, 33126, 33294, 33398, 33494, 33598, 33678, 33784, 33894, 33958, 34087, 34151, 34287, 34351, 34495, 34543, 34695, 34727, 34888, 36055, 38119, 38175, 38295, 38383, 38751, 38895, 39015, 47511, 47702, 47758, 47903, 48062, 48199, 48318, 52223, 52295, 52455, 52559, 52663, 52799, 52879, 52951], "trial_type": "free-recall", "conditions": [18, 1200, "a", 18000], "internal_node_id": "0.0-57.0-0.0", "key_presses": [66, 85, 76, 76, 69, 84, 13, 78, 79, 86, 69, 76, 13, 67, 65, 84, 67, 72, 69, 82, 13, 67, 72, 69, 83, 84, 13, 66, 76, 69, 78, 68, 69, 82, 13, 78, 79, 86, 69, 76, 13, 79, 82, 67, 72, 73, 68, 13, 66, 76, 79, 65, 8, 67, 75, 65, 68, 69, 13, 83, 76, 89, 13, 66, 69, 65, 83, 84, 13, 78, 85, 82, 83, 69, 13, 76, 69, 84, 84, 85, 67, 69, 13, 87, 72, 73, 83, 75, 69, 82, 83, 13, 75, 73, 68, 78, 69, 89, 13, 27, 13, 13, 13, 13, 13, 13, 32, 13, 32, 13, 32, 13, 32, 13, 32, 13, 32, 13, 32, 13, 32, 13, 32, 13, 32, 32, 32, 32, 32, 13, 32, 13, 32, 13, 32, 13, 32, 13, 32, 13, 32, 13, 32, 13, 32, 32, 82, 85, 83, 69, 8, 84, 13, 71, 65, 76, 76, 79, 78, 13, 66, 76, 69, 78, 68, 69, 82, 13], "trial": 1, "time_elapsed": 374569, "type": "FREE_RECALL", "trial_index": 75}, "uniqueid": "MTK2870:3Z2R0DQ0JILA343KWS2X08FO0R52ES", "dateTime": 1519420468791}, {"current_trial": 76, "trialdata": {"rt": 2801, "trial_type": "text", "internal_node_id": "0.0-58.0", "time_elapsed": 379374, "key_press": 32, "type": "INSTRUCTIONS", "trial_index": 76}, "uniqueid": "MTK2870:3Z2R0DQ0JILA343KWS2X08FO0R52ES", "dateTime": 1519420473593}, {"current_trial": 77, "trialdata": {"rt": [2115, 4220, 6708, 8644, 10584, 12208, 13768, 15575, 17263, 19239, 20656, 22248], "trial_type": "math-distractor", "key_times": [1683, 2012, 2115, 3732, 4052, 4220, 6444, 6556, 6708, 8380, 8452, 8644, 10337, 10512, 10584, 11952, 12080, 12208, 13480, 13608, 13768, 15344, 15472, 15575, 17183, 17263, 18799, 19127, 19239, 20400, 20495, 20656, 21888, 22136, 22248], "responses": ["17", "16", "21", "20", "24", "12", "10", "12", "7", "17", "19", "16"], "num2": [6, 8, 7, 7, 9, 6, 1, 3, 1, 9, 6, 3, 8], "num3": [4, 3, 9, 6, 9, 3, 2, 5, 5, 2, 9, 6, 4], "conditions": [24, 800, "a", 24000], "internal_node_id": "0.0-59.0", "key_presses": [49, 55, 13, 49, 54, 13, 50, 49, 13, 50, 48, 13, 50, 52, 13, 49, 50, 13, 49, 48, 13, 49, 50, 13, 55, 13, 49, 55, 13, 49, 57, 13, 49, 54, 13], "trial": 2, "time_elapsed": 404371, "type": "DISTRACTOR", "trial_index": 77, "num1": [7, 5, 3, 7, 6, 5, 7, 4, 1, 6, 4, 7, 8]}, "uniqueid": "MTK2870:3Z2R0DQ0JILA343KWS2X08FO0R52ES", "dateTime": 1519420498590}, {"current_trial": 78, "trialdata": {"rt": -1, "trial_type": "single-stim", "stimulus": "<p id=\"stim\">10</p>", "internal_node_id": "0.0-60.0-0.0", "time_elapsed": 407371, "key_press": -1, "trial_index": 78}, "uniqueid": "MTK2870:3Z2R0DQ0JILA343KWS2X08FO0R52ES", "dateTime": 1519420501590}, {"current_trial": 79, "trialdata": {"rt": -1, "trial_type": "single-stim", "stimulus": "<p id=\"stim\">9</p>", "internal_node_id": "0.0-60.0-1.0", "time_elapsed": 408371, "key_press": -1, "trial_index": 79}, "uniqueid": "MTK2870:3Z2R0DQ0JILA343KWS2X08FO0R52ES", "dateTime": 1519420502590}, {"current_trial": 80, "trialdata": {"rt": -1, "trial_type": "single-stim", "stimulus": "<p id=\"stim\">8</p>", "internal_node_id": "0.0-60.0-2.0", "time_elapsed": 409371, "key_press": -1, "trial_index": 80}, "uniqueid": "MTK2870:3Z2R0DQ0JILA343KWS2X08FO0R52ES", "dateTime": 1519420503590}, {"current_trial": 81, "trialdata": {"rt": -1, "trial_type": "single-stim", "stimulus": "<p id=\"stim\">7</p>", "internal_node_id": "0.0-60.0-3.0", "time_elapsed": 410371, "key_press": -1, "trial_index": 81}, "uniqueid": "MTK2870:3Z2R0DQ0JILA343KWS2X08FO0R52ES", "dateTime": 1519420504590}, {"current_trial": 82, "trialdata": {"rt": -1, "trial_type": "single-stim", "stimulus": "<p id=\"stim\">6</p>", "internal_node_id": "0.0-60.0-4.0", "time_elapsed": 411371, "key_press": -1, "trial_index": 82}, "uniqueid": "MTK2870:3Z2R0DQ0JILA343KWS2X08FO0R52ES", "dateTime": 1519420505590}, {"current_trial": 83, "trialdata": {"rt": -1, "trial_type": "single-stim", "stimulus": "<p id=\"stim\">5</p>", "internal_node_id": "0.0-60.0-5.0", "time_elapsed": 412371, "key_press": -1, "trial_index": 83}, "uniqueid": "MTK2870:3Z2R0DQ0JILA343KWS2X08FO0R52ES", "dateTime": 1519420506590}, {"current_trial": 84, "trialdata": {"rt": -1, "trial_type": "single-stim", "stimulus": "<p id=\"stim\">4</p>", "internal_node_id": "0.0-60.0-6.0", "time_elapsed": 413371, "key_press": -1, "trial_index": 84}, "uniqueid": "MTK2870:3Z2R0DQ0JILA343KWS2X08FO0R52ES", "dateTime": 1519420507590}, {"current_trial": 85, "trialdata": {"rt": -1, "trial_type": "single-stim", "stimulus": "<p id=\"stim\">3</p>", "internal_node_id": "0.0-60.0-7.0", "time_elapsed": 414371, "key_press": -1, "trial_index": 85}, "uniqueid": "MTK2870:3Z2R0DQ0JILA343KWS2X08FO0R52ES", "dateTime": 1519420508590}, {"current_trial": 86, "trialdata": {"rt": -1, "trial_type": "single-stim", "stimulus": "<p id=\"stim\">2</p>", "internal_node_id": "0.0-60.0-8.0", "time_elapsed": 415371, "key_press": -1, "trial_index": 86}, "uniqueid": "MTK2870:3Z2R0DQ0JILA343KWS2X08FO0R52ES", "dateTime": 1519420509590}, {"current_trial": 87, "trialdata": {"rt": -1, "trial_type": "single-stim", "stimulus": "<p id=\"stim\">1</p>", "internal_node_id": "0.0-60.0-9.0", "time_elapsed": 416371, "key_press": -1, "trial_index": 87}, "uniqueid": "MTK2870:3Z2R0DQ0JILA343KWS2X08FO0R52ES", "dateTime": 1519420510590}, {"current_trial": 88, "trialdata": {"rt": -1, "trial_type": "single-stim", "stimulus": "<p id=\"stim\">+</p>", "internal_node_id": "0.0-61.0-0.0", "time_elapsed": 417871, "key_press": -1, "type": "FIXATION", "trial_index": 88}, "uniqueid": "MTK2870:3Z2R0DQ0JILA343KWS2X08FO0R52ES", "dateTime": 1519420512090}, {"current_trial": 89, "trialdata": {"rt": -1000, "trial_type": "single-audio", "word": "bacon", "stimulus": "/static/audio/wordpool/BACON.wav", "conditions": [24, 800, "a", 24000], "internal_node_id": "0.0-62.0", "trial": 2, "time_elapsed": 419835, "serialpos": 0, "key_press": -1, "wordID": 66, "type": "PRES_AUD", "trial_index": 89}, "uniqueid": "MTK2870:3Z2R0DQ0JILA343KWS2X08FO0R52ES", "dateTime": 1519420514054}, {"current_trial": 90, "trialdata": {"rt": -1000, "trial_type": "single-audio", "word": "cod", "stimulus": "/static/audio/wordpool/COD.wav", "conditions": [24, 800, "a", 24000], "internal_node_id": "0.0-63.0", "trial": 2, "time_elapsed": 421673, "serialpos": 1, "key_press": -1, "wordID": 339, "type": "PRES_AUD", "trial_index": 90}, "uniqueid": "MTK2870:3Z2R0DQ0JILA343KWS2X08FO0R52ES", "dateTime": 1519420515892}, {"current_trial": 91, "trialdata": {"rt": -1000, "trial_type": "single-audio", "word": "tuba", "stimulus": "/static/audio/wordpool/TUBA.wav", "conditions": [24, 800, "a", 24000], "internal_node_id": "0.0-64.0", "trial": 2, "time_elapsed": 423586, "serialpos": 2, "key_press": -1, "wordID": 1514, "type": "PRES_AUD", "trial_index": 91}, "uniqueid": "MTK2870:3Z2R0DQ0JILA343KWS2X08FO0R52ES", "dateTime": 1519420517805}, {"current_trial": 92, "trialdata": {"rt": -1000, "trial_type": "single-audio", "word": "scarf", "stimulus": "/static/audio/wordpool/SCARF.wav", "conditions": [24, 800, "a", 24000], "internal_node_id": "0.0-65.0", "trial": 2, "time_elapsed": 425437, "serialpos": 3, "key_press": -1, "wordID": 1245, "type": "PRES_AUD", "trial_index": 92}, "uniqueid": "MTK2870:3Z2R0DQ0JILA343KWS2X08FO0R52ES", "dateTime": 1519420519656}, {"current_trial": 93, "trialdata": {"rt": -1000, "trial_type": "single-audio", "word": "turtle", "stimulus": "/static/audio/wordpool/TURTLE.wav", "conditions": [24, 800, "a", 24000], "internal_node_id": "0.0-66.0", "trial": 2, "time_elapsed": 427379, "serialpos": 4, "key_press": -1, "wordID": 1521, "type": "PRES_AUD", "trial_index": 93}, "uniqueid": "MTK2870:3Z2R0DQ0JILA343KWS2X08FO0R52ES", "dateTime": 1519420521598}, {"current_trial": 94, "trialdata": {"rt": -1000, "trial_type": "single-audio", "word": "panther", "stimulus": "/static/audio/wordpool/PANTHER.wav", "conditions": [24, 800, "a", 24000], "internal_node_id": "0.0-67.0", "trial": 2, "time_elapsed": 429254, "serialpos": 5, "key_press": -1, "wordID": 1008, "type": "PRES_AUD", "trial_index": 94}, "uniqueid": "MTK2870:3Z2R0DQ0JILA343KWS2X08FO0R52ES", "dateTime": 1519420523473}, {"current_trial": 95, "trialdata": {"rt": -1000, "trial_type": "single-audio", "word": "mammal", "stimulus": "/static/audio/wordpool/MAMMAL.wav", "conditions": [24, 800, "a", 24000], "internal_node_id": "0.0-68.0", "trial": 2, "time_elapsed": 431030, "serialpos": 6, "key_press": -1, "wordID": 860, "type": "PRES_AUD", "trial_index": 95}, "uniqueid": "MTK2870:3Z2R0DQ0JILA343KWS2X08FO0R52ES", "dateTime": 1519420525249}, {"current_trial": 96, "trialdata": {"rt": -1000, "trial_type": "single-audio", "word": "beaver", "stimulus": "/static/audio/wordpool/BEAVER.wav", "conditions": [24, 800, "a", 24000], "internal_node_id": "0.0-69.0", "trial": 2, "time_elapsed": 432981, "serialpos": 7, "key_press": -1, "wordID": 108, "type": "PRES_AUD", "trial_index": 96}, "uniqueid": "MTK2870:3Z2R0DQ0JILA343KWS2X08FO0R52ES", "dateTime": 1519420527200}, {"current_trial": 97, "trialdata": {"rt": -1000, "trial_type": "single-audio", "word": "twig", "stimulus": "/static/audio/wordpool/TWIG.wav", "conditions": [24, 800, "a", 24000], "internal_node_id": "0.0-70.0", "trial": 2, "time_elapsed": 434737, "serialpos": 8, "key_press": -1, "wordID": 1526, "type": "PRES_AUD", "trial_index": 97}, "uniqueid": "MTK2870:3Z2R0DQ0JILA343KWS2X08FO0R52ES", "dateTime": 1519420528956}, {"current_trial": 98, "trialdata": {"rt": -1000, "trial_type": "single-audio", "word": "queen", "stimulus": "/static/audio/wordpool/QUEEN.wav", "conditions": [24, 800, "a", 24000], "internal_node_id": "0.0-71.0", "trial": 2, "time_elapsed": 436574, "serialpos": 9, "key_press": -1, "wordID": 1148, "type": "PRES_AUD", "trial_index": 98}, "uniqueid": "MTK2870:3Z2R0DQ0JILA343KWS2X08FO0R52ES", "dateTime": 1519420530793}, {"current_trial": 99, "trialdata": {"rt": -1000, "trial_type": "single-audio", "word": "chipmunk", "stimulus": "/static/audio/wordpool/CHIPMUNK.wav", "conditions": [24, 800, "a", 24000], "internal_node_id": "0.0-72.0", "trial": 2, "time_elapsed": 438341, "serialpos": 10, "key_press": -1, "wordID": 303, "type": "PRES_AUD", "trial_index": 99}, "uniqueid": "MTK2870:3Z2R0DQ0JILA343KWS2X08FO0R52ES", "dateTime": 1519420532560}, {"current_trial": 100, "trialdata": {"rt": -1000, "trial_type": "single-audio", "word": "lapel", "stimulus": "/static/audio/wordpool/LAPEL.wav", "conditions": [24, 800, "a", 24000], "internal_node_id": "0.0-73.0", "trial": 2, "time_elapsed": 440212, "serialpos": 11, "key_press": -1, "wordID": 799, "type": "PRES_AUD", "trial_index": 100}, "uniqueid": "MTK2870:3Z2R0DQ0JILA343KWS2X08FO0R52ES", "dateTime": 1519420534431}, {"current_trial": 101, "trialdata": {"rt": -1000, "trial_type": "single-audio", "word": "garden", "stimulus": "/static/audio/wordpool/GARDEN.wav", "conditions": [24, 800, "a", 24000], "internal_node_id": "0.0-74.0", "trial": 2, "time_elapsed": 441910, "serialpos": 12, "key_press": -1, "wordID": 622, "type": "PRES_AUD", "trial_index": 101}, "uniqueid": "MTK2870:3Z2R0DQ0JILA343KWS2X08FO0R52ES", "dateTime": 1519420536129}, {"current_trial": 102, "trialdata": {"rt": -1000, "trial_type": "single-audio", "word": "ozone", "stimulus": "/static/audio/wordpool/OZONE.wav", "conditions": [24, 800, "a", 24000], "internal_node_id": "0.0-75.0", "trial": 2, "time_elapsed": 443627, "serialpos": 13, "key_press": -1, "wordID": 995, "type": "PRES_AUD", "trial_index": 102}, "uniqueid": "MTK2870:3Z2R0DQ0JILA343KWS2X08FO0R52ES", "dateTime": 1519420537846}, {"current_trial": 103, "trialdata": {"rt": -1000, "trial_type": "single-audio", "word": "popcorn", "stimulus": "/static/audio/wordpool/POPCORN.wav", "conditions": [24, 800, "a", 24000], "internal_node_id": "0.0-76.0", "trial": 2, "time_elapsed": 445353, "serialpos": 14, "key_press": -1, "wordID": 1103, "type": "PRES_AUD", "trial_index": 103}, "uniqueid": "MTK2870:3Z2R0DQ0JILA343KWS2X08FO0R52ES", "dateTime": 1519420539572}, {"current_trial": 104, "trialdata": {"rt": -1000, "trial_type": "single-audio", "word": "lily", "stimulus": "/static/audio/wordpool/LILY.wav", "conditions": [24, 800, "a", 24000], "internal_node_id": "0.0-77.0", "trial": 2, "time_elapsed": 447022, "serialpos": 15, "key_press": -1, "wordID": 820, "type": "PRES_AUD", "trial_index": 104}, "uniqueid": "MTK2870:3Z2R0DQ0JILA343KWS2X08FO0R52ES", "dateTime": 1519420541241}, {"current_trial": 105, "trialdata": {"rt": -1000, "trial_type": "single-audio", "word": "cattle", "stimulus": "/static/audio/wordpool/CATTLE.wav", "conditions": [24, 800, "a", 24000], "internal_node_id": "0.0-78.0", "trial": 2, "time_elapsed": 448871, "serialpos": 16, "key_press": -1, "wordID": 260, "type": "PRES_AUD", "trial_index": 105}, "uniqueid": "MTK2870:3Z2R0DQ0JILA343KWS2X08FO0R52ES", "dateTime": 1519420543090}, {"current_trial": 106, "trialdata": {"rt": -1000, "trial_type": "single-audio", "word": "soda", "stimulus": "/static/audio/wordpool/SODA.wav", "conditions": [24, 800, "a", 24000], "internal_node_id": "0.0-79.0", "trial": 2, "time_elapsed": 450620, "serialpos": 17, "key_press": -1, "wordID": 1340, "type": "PRES_AUD", "trial_index": 106}, "uniqueid": "MTK2870:3Z2R0DQ0JILA343KWS2X08FO0R52ES", "dateTime": 1519420544839}, {"current_trial": 107, "trialdata": {"rt": -1000, "trial_type": "single-audio", "word": "tutu", "stimulus": "/static/audio/wordpool/TUTU.wav", "conditions": [24, 800, "a", 24000], "internal_node_id": "0.0-80.0", "trial": 2, "time_elapsed": 452260, "serialpos": 18, "key_press": -1, "wordID": 1523, "type": "PRES_AUD", "trial_index": 107}, "uniqueid": "MTK2870:3Z2R0DQ0JILA343KWS2X08FO0R52ES", "dateTime": 1519420546479}, {"current_trial": 108, "trialdata": {"rt": -1000, "trial_type": "single-audio", "word": "coffee", "stimulus": "/static/audio/wordpool/COFFEE.wav", "conditions": [24, 800, "a", 24000], "internal_node_id": "0.0-81.0", "trial": 2, "time_elapsed": 454211, "serialpos": 19, "key_press": -1, "wordID": 340, "type": "PRES_AUD", "trial_index": 108}, "uniqueid": "MTK2870:3Z2R0DQ0JILA343KWS2X08FO0R52ES", "dateTime": 1519420548430}, {"current_trial": 109, "trialdata": {"rt": -1000, "trial_type": "single-audio", "word": "daughter", "stimulus": "/static/audio/wordpool/DAUGHTER.wav", "conditions": [24, 800, "a", 24000], "internal_node_id": "0.0-82.0", "trial": 2, "time_elapsed": 455979, "serialpos": 20, "key_press": -1, "wordID": 441, "type": "PRES_AUD", "trial_index": 109}, "uniqueid": "MTK2870:3Z2R0DQ0JILA343KWS2X08FO0R52ES", "dateTime": 1519420550198}, {"current_trial": 110, "trialdata": {"rt": -1000, "trial_type": "single-audio", "word": "widow", "stimulus": "/static/audio/wordpool/WIDOW.wav", "conditions": [24, 800, "a", 24000], "internal_node_id": "0.0-83.0", "trial": 2, "time_elapsed": 457963, "serialpos": 21, "key_press": -1, "wordID": 1607, "type": "PRES_AUD", "trial_index": 110}, "uniqueid": "MTK2870:3Z2R0DQ0JILA343KWS2X08FO0R52ES", "dateTime": 1519420552182}, {"current_trial": 111, "trialdata": {"rt": -1000, "trial_type": "single-audio", "word": "temple", "stimulus": "/static/audio/wordpool/TEMPLE.wav", "conditions": [24, 800, "a", 24000], "internal_node_id": "0.0-84.0", "trial": 2, "time_elapsed": 459805, "serialpos": 22, "key_press": -1, "wordID": 1447, "type": "PRES_AUD", "trial_index": 111}, "uniqueid": "MTK2870:3Z2R0DQ0JILA343KWS2X08FO0R52ES", "dateTime": 1519420554024}, {"current_trial": 112, "trialdata": {"rt": -1000, "trial_type": "single-audio", "word": "onion", "stimulus": "/static/audio/wordpool/ONION.wav", "conditions": [24, 800, "a", 24000], "internal_node_id": "0.0-85.0", "trial": 2, "time_elapsed": 461721, "serialpos": 23, "key_press": -1, "wordID": 976, "type": "PRES_AUD", "trial_index": 112}, "uniqueid": "MTK2870:3Z2R0DQ0JILA343KWS2X08FO0R52ES", "dateTime": 1519420555940}, {"current_trial": 113, "trialdata": {"rt": -1, "trial_type": "single-stim", "stimulus": "", "internal_node_id": "0.0-86.0-0.0", "time_elapsed": 462944, "key_press": -1, "type": "PRE_RECALL_DELAY", "trial_index": 113}, "uniqueid": "MTK2870:3Z2R0DQ0JILA343KWS2X08FO0R52ES", "dateTime": 1519420557163}, {"current_trial": 114, "trialdata": {"rt": -1000, "trial_type": "single-audio", "stimulus": "/static/audio/400Hz.wav", "internal_node_id": "0.0-87.0", "time_elapsed": 463444, "key_press": -1, "type": "PRE_RECALL_ALERT", "trial_index": 114}, "uniqueid": "MTK2870:3Z2R0DQ0JILA343KWS2X08FO0R52ES", "dateTime": 1519420557663}, {"current_trial": 115, "trialdata": {"rt": [4342, 6198, 8311, 10255, 11591, 13615, 14647, 15671, 17127, 20575, 22254, 23223, 24406, 25175, 29407, 30871, 32735, 34615, 37543, 39774, 41702, 44719, 48875, 59066], "recwords": ["onion", "temple", "coffee", "daughter", "widow", "bacon", "cod", "tuba", "scarf", "turtle", "ozone", "soda", "cattle", "tutu", "twig", "beaver", "popcorn", "lily", "onion", "bacon", "twig", "panther", "chipmunk", "widow"], "key_times": [2943, 3119, 3303, 3479, 3639, 4342, 5238, 5351, 5423, 5606, 5710, 6030, 6198, 6478, 7198, 7414, 7543, 7687, 7839, 8311, 9191, 9303, 9391, 9559, 9655, 9775, 9871, 9951, 10255, 10983, 11095, 11207, 11303, 11447, 11591, 12783, 12847, 13080, 13175, 13375, 13615, 14271, 14367, 14527, 14647, 14911, 15039, 15199, 15415, 15671, 16463, 16623, 16711, 16879, 17023, 17127, 18311, 18487, 19287, 19535, 19671, 20215, 20575, 21071, 21391, 21495, 21662, 22015, 22254, 22559, 22655, 22902, 23047, 23223, 23558, 23662, 23910, 24030, 24134, 24238, 24406, 24670, 24782, 24870, 24959, 25175, 28767, 28927, 29031, 29207, 29407, 29807, 29863, 29943, 30127, 30247, 30343, 30871, 31799, 31895, 32007, 32215, 32303, 32423, 32527, 32735, 34015, 34175, 34343, 34511, 34615, 36743, 36895, 37039, 37199, 37343, 37543, 39150, 39222, 39350, 39422, 39582, 39774, 41206, 41374, 41446, 41599, 41702, 44080, 44199, 44295, 44407, 44471, 44559, 44623, 44719, 47683, 47755, 47843, 48043, 48211, 48403, 48563, 48683, 48875, 50715, 51499, 51707, 51883, 52035, 52195, 52363, 58507, 58618, 58723, 58851, 58923, 59066], "trial_type": "free-recall", "conditions": [24, 800, "a", 24000], "internal_node_id": "0.0-88.0-0.0", "key_presses": [79, 78, 73, 79, 78, 13, 84, 69, 77, 80, 76, 69, 13, 67, 79, 70, 70, 69, 69, 13, 68, 65, 85, 71, 72, 84, 69, 82, 13, 87, 73, 68, 79, 87, 13, 66, 65, 67, 79, 78, 13, 67, 79, 68, 13, 84, 85, 66, 65, 13, 83, 67, 65, 82, 70, 13, 84, 85, 82, 84, 76, 69, 13, 79, 90, 79, 78, 69, 13, 83, 79, 68, 65, 13, 67, 65, 84, 84, 76, 69, 13, 84, 85, 84, 85, 13, 84, 87, 73, 71, 13, 66, 69, 65, 86, 69, 82, 13, 80, 79, 80, 67, 79, 82, 78, 13, 76, 73, 76, 89, 13, 79, 78, 73, 79, 78, 13, 66, 65, 67, 79, 78, 13, 84, 87, 73, 71, 13, 80, 65, 78, 84, 72, 69, 82, 13, 67, 72, 73, 80, 77, 85, 78, 75, 13, 67, 8, 8, 8, 8, 8, 8, 87, 73, 68, 79, 87, 13], "trial": 2, "time_elapsed": 523442, "type": "FREE_RECALL", "trial_index": 115}, "uniqueid": "MTK2870:3Z2R0DQ0JILA343KWS2X08FO0R52ES", "dateTime": 1519420617664}, {"current_trial": 116, "trialdata": {"rt": 1323, "trial_type": "text", "internal_node_id": "0.0-89.0", "time_elapsed": 526768, "key_press": 13, "type": "INSTRUCTIONS", "trial_index": 116}, "uniqueid": "MTK2870:3Z2R0DQ0JILA343KWS2X08FO0R52ES", "dateTime": 1519420620988}, {"current_trial": 117, "trialdata": {"rt": [1886, 3382, 5502, 6806, 8326, 9621, 11429, 13966, 15262, 17054, 19030, 21198, 22782], "trial_type": "math-distractor", "key_times": [1566, 1742, 1886, 3046, 3222, 3382, 5046, 5366, 5502, 6526, 6662, 6806, 7990, 8149, 8326, 9341, 9485, 9621, 11093, 11221, 11429, 13583, 13814, 13966, 14950, 15166, 15262, 16782, 17054, 18814, 19030, 20926, 21094, 21198, 22454, 22662, 22782], "responses": ["11", "13", "17", "14", "13", "13", "18", "15", "16", "8", "5", "11", "14"], "num2": [5, 6, 4, 8, 4, 6, 4, 6, 2, 1, 2, 4, 7, 8], "num3": [4, 5, 6, 4, 5, 3, 6, 8, 6, 3, 1, 2, 6, 5], "conditions": [12, 1600, "a", 24000], "internal_node_id": "0.0-90.0", "key_presses": [49, 49, 13, 49, 51, 13, 49, 55, 13, 49, 52, 13, 49, 51, 13, 49, 51, 13, 49, 56, 13, 49, 53, 13, 49, 54, 13, 56, 13, 53, 13, 49, 49, 13, 49, 52, 13], "trial": 3, "time_elapsed": 552772, "type": "DISTRACTOR", "trial_index": 117, "num1": [2, 2, 7, 2, 4, 4, 8, 1, 8, 4, 2, 5, 1, 1]}, "uniqueid": "MTK2870:3Z2R0DQ0JILA343KWS2X08FO0R52ES", "dateTime": 1519420646991}, {"current_trial": 118, "trialdata": {"rt": -1, "trial_type": "single-stim", "stimulus": "<p id=\"stim\">10</p>", "internal_node_id": "0.0-91.0-0.0", "time_elapsed": 555772, "key_press": -1, "trial_index": 118}, "uniqueid": "MTK2870:3Z2R0DQ0JILA343KWS2X08FO0R52ES", "dateTime": 1519420649991}, {"current_trial": 119, "trialdata": {"rt": -1, "trial_type": "single-stim", "stimulus": "<p id=\"stim\">9</p>", "internal_node_id": "0.0-91.0-1.0", "time_elapsed": 556772, "key_press": -1, "trial_index": 119}, "uniqueid": "MTK2870:3Z2R0DQ0JILA343KWS2X08FO0R52ES", "dateTime": 1519420650991}, {"current_trial": 120, "trialdata": {"rt": -1, "trial_type": "single-stim", "stimulus": "<p id=\"stim\">8</p>", "internal_node_id": "0.0-91.0-2.0", "time_elapsed": 557772, "key_press": -1, "trial_index": 120}, "uniqueid": "MTK2870:3Z2R0DQ0JILA343KWS2X08FO0R52ES", "dateTime": 1519420651991}, {"current_trial": 121, "trialdata": {"rt": -1, "trial_type": "single-stim", "stimulus": "<p id=\"stim\">7</p>", "internal_node_id": "0.0-91.0-3.0", "time_elapsed": 558772, "key_press": -1, "trial_index": 121}, "uniqueid": "MTK2870:3Z2R0DQ0JILA343KWS2X08FO0R52ES", "dateTime": 1519420652991}, {"current_trial": 122, "trialdata": {"rt": -1, "trial_type": "single-stim", "stimulus": "<p id=\"stim\">6</p>", "internal_node_id": "0.0-91.0-4.0", "time_elapsed": 559772, "key_press": -1, "trial_index": 122}, "uniqueid": "MTK2870:3Z2R0DQ0JILA343KWS2X08FO0R52ES", "dateTime": 1519420653991}, {"current_trial": 123, "trialdata": {"rt": -1, "trial_type": "single-stim", "stimulus": "<p id=\"stim\">5</p>", "internal_node_id": "0.0-91.0-5.0", "time_elapsed": 560772, "key_press": -1, "trial_index": 123}, "uniqueid": "MTK2870:3Z2R0DQ0JILA343KWS2X08FO0R52ES", "dateTime": 1519420654991}, {"current_trial": 124, "trialdata": {"rt": -1, "trial_type": "single-stim", "stimulus": "<p id=\"stim\">4</p>", "internal_node_id": "0.0-91.0-6.0", "time_elapsed": 561772, "key_press": -1, "trial_index": 124}, "uniqueid": "MTK2870:3Z2R0DQ0JILA343KWS2X08FO0R52ES", "dateTime": 1519420655991}, {"current_trial": 125, "trialdata": {"rt": -1, "trial_type": "single-stim", "stimulus": "<p id=\"stim\">3</p>", "internal_node_id": "0.0-91.0-7.0", "time_elapsed": 562772, "key_press": -1, "trial_index": 125}, "uniqueid": "MTK2870:3Z2R0DQ0JILA343KWS2X08FO0R52ES", "dateTime": 1519420656991}, {"current_trial": 126, "trialdata": {"rt": -1, "trial_type": "single-stim", "stimulus": "<p id=\"stim\">2</p>", "internal_node_id": "0.0-91.0-8.0", "time_elapsed": 563772, "key_press": -1, "trial_index": 126}, "uniqueid": "MTK2870:3Z2R0DQ0JILA343KWS2X08FO0R52ES", "dateTime": 1519420657991}, {"current_trial": 127, "trialdata": {"rt": -1, "trial_type": "single-stim", "stimulus": "<p id=\"stim\">1</p>", "internal_node_id": "0.0-91.0-9.0", "time_elapsed": 564772, "key_press": -1, "trial_index": 127}, "uniqueid": "MTK2870:3Z2R0DQ0JILA343KWS2X08FO0R52ES", "dateTime": 1519420658991}, {"current_trial": 128, "trialdata": {"rt": -1, "trial_type": "single-stim", "stimulus": "<p id=\"stim\">+</p>", "internal_node_id": "0.0-92.0-0.0", "time_elapsed": 566272, "key_press": -1, "type": "FIXATION", "trial_index": 128}, "uniqueid": "MTK2870:3Z2R0DQ0JILA343KWS2X08FO0R52ES", "dateTime": 1519420660491}, {"current_trial": 129, "trialdata": {"rt": -1000, "trial_type": "single-audio", "word": "badge", "stimulus": "/static/audio/wordpool/BADGE.wav", "conditions": [12, 1600, "a", 24000], "internal_node_id": "0.0-93.0", "trial": 3, "time_elapsed": 568948, "serialpos": 0, "key_press": -1, "wordID": 67, "type": "PRES_AUD", "trial_index": 129}, "uniqueid": "MTK2870:3Z2R0DQ0JILA343KWS2X08FO0R52ES", "dateTime": 1519420663167}, {"current_trial": 130, "trialdata": {"rt": -1000, "trial_type": "single-audio", "word": "sticker", "stimulus": "/static/audio/wordpool/STICKER.wav", "conditions": [12, 1600, "a", 24000], "internal_node_id": "0.0-94.0", "trial": 3, "time_elapsed": 571478, "serialpos": 1, "key_press": -1, "wordID": 1381, "type": "PRES_AUD", "trial_index": 130}, "uniqueid": "MTK2870:3Z2R0DQ0JILA343KWS2X08FO0R52ES", "dateTime": 1519420665697}, {"current_trial": 131, "trialdata": {"rt": -1000, "trial_type": "single-audio", "word": "climber", "stimulus": "/static/audio/wordpool/CLIMBER.wav", "conditions": [12, 1600, "a", 24000], "internal_node_id": "0.0-95.0", "trial": 3, "time_elapsed": 573944, "serialpos": 2, "key_press": -1, "wordID": 322, "type": "PRES_AUD", "trial_index": 131}, "uniqueid": "MTK2870:3Z2R0DQ0JILA343KWS2X08FO0R52ES", "dateTime": 1519420668163}, {"current_trial": 132, "trialdata": {"rt": -1000, "trial_type": "single-audio", "word": "concert", "stimulus": "/static/audio/wordpool/CONCERT.wav", "conditions": [12, 1600, "a", 24000], "internal_node_id": "0.0-96.0", "trial": 3, "time_elapsed": 576597, "serialpos": 3, "key_press": -1, "wordID": 359, "type": "PRES_AUD", "trial_index": 132}, "uniqueid": "MTK2870:3Z2R0DQ0JILA343KWS2X08FO0R52ES", "dateTime": 1519420670816}, {"current_trial": 133, "trialdata": {"rt": -1000, "trial_type": "single-audio", "word": "tweezers", "stimulus": "/static/audio/wordpool/TWEEZERS.wav", "conditions": [12, 1600, "a", 24000], "internal_node_id": "0.0-97.0", "trial": 3, "time_elapsed": 579136, "serialpos": 4, "key_press": -1, "wordID": 1525, "type": "PRES_AUD", "trial_index": 133}, "uniqueid": "MTK2870:3Z2R0DQ0JILA343KWS2X08FO0R52ES", "dateTime": 1519420673355}, {"current_trial": 134, "trialdata": {"rt": -1000, "trial_type": "single-audio", "word": "velvet", "stimulus": "/static/audio/wordpool/VELVET.wav", "conditions": [12, 1600, "a", 24000], "internal_node_id": "0.0-98.0", "trial": 3, "time_elapsed": 581825, "serialpos": 5, "key_press": -1, "wordID": 1554, "type": "PRES_AUD", "trial_index": 134}, "uniqueid": "MTK2870:3Z2R0DQ0JILA343KWS2X08FO0R52ES", "dateTime": 1519420676044}, {"current_trial": 135, "trialdata": {"rt": -1000, "trial_type": "single-audio", "word": "kitchen", "stimulus": "/static/audio/wordpool/KITCHEN.wav", "conditions": [12, 1600, "a", 24000], "internal_node_id": "0.0-99.0", "trial": 3, "time_elapsed": 584624, "serialpos": 6, "key_press": -1, "wordID": 777, "type": "PRES_AUD", "trial_index": 135}, "uniqueid": "MTK2870:3Z2R0DQ0JILA343KWS2X08FO0R52ES", "dateTime": 1519420678843}, {"current_trial": 136, "trialdata": {"rt": -1000, "trial_type": "single-audio", "word": "scotch", "stimulus": "/static/audio/wordpool/SCOTCH.wav", "conditions": [12, 1600, "a", 24000], "internal_node_id": "0.0-100.0", "trial": 3, "time_elapsed": 587345, "serialpos": 7, "key_press": -1, "wordID": 1250, "type": "PRES_AUD", "trial_index": 136}, "uniqueid": "MTK2870:3Z2R0DQ0JILA343KWS2X08FO0R52ES", "dateTime": 1519420681564}, {"current_trial": 137, "trialdata": {"rt": -1000, "trial_type": "single-audio", "word": "lizard", "stimulus": "/static/audio/wordpool/LIZARD.wav", "conditions": [12, 1600, "a", 24000], "internal_node_id": "0.0-101.0", "trial": 3, "time_elapsed": 590028, "serialpos": 8, "key_press": -1, "wordID": 833, "type": "PRES_AUD", "trial_index": 137}, "uniqueid": "MTK2870:3Z2R0DQ0JILA343KWS2X08FO0R52ES", "dateTime": 1519420684247}, {"current_trial": 138, "trialdata": {"rt": -1000, "trial_type": "single-audio", "word": "poison", "stimulus": "/static/audio/wordpool/POISON.wav", "conditions": [12, 1600, "a", 24000], "internal_node_id": "0.0-102.0", "trial": 3, "time_elapsed": 592801, "serialpos": 9, "key_press": -1, "wordID": 1095, "type": "PRES_AUD", "trial_index": 138}, "uniqueid": "MTK2870:3Z2R0DQ0JILA343KWS2X08FO0R52ES", "dateTime": 1519420687020}, {"current_trial": 139, "trialdata": {"rt": -1000, "trial_type": "single-audio", "word": "kleenex", "stimulus": "/static/audio/wordpool/KLEENEX.wav", "conditions": [12, 1600, "a", 24000], "internal_node_id": "0.0-103.0", "trial": 3, "time_elapsed": 595349, "serialpos": 10, "key_press": -1, "wordID": 781, "type": "PRES_AUD", "trial_index": 139}, "uniqueid": "MTK2870:3Z2R0DQ0JILA343KWS2X08FO0R52ES", "dateTime": 1519420689568}, {"current_trial": 140, "trialdata": {"rt": -1000, "trial_type": "single-audio", "word": "basement", "stimulus": "/static/audio/wordpool/BASEMENT.wav", "conditions": [12, 1600, "a", 24000], "internal_node_id": "0.0-104.0", "trial": 3, "time_elapsed": 598037, "serialpos": 11, "key_press": -1, "wordID": 93, "type": "PRES_AUD", "trial_index": 140}, "uniqueid": "MTK2870:3Z2R0DQ0JILA343KWS2X08FO0R52ES", "dateTime": 1519420692256}, {"current_trial": 141, "trialdata": {"rt": -1, "trial_type": "single-stim", "stimulus": "", "internal_node_id": "0.0-105.0-0.0", "time_elapsed": 599356, "key_press": -1, "type": "PRE_RECALL_DELAY", "trial_index": 141}, "uniqueid": "MTK2870:3Z2R0DQ0JILA343KWS2X08FO0R52ES", "dateTime": 1519420693575}, {"current_trial": 142, "trialdata": {"rt": -1000, "trial_type": "single-audio", "stimulus": "/static/audio/400Hz.wav", "internal_node_id": "0.0-106.0", "time_elapsed": 599856, "key_press": -1, "type": "PRE_RECALL_ALERT", "trial_index": 142}, "uniqueid": "MTK2870:3Z2R0DQ0JILA343KWS2X08FO0R52ES", "dateTime": 1519420694075}, {"current_trial": 143, "trialdata": {"rt": [2588, 5260, 6388, 7989, 9203, 10587, 13140, 14388, 16268, 17332, 19380, 21084], "recwords": ["basement", "kleenex", "poison", "lizard", "scotch", "kitchen", "badge", "sticker", "climber", "concert", "tweezers", "velvet"], "key_times": [1549, 1636, 1732, 1836, 1932, 2116, 2204, 2372, 2588, 3100, 3260, 3428, 3661, 3972, 4229, 4564, 5260, 5540, 5604, 5780, 5916, 5972, 6123, 6388, 6772, 6924, 7043, 7196, 7324, 7484, 7989, 8243, 8411, 8539, 8683, 8892, 8955, 9203, 9731, 9875, 9948, 10083, 10187, 10267, 10363, 10587, 12173, 12260, 12484, 12692, 12844, 13140, 13436, 13612, 13692, 13796, 13868, 14012, 14092, 14388, 14740, 14812, 14916, 15076, 15308, 15484, 15580, 16268, 16588, 16644, 16788, 16852, 16972, 17076, 17236, 17332, 17940, 18116, 18284, 18404, 18596, 18732, 18908, 19052, 19380, 19732, 19844, 19924, 20228, 20388, 20716, 21084], "trial_type": "free-recall", "conditions": [12, 1600, "a", 24000], "internal_node_id": "0.0-107.0-0.0", "key_presses": [66, 65, 83, 69, 77, 69, 78, 84, 13, 75, 76, 69, 69, 78, 69, 88, 13, 80, 79, 73, 83, 79, 78, 13, 76, 73, 90, 65, 82, 68, 13, 83, 67, 79, 84, 67, 72, 13, 75, 73, 84, 67, 72, 69, 78, 13, 66, 65, 68, 71, 69, 13, 83, 84, 73, 67, 75, 69, 82, 13, 67, 76, 73, 77, 66, 69, 82, 13, 67, 79, 78, 67, 69, 82, 84, 13, 84, 87, 69, 69, 90, 69, 82, 83, 13, 86, 69, 76, 86, 69, 84, 13], "trial": 3, "time_elapsed": 659853, "type": "FREE_RECALL", "trial_index": 143}, "uniqueid": "MTK2870:3Z2R0DQ0JILA343KWS2X08FO0R52ES", "dateTime": 1519420754076}, {"current_trial": 144, "trialdata": {"rt": 1545, "trial_type": "text", "internal_node_id": "0.0-108.0", "time_elapsed": 663402, "key_press": 13, "type": "INSTRUCTIONS", "trial_index": 144}, "uniqueid": "MTK2870:3Z2R0DQ0JILA343KWS2X08FO0R52ES", "dateTime": 1519420757621}, {"current_trial": 145, "trialdata": {"rt": [2846, 4718, 6630, 8094, 9949], "trial_type": "math-distractor", "key_times": [2070, 2182, 2846, 4230, 4598, 4718, 6158, 6534, 6630, 7782, 7998, 8094, 9598, 9854, 9949], "responses": ["21", "19", "20", "13", "17"], "num2": [4, 2, 9, 6, 1, 5], "num3": [8, 8, 7, 4, 9, 2], "conditions": [12, 1600, "a", 12000], "internal_node_id": "0.0-109.0", "key_presses": [50, 49, 13, 49, 57, 13, 50, 48, 13, 49, 51, 13, 49, 55, 13], "trial": 4, "time_elapsed": 677403, "type": "DISTRACTOR", "trial_index": 145, "num1": [9, 9, 4, 3, 7, 7]}, "uniqueid": "MTK2870:3Z2R0DQ0JILA343KWS2X08FO0R52ES", "dateTime": 1519420771622}, {"current_trial": 146, "trialdata": {"rt": -1, "trial_type": "single-stim", "stimulus": "<p id=\"stim\">10</p>", "internal_node_id": "0.0-110.0-0.0", "time_elapsed": 680403, "key_press": -1, "trial_index": 146}, "uniqueid": "MTK2870:3Z2R0DQ0JILA343KWS2X08FO0R52ES", "dateTime": 1519420774622}, {"current_trial": 147, "trialdata": {"rt": -1, "trial_type": "single-stim", "stimulus": "<p id=\"stim\">9</p>", "internal_node_id": "0.0-110.0-1.0", "time_elapsed": 681403, "key_press": -1, "trial_index": 147}, "uniqueid": "MTK2870:3Z2R0DQ0JILA343KWS2X08FO0R52ES", "dateTime": 1519420775622}, {"current_trial": 148, "trialdata": {"rt": -1, "trial_type": "single-stim", "stimulus": "<p id=\"stim\">8</p>", "internal_node_id": "0.0-110.0-2.0", "time_elapsed": 682403, "key_press": -1, "trial_index": 148}, "uniqueid": "MTK2870:3Z2R0DQ0JILA343KWS2X08FO0R52ES", "dateTime": 1519420776622}, {"current_trial": 149, "trialdata": {"rt": -1, "trial_type": "single-stim", "stimulus": "<p id=\"stim\">7</p>", "internal_node_id": "0.0-110.0-3.0", "time_elapsed": 683403, "key_press": -1, "trial_index": 149}, "uniqueid": "MTK2870:3Z2R0DQ0JILA343KWS2X08FO0R52ES", "dateTime": 1519420777622}, {"current_trial": 150, "trialdata": {"rt": -1, "trial_type": "single-stim", "stimulus": "<p id=\"stim\">6</p>", "internal_node_id": "0.0-110.0-4.0", "time_elapsed": 684403, "key_press": -1, "trial_index": 150}, "uniqueid": "MTK2870:3Z2R0DQ0JILA343KWS2X08FO0R52ES", "dateTime": 1519420778622}, {"current_trial": 151, "trialdata": {"rt": -1, "trial_type": "single-stim", "stimulus": "<p id=\"stim\">5</p>", "internal_node_id": "0.0-110.0-5.0", "time_elapsed": 685403, "key_press": -1, "trial_index": 151}, "uniqueid": "MTK2870:3Z2R0DQ0JILA343KWS2X08FO0R52ES", "dateTime": 1519420779622}, {"current_trial": 152, "trialdata": {"rt": -1, "trial_type": "single-stim", "stimulus": "<p id=\"stim\">4</p>", "internal_node_id": "0.0-110.0-6.0", "time_elapsed": 686403, "key_press": -1, "trial_index": 152}, "uniqueid": "MTK2870:3Z2R0DQ0JILA343KWS2X08FO0R52ES", "dateTime": 1519420780622}, {"current_trial": 153, "trialdata": {"rt": -1, "trial_type": "single-stim", "stimulus": "<p id=\"stim\">3</p>", "internal_node_id": "0.0-110.0-7.0", "time_elapsed": 687403, "key_press": -1, "trial_index": 153}, "uniqueid": "MTK2870:3Z2R0DQ0JILA343KWS2X08FO0R52ES", "dateTime": 1519420781622}, {"current_trial": 154, "trialdata": {"rt": -1, "trial_type": "single-stim", "stimulus": "<p id=\"stim\">2</p>", "internal_node_id": "0.0-110.0-8.0", "time_elapsed": 688403, "key_press": -1, "trial_index": 154}, "uniqueid": "MTK2870:3Z2R0DQ0JILA343KWS2X08FO0R52ES", "dateTime": 1519420782622}, {"current_trial": 155, "trialdata": {"rt": -1, "trial_type": "single-stim", "stimulus": "<p id=\"stim\">1</p>", "internal_node_id": "0.0-110.0-9.0", "time_elapsed": 689403, "key_press": -1, "trial_index": 155}, "uniqueid": "MTK2870:3Z2R0DQ0JILA343KWS2X08FO0R52ES", "dateTime": 1519420783622}, {"current_trial": 156, "trialdata": {"rt": -1, "trial_type": "single-stim", "stimulus": "<p id=\"stim\">+</p>", "internal_node_id": "0.0-111.0-0.0", "time_elapsed": 690903, "key_press": -1, "type": "FIXATION", "trial_index": 156}, "uniqueid": "MTK2870:3Z2R0DQ0JILA343KWS2X08FO0R52ES", "dateTime": 1519420785122}, {"current_trial": 157, "trialdata": {"rt": -1000, "trial_type": "single-audio", "word": "mustard", "stimulus": "/static/audio/wordpool/MUSTARD.wav", "conditions": [12, 1600, "a", 12000], "internal_node_id": "0.0-112.0", "trial": 4, "time_elapsed": 693509, "serialpos": 0, "key_press": -1, "wordID": 934, "type": "PRES_AUD", "trial_index": 157}, "uniqueid": "MTK2870:3Z2R0DQ0JILA343KWS2X08FO0R52ES", "dateTime": 1519420787728}, {"current_trial": 158, "trialdata": {"rt": -1000, "trial_type": "single-audio", "word": "judge", "stimulus": "/static/audio/wordpool/JUDGE.wav", "conditions": [12, 1600, "a", 12000], "internal_node_id": "0.0-113.0", "trial": 4, "time_elapsed": 695969, "serialpos": 1, "key_press": -1, "wordID": 760, "type": "PRES_AUD", "trial_index": 158}, "uniqueid": "MTK2870:3Z2R0DQ0JILA343KWS2X08FO0R52ES", "dateTime": 1519420790188}, {"current_trial": 159, "trialdata": {"rt": -1000, "trial_type": "single-audio", "word": "wasp", "stimulus": "/static/audio/wordpool/WASP.wav", "conditions": [12, 1600, "a", 12000], "internal_node_id": "0.0-114.0", "trial": 4, "time_elapsed": 698457, "serialpos": 2, "key_press": -1, "wordID": 1592, "type": "PRES_AUD", "trial_index": 159}, "uniqueid": "MTK2870:3Z2R0DQ0JILA343KWS2X08FO0R52ES", "dateTime": 1519420792676}, {"current_trial": 160, "trialdata": {"rt": -1000, "trial_type": "single-audio", "word": "rocket", "stimulus": "/static/audio/wordpool/ROCKET.wav", "conditions": [12, 1600, "a", 12000], "internal_node_id": "0.0-115.0", "trial": 4, "time_elapsed": 701247, "serialpos": 3, "key_press": -1, "wordID": 1201, "type": "PRES_AUD", "trial_index": 160}, "uniqueid": "MTK2870:3Z2R0DQ0JILA343KWS2X08FO0R52ES", "dateTime": 1519420795466}, {"current_trial": 161, "trialdata": {"rt": -1000, "trial_type": "single-audio", "word": "guard", "stimulus": "/static/audio/wordpool/GUARD.wav", "conditions": [12, 1600, "a", 12000], "internal_node_id": "0.0-116.0", "trial": 4, "time_elapsed": 703800, "serialpos": 4, "key_press": -1, "wordID": 666, "type": "PRES_AUD", "trial_index": 161}, "uniqueid": "MTK2870:3Z2R0DQ0JILA343KWS2X08FO0R52ES", "dateTime": 1519420798019}, {"current_trial": 162, "trialdata": {"rt": -1000, "trial_type": "single-audio", "word": "turnip", "stimulus": "/static/audio/wordpool/TURNIP.wav", "conditions": [12, 1600, "a", 12000], "internal_node_id": "0.0-117.0", "trial": 4, "time_elapsed": 706498, "serialpos": 5, "key_press": -1, "wordID": 1520, "type": "PRES_AUD", "trial_index": 162}, "uniqueid": "MTK2870:3Z2R0DQ0JILA343KWS2X08FO0R52ES", "dateTime": 1519420800717}, {"current_trial": 163, "trialdata": {"rt": -1000, "trial_type": "single-audio", "word": "casket", "stimulus": "/static/audio/wordpool/CASKET.wav", "conditions": [12, 1600, "a", 12000], "internal_node_id": "0.0-118.0", "trial": 4, "time_elapsed": 709230, "serialpos": 6, "key_press": -1, "wordID": 254, "type": "PRES_AUD", "trial_index": 163}, "uniqueid": "MTK2870:3Z2R0DQ0JILA343KWS2X08FO0R52ES", "dateTime": 1519420803449}, {"current_trial": 164, "trialdata": {"rt": -1000, "trial_type": "single-audio", "word": "fox", "stimulus": "/static/audio/wordpool/FOX.wav", "conditions": [12, 1600, "a", 12000], "internal_node_id": "0.0-119.0", "trial": 4, "time_elapsed": 711834, "serialpos": 7, "key_press": -1, "wordID": 597, "type": "PRES_AUD", "trial_index": 164}, "uniqueid": "MTK2870:3Z2R0DQ0JILA343KWS2X08FO0R52ES", "dateTime": 1519420806053}, {"current_trial": 165, "trialdata": {"rt": -1000, "trial_type": "single-audio", "word": "parrot", "stimulus": "/static/audio/wordpool/PARROT.wav", "conditions": [12, 1600, "a", 12000], "internal_node_id": "0.0-120.0", "trial": 4, "time_elapsed": 714492, "serialpos": 8, "key_press": -1, "wordID": 1014, "type": "PRES_AUD", "trial_index": 165}, "uniqueid": "MTK2870:3Z2R0DQ0JILA343KWS2X08FO0R52ES", "dateTime": 1519420808711}, {"current_trial": 166, "trialdata": {"rt": -1000, "trial_type": "single-audio", "word": "rooster", "stimulus": "/static/audio/wordpool/ROOSTER.wav", "conditions": [12, 1600, "a", 12000], "internal_node_id": "0.0-121.0", "trial": 4, "time_elapsed": 716906, "serialpos": 9, "key_press": -1, "wordID": 1208, "type": "PRES_AUD", "trial_index": 166}, "uniqueid": "MTK2870:3Z2R0DQ0JILA343KWS2X08FO0R52ES", "dateTime": 1519420811125}, {"current_trial": 167, "trialdata": {"rt": -1000, "trial_type": "single-audio", "word": "tombstone", "stimulus": "/static/audio/wordpool/TOMBSTONE.wav", "conditions": [12, 1600, "a", 12000], "internal_node_id": "0.0-122.0", "trial": 4, "time_elapsed": 719309, "serialpos": 10, "key_press": -1, "wordID": 1477, "type": "PRES_AUD", "trial_index": 167}, "uniqueid": "MTK2870:3Z2R0DQ0JILA343KWS2X08FO0R52ES", "dateTime": 1519420813528}, {"current_trial": 168, "trialdata": {"rt": -1000, "trial_type": "single-audio", "word": "staple", "stimulus": "/static/audio/wordpool/STAPLE.wav", "conditions": [12, 1600, "a", 12000], "internal_node_id": "0.0-123.0", "trial": 4, "time_elapsed": 721746, "serialpos": 11, "key_press": -1, "wordID": 1370, "type": "PRES_AUD", "trial_index": 168}, "uniqueid": "MTK2870:3Z2R0DQ0JILA343KWS2X08FO0R52ES", "dateTime": 1519420815965}, {"current_trial": 169, "trialdata": {"rt": -1, "trial_type": "single-stim", "stimulus": "", "internal_node_id": "0.0-124.0-0.0", "time_elapsed": 723084, "key_press": -1, "type": "PRE_RECALL_DELAY", "trial_index": 169}, "uniqueid": "MTK2870:3Z2R0DQ0JILA343KWS2X08FO0R52ES", "dateTime": 1519420817303}, {"current_trial": 170, "trialdata": {"rt": -1000, "trial_type": "single-audio", "stimulus": "/static/audio/400Hz.wav", "internal_node_id": "0.0-125.0", "time_elapsed": 723584, "key_press": -1, "type": "PRE_RECALL_ALERT", "trial_index": 170}, "uniqueid": "MTK2870:3Z2R0DQ0JILA343KWS2X08FO0R52ES", "dateTime": 1519420817806}, {"current_trial": 171, "trialdata": {"rt": [1649, 3417, 5609, 6720, 8297, 9232, 10697, 11881, 13370, 15761, 17017], "recwords": ["staple", "tombstone", "rooster", "fox", "turnip", "parrot", "mustard", "judge", "casket", "guard", "rocket"], "key_times": [993, 1129, 1257, 1329, 1433, 1513, 1649, 2113, 2177, 2305, 2393, 2569, 2753, 2809, 2985, 3305, 3417, 3689, 3753, 3881, 4009, 4777, 5001, 5329, 5609, 6161, 6257, 6433, 6720, 7384, 7480, 7569, 7672, 7872, 8088, 8297, 8560, 8633, 8792, 8904, 8992, 9128, 9232, 9673, 9873, 9945, 10098, 10209, 10377, 10577, 10697, 11194, 11337, 11481, 11681, 11793, 11881, 12465, 12577, 12721, 12833, 12953, 13145, 13370, 15273, 15345, 15449, 15553, 15681, 15761, 16305, 16377, 16505, 16585, 16689, 16785, 17017], "trial_type": "free-recall", "conditions": [12, 1600, "a", 12000], "internal_node_id": "0.0-126.0-0.0", "key_presses": [83, 84, 65, 80, 76, 69, 13, 84, 79, 77, 66, 83, 84, 79, 78, 69, 13, 82, 79, 79, 83, 84, 69, 82, 13, 70, 79, 88, 13, 84, 85, 82, 78, 73, 80, 13, 80, 65, 82, 82, 79, 84, 13, 77, 85, 83, 84, 65, 82, 68, 13, 74, 85, 68, 71, 69, 13, 67, 65, 83, 75, 69, 84, 13, 71, 85, 65, 82, 68, 13, 82, 79, 67, 75, 69, 84, 13], "trial": 4, "time_elapsed": 783585, "type": "FREE_RECALL", "trial_index": 171}, "uniqueid": "MTK2870:3Z2R0DQ0JILA343KWS2X08FO0R52ES", "dateTime": 1519420877808}, {"current_trial": 172, "trialdata": {"rt": 413, "trial_type": "text", "internal_node_id": "0.0-127.0", "time_elapsed": 786003, "key_press": 13, "type": "INSTRUCTIONS", "trial_index": 172}, "uniqueid": "MTK2870:3Z2R0DQ0JILA343KWS2X08FO0R52ES", "dateTime": 1519420880222}, {"current_trial": 173, "trialdata": {"rt": [1814, 3334, 4942, 6462, 8110, 9790, 11477], "trial_type": "math-distractor", "key_times": [1406, 1558, 1814, 2910, 3246, 3334, 4870, 4942, 6246, 6358, 6462, 7790, 8046, 8110, 9486, 9718, 9790, 11038, 11358, 11477], "responses": ["24", "17", "8", "12", "16", "15", "13"], "num2": [9, 3, 1, 5, 1, 4, 3, 8], "num3": [7, 5, 6, 4, 7, 3, 6, 2], "conditions": [24, 1600, "a", 12000], "internal_node_id": "0.0-128.0", "key_presses": [50, 52, 13, 49, 55, 13, 56, 13, 49, 50, 13, 49, 54, 13, 49, 53, 13, 49, 51, 13], "trial": 5, "time_elapsed": 800004, "type": "DISTRACTOR", "trial_index": 173, "num1": [8, 9, 1, 3, 8, 8, 4, 3]}, "uniqueid": "MTK2870:3Z2R0DQ0JILA343KWS2X08FO0R52ES", "dateTime": 1519420894223}, {"current_trial": 174, "trialdata": {"rt": -1, "trial_type": "single-stim", "stimulus": "<p id=\"stim\">10</p>", "internal_node_id": "0.0-129.0-0.0", "time_elapsed": 803004, "key_press": -1, "trial_index": 174}, "uniqueid": "MTK2870:3Z2R0DQ0JILA343KWS2X08FO0R52ES", "dateTime": 1519420897223}, {"current_trial": 175, "trialdata": {"rt": -1, "trial_type": "single-stim", "stimulus": "<p id=\"stim\">9</p>", "internal_node_id": "0.0-129.0-1.0", "time_elapsed": 804004, "key_press": -1, "trial_index": 175}, "uniqueid": "MTK2870:3Z2R0DQ0JILA343KWS2X08FO0R52ES", "dateTime": 1519420898223}, {"current_trial": 176, "trialdata": {"rt": -1, "trial_type": "single-stim", "stimulus": "<p id=\"stim\">8</p>", "internal_node_id": "0.0-129.0-2.0", "time_elapsed": 805004, "key_press": -1, "trial_index": 176}, "uniqueid": "MTK2870:3Z2R0DQ0JILA343KWS2X08FO0R52ES", "dateTime": 1519420899223}, {"current_trial": 177, "trialdata": {"rt": -1, "trial_type": "single-stim", "stimulus": "<p id=\"stim\">7</p>", "internal_node_id": "0.0-129.0-3.0", "time_elapsed": 806004, "key_press": -1, "trial_index": 177}, "uniqueid": "MTK2870:3Z2R0DQ0JILA343KWS2X08FO0R52ES", "dateTime": 1519420900223}, {"current_trial": 178, "trialdata": {"rt": -1, "trial_type": "single-stim", "stimulus": "<p id=\"stim\">6</p>", "internal_node_id": "0.0-129.0-4.0", "time_elapsed": 807004, "key_press": -1, "trial_index": 178}, "uniqueid": "MTK2870:3Z2R0DQ0JILA343KWS2X08FO0R52ES", "dateTime": 1519420901223}, {"current_trial": 179, "trialdata": {"rt": -1, "trial_type": "single-stim", "stimulus": "<p id=\"stim\">5</p>", "internal_node_id": "0.0-129.0-5.0", "time_elapsed": 808004, "key_press": -1, "trial_index": 179}, "uniqueid": "MTK2870:3Z2R0DQ0JILA343KWS2X08FO0R52ES", "dateTime": 1519420902223}, {"current_trial": 180, "trialdata": {"rt": -1, "trial_type": "single-stim", "stimulus": "<p id=\"stim\">4</p>", "internal_node_id": "0.0-129.0-6.0", "time_elapsed": 809004, "key_press": -1, "trial_index": 180}, "uniqueid": "MTK2870:3Z2R0DQ0JILA343KWS2X08FO0R52ES", "dateTime": 1519420903223}, {"current_trial": 181, "trialdata": {"rt": -1, "trial_type": "single-stim", "stimulus": "<p id=\"stim\">3</p>", "internal_node_id": "0.0-129.0-7.0", "time_elapsed": 810004, "key_press": -1, "trial_index": 181}, "uniqueid": "MTK2870:3Z2R0DQ0JILA343KWS2X08FO0R52ES", "dateTime": 1519420904223}, {"current_trial": 182, "trialdata": {"rt": -1, "trial_type": "single-stim", "stimulus": "<p id=\"stim\">2</p>", "internal_node_id": "0.0-129.0-8.0", "time_elapsed": 811004, "key_press": -1, "trial_index": 182}, "uniqueid": "MTK2870:3Z2R0DQ0JILA343KWS2X08FO0R52ES", "dateTime": 1519420905223}, {"current_trial": 183, "trialdata": {"rt": -1, "trial_type": "single-stim", "stimulus": "<p id=\"stim\">1</p>", "internal_node_id": "0.0-129.0-9.0", "time_elapsed": 812008, "key_press": -1, "trial_index": 183}, "uniqueid": "MTK2870:3Z2R0DQ0JILA343KWS2X08FO0R52ES", "dateTime": 1519420906227}, {"current_trial": 184, "trialdata": {"rt": -1, "trial_type": "single-stim", "stimulus": "<p id=\"stim\">+</p>", "internal_node_id": "0.0-130.0-0.0", "time_elapsed": 813508, "key_press": -1, "type": "FIXATION", "trial_index": 184}, "uniqueid": "MTK2870:3Z2R0DQ0JILA343KWS2X08FO0R52ES", "dateTime": 1519420907727}, {"current_trial": 185, "trialdata": {"rt": -1000, "trial_type": "single-audio", "word": "hound", "stimulus": "/static/audio/wordpool/HOUND.wav", "conditions": [24, 1600, "a", 12000], "internal_node_id": "0.0-131.0", "trial": 5, "time_elapsed": 816294, "serialpos": 0, "key_press": -1, "wordID": 723, "type": "PRES_AUD", "trial_index": 185}, "uniqueid": "MTK2870:3Z2R0DQ0JILA343KWS2X08FO0R52ES", "dateTime": 1519420910513}, {"current_trial": 186, "trialdata": {"rt": -1000, "trial_type": "single-audio", "word": "sunrise", "stimulus": "/static/audio/wordpool/SUNRISE.wav", "conditions": [24, 1600, "a", 12000], "internal_node_id": "0.0-132.0", "trial": 5, "time_elapsed": 818926, "serialpos": 1, "key_press": -1, "wordID": 1406, "type": "PRES_AUD", "trial_index": 186}, "uniqueid": "MTK2870:3Z2R0DQ0JILA343KWS2X08FO0R52ES", "dateTime": 1519420913145}, {"current_trial": 187, "trialdata": {"rt": -1000, "trial_type": "single-audio", "word": "outfit", "stimulus": "/static/audio/wordpool/OUTFIT.wav", "conditions": [24, 1600, "a", 12000], "internal_node_id": "0.0-133.0", "trial": 5, "time_elapsed": 821355, "serialpos": 2, "key_press": -1, "wordID": 987, "type": "PRES_AUD", "trial_index": 187}, "uniqueid": "MTK2870:3Z2R0DQ0JILA343KWS2X08FO0R52ES", "dateTime": 1519420915574}, {"current_trial": 188, "trialdata": {"rt": -1000, "trial_type": "single-audio", "word": "spool", "stimulus": "/static/audio/wordpool/SPOOL.wav", "conditions": [24, 1600, "a", 12000], "internal_node_id": "0.0-134.0", "trial": 5, "time_elapsed": 823793, "serialpos": 3, "key_press": -1, "wordID": 1355, "type": "PRES_AUD", "trial_index": 188}, "uniqueid": "MTK2870:3Z2R0DQ0JILA343KWS2X08FO0R52ES", "dateTime": 1519420918012}, {"current_trial": 189, "trialdata": {"rt": -1000, "trial_type": "single-audio", "word": "pigment", "stimulus": "/static/audio/wordpool/PIGMENT.wav", "conditions": [24, 1600, "a", 12000], "internal_node_id": "0.0-135.0", "trial": 5, "time_elapsed": 826234, "serialpos": 4, "key_press": -1, "wordID": 1065, "type": "PRES_AUD", "trial_index": 189}, "uniqueid": "MTK2870:3Z2R0DQ0JILA343KWS2X08FO0R52ES", "dateTime": 1519420920453}, {"current_trial": 190, "trialdata": {"rt": -1000, "trial_type": "single-audio", "word": "tourist", "stimulus": "/static/audio/wordpool/TOURIST.wav", "conditions": [24, 1600, "a", 12000], "internal_node_id": "0.0-136.0", "trial": 5, "time_elapsed": 828945, "serialpos": 5, "key_press": -1, "wordID": 1487, "type": "PRES_AUD", "trial_index": 190}, "uniqueid": "MTK2870:3Z2R0DQ0JILA343KWS2X08FO0R52ES", "dateTime": 1519420923164}, {"current_trial": 191, "trialdata": {"rt": -1000, "trial_type": "single-audio", "word": "crater", "stimulus": "/static/audio/wordpool/CRATER.wav", "conditions": [24, 1600, "a", 12000], "internal_node_id": "0.0-137.0", "trial": 5, "time_elapsed": 831647, "serialpos": 6, "key_press": -1, "wordID": 399, "type": "PRES_AUD", "trial_index": 191}, "uniqueid": "MTK2870:3Z2R0DQ0JILA343KWS2X08FO0R52ES", "dateTime": 1519420925866}, {"current_trial": 192, "trialdata": {"rt": -1000, "trial_type": "single-audio", "word": "pizza", "stimulus": "/static/audio/wordpool/PIZZA.wav", "conditions": [24, 1600, "a", 12000], "internal_node_id": "0.0-138.0", "trial": 5, "time_elapsed": 834148, "serialpos": 7, "key_press": -1, "wordID": 1078, "type": "PRES_AUD", "trial_index": 192}, "uniqueid": "MTK2870:3Z2R0DQ0JILA343KWS2X08FO0R52ES", "dateTime": 1519420928368}, {"current_trial": 193, "trialdata": {"rt": -1000, "trial_type": "single-audio", "word": "film", "stimulus": "/static/audio/wordpool/FILM.wav", "conditions": [24, 1600, "a", 12000], "internal_node_id": "0.0-139.0", "trial": 5, "time_elapsed": 836634, "serialpos": 8, "key_press": -1, "wordID": 564, "type": "PRES_AUD", "trial_index": 193}, "uniqueid": "MTK2870:3Z2R0DQ0JILA343KWS2X08FO0R52ES", "dateTime": 1519420930853}, {"current_trial": 194, "trialdata": {"rt": -1000, "trial_type": "single-audio", "word": "actor", "stimulus": "/static/audio/wordpool/ACTOR.wav", "conditions": [24, 1600, "a", 12000], "internal_node_id": "0.0-140.0", "trial": 5, "time_elapsed": 839326, "serialpos": 9, "key_press": -1, "wordID": 4, "type": "PRES_AUD", "trial_index": 194}, "uniqueid": "MTK2870:3Z2R0DQ0JILA343KWS2X08FO0R52ES", "dateTime": 1519420933545}, {"current_trial": 195, "trialdata": {"rt": -1000, "trial_type": "single-audio", "word": "lover", "stimulus": "/static/audio/wordpool/LOVER.wav", "conditions": [24, 1600, "a", 12000], "internal_node_id": "0.0-141.0", "trial": 5, "time_elapsed": 842044, "serialpos": 10, "key_press": -1, "wordID": 845, "type": "PRES_AUD", "trial_index": 195}, "uniqueid": "MTK2870:3Z2R0DQ0JILA343KWS2X08FO0R52ES", "dateTime": 1519420936263}, {"current_trial": 196, "trialdata": {"rt": -1000, "trial_type": "single-audio", "word": "snack", "stimulus": "/static/audio/wordpool/SNACK.wav", "conditions": [24, 1600, "a", 12000], "internal_node_id": "0.0-142.0", "trial": 5, "time_elapsed": 844538, "serialpos": 11, "key_press": -1, "wordID": 1330, "type": "PRES_AUD", "trial_index": 196}, "uniqueid": "MTK2870:3Z2R0DQ0JILA343KWS2X08FO0R52ES", "dateTime": 1519420938757}, {"current_trial": 197, "trialdata": {"rt": -1000, "trial_type": "single-audio", "word": "snake", "stimulus": "/static/audio/wordpool/SNAKE.wav", "conditions": [24, 1600, "a", 12000], "internal_node_id": "0.0-143.0", "trial": 5, "time_elapsed": 847013, "serialpos": 12, "key_press": -1, "wordID": 1332, "type": "PRES_AUD", "trial_index": 197}, "uniqueid": "MTK2870:3Z2R0DQ0JILA343KWS2X08FO0R52ES", "dateTime": 1519420941232}, {"current_trial": 198, "trialdata": {"rt": -1000, "trial_type": "single-audio", "word": "chemist", "stimulus": "/static/audio/wordpool/CHEMIST.wav", "conditions": [24, 1600, "a", 12000], "internal_node_id": "0.0-144.0", "trial": 5, "time_elapsed": 849716, "serialpos": 13, "key_press": -1, "wordID": 291, "type": "PRES_AUD", "trial_index": 198}, "uniqueid": "MTK2870:3Z2R0DQ0JILA343KWS2X08FO0R52ES", "dateTime": 1519420943935}, {"current_trial": 199, "trialdata": {"rt": -1000, "trial_type": "single-audio", "word": "pliers", "stimulus": "/static/audio/wordpool/PLIERS.wav", "conditions": [24, 1600, "a", 12000], "internal_node_id": "0.0-145.0", "trial": 5, "time_elapsed": 852265, "serialpos": 14, "key_press": -1, "wordID": 1088, "type": "PRES_AUD", "trial_index": 199}, "uniqueid": "MTK2870:3Z2R0DQ0JILA343KWS2X08FO0R52ES", "dateTime": 1519420946484}, {"current_trial": 200, "trialdata": {"rt": -1000, "trial_type": "single-audio", "word": "portrait", "stimulus": "/static/audio/wordpool/PORTRAIT.wav", "conditions": [24, 1600, "a", 12000], "internal_node_id": "0.0-146.0", "trial": 5, "time_elapsed": 855001, "serialpos": 15, "key_press": -1, "wordID": 1110, "type": "PRES_AUD", "trial_index": 200}, "uniqueid": "MTK2870:3Z2R0DQ0JILA343KWS2X08FO0R52ES", "dateTime": 1519420949220}, {"current_trial": 201, "trialdata": {"rt": -1000, "trial_type": "single-audio", "word": "plaza", "stimulus": "/static/audio/wordpool/PLAZA.wav", "conditions": [24, 1600, "a", 12000], "internal_node_id": "0.0-147.0", "trial": 5, "time_elapsed": 857555, "serialpos": 16, "key_press": -1, "wordID": 1087, "type": "PRES_AUD", "trial_index": 201}, "uniqueid": "MTK2870:3Z2R0DQ0JILA343KWS2X08FO0R52ES", "dateTime": 1519420951774}, {"current_trial": 202, "trialdata": {"rt": -1000, "trial_type": "single-audio", "word": "tile", "stimulus": "/static/audio/wordpool/TILE.wav", "conditions": [24, 1600, "a", 12000], "internal_node_id": "0.0-148.0", "trial": 5, "time_elapsed": 860136, "serialpos": 17, "key_press": -1, "wordID": 1467, "type": "PRES_AUD", "trial_index": 202}, "uniqueid": "MTK2870:3Z2R0DQ0JILA343KWS2X08FO0R52ES", "dateTime": 1519420954355}, {"current_trial": 203, "trialdata": {"rt": -1000, "trial_type": "single-audio", "word": "dresser", "stimulus": "/static/audio/wordpool/DRESSER.wav", "conditions": [24, 1600, "a", 12000], "internal_node_id": "0.0-149.0", "trial": 5, "time_elapsed": 862797, "serialpos": 18, "key_press": -1, "wordID": 495, "type": "PRES_AUD", "trial_index": 203}, "uniqueid": "MTK2870:3Z2R0DQ0JILA343KWS2X08FO0R52ES", "dateTime": 1519420957016}, {"current_trial": 204, "trialdata": {"rt": -1000, "trial_type": "single-audio", "word": "child", "stimulus": "/static/audio/wordpool/CHILD.wav", "conditions": [24, 1600, "a", 12000], "internal_node_id": "0.0-150.0", "trial": 5, "time_elapsed": 865335, "serialpos": 19, "key_press": -1, "wordID": 298, "type": "PRES_AUD", "trial_index": 204}, "uniqueid": "MTK2870:3Z2R0DQ0JILA343KWS2X08FO0R52ES", "dateTime": 1519420959554}, {"current_trial": 205, "trialdata": {"rt": -1000, "trial_type": "single-audio", "word": "picture", "stimulus": "/static/audio/wordpool/PICTURE.wav", "conditions": [24, 1600, "a", 12000], "internal_node_id": "0.0-151.0", "trial": 5, "time_elapsed": 868034, "serialpos": 20, "key_press": -1, "wordID": 1060, "type": "PRES_AUD", "trial_index": 205}, "uniqueid": "MTK2870:3Z2R0DQ0JILA343KWS2X08FO0R52ES", "dateTime": 1519420962253}, {"current_trial": 206, "trialdata": {"rt": -1000, "trial_type": "single-audio", "word": "scalpel", "stimulus": "/static/audio/wordpool/SCALPEL.wav", "conditions": [24, 1600, "a", 12000], "internal_node_id": "0.0-152.0", "trial": 5, "time_elapsed": 870556, "serialpos": 21, "key_press": -1, "wordID": 1242, "type": "PRES_AUD", "trial_index": 206}, "uniqueid": "MTK2870:3Z2R0DQ0JILA343KWS2X08FO0R52ES", "dateTime": 1519420964775}, {"current_trial": 207, "trialdata": {"rt": -1000, "trial_type": "single-audio", "word": "razor", "stimulus": "/static/audio/wordpool/RAZOR.wav", "conditions": [24, 1600, "a", 12000], "internal_node_id": "0.0-153.0", "trial": 5, "time_elapsed": 873083, "serialpos": 22, "key_press": -1, "wordID": 1170, "type": "PRES_AUD", "trial_index": 207}, "uniqueid": "MTK2870:3Z2R0DQ0JILA343KWS2X08FO0R52ES", "dateTime": 1519420967302}, {"current_trial": 208, "trialdata": {"rt": -1000, "trial_type": "single-audio", "word": "cigar", "stimulus": "/static/audio/wordpool/CIGAR.wav", "conditions": [24, 1600, "a", 12000], "internal_node_id": "0.0-154.0", "trial": 5, "time_elapsed": 875498, "serialpos": 23, "key_press": -1, "wordID": 307, "type": "PRES_AUD", "trial_index": 208}, "uniqueid": "MTK2870:3Z2R0DQ0JILA343KWS2X08FO0R52ES", "dateTime": 1519420969717}, {"current_trial": 209, "trialdata": {"rt": -1, "trial_type": "single-stim", "stimulus": "", "internal_node_id": "0.0-155.0-0.0", "time_elapsed": 876783, "key_press": -1, "type": "PRE_RECALL_DELAY", "trial_index": 209}, "uniqueid": "MTK2870:3Z2R0DQ0JILA343KWS2X08FO0R52ES", "dateTime": 1519420971002}, {"current_trial": 210, "trialdata": {"rt": -1000, "trial_type": "single-audio", "stimulus": "/static/audio/400Hz.wav", "internal_node_id": "0.0-156.0", "time_elapsed": 877283, "key_press": -1, "type": "PRE_RECALL_ALERT", "trial_index": 210}, "uniqueid": "MTK2870:3Z2R0DQ0JILA343KWS2X08FO0R52ES", "dateTime": 1519420971502}, {"current_trial": 211, "trialdata": {"rt": [1615, 3295, 4471, 6111, 7295, 9063, 10367, 11374, 12814, 14999, 17271, 19551, 20807, 21767, 23879, 26399, 30606, 32087, 36543, 38607, 41663, 43559], "recwords": ["cigar", "razor", "tile", "actor", "plaza", "hound", "sunrise", "spool", "crater", "pliers", "film", "snake", "snack", "lover", "child", "chemist", "dresser", "razor", "outfit", "pigment", "portrait", "tile"], "key_times": [976, 1031, 1207, 1351, 1471, 1615, 2207, 2312, 2559, 2695, 3087, 3295, 3895, 3967, 4167, 4359, 4471, 4727, 4911, 5167, 5391, 5735, 6111, 6375, 6479, 6607, 6855, 7095, 7295, 8087, 8255, 8351, 8799, 8975, 9063, 9247, 9335, 9471, 9647, 9735, 9919, 10166, 10367, 10567, 10670, 10838, 10983, 11166, 11374, 11926, 12102, 12190, 12382, 12494, 12614, 12814, 13567, 13712, 13983, 14231, 14343, 14487, 14999, 15647, 15752, 15927, 16119, 17271, 17943, 18047, 18143, 18271, 19335, 19551, 19895, 20023, 20079, 20255, 20327, 20807, 21152, 21327, 21407, 21535, 21631, 21767, 23311, 23391, 23487, 23679, 23767, 23879, 24391, 24463, 24615, 24671, 25303, 25415, 25671, 26399, 29726, 29918, 30006, 30174, 30302, 30406, 30502, 30606, 30855, 30968, 31176, 31279, 31519, 32087, 35783, 35919, 36031, 36207, 36295, 36431, 36543, 37751, 37919, 38015, 38135, 38247, 38335, 38471, 38607, 40535, 40663, 40799, 41063, 41271, 41367, 41471, 41591, 41663, 43079, 43151, 43290, 43398, 43559], "trial_type": "free-recall", "conditions": [24, 1600, "a", 12000], "internal_node_id": "0.0-157.0-0.0", "key_presses": [67, 73, 71, 65, 82, 13, 82, 65, 90, 79, 82, 13, 84, 73, 76, 69, 13, 65, 67, 84, 79, 82, 13, 80, 76, 65, 90, 65, 13, 72, 79, 85, 78, 68, 13, 83, 85, 78, 82, 73, 83, 69, 13, 83, 80, 79, 79, 76, 13, 67, 82, 65, 84, 69, 82, 13, 80, 76, 73, 69, 82, 83, 13, 70, 73, 76, 77, 13, 83, 78, 65, 75, 69, 13, 83, 78, 65, 67, 75, 13, 76, 79, 86, 69, 82, 13, 67, 72, 73, 76, 68, 13, 67, 72, 69, 77, 73, 83, 84, 13, 68, 82, 69, 83, 83, 69, 82, 13, 82, 65, 90, 79, 82, 13, 79, 85, 84, 70, 73, 84, 13, 80, 73, 71, 77, 69, 78, 84, 13, 80, 79, 82, 84, 82, 65, 73, 84, 13, 84, 73, 76, 69, 13], "trial": 5, "time_elapsed": 937304, "type": "FREE_RECALL", "trial_index": 211}, "uniqueid": "MTK2870:3Z2R0DQ0JILA343KWS2X08FO0R52ES", "dateTime": 1519421031529}, {"current_trial": 212, "trialdata": {"rt": 1529, "trial_type": "text", "internal_node_id": "0.0-158.0", "time_elapsed": 940839, "key_press": 13, "type": "INSTRUCTIONS", "trial_index": 212}, "uniqueid": "MTK2870:3Z2R0DQ0JILA343KWS2X08FO0R52ES", "dateTime": 1519421035058}, {"current_trial": 213, "trialdata": {"rt": [2446, 4166, 5470, 7142, 9366, 10910], "trial_type": "math-distractor", "key_times": [1910, 1998, 2446, 3710, 4062, 4166, 5238, 5390, 5470, 6686, 7038, 7142, 9134, 9206, 9366, 10414, 10822, 10910], "responses": ["20", "17", "11", "17", "10", "18"], "num2": [6, 9, 9, 6, 3, 9, 2], "num3": [7, 2, 1, 8, 1, 4, 6], "conditions": [12, 800, "a", 12000], "internal_node_id": "0.0-159.0", "key_presses": [50, 48, 13, 49, 55, 13, 49, 49, 13, 49, 55, 13, 49, 48, 13, 49, 56, 13], "trial": 6, "time_elapsed": 954841, "type": "DISTRACTOR", "trial_index": 213, "num1": [9, 6, 1, 3, 6, 5, 7]}, "uniqueid": "MTK2870:3Z2R0DQ0JILA343KWS2X08FO0R52ES", "dateTime": 1519421049060}, {"current_trial": 214, "trialdata": {"rt": -1, "trial_type": "single-stim", "stimulus": "<p id=\"stim\">10</p>", "internal_node_id": "0.0-160.0-0.0", "time_elapsed": 957841, "key_press": -1, "trial_index": 214}, "uniqueid": "MTK2870:3Z2R0DQ0JILA343KWS2X08FO0R52ES", "dateTime": 1519421052060}, {"current_trial": 215, "trialdata": {"rt": -1, "trial_type": "single-stim", "stimulus": "<p id=\"stim\">9</p>", "internal_node_id": "0.0-160.0-1.0", "time_elapsed": 958841, "key_press": -1, "trial_index": 215}, "uniqueid": "MTK2870:3Z2R0DQ0JILA343KWS2X08FO0R52ES", "dateTime": 1519421053060}, {"current_trial": 216, "trialdata": {"rt": -1, "trial_type": "single-stim", "stimulus": "<p id=\"stim\">8</p>", "internal_node_id": "0.0-160.0-2.0", "time_elapsed": 959841, "key_press": -1, "trial_index": 216}, "uniqueid": "MTK2870:3Z2R0DQ0JILA343KWS2X08FO0R52ES", "dateTime": 1519421054060}, {"current_trial": 217, "trialdata": {"rt": -1, "trial_type": "single-stim", "stimulus": "<p id=\"stim\">7</p>", "internal_node_id": "0.0-160.0-3.0", "time_elapsed": 960841, "key_press": -1, "trial_index": 217}, "uniqueid": "MTK2870:3Z2R0DQ0JILA343KWS2X08FO0R52ES", "dateTime": 1519421055060}, {"current_trial": 218, "trialdata": {"rt": -1, "trial_type": "single-stim", "stimulus": "<p id=\"stim\">6</p>", "internal_node_id": "0.0-160.0-4.0", "time_elapsed": 961841, "key_press": -1, "trial_index": 218}, "uniqueid": "MTK2870:3Z2R0DQ0JILA343KWS2X08FO0R52ES", "dateTime": 1519421056060}, {"current_trial": 219, "trialdata": {"rt": -1, "trial_type": "single-stim", "stimulus": "<p id=\"stim\">5</p>", "internal_node_id": "0.0-160.0-5.0", "time_elapsed": 962841, "key_press": -1, "trial_index": 219}, "uniqueid": "MTK2870:3Z2R0DQ0JILA343KWS2X08FO0R52ES", "dateTime": 1519421057060}, {"current_trial": 220, "trialdata": {"rt": -1, "trial_type": "single-stim", "stimulus": "<p id=\"stim\">4</p>", "internal_node_id": "0.0-160.0-6.0", "time_elapsed": 963841, "key_press": -1, "trial_index": 220}, "uniqueid": "MTK2870:3Z2R0DQ0JILA343KWS2X08FO0R52ES", "dateTime": 1519421058060}, {"current_trial": 221, "trialdata": {"rt": -1, "trial_type": "single-stim", "stimulus": "<p id=\"stim\">3</p>", "internal_node_id": "0.0-160.0-7.0", "time_elapsed": 964841, "key_press": -1, "trial_index": 221}, "uniqueid": "MTK2870:3Z2R0DQ0JILA343KWS2X08FO0R52ES", "dateTime": 1519421059060}, {"current_trial": 222, "trialdata": {"rt": -1, "trial_type": "single-stim", "stimulus": "<p id=\"stim\">2</p>", "internal_node_id": "0.0-160.0-8.0", "time_elapsed": 965841, "key_press": -1, "trial_index": 222}, "uniqueid": "MTK2870:3Z2R0DQ0JILA343KWS2X08FO0R52ES", "dateTime": 1519421060060}, {"current_trial": 223, "trialdata": {"rt": -1, "trial_type": "single-stim", "stimulus": "<p id=\"stim\">1</p>", "internal_node_id": "0.0-160.0-9.0", "time_elapsed": 966841, "key_press": -1, "trial_index": 223}, "uniqueid": "MTK2870:3Z2R0DQ0JILA343KWS2X08FO0R52ES", "dateTime": 1519421061060}, {"current_trial": 224, "trialdata": {"rt": -1, "trial_type": "single-stim", "stimulus": "<p id=\"stim\">+</p>", "internal_node_id": "0.0-161.0-0.0", "time_elapsed": 968341, "key_press": -1, "type": "FIXATION", "trial_index": 224}, "uniqueid": "MTK2870:3Z2R0DQ0JILA343KWS2X08FO0R52ES", "dateTime": 1519421062560}, {"current_trial": 225, "trialdata": {"rt": -1000, "trial_type": "single-audio", "word": "elbow", "stimulus": "/static/audio/wordpool/ELBOW.wav", "conditions": [12, 800, "a", 12000], "internal_node_id": "0.0-162.0", "trial": 6, "time_elapsed": 970011, "serialpos": 0, "key_press": -1, "wordID": 519, "type": "PRES_AUD", "trial_index": 225}, "uniqueid": "MTK2870:3Z2R0DQ0JILA343KWS2X08FO0R52ES", "dateTime": 1519421064230}, {"current_trial": 226, "trialdata": {"rt": -1000, "trial_type": "single-audio", "word": "garbage", "stimulus": "/static/audio/wordpool/GARBAGE.wav", "conditions": [12, 800, "a", 12000], "internal_node_id": "0.0-163.0", "trial": 6, "time_elapsed": 971721, "serialpos": 1, "key_press": -1, "wordID": 621, "type": "PRES_AUD", "trial_index": 226}, "uniqueid": "MTK2870:3Z2R0DQ0JILA343KWS2X08FO0R52ES", "dateTime": 1519421065940}, {"current_trial": 227, "trialdata": {"rt": -1000, "trial_type": "single-audio", "word": "shortcake", "stimulus": "/static/audio/wordpool/SHORTCAKE.wav", "conditions": [12, 800, "a", 12000], "internal_node_id": "0.0-164.0", "trial": 6, "time_elapsed": 973387, "serialpos": 2, "key_press": -1, "wordID": 1291, "type": "PRES_AUD", "trial_index": 227}, "uniqueid": "MTK2870:3Z2R0DQ0JILA343KWS2X08FO0R52ES", "dateTime": 1519421067606}, {"current_trial": 228, "trialdata": {"rt": -1000, "trial_type": "single-audio", "word": "salad", "stimulus": "/static/audio/wordpool/SALAD.wav", "conditions": [12, 800, "a", 12000], "internal_node_id": "0.0-165.0", "trial": 6, "time_elapsed": 975317, "serialpos": 3, "key_press": -1, "wordID": 1223, "type": "PRES_AUD", "trial_index": 228}, "uniqueid": "MTK2870:3Z2R0DQ0JILA343KWS2X08FO0R52ES", "dateTime": 1519421069536}, {"current_trial": 229, "trialdata": {"rt": -1000, "trial_type": "single-audio", "word": "salt", "stimulus": "/static/audio/wordpool/SALT.wav", "conditions": [12, 800, "a", 12000], "internal_node_id": "0.0-166.0", "trial": 6, "time_elapsed": 977094, "serialpos": 4, "key_press": -1, "wordID": 1228, "type": "PRES_AUD", "trial_index": 229}, "uniqueid": "MTK2870:3Z2R0DQ0JILA343KWS2X08FO0R52ES", "dateTime": 1519421071313}, {"current_trial": 230, "trialdata": {"rt": -1000, "trial_type": "single-audio", "word": "ankle", "stimulus": "/static/audio/wordpool/ANKLE.wav", "conditions": [12, 800, "a", 12000], "internal_node_id": "0.0-167.0", "trial": 6, "time_elapsed": 979023, "serialpos": 5, "key_press": -1, "wordID": 23, "type": "PRES_AUD", "trial_index": 230}, "uniqueid": "MTK2870:3Z2R0DQ0JILA343KWS2X08FO0R52ES", "dateTime": 1519421073242}, {"current_trial": 231, "trialdata": {"rt": -1000, "trial_type": "single-audio", "word": "denim", "stimulus": "/static/audio/wordpool/DENIM.wav", "conditions": [12, 800, "a", 12000], "internal_node_id": "0.0-168.0", "trial": 6, "time_elapsed": 980992, "serialpos": 6, "key_press": -1, "wordID": 445, "type": "PRES_AUD", "trial_index": 231}, "uniqueid": "MTK2870:3Z2R0DQ0JILA343KWS2X08FO0R52ES", "dateTime": 1519421075211}, {"current_trial": 232, "trialdata": {"rt": -1000, "trial_type": "single-audio", "word": "milk", "stimulus": "/static/audio/wordpool/MILK.wav", "conditions": [12, 800, "a", 12000], "internal_node_id": "0.0-169.0", "trial": 6, "time_elapsed": 982800, "serialpos": 7, "key_press": -1, "wordID": 894, "type": "PRES_AUD", "trial_index": 232}, "uniqueid": "MTK2870:3Z2R0DQ0JILA343KWS2X08FO0R52ES", "dateTime": 1519421077019}, {"current_trial": 233, "trialdata": {"rt": -1000, "trial_type": "single-audio", "word": "cookbook", "stimulus": "/static/audio/wordpool/COOKBOOK.wav", "conditions": [12, 800, "a", 12000], "internal_node_id": "0.0-170.0", "trial": 6, "time_elapsed": 984580, "serialpos": 8, "key_press": -1, "wordID": 372, "type": "PRES_AUD", "trial_index": 233}, "uniqueid": "MTK2870:3Z2R0DQ0JILA343KWS2X08FO0R52ES", "dateTime": 1519421078799}, {"current_trial": 234, "trialdata": {"rt": -1000, "trial_type": "single-audio", "word": "market", "stimulus": "/static/audio/wordpool/MARKET.wav", "conditions": [12, 800, "a", 12000], "internal_node_id": "0.0-171.0", "trial": 6, "time_elapsed": 986459, "serialpos": 9, "key_press": -1, "wordID": 870, "type": "PRES_AUD", "trial_index": 234}, "uniqueid": "MTK2870:3Z2R0DQ0JILA343KWS2X08FO