{"assignmentId": "3JMSRU9HQJ1J0V1MK2M82DCZUEYVE4", "workerId": "MTK2164", "questiondata": {"origin": "United States", "strat-rehearsal": "98", "marital": "Married/Domestic Partnership", "education": "Bachelor's degree", "ethnicity": "Hispanic", "color_depth": 24, "distracted": "No", "wrote-notes": "Yes", "strat-other": "I remembered the first letter and a mental note of what it is, then tried to write them really quick in order before I forget. ", "screen_width": 1366, "avail_screen_width": 1366, "avail_screen_height": 728, "strat-image": "91", "language": "english", "gender": "Female", "age": "26", "gender_other": "", "race": ["White"], "strat-categorize": "80", "pixel_depth": 24, "strat-spatial": "91", "strat-story": "36", "race_other": "", "screen_height": 768}, "bonus": 0, "hitId": "3X878VYTIEP78Z2S7DYWPXLC29G7FB", "counterbalance": 2047, "useragent": "Mozilla/5.0 (Windows NT 6.1; Win64; x64) AppleWebKit/537.36 (KHTML, like Gecko) Chrome/63.0.3239.132 Safari/537.36", "eventdata": [{"eventtype": "initialized", "interval": 0, "value": null, "timestamp": 1516819520789}, {"eventtype": "window_resize", "interval": 1, "value": [1366, 722], "timestamp": 1516819520790}, {"eventtype": "window_resize", "interval": 1585, "value": [1366, 678], "timestamp": 1516819522375}, {"eventtype": "focus", "interval": 26405, "value": "off", "timestamp": 1516819548780}, {"eventtype": "focus", "interval": 8934, "value": "on", "timestamp": 1516819557714}, {"eventtype": "focus", "interval": 231216, "value": "off", "timestamp": 1516819788930}, {"eventtype": "focus", "interval": 20000, "value": "on", "timestamp": 1516819808930}, {"eventtype": "focus", "interval": 306438, "value": "off", "timestamp": 1516820115368}, {"eventtype": "focus", "interval": 2986, "value": "on", "timestamp": 1516820118354}, {"eventtype": "focus", "interval": 3039, "value": "off", "timestamp": 1516820121393}, {"eventtype": "focus", "interval": 2598, "value": "on", "timestamp": 1516820123991}, {"eventtype": "focus", "interval": 12972, "value": "off", "timestamp": 1516820136963}, {"eventtype": "focus", "interval": 56963, "value": "on", "timestamp": 1516820193926}, {"eventtype": "focus", "interval": 129118, "value": "off", "timestamp": 1516820323044}, {"eventtype": "focus", "interval": 230101, "value": "on", "timestamp": 1516820553145}, {"eventtype": "focus", "interval": 110323, "value": "off", "timestamp": 1516820663468}, {"eventtype": "focus", "interval": 99956, "value": "on", "timestamp": 1516820763424}, {"eventtype": "focus", "interval": 85109, "value": "off", "timestamp": 1516820848533}, {"eventtype": "focus", "interval": 70871, "value": "on", "timestamp": 1516820919404}, {"eventtype": "focus", "interval": 259039, "value": "off", "timestamp": 1516821178443}, {"eventtype": "focus", "interval": 14152, "value": "on", "timestamp": 1516821192595}, {"eventtype": "focus", "interval": 104930, "value": "off", "timestamp": 1516821297525}, {"eventtype": "focus", "interval": 20253, "value": "on", "timestamp": 1516821317778}, {"eventtype": "focus", "interval": 120257, "value": "off", "timestamp": 1516821438035}, {"eventtype": "focus", "interval": 16100, "value": "on", "timestamp": 1516821454135}, {"eventtype": "focus", "interval": 323744, "value": "off", "timestamp": 1516821777879}, {"eventtype": "focus", "interval": 24213, "value": "on", "timestamp": 1516821802092}, {"eventtype": "focus", "interval": 98834, "value": "off", "timestamp": 1516821900926}, {"eventtype": "focus", "interval": 23073, "value": "on", "timestamp": 1516821923999}, {"eventtype": "focus", "interval": 645675, "value": "off", "timestamp": 1516822569674}, {"eventtype": "focus", "interval": 51990, "value": "on", "timestamp": 1516822621664}], "data": [{"current_trial": 0, "trialdata": {"rt": 30173, "trial_type": "text", "internal_node_id": "0.0-0.0", "time_elapsed": 30177, "key_press": 32, "type": "INSTRUCTIONS", "trial_index": 0}, "uniqueid": "MTK2164:3JMSRU9HQJ1J0V1MK2M82DCZUEYVE4", "dateTime": 1516819604698}, {"current_trial": 1, "trialdata": {"rt": 11145, "trial_type": "text", "internal_node_id": "0.0-1.0", "time_elapsed": 41332, "key_press": 173, "type": "INSTRUCTIONS", "trial_index": 1}, "uniqueid": "MTK2164:3JMSRU9HQJ1J0V1MK2M82DCZUEYVE4", "dateTime": 1516819615853}, {"current_trial": 2, "trialdata": {"rt": [15626], "trial_type": "audio-test", "responses": ["ocean"], "internal_node_id": "0.0-2.0", "time_elapsed": 56983, "type": "AUDIO_TEST", "trial_index": 2}, "uniqueid": "MTK2164:3JMSRU9HQJ1J0V1MK2M82DCZUEYVE4", "dateTime": 1516819631504}, {"current_trial": 3, "trialdata": {"rt": [6560], "trial_type": "audio-test", "responses": ["crystal"], "internal_node_id": "0.0-3.0", "time_elapsed": 63550, "type": "AUDIO_TEST", "trial_index": 3}, "uniqueid": "MTK2164:3JMSRU9HQJ1J0V1MK2M82DCZUEYVE4", "dateTime": 1516819638071}, {"current_trial": 4, "trialdata": {"rt": [4154], "trial_type": "audio-test", "responses": ["spice"], "internal_node_id": "0.0-4.0", "time_elapsed": 67714, "type": "AUDIO_TEST", "trial_index": 4}, "uniqueid": "MTK2164:3JMSRU9HQJ1J0V1MK2M82DCZUEYVE4", "dateTime": 1516819642235}, {"current_trial": 5, "trialdata": {"rt": 17967, "trial_type": "survey-text", "responses": "{\"Q0\":\"10\",\"Q1\":\"7:45\",\"Q2\":\"5\"}", "internal_node_id": "0.0-5.0", "time_elapsed": 86439, "type": "SLEEP_SURVEY", "trial_index": 5}, "uniqueid": "MTK2164:3JMSRU9HQJ1J0V1MK2M82DCZUEYVE4", "dateTime": 1516819660960}, {"current_trial": 6, "trialdata": {"rt": 18965, "trial_type": "text", "internal_node_id": "0.0-6.0", "time_elapsed": 106408, "key_press": 40, "type": "INSTRUCTIONS", "trial_index": 6}, "uniqueid": "MTK2164:3JMSRU9HQJ1J0V1MK2M82DCZUEYVE4", "dateTime": 1516819680929}, {"current_trial": 7, "trialdata": {"rt": 29149, "trial_type": "text", "internal_node_id": "0.0-7.0", "time_elapsed": 136059, "key_press": 32, "type": "INSTRUCTIONS", "trial_index": 7}, "uniqueid": "MTK2164:3JMSRU9HQJ1J0V1MK2M82DCZUEYVE4", "dateTime": 1516819710580}, {"current_trial": 8, "trialdata": {"rt": 24490, "trial_type": "text", "internal_node_id": "0.0-8.0", "time_elapsed": 161051, "key_press": 32, "type": "INSTRUCTIONS", "trial_index": 8}, "uniqueid": "MTK2164:3JMSRU9HQJ1J0V1MK2M82DCZUEYVE4", "dateTime": 1516819735573}, {"current_trial": 9, "trialdata": {"rt": [4953, 11908, 15502], "trial_type": "math-distractor", "key_times": [3162, 3257, 4953, 10840, 10909, 11908, 14746, 14847, 15502], "responses": ["17", "20", "20"], "num2": [8, 4, 2, 7], "num3": [6, 9, 9, 7], "conditions": [18, 1200, "a", 18000], "internal_node_id": "0.0-9.0", "key_presses": [49, 55, 13, 50, 48, 13, 50, 48, 13], "trial": 0, "time_elapsed": 180063, "type": "DISTRACTOR", "trial_index": 9, "num1": [3, 7, 9, 3]}, "uniqueid": "MTK2164:3JMSRU9HQJ1J0V1MK2M82DCZUEYVE4", "dateTime": 1516819754584}, {"current_trial": 10, "trialdata": {"rt": -1, "trial_type": "single-stim", "stimulus": "<p id=\"stim\">10</p>", "internal_node_id": "0.0-10.0-0.0", "time_elapsed": 183068, "key_press": -1, "trial_index": 10}, "uniqueid": "MTK2164:3JMSRU9HQJ1J0V1MK2M82DCZUEYVE4", "dateTime": 1516819757589}, {"current_trial": 11, "trialdata": {"rt": -1, "trial_type": "single-stim", "stimulus": "<p id=\"stim\">9</p>", "internal_node_id": "0.0-10.0-1.0", "time_elapsed": 184069, "key_press": -1, "trial_index": 11}, "uniqueid": "MTK2164:3JMSRU9HQJ1J0V1MK2M82DCZUEYVE4", "dateTime": 1516819758590}, {"current_trial": 12, "trialdata": {"rt": -1, "trial_type": "single-stim", "stimulus": "<p id=\"stim\">8</p>", "internal_node_id": "0.0-10.0-2.0", "time_elapsed": 185071, "key_press": -1, "trial_index": 12}, "uniqueid": "MTK2164:3JMSRU9HQJ1J0V1MK2M82DCZUEYVE4", "dateTime": 1516819759592}, {"current_trial": 13, "trialdata": {"rt": -1, "trial_type": "single-stim", "stimulus": "<p id=\"stim\">7</p>", "internal_node_id": "0.0-10.0-3.0", "time_elapsed": 186075, "key_press": -1, "trial_index": 13}, "uniqueid": "MTK2164:3JMSRU9HQJ1J0V1MK2M82DCZUEYVE4", "dateTime": 1516819760596}, {"current_trial": 14, "trialdata": {"rt": -1, "trial_type": "single-stim", "stimulus": "<p id=\"stim\">6</p>", "internal_node_id": "0.0-10.0-4.0", "time_elapsed": 187077, "key_press": -1, "trial_index": 14}, "uniqueid": "MTK2164:3JMSRU9HQJ1J0V1MK2M82DCZUEYVE4", "dateTime": 1516819761598}, {"current_trial": 15, "trialdata": {"rt": -1, "trial_type": "single-stim", "stimulus": "<p id=\"stim\">5</p>", "internal_node_id": "0.0-10.0-5.0", "time_elapsed": 188081, "key_press": -1, "trial_index": 15}, "uniqueid": "MTK2164:3JMSRU9HQJ1J0V1MK2M82DCZUEYVE4", "dateTime": 1516819762602}, {"current_trial": 16, "trialdata": {"rt": -1, "trial_type": "single-stim", "stimulus": "<p id=\"stim\">4</p>", "internal_node_id": "0.0-10.0-6.0", "time_elapsed": 189083, "key_press": -1, "trial_index": 16}, "uniqueid": "MTK2164:3JMSRU9HQJ1J0V1MK2M82DCZUEYVE4", "dateTime": 1516819763604}, {"current_trial": 17, "trialdata": {"rt": -1, "trial_type": "single-stim", "stimulus": "<p id=\"stim\">3</p>", "internal_node_id": "0.0-10.0-7.0", "time_elapsed": 190085, "key_press": -1, "trial_index": 17}, "uniqueid": "MTK2164:3JMSRU9HQJ1J0V1MK2M82DCZUEYVE4", "dateTime": 1516819764606}, {"current_trial": 18, "trialdata": {"rt": -1, "trial_type": "single-stim", "stimulus": "<p id=\"stim\">2</p>", "internal_node_id": "0.0-10.0-8.0", "time_elapsed": 191087, "key_press": -1, "trial_index": 18}, "uniqueid": "MTK2164:3JMSRU9HQJ1J0V1MK2M82DCZUEYVE4", "dateTime": 1516819765608}, {"current_trial": 19, "trialdata": {"rt": -1, "trial_type": "single-stim", "stimulus": "<p id=\"stim\">1</p>", "internal_node_id": "0.0-10.0-9.0", "time_elapsed": 192089, "key_press": -1, "trial_index": 19}, "uniqueid": "MTK2164:3JMSRU9HQJ1J0V1MK2M82DCZUEYVE4", "dateTime": 1516819766610}, {"current_trial": 20, "trialdata": {"rt": -1, "trial_type": "single-stim", "stimulus": "<p id=\"stim\">+</p>", "internal_node_id": "0.0-11.0-0.0", "time_elapsed": 193591, "key_press": -1, "type": "FIXATION", "trial_index": 20}, "uniqueid": "MTK2164:3JMSRU9HQJ1J0V1MK2M82DCZUEYVE4", "dateTime": 1516819768112}, {"current_trial": 21, "trialdata": {"rt": -1000, "trial_type": "single-audio", "word": "beaker", "stimulus": "/static/audio/wordpool/BEAKER.wav", "conditions": [18, 1200, "a", 18000], "internal_node_id": "0.0-12.0", "trial": 0, "time_elapsed": 195815, "serialpos": 0, "key_press": -1, "wordID": 103, "type": "PRES_AUD", "trial_index": 21}, "uniqueid": "MTK2164:3JMSRU9HQJ1J0V1MK2M82DCZUEYVE4", "dateTime": 1516819770336}, {"current_trial": 22, "trialdata": {"rt": -1000, "trial_type": "single-audio", "word": "scribble", "stimulus": "/static/audio/wordpool/SCRIBBLE.wav", "conditions": [18, 1200, "a", 18000], "internal_node_id": "0.0-13.0", "trial": 0, "time_elapsed": 197829, "serialpos": 1, "key_press": -1, "wordID": 1255, "type": "PRES_AUD", "trial_index": 22}, "uniqueid": "MTK2164:3JMSRU9HQJ1J0V1MK2M82DCZUEYVE4", "dateTime": 1516819772350}, {"current_trial": 23, "trialdata": {"rt": -1000, "trial_type": "single-audio", "word": "donor", "stimulus": "/static/audio/wordpool/DONOR.wav", "conditions": [18, 1200, "a", 18000], "internal_node_id": "0.0-14.0", "trial": 0, "time_elapsed": 200008, "serialpos": 2, "key_press": -1, "wordID": 484, "type": "PRES_AUD", "trial_index": 23}, "uniqueid": "MTK2164:3JMSRU9HQJ1J0V1MK2M82DCZUEYVE4", "dateTime": 1516819774529}, {"current_trial": 24, "trialdata": {"rt": -1000, "trial_type": "single-audio", "word": "puppy", "stimulus": "/static/audio/wordpool/PUPPY.wav", "conditions": [18, 1200, "a", 18000], "internal_node_id": "0.0-15.0", "trial": 0, "time_elapsed": 202181, "serialpos": 3, "key_press": -1, "wordID": 1143, "type": "PRES_AUD", "trial_index": 24}, "uniqueid": "MTK2164:3JMSRU9HQJ1J0V1MK2M82DCZUEYVE4", "dateTime": 1516819776702}, {"current_trial": 25, "trialdata": {"rt": -1000, "trial_type": "single-audio", "word": "body", "stimulus": "/static/audio/wordpool/BODY.wav", "conditions": [18, 1200, "a", 18000], "internal_node_id": "0.0-16.0", "trial": 0, "time_elapsed": 204301, "serialpos": 4, "key_press": -1, "wordID": 144, "type": "PRES_AUD", "trial_index": 25}, "uniqueid": "MTK2164:3JMSRU9HQJ1J0V1MK2M82DCZUEYVE4", "dateTime": 1516819778822}, {"current_trial": 26, "trialdata": {"rt": -1000, "trial_type": "single-audio", "word": "gazelle", "stimulus": "/static/audio/wordpool/GAZELLE.wav", "conditions": [18, 1200, "a", 18000], "internal_node_id": "0.0-17.0", "trial": 0, "time_elapsed": 206691, "serialpos": 5, "key_press": -1, "wordID": 627, "type": "PRES_AUD", "trial_index": 26}, "uniqueid": "MTK2164:3JMSRU9HQJ1J0V1MK2M82DCZUEYVE4", "dateTime": 1516819781213}, {"current_trial": 27, "trialdata": {"rt": -1000, "trial_type": "single-audio", "word": "mars", "stimulus": "/static/audio/wordpool/MARS.wav", "conditions": [18, 1200, "a", 18000], "internal_node_id": "0.0-18.0", "trial": 0, "time_elapsed": 208949, "serialpos": 6, "key_press": -1, "wordID": 872, "type": "PRES_AUD", "trial_index": 27}, "uniqueid": "MTK2164:3JMSRU9HQJ1J0V1MK2M82DCZUEYVE4", "dateTime": 1516819783471}, {"current_trial": 28, "trialdata": {"rt": -1000, "trial_type": "single-audio", "word": "beast", "stimulus": "/static/audio/wordpool/BEAST.wav", "conditions": [18, 1200, "a", 18000], "internal_node_id": "0.0-19.0", "trial": 0, "time_elapsed": 211186, "serialpos": 7, "key_press": -1, "wordID": 107, "type": "PRES_AUD", "trial_index": 28}, "uniqueid": "MTK2164:3JMSRU9HQJ1J0V1MK2M82DCZUEYVE4", "dateTime": 1516819785708}, {"current_trial": 29, "trialdata": {"rt": -1000, "trial_type": "single-audio", "word": "office", "stimulus": "/static/audio/wordpool/OFFICE.wav", "conditions": [18, 1200, "a", 18000], "internal_node_id": "0.0-20.0", "trial": 0, "time_elapsed": 213455, "serialpos": 8, "key_press": -1, "wordID": 971, "type": "PRES_AUD", "trial_index": 29}, "uniqueid": "MTK2164:3JMSRU9HQJ1J0V1MK2M82DCZUEYVE4", "dateTime": 1516819787976}, {"current_trial": 30, "trialdata": {"rt": -1000, "trial_type": "single-audio", "word": "rug", "stimulus": "/static/audio/wordpool/RUG.wav", "conditions": [18, 1200, "a", 18000], "internal_node_id": "0.0-21.0", "trial": 0, "time_elapsed": 215758, "serialpos": 9, "key_press": -1, "wordID": 1214, "type": "PRES_AUD", "trial_index": 30}, "uniqueid": "MTK2164:3JMSRU9HQJ1J0V1MK2M82DCZUEYVE4", "dateTime": 1516819790282}, {"current_trial": 31, "trialdata": {"rt": -1000, "trial_type": "single-audio", "word": "baby", "stimulus": "/static/audio/wordpool/BABY.wav", "conditions": [18, 1200, "a", 18000], "internal_node_id": "0.0-22.0", "trial": 0, "time_elapsed": 217798, "serialpos": 10, "key_press": -1, "wordID": 63, "type": "PRES_AUD", "trial_index": 31}, "uniqueid": "MTK2164:3JMSRU9HQJ1J0V1MK2M82DCZUEYVE4", "dateTime": 1516819792319}, {"current_trial": 32, "trialdata": {"rt": -1000, "trial_type": "single-audio", "word": "clamp", "stimulus": "/static/audio/wordpool/CLAMP.wav", "conditions": [18, 1200, "a", 18000], "internal_node_id": "0.0-23.0", "trial": 0, "time_elapsed": 219890, "serialpos": 11, "key_press": -1, "wordID": 315, "type": "PRES_AUD", "trial_index": 32}, "uniqueid": "MTK2164:3JMSRU9HQJ1J0V1MK2M82DCZUEYVE4", "dateTime": 1516819794412}, {"current_trial": 33, "trialdata": {"rt": -1000, "trial_type": "single-audio", "word": "beaver", "stimulus": "/static/audio/wordpool/BEAVER.wav", "conditions": [18, 1200, "a", 18000], "internal_node_id": "0.0-24.0", "trial": 0, "time_elapsed": 222225, "serialpos": 12, "key_press": -1, "wordID": 108, "type": "PRES_AUD", "trial_index": 33}, "uniqueid": "MTK2164:3JMSRU9HQJ1J0V1MK2M82DCZUEYVE4", "dateTime": 1516819796746}, {"current_trial": 34, "trialdata": {"rt": -1000, "trial_type": "single-audio", "word": "bucket", "stimulus": "/static/audio/wordpool/BUCKET.wav", "conditions": [18, 1200, "a", 18000], "internal_node_id": "0.0-25.0", "trial": 0, "time_elapsed": 224343, "serialpos": 13, "key_press": -1, "wordID": 183, "type": "PRES_AUD", "trial_index": 34}, "uniqueid": "MTK2164:3JMSRU9HQJ1J0V1MK2M82DCZUEYVE4", "dateTime": 1516819798864}, {"current_trial": 35, "trialdata": {"rt": -1000, "trial_type": "single-audio", "word": "lava", "stimulus": "/static/audio/wordpool/LAVA.wav", "conditions": [18, 1200, "a", 18000], "internal_node_id": "0.0-26.0", "trial": 0, "time_elapsed": 226738, "serialpos": 14, "key_press": -1, "wordID": 803, "type": "PRES_AUD", "trial_index": 35}, "uniqueid": "MTK2164:3JMSRU9HQJ1J0V1MK2M82DCZUEYVE4", "dateTime": 1516819801260}, {"current_trial": 36, "trialdata": {"rt": -1000, "trial_type": "single-audio", "word": "drill", "stimulus": "/static/audio/wordpool/DRILL.wav", "conditions": [18, 1200, "a", 18000], "internal_node_id": "0.0-27.0", "trial": 0, "time_elapsed": 228922, "serialpos": 15, "key_press": -1, "wordID": 496, "type": "PRES_AUD", "trial_index": 36}, "uniqueid": "MTK2164:3JMSRU9HQJ1J0V1MK2M82DCZUEYVE4", "dateTime": 1516819803443}, {"current_trial": 37, "trialdata": {"rt": -1000, "trial_type": "single-audio", "word": "dentist", "stimulus": "/static/audio/wordpool/DENTIST.wav", "conditions": [18, 1200, "a", 18000], "internal_node_id": "0.0-28.0", "trial": 0, "time_elapsed": 231009, "serialpos": 16, "key_press": -1, "wordID": 446, "type": "PRES_AUD", "trial_index": 37}, "uniqueid": "MTK2164:3JMSRU9HQJ1J0V1MK2M82DCZUEYVE4", "dateTime": 1516819805530}, {"current_trial": 38, "trialdata": {"rt": -1000, "trial_type": "single-audio", "word": "guard", "stimulus": "/static/audio/wordpool/GUARD.wav", "conditions": [18, 1200, "a", 18000], "internal_node_id": "0.0-29.0", "trial": 0, "time_elapsed": 233390, "serialpos": 17, "key_press": -1, "wordID": 666, "type": "PRES_AUD", "trial_index": 38}, "uniqueid": "MTK2164:3JMSRU9HQJ1J0V1MK2M82DCZUEYVE4", "dateTime": 1516819807911}, {"current_trial": 39, "trialdata": {"rt": -1, "trial_type": "single-stim", "stimulus": "", "internal_node_id": "0.0-30.0-0.0", "time_elapsed": 234684, "key_press": -1, "type": "PRE_RECALL_DELAY", "trial_index": 39}, "uniqueid": "MTK2164:3JMSRU9HQJ1J0V1MK2M82DCZUEYVE4", "dateTime": 1516819809205}, {"current_trial": 40, "trialdata": {"rt": -1000, "trial_type": "single-audio", "stimulus": "/static/audio/400Hz.wav", "internal_node_id": "0.0-31.0", "time_elapsed": 235187, "key_press": -1, "type": "PRE_RECALL_ALERT", "trial_index": 40}, "uniqueid": "MTK2164:3JMSRU9HQJ1J0V1MK2M82DCZUEYVE4", "dateTime": 1516819809708}, {"current_trial": 41, "trialdata": {"rt": [4567, 6816, 8642, 10346, 17009, 20814, 24303, 41858, 42553, 42809, 43012, 52183, 57897], "recwords": ["vicker", "puppy", "gazelle", "guard", "melon", "soccer", "mars", "", "", "", "", "rug", "office"], "key_times": [2092, 2555, 3608, 3783, 3890, 4024, 4109, 4249, 4567, 5450, 5729, 6070, 6219, 6571, 6816, 7455, 7531, 7727, 8020, 8219, 8368, 8464, 8642, 9301, 9418, 9637, 9872, 9945, 10346, 16326, 16416, 16522, 16725, 16811, 17009, 18641, 18882, 19016, 19277, 20086, 20241, 20402, 20567, 20814, 23470, 23593, 23886, 24148, 24303, 41858, 42553, 42809, 43012, 51674, 51785, 51884, 52183, 57027, 57201, 57404, 57528, 57651, 57763, 57897], "trial_type": "free-recall", "conditions": [18, 1200, "a", 18000], "internal_node_id": "0.0-32.0-0.0", "key_presses": [80, 8, 86, 73, 67, 75, 69, 82, 13, 80, 85, 80, 80, 89, 13, 71, 65, 90, 69, 76, 76, 69, 13, 71, 85, 65, 82, 68, 13, 77, 69, 76, 79, 78, 13, 83, 79, 67, 69, 8, 67, 69, 82, 13, 77, 65, 82, 83, 13, 13, 13, 13, 13, 82, 85, 71, 13, 79, 70, 70, 73, 67, 69, 13], "trial": 0, "time_elapsed": 295196, "type": "FREE_RECALL", "trial_index": 41}, "uniqueid": "MTK2164:3JMSRU9HQJ1J0V1MK2M82DCZUEYVE4", "dateTime": 1516819869723}, {"current_trial": 42, "trialdata": {"rt": 1701, "trial_type": "text", "internal_node_id": "0.0-33.0", "time_elapsed": 298905, "key_press": 32, "type": "INSTRUCTIONS", "trial_index": 42}, "uniqueid": "MTK2164:3JMSRU9HQJ1J0V1MK2M82DCZUEYVE4", "dateTime": 1516819873426}, {"current_trial": 43, "trialdata": {"rt": [4382, 8196, 10647, 12528, 15223, 16979], "trial_type": "math-distractor", "key_times": [3249, 4382, 7719, 8052, 8196, 10333, 10502, 10647, 12422, 12528, 14941, 15097, 15223, 16589, 16883, 16979], "responses": ["9", "17", "11", "8", "11", "15"], "num2": [4, 5, 6, 6, 6, 9, 6], "num3": [1, 4, 2, 1, 2, 4, 5], "conditions": [18, 1200, "a", 18000], "internal_node_id": "0.0-34.0", "key_presses": [57, 13, 49, 55, 13, 49, 49, 13, 56, 13, 49, 49, 13, 49, 53, 13], "trial": 1, "time_elapsed": 318910, "type": "DISTRACTOR", "trial_index": 43, "num1": [4, 8, 3, 1, 3, 2, 4]}, "uniqueid": "MTK2164:3JMSRU9HQJ1J0V1MK2M82DCZUEYVE4", "dateTime": 1516819893431}, {"current_trial": 44, "trialdata": {"rt": -1, "trial_type": "single-stim", "stimulus": "<p id=\"stim\">10</p>", "internal_node_id": "0.0-35.0-0.0", "time_elapsed": 321915, "key_press": -1, "trial_index": 44}, "uniqueid": "MTK2164:3JMSRU9HQJ1J0V1MK2M82DCZUEYVE4", "dateTime": 1516819896436}, {"current_trial": 45, "trialdata": {"rt": -1, "trial_type": "single-stim", "stimulus": "<p id=\"stim\">9</p>", "internal_node_id": "0.0-35.0-1.0", "time_elapsed": 322917, "key_press": -1, "trial_index": 45}, "uniqueid": "MTK2164:3JMSRU9HQJ1J0V1MK2M82DCZUEYVE4", "dateTime": 1516819897438}, {"current_trial": 46, "trialdata": {"rt": -1, "trial_type": "single-stim", "stimulus": "<p id=\"stim\">8</p>", "internal_node_id": "0.0-35.0-2.0", "time_elapsed": 323919, "key_press": -1, "trial_index": 46}, "uniqueid": "MTK2164:3JMSRU9HQJ1J0V1MK2M82DCZUEYVE4", "dateTime": 1516819898440}, {"current_trial": 47, "trialdata": {"rt": -1, "trial_type": "single-stim", "stimulus": "<p id=\"stim\">7</p>", "internal_node_id": "0.0-35.0-3.0", "time_elapsed": 324921, "key_press": -1, "trial_index": 47}, "uniqueid": "MTK2164:3JMSRU9HQJ1J0V1MK2M82DCZUEYVE4", "dateTime": 1516819899442}, {"current_trial": 48, "trialdata": {"rt": -1, "trial_type": "single-stim", "stimulus": "<p id=\"stim\">6</p>", "internal_node_id": "0.0-35.0-4.0", "time_elapsed": 325923, "key_press": -1, "trial_index": 48}, "uniqueid": "MTK2164:3JMSRU9HQJ1J0V1MK2M82DCZUEYVE4", "dateTime": 1516819900444}, {"current_trial": 49, "trialdata": {"rt": -1, "trial_type": "single-stim", "stimulus": "<p id=\"stim\">5</p>", "internal_node_id": "0.0-35.0-5.0", "time_elapsed": 326925, "key_press": -1, "trial_index": 49}, "uniqueid": "MTK2164:3JMSRU9HQJ1J0V1MK2M82DCZUEYVE4", "dateTime": 1516819901446}, {"current_trial": 50, "trialdata": {"rt": -1, "trial_type": "single-stim", "stimulus": "<p id=\"stim\">4</p>", "internal_node_id": "0.0-35.0-6.0", "time_elapsed": 327926, "key_press": -1, "trial_index": 50}, "uniqueid": "MTK2164:3JMSRU9HQJ1J0V1MK2M82DCZUEYVE4", "dateTime": 1516819902448}, {"current_trial": 51, "trialdata": {"rt": -1, "trial_type": "single-stim", "stimulus": "<p id=\"stim\">3</p>", "internal_node_id": "0.0-35.0-7.0", "time_elapsed": 328929, "key_press": -1, "trial_index": 51}, "uniqueid": "MTK2164:3JMSRU9HQJ1J0V1MK2M82DCZUEYVE4", "dateTime": 1516819903450}, {"current_trial": 52, "trialdata": {"rt": -1, "trial_type": "single-stim", "stimulus": "<p id=\"stim\">2</p>", "internal_node_id": "0.0-35.0-8.0", "time_elapsed": 329931, "key_press": -1, "trial_index": 52}, "uniqueid": "MTK2164:3JMSRU9HQJ1J0V1MK2M82DCZUEYVE4", "dateTime": 1516819904452}, {"current_trial": 53, "trialdata": {"rt": -1, "trial_type": "single-stim", "stimulus": "<p id=\"stim\">1</p>", "internal_node_id": "0.0-35.0-9.0", "time_elapsed": 330932, "key_press": -1, "trial_index": 53}, "uniqueid": "MTK2164:3JMSRU9HQJ1J0V1MK2M82DCZUEYVE4", "dateTime": 1516819905453}, {"current_trial": 54, "trialdata": {"rt": -1, "trial_type": "single-stim", "stimulus": "<p id=\"stim\">+</p>", "internal_node_id": "0.0-36.0-0.0", "time_elapsed": 332434, "key_press": -1, "type": "FIXATION", "trial_index": 54}, "uniqueid": "MTK2164:3JMSRU9HQJ1J0V1MK2M82DCZUEYVE4", "dateTime": 1516819906955}, {"current_trial": 55, "trialdata": {"rt": -1000, "trial_type": "single-audio", "word": "clam", "stimulus": "/static/audio/wordpool/CLAM.wav", "conditions": [18, 1200, "a", 18000], "internal_node_id": "0.0-37.0", "trial": 1, "time_elapsed": 334458, "serialpos": 0, "key_press": -1, "wordID": 314, "type": "PRES_AUD", "trial_index": 55}, "uniqueid": "MTK2164:3JMSRU9HQJ1J0V1MK2M82DCZUEYVE4", "dateTime": 1516819908979}, {"current_trial": 56, "trialdata": {"rt": -1000, "trial_type": "single-audio", "word": "frame", "stimulus": "/static/audio/wordpool/FRAME.wav", "conditions": [18, 1200, "a", 18000], "internal_node_id": "0.0-38.0", "trial": 1, "time_elapsed": 336626, "serialpos": 1, "key_press": -1, "wordID": 599, "type": "PRES_AUD", "trial_index": 56}, "uniqueid": "MTK2164:3JMSRU9HQJ1J0V1MK2M82DCZUEYVE4", "dateTime": 1516819911147}, {"current_trial": 57, "trialdata": {"rt": -1000, "trial_type": "single-audio", "word": "pizza", "stimulus": "/static/audio/wordpool/PIZZA.wav", "conditions": [18, 1200, "a", 18000], "internal_node_id": "0.0-39.0", "trial": 1, "time_elapsed": 338926, "serialpos": 2, "key_press": -1, "wordID": 1078, "type": "PRES_AUD", "trial_index": 57}, "uniqueid": "MTK2164:3JMSRU9HQJ1J0V1MK2M82DCZUEYVE4", "dateTime": 1516819913447}, {"current_trial": 58, "trialdata": {"rt": -1000, "trial_type": "single-audio", "word": "blueprint", "stimulus": "/static/audio/wordpool/BLUEPRINT.wav", "conditions": [18, 1200, "a", 18000], "internal_node_id": "0.0-40.0", "trial": 1, "time_elapsed": 341212, "serialpos": 3, "key_press": -1, "wordID": 141, "type": "PRES_AUD", "trial_index": 58}, "uniqueid": "MTK2164:3JMSRU9HQJ1J0V1MK2M82DCZUEYVE4", "dateTime": 1516819915733}, {"current_trial": 59, "trialdata": {"rt": -1000, "trial_type": "single-audio", "word": "sidewalk", "stimulus": "/static/audio/wordpool/SIDEWALK.wav", "conditions": [18, 1200, "a", 18000], "internal_node_id": "0.0-41.0", "trial": 1, "time_elapsed": 343370, "serialpos": 4, "key_press": -1, "wordID": 1302, "type": "PRES_AUD", "trial_index": 59}, "uniqueid": "MTK2164:3JMSRU9HQJ1J0V1MK2M82DCZUEYVE4", "dateTime": 1516819917891}, {"current_trial": 60, "trialdata": {"rt": -1000, "trial_type": "single-audio", "word": "airport", "stimulus": "/static/audio/wordpool/AIRPORT.wav", "conditions": [18, 1200, "a", 18000], "internal_node_id": "0.0-42.0", "trial": 1, "time_elapsed": 345557, "serialpos": 5, "key_press": -1, "wordID": 12, "type": "PRES_AUD", "trial_index": 60}, "uniqueid": "MTK2164:3JMSRU9HQJ1J0V1MK2M82DCZUEYVE4", "dateTime": 1516819920078}, {"current_trial": 61, "trialdata": {"rt": -1000, "trial_type": "single-audio", "word": "scissors", "stimulus": "/static/audio/wordpool/SCISSORS.wav", "conditions": [18, 1200, "a", 18000], "internal_node_id": "0.0-43.0", "trial": 1, "time_elapsed": 347887, "serialpos": 6, "key_press": -1, "wordID": 1249, "type": "PRES_AUD", "trial_index": 61}, "uniqueid": "MTK2164:3JMSRU9HQJ1J0V1MK2M82DCZUEYVE4", "dateTime": 1516819922408}, {"current_trial": 62, "trialdata": {"rt": -1000, "trial_type": "single-audio", "word": "parsley", "stimulus": "/static/audio/wordpool/PARSLEY.wav", "conditions": [18, 1200, "a", 18000], "internal_node_id": "0.0-44.0", "trial": 1, "time_elapsed": 349933, "serialpos": 7, "key_press": -1, "wordID": 1015, "type": "PRES_AUD", "trial_index": 62}, "uniqueid": "MTK2164:3JMSRU9HQJ1J0V1MK2M82DCZUEYVE4", "dateTime": 1516819924454}, {"current_trial": 63, "trialdata": {"rt": -1000, "trial_type": "single-audio", "word": "maple", "stimulus": "/static/audio/wordpool/MAPLE.wav", "conditions": [18, 1200, "a", 18000], "internal_node_id": "0.0-45.0", "trial": 1, "time_elapsed": 352164, "serialpos": 8, "key_press": -1, "wordID": 865, "type": "PRES_AUD", "trial_index": 63}, "uniqueid": "MTK2164:3JMSRU9HQJ1J0V1MK2M82DCZUEYVE4", "dateTime": 1516819926686}, {"current_trial": 64, "trialdata": {"rt": -1000, "trial_type": "single-audio", "word": "robber", "stimulus": "/static/audio/wordpool/ROBBER.wav", "conditions": [18, 1200, "a", 18000], "internal_node_id": "0.0-46.0", "trial": 1, "time_elapsed": 354307, "serialpos": 9, "key_press": -1, "wordID": 1196, "type": "PRES_AUD", "trial_index": 64}, "uniqueid": "MTK2164:3JMSRU9HQJ1J0V1MK2M82DCZUEYVE4", "dateTime": 1516819928828}, {"current_trial": 65, "trialdata": {"rt": -1000, "trial_type": "single-audio", "word": "cross", "stimulus": "/static/audio/wordpool/CROSS.wav", "conditions": [18, 1200, "a", 18000], "internal_node_id": "0.0-47.0", "trial": 1, "time_elapsed": 356580, "serialpos": 10, "key_press": -1, "wordID": 412, "type": "PRES_AUD", "trial_index": 65}, "uniqueid": "MTK2164:3JMSRU9HQJ1J0V1MK2M82DCZUEYVE4", "dateTime": 1516819931102}, {"current_trial": 66, "trialdata": {"rt": -1000, "trial_type": "single-audio", "word": "cabin", "stimulus": "/static/audio/wordpool/CABIN.wav", "conditions": [18, 1200, "a", 18000], "internal_node_id": "0.0-48.0", "trial": 1, "time_elapsed": 358708, "serialpos": 11, "key_press": -1, "wordID": 210, "type": "PRES_AUD", "trial_index": 66}, "uniqueid": "MTK2164:3JMSRU9HQJ1J0V1MK2M82DCZUEYVE4", "dateTime": 1516819933229}, {"current_trial": 67, "trialdata": {"rt": -1000, "trial_type": "single-audio", "word": "candy", "stimulus": "/static/audio/wordpool/CANDY.wav", "conditions": [18, 1200, "a", 18000], "internal_node_id": "0.0-49.0", "trial": 1, "time_elapsed": 360940, "serialpos": 12, "key_press": -1, "wordID": 229, "type": "PRES_AUD", "trial_index": 67}, "uniqueid": "MTK2164:3JMSRU9HQJ1J0V1MK2M82DCZUEYVE4", "dateTime": 1516819935462}, {"current_trial": 68, "trialdata": {"rt": -1000, "trial_type": "single-audio", "word": "motor", "stimulus": "/static/audio/wordpool/MOTOR.wav", "conditions": [18, 1200, "a", 18000], "internal_node_id": "0.0-50.0", "trial": 1, "time_elapsed": 363288, "serialpos": 13, "key_press": -1, "wordID": 921, "type": "PRES_AUD", "trial_index": 68}, "uniqueid": "MTK2164:3JMSRU9HQJ1J0V1MK2M82DCZUEYVE4", "dateTime": 1516819937814}, {"current_trial": 69, "trialdata": {"rt": -1000, "trial_type": "single-audio", "word": "lover", "stimulus": "/static/audio/wordpool/LOVER.wav", "conditions": [18, 1200, "a", 18000], "internal_node_id": "0.0-51.0", "trial": 1, "time_elapsed": 365652, "serialpos": 14, "key_press": -1, "wordID": 845, "type": "PRES_AUD", "trial_index": 69}, "uniqueid": "MTK2164:3JMSRU9HQJ1J0V1MK2M82DCZUEYVE4", "dateTime": 1516819940173}, {"current_trial": 70, "trialdata": {"rt": -1000, "trial_type": "single-audio", "word": "daisy", "stimulus": "/static/audio/wordpool/DAISY.wav", "conditions": [18, 1200, "a", 18000], "internal_node_id": "0.0-52.0", "trial": 1, "time_elapsed": 368051, "serialpos": 15, "key_press": -1, "wordID": 434, "type": "PRES_AUD", "trial_index": 70}, "uniqueid": "MTK2164:3JMSRU9HQJ1J0V1MK2M82DCZUEYVE4", "dateTime": 1516819942572}, {"current_trial": 71, "trialdata": {"rt": -1000, "trial_type": "single-audio", "word": "girl", "stimulus": "/static/audio/wordpool/GIRL.wav", "conditions": [18, 1200, "a", 18000], "internal_node_id": "0.0-53.0", "trial": 1, "time_elapsed": 370134, "serialpos": 16, "key_press": -1, "wordID": 636, "type": "PRES_AUD", "trial_index": 71}, "uniqueid": "MTK2164:3JMSRU9HQJ1J0V1MK2M82DCZUEYVE4", "dateTime": 1516819944655}, {"current_trial": 72, "trialdata": {"rt": -1000, "trial_type": "single-audio", "word": "lumber", "stimulus": "/static/audio/wordpool/LUMBER.wav", "conditions": [18, 1200, "a", 18000], "internal_node_id": "0.0-54.0", "trial": 1, "time_elapsed": 372210, "serialpos": 17, "key_press": -1, "wordID": 847, "type": "PRES_AUD", "trial_index": 72}, "uniqueid": "MTK2164:3JMSRU9HQJ1J0V1MK2M82DCZUEYVE4", "dateTime": 1516819946731}, {"current_trial": 73, "trialdata": {"rt": -1, "trial_type": "single-stim", "stimulus": "", "internal_node_id": "0.0-55.0-0.0", "time_elapsed": 373571, "key_press": -1, "type": "PRE_RECALL_DELAY", "trial_index": 73}, "uniqueid": "MTK2164:3JMSRU9HQJ1J0V1MK2M82DCZUEYVE4", "dateTime": 1516819948092}, {"current_trial": 74, "trialdata": {"rt": -1000, "trial_type": "single-audio", "stimulus": "/static/audio/400Hz.wav", "internal_node_id": "0.0-56.0", "time_elapsed": 374073, "key_press": -1, "type": "PRE_RECALL_ALERT", "trial_index": 74}, "uniqueid": "MTK2164:3JMSRU9HQJ1J0V1MK2M82DCZUEYVE4", "dateTime": 1516819948594}, {"current_trial": 75, "trialdata": {"rt": [4328, 6708, 8987, 12161, 13497, 15315, 17610, 19065, 21085, 22411, 23744, 26112, 28655, 30352, 33216, 35169, 38313, 40650, 48524], "recwords": ["blueprint", "clam", "airport", "scissors", "maple", "rubber", "cross", "candy", "cabin", "motor", "lover", "trail", "lumber", "daisy", "clam", "airport", "parsley", "maple", "cross"], "key_times": [1602, 1911, 2193, 2763, 3571, 3699, 3837, 3924, 4035, 4328, 5640, 6137, 6297, 6420, 6708, 7094, 7335, 7548, 7818, 7937, 8390, 8513, 8987, 9742, 9935, 10155, 10415, 10577, 10705, 10830, 11153, 12161, 12814, 12909, 13106, 13202, 13352, 13497, 13716, 13897, 14063, 14198, 14303, 14422, 15315, 16151, 16317, 16521, 16692, 16901, 17610, 18243, 18333, 18526, 18618, 18836, 19065, 19662, 19731, 19924, 20436, 20510, 21085, 21559, 21672, 21905, 22018, 22153, 22411, 22793, 22960, 23227, 23285, 23403, 23744, 25042, 25251, 25480, 25669, 25855, 26112, 27118, 27375, 27578, 27866, 27989, 28150, 28655, 29417, 29573, 29743, 29813, 30006, 30352, 32218, 32682, 32822, 32955, 33216, 33979, 34212, 34406, 34541, 34678, 34849, 35009, 35169, 36806, 36902, 37267, 37512, 37772, 37843, 38122, 38313, 40031, 40160, 40289, 40357, 40513, 40650, 47760, 47887, 48041, 48219, 48417, 48524], "trial_type": "free-recall", "conditions": [18, 1200, "a", 18000], "internal_node_id": "0.0-57.0-0.0", "key_presses": [66, 76, 85, 69, 80, 82, 73, 78, 84, 13, 67, 76, 65, 77, 13, 65, 73, 82, 80, 79, 82, 84, 13, 83, 67, 73, 83, 83, 79, 82, 83, 13, 77, 65, 80, 76, 69, 13, 82, 85, 66, 66, 69, 82, 13, 67, 82, 79, 83, 83, 13, 67, 65, 78, 68, 89, 13, 67, 65, 66, 73, 78, 13, 77, 79, 84, 79, 82, 13, 76, 79, 86, 69, 82, 13, 84, 82, 65, 73, 76, 13, 76, 85, 77, 66, 69, 82, 13, 68, 65, 73, 83, 89, 13, 67, 76, 65, 77, 13, 65, 73, 82, 80, 79, 82, 84, 13, 80, 65, 82, 83, 76, 69, 89, 13, 77, 65, 80, 76, 69, 13, 67, 82, 79, 83, 83, 13], "trial": 1, "time_elapsed": 434080, "type": "FREE_RECALL", "trial_index": 75}, "uniqueid": "MTK2164:3JMSRU9HQJ1J0V1MK2M82DCZUEYVE4", "dateTime": 1516820008606}, {"current_trial": 76, "trialdata": {"rt": 9533, "trial_type": "text", "internal_node_id": "0.0-58.0", "time_elapsed": 445620, "key_press": 32, "type": "INSTRUCTIONS", "trial_index": 76}, "uniqueid": "MTK2164:3JMSRU9HQJ1J0V1MK2M82DCZUEYVE4", "dateTime": 1516820020141}, {"current_trial": 77, "trialdata": {"rt": [2040, 5775, 8578, 10367], "trial_type": "math-distractor", "key_times": [1698, 1901, 2040, 4330, 5001, 5246, 5454, 5775, 8268, 8369, 8578, 10041, 10131, 10367], "responses": ["12", "28", "17", "10"], "num2": [2, 7, 4, 3, 4], "num3": [5, 9, 5, 4, 8], "conditions": [12, 800, "a", 12000], "internal_node_id": "0.0-59.0", "key_presses": [49, 50, 13, 49, 8, 50, 56, 13, 49, 55, 13, 49, 48, 13], "trial": 2, "time_elapsed": 458626, "type": "DISTRACTOR", "trial_index": 77, "num1": [5, 9, 8, 3, 4]}, "uniqueid": "MTK2164:3JMSRU9HQJ1J0V1MK2M82DCZUEYVE4", "dateTime": 1516820033147}, {"current_trial": 78, "trialdata": {"rt": -1, "trial_type": "single-stim", "stimulus": "<p id=\"stim\">10</p>", "internal_node_id": "0.0-60.0-0.0", "time_elapsed": 461629, "key_press": -1, "trial_index": 78}, "uniqueid": "MTK2164:3JMSRU9HQJ1J0V1MK2M82DCZUEYVE4", "dateTime": 1516820036151}, {"current_trial": 79, "trialdata": {"rt": -1, "trial_type": "single-stim", "stimulus": "<p id=\"stim\">9</p>", "internal_node_id": "0.0-60.0-1.0", "time_elapsed": 462631, "key_press": -1, "trial_index": 79}, "uniqueid": "MTK2164:3JMSRU9HQJ1J0V1MK2M82DCZUEYVE4", "dateTime": 1516820037152}, {"current_trial": 80, "trialdata": {"rt": -1, "trial_type": "single-stim", "stimulus": "<p id=\"stim\">8</p>", "internal_node_id": "0.0-60.0-2.0", "time_elapsed": 463633, "key_press": -1, "trial_index": 80}, "uniqueid": "MTK2164:3JMSRU9HQJ1J0V1MK2M82DCZUEYVE4", "dateTime": 1516820038157}, {"current_trial": 81, "trialdata": {"rt": -1, "trial_type": "single-stim", "stimulus": "<p id=\"stim\">7</p>", "internal_node_id": "0.0-60.0-3.0", "time_elapsed": 464637, "key_press": -1, "trial_index": 81}, "uniqueid": "MTK2164:3JMSRU9HQJ1J0V1MK2M82DCZUEYVE4", "dateTime": 1516820039159}, {"current_trial": 82, "trialdata": {"rt": -1, "trial_type": "single-stim", "stimulus": "<p id=\"stim\">6</p>", "internal_node_id": "0.0-60.0-4.0", "time_elapsed": 465639, "key_press": -1, "trial_index": 82}, "uniqueid": "MTK2164:3JMSRU9HQJ1J0V1MK2M82DCZUEYVE4", "dateTime": 1516820040161}, {"current_trial": 83, "trialdata": {"rt": -1, "trial_type": "single-stim", "stimulus": "<p id=\"stim\">5</p>", "internal_node_id": "0.0-60.0-5.0", "time_elapsed": 466641, "key_press": -1, "trial_index": 83}, "uniqueid": "MTK2164:3JMSRU9HQJ1J0V1MK2M82DCZUEYVE4", "dateTime": 1516820041163}, {"current_trial": 84, "trialdata": {"rt": -1, "trial_type": "single-stim", "stimulus": "<p id=\"stim\">4</p>", "internal_node_id": "0.0-60.0-6.0", "time_elapsed": 467644, "key_press": -1, "trial_index": 84}, "uniqueid": "MTK2164:3JMSRU9HQJ1J0V1MK2M82DCZUEYVE4", "dateTime": 1516820042165}, {"current_trial": 85, "trialdata": {"rt": -1, "trial_type": "single-stim", "stimulus": "<p id=\"stim\">3</p>", "internal_node_id": "0.0-60.0-7.0", "time_elapsed": 468646, "key_press": -1, "trial_index": 85}, "uniqueid": "MTK2164:3JMSRU9HQJ1J0V1MK2M82DCZUEYVE4", "dateTime": 1516820043167}, {"current_trial": 86, "trialdata": {"rt": -1, "trial_type": "single-stim", "stimulus": "<p id=\"stim\">2</p>", "internal_node_id": "0.0-60.0-8.0", "time_elapsed": 469648, "key_press": -1, "trial_index": 86}, "uniqueid": "MTK2164:3JMSRU9HQJ1J0V1MK2M82DCZUEYVE4", "dateTime": 1516820044169}, {"current_trial": 87, "trialdata": {"rt": -1, "trial_type": "single-stim", "stimulus": "<p id=\"stim\">1</p>", "internal_node_id": "0.0-60.0-9.0", "time_elapsed": 470650, "key_press": -1, "trial_index": 87}, "uniqueid": "MTK2164:3JMSRU9HQJ1J0V1MK2M82DCZUEYVE4", "dateTime": 1516820045171}, {"current_trial": 88, "trialdata": {"rt": -1, "trial_type": "single-stim", "stimulus": "<p id=\"stim\">+</p>", "internal_node_id": "0.0-61.0-0.0", "time_elapsed": 472151, "key_press": -1, "type": "FIXATION", "trial_index": 88}, "uniqueid": "MTK2164:3JMSRU9HQJ1J0V1MK2M82DCZUEYVE4", "dateTime": 1516820046673}, {"current_trial": 89, "trialdata": {"rt": -1000, "trial_type": "single-audio", "word": "cousin", "stimulus": "/static/audio/wordpool/COUSIN.wav", "conditions": [12, 800, "a", 12000], "internal_node_id": "0.0-62.0", "trial": 2, "time_elapsed": 474083, "serialpos": 0, "key_press": -1, "wordID": 391, "type": "PRES_AUD", "trial_index": 89}, "uniqueid": "MTK2164:3JMSRU9HQJ1J0V1MK2M82DCZUEYVE4", "dateTime": 1516820048604}, {"current_trial": 90, "trialdata": {"rt": -1000, "trial_type": "single-audio", "word": "snake", "stimulus": "/static/audio/wordpool/SNAKE.wav", "conditions": [12, 800, "a", 12000], "internal_node_id": "0.0-63.0", "trial": 2, "time_elapsed": 476012, "serialpos": 1, "key_press": -1, "wordID": 1332, "type": "PRES_AUD", "trial_index": 90}, "uniqueid": "MTK2164:3JMSRU9HQJ1J0V1MK2M82DCZUEYVE4", "dateTime": 1516820050534}, {"current_trial": 91, "trialdata": {"rt": -1000, "trial_type": "single-audio", "word": "cattle", "stimulus": "/static/audio/wordpool/CATTLE.wav", "conditions": [12, 800, "a", 12000], "internal_node_id": "0.0-64.0", "trial": 2, "time_elapsed": 477949, "serialpos": 2, "key_press": -1, "wordID": 260, "type": "PRES_AUD", "trial_index": 91}, "uniqueid": "MTK2164:3JMSRU9HQJ1J0V1MK2M82DCZUEYVE4", "dateTime": 1516820052471}, {"current_trial": 92, "trialdata": {"rt": -1000, "trial_type": "single-audio", "word": "missile", "stimulus": "/static/audio/wordpool/MISSILE.wav", "conditions": [12, 800, "a", 12000], "internal_node_id": "0.0-65.0", "trial": 2, "time_elapsed": 479850, "serialpos": 3, "key_press": -1, "wordID": 899, "type": "PRES_AUD", "trial_index": 92}, "uniqueid": "MTK2164:3JMSRU9HQJ1J0V1MK2M82DCZUEYVE4", "dateTime": 1516820054372}, {"current_trial": 93, "trialdata": {"rt": -1000, "trial_type": "single-audio", "word": "peach", "stimulus": "/static/audio/wordpool/PEACH.wav", "conditions": [12, 800, "a", 12000], "internal_node_id": "0.0-66.0", "trial": 2, "time_elapsed": 481733, "serialpos": 4, "key_press": -1, "wordID": 1030, "type": "PRES_AUD", "trial_index": 93}, "uniqueid": "MTK2164:3JMSRU9HQJ1J0V1MK2M82DCZUEYVE4", "dateTime": 1516820056255}, {"current_trial": 94, "trialdata": {"rt": -1000, "trial_type": "single-audio", "word": "icing", "stimulus": "/static/audio/wordpool/ICING.wav", "conditions": [12, 800, "a", 12000], "internal_node_id": "0.0-67.0", "trial": 2, "time_elapsed": 483479, "serialpos": 5, "key_press": -1, "wordID": 731, "type": "PRES_AUD", "trial_index": 94}, "uniqueid": "MTK2164:3JMSRU9HQJ1J0V1MK2M82DCZUEYVE4", "dateTime": 1516820058001}, {"current_trial": 95, "trialdata": {"rt": -1000, "trial_type": "single-audio", "word": "banjo", "stimulus": "/static/audio/wordpool/BANJO.wav", "conditions": [12, 800, "a", 12000], "internal_node_id": "0.0-68.0", "trial": 2, "time_elapsed": 485313, "serialpos": 6, "key_press": -1, "wordID": 81, "type": "PRES_AUD", "trial_index": 95}, "uniqueid": "MTK2164:3JMSRU9HQJ1J0V1MK2M82DCZUEYVE4", "dateTime": 1516820059835}, {"current_trial": 96, "trialdata": {"rt": -1000, "trial_type": "single-audio", "word": "beef", "stimulus": "/static/audio/wordpool/BEEF.wav", "conditions": [12, 800, "a", 12000], "internal_node_id": "0.0-69.0", "trial": 2, "time_elapsed": 487306, "serialpos": 7, "key_press": -1, "wordID": 112, "type": "PRES_AUD", "trial_index": 96}, "uniqueid": "MTK2164:3JMSRU9HQJ1J0V1MK2M82DCZUEYVE4", "dateTime": 1516820061827}, {"current_trial": 97, "trialdata": {"rt": -1000, "trial_type": "single-audio", "word": "pilot", "stimulus": "/static/audio/wordpool/PILOT.wav", "conditions": [12, 800, "a", 12000], "internal_node_id": "0.0-70.0", "trial": 2, "time_elapsed": 489177, "serialpos": 8, "key_press": -1, "wordID": 1069, "type": "PRES_AUD", "trial_index": 97}, "uniqueid": "MTK2164:3JMSRU9HQJ1J0V1MK2M82DCZUEYVE4", "dateTime": 1516820063698}, {"current_trial": 98, "trialdata": {"rt": -1000, "trial_type": "single-audio", "word": "victim", "stimulus": "/static/audio/wordpool/VICTIM.wav", "conditions": [12, 800, "a", 12000], "internal_node_id": "0.0-71.0", "trial": 2, "time_elapsed": 491158, "serialpos": 9, "key_press": -1, "wordID": 1561, "type": "PRES_AUD", "trial_index": 98}, "uniqueid": "MTK2164:3JMSRU9HQJ1J0V1MK2M82DCZUEYVE4", "dateTime": 1516820065679}, {"current_trial": 99, "trialdata": {"rt": -1000, "trial_type": "single-audio", "word": "suspect", "stimulus": "/static/audio/wordpool/SUSPECT.wav", "conditions": [12, 800, "a", 12000], "internal_node_id": "0.0-72.0", "trial": 2, "time_elapsed": 493034, "serialpos": 10, "key_press": -1, "wordID": 1414, "type": "PRES_AUD", "trial_index": 99}, "uniqueid": "MTK2164:3JMSRU9HQJ1J0V1MK2M82DCZUEYVE4", "dateTime": 1516820067555}, {"current_trial": 100, "trialdata": {"rt": -1000, "trial_type": "single-audio", "word": "thief", "stimulus": "/static/audio/wordpool/THIEF.wav", "conditions": [12, 800, "a", 12000], "internal_node_id": "0.0-73.0", "trial": 2, "time_elapsed": 494861, "serialpos": 11, "key_press": -1, "wordID": 1455, "type": "PRES_AUD", "trial_index": 100}, "uniqueid": "MTK2164:3JMSRU9HQJ1J0V1MK2M82DCZUEYVE4", "dateTime": 1516820069382}, {"current_trial": 101, "trialdata": {"rt": -1, "trial_type": "single-stim", "stimulus": "", "internal_node_id": "0.0-74.0-0.0", "time_elapsed": 496183, "key_press": -1, "type": "PRE_RECALL_DELAY", "trial_index": 101}, "uniqueid": "MTK2164:3JMSRU9HQJ1J0V1MK2M82DCZUEYVE4", "dateTime": 1516820070704}, {"current_trial": 102, "trialdata": {"rt": -1000, "trial_type": "single-audio", "stimulus": "/static/audio/400Hz.wav", "internal_node_id": "0.0-75.0", "time_elapsed": 496685, "key_press": -1, "type": "PRE_RECALL_ALERT", "trial_index": 102}, "uniqueid": "MTK2164:3JMSRU9HQJ1J0V1MK2M82DCZUEYVE4", "dateTime": 1516820071206}, {"current_trial": 103, "trialdata": {"rt": [2996, 4754, 8226, 9990, 12296, 14864, 17885, 21090, 23129, 26594, 29530, 32900], "recwords": ["cousin", "snake", "cattle", "missile", "icing", "banjo", "pilot", "peach", "beef", "victim", "thieves", "suspects"], "key_times": [1588, 2128, 2285, 2445, 2580, 2676, 2996, 4091, 4264, 4376, 4477, 4600, 4754, 6102, 6198, 6320, 6488, 7354, 7465, 8226, 8941, 9048, 9154, 9324, 9508, 9717, 9835, 9990, 11458, 11681, 11778, 11921, 12066, 12296, 12781, 12877, 13005, 13230, 13835, 14495, 14597, 14864, 15833, 16455, 16914, 17153, 17373, 17532, 17683, 17885, 19761, 19912, 20315, 20647, 20786, 21090, 22208, 22294, 22480, 22609, 23129, 25479, 25613, 25725, 25982, 26099, 26220, 26594, 28302, 28504, 28690, 28797, 29033, 29140, 29375, 29530, 30860, 31123, 31310, 31694, 31854, 32174, 32341, 32441, 32900], "trial_type": "free-recall", "conditions": [12, 800, "a", 12000], "internal_node_id": "0.0-76.0-0.0", "key_presses": [67, 79, 85, 83, 73, 78, 13, 83, 78, 65, 75, 69, 13, 67, 65, 84, 84, 76, 69, 13, 77, 73, 83, 83, 73, 76, 69, 13, 73, 67, 73, 78, 71, 13, 66, 65, 78, 75, 8, 74, 79, 13, 79, 8, 80, 73, 76, 79, 84, 13, 80, 69, 65, 67, 72, 13, 66, 69, 69, 70, 13, 86, 73, 67, 84, 73, 77, 13, 84, 72, 73, 69, 86, 69, 83, 13, 83, 85, 83, 80, 69, 67, 84, 83, 13], "trial": 2, "time_elapsed": 556692, "type": "FREE_RECALL", "trial_index": 103}, "uniqueid": "MTK2164:3JMSRU9HQJ1J0V1MK2M82DCZUEYVE4", "dateTime": 1516820131215}, {"current_trial": 104, "trialdata": {"rt": 61760, "trial_type": "text", "internal_node_id": "0.0-77.0", "time_elapsed": 620456, "key_press": 32, "type": "INSTRUCTIONS", "trial_index": 104}, "uniqueid": "MTK2164:3JMSRU9HQJ1J0V1MK2M82DCZUEYVE4", "dateTime": 1516820194978}, {"current_trial": 105, "trialdata": {"rt": [3832, 6632, 9724, 13388, 15342, 17272, 19528, 20885, 23375], "trial_type": "math-distractor", "key_times": [3324, 3514, 3832, 6198, 6300, 6632, 9362, 9452, 9724, 11367, 13063, 13388, 14887, 15063, 15342, 16917, 17007, 17272, 19164, 19272, 19528, 20521, 20650, 20885, 22973, 23182, 23375], "responses": ["14", "16", "19", "16", "18", "18", "16", "18", "20"], "num2": [1, 4, 3, 9, 6, 7, 9, 5, 9, 9], "num3": [7, 7, 8, 2, 8, 2, 3, 8, 7, 8], "conditions": [24, 800, "a", 24000], "internal_node_id": "0.0-78.0", "key_presses": [49, 52, 13, 49, 54, 13, 49, 57, 13, 49, 54, 13, 49, 56, 13, 49, 56, 13, 49, 54, 13, 49, 56, 13, 50, 48, 13], "trial": 3, "time_elapsed": 646465, "type": "DISTRACTOR", "trial_index": 105, "num1": [5, 5, 7, 4, 4, 9, 4, 5, 4, 7]}, "uniqueid": "MTK2164:3JMSRU9HQJ1J0V1MK2M82DCZUEYVE4", "dateTime": 1516820220986}, {"current_trial": 106, "trialdata": {"rt": -1, "trial_type": "single-stim", "stimulus": "<p id=\"stim\">10</p>", "internal_node_id": "0.0-79.0-0.0", "time_elapsed": 649468, "key_press": -1, "trial_index": 106}, "uniqueid": "MTK2164:3JMSRU9HQJ1J0V1MK2M82DCZUEYVE4", "dateTime": 1516820223990}, {"current_trial": 107, "trialdata": {"rt": -1, "trial_type": "single-stim", "stimulus": "<p id=\"stim\">9</p>", "internal_node_id": "0.0-79.0-1.0", "time_elapsed": 650470, "key_press": -1, "trial_index": 107}, "uniqueid": "MTK2164:3JMSRU9HQJ1J0V1MK2M82DCZUEYVE4", "dateTime": 1516820224991}, {"current_trial": 108, "trialdata": {"rt": -1, "trial_type": "single-stim", "stimulus": "<p id=\"stim\">8</p>", "internal_node_id": "0.0-79.0-2.0", "time_elapsed": 651471, "key_press": -1, "trial_index": 108}, "uniqueid": "MTK2164:3JMSRU9HQJ1J0V1MK2M82DCZUEYVE4", "dateTime": 1516820225993}, {"current_trial": 109, "trialdata": {"rt": -1, "trial_type": "single-stim", "stimulus": "<p id=\"stim\">7</p>", "internal_node_id": "0.0-79.0-3.0", "time_elapsed": 652473, "key_press": -1, "trial_index": 109}, "uniqueid": "MTK2164:3JMSRU9HQJ1J0V1MK2M82DCZUEYVE4", "dateTime": 1516820226995}, {"current_trial": 110, "trialdata": {"rt": -1, "trial_type": "single-stim", "stimulus": "<p id=\"stim\">6</p>", "internal_node_id": "0.0-79.0-4.0", "time_elapsed": 653475, "key_press": -1, "trial_index": 110}, "uniqueid": "MTK2164:3JMSRU9HQJ1J0V1MK2M82DCZUEYVE4", "dateTime": 1516820227997}, {"current_trial": 111, "trialdata": {"rt": -1, "trial_type": "single-stim", "stimulus": "<p id=\"stim\">5</p>", "internal_node_id": "0.0-79.0-5.0", "time_elapsed": 654477, "key_press": -1, "trial_index": 111}, "uniqueid": "MTK2164:3JMSRU9HQJ1J0V1MK2M82DCZUEYVE4", "dateTime": 1516820228999}, {"current_trial": 112, "trialdata": {"rt": -1, "trial_type": "single-stim", "stimulus": "<p id=\"stim\">4</p>", "internal_node_id": "0.0-79.0-6.0", "time_elapsed": 655479, "key_press": -1, "trial_index": 112}, "uniqueid": "MTK2164:3JMSRU9HQJ1J0V1MK2M82DCZUEYVE4", "dateTime": 1516820230001}, {"current_trial": 113, "trialdata": {"rt": -1, "trial_type": "single-stim", "stimulus": "<p id=\"stim\">3</p>", "internal_node_id": "0.0-79.0-7.0", "time_elapsed": 656481, "key_press": -1, "trial_index": 113}, "uniqueid": "MTK2164:3JMSRU9HQJ1J0V1MK2M82DCZUEYVE4", "dateTime": 1516820231003}, {"current_trial": 114, "trialdata": {"rt": -1, "trial_type": "single-stim", "stimulus": "<p id=\"stim\">2</p>", "internal_node_id": "0.0-79.0-8.0", "time_elapsed": 657483, "key_press": -1, "trial_index": 114}, "uniqueid": "MTK2164:3JMSRU9HQJ1J0V1MK2M82DCZUEYVE4", "dateTime": 1516820232004}, {"current_trial": 115, "trialdata": {"rt": -1, "trial_type": "single-stim", "stimulus": "<p id=\"stim\">1</p>", "internal_node_id": "0.0-79.0-9.0", "time_elapsed": 658486, "key_press": -1, "trial_index": 115}, "uniqueid": "MTK2164:3JMSRU9HQJ1J0V1MK2M82DCZUEYVE4", "dateTime": 1516820233007}, {"current_trial": 116, "trialdata": {"rt": -1, "trial_type": "single-stim", "stimulus": "<p id=\"stim\">+</p>", "internal_node_id": "0.0-80.0-0.0", "time_elapsed": 659988, "key_press": -1, "type": "FIXATION", "trial_index": 116}, "uniqueid": "MTK2164:3JMSRU9HQJ1J0V1MK2M82DCZUEYVE4", "dateTime": 1516820234510}, {"current_trial": 117, "trialdata": {"rt": -1000, "trial_type": "single-audio", "word": "spool", "stimulus": "/static/audio/wordpool/SPOOL.wav", "conditions": [24, 800, "a", 24000], "internal_node_id": "0.0-81.0", "trial": 3, "time_elapsed": 661873, "serialpos": 0, "key_press": -1, "wordID": 1355, "type": "PRES_AUD", "trial_index": 117}, "uniqueid": "MTK2164:3JMSRU9HQJ1J0V1MK2M82DCZUEYVE4", "dateTime": 1516820236395}, {"current_trial": 118, "trialdata": {"rt": -1000, "trial_type": "single-audio", "word": "bison", "stimulus": "/static/audio/wordpool/BISON.wav", "conditions": [24, 800, "a", 24000], "internal_node_id": "0.0-82.0", "trial": 3, "time_elapsed": 663644, "serialpos": 1, "key_press": -1, "wordID": 130, "type": "PRES_AUD", "trial_index": 118}, "uniqueid": "MTK2164:3JMSRU9HQJ1J0V1MK2M82DCZUEYVE4", "dateTime": 1516820238166}, {"current_trial": 119, "trialdata": {"rt": -1000, "trial_type": "single-audio", "word": "tutu", "stimulus": "/static/audio/wordpool/TUTU.wav", "conditions": [24, 800, "a", 24000], "internal_node_id": "0.0-83.0", "trial": 3, "time_elapsed": 665427, "serialpos": 2, "key_press": -1, "wordID": 1523, "type": "PRES_AUD", "trial_index": 119}, "uniqueid": "MTK2164:3JMSRU9HQJ1J0V1MK2M82DCZUEYVE4", "dateTime": 1516820239949}, {"current_trial": 120, "trialdata": {"rt": -1000, "trial_type": "single-audio", "word": "muffin", "stimulus": "/static/audio/wordpool/MUFFIN.wav", "conditions": [24, 800, "a", 24000], "internal_node_id": "0.0-84.0", "trial": 3, "time_elapsed": 667363, "serialpos": 3, "key_press": -1, "wordID": 928, "type": "PRES_AUD", "trial_index": 120}, "uniqueid": "MTK2164:3JMSRU9HQJ1J0V1MK2M82DCZUEYVE4", "dateTime": 1516820241886}, {"current_trial": 121, "trialdata": {"rt": -1000, "trial_type": "single-audio", "word": "highway", "stimulus": "/static/audio/wordpool/HIGHWAY.wav", "conditions": [24, 800, "a", 24000], "internal_node_id": "0.0-85.0", "trial": 3, "time_elapsed": 669199, "serialpos": 4, "key_press": -1, "wordID": 706, "type": "PRES_AUD", "trial_index": 121}, "uniqueid": "MTK2164:3JMSRU9HQJ1J0V1MK2M82DCZUEYVE4", "dateTime": 1516820243721}, {"current_trial": 122, "trialdata": {"rt": -1000, "trial_type": "single-audio", "word": "harp", "stimulus": "/static/audio/wordpool/HARP.wav", "conditions": [24, 800, "a", 24000], "internal_node_id": "0.0-86.0", "trial": 3, "time_elapsed": 670836, "serialpos": 5, "key_press": -1, "wordID": 688, "type": "PRES_AUD", "trial_index": 122}, "uniqueid": "MTK2164:3JMSRU9HQJ1J0V1MK2M82DCZUEYVE4", "dateTime": 1516820245358}, {"current_trial": 123, "trialdata": {"rt": -1000, "trial_type": "single-audio", "word": "cupboard", "stimulus": "/static/audio/wordpool/CUPBOARD.wav", "conditions": [24, 800, "a", 24000], "internal_node_id": "0.0-87.0", "trial": 3, "time_elapsed": 672535, "serialpos": 6, "key_press": -1, "wordID": 424, "type": "PRES_AUD", "trial_index": 123}, "uniqueid": "MTK2164:3JMSRU9HQJ1J0V1MK2M82DCZUEYVE4", "dateTime": 1516820247057}, {"current_trial": 124, "trialdata": {"rt": -1000, "trial_type": "single-audio", "word": "dresser", "stimulus": "/static/audio/wordpool/DRESSER.wav", "conditions": [24, 800, "a", 24000], "internal_node_id": "0.0-88.0", "trial": 3, "time_elapsed": 674293, "serialpos": 7, "key_press": -1, "wordID": 495, "type": "PRES_AUD", "trial_index": 124}, "uniqueid": "MTK2164:3JMSRU9HQJ1J0V1MK2M82DCZUEYVE4", "dateTime": 1516820248819}, {"current_trial": 125, "trialdata": {"rt": -1000, "trial_type": "single-audio", "word": "hound", "stimulus": "/static/audio/wordpool/HOUND.wav", "conditions": [24, 800, "a", 24000], "internal_node_id": "0.0-89.0", "trial": 3, "time_elapsed": 675940, "serialpos": 8, "key_press": -1, "wordID": 723, "type": "PRES_AUD", "trial_index": 125}, "uniqueid": "MTK2164:3JMSRU9HQJ1J0V1MK2M82DCZUEYVE4", "dateTime": 1516820250461}, {"current_trial": 126, "trialdata": {"rt": -1000, "trial_type": "single-audio", "word": "wrench", "stimulus": "/static/audio/wordpool/WRENCH.wav", "conditions": [24, 800, "a", 24000], "internal_node_id": "0.0-90.0", "trial": 3, "time_elapsed": 677583, "serialpos": 9, "key_press": -1, "wordID": 1624, "type": "PRES_AUD", "trial_index": 126}, "uniqueid": "MTK2164:3JMSRU9HQJ1J0V1MK2M82DCZUEYVE4", "dateTime": 1516820252105}, {"current_trial": 127, "trialdata": {"rt": -1000, "trial_type": "single-audio", "word": "rod", "stimulus": "/static/audio/wordpool/ROD.wav", "conditions": [24, 800, "a", 24000], "internal_node_id": "0.0-91.0", "trial": 3, "time_elapsed": 679529, "serialpos": 10, "key_press": -1, "wordID": 1202, "type": "PRES_AUD", "trial_index": 127}, "uniqueid": "MTK2164:3JMSRU9HQJ1J0V1MK2M82DCZUEYVE4", "dateTime": 1516820254050}, {"current_trial": 128, "trialdata": {"rt": -1000, "trial_type": "single-audio", "word": "slime", "stimulus": "/static/audio/wordpool/SLIME.wav", "conditions": [24, 800, "a", 24000], "internal_node_id": "0.0-92.0", "trial": 3, "time_elapsed": 681384, "serialpos": 11, "key_press": -1, "wordID": 1326, "type": "PRES_AUD", "trial_index": 128}, "uniqueid": "MTK2164:3JMSRU9HQJ1J0V1MK2M82DCZUEYVE4", "dateTime": 1516820255905}, {"current_trial": 129, "trialdata": {"rt": -1000, "trial_type": "single-audio", "word": "blade", "stimulus": "/static/audio/wordpool/BLADE.wav", "conditions": [24, 800, "a", 24000], "internal_node_id": "0.0-93.0", "trial": 3, "time_elapsed": 682999, "serialpos": 12, "key_press": -1, "wordID": 133, "type": "PRES_AUD", "trial_index": 129}, "uniqueid": "MTK2164:3JMSRU9HQJ1J0V1MK2M82DCZUEYVE4", "dateTime": 1516820257520}, {"current_trial": 130, "trialdata": {"rt": -1000, "trial_type": "single-audio", "word": "razor", "stimulus": "/static/audio/wordpool/RAZOR.wav", "conditions": [24, 800, "a", 24000], "internal_node_id": "0.0-94.0", "trial": 3, "time_elapsed": 684983, "serialpos": 13, "key_press": -1, "wordID": 1170, "type": "PRES_AUD", "trial_index": 130}, "uniqueid": "MTK2164:3JMSRU9HQJ1J0V1MK2M82DCZUEYVE4", "dateTime": 1516820259504}, {"current_trial": 131, "trialdata": {"rt": -1000, "trial_type": "single-audio", "word": "diver", "stimulus": "/static/audio/wordpool/DIVER.wav", "conditions": [24, 800, "a", 24000], "internal_node_id": "0.0-95.0", "trial": 3, "time_elapsed": 686673, "serialpos": 14, "key_press": -1, "wordID": 475, "type": "PRES_AUD", "trial_index": 131}, "uniqueid": "MTK2164:3JMSRU9HQJ1J0V1MK2M82DCZUEYVE4", "dateTime": 1516820261194}, {"current_trial": 132, "trialdata": {"rt": -1000, "trial_type": "single-audio", "word": "salmon", "stimulus": "/static/audio/wordpool/SALMON.wav", "conditions": [24, 800, "a", 24000], "internal_node_id": "0.0-96.0", "trial": 3, "time_elapsed": 688455, "serialpos": 15, "key_press": -1, "wordID": 1226, "type": "PRES_AUD", "trial_index": 132}, "uniqueid": "MTK2164:3JMSRU9HQJ1J0V1MK2M82DCZUEYVE4", "dateTime": 1516820262976}, {"current_trial": 133, "trialdata": {"rt": -1000, "trial_type": "single-audio", "word": "butcher", "stimulus": "/static/audio/wordpool/BUTCHER.wav", "conditions": [24, 800, "a", 24000], "internal_node_id": "0.0-97.0", "trial": 3, "time_elapsed": 690441, "serialpos": 16, "key_press": -1, "wordID": 202, "type": "PRES_AUD", "trial_index": 133}, "uniqueid": "MTK2164:3JMSRU9HQJ1J0V1MK2M82DCZUEYVE4", "dateTime": 1516820264962}, {"current_trial": 134, "trialdata": {"rt": -1000, "trial_type": "single-audio", "word": "shorts", "stimulus": "/static/audio/wordpool/SHORTS.wav", "conditions": [24, 800, "a", 24000], "internal_node_id": "0.0-98.0", "trial": 3, "time_elapsed": 692346, "serialpos": 17, "key_press": -1, "wordID": 1292, "type": "PRES_AUD", "trial_index": 134}, "uniqueid": "MTK2164:3JMSRU9HQJ1J0V1MK2M82DCZUEYVE4", "dateTime": 1516820266867}, {"current_trial": 135, "trialdata": {"rt": -1000, "trial_type": "single-audio", "word": "costume", "stimulus": "/static/audio/wordpool/COSTUME.wav", "conditions": [24, 800, "a", 24000], "internal_node_id": "0.0-99.0", "trial": 3, "time_elapsed": 694000, "serialpos": 18, "key_press": -1, "wordID": 382, "type": "PRES_AUD", "trial_index": 135}, "uniqueid": "MTK2164:3JMSRU9HQJ1J0V1MK2M82DCZUEYVE4", "dateTime": 1516820268521}, {"current_trial": 136, "trialdata": {"rt": -1000, "trial_type": "single-audio", "word": "penguin", "stimulus": "/static/audio/wordpool/PENGUIN.wav", "conditions": [24, 800, "a", 24000], "internal_node_id": "0.0-100.0", "trial": 3, "time_elapsed": 695708, "serialpos": 19, "key_press": -1, "wordID": 1043, "type": "PRES_AUD", "trial_index": 136}, "uniqueid": "MTK2164:3JMSRU9HQJ1J0V1MK2M82DCZUEYVE4", "dateTime": 1516820270229}, {"current_trial": 137, "trialdata": {"rt": -1000, "trial_type": "single-audio", "word": "trout", "stimulus": "/static/audio/wordpool/TROUT.wav", "conditions": [24, 800, "a", 24000], "internal_node_id": "0.0-101.0", "trial": 3, "time_elapsed": 697628, "serialpos": 20, "key_press": -1, "wordID": 1510, "type": "PRES_AUD", "trial_index": 137}, "uniqueid": "MTK2164:3JMSRU9HQJ1J0V1MK2M82DCZUEYVE4", "dateTime": 1516820272150}, {"current_trial": 138, "trialdata": {"rt": -1000, "trial_type": "single-audio", "word": "slide", "stimulus": "/static/audio/wordpool/SLIDE.wav", "conditions": [24, 800, "a", 24000], "internal_node_id": "0.0-102.0", "trial": 3, "time_elapsed": 699250, "serialpos": 21, "key_press": -1, "wordID": 1325, "type": "PRES_AUD", "trial_index": 138}, "uniqueid": "MTK2164:3JMSRU9HQJ1J0V1MK2M82DCZUEYVE4", "dateTime": 1516820273771}, {"current_trial": 139, "trialdata": {"rt": -1000, "trial_type": "single-audio", "word": "brook", "stimulus": "/static/audio/wordpool/BROOK.wav", "conditions": [24, 800, "a", 24000], "internal_node_id": "0.0-103.0", "trial": 3, "time_elapsed": 701138, "serialpos": 22, "key_press": -1, "wordID": 176, "type": "PRES_AUD", "trial_index": 139}, "uniqueid": "MTK2164:3JMSRU9HQJ1J0V1MK2M82DCZUEYVE4", "dateTime": 1516820275659}, {"current_trial": 140, "trialdata": {"rt": -1000, "trial_type": "single-audio", "word": "curtain", "stimulus": "/static/audio/wordpool/CURTAIN.wav", "conditions": [24, 800, "a", 24000], "internal_node_id": "0.0-104.0", "trial": 3, "time_elapsed": 702817, "serialpos": 23, "key_press": -1, "wordID": 426, "type": "PRES_AUD", "trial_index": 140}, "uniqueid": "MTK2164:3JMSRU9HQJ1J0V1MK2M82DCZUEYVE4", "dateTime": 1516820277338}, {"current_trial": 141, "trialdata": {"rt": -1, "trial_type": "single-stim", "stimulus": "", "internal_node_id": "0.0-105.0-0.0", "time_elapsed": 704082, "key_press": -1, "type": "PRE_RECALL_DELAY", "trial_index": 141}, "uniqueid": "MTK2164:3JMSRU9HQJ1J0V1MK2M82DCZUEYVE4", "dateTime": 1516820278604}, {"current_trial": 142, "trialdata": {"rt": -1000, "trial_type": "single-audio", "stimulus": "/static/audio/400Hz.wav", "internal_node_id": "0.0-106.0", "time_elapsed": 704585, "key_press": -1, "type": "PRE_RECALL_ALERT", "trial_index": 142}, "uniqueid": "MTK2164:3JMSRU9HQJ1J0V1MK2M82DCZUEYVE4", "dateTime": 1516820279107}, {"current_trial": 143, "trialdata": {"rt": [4002, 6303, 7365, 9393, 12123, 14405, 15700, 18298, 20228, 22018, 26679, 29080, 31186, 33073, 35566, 40451], "recwords": ["spool", "bison", "tut", "muffin", "dresser", "wrench", "slime", "razor", "blade", "diver", "salmon", "diver", "shorts", "penguin", "tout", "curtain"], "key_times": [3206, 3291, 3414, 3600, 3803, 4002, 4661, 4949, 5067, 5269, 5458, 6303, 6884, 7029, 7141, 7365, 8067, 8409, 8650, 8852, 8917, 9057, 9393, 9718, 10165, 10315, 10746, 10928, 11104, 11306, 11377, 11553, 12123, 12799, 13071, 13403, 13584, 14004, 14132, 14405, 14683, 15020, 15234, 15401, 15551, 15700, 17369, 17445, 17702, 18030, 18157, 18298, 18868, 19326, 19614, 19881, 19993, 20228, 21116, 21280, 21516, 21644, 21847, 22018, 22854, 24164, 24316, 24505, 24642, 26116, 26679, 27345, 27549, 27800, 27929, 28143, 29080, 30209, 30368, 30469, 30625, 30759, 31101, 31186, 31607, 31745, 31910, 32223, 32284, 32417, 32530, 33073, 34866, 35106, 35224, 35336, 35566, 37385, 37561, 37775, 38186, 38293, 39283, 39427, 39641, 39749, 40451], "trial_type": "free-recall", "conditions": [24, 800, "a", 24000], "internal_node_id": "0.0-107.0-0.0", "key_presses": [83, 80, 79, 79, 76, 13, 66, 73, 83, 79, 78, 13, 84, 85, 84, 13, 77, 85, 70, 70, 73, 78, 13, 83, 8, 68, 82, 69, 83, 83, 69, 82, 13, 87, 82, 69, 78, 67, 72, 13, 83, 76, 73, 77, 69, 13, 82, 65, 90, 79, 82, 13, 66, 76, 65, 68, 69, 13, 68, 73, 86, 69, 82, 13, 83, 65, 76, 77, 79, 78, 13, 68, 73, 86, 69, 82, 13, 83, 72, 79, 82, 84, 83, 13, 80, 69, 78, 71, 85, 73, 78, 13, 84, 79, 85, 84, 13, 67, 85, 84, 8, 82, 84, 65, 73, 78, 13], "trial": 3, "time_elapsed": 764910, "type": "FREE_RECALL", "trial_index": 143}, "uniqueid": "MTK2164:3JMSRU9HQJ1J0V1MK2M82DCZUEYVE4", "dateTime": 1516820339441}, {"current_trial": 144, "trialdata": {"rt": 211661, "trial_type": "text", "internal_node_id": "0.0-108.0", "time_elapsed": 979569, "key_press": 32, "type": "INSTRUCTIONS", "trial_index": 144}, "uniqueid": "MTK2164:3JMSRU9HQJ1J0V1MK2M82DCZUEYVE4", "dateTime": 1516820554090}, {"current_trial": 145, "trialdata": {"rt": [2057, 3917, 5710, 7630, 10723, 13517, 16738, 18762, 21649], "trial_type": "math-distractor", "key_times": [1608, 1784, 2057, 3230, 3735, 3917, 5369, 5464, 5710, 7352, 7486, 7630, 10365, 10500, 10723, 12853, 13411, 13517, 16031, 16144, 16738, 18705, 18762, 21308, 21543, 21649, 22959, 23538, 23704, 23902], "responses": ["16", "14", "18", "12", "27", "12", "17", "8", "24"], "num2": [6, 2, 4, 1, 9, 6, 7, 1, 7, 7], "num3": [2, 8, 7, 9, 8, 1, 8, 4, 7, 5], "conditions": [12, 1600, "a", 24000], "internal_node_id": "0.0-109.0", "key_presses": [49, 54, 13, 49, 52, 13, 49, 56, 13, 49, 50, 13, 50, 55, 13, 49, 50, 13, 49, 55, 13, 56, 13, 50, 52, 13, 49, 8, 50, 50], "trial": 4, "time_elapsed": 1005574, "type": "DISTRACTOR", "trial_index": 145, "num1": [8, 2, 6, 2, 9, 5, 8, 3, 8, 5]}, "uniqueid": "MTK2164:3JMSRU9HQJ1J0V1MK2M82DCZUEYVE4", "dateTime": 1516820580096}, {"current_trial": 146, "trialdata": {"rt": -1, "trial_type": "single-stim", "stimulus": "<p id=\"stim\">10</p>", "internal_node_id": "0.0-110.0-0.0", "time_elapsed": 1008576, "key_press": -1, "trial_index": 146}, "uniqueid": "MTK2164:3JMSRU9HQJ1J0V1MK2M82DCZUEYVE4", "dateTime": 1516820583097}, {"current_trial": 147, "trialdata": {"rt": -1, "trial_type": "single-stim", "stimulus": "<p id=\"stim\">9</p>", "internal_node_id": "0.0-110.0-1.0", "time_elapsed": 1009577, "key_press": -1, "trial_index": 147}, "uniqueid": "MTK2164:3JMSRU9HQJ1J0V1MK2M82DCZUEYVE4", "dateTime": 1516820584098}, {"current_trial": 148, "trialdata": {"rt": -1, "trial_type": "single-stim", "stimulus": "<p id=\"stim\">8</p>", "internal_node_id": "0.0-110.0-2.0", "time_elapsed": 1010578, "key_press": -1, "trial_index": 148}, "uniqueid": "MTK2164:3JMSRU9HQJ1J0V1MK2M82DCZUEYVE4", "dateTime": 1516820585099}, {"current_trial": 149, "trialdata": {"rt": -1, "trial_type": "single-stim", "stimulus": "<p id=\"stim\">7</p>", "internal_node_id": "0.0-110.0-3.0", "time_elapsed": 1011580, "key_press": -1, "trial_index": 149}, "uniqueid": "MTK2164:3JMSRU9HQJ1J0V1MK2M82DCZUEYVE4", "dateTime": 1516820586101}, {"current_trial": 150, "trialdata": {"rt": -1, "trial_type": "single-stim", "stimulus": "<p id=\"stim\">6</p>", "internal_node_id": "0.0-110.0-4.0", "time_elapsed": 1012581, "key_press": -1, "trial_index": 150}, "uniqueid": "MTK2164:3JMSRU9HQJ1J0V1MK2M82DCZUEYVE4", "dateTime": 1516820587103}, {"current_trial": 151, "trialdata": {"rt": -1, "trial_type": "single-stim", "stimulus": "<p id=\"stim\">5</p>", "internal_node_id": "0.0-110.0-5.0", "time_elapsed": 1013583, "key_press": -1, "trial_index": 151}, "uniqueid": "MTK2164:3JMSRU9HQJ1J0V1MK2M82DCZUEYVE4", "dateTime": 1516820588104}, {"current_trial": 152, "trialdata": {"rt": -1, "trial_type": "single-stim", "stimulus": "<p id=\"stim\">4</p>", "internal_node_id": "0.0-110.0-6.0", "time_elapsed": 1014584, "key_press": -1, "trial_index": 152}, "uniqueid": "MTK2164:3JMSRU9HQJ1J0V1MK2M82DCZUEYVE4", "dateTime": 1516820589106}, {"current_trial": 153, "trialdata": {"rt": -1, "trial_type": "single-stim", "stimulus": "<p id=\"stim\">3</p>", "internal_node_id": "0.0-110.0-7.0", "time_elapsed": 1015585, "key_press": -1, "trial_index": 153}, "uniqueid": "MTK2164:3JMSRU9HQJ1J0V1MK2M82DCZUEYVE4", "dateTime": 1516820590107}, {"current_trial": 154, "trialdata": {"rt": -1, "trial_type": "single-stim", "stimulus": "<p id=\"stim\">2</p>", "internal_node_id": "0.0-110.0-8.0", "time_elapsed": 1016587, "key_press": -1, "trial_index": 154}, "uniqueid": "MTK2164:3JMSRU9HQJ1J0V1MK2M82DCZUEYVE4", "dateTime": 1516820591108}, {"current_trial": 155, "trialdata": {"rt": -1, "trial_type": "single-stim", "stimulus": "<p id=\"stim\">1</p>", "internal_node_id": "0.0-110.0-9.0", "time_elapsed": 1017588, "key_press": -1, "trial_index": 155}, "uniqueid": "MTK2164:3JMSRU9HQJ1J0V1MK2M82DCZUEYVE4", "dateTime": 1516820592110}, {"current_trial": 156, "trialdata": {"rt": -1, "trial_type": "single-stim", "stimulus": "<p id=\"stim\">+</p>", "internal_node_id": "0.0-111.0-0.0", "time_elapsed": 1019091, "key_press": -1, "type": "FIXATION", "trial_index": 156}, "uniqueid": "MTK2164:3JMSRU9HQJ1J0V1MK2M82DCZUEYVE4", "dateTime": 1516820593612}, {"current_trial": 157, "trialdata": {"rt": -1000, "trial_type": "single-audio", "word": "crib", "stimulus": "/static/audio/wordpool/CRIB.wav", "conditions": [12, 1600, "a", 24000], "internal_node_id": "0.0-112.0", "trial": 4, "time_elapsed": 1021658, "serialpos": 0, "key_press": -1, "wordID": 406, "type": "PRES_AUD", "trial_index": 157}, "uniqueid": "MTK2164:3JMSRU9HQJ1J0V1MK2M82DCZUEYVE4", "dateTime": 1516820596179}, {"current_trial": 158, "trialdata": {"rt": -1000, "trial_type": "single-audio", "word": "infant", "stimulus": "/static/audio/wordpool/INFANT.wav", "conditions": [12, 1600, "a", 24000], "internal_node_id": "0.0-113.0", "trial": 4, "time_elapsed": 1024345, "serialpos": 1, "key_press": -1, "wordID": 736, "type": "PRES_AUD", "trial_index": 158}, "uniqueid": "MTK2164:3JMSRU9HQJ1J0V1MK2M82DCZUEYVE4", "dateTime": 1516820598871}, {"current_trial": 159, "trialdata": {"rt": -1000, "trial_type": "single-audio", "word": "chapel", "stimulus": "/static/audio/wordpool/CHAPEL.wav", "conditions": [12, 1600, "a", 24000], "internal_node_id": "0.0-114.0", "trial": 4, "time_elapsed": 1026933, "serialpos": 2, "key_press": -1, "wordID": 279, "type": "PRES_AUD", "trial_index": 159}, "uniqueid": "MTK2164:3JMSRU9HQJ1J0V1MK2M82DCZUEYVE4", "dateTime": 1516820601454}, {"current_trial": 160, "trialdata": {"rt": -1000, "trial_type": "single-audio", "word": "apple", "stimulus": "/static/audio/wordpool/APPLE.wav", "conditions": [12, 1600, "a", 24000], "internal_node_id": "0.0-115.0", "trial": 4, "time_elapsed": 1029466, "serialpos": 3, "key_press": -1, "wordID": 32, "type": "PRES_AUD", "trial_index": 160}, "uniqueid": "MTK2164:3JMSRU9HQJ1J0V1MK2M82DCZUEYVE4", "dateTime": 1516820603987}, {"current_trial": 161, "trialdata": {"rt": -1000, "trial_type": "single-audio", "word": "tablet", "stimulus": "/static/audio/wordpool/TABLET.wav", "conditions": [12, 1600, "a", 24000], "internal_node_id": "0.0-116.0", "trial": 4, "time_elapsed": 1032046, "serialpos": 4, "key_press": -1, "wordID": 1426, "type": "PRES_AUD", "trial_index": 161}, "uniqueid": "MTK2164:3JMSRU9HQJ1J0V1MK2M82DCZUEYVE4", "dateTime": 1516820606567}, {"current_trial": 162, "trialdata": {"rt": -1000, "trial_type": "single-audio", "word": "powder", "stimulus": "/static/audio/wordpool/POWDER.wav", "conditions": [12, 1600, "a", 24000], "internal_node_id": "0.0-117.0", "trial": 4, "time_elapsed": 1034643, "serialpos": 5, "key_press": -1, "wordID": 1116, "type": "PRES_AUD", "trial_index": 162}, "uniqueid": "MTK2164:3JMSRU9HQJ1J0V1MK2M82DCZUEYVE4", "dateTime": 1516820609164}, {"current_trial": 163, "trialdata": {"rt": -1000, "trial_type": "single-audio", "word": "tile", "stimulus": "/static/audio/wordpool/TILE.wav", "conditions": [12, 1600, "a", 24000], "internal_node_id": "0.0-118.0", "trial": 4, "time_elapsed": 1037082, "serialpos": 6, "key_press": -1, "wordID": 1467, "type": "PRES_AUD", "trial_index": 163}, "uniqueid": "MTK2164:3JMSRU9HQJ1J0V1MK2M82DCZUEYVE4", "dateTime": 1516820611603}, {"current_trial": 164, "trialdata": {"rt": -1000, "trial_type": "single-audio", "word": "goblin", "stimulus": "/static/audio/wordpool/GOBLIN.wav", "conditions": [12, 1600, "a", 24000], "internal_node_id": "0.0-119.0", "trial": 4, "time_elapsed": 1039646, "serialpos": 7, "key_press": -1, "wordID": 644, "type": "PRES_AUD", "trial_index": 164}, "uniqueid": "MTK2164:3JMSRU9HQJ1J0V1MK2M82DCZUEYVE4", "dateTime": 1516820614167}, {"current_trial": 165, "trialdata": {"rt": -1000, "trial_type": "single-audio", "word": "report", "stimulus": "/static/audio/wordpool/REPORT.wav", "conditions": [12, 1600, "a", 24000], "internal_node_id": "0.0-120.0", "trial": 4, "time_elapsed": 1042069, "serialpos": 8, "key_press": -1, "wordID": 1183, "type": "PRES_AUD", "trial_index": 165}, "uniqueid": "MTK2164:3JMSRU9HQJ1J0V1MK2M82DCZUEYVE4", "dateTime": 1516820616590}, {"current_trial": 166, "trialdata": {"rt": -1000, "trial_type": "single-audio", "word": "cook", "stimulus": "/static/audio/wordpool/COOK.wav", "conditions": [12, 1600, "a", 24000], "internal_node_id": "0.0-121.0", "trial": 4, "time_elapsed": 1044615, "serialpos": 9, "key_press": -1, "wordID": 371, "type": "PRES_AUD", "trial_index": 166}, "uniqueid": "MTK2164:3JMSRU9HQJ1J0V1MK2M82DCZUEYVE4", "dateTime": 1516820619136}, {"current_trial": 167, "trialdata": {"rt": -1000, "trial_type": "single-audio", "word": "brick", "stimulus": "/static/audio/wordpool/BRICK.wav", "conditions": [12, 1600, "a", 24000], "internal_node_id": "0.0-122.0", "trial": 4, "time_elapsed": 1047333, "serialpos": 10, "key_press": -1, "wordID": 171, "type": "PRES_AUD", "trial_index": 167}, "uniqueid": "MTK2164:3JMSRU9HQJ1J0V1MK2M82DCZUEYVE4", "dateTime": 1516820621854}, {"current_trial": 168, "trialdata": {"rt": -1000, "trial_type": "single-audio", "word": "popcorn", "stimulus": "/static/audio/wordpool/POPCORN.wav", "conditions": [12, 1600, "a", 24000], "internal_node_id": "0.0-123.0", "trial": 4, "time_elapsed": 1049837, "serialpos": 11, "key_press": -1, "wordID": 1103, "type": "PRES_AUD", "trial_index": 168}, "uniqueid": "MTK2164:3JMSRU9HQJ1J0V1MK2M82DCZUEYVE4", "dateTime": 1516820624358}, {"current_trial": 169, "trialdata": {"rt": -1, "trial_type": "single-stim", "stimulus": "", "internal_node_id": "0.0-124.0-0.0", "time_elapsed": 1051151, "key_press": -1, "type": "PRE_RECALL_DELAY", "trial_index": 169}, "uniqueid": "MTK2164:3JMSRU9HQJ1J0V1MK2M82DCZUEYVE4", "dateTime": 1516820625673}, {"current_trial": 170, "trialdata": {"rt": -1000, "trial_type": "single-audio", "stimulus": "/static/audio/400Hz.wav", "internal_node_id": "0.0-125.0", "time_elapsed": 1051653, "key_press": -1, "type": "PRE_RECALL_ALERT", "trial_index": 170}, "uniqueid": "MTK2164:3JMSRU9HQJ1J0V1MK2M82DCZUEYVE4", "dateTime": 1516820626174}, {"current_trial": 171, "trialdata": {"rt": [4811, 6501, 9782, 11609, 13661, 16512, 19073, 22844, 24724, 29166, 31119, 34865], "recwords": ["crib", "infant", "chapel", "apple", "tablet", "powder", "report", "tile", "cook", "brick", "popcorn", "greblim"], "key_times": [3364, 3631, 3866, 4571, 4811, 5470, 5576, 5749, 5978, 6142, 6320, 6501, 7475, 7642, 7801, 8042, 9430, 9525, 9782, 10835, 11038, 11188, 11279, 11513, 11609, 12332, 12396, 12535, 12909, 13313, 13481, 13661, 15203, 15316, 15615, 15981, 16088, 16312, 16512, 17576, 17832, 18007, 18136, 18832, 18972, 19073, 19339, 19445, 19676, 20229, 20508, 21063, 21101, 21143, 21180, 21219, 21260, 21298, 21739, 21879, 22096, 22275, 22844, 23738, 23894, 24059, 24181, 24724, 25415, 25564, 25713, 25875, 25977, 26636, 27191, 27229, 27271, 27309, 27347, 27389, 27426, 27465, 27891, 28031, 28323, 28489, 28637, 29166, 29683, 29794, 30024, 30398, 30552, 30674, 30809, 31119, 32144, 32426, 33691, 33852, 34134, 34358, 34454, 34865], "trial_type": "free-recall", "conditions": [12, 1600, "a", 24000], "internal_node_id": "0.0-126.0-0.0", "key_presses": [67, 82, 73, 66, 13, 73, 78, 70, 65, 78, 84, 13, 67, 72, 65, 80, 69, 76, 13, 65, 80, 80, 76, 69, 13, 84, 65, 66, 76, 69, 84, 13, 80, 79, 87, 68, 69, 82, 13, 82, 69, 80, 79, 82, 84, 13, 89, 73, 76, 69, 8, 8, 8, 8, 8, 8, 8, 8, 84, 73, 76, 69, 13, 67, 79, 79, 75, 13, 67, 82, 73, 67, 75, 8, 8, 8, 8, 8, 8, 8, 8, 8, 66, 82, 73, 67, 75, 13, 80, 79, 80, 67, 79, 82, 78, 13, 71, 82, 69, 66, 76, 73, 77, 13], "trial": 4, "time_elapsed": 1111922, "type": "FREE_RECALL", "trial_index": 171}, "uniqueid": "MTK2164:3JMSRU9HQJ1J0V1MK2M82DCZUEYVE4", "dateTime": 1516820686452}, {"current_trial": 172, "trialdata": {"rt": 74796, "trial_type": "text", "internal_node_id": "0.0-127.0", "time_elapsed": 1189717, "key_press": 32, "type": "INSTRUCTIONS", "trial_index": 172}, "uniqueid": "MTK2164:3JMSRU9HQJ1J0V1MK2M82DCZUEYVE4", "dateTime": 1516820764238}, {"current_trial": 173, "trialdata": {"rt": [3223, 6610, 10500], "trial_type": "math-distractor", "key_times": [2780, 3004, 3223, 6454, 6610, 9616, 9953, 10500], "responses": ["11", "9", "16"], "num2": [4, 2, 5, 9], "num3": [3, 3, 8, 8], "conditions": [12, 1600, "a", 12000], "internal_node_id": "0.0-128.0", "key_presses": [49, 49, 13, 57, 13, 49, 54, 13], "trial": 5, "time_elapsed": 1203722, "type": "DISTRACTOR", "trial_index": 173, "num1": [4, 4, 4, 3]}, "uniqueid": "MTK2164:3JMSRU9HQJ1J0V1MK2M82DCZUEYVE4", "dateTime": 1516820778243}, {"current_trial": 174, "trialdata": {"rt": -1, "trial_type": "single-stim", "stimulus": "<p id=\"stim\">10</p>", "internal_node_id": "0.0-129.0-0.0", "time_elapsed": 1206724, "key_press": -1, "trial_index": 174}, "uniqueid": "MTK2164:3JMSRU9HQJ1J0V1MK2M82DCZUEYVE4", "dateTime": 1516820781245}, {"current_trial": 175, "trialdata": {"rt": -1, "trial_type": "single-stim", "stimulus": "<p id=\"stim\">9</p>", "internal_node_id": "0.0-129.0-1.0", "time_elapsed": 1207725, "key_press": -1, "trial_index": 175}, "uniqueid": "MTK2164:3JMSRU9HQJ1J0V1MK2M82DCZUEYVE4", "dateTime": 1516820782246}, {"current_trial": 176, "trialdata": {"rt": -1, "trial_type": "single-stim", "stimulus": "<p id=\"stim\">8</p>", "internal_node_id": "0.0-129.0-2.0", "time_elapsed": 1208726, "key_press": -1, "trial_index": 176}, "uniqueid": "MTK2164:3JMSRU9HQJ1J0V1MK2M82DCZUEYVE4", "dateTime": 1516820783247}, {"current_trial": 177, "trialdata": {"rt": -1, "trial_type": "single-stim", "stimulus": "<p id=\"stim\">7</p>", "internal_node_id": "0.0-129.0-3.0", "time_elapsed": 1209727, "key_press": -1, "trial_index": 177}, "uniqueid": "MTK2164:3JMSRU9HQJ1J0V1MK2M82DCZUEYVE4", "dateTime": 1516820784248}, {"current_trial": 178, "trialdata": {"rt": -1, "trial_type": "single-stim", "stimulus": "<p id=\"stim\">6</p>", "internal_node_id": "0.0-129.0-4.0", "time_elapsed": 1210728, "key_press": -1, "trial_index": 178}, "uniqueid": "MTK2164:3JMSRU9HQJ1J0V1MK2M82DCZUEYVE4", "dateTime": 1516820785249}, {"current_trial": 179, "trialdata": {"rt": -1, "trial_type": "single-stim", "stimulus": "<p id=\"stim\">5</p>", "internal_node_id": "0.0-129.0-5.0", "time_elapsed": 1211729, "key_press": -1, "trial_index": 179}, "uniqueid": "MTK2164:3JMSRU9HQJ1J0V1MK2M82DCZUEYVE4", "dateTime": 1516820786250}, {"current_trial": 180, "trialdata": {"rt": -1, "trial_type": "single-stim", "stimulus": "<p id=\"stim\">4</p>", "internal_node_id": "0.0-129.0-6.0", "time_elapsed": 1212731, "key_press": -1, "trial_index": 180}, "uniqueid": "MTK2164:3JMSRU9HQJ1J0V1MK2M82DCZUEYVE4", "dateTime": 1516820787252}, {"current_trial": 181, "trialdata": {"rt": -1, "trial_type": "single-stim", "stimulus": "<p id=\"stim\">3</p>", "internal_node_id": "0.0-129.0-7.0", "time_elapsed": 1213733, "key_press": -1, "trial_index": 181}, "uniqueid": "MTK2164:3JMSRU9HQJ1J0V1MK2M82DCZUEYVE4", "dateTime": 1516820788254}, {"current_trial": 182, "trialdata": {"rt": -1, "trial_type": "single-stim", "stimulus": "<p id=\"stim\">2</p>", "internal_node_id": "0.0-129.0-8.0", "time_elapsed": 1214735, "key_press": -1, "trial_index": 182}, "uniqueid": "MTK2164:3JMSRU9HQJ1J0V1MK2M82DCZUEYVE4", "dateTime": 1516820789256}, {"current_trial": 183, "trialdata": {"rt": -1, "trial_type": "single-stim", "stimulus": "<p id=\"stim\">1</p>", "internal_node_id": "0.0-129.0-9.0", "time_elapsed": 1215736, "key_press": -1, "trial_index": 183}, "uniqueid": "MTK2164:3JMSRU9HQJ1J0V1MK2M82DCZUEYVE4", "dateTime": 1516820790258}, {"current_trial": 184, "trialdata": {"rt": -1, "trial_type": "single-stim", "stimulus": "<p id=\"stim\">+</p>", "internal_node_id": "0.0-130.0-0.0", "time_elapsed": 1217238, "key_press": -1, "type": "FIXATION", "trial_index": 184}, "uniqueid": "MTK2164:3JMSRU9HQJ1J0V1MK2M82DCZUEYVE4", "dateTime": 1516820791761}, {"current_trial": 185, "trialdata": {"rt": -1000, "trial_type": "single-audio", "word": "scotch", "stimulus": "/static/audio/wordpool/SCOTCH.wav", "conditions": [12, 1600, "a", 12000], "internal_node_id": "0.0-131.0", "trial": 5, "time_elapsed": 1219708, "serialpos": 0, "key_press": -1, "wordID": 1250, "type": "PRES_AUD", "trial_index": 185}, "uniqueid": "MTK2164:3JMSRU9HQJ1J0V1MK2M82DCZUEYVE4", "dateTime": 1516820794230}, {"current_trial": 186, "trialdata": {"rt": -1000, "trial_type": "single-audio", "word": "jury", "stimulus": "/static/audio/wordpool/JURY.wav", "conditions": [12, 1600, "a", 12000], "internal_node_id": "0.0-132.0", "trial": 5, "time_elapsed": 1222199, "serialpos": 1, "key_press": -1, "wordID": 765, "type": "PRES_AUD", "trial_index": 186}, "uniqueid": "MTK2164:3JMSRU9HQJ1J0V1MK2M82DCZUEYVE4", "dateTime": 1516820796720}, {"current_trial": 187, "trialdata": {"rt": -1000, "trial_type": "single-audio", "word": "sandwich", "stimulus": "/static/audio/wordpool/SANDWICH.wav", "conditions": [12, 1600, "a", 12000], "internal_node_id": "0.0-133.0", "trial": 5, "time_elapsed": 1224827, "serialpos": 2, "key_press": -1, "wordID": 1231, "type": "PRES_AUD", "trial_index": 187}, "uniqueid": "MTK2164:3JMSRU9HQJ1J0V1MK2M82DCZUEYVE4", "dateTime": 1516820799349}, {"current_trial": 188, "trialdata": {"rt": -1000, "trial_type": "single-audio", "word": "dolphin", "stimulus": "/static/audio/wordpool/DOLPHIN.wav", "conditions": [12, 1600, "a", 12000], "internal_node_id": "0.0-134.0", "trial": 5, "time_elapsed": 1227615, "serialpos": 3, "key_press": -1, "wordID": 482, "type": "PRES_AUD", "trial_index": 188}, "uniqueid": "MTK2164:3JMSRU9HQJ1J0V1MK2M82DCZUEYVE4", "dateTime": 1516820802136}, {"current_trial": 189, "trialdata": {"rt": -1000, "trial_type": "single-audio", "word": "turtle", "stimulus": "/static/audio/wordpool/TURTLE.wav", "conditions": [12, 1600, "a", 12000], "internal_node_id": "0.0-135.0", "trial": 5, "time_elapsed": 1230022, "serialpos": 4, "key_press": -1, "wordID": 1521, "type": "PRES_AUD", "trial_index": 189}, "uniqueid": "MTK2164:3JMSRU9HQJ1J0V1MK2M82DCZUEYVE4", "dateTime": 1516820804543}, {"current_trial": 190, "trialdata": {"rt": -1000, "trial_type": "single-audio", "word": "pliers", "stimulus": "/static/audio/wordpool/PLIERS.wav", "conditions": [12, 1600, "a", 12000], "internal_node_id": "0.0-136.0", "trial": 5, "time_elapsed": 1232800, "serialpos": 5, "key_press": -1, "wordID": 1088, "type": "PRES_AUD", "trial_index": 190}, "uniqueid": "MTK2164:3JMSRU9HQJ1J0V1MK2M82DCZUEYVE4", "dateTime": 1516820807321}, {"current_trial": 191, "trialdata": {"rt": -1000, "trial_type": "single-audio", "word": "shortcake", "stimulus": "/static/audio/wordpool/SHORTCAKE.wav", "conditions": [12, 1600, "a", 12000], "internal_node_id": "0.0-137.0", "trial": 5, "time_elapsed": 1235517, "serialpos": 6, "key_press": -1, "wordID": 1291, "type": "PRES_AUD", "trial_index": 191}, "uniqueid": "MTK2164:3JMSRU9HQJ1J0V1MK2M82DCZUEYVE4", "dateTime": 1516820810038}, {"current_trial": 192, "trialdata": {"rt": -1000, "trial_type": "single-audio", "word": "diner", "stimulus": "/static/audio/wordpool/DINER.wav", "conditions": [12, 1600, "a", 12000], "internal_node_id": "0.0-138.0", "trial": 5, "time_elapsed": 1238130, "serialpos": 7, "key_press": -1, "wordID": 466, "type": "PRES_AUD", "trial_index": 192}, "uniqueid": "MTK2164:3JMSRU9HQJ1J0V1MK2M82DCZUEYVE4", "dateTime": 1516820812652}, {"current_trial": 193, "trialdata": {"rt": -1000, "trial_type": "single-audio", "word": "lady", "stimulus": "/static/audio/wordpool/LADY.wav", "conditions": [12, 1600, "a", 12000], "internal_node_id": "0.0-139.0", "trial": 5, "time_elapsed": 1240585, "serialpos": 8, "key_press": -1, "wordID": 793, "type": "PRES_AUD", "trial_index": 193}, "uniqueid": "MTK2164:3JMSRU9HQJ1J0V1MK2M82DCZUEYVE4", "dateTime": 1516820815107}, {"current_trial": 194, "trialdata": {"rt": -1000, "trial_type": "single-audio", "word": "valve", "stimulus": "/static/audio/wordpool/VALVE.wav", "conditions": [12, 1600, "a", 12000], "internal_node_id": "0.0-140.0", "trial": 5, "time_elapsed": 1243072, "serialpos": 9, "key_press": -1, "wordID": 1545, "type": "PRES_AUD", "trial_index": 194}, "uniqueid": "MTK2164:3JMSRU9HQJ1J0V1MK2M82DCZUEYVE4", "dateTime": 1516820817593}, {"current_trial": 195, "trialdata": {"rt": -1000, "trial_type": "single-audio", "word": "marine", "stimulus": "/static/audio/wordpool/MARINE.wav", "conditions": [12, 1600, "a", 12000], "internal_node_id": "0.0-141.0", "trial": 5, "time_elapsed": 1245521, "serialpos": 10, "key_press": -1, "wordID": 868, "type": "PRES_AUD", "trial_index": 195}, "uniqueid": "MTK2164:3JMSRU9HQJ1J0V1MK2M82DCZUEYVE4", "dateTime": 1516820820042}, {"current_trial": 196, "trialdata": {"rt": -1000, "trial_type": "single-audio", "word": "snail", "stimulus": "/static/audio/wordpool/SNAIL.wav", "conditions": [12, 1600, "a", 12000], "internal_node_id": "0.0-142.0", "trial": 5, "time_elapsed": 1248287, "serialpos": 11, "key_press": -1, "wordID": 1331, "type": "PRES_AUD", "trial_index": 196}, "uniqueid": "MTK2164:3JMSRU9HQJ1J0V1MK2M82DCZUEYVE4", "dateTime": 1516820822808}, {"current_trial": 197, "trialdata": {"rt": -1, "trial_type": "single-stim", "stimulus": "", "internal_node_id": "0.0-143.0-0.0", "time_elapsed": 1249597, "key_press": -1, "type": "PRE_RECALL_DELAY", "trial_index": 197}, "uniqueid": "MTK2164:3JMSRU9HQJ1J0V1MK2M82DCZUEYVE4", "dateTime": 1516820824118}, {"current_trial": 198, "trialdata": {"rt": -1000, "trial_type": "single-audio", "stimulus": "/static/audio/400Hz.wav", "internal_node_id": "0.0-144.0", "time_elapsed": 1250099, "key_press": -1, "type": "PRE_RECALL_ALERT", "trial_index": 198}, "uniqueid": "MTK2164:3JMSRU9HQJ1J0V1MK2M82DCZUEYVE4", "dateTime": 1516820824620}, {"current_trial": 199, "trialdata": {"rt": [3072, 5096, 7367, 10280, 14185, 18368, 20495, 22431], "recwords": ["scotch", "jury", "sandwich", "turtle", "pliers", "shortcake", "marine", "snail"], "key_times": [1541, 1780, 1979, 2133, 2528, 2667, 3072, 4193, 4364, 4445, 4589, 5096, 5494, 5789, 6025, 6179, 6362, 6577, 6724, 6887, 7367, 8673, 8798, 8921, 9251, 9407, 9600, 10280, 11287, 11371, 11607, 12372, 13090, 13154, 13272, 13732, 14185, 15014, 15216, 15463, 15517, 15656, 16177, 16241, 16715, 16795, 18368, 18731, 18816, 19195, 19732, 19928, 20073, 20164, 20330, 20495, 20747, 20886, 21078, 21324, 21708, 22431], "trial_type": "free-recall", "conditions": [12, 1600, "a", 12000], "internal_node_id": "0.0-145.0-0.0", "key_presses": [83, 67, 79, 84, 67, 72, 13, 74, 85, 82, 89, 13, 83, 65, 78, 68, 87, 73, 67, 72, 13, 84, 85, 82, 84, 76, 69, 13, 80, 76, 73, 8, 73, 69, 82, 83, 13, 83, 72, 79, 82, 84, 67, 65, 75, 69, 13, 77, 65, 73, 8, 82, 73, 78, 69, 13, 83, 78, 65, 73, 76, 13], "trial": 5, "time_elapsed": 1310929, "type": "FREE_RECALL", "trial_index": 199}, "uniqueid": "MTK2164:3JMSRU9HQJ1J0V1MK2M82DCZUEYVE4", "dateTime": 1516820885454}, {"current_trial": 200, "trialdata": {"rt": 31894, "trial_type": "text", "internal_node_id": "0.0-146.0", "time_elapsed": 1345820, "key_press": 32, "type": "INSTRUCTIONS", "trial_index": 200}, "uniqueid": "MTK2164:3JMSRU9HQJ1J0V1MK2M82DCZUEYVE4", "dateTime": 1516820920341}, {"current_trial": 201, "trialdata": {"rt": [1817, 4354, 6601, 9801, 11590], "trial_type": "math-distractor", "key_times": [1464, 1650, 1817, 3677, 4209, 4354, 6093, 6467, 6601, 8805, 9629, 9801, 11234, 11436, 11590], "responses": ["13", "15", "15", "26", "12"], "num2": [6, 2, 8, 9, 3, 3], "num3": [4, 6, 1, 9, 8, 4], "conditions": [24, 1600, "a", 12000], "internal_node_id": "0.0-147.0", "key_presses": [49, 51, 13, 49, 53, 13, 49, 53, 13, 50, 54, 13, 49, 50, 13], "trial": 6, "time_elapsed": 1359823, "type": "DISTRACTOR", "trial_index": 201, "num1": [3, 7, 6, 8, 1, 2]}, "uniqueid": "MTK2164:3JMSRU9HQJ1J0V1MK2M82DCZUEYVE4", "dateTime": 1516820934344}, {"current_trial": 202, "trialdata": {"rt": -1, "trial_type": "single-stim", "stimulus": "<p id=\"stim\">10</p>", "internal_node_id": "0.0-148.0-0.0", "time_elapsed": 1362825, "key_press": -1, "trial_index": 202}, "uniqueid": "MTK2164:3JMSRU9HQJ1J0V1MK2M82DCZUEYVE4", "dateTime": 1516820937346}, {"current_trial": 203, "trialdata": {"rt": -1, "trial_type": "single-stim", "stimulus": "<p id=\"stim\">9</p>", "internal_node_id": "0.0-148.0-1.0", "time_elapsed": 1363826, "key_press": -1, "trial_index": 203}, "uniqueid": "MTK2164:3JMSRU9HQJ1J0V1MK2M82DCZUEYVE4", "dateTime": 1516820938347}, {"current_trial": 204, "trialdata": {"rt": -1, "trial_type": "single-stim", "stimulus": "<p id=\"stim\">8</p>", "internal_node_id": "0.0-148.0-2.0", "time_elapsed": 1364827, "key_press": -1, "trial_index": 204}, "uniqueid": "MTK2164:3JMSRU9HQJ1J0V1MK2M82DCZUEYVE4", "dateTime": 1516820939348}, {"current_trial": 205, "trialdata": {"rt": -1, "trial_type": "single-stim", "stimulus": "<p id=\"stim\">7</p>", "internal_node_id": "0.0-148.0-3.0", "time_elapsed": 1365828, "key_press": -1, "trial_index": 205}, "uniqueid": "MTK2164:3JMSRU9HQJ1J0V1MK2M82DCZUEYVE4", "dateTime": 1516820940349}, {"current_trial": 206, "trialdata": {"rt": -1, "trial_type": "single-stim", "stimulus": "<p id=\"stim\">6</p>", "internal_node_id": "0.0-148.0-4.0", "time_elapsed": 1366829, "key_press": -1, "trial_index": 206}, "uniqueid": "MTK2164:3JMSRU9HQJ1J0V1MK2M82DCZUEYVE4", "dateTime": 1516820941350}, {"current_trial": 207, "trialdata": {"rt": -1, "trial_type": "single-stim", "stimulus": "<p id=\"stim\">5</p>", "internal_node_id": "0.0-148.0-5.0", "time_elapsed": 1367830, "key_press": -1, "trial_index": 207}, "uniqueid": "MTK2164:3JMSRU9HQJ1J0V1MK2M82DCZUEYVE4", "dateTime": 1516820942351}, {"current_trial": 208, "trialdata": {"rt": -1, "trial_type": "single-stim", "stimulus": "<p id=\"stim\">4</p>", "internal_node_id": "0.0-148.0-6.0", "time_elapsed": 1368832, "key_press": -1, "trial_index": 208}, "uniqueid": "MTK2164:3JMSRU9HQJ1J0V1MK2M82DCZUEYVE4", "dateTime": 1516820943353}, {"current_trial": 209, "trialdata": {"rt": -1, "trial_type": "single-stim", "stimulus": "<p id=\"stim\">3</p>", "internal_node_id": "0.0-148.0-7.0", "time_elapsed": 1369833, "key_press": -1, "trial_index": 209}, "uniqueid": "MTK2164:3JMSRU9HQJ1J0V1MK2M82DCZUEYVE4", "dateTime": 1516820944354}, {"current_trial": 210, "trialdata": {"rt": -1, "trial_type": "single-stim", "stimulus": "<p id=\"stim\">2</p>", "internal_node_id": "0.0-148.0-8.0", "time_elapsed": 1370834, "key_press": -1, "trial_index": 210}, "uniqueid": "MTK2164:3JMSRU9HQJ1J0V1MK2M82DCZUEYVE4", "dateTime": 1516820945355}, {"current_trial": 211, "trialdata": {"rt": -1, "trial_type": "single-stim", "stimulus": "<p id=\"stim\">1</p>", "internal_node_id": "0.0-148.0-9.0", "time_elapsed": 1371839, "key_press": -1, "trial_index": 211}, "uniqueid": "MTK2164:3JMSRU9HQJ1J0V1MK2M82DCZUEYVE4", "dateTime": 1516820946360}, {"current_trial": 212, "trialdata": {"rt": -1, "trial_type": "single-stim", "stimulus": "<p id=\"stim\">+</p>", "internal_node_id": "0.0-149.0-0.0", "time_elapsed": 1373341, "key_press": -1, "type": "FIXATION", "trial_index": 212}, "uniqueid": "MTK2164:3JMSRU9HQJ1J0V1MK2M82DCZUEYVE4", "dateTime": 1516820947862}, {"current_trial": 213, "trialdata": {"rt": -1000, "trial_type": "single-audio", "word": "daughter", "stimulus": "/static/audio/wordpool/DAUGHTER.wav", "conditions": [24, 1600, "a", 12000], "internal_node_id": "0.0-150.0", "trial": 6, "time_elapsed": 1375756, "serialpos": 0, "key_press": -1, "wordID": 441, "type": "PRES_AUD", "trial_index": 213}, "uniqueid": "MTK2164:3JMSRU9HQJ1J0V1MK2M82DCZUEYVE4", "dateTime": 1516820950278}, {"current_trial": 214, "trialdata": {"rt": -1000, "trial_type": "single-audio", "word": "preacher", "stimulus": "/static/audio/wordpool/PREACHER.wav", "conditions": [24, 1600, "a", 12000], "internal_node_id": "0.0-151.0", "trial": 6, "time_elapsed": 1378520, "serialpos": 1, "key_press": -1, "wordID": 1118, "type": "PRES_AUD", "trial_index": 214}, "uniqueid": "MTK2164:3JMSRU9HQJ1J0V1MK2M82DCZUEYVE4", "dateTime": 1516820953041}, {"current_trial": 215, "trialdata": {"rt": -1000, "trial_type": "single-audio", "word": "journal", "stimulus": "/static/audio/wordpool/JOURNAL.wav", "conditions": [24, 1600, "a", 12000], "internal_node_id": "0.0-152.0", "trial": 6, "time_elapsed": 1381132, "serialpos": 2, "key_press": -1, "wordID": 759, "type": "PRES_AUD", "trial_index": 215}, "uniqueid": "MTK2164:3JMSRU9HQJ1J0V1MK2M82DCZUEYVE4", "dateTime": 1516820955653}, {"current_trial": 216, "trialdata": {"rt": -1000, "trial_type": "single-audio", "word": "ketchup", "stimulus": "/static/audio/wordpool/KETCHUP.wav", "conditions": [24, 1600, "a", 12000], "internal_node_id": "0.0-153.0", "trial": 6, "time_elapsed": 1383631, "serialpos": 3, "key_press": -1, "wordID": 770, "type": "PRES_AUD", "trial_index": 216}, "uniqueid": "MTK2164:3JMSRU9HQJ1J0V1MK2M82DCZUEYVE4", "dateTime": 1516820958152}, {"current_trial": 217, "trialdata": {"rt": -1000, "trial_type": "single-audio", "word": "cobra", "stimulus": "/static/audio/wordpool/COBRA.wav", "conditions": [24, 1600, "a", 12000], "internal_node_id": "0.0-154.0", "trial": 6, "time_elapsed": 1386092, "serialpos": 4, "key_press": -1, "wordID": 335, "type": "PRES_AUD", "trial_index": 217}, "uniqueid": "MTK2164:3JMSRU9HQJ1J0V1MK2M82DCZUEYVE4", "dateTime": 1516820960613}, {"current_trial": 218, "trialdata": {"rt": -1000, "trial_type": "single-audio", "word": "market", "stimulus": "/static/audio/wordpool/MARKET.wav", "conditions": [24, 1600, "a", 12000], "internal_node_id": "0.0-155.0", "trial": 6, "time_elapsed": 1388716, "serialpos": 5, "key_press": -1, "wordID": 870, "type": "PRES_AUD", "trial_index": 218}, "uniqueid": "MTK2164:3JMSRU9HQJ1J0V1MK2M82DCZUEYVE4", "dateTime": 1516820963237}, {"current_trial": 219, "trialdata": {"rt": -1000, "trial_type": "single-audio", "word": "onion", "stimulus": "/static/audio/wordpool/ONION.wav", "conditions": [24, 1600, "a", 12000], "internal_node_id": "0.0-156.0", "trial": 6, "time_elapsed": 1391469, "serialpos": 6, "key_press": -1, "wordID": 976, "type": "PRES_AUD", "trial_index": 219}, "uniqueid": "MTK2164:3JMSRU9HQJ1J0V1MK2M82DCZUEYVE4", "dateTime": 1516820965990}, {"current_trial": 220, "trialdata": {"rt": -1000, "trial_type": "single-audio", "word": "fiddle", "stimulus": "/static/audio/wordpool/FIDDLE.wav", "conditions": [24, 1600, "a", 12000], "internal_node_id": "0.0-157.0", "trial": 6, "time_elapsed": 1393919, "serialpos": 7, "key_press": -1, "wordID": 560, "type": "PRES_AUD", "trial_index": 220}, "uniqueid": "MTK2164:3JMSRU9HQJ1J0V1MK2M82DCZUEYVE4", "dateTime": 1516820968440}, {"current_trial": 221, "trialdata": {"rt": -1000, "trial_type": "single-audio", "word": "milk", "stimulus": "/static/audio/wordpool/MILK.wav", "conditions": [24, 1600, "a", 12000], "internal_node_id": "0.0-158.0", "trial": 6, "time_elapsed": 1396508, "serialpos": 8, "key_press": -1, "wordID": 894, "type": "PRES_AUD", "trial_index": 221}, "uniqueid": "MTK2164:3JMSRU9HQJ1J0V1MK2M82DCZUEYVE4", "dateTime": 1516820971029}, {"current_trial": 222, "trialdata": {"rt": -1000, "trial_type": "single-audio", "word": "honey", "stimulus": "/static/audio/wordpool/HONEY.wav", "conditions": [24, 1600, "a", 12000], "internal_node_id": "0.0-159.0", "trial": 6, "time_elapsed": 1399206, "serialpos": 9, "key_press": -1, "wordID": 712, "type": "PRES_AUD", "trial_index": 222}, "uniqueid": "MTK2164:3JMSRU9HQJ1J0V1MK2M82DCZUEYVE4", "dateTime": 1516820973728}, {"current_trial": 223, "trialdata": {"rt": -1000, "trial_type": "single-audio", "word": "label", "stimulus": "/static/audio/wordpool/LABEL.wav", "conditions": [24, 1600, "a", 12000], "internal_node_id": "0.0-160.0", "trial": 6, "time_elapsed": 1401712, "serialpos": 10, "key_press": -1, "wordID": 789, "type": "PRES_AUD", "trial_index": 223}, "uniqueid": "MTK2164:3JMSRU9HQJ1J0V1MK2M82DCZUEYVE4", "dateTime": 1516820976233}, {"current_trial": 224, "trialdata": {"rt": -1000, "trial_type": "single-audio", "word": "pepper", "stimulus": "/static/audio/wordpool/PEPPER.wav", "conditions": [24, 1600, "a", 12000], "internal_node_id": "0.0-161.0", "trial": 6, "time_elapsed": 1404239, "serialpos": 11, "key_press": -1, "wordID": 1046, "type": "PRES_AUD", "trial_index": 224}, "uniqueid": "MTK2164:3JMSRU9HQJ1J0V1MK2M82DCZUEYVE4", "dateTime": 1516820978760}, {"current_trial": 225, "trialdata": {"rt": -1000, "trial_type": "single-audio", "word": "match", "stimulus": "/static/audio/wordpool/MATCH.wav", "conditions": [24, 1600, "a", 12000], "internal_node_id": "0.0-162.0", "trial": 6, "time_elapsed": 1406770, "serialpos": 12, "key_press": -1, "wordID": 877, "type": "PRES_AUD", "trial_index": 225}, "uniqueid": "MTK2164:3JMSRU9HQJ1J0V1MK2M82DCZUEYVE4", "dateTime": 1516820981291}, {"current_trial": 226, "trialdata": {"rt": -1000, "trial_type": "single-audio", "word": "dragon", "stimulus": "/static/audio/wordpool/DRAGON.wav", "conditions": [24, 1600, "a", 12000], "internal_node_id": "0.0-163.0", "trial": 6, "time_elapsed": 1409408, "serialpos": 13, "key_press": -1, "wordID": 491, "type": "PRES_AUD", "trial_index": 226}, "uniqueid": "MTK2164:3JMSRU9HQJ1J0V1MK2M82DCZUEYVE4", "dateTime": 1516820983929}, {"current_trial": 227, "trialdata": {"rt": -1000, "trial_type": "single-audio", "word": "rocket", "stimulus": "/static/audio/wordpool/ROCKET.wav", "conditions": [24, 1600, "a", 12000], "internal_node_id": "0.0-164.0", "trial": 6, "time_elapsed": 1411928, "serialpos": 14, "key_press": -1, "wordID": 1201, "type": "PRES_AUD", "trial_index": 227}, "uniqueid": "MTK2164:3JMSRU9HQJ1J0V1MK2M82DCZUEYVE4", "dateTime": 1516820986449}, {"current_trial": 228, "trialdata": {"rt": -1000, "trial_type": "single-audio", "word": "glove", "stimulus": "/static/audio/wordpool/GLOVE.wav", "conditions": [24, 1600, "a", 12000], "internal_node_id": "0.0-165.0", "trial": 6, "time_elapsed": 1414509, "serialpos": 15, "key_press": -1, "wordID": 641, "type": "PRES_AUD", "trial_index": 228}, "uniqueid": "MTK2164:3JMSRU9HQJ1J0V1MK2M82DCZUEYVE4", "dateTime": 1516820989030}, {"current_trial": 229, "trialdata": {"rt": -1000, "trial_type": "single-audio", "word": "creature", "stimulus": "/static/audio/wordpool/CREATURE.wav", "conditions": [24, 1600, "a", 12000], "internal_node_id": "0.0-166.0", "trial": 6, "time_elapsed": 1416938, "serialpos": 16, "key_press": -1, "wordID": 402, "type": "PRES_AUD", "trial_index": 229}, "uniqueid": "MTK2164:3JMSRU9HQJ1J0V1MK2M82DCZUEYVE4", "dateTime": 1516820991460}, {"current_trial": 230, "trialdata": {"rt": -1000, "trial_type": "single-audio", "word": "suitcase", "stimulus": "/static/audio/wordpool/SUITCASE.wav", "conditions": [24, 1600, "a", 12000], "internal_node_id": "0.0-167.0", "trial": 6, "time_elapsed": 1419456, "serialpos": 17, "key_press": -1, "wordID": 1402, "type": "PRES_AUD", "trial_index": 230}, "uniqueid": "MTK2164:3JMSRU9HQJ1J0V1MK2M82DCZUEYVE4", "dateTime": 1516820993978}, {"current_trial": 231, "trialdata": {"rt": -1000, "trial_type": "single-audio", "word": "spider", "stimulus": "/static/audio/wordpool/SPIDER.wav", "conditions": [24, 1600, "a", 12000], "internal_node_id": "0.0-168.0", "trial": 6, "time_elapsed": 1421940, "serialpos": 18, "key_press": -1, "wordID": 1350, "type": "PRES_AUD", "trial_index": 231}, "uniqueid": "MTK2164:3JMSRU9HQJ1J0V1MK2M82DCZUEYVE4", "dateTime": 1516820996462}, {"current_trial": 232, "trialdata": {"rt": -1000, "trial_type": "single-audio", "word": "lizard", "stimulus": "/static/audio/wordpool/LIZARD.wav", "conditions": [24, 1600, "a", 12000], "internal_node_id": "0.0-169.0", "trial": 6, "time_elapsed": 1424365, "serialpos": 19, "key_press": -1, "wordID": 833, "type": "PRES_AUD", "trial_index": 232}, "uniqueid": "MTK2164:3JMSRU9HQJ1J0V1MK2M82DCZUEYVE4", "dateTime": 1516820998887}, {"current_trial": 233, "trialdata": {"rt": -1000, "trial_type": "single-audio", "word": "picnic", "stimulus": "/static/audio/wordpool/PICNIC.wav", "conditions": [24, 1600, "a", 12000], "internal_node_id": "0.0-170.0", "trial": 6, "time_elapsed": 1426850, "serialpos": 20, "key_press": -1, "wordID": 1059, "type": "PRES_AUD", "trial_index": 233}, "uniqueid": "MTK2164:3JMSRU9HQJ1J0V1MK2M82DCZUEYVE4", "dateTime": 1516821001371}, {"current_trial": 234, "trialdata": {"rt": -1000, "trial_type": "single-audio", "word": "relish", "stimulus": "/static/audio/wordpool/RELISH.wav", "conditions": [24, 1600, "a", 12000], "internal_node_id": "0.0-171.0", "trial": 6, "time_elapsed": 1429469, "serialpos": 21, "key_press": -1, "wordID": 1182, "type": "PRES_AUD", "trial_index": 234}, "uniqueid": "MTK2164:3JMSRU9HQJ1J0V1MK2M82DCZUEYVE4", "dateTime": 1516821003990}, {"current_trial": 235, "trialdata": {"rt": -1000, "trial_type": "single-audio", "word": "pork", "stimulus": "/static/audio/wordpool/PORK.wav", "conditions": [24, 1600, "a", 12000], "internal_node_id": "0.0-172.0", "trial": 6, "time_elapsed": 1432014, "serialpos": 22, "key_press": -1, "wordID": 1107, "type": "PRES_AUD", "trial_index": 235}, "uniqueid": "MTK2164:3JMSRU9HQJ1J0V1MK2M82DCZUEYVE4", "dateTime": 1516821006535}, {"current_trial": 236, "trialdata": {"rt": -1000, "trial_type": "single-audio", "word": "child", "stimulus": "/static/audio/wordpool/CHILD.wav", "conditions": [24, 1600, "a", 12000], "internal_node_id": "0.0-173.0", "trial": 6, "time_elapsed": 1434618, "serialpos": 23, "key_press": -1, "wordID": 298, "type": "PRES_AUD", "trial_index": 236}, "uniqueid": "MTK2164:3JMSRU9HQJ1J0V1MK2M82DCZUEYVE4", "dateTime": 1516821009140}, {"current_trial": 237, "trialdata": {"rt": -1, "trial_type": "single-stim", "stimulus": "", "internal_node_id": "0.0-174.0-0.0", "time_elapsed": 1435859, "key_press": -1, "type": "PRE_RECALL_DELAY", "trial_index": 237}, "uniqueid": "MTK2164:3JMSRU9HQJ1J0V1MK2M82DCZUEYVE4", "dateTime": 1516821010380}, {"current_trial": 238, "trialdata": {"rt": -1000, "trial_type": "single-audio", "stimulus": "/static/audio/400Hz.wav", "internal_node_id": "0.0-175.0", "time_elapsed": 1436360, "key_press": -1, "type": "PRE_RECALL_ALERT", "trial_index": 238}, "uniqueid": "MTK2164:3JMSRU9HQJ1J0V1MK2M82DCZUEYVE4", "dateTime": 1516821010881}, {"current_trial": 239, "trialdata": {"rt": [6276, 11118, 14965, 16687, 20011, 22050, 24706, 27202, 30240, 35619, 42135, 43847, 45460, 54515], "recwords": ["preacher", "jou