{"assignmentId": "320DUZ38G8T8TEXJ98YDZSMHFKZGJ7", "workerId": "MTK2936", "questiondata": {"origin": "United States", "strat-rehearsal": "89", "marital": "Married/Domestic Partnership", "education": "High school diploma", "ethnicity": "Not Hispanic", "color_depth": 24, "distracted": "No", "wrote-notes": "Yes", "strat-other": "Repeating words in my mind for a short time after they ended", "screen_width": 1920, "avail_screen_width": 1920, "avail_screen_height": 1040, "strat-image": "1", "language": "English", "gender": "Male", "age": "47", "gender_other": "", "race": ["White"], "strat-categorize": "88", "pixel_depth": 24, "strat-spatial": "0", "strat-story": "0", "race_other": "", "screen_height": 1080}, "bonus": 0, "hitId": "3ZICQFRS31PWXQZYRKKMJ9UTOWSZZ2", "counterbalance": 587, "useragent": "Mozilla/5.0 (Windows NT 10.0; Win64; x64) AppleWebKit/537.36 (KHTML, like Gecko) Chrome/63.0.3239.132 Safari/537.36", "eventdata": [{"eventtype": "initialized", "interval": 0, "value": null, "timestamp": 1519593463521}, {"eventtype": "window_resize", "interval": 0, "value": [1920, 989], "timestamp": 1519593463521}, {"eventtype": "focus", "interval": 7979, "value": "off", "timestamp": 1519593471500}, {"eventtype": "focus", "interval": 13320, "value": "on", "timestamp": 1519593484820}, {"eventtype": "window_resize", "interval": 6598, "value": [1920, 1033], "timestamp": 1519593491418}, {"eventtype": "window_resize", "interval": 1232, "value": [1920, 989], "timestamp": 1519593492650}, {"eventtype": "focus", "interval": 13481, "value": "off", "timestamp": 1519593506131}, {"eventtype": "focus", "interval": 23541, "value": "on", "timestamp": 1519593529672}, {"eventtype": "focus", "interval": 784171, "value": "off", "timestamp": 1519594313843}, {"eventtype": "focus", "interval": 2512, "value": "on", "timestamp": 1519594316355}, {"eventtype": "focus", "interval": 535204, "value": "off", "timestamp": 1519594851559}, {"eventtype": "focus", "interval": 1775, "value": "on", "timestamp": 1519594853334}, {"eventtype": "focus", "interval": 807574, "value": "off", "timestamp": 1519595660908}, {"eventtype": "focus", "interval": 2903, "value": "on", "timestamp": 1519595663811}, {"eventtype": "focus", "interval": 110943, "value": "off", "timestamp": 1519595774754}, {"eventtype": "focus", "interval": 1433, "value": "on", "timestamp": 1519595776187}, {"eventtype": "focus", "interval": 159730, "value": "off", "timestamp": 1519595935917}, {"eventtype": "focus", "interval": 5656, "value": "on", "timestamp": 1519595941573}], "data": [{"current_trial": 0, "trialdata": {"rt": 3978, "trial_type": "text", "internal_node_id": "0.0-0.0", "time_elapsed": 3980, "key_press": 32, "type": "INSTRUCTIONS", "trial_index": 0}, "uniqueid": "MTK2936:320DUZ38G8T8TEXJ98YDZSMHFKZGJ7", "dateTime": 1519593531694}, {"current_trial": 1, "trialdata": {"rt": 15924, "trial_type": "text", "internal_node_id": "0.0-1.0", "time_elapsed": 19905, "key_press": 32, "type": "INSTRUCTIONS", "trial_index": 1}, "uniqueid": "MTK2936:320DUZ38G8T8TEXJ98YDZSMHFKZGJ7", "dateTime": 1519593547619}, {"current_trial": 2, "trialdata": {"rt": [7584], "trial_type": "audio-test", "responses": ["ocean"], "internal_node_id": "0.0-2.0", "time_elapsed": 27505, "type": "AUDIO_TEST", "trial_index": 2}, "uniqueid": "MTK2936:320DUZ38G8T8TEXJ98YDZSMHFKZGJ7", "dateTime": 1519593555219}, {"current_trial": 3, "trialdata": {"rt": [8765], "trial_type": "audio-test", "responses": ["crystal"], "internal_node_id": "0.0-3.0", "time_elapsed": 36272, "type": "AUDIO_TEST", "trial_index": 3}, "uniqueid": "MTK2936:320DUZ38G8T8TEXJ98YDZSMHFKZGJ7", "dateTime": 1519593563986}, {"current_trial": 4, "trialdata": {"rt": [6904], "trial_type": "audio-test", "responses": ["spice"], "internal_node_id": "0.0-4.0", "time_elapsed": 43179, "type": "AUDIO_TEST", "trial_index": 4}, "uniqueid": "MTK2936:320DUZ38G8T8TEXJ98YDZSMHFKZGJ7", "dateTime": 1519593570893}, {"current_trial": 5, "trialdata": {"rt": 15180, "trial_type": "survey-text", "responses": "{\"Q0\":\"11:00\",\"Q1\":\"7:15\",\"Q2\":\"4\"}", "internal_node_id": "0.0-5.0", "time_elapsed": 59113, "type": "SLEEP_SURVEY", "trial_index": 5}, "uniqueid": "MTK2936:320DUZ38G8T8TEXJ98YDZSMHFKZGJ7", "dateTime": 1519593586827}, {"current_trial": 6, "trialdata": {"rt": 28169, "trial_type": "text", "internal_node_id": "0.0-6.0", "time_elapsed": 88283, "key_press": 32, "type": "INSTRUCTIONS", "trial_index": 6}, "uniqueid": "MTK2936:320DUZ38G8T8TEXJ98YDZSMHFKZGJ7", "dateTime": 1519593615997}, {"current_trial": 7, "trialdata": {"rt": 13201, "trial_type": "text", "internal_node_id": "0.0-7.0", "time_elapsed": 101987, "key_press": 32, "type": "INSTRUCTIONS", "trial_index": 7}, "uniqueid": "MTK2936:320DUZ38G8T8TEXJ98YDZSMHFKZGJ7", "dateTime": 1519593629701}, {"current_trial": 8, "trialdata": {"rt": 7193, "trial_type": "text", "internal_node_id": "0.0-8.0", "time_elapsed": 109682, "key_press": 32, "type": "INSTRUCTIONS", "trial_index": 8}, "uniqueid": "MTK2936:320DUZ38G8T8TEXJ98YDZSMHFKZGJ7", "dateTime": 1519593637397}, {"current_trial": 9, "trialdata": {"rt": [4232, 6824, 8416, 10552, 12424, 16424], "trial_type": "math-distractor", "key_times": [3385, 3583, 4232, 6448, 6824, 8055, 8416, 10129, 10280, 10552, 11919, 12104, 12424, 15993, 16160, 16424, 17921], "responses": ["21", "9", "9", "11", "16", "16"], "num2": [9, 3, 4, 5, 5, 4, 3], "num3": [5, 2, 1, 2, 6, 5, 9], "conditions": [18, 1200, "a", 18000], "internal_node_id": "0.0-9.0", "key_presses": [98, 97, 13, 105, 13, 105, 13, 97, 97, 13, 97, 102, 13, 97, 102, 13, 97], "trial": 0, "time_elapsed": 128691, "type": "DISTRACTOR", "trial_index": 9, "num1": [7, 4, 4, 4, 5, 7, 6]}, "uniqueid": "MTK2936:320DUZ38G8T8TEXJ98YDZSMHFKZGJ7", "dateTime": 1519593656405}, {"current_trial": 10, "trialdata": {"rt": -1, "trial_type": "single-stim", "stimulus": "<p id=\"stim\">10</p>", "internal_node_id": "0.0-10.0-0.0", "time_elapsed": 131696, "key_press": -1, "trial_index": 10}, "uniqueid": "MTK2936:320DUZ38G8T8TEXJ98YDZSMHFKZGJ7", "dateTime": 1519593659410}, {"current_trial": 11, "trialdata": {"rt": -1, "trial_type": "single-stim", "stimulus": "<p id=\"stim\">9</p>", "internal_node_id": "0.0-10.0-1.0", "time_elapsed": 132698, "key_press": -1, "trial_index": 11}, "uniqueid": "MTK2936:320DUZ38G8T8TEXJ98YDZSMHFKZGJ7", "dateTime": 1519593660412}, {"current_trial": 12, "trialdata": {"rt": -1, "trial_type": "single-stim", "stimulus": "<p id=\"stim\">8</p>", "internal_node_id": "0.0-10.0-2.0", "time_elapsed": 133701, "key_press": -1, "trial_index": 12}, "uniqueid": "MTK2936:320DUZ38G8T8TEXJ98YDZSMHFKZGJ7", "dateTime": 1519593661415}, {"current_trial": 13, "trialdata": {"rt": -1, "trial_type": "single-stim", "stimulus": "<p id=\"stim\">7</p>", "internal_node_id": "0.0-10.0-3.0", "time_elapsed": 134704, "key_press": -1, "trial_index": 13}, "uniqueid": "MTK2936:320DUZ38G8T8TEXJ98YDZSMHFKZGJ7", "dateTime": 1519593662418}, {"current_trial": 14, "trialdata": {"rt": -1, "trial_type": "single-stim", "stimulus": "<p id=\"stim\">6</p>", "internal_node_id": "0.0-10.0-4.0", "time_elapsed": 135706, "key_press": -1, "trial_index": 14}, "uniqueid": "MTK2936:320DUZ38G8T8TEXJ98YDZSMHFKZGJ7", "dateTime": 1519593663420}, {"current_trial": 15, "trialdata": {"rt": -1, "trial_type": "single-stim", "stimulus": "<p id=\"stim\">5</p>", "internal_node_id": "0.0-10.0-5.0", "time_elapsed": 136709, "key_press": -1, "trial_index": 15}, "uniqueid": "MTK2936:320DUZ38G8T8TEXJ98YDZSMHFKZGJ7", "dateTime": 1519593664423}, {"current_trial": 16, "trialdata": {"rt": -1, "trial_type": "single-stim", "stimulus": "<p id=\"stim\">4</p>", "internal_node_id": "0.0-10.0-6.0", "time_elapsed": 137711, "key_press": -1, "trial_index": 16}, "uniqueid": "MTK2936:320DUZ38G8T8TEXJ98YDZSMHFKZGJ7", "dateTime": 1519593665426}, {"current_trial": 17, "trialdata": {"rt": -1, "trial_type": "single-stim", "stimulus": "<p id=\"stim\">3</p>", "internal_node_id": "0.0-10.0-7.0", "time_elapsed": 138713, "key_press": -1, "trial_index": 17}, "uniqueid": "MTK2936:320DUZ38G8T8TEXJ98YDZSMHFKZGJ7", "dateTime": 1519593666427}, {"current_trial": 18, "trialdata": {"rt": -1, "trial_type": "single-stim", "stimulus": "<p id=\"stim\">2</p>", "internal_node_id": "0.0-10.0-8.0", "time_elapsed": 139716, "key_press": -1, "trial_index": 18}, "uniqueid": "MTK2936:320DUZ38G8T8TEXJ98YDZSMHFKZGJ7", "dateTime": 1519593667430}, {"current_trial": 19, "trialdata": {"rt": -1, "trial_type": "single-stim", "stimulus": "<p id=\"stim\">1</p>", "internal_node_id": "0.0-10.0-9.0", "time_elapsed": 140719, "key_press": -1, "trial_index": 19}, "uniqueid": "MTK2936:320DUZ38G8T8TEXJ98YDZSMHFKZGJ7", "dateTime": 1519593668433}, {"current_trial": 20, "trialdata": {"rt": -1, "trial_type": "single-stim", "stimulus": "<p id=\"stim\">+</p>", "internal_node_id": "0.0-11.0-0.0", "time_elapsed": 142222, "key_press": -1, "type": "FIXATION", "trial_index": 20}, "uniqueid": "MTK2936:320DUZ38G8T8TEXJ98YDZSMHFKZGJ7", "dateTime": 1519593669936}, {"current_trial": 21, "trialdata": {"rt": -1000, "trial_type": "single-audio", "word": "picture", "stimulus": "/static/audio/wordpool/PICTURE.wav", "conditions": [18, 1200, "a", 18000], "internal_node_id": "0.0-12.0", "trial": 0, "time_elapsed": 144630, "serialpos": 0, "key_press": -1, "wordID": 1060, "type": "PRES_AUD", "trial_index": 21}, "uniqueid": "MTK2936:320DUZ38G8T8TEXJ98YDZSMHFKZGJ7", "dateTime": 1519593672345}, {"current_trial": 22, "trialdata": {"rt": -1000, "trial_type": "single-audio", "word": "cashew", "stimulus": "/static/audio/wordpool/CASHEW.wav", "conditions": [18, 1200, "a", 18000], "internal_node_id": "0.0-13.0", "trial": 0, "time_elapsed": 146685, "serialpos": 1, "key_press": -1, "wordID": 252, "type": "PRES_AUD", "trial_index": 22}, "uniqueid": "MTK2936:320DUZ38G8T8TEXJ98YDZSMHFKZGJ7", "dateTime": 1519593674399}, {"current_trial": 23, "trialdata": {"rt": -1000, "trial_type": "single-audio", "word": "lover", "stimulus": "/static/audio/wordpool/LOVER.wav", "conditions": [18, 1200, "a", 18000], "internal_node_id": "0.0-14.0", "trial": 0, "time_elapsed": 148837, "serialpos": 2, "key_press": -1, "wordID": 845, "type": "PRES_AUD", "trial_index": 23}, "uniqueid": "MTK2936:320DUZ38G8T8TEXJ98YDZSMHFKZGJ7", "dateTime": 1519593676551}, {"current_trial": 24, "trialdata": {"rt": -1000, "trial_type": "single-audio", "word": "jelly", "stimulus": "/static/audio/wordpool/JELLY.wav", "conditions": [18, 1200, "a", 18000], "internal_node_id": "0.0-15.0", "trial": 0, "time_elapsed": 151031, "serialpos": 3, "key_press": -1, "wordID": 754, "type": "PRES_AUD", "trial_index": 24}, "uniqueid": "MTK2936:320DUZ38G8T8TEXJ98YDZSMHFKZGJ7", "dateTime": 1519593678745}, {"current_trial": 25, "trialdata": {"rt": -1000, "trial_type": "single-audio", "word": "trout", "stimulus": "/static/audio/wordpool/TROUT.wav", "conditions": [18, 1200, "a", 18000], "internal_node_id": "0.0-16.0", "trial": 0, "time_elapsed": 153122, "serialpos": 4, "key_press": -1, "wordID": 1510, "type": "PRES_AUD", "trial_index": 25}, "uniqueid": "MTK2936:320DUZ38G8T8TEXJ98YDZSMHFKZGJ7", "dateTime": 1519593680836}, {"current_trial": 26, "trialdata": {"rt": -1000, "trial_type": "single-audio", "word": "empire", "stimulus": "/static/audio/wordpool/EMPIRE.wav", "conditions": [18, 1200, "a", 18000], "internal_node_id": "0.0-17.0", "trial": 0, "time_elapsed": 155458, "serialpos": 5, "key_press": -1, "wordID": 529, "type": "PRES_AUD", "trial_index": 26}, "uniqueid": "MTK2936:320DUZ38G8T8TEXJ98YDZSMHFKZGJ7", "dateTime": 1519593683172}, {"current_trial": 27, "trialdata": {"rt": -1000, "trial_type": "single-audio", "word": "body", "stimulus": "/static/audio/wordpool/BODY.wav", "conditions": [18, 1200, "a", 18000], "internal_node_id": "0.0-18.0", "trial": 0, "time_elapsed": 157585, "serialpos": 6, "key_press": -1, "wordID": 144, "type": "PRES_AUD", "trial_index": 27}, "uniqueid": "MTK2936:320DUZ38G8T8TEXJ98YDZSMHFKZGJ7", "dateTime": 1519593685299}, {"current_trial": 28, "trialdata": {"rt": -1000, "trial_type": "single-audio", "word": "bison", "stimulus": "/static/audio/wordpool/BISON.wav", "conditions": [18, 1200, "a", 18000], "internal_node_id": "0.0-19.0", "trial": 0, "time_elapsed": 159644, "serialpos": 7, "key_press": -1, "wordID": 130, "type": "PRES_AUD", "trial_index": 28}, "uniqueid": "MTK2936:320DUZ38G8T8TEXJ98YDZSMHFKZGJ7", "dateTime": 1519593687358}, {"current_trial": 29, "trialdata": {"rt": -1000, "trial_type": "single-audio", "word": "thief", "stimulus": "/static/audio/wordpool/THIEF.wav", "conditions": [18, 1200, "a", 18000], "internal_node_id": "0.0-20.0", "trial": 0, "time_elapsed": 161719, "serialpos": 8, "key_press": -1, "wordID": 1455, "type": "PRES_AUD", "trial_index": 29}, "uniqueid": "MTK2936:320DUZ38G8T8TEXJ98YDZSMHFKZGJ7", "dateTime": 1519593689433}, {"current_trial": 30, "trialdata": {"rt": -1000, "trial_type": "single-audio", "word": "zebra", "stimulus": "/static/audio/wordpool/ZEBRA.wav", "conditions": [18, 1200, "a", 18000], "internal_node_id": "0.0-21.0", "trial": 0, "time_elapsed": 164029, "serialpos": 9, "key_press": -1, "wordID": 1634, "type": "PRES_AUD", "trial_index": 30}, "uniqueid": "MTK2936:320DUZ38G8T8TEXJ98YDZSMHFKZGJ7", "dateTime": 1519593691743}, {"current_trial": 31, "trialdata": {"rt": -1000, "trial_type": "single-audio", "word": "cowboy", "stimulus": "/static/audio/wordpool/COWBOY.wav", "conditions": [18, 1200, "a", 18000], "internal_node_id": "0.0-22.0", "trial": 0, "time_elapsed": 166202, "serialpos": 10, "key_press": -1, "wordID": 394, "type": "PRES_AUD", "trial_index": 31}, "uniqueid": "MTK2936:320DUZ38G8T8TEXJ98YDZSMHFKZGJ7", "dateTime": 1519593693916}, {"current_trial": 32, "trialdata": {"rt": -1000, "trial_type": "single-audio", "word": "poison", "stimulus": "/static/audio/wordpool/POISON.wav", "conditions": [18, 1200, "a", 18000], "internal_node_id": "0.0-23.0", "trial": 0, "time_elapsed": 168230, "serialpos": 11, "key_press": -1, "wordID": 1095, "type": "PRES_AUD", "trial_index": 32}, "uniqueid": "MTK2936:320DUZ38G8T8TEXJ98YDZSMHFKZGJ7", "dateTime": 1519593695944}, {"current_trial": 33, "trialdata": {"rt": -1000, "trial_type": "single-audio", "word": "flesh", "stimulus": "/static/audio/wordpool/FLESH.wav", "conditions": [18, 1200, "a", 18000], "internal_node_id": "0.0-24.0", "trial": 0, "time_elapsed": 170331, "serialpos": 12, "key_press": -1, "wordID": 578, "type": "PRES_AUD", "trial_index": 33}, "uniqueid": "MTK2936:320DUZ38G8T8TEXJ98YDZSMHFKZGJ7", "dateTime": 1519593698045}, {"current_trial": 34, "trialdata": {"rt": -1000, "trial_type": "single-audio", "word": "island", "stimulus": "/static/audio/wordpool/ISLAND.wav", "conditions": [18, 1200, "a", 18000], "internal_node_id": "0.0-25.0", "trial": 0, "time_elapsed": 172686, "serialpos": 13, "key_press": -1, "wordID": 744, "type": "PRES_AUD", "trial_index": 34}, "uniqueid": "MTK2936:320DUZ38G8T8TEXJ98YDZSMHFKZGJ7", "dateTime": 1519593700400}, {"current_trial": 35, "trialdata": {"rt": -1000, "trial_type": "single-audio", "word": "market", "stimulus": "/static/audio/wordpool/MARKET.wav", "conditions": [18, 1200, "a", 18000], "internal_node_id": "0.0-26.0", "trial": 0, "time_elapsed": 174815, "serialpos": 14, "key_press": -1, "wordID": 870, "type": "PRES_AUD", "trial_index": 35}, "uniqueid": "MTK2936:320DUZ38G8T8TEXJ98YDZSMHFKZGJ7", "dateTime": 1519593702529}, {"current_trial": 36, "trialdata": {"rt": -1000, "trial_type": "single-audio", "word": "scarecrow", "stimulus": "/static/audio/wordpool/SCARECROW.wav", "conditions": [18, 1200, "a", 18000], "internal_node_id": "0.0-27.0", "trial": 0, "time_elapsed": 177153, "serialpos": 15, "key_press": -1, "wordID": 1244, "type": "PRES_AUD", "trial_index": 36}, "uniqueid": "MTK2936:320DUZ38G8T8TEXJ98YDZSMHFKZGJ7", "dateTime": 1519593704867}, {"current_trial": 37, "trialdata": {"rt": -1000, "trial_type": "single-audio", "word": "world", "stimulus": "/static/audio/wordpool/WORLD.wav", "conditions": [18, 1200, "a", 18000], "internal_node_id": "0.0-28.0", "trial": 0, "time_elapsed": 179384, "serialpos": 16, "key_press": -1, "wordID": 1621, "type": "PRES_AUD", "trial_index": 37}, "uniqueid": "MTK2936:320DUZ38G8T8TEXJ98YDZSMHFKZGJ7", "dateTime": 1519593707098}, {"current_trial": 38, "trialdata": {"rt": -1000, "trial_type": "single-audio", "word": "convict", "stimulus": "/static/audio/wordpool/CONVICT.wav", "conditions": [18, 1200, "a", 18000], "internal_node_id": "0.0-29.0", "trial": 0, "time_elapsed": 181616, "serialpos": 17, "key_press": -1, "wordID": 370, "type": "PRES_AUD", "trial_index": 38}, "uniqueid": "MTK2936:320DUZ38G8T8TEXJ98YDZSMHFKZGJ7", "dateTime": 1519593709331}, {"current_trial": 39, "trialdata": {"rt": -1, "trial_type": "single-stim", "stimulus": "", "internal_node_id": "0.0-30.0-0.0", "time_elapsed": 182967, "key_press": -1, "type": "PRE_RECALL_DELAY", "trial_index": 39}, "uniqueid": "MTK2936:320DUZ38G8T8TEXJ98YDZSMHFKZGJ7", "dateTime": 1519593710681}, {"current_trial": 40, "trialdata": {"rt": -1000, "trial_type": "single-audio", "stimulus": "/static/audio/400Hz.wav", "internal_node_id": "0.0-31.0", "time_elapsed": 183471, "key_press": -1, "type": "PRE_RECALL_ALERT", "trial_index": 40}, "uniqueid": "MTK2936:320DUZ38G8T8TEXJ98YDZSMHFKZGJ7", "dateTime": 1519593711186}, {"current_trial": 41, "trialdata": {"rt": [5657, 11984, 16944, 19769, 22696, 29089, 34593, 41113, 42968, 49449], "recwords": ["cashew", "empire", "flesh", "market", "world", "convic", "poison", "bison", "body", "scarecrow"], "key_times": [2655, 2839, 3032, 3095, 3687, 3871, 5657, 8544, 8720, 9193, 9704, 9896, 10055, 11984, 13489, 13687, 14167, 14585, 14711, 14952, 15023, 15655, 15832, 16407, 16687, 16944, 18896, 19007, 19151, 19351, 19496, 19616, 19769, 21624, 21784, 21944, 22087, 22263, 22696, 24215, 24591, 24848, 25040, 25240, 26744, 28432, 28584, 29089, 33064, 33320, 33568, 33839, 33952, 34151, 34593, 40008, 40240, 40431, 40592, 40743, 41113, 41929, 42200, 42506, 42728, 42968, 44937, 45168, 46160, 46463, 46712, 47519, 47824, 48255, 48432, 49449], "trial_type": "free-recall", "conditions": [18, 1200, "a", 18000], "internal_node_id": "0.0-32.0-0.0", "key_presses": [67, 65, 83, 72, 69, 87, 13, 69, 77, 80, 73, 82, 69, 13, 70, 76, 65, 8, 69, 65, 83, 8, 8, 83, 72, 13, 77, 65, 82, 75, 69, 84, 13, 87, 79, 82, 76, 68, 13, 67, 79, 78, 86, 69, 8, 73, 67, 13, 80, 79, 73, 83, 79, 78, 13, 66, 73, 83, 79, 78, 13, 66, 79, 68, 89, 32, 83, 67, 65, 82, 69, 67, 82, 79, 87, 13], "trial": 0, "time_elapsed": 243476, "type": "FREE_RECALL", "trial_index": 41}, "uniqueid": "MTK2936:320DUZ38G8T8TEXJ98YDZSMHFKZGJ7", "dateTime": 1519593771194}, {"current_trial": 42, "trialdata": {"rt": 1385, "trial_type": "text", "internal_node_id": "0.0-33.0", "time_elapsed": 246866, "key_press": 32, "type": "INSTRUCTIONS", "trial_index": 42}, "uniqueid": "MTK2936:320DUZ38G8T8TEXJ98YDZSMHFKZGJ7", "dateTime": 1519593774580}, {"current_trial": 43, "trialdata": {"rt": [2285, 3933, 7757, 10005, 12517, 14309, 17524], "trial_type": "math-distractor", "key_times": [1724, 1949, 2285, 3413, 3933, 6757, 7101, 7757, 9502, 9716, 10005, 12182, 12517, 13876, 14069, 14309, 17061, 17253, 17524], "responses": ["17", "9", "22", "18", "9", "19", "18"], "num2": [7, 4, 8, 4, 1, 3, 9, 9], "num3": [7, 1, 5, 5, 6, 9, 5, 6], "conditions": [18, 1200, "a", 18000], "internal_node_id": "0.0-34.0", "key_presses": [97, 103, 13, 105, 13, 98, 98, 13, 97, 104, 13, 105, 13, 97, 105, 13, 97, 104, 13], "trial": 1, "time_elapsed": 266870, "type": "DISTRACTOR", "trial_index": 43, "num1": [3, 4, 9, 9, 2, 7, 4, 9]}, "uniqueid": "MTK2936:320DUZ38G8T8TEXJ98YDZSMHFKZGJ7", "dateTime": 1519593794584}, {"current_trial": 44, "trialdata": {"rt": -1, "trial_type": "single-stim", "stimulus": "<p id=\"stim\">10</p>", "internal_node_id": "0.0-35.0-0.0", "time_elapsed": 269872, "key_press": -1, "trial_index": 44}, "uniqueid": "MTK2936:320DUZ38G8T8TEXJ98YDZSMHFKZGJ7", "dateTime": 1519593797586}, {"current_trial": 45, "trialdata": {"rt": -1, "trial_type": "single-stim", "stimulus": "<p id=\"stim\">9</p>", "internal_node_id": "0.0-35.0-1.0", "time_elapsed": 270874, "key_press": -1, "trial_index": 45}, "uniqueid": "MTK2936:320DUZ38G8T8TEXJ98YDZSMHFKZGJ7", "dateTime": 1519593798588}, {"current_trial": 46, "trialdata": {"rt": -1, "trial_type": "single-stim", "stimulus": "<p id=\"stim\">8</p>", "internal_node_id": "0.0-35.0-2.0", "time_elapsed": 271876, "key_press": -1, "trial_index": 46}, "uniqueid": "MTK2936:320DUZ38G8T8TEXJ98YDZSMHFKZGJ7", "dateTime": 1519593799590}, {"current_trial": 47, "trialdata": {"rt": -1, "trial_type": "single-stim", "stimulus": "<p id=\"stim\">7</p>", "internal_node_id": "0.0-35.0-3.0", "time_elapsed": 272878, "key_press": -1, "trial_index": 47}, "uniqueid": "MTK2936:320DUZ38G8T8TEXJ98YDZSMHFKZGJ7", "dateTime": 1519593800592}, {"current_trial": 48, "trialdata": {"rt": -1, "trial_type": "single-stim", "stimulus": "<p id=\"stim\">6</p>", "internal_node_id": "0.0-35.0-4.0", "time_elapsed": 273881, "key_press": -1, "trial_index": 48}, "uniqueid": "MTK2936:320DUZ38G8T8TEXJ98YDZSMHFKZGJ7", "dateTime": 1519593801595}, {"current_trial": 49, "trialdata": {"rt": -1, "trial_type": "single-stim", "stimulus": "<p id=\"stim\">5</p>", "internal_node_id": "0.0-35.0-5.0", "time_elapsed": 274883, "key_press": -1, "trial_index": 49}, "uniqueid": "MTK2936:320DUZ38G8T8TEXJ98YDZSMHFKZGJ7", "dateTime": 1519593802597}, {"current_trial": 50, "trialdata": {"rt": -1, "trial_type": "single-stim", "stimulus": "<p id=\"stim\">4</p>", "internal_node_id": "0.0-35.0-6.0", "time_elapsed": 275886, "key_press": -1, "trial_index": 50}, "uniqueid": "MTK2936:320DUZ38G8T8TEXJ98YDZSMHFKZGJ7", "dateTime": 1519593803600}, {"current_trial": 51, "trialdata": {"rt": -1, "trial_type": "single-stim", "stimulus": "<p id=\"stim\">3</p>", "internal_node_id": "0.0-35.0-7.0", "time_elapsed": 276887, "key_press": -1, "trial_index": 51}, "uniqueid": "MTK2936:320DUZ38G8T8TEXJ98YDZSMHFKZGJ7", "dateTime": 1519593804601}, {"current_trial": 52, "trialdata": {"rt": -1, "trial_type": "single-stim", "stimulus": "<p id=\"stim\">2</p>", "internal_node_id": "0.0-35.0-8.0", "time_elapsed": 277888, "key_press": -1, "trial_index": 52}, "uniqueid": "MTK2936:320DUZ38G8T8TEXJ98YDZSMHFKZGJ7", "dateTime": 1519593805603}, {"current_trial": 53, "trialdata": {"rt": -1, "trial_type": "single-stim", "stimulus": "<p id=\"stim\">1</p>", "internal_node_id": "0.0-35.0-9.0", "time_elapsed": 278890, "key_press": -1, "trial_index": 53}, "uniqueid": "MTK2936:320DUZ38G8T8TEXJ98YDZSMHFKZGJ7", "dateTime": 1519593806604}, {"current_trial": 54, "trialdata": {"rt": -1, "trial_type": "single-stim", "stimulus": "<p id=\"stim\">+</p>", "internal_node_id": "0.0-36.0-0.0", "time_elapsed": 280391, "key_press": -1, "type": "FIXATION", "trial_index": 54}, "uniqueid": "MTK2936:320DUZ38G8T8TEXJ98YDZSMHFKZGJ7", "dateTime": 1519593808106}, {"current_trial": 55, "trialdata": {"rt": -1000, "trial_type": "single-audio", "word": "brick", "stimulus": "/static/audio/wordpool/BRICK.wav", "conditions": [18, 1200, "a", 18000], "internal_node_id": "0.0-37.0", "trial": 1, "time_elapsed": 282520, "serialpos": 0, "key_press": -1, "wordID": 171, "type": "PRES_AUD", "trial_index": 55}, "uniqueid": "MTK2936:320DUZ38G8T8TEXJ98YDZSMHFKZGJ7", "dateTime": 1519593810234}, {"current_trial": 56, "trialdata": {"rt": -1000, "trial_type": "single-audio", "word": "rod", "stimulus": "/static/audio/wordpool/ROD.wav", "conditions": [18, 1200, "a", 18000], "internal_node_id": "0.0-38.0", "trial": 1, "time_elapsed": 284825, "serialpos": 1, "key_press": -1, "wordID": 1202, "type": "PRES_AUD", "trial_index": 56}, "uniqueid": "MTK2936:320DUZ38G8T8TEXJ98YDZSMHFKZGJ7", "dateTime": 1519593812539}, {"current_trial": 57, "trialdata": {"rt": -1000, "trial_type": "single-audio", "word": "sausage", "stimulus": "/static/audio/wordpool/SAUSAGE.wav", "conditions": [18, 1200, "a", 18000], "internal_node_id": "0.0-39.0", "trial": 1, "time_elapsed": 286890, "serialpos": 2, "key_press": -1, "wordID": 1237, "type": "PRES_AUD", "trial_index": 57}, "uniqueid": "MTK2936:320DUZ38G8T8TEXJ98YDZSMHFKZGJ7", "dateTime": 1519593814605}, {"current_trial": 58, "trialdata": {"rt": -1000, "trial_type": "single-audio", "word": "scribble", "stimulus": "/static/audio/wordpool/SCRIBBLE.wav", "conditions": [18, 1200, "a", 18000], "internal_node_id": "0.0-40.0", "trial": 1, "time_elapsed": 289009, "serialpos": 3, "key_press": -1, "wordID": 1255, "type": "PRES_AUD", "trial_index": 58}, "uniqueid": "MTK2936:320DUZ38G8T8TEXJ98YDZSMHFKZGJ7", "dateTime": 1519593816723}, {"current_trial": 59, "trialdata": {"rt": -1000, "trial_type": "single-audio", "word": "camel", "stimulus": "/static/audio/wordpool/CAMEL.wav", "conditions": [18, 1200, "a", 18000], "internal_node_id": "0.0-41.0", "trial": 1, "time_elapsed": 291193, "serialpos": 4, "key_press": -1, "wordID": 222, "type": "PRES_AUD", "trial_index": 59}, "uniqueid": "MTK2936:320DUZ38G8T8TEXJ98YDZSMHFKZGJ7", "dateTime": 1519593818908}, {"current_trial": 60, "trialdata": {"rt": -1000, "trial_type": "single-audio", "word": "lettuce", "stimulus": "/static/audio/wordpool/LETTUCE.wav", "conditions": [18, 1200, "a", 18000], "internal_node_id": "0.0-42.0", "trial": 1, "time_elapsed": 293455, "serialpos": 5, "key_press": -1, "wordID": 813, "type": "PRES_AUD", "trial_index": 60}, "uniqueid": "MTK2936:320DUZ38G8T8TEXJ98YDZSMHFKZGJ7", "dateTime": 1519593821169}, {"current_trial": 61, "trialdata": {"rt": -1000, "trial_type": "single-audio", "word": "lagoon", "stimulus": "/static/audio/wordpool/LAGOON.wav", "conditions": [18, 1200, "a", 18000], "internal_node_id": "0.0-43.0", "trial": 1, "time_elapsed": 295702, "serialpos": 6, "key_press": -1, "wordID": 794, "type": "PRES_AUD", "trial_index": 61}, "uniqueid": "MTK2936:320DUZ38G8T8TEXJ98YDZSMHFKZGJ7", "dateTime": 1519593823416}, {"current_trial": 62, "trialdata": {"rt": -1000, "trial_type": "single-audio", "word": "finger", "stimulus": "/static/audio/wordpool/FINGER.wav", "conditions": [18, 1200, "a", 18000], "internal_node_id": "0.0-44.0", "trial": 1, "time_elapsed": 297824, "serialpos": 7, "key_press": -1, "wordID": 566, "type": "PRES_AUD", "trial_index": 62}, "uniqueid": "MTK2936:320DUZ38G8T8TEXJ98YDZSMHFKZGJ7", "dateTime": 1519593825541}, {"current_trial": 63, "trialdata": {"rt": -1000, "trial_type": "single-audio", "word": "cloud", "stimulus": "/static/audio/wordpool/CLOUD.wav", "conditions": [18, 1200, "a", 18000], "internal_node_id": "0.0-45.0", "trial": 1, "time_elapsed": 300194, "serialpos": 8, "key_press": -1, "wordID": 327, "type": "PRES_AUD", "trial_index": 63}, "uniqueid": "MTK2936:320DUZ38G8T8TEXJ98YDZSMHFKZGJ7", "dateTime": 1519593827908}, {"current_trial": 64, "trialdata": {"rt": -1000, "trial_type": "single-audio", "word": "truck", "stimulus": "/static/audio/wordpool/TRUCK.wav", "conditions": [18, 1200, "a", 18000], "internal_node_id": "0.0-46.0", "trial": 1, "time_elapsed": 302287, "serialpos": 9, "key_press": -1, "wordID": 1511, "type": "PRES_AUD", "trial_index": 64}, "uniqueid": "MTK2936:320DUZ38G8T8TEXJ98YDZSMHFKZGJ7", "dateTime": 1519593830001}, {"current_trial": 65, "trialdata": {"rt": -1000, "trial_type": "single-audio", "word": "shrub", "stimulus": "/static/audio/wordpool/SHRUB.wav", "conditions": [18, 1200, "a", 18000], "internal_node_id": "0.0-47.0", "trial": 1, "time_elapsed": 304318, "serialpos": 10, "key_press": -1, "wordID": 1298, "type": "PRES_AUD", "trial_index": 65}, "uniqueid": "MTK2936:320DUZ38G8T8TEXJ98YDZSMHFKZGJ7", "dateTime": 1519593832032}, {"current_trial": 66, "trialdata": {"rt": -1000, "trial_type": "single-audio", "word": "sticker", "stimulus": "/static/audio/wordpool/STICKER.wav", "conditions": [18, 1200, "a", 18000], "internal_node_id": "0.0-48.0", "trial": 1, "time_elapsed": 306542, "serialpos": 11, "key_press": -1, "wordID": 1381, "type": "PRES_AUD", "trial_index": 66}, "uniqueid": "MTK2936:320DUZ38G8T8TEXJ98YDZSMHFKZGJ7", "dateTime": 1519593834256}, {"current_trial": 67, "trialdata": {"rt": -1000, "trial_type": "single-audio", "word": "citrus", "stimulus": "/static/audio/wordpool/CITRUS.wav", "conditions": [18, 1200, "a", 18000], "internal_node_id": "0.0-49.0", "trial": 1, "time_elapsed": 308594, "serialpos": 12, "key_press": -1, "wordID": 312, "type": "PRES_AUD", "trial_index": 67}, "uniqueid": "MTK2936:320DUZ38G8T8TEXJ98YDZSMHFKZGJ7", "dateTime": 1519593836308}, {"current_trial": 68, "trialdata": {"rt": -1000, "trial_type": "single-audio", "word": "mop", "stimulus": "/static/audio/wordpool/MOP.wav", "conditions": [18, 1200, "a", 18000], "internal_node_id": "0.0-50.0", "trial": 1, "time_elapsed": 310993, "serialpos": 13, "key_press": -1, "wordID": 915, "type": "PRES_AUD", "trial_index": 68}, "uniqueid": "MTK2936:320DUZ38G8T8TEXJ98YDZSMHFKZGJ7", "dateTime": 1519593838708}, {"current_trial": 69, "trialdata": {"rt": -1000, "trial_type": "single-audio", "word": "package", "stimulus": "/static/audio/wordpool/PACKAGE.wav", "conditions": [18, 1200, "a", 18000], "internal_node_id": "0.0-51.0", "trial": 1, "time_elapsed": 313163, "serialpos": 14, "key_press": -1, "wordID": 996, "type": "PRES_AUD", "trial_index": 69}, "uniqueid": "MTK2936:320DUZ38G8T8TEXJ98YDZSMHFKZGJ7", "dateTime": 1519593840877}, {"current_trial": 70, "trialdata": {"rt": -1000, "trial_type": "single-audio", "word": "mustard", "stimulus": "/static/audio/wordpool/MUSTARD.wav", "conditions": [18, 1200, "a", 18000], "internal_node_id": "0.0-52.0", "trial": 1, "time_elapsed": 315486, "serialpos": 15, "key_press": -1, "wordID": 934, "type": "PRES_AUD", "trial_index": 70}, "uniqueid": "MTK2936:320DUZ38G8T8TEXJ98YDZSMHFKZGJ7", "dateTime": 1519593843200}, {"current_trial": 71, "trialdata": {"rt": -1000, "trial_type": "single-audio", "word": "outfit", "stimulus": "/static/audio/wordpool/OUTFIT.wav", "conditions": [18, 1200, "a", 18000], "internal_node_id": "0.0-53.0", "trial": 1, "time_elapsed": 317637, "serialpos": 16, "key_press": -1, "wordID": 987, "type": "PRES_AUD", "trial_index": 71}, "uniqueid": "MTK2936:320DUZ38G8T8TEXJ98YDZSMHFKZGJ7", "dateTime": 1519593845351}, {"current_trial": 72, "trialdata": {"rt": -1000, "trial_type": "single-audio", "word": "donkey", "stimulus": "/static/audio/wordpool/DONKEY.wav", "conditions": [18, 1200, "a", 18000], "internal_node_id": "0.0-54.0", "trial": 1, "time_elapsed": 320009, "serialpos": 17, "key_press": -1, "wordID": 483, "type": "PRES_AUD", "trial_index": 72}, "uniqueid": "MTK2936:320DUZ38G8T8TEXJ98YDZSMHFKZGJ7", "dateTime": 1519593847723}, {"current_trial": 73, "trialdata": {"rt": -1, "trial_type": "single-stim", "stimulus": "", "internal_node_id": "0.0-55.0-0.0", "time_elapsed": 321400, "key_press": -1, "type": "PRE_RECALL_DELAY", "trial_index": 73}, "uniqueid": "MTK2936:320DUZ38G8T8TEXJ98YDZSMHFKZGJ7", "dateTime": 1519593849114}, {"current_trial": 74, "trialdata": {"rt": -1000, "trial_type": "single-audio", "stimulus": "/static/audio/400Hz.wav", "internal_node_id": "0.0-56.0", "time_elapsed": 321910, "key_press": -1, "type": "PRE_RECALL_ALERT", "trial_index": 74}, "uniqueid": "MTK2936:320DUZ38G8T8TEXJ98YDZSMHFKZGJ7", "dateTime": 1519593849624}, {"current_trial": 75, "trialdata": {"rt": [2931, 5043, 7115, 9291, 13379, 16250, 18562, 28395, 45980, 50188], "recwords": ["outfit", "donkey", "package", "sticker", "donkey", "lettuce", "leaf", "sticker", "outfit", "ice"], "key_times": [778, 994, 1730, 1962, 2122, 2234, 2931, 3977, 4122, 4337, 4530, 4674, 4850, 5043, 5754, 5882, 6058, 6226, 6378, 6570, 6730, 7115, 7755, 8106, 8282, 8442, 8618, 8746, 8874, 9291, 10370, 10658, 11003, 11380, 11635, 12090, 12202, 12418, 12634, 12818, 12954, 13379, 14802, 14946, 15186, 15330, 15554, 15754, 15857, 16250, 17362, 17826, 18074, 18162, 18562, 26627, 27050, 27298, 27475, 27649, 27754, 27890, 28395, 44660, 44874, 45131, 45483, 45651, 45802, 45980, 49690, 49826, 49931, 50188], "trial_type": "free-recall", "conditions": [18, 1200, "a", 18000], "internal_node_id": "0.0-57.0-0.0", "key_presses": [79, 85, 84, 70, 73, 84, 13, 68, 79, 78, 75, 69, 89, 32, 80, 65, 67, 75, 65, 71, 69, 13, 83, 84, 73, 67, 75, 69, 82, 13, 68, 78, 8, 8, 8, 68, 79, 78, 75, 69, 89, 13, 76, 69, 84, 84, 85, 67, 69, 13, 76, 69, 65, 70, 13, 83, 84, 73, 67, 75, 69, 82, 13, 79, 85, 84, 70, 73, 84, 13, 73, 67, 69, 13], "trial": 1, "time_elapsed": 381915, "type": "FREE_RECALL", "trial_index": 75}, "uniqueid": "MTK2936:320DUZ38G8T8TEXJ98YDZSMHFKZGJ7", "dateTime": 1519593909633}, {"current_trial": 76, "trialdata": {"rt": 2349, "trial_type": "text", "internal_node_id": "0.0-58.0", "time_elapsed": 386269, "key_press": 32, "type": "INSTRUCTIONS", "trial_index": 76}, "uniqueid": "MTK2936:320DUZ38G8T8TEXJ98YDZSMHFKZGJ7", "dateTime": 1519593913983}, {"current_trial": 77, "trialdata": {"rt": [2651, 4395, 7115, 8987, 11531], "trial_type": "math-distractor", "key_times": [2292, 2651, 3842, 4051, 4395, 6771, 6890, 7115, 8603, 8803, 8987, 11116, 11291, 11531], "responses": ["9", "13", "10", "12", "14"], "num2": [2, 2, 4, 4, 2, 4], "num3": [3, 3, 5, 2, 8, 3], "conditions": [24, 1600, "a", 12000], "internal_node_id": "0.0-59.0", "key_presses": [105, 13, 97, 99, 13, 97, 96, 13, 97, 98, 13, 97, 100, 13], "trial": 2, "time_elapsed": 399274, "type": "DISTRACTOR", "trial_index": 77, "num1": [4, 8, 1, 6, 4, 4]}, "uniqueid": "MTK2936:320DUZ38G8T8TEXJ98YDZSMHFKZGJ7", "dateTime": 1519593926989}, {"current_trial": 78, "trialdata": {"rt": -1, "trial_type": "single-stim", "stimulus": "<p id=\"stim\">10</p>", "internal_node_id": "0.0-60.0-0.0", "time_elapsed": 402276, "key_press": -1, "trial_index": 78}, "uniqueid": "MTK2936:320DUZ38G8T8TEXJ98YDZSMHFKZGJ7", "dateTime": 1519593929991}, {"current_trial": 79, "trialdata": {"rt": -1, "trial_type": "single-stim", "stimulus": "<p id=\"stim\">9</p>", "internal_node_id": "0.0-60.0-1.0", "time_elapsed": 403279, "key_press": -1, "trial_index": 79}, "uniqueid": "MTK2936:320DUZ38G8T8TEXJ98YDZSMHFKZGJ7", "dateTime": 1519593930993}, {"current_trial": 80, "trialdata": {"rt": -1, "trial_type": "single-stim", "stimulus": "<p id=\"stim\">8</p>", "internal_node_id": "0.0-60.0-2.0", "time_elapsed": 404281, "key_press": -1, "trial_index": 80}, "uniqueid": "MTK2936:320DUZ38G8T8TEXJ98YDZSMHFKZGJ7", "dateTime": 1519593931995}, {"current_trial": 81, "trialdata": {"rt": -1, "trial_type": "single-stim", "stimulus": "<p id=\"stim\">7</p>", "internal_node_id": "0.0-60.0-3.0", "time_elapsed": 405282, "key_press": -1, "trial_index": 81}, "uniqueid": "MTK2936:320DUZ38G8T8TEXJ98YDZSMHFKZGJ7", "dateTime": 1519593932996}, {"current_trial": 82, "trialdata": {"rt": -1, "trial_type": "single-stim", "stimulus": "<p id=\"stim\">6</p>", "internal_node_id": "0.0-60.0-4.0", "time_elapsed": 406284, "key_press": -1, "trial_index": 82}, "uniqueid": "MTK2936:320DUZ38G8T8TEXJ98YDZSMHFKZGJ7", "dateTime": 1519593933998}, {"current_trial": 83, "trialdata": {"rt": -1, "trial_type": "single-stim", "stimulus": "<p id=\"stim\">5</p>", "internal_node_id": "0.0-60.0-5.0", "time_elapsed": 407286, "key_press": -1, "trial_index": 83}, "uniqueid": "MTK2936:320DUZ38G8T8TEXJ98YDZSMHFKZGJ7", "dateTime": 1519593935000}, {"current_trial": 84, "trialdata": {"rt": -1, "trial_type": "single-stim", "stimulus": "<p id=\"stim\">4</p>", "internal_node_id": "0.0-60.0-6.0", "time_elapsed": 408288, "key_press": -1, "trial_index": 84}, "uniqueid": "MTK2936:320DUZ38G8T8TEXJ98YDZSMHFKZGJ7", "dateTime": 1519593936002}, {"current_trial": 85, "trialdata": {"rt": -1, "trial_type": "single-stim", "stimulus": "<p id=\"stim\">3</p>", "internal_node_id": "0.0-60.0-7.0", "time_elapsed": 409290, "key_press": -1, "trial_index": 85}, "uniqueid": "MTK2936:320DUZ38G8T8TEXJ98YDZSMHFKZGJ7", "dateTime": 1519593937005}, {"current_trial": 86, "trialdata": {"rt": -1, "trial_type": "single-stim", "stimulus": "<p id=\"stim\">2</p>", "internal_node_id": "0.0-60.0-8.0", "time_elapsed": 410292, "key_press": -1, "trial_index": 86}, "uniqueid": "MTK2936:320DUZ38G8T8TEXJ98YDZSMHFKZGJ7", "dateTime": 1519593938006}, {"current_trial": 87, "trialdata": {"rt": -1, "trial_type": "single-stim", "stimulus": "<p id=\"stim\">1</p>", "internal_node_id": "0.0-60.0-9.0", "time_elapsed": 411293, "key_press": -1, "trial_index": 87}, "uniqueid": "MTK2936:320DUZ38G8T8TEXJ98YDZSMHFKZGJ7", "dateTime": 1519593939007}, {"current_trial": 88, "trialdata": {"rt": -1, "trial_type": "single-stim", "stimulus": "<p id=\"stim\">+</p>", "internal_node_id": "0.0-61.0-0.0", "time_elapsed": 412795, "key_press": -1, "type": "FIXATION", "trial_index": 88}, "uniqueid": "MTK2936:320DUZ38G8T8TEXJ98YDZSMHFKZGJ7", "dateTime": 1519593940509}, {"current_trial": 89, "trialdata": {"rt": -1000, "trial_type": "single-audio", "word": "forehead", "stimulus": "/static/audio/wordpool/FOREHEAD.wav", "conditions": [24, 1600, "a", 12000], "internal_node_id": "0.0-62.0", "trial": 2, "time_elapsed": 415512, "serialpos": 0, "key_press": -1, "wordID": 591, "type": "PRES_AUD", "trial_index": 89}, "uniqueid": "MTK2936:320DUZ38G8T8TEXJ98YDZSMHFKZGJ7", "dateTime": 1519593943226}, {"current_trial": 90, "trialdata": {"rt": -1000, "trial_type": "single-audio", "word": "flute", "stimulus": "/static/audio/wordpool/FLUTE.wav", "conditions": [24, 1600, "a", 12000], "internal_node_id": "0.0-63.0", "trial": 2, "time_elapsed": 417944, "serialpos": 1, "key_press": -1, "wordID": 584, "type": "PRES_AUD", "trial_index": 90}, "uniqueid": "MTK2936:320DUZ38G8T8TEXJ98YDZSMHFKZGJ7", "dateTime": 1519593945658}, {"current_trial": 91, "trialdata": {"rt": -1000, "trial_type": "single-audio", "word": "jury", "stimulus": "/static/audio/wordpool/JURY.wav", "conditions": [24, 1600, "a", 12000], "internal_node_id": "0.0-64.0", "trial": 2, "time_elapsed": 420353, "serialpos": 2, "key_press": -1, "wordID": 765, "type": "PRES_AUD", "trial_index": 91}, "uniqueid": "MTK2936:320DUZ38G8T8TEXJ98YDZSMHFKZGJ7", "dateTime": 1519593948067}, {"current_trial": 92, "trialdata": {"rt": -1000, "trial_type": "single-audio", "word": "creature", "stimulus": "/static/audio/wordpool/CREATURE.wav", "conditions": [24, 1600, "a", 12000], "internal_node_id": "0.0-65.0", "trial": 2, "time_elapsed": 423051, "serialpos": 3, "key_press": -1, "wordID": 402, "type": "PRES_AUD", "trial_index": 92}, "uniqueid": "MTK2936:320DUZ38G8T8TEXJ98YDZSMHFKZGJ7", "dateTime": 1519593950765}, {"current_trial": 93, "trialdata": {"rt": -1000, "trial_type": "single-audio", "word": "beast", "stimulus": "/static/audio/wordpool/BEAST.wav", "conditions": [24, 1600, "a", 12000], "internal_node_id": "0.0-66.0", "trial": 2, "time_elapsed": 425575, "serialpos": 4, "key_press": -1, "wordID": 107, "type": "PRES_AUD", "trial_index": 93}, "uniqueid": "MTK2936:320DUZ38G8T8TEXJ98YDZSMHFKZGJ7", "dateTime": 1519593953289}, {"current_trial": 94, "trialdata": {"rt": -1000, "trial_type": "single-audio", "word": "ozone", "stimulus": "/static/audio/wordpool/OZONE.wav", "conditions": [24, 1600, "a", 12000], "internal_node_id": "0.0-67.0", "trial": 2, "time_elapsed": 428189, "serialpos": 5, "key_press": -1, "wordID": 995, "type": "PRES_AUD", "trial_index": 94}, "uniqueid": "MTK2936:320DUZ38G8T8TEXJ98YDZSMHFKZGJ7", "dateTime": 1519593955903}, {"current_trial": 95, "trialdata": {"rt": -1000, "trial_type": "single-audio", "word": "actor", "stimulus": "/static/audio/wordpool/ACTOR.wav", "conditions": [24, 1600, "a", 12000], "internal_node_id": "0.0-68.0", "trial": 2, "time_elapsed": 430773, "serialpos": 6, "key_press": -1, "wordID": 4, "type": "PRES_AUD", "trial_index": 95}, "uniqueid": "MTK2936:320DUZ38G8T8TEXJ98YDZSMHFKZGJ7", "dateTime": 1519593958487}, {"current_trial": 96, "trialdata": {"rt": -1000, "trial_type": "single-audio", "word": "donor", "stimulus": "/static/audio/wordpool/DONOR.wav", "conditions": [24, 1600, "a", 12000], "internal_node_id": "0.0-69.0", "trial": 2, "time_elapsed": 433265, "serialpos": 7, "key_press": -1, "wordID": 484, "type": "PRES_AUD", "trial_index": 96}, "uniqueid": "MTK2936:320DUZ38G8T8TEXJ98YDZSMHFKZGJ7", "dateTime": 1519593960980}, {"current_trial": 97, "trialdata": {"rt": -1000, "trial_type": "single-audio", "word": "napkin", "stimulus": "/static/audio/wordpool/NAPKIN.wav", "conditions": [24, 1600, "a", 12000], "internal_node_id": "0.0-70.0", "trial": 2, "time_elapsed": 435671, "serialpos": 8, "key_press": -1, "wordID": 936, "type": "PRES_AUD", "trial_index": 97}, "uniqueid": "MTK2936:320DUZ38G8T8TEXJ98YDZSMHFKZGJ7", "dateTime": 1519593963385}, {"current_trial": 98, "trialdata": {"rt": -1000, "trial_type": "single-audio", "word": "judge", "stimulus": "/static/audio/wordpool/JUDGE.wav", "conditions": [24, 1600, "a", 12000], "internal_node_id": "0.0-71.0", "trial": 2, "time_elapsed": 438330, "serialpos": 9, "key_press": -1, "wordID": 760, "type": "PRES_AUD", "trial_index": 98}, "uniqueid": "MTK2936:320DUZ38G8T8TEXJ98YDZSMHFKZGJ7", "dateTime": 1519593966044}, {"current_trial": 99, "trialdata": {"rt": -1000, "trial_type": "single-audio", "word": "dancer", "stimulus": "/static/audio/wordpool/DANCER.wav", "conditions": [24, 1600, "a", 12000], "internal_node_id": "0.0-72.0", "trial": 2, "time_elapsed": 440836, "serialpos": 10, "key_press": -1, "wordID": 436, "type": "PRES_AUD", "trial_index": 99}, "uniqueid": "MTK2936:320DUZ38G8T8TEXJ98YDZSMHFKZGJ7", "dateTime": 1519593968550}, {"current_trial": 100, "trialdata": {"rt": -1000, "trial_type": "single-audio", "word": "shorts", "stimulus": "/static/audio/wordpool/SHORTS.wav", "conditions": [24, 1600, "a", 12000], "internal_node_id": "0.0-73.0", "trial": 2, "time_elapsed": 443364, "serialpos": 11, "key_press": -1, "wordID": 1292, "type": "PRES_AUD", "trial_index": 100}, "uniqueid": "MTK2936:320DUZ38G8T8TEXJ98YDZSMHFKZGJ7", "dateTime": 1519593971078}, {"current_trial": 101, "trialdata": {"rt": -1000, "trial_type": "single-audio", "word": "fiddle", "stimulus": "/static/audio/wordpool/FIDDLE.wav", "conditions": [24, 1600, "a", 12000], "internal_node_id": "0.0-74.0", "trial": 2, "time_elapsed": 445804, "serialpos": 12, "key_press": -1, "wordID": 560, "type": "PRES_AUD", "trial_index": 101}, "uniqueid": "MTK2936:320DUZ38G8T8TEXJ98YDZSMHFKZGJ7", "dateTime": 1519593973518}, {"current_trial": 102, "trialdata": {"rt": -1000, "trial_type": "single-audio", "word": "cocoon", "stimulus": "/static/audio/wordpool/COCOON.wav", "conditions": [24, 1600, "a", 12000], "internal_node_id": "0.0-75.0", "trial": 2, "time_elapsed": 448288, "serialpos": 13, "key_press": -1, "wordID": 338, "type": "PRES_AUD", "trial_index": 102}, "uniqueid": "MTK2936:320DUZ38G8T8TEXJ98YDZSMHFKZGJ7", "dateTime": 1519593976002}, {"current_trial": 103, "trialdata": {"rt": -1000, "trial_type": "single-audio", "word": "princess", "stimulus": "/static/audio/wordpool/PRINCESS.wav", "conditions": [24, 1600, "a", 12000], "internal_node_id": "0.0-76.0", "trial": 2, "time_elapsed": 450991, "serialpos": 14, "key_press": -1, "wordID": 1124, "type": "PRES_AUD", "trial_index": 103}, "uniqueid": "MTK2936:320DUZ38G8T8TEXJ98YDZSMHFKZGJ7", "dateTime": 1519593978705}, {"current_trial": 104, "trialdata": {"rt": -1000, "trial_type": "single-audio", "word": "highway", "stimulus": "/static/audio/wordpool/HIGHWAY.wav", "conditions": [24, 1600, "a", 12000], "internal_node_id": "0.0-77.0", "trial": 2, "time_elapsed": 453488, "serialpos": 15, "key_press": -1, "wordID": 706, "type": "PRES_AUD", "trial_index": 104}, "uniqueid": "MTK2936:320DUZ38G8T8TEXJ98YDZSMHFKZGJ7", "dateTime": 1519593981202}, {"current_trial": 105, "trialdata": {"rt": -1000, "trial_type": "single-audio", "word": "smog", "stimulus": "/static/audio/wordpool/SMOG.wav", "conditions": [24, 1600, "a", 12000], "internal_node_id": "0.0-78.0", "trial": 2, "time_elapsed": 456270, "serialpos": 16, "key_press": -1, "wordID": 1329, "type": "PRES_AUD", "trial_index": 105}, "uniqueid": "MTK2936:320DUZ38G8T8TEXJ98YDZSMHFKZGJ7", "dateTime": 1519593983984}, {"current_trial": 106, "trialdata": {"rt": -1000, "trial_type": "single-audio", "word": "gallon", "stimulus": "/static/audio/wordpool/GALLON.wav", "conditions": [24, 1600, "a", 12000], "internal_node_id": "0.0-79.0", "trial": 2, "time_elapsed": 458851, "serialpos": 17, "key_press": -1, "wordID": 617, "type": "PRES_AUD", "trial_index": 106}, "uniqueid": "MTK2936:320DUZ38G8T8TEXJ98YDZSMHFKZGJ7", "dateTime": 1519593986565}, {"current_trial": 107, "trialdata": {"rt": -1000, "trial_type": "single-audio", "word": "hamper", "stimulus": "/static/audio/wordpool/HAMPER.wav", "conditions": [24, 1600, "a", 12000], "internal_node_id": "0.0-80.0", "trial": 2, "time_elapsed": 461347, "serialpos": 18, "key_press": -1, "wordID": 681, "type": "PRES_AUD", "trial_index": 107}, "uniqueid": "MTK2936:320DUZ38G8T8TEXJ98YDZSMHFKZGJ7", "dateTime": 1519593989061}, {"current_trial": 108, "trialdata": {"rt": -1000, "trial_type": "single-audio", "word": "queen", "stimulus": "/static/audio/wordpool/QUEEN.wav", "conditions": [24, 1600, "a", 12000], "internal_node_id": "0.0-81.0", "trial": 2, "time_elapsed": 464083, "serialpos": 19, "key_press": -1, "wordID": 1148, "type": "PRES_AUD", "trial_index": 108}, "uniqueid": "MTK2936:320DUZ38G8T8TEXJ98YDZSMHFKZGJ7", "dateTime": 1519593991797}, {"current_trial": 109, "trialdata": {"rt": -1000, "trial_type": "single-audio", "word": "motor", "stimulus": "/static/audio/wordpool/MOTOR.wav", "conditions": [24, 1600, "a", 12000], "internal_node_id": "0.0-82.0", "trial": 2, "time_elapsed": 466700, "serialpos": 20, "key_press": -1, "wordID": 921, "type": "PRES_AUD", "trial_index": 109}, "uniqueid": "MTK2936:320DUZ38G8T8TEXJ98YDZSMHFKZGJ7", "dateTime": 1519593994414}, {"current_trial": 110, "trialdata": {"rt": -1000, "trial_type": "single-audio", "word": "honey", "stimulus": "/static/audio/wordpool/HONEY.wav", "conditions": [24, 1600, "a", 12000], "internal_node_id": "0.0-83.0", "trial": 2, "time_elapsed": 469255, "serialpos": 21, "key_press": -1, "wordID": 712, "type": "PRES_AUD", "trial_index": 110}, "uniqueid": "MTK2936:320DUZ38G8T8TEXJ98YDZSMHFKZGJ7", "dateTime": 1519593996969}, {"current_trial": 111, "trialdata": {"rt": -1000, "trial_type": "single-audio", "word": "snake", "stimulus": "/static/audio/wordpool/SNAKE.wav", "conditions": [24, 1600, "a", 12000], "internal_node_id": "0.0-84.0", "trial": 2, "time_elapsed": 471854, "serialpos": 22, "key_press": -1, "wordID": 1332, "type": "PRES_AUD", "trial_index": 111}, "uniqueid": "MTK2936:320DUZ38G8T8TEXJ98YDZSMHFKZGJ7", "dateTime": 1519593999568}, {"current_trial": 112, "trialdata": {"rt": -1000, "trial_type": "single-audio", "word": "cobra", "stimulus": "/static/audio/wordpool/COBRA.wav", "conditions": [24, 1600, "a", 12000], "internal_node_id": "0.0-85.0", "trial": 2, "time_elapsed": 474323, "serialpos": 23, "key_press": -1, "wordID": 335, "type": "PRES_AUD", "trial_index": 112}, "uniqueid": "MTK2936:320DUZ38G8T8TEXJ98YDZSMHFKZGJ7", "dateTime": 1519594002037}, {"current_trial": 113, "trialdata": {"rt": -1, "trial_type": "single-stim", "stimulus": "", "internal_node_id": "0.0-86.0-0.0", "time_elapsed": 475636, "key_press": -1, "type": "PRE_RECALL_DELAY", "trial_index": 113}, "uniqueid": "MTK2936:320DUZ38G8T8TEXJ98YDZSMHFKZGJ7", "dateTime": 1519594003350}, {"current_trial": 114, "trialdata": {"rt": -1000, "trial_type": "single-audio", "stimulus": "/static/audio/400Hz.wav", "internal_node_id": "0.0-87.0", "time_elapsed": 476138, "key_press": -1, "type": "PRE_RECALL_ALERT", "trial_index": 114}, "uniqueid": "MTK2936:320DUZ38G8T8TEXJ98YDZSMHFKZGJ7", "dateTime": 1519594003852}, {"current_trial": 115, "trialdata": {"rt": [2401, 4016, 6448, 7632, 11568, 15888, 18402, 24281, 35953, 40642, 51450, 59169], "recwords": ["cobra", "snake", "honey", "motor", "queen", "jury", "creature", "highway", "hamper", "beast", "judge", "dancer"], "key_times": [1000, 1488, 1792, 1992, 2160, 2401, 2992, 3224, 3368, 3496, 3624, 4016, 4608, 4768, 4944, 5072, 5248, 6448, 6800, 6968, 7120, 7248, 7368, 7632, 9952, 10176, 10544, 10808, 10984, 11136, 11240, 11568, 14992, 15184, 15440, 15560, 15888, 16992, 17232, 17400, 17576, 17672, 17832, 17928, 18072, 18402, 22209, 22616, 22864, 23009, 23481, 23704, 23872, 24281, 34874, 35040, 35169, 35376, 35640, 35736, 35953, 39729, 39856, 40145, 40257, 40456, 40642, 50354, 50544, 51017, 51113, 51281, 51450, 57376, 57616, 57809, 58400, 58657, 58809, 59169], "trial_type": "free-recall", "conditions": [24, 1600, "a", 12000], "internal_node_id": "0.0-88.0-0.0", "key_presses": [67, 79, 66, 82, 65, 13, 83, 78, 65, 75, 69, 13, 72, 79, 78, 69, 89, 13, 77, 79, 84, 79, 82, 13, 81, 89, 8, 85, 69, 69, 78, 13, 74, 85, 82, 89, 13, 67, 82, 69, 65, 84, 85, 82, 69, 13, 72, 73, 71, 72, 87, 65, 89, 13, 72, 65, 77, 80, 69, 82, 13, 66, 69, 65, 83, 84, 13, 74, 85, 68, 71, 69, 13, 68, 65, 78, 67, 69, 82, 13], "trial": 2, "time_elapsed": 536141, "type": "FREE_RECALL", "trial_index": 115}, "uniqueid": "MTK2936:320DUZ38G8T8TEXJ98YDZSMHFKZGJ7", "dateTime": 1519594063858}, {"current_trial": 116, "trialdata": {"rt": 1203, "trial_type": "text", "internal_node_id": "0.0-89.0", "time_elapsed": 539350, "key_press": 32, "type": "INSTRUCTIONS", "trial_index": 116}, "uniqueid": "MTK2936:320DUZ38G8T8TEXJ98YDZSMHFKZGJ7", "dateTime": 1519594067064}, {"current_trial": 117, "trialdata": {"rt": [2324, 3819, 5436, 7068, 8620, 10596], "trial_type": "math-distractor", "key_times": [2013, 2124, 2324, 3500, 3667, 3819, 5093, 5268, 5436, 6700, 6876, 7068, 8244, 8396, 8620, 10188, 10356, 10596], "responses": ["10", "14", "16", "13", "11", "19"], "num2": [8, 8, 4, 2, 9, 9, 6], "num3": [1, 1, 7, 9, 1, 9, 7], "conditions": [12, 1600, "a", 12000], "internal_node_id": "0.0-90.0", "key_presses": [97, 96, 13, 97, 100, 13, 97, 102, 13, 97, 99, 13, 97, 97, 13, 97, 105, 13], "trial": 3, "time_elapsed": 553353, "type": "DISTRACTOR", "trial_index": 117, "num1": [1, 5, 5, 2, 1, 1, 5]}, "uniqueid": "MTK2936:320DUZ38G8T8TEXJ98YDZSMHFKZGJ7", "dateTime": 1519594081067}, {"current_trial": 118, "trialdata": {"rt": -1, "trial_type": "single-stim", "stimulus": "<p id=\"stim\">10</p>", "internal_node_id": "0.0-91.0-0.0", "time_elapsed": 556356, "key_press": -1, "trial_index": 118}, "uniqueid": "MTK2936:320DUZ38G8T8TEXJ98YDZSMHFKZGJ7", "dateTime": 1519594084070}, {"current_trial": 119, "trialdata": {"rt": -1, "trial_type": "single-stim", "stimulus": "<p id=\"stim\">9</p>", "internal_node_id": "0.0-91.0-1.0", "time_elapsed": 557357, "key_press": -1, "trial_index": 119}, "uniqueid": "MTK2936:320DUZ38G8T8TEXJ98YDZSMHFKZGJ7", "dateTime": 1519594085071}, {"current_trial": 120, "trialdata": {"rt": -1, "trial_type": "single-stim", "stimulus": "<p id=\"stim\">8</p>", "internal_node_id": "0.0-91.0-2.0", "time_elapsed": 558359, "key_press": -1, "trial_index": 120}, "uniqueid": "MTK2936:320DUZ38G8T8TEXJ98YDZSMHFKZGJ7", "dateTime": 1519594086073}, {"current_trial": 121, "trialdata": {"rt": -1, "trial_type": "single-stim", "stimulus": "<p id=\"stim\">7</p>", "internal_node_id": "0.0-91.0-3.0", "time_elapsed": 559360, "key_press": -1, "trial_index": 121}, "uniqueid": "MTK2936:320DUZ38G8T8TEXJ98YDZSMHFKZGJ7", "dateTime": 1519594087074}, {"current_trial": 122, "trialdata": {"rt": -1, "trial_type": "single-stim", "stimulus": "<p id=\"stim\">6</p>", "internal_node_id": "0.0-91.0-4.0", "time_elapsed": 560361, "key_press": -1, "trial_index": 122}, "uniqueid": "MTK2936:320DUZ38G8T8TEXJ98YDZSMHFKZGJ7", "dateTime": 1519594088075}, {"current_trial": 123, "trialdata": {"rt": -1, "trial_type": "single-stim", "stimulus": "<p id=\"stim\">5</p>", "internal_node_id": "0.0-91.0-5.0", "time_elapsed": 561363, "key_press": -1, "trial_index": 123}, "uniqueid": "MTK2936:320DUZ38G8T8TEXJ98YDZSMHFKZGJ7", "dateTime": 1519594089077}, {"current_trial": 124, "trialdata": {"rt": -1, "trial_type": "single-stim", "stimulus": "<p id=\"stim\">4</p>", "internal_node_id": "0.0-91.0-6.0", "time_elapsed": 562365, "key_press": -1, "trial_index": 124}, "uniqueid": "MTK2936:320DUZ38G8T8TEXJ98YDZSMHFKZGJ7", "dateTime": 1519594090079}, {"current_trial": 125, "trialdata": {"rt": -1, "trial_type": "single-stim", "stimulus": "<p id=\"stim\">3</p>", "internal_node_id": "0.0-91.0-7.0", "time_elapsed": 563367, "key_press": -1, "trial_index": 125}, "uniqueid": "MTK2936:320DUZ38G8T8TEXJ98YDZSMHFKZGJ7", "dateTime": 1519594091081}, {"current_trial": 126, "trialdata": {"rt": -1, "trial_type": "single-stim", "stimulus": "<p id=\"stim\">2</p>", "internal_node_id": "0.0-91.0-8.0", "time_elapsed": 564368, "key_press": -1, "trial_index": 126}, "uniqueid": "MTK2936:320DUZ38G8T8TEXJ98YDZSMHFKZGJ7", "dateTime": 1519594092083}, {"current_trial": 127, "trialdata": {"rt": -1, "trial_type": "single-stim", "stimulus": "<p id=\"stim\">1</p>", "internal_node_id": "0.0-91.0-9.0", "time_elapsed": 565370, "key_press": -1, "trial_index": 127}, "uniqueid": "MTK2936:320DUZ38G8T8TEXJ98YDZSMHFKZGJ7", "dateTime": 1519594093084}, {"current_trial": 128, "trialdata": {"rt": -1, "trial_type": "single-stim", "stimulus": "<p id=\"stim\">+</p>", "internal_node_id": "0.0-92.0-0.0", "time_elapsed": 566872, "key_press": -1, "type": "FIXATION", "trial_index": 128}, "uniqueid": "MTK2936:320DUZ38G8T8TEXJ98YDZSMHFKZGJ7", "dateTime": 1519594094586}, {"current_trial": 129, "trialdata": {"rt": -1000, "trial_type": "single-audio", "word": "pizza", "stimulus": "/static/audio/wordpool/PIZZA.wav", "conditions": [12, 1600, "a", 12000], "internal_node_id": "0.0-93.0", "trial": 3, "time_elapsed": 569336, "serialpos": 0, "key_press": -1, "wordID": 1078, "type": "PRES_AUD", "trial_index": 129}, "uniqueid": "MTK2936:320DUZ38G8T8TEXJ98YDZSMHFKZGJ7", "dateTime": 1519594097050}, {"current_trial": 130, "trialdata": {"rt": -1000, "trial_type": "single-audio", "word": "flower", "stimulus": "/static/audio/wordpool/FLOWER.wav", "conditions": [12, 1600, "a", 12000], "internal_node_id": "0.0-94.0", "trial": 3, "time_elapsed": 572015, "serialpos": 1, "key_press": -1, "wordID": 583, "type": "PRES_AUD", "trial_index": 130}, "uniqueid": "MTK2936:320DUZ38G8T8TEXJ98YDZSMHFKZGJ7", "dateTime": 1519594099729}, {"current_trial": 131, "trialdata": {"rt": -1000, "trial_type": "single-audio", "word": "panther", "stimulus": "/static/audio/wordpool/PANTHER.wav", "conditions": [12, 1600, "a", 12000], "internal_node_id": "0.0-95.0", "trial": 3, "time_elapsed": 574586, "serialpos": 2, "key_press": -1, "wordID": 1008, "type": "PRES_AUD", "trial_index": 131}, "uniqueid": "MTK2936:320DUZ38G8T8TEXJ98YDZSMHFKZGJ7", "dateTime": 1519594102300}, {"current_trial": 132, "trialdata": {"rt": -1000, "trial_type": "single-audio", "word": "leopard", "stimulus": "/static/audio/wordpool/LEOPARD.wav", "conditions": [12, 1600, "a", 12000], "internal_node_id": "0.0-96.0", "trial": 3, "time_elapsed": 577307, "serialpos": 3, "key_press": -1, "wordID": 811, "type": "PRES_AUD", "trial_index": 132}, "uniqueid": "MTK2936:320DUZ38G8T8TEXJ98YDZSMHFKZGJ7", "dateTime": 1519594105021}, {"current_trial": 133, "trialdata": {"rt": -1000, "trial_type": "single-audio", "word": "transplant", "stimulus": "/static/audio/wordpool/TRANSPLANT.wav", "conditions": [12, 1600, "a", 12000], "internal_node_id": "0.0-97.0", "trial": 3, "time_elapsed": 580031, "serialpos": 4, "key_press": -1, "wordID": 1495, "type": "PRES_AUD", "trial_index": 133}, "uniqueid": "MTK2936:320DUZ38G8T8TEXJ98YDZSMHFKZGJ7", "dateTime": 1519594107745}, {"current_trial": 134, "trialdata": {"rt": -1000, "trial_type": "single-audio", "word": "tuba", "stimulus": "/static/audio/wordpool/TUBA.wav", "conditions": [12, 1600, "a", 12000], "internal_node_id": "0.0-98.0", "trial": 3, "time_elapsed": 582825, "serialpos": 5, "key_press": -1, "wordID": 1514, "type": "PRES_AUD", "trial_index": 134}, "uniqueid": "MTK2936:320DUZ38G8T8TEXJ98YDZSMHFKZGJ7", "dateTime": 1519594110539}, {"current_trial": 135, "trialdata": {"rt": -1000, "trial_type": "single-audio", "word": "poet", "stimulus": "/static/audio/wordpool/POET.wav", "conditions": [12, 1600, "a", 12000], "internal_node_id": "0.0-99.0", "trial": 3, "time_elapsed": 585292, "serialpos": 6, "key_press": -1, "wordID": 1094, "type": "PRES_AUD", "trial_index": 135}, "uniqueid": "MTK2936:320DUZ38G8T8TEXJ98YDZSMHFKZGJ7", "dateTime": 1519594113006}, {"current_trial": 136, "trialdata": {"rt": -1000, "trial_type": "single-audio", "word": "denim", "stimulus": "/static/audio/wordpool/DENIM.wav", "conditions": [12, 1600, "a", 12000], "internal_node_id": "0.0-100.0", "trial": 3, "time_elapsed": 588077, "serialpos": 7, "key_press": -1, "wordID": 445, "type": "PRES_AUD", "trial_index": 136}, "uniqueid": "MTK2936:320DUZ38G8T8TEXJ98YDZSMHFKZGJ7", "dateTime": 1519594115791}, {"current_trial": 137, "trialdata": {"rt": -1000, "trial_type": "single-audio", "word": "nurse", "stimulus": "/static/audio/wordpool/NURSE.wav", "conditions": [12, 1600, "a", 12000], "internal_node_id": "0.0-101.0", "trial": 3, "time_elapsed": 590834, "serialpos": 8, "key_press": -1, "wordID": 962, "type": "PRES_AUD", "trial_index": 137}, "uniqueid": "MTK2936:320DUZ38G8T8TEXJ98YDZSMHFKZGJ7", "dateTime": 1519594118549}, {"current_trial": 138, "trialdata": {"rt": -1000, "trial_type": "single-audio", "word": "summit", "stimulus": "/static/audio/wordpool/SUMMIT.wav", "conditions": [12, 1600, "a", 12000], "internal_node_id": "0.0-102.0", "trial": 3, "time_elapsed": 593367, "serialpos": 9, "key_press": -1, "wordID": 1404, "type": "PRES_AUD", "trial_index": 138}, "uniqueid": "MTK2936:320DUZ38G8T8TEXJ98YDZSMHFKZGJ7", "dateTime": 1519594121081}, {"current_trial": 139, "trialdata": {"rt": -1000, "trial_type": "single-audio", "word": "mummy", "stimulus": "/static/audio/wordpool/MUMMY.wav", "conditions": [12, 1600, "a", 12000], "internal_node_id": "0.0-103.0", "trial": 3, "time_elapsed": 596025, "serialpos": 10, "key_press": -1, "wordID": 931, "type": "PRES_AUD", "trial_index": 139}, "uniqueid": "MTK2936:320DUZ38G8T8TEXJ98YDZSMHFKZGJ7", "dateTime": 1519594123739}, {"current_trial": 140, "trialdata": {"rt": -1000, "trial_type": "single-audio", "word": "pasta", "stimulus": "/static/audio/wordpool/PASTA.wav", "conditions": [12, 1600, "a", 12000], "internal_node_id": "0.0-104.0", "trial": 3, "time_elapsed": 598507, "serialpos": 11, "key_press": -1, "wordID": 1020, "type": "PRES_AUD", "trial_index": 140}, "uniqueid": "MTK2936:320DUZ38G8T8TEXJ98YDZSMHFKZGJ7", "dateTime": 1519594126221}, {"current_trial": 141, "trialdata": {"rt": -1, "trial_type": "single-stim", "stimulus": "", "internal_node_id": "0.0-105.0-0.0", "time_elapsed": 599799, "key_press": -1, "type": "PRE_RECALL_DELAY", "trial_index": 141}, "uniqueid": "MTK2936:320DUZ38G8T8TEXJ98YDZSMHFKZGJ7", "dateTime": 1519594127513}, {"current_trial": 142, "trialdata": {"rt": -1000, "trial_type": "single-audio", "stimulus": "/static/audio/400Hz.wav", "internal_node_id": "0.0-106.0", "time_elapsed": 600309, "key_press": -1, "type": "PRE_RECALL_ALERT", "trial_index": 142}, "uniqueid": "MTK2936:320DUZ38G8T8TEXJ98YDZSMHFKZGJ7", "dateTime": 1519594128023}, {"current_trial": 143, "trialdata": {"rt": [5245, 7957, 12855, 14863, 17493, 21950, 24151, 27566, 31877], "recwords": ["pasta", "mummy", "summit", "nurse", "denim", "flower", "pizza", "poet", "tuba"], "key_times": [2877, 3166, 4174, 4398, 4501, 4797, 5037, 5245, 6870, 7133, 7397, 7565, 7686, 7957, 10670, 11005, 11357, 11493, 11797, 12013, 12855, 13814, 14078, 14317, 14525, 14653, 14863, 16429, 16589, 16773, 16933, 17133, 17493, 20141, 20317, 20485, 20709, 20837, 20990, 21950, 22990, 23181, 23557, 23717, 23934, 24151, 26789, 27045, 27205, 27341, 27566, 29629, 29837, 30078, 31453, 31877], "trial_type": "free-recall", "conditions": [12, 1600, "a", 12000], "internal_node_id": "0.0-107.0-0.0", "key_presses": [80, 83, 8, 65, 83, 84, 65, 13, 77, 85, 77, 77, 89, 13, 83, 85, 77, 77, 73, 84, 13, 78, 85, 82, 83, 69, 13, 68, 69, 78, 73, 77, 13, 70, 76, 79, 87, 69, 82, 13, 80, 73, 90, 90, 65, 13, 80, 79, 69, 84, 13, 84, 85, 66, 65, 13], "trial": 3, "time_elapsed": 660314, "type": "FREE_RECALL", "trial_index": 143}, "uniqueid": "MTK2936:320DUZ38G8T8TEXJ98YDZSMHFKZGJ7", "dateTime": 1519594188033}, {"current_trial": 144, "trialdata": {"rt": 863, "trial_type": "text", "internal_node_id": "0.0-108.0", "time_elapsed": 663183, "key_press": 32, "type": "INSTRUCTIONS", "trial_index": 144}, "uniqueid": "MTK2936:320DUZ38G8T8TEXJ98YDZSMHFKZGJ7", "dateTime": 1519594190897}, {"current_trial": 145, "trialdata": {"rt": [2620, 4844, 6804, 8420, 10172, 12100, 13660, 15620, 17212, 19652, 21828, 23948], "trial_type": "math-distractor", "key_times": [2277, 2428, 2620, 4444, 4636, 4844, 6445, 6612, 6804, 8061, 8220, 8420, 9805, 9980, 10172, 11732, 11916, 12100, 13293, 13485, 13660, 15204, 15396, 15620, 16956, 17212, 19293, 19444, 19652, 21533, 21628, 21828, 23380, 23652, 23948], "responses": ["23", "17", "13", "13", "21", "15", "13", "19", "6", "21", "20", "15"], "num2": [9, 6, 8, 1, 8, 8, 8, 3, 2, 9, 6, 9, 7], "num3": [5, 8, 4, 7, 5, 6, 1, 8, 1, 9, 8, 3, 6], "conditions": [12, 1600, "a", 24000], "internal_node_id": "0.0-109.0", "key_presses": [98, 99, 13, 97, 103, 13, 97, 99, 13, 97, 99, 13, 98, 97, 13, 97, 101, 13, 97, 99, 13, 97, 105, 13, 102, 13, 98, 97, 13, 98, 96, 13, 97, 101, 13], "trial": 4, "time_elapsed": 689187, "type": "DISTRACTOR", "trial_index": 145, "num1": [9, 3, 1, 5, 8, 1, 4, 8, 3, 3, 4, 3, 4]}, "uniqueid": "MTK2936:320DUZ38G8T8TEXJ98YDZSMHFKZGJ7", "dateTime": 1519594216901}, {"current_trial": 146, "trialdata": {"rt": -1, "trial_type": "single-stim", "stimulus": "<p id=\"stim\">10</p>", "internal_node_id": "0.0-110.0-0.0", "time_elapsed": 692189, "key_press": -1, "trial_index": 146}, "uniqueid": "MTK2936:320DUZ38G8T8TEXJ98YDZSMHFKZGJ7", "dateTime": 1519594219903}, {"current_trial": 147, "trialdata": {"rt": -1, "trial_type": "single-stim", "stimulus": "<p id=\"stim\">9</p>", "internal_node_id": "0.0-110.0-1.0", "time_elapsed": 693191, "key_press": -1, "trial_index": 147}, "uniqueid": "MTK2936:320DUZ38G8T8TEXJ98YDZSMHFKZGJ7", "dateTime": 1519594220906}, {"current_trial": 148, "trialdata": {"rt": -1, "trial_type": "single-stim", "stimulus": "<p id=\"stim\">8</p>", "internal_node_id": "0.0-110.0-2.0", "time_elapsed": 694193, "key_press": -1, "trial_index": 148}, "uniqueid": "MTK2936:320DUZ38G8T8TEXJ98YDZSMHFKZGJ7", "dateTime": 1519594221907}, {"current_trial": 149, "trialdata": {"rt": -1, "trial_type": "single-stim", "stimulus": "<p id=\"stim\">7</p>", "internal_node_id": "0.0-110.0-3.0", "time_elapsed": 695196, "key_press": -1, "trial_index": 149}, "uniqueid": "MTK2936:320DUZ38G8T8TEXJ98YDZSMHFKZGJ7", "dateTime": 1519594222910}, {"current_trial": 150, "trialdata": {"rt": -1, "trial_type": "single-stim", "stimulus": "<p id=\"stim\">6</p>", "internal_node_id": "0.0-110.0-4.0", "time_elapsed": 696197, "key_press": -1, "trial_index": 150}, "uniqueid": "MTK2936:320DUZ38G8T8TEXJ98YDZSMHFKZGJ7", "dateTime": 1519594223911}, {"current_trial": 151, "trialdata": {"rt": -1, "trial_type": "single-stim", "stimulus": "<p id=\"stim\">5</p>", "internal_node_id": "0.0-110.0-5.0", "time_elapsed": 697199, "key_press": -1, "trial_index": 151}, "uniqueid": "MTK2936:320DUZ38G8T8TEXJ98YDZSMHFKZGJ7", "dateTime": 1519594224913}, {"current_trial": 152, "trialdata": {"rt": -1, "trial_type": "single-stim", "stimulus": "<p id=\"stim\">4</p>", "internal_node_id": "0.0-110.0-6.0", "time_elapsed": 698201, "key_press": -1, "trial_index": 152}, "uniqueid": "MTK2936:320DUZ38G8T8TEXJ98YDZSMHFKZGJ7", "dateTime": 1519594225915}, {"current_trial": 153, "trialdata": {"rt": -1, "trial_type": "single-stim", "stimulus": "<p id=\"stim\">3</p>", "internal_node_id": "0.0-110.0-7.0", "time_elapsed": 699202, "key_press": -1, "trial_index": 153}, "uniqueid": "MTK2936:320DUZ38G8T8TEXJ98YDZSMHFKZGJ7", "dateTime": 1519594226916}, {"current_trial": 154, "trialdata": {"rt": -1, "trial_type": "single-stim", "stimulus": "<p id=\"stim\">2</p>", "internal_node_id": "0.0-110.0-8.0", "time_elapsed": 700204, "key_press": -1, "trial_index": 154}, "uniqueid": "MTK2936:320DUZ38G8T8TEXJ98YDZSMHFKZGJ7", "dateTime": 1519594227919}, {"current_trial": 155, "trialdata": {"rt": -1, "trial_type": "single-stim", "stimulus": "<p id=\"stim\">1</p>", "internal_node_id": "0.0-110.0-9.0", "time_elapsed": 701205, "key_press": -1, "trial_index": 155}, "uniqueid": "MTK2936:320DUZ38G8T8TEXJ98YDZSMHFKZGJ7", "dateTime": 1519594228920}, {"current_trial": 156, "trialdata": {"rt": -1, "trial_type": "single-stim", "stimulus": "<p id=\"stim\">+</p>", "internal_node_id": "0.0-111.0-0.0", "time_elapsed": 702708, "key_press": -1, "type": "FIXATION", "trial_index": 156}, "uniqueid": "MTK2936:320DUZ38G8T8TEXJ98YDZSMHFKZGJ7", "dateTime": 1519594230422}, {"current_trial": 157, "trialdata": {"rt": -1000, "trial_type": "single-audio", "word": "champagne", "stimulus": "/static/audio/wordpool/CHAMPAGNE.wav", "conditions": [12, 1600, "a", 24000], "internal_node_id": "0.0-112.0", "trial": 4, "time_elapsed": 705288, "serialpos": 0, "key_press": -1, "wordID": 277, "type": "PRES_AUD", "trial_index": 157}, "uniqueid": "MTK2936:320DUZ38G8T8TEXJ98YDZSMHFKZGJ7", "dateTime": 1519594233003}, {"current_trial": 158, "trialdata": {"rt": -1000, "trial_type": "single-audio", "word": "airplane", "stimulus": "/static/audio/wordpool/AIRPLANE.wav", "conditions": [12, 1600, "a", 24000], "internal_node_id": "0.0-113.0", "trial": 4, "time_elapsed": 707902, "serialpos": 1, "key_press": -1, "wordID": 11, "type": "PRES_AUD", "trial_index": 158}, "uniqueid": "MTK2936:320DUZ38G8T8TEXJ98YDZSMHFKZGJ7", "dateTime": 1519594235616}, {"current_trial": 159, "trialdata": {"rt": -1000, "trial_type": "single-audio", "word": "rooster", "stimulus": "/static/audio/wordpool/ROOSTER.wav", "conditions": [12, 1600, "a", 24000], "internal_node_id": "0.0-114.0", "trial": 4, "time_elapsed": 710380, "serialpos": 2, "key_press": -1, "wordID": 1208, "type": "PRES_AUD", "trial_index": 159}, "uniqueid": "MTK2936:320DUZ38G8T8TEXJ98YDZSMHFKZGJ7", "dateTime": 1519594238096}, {"current_trial": 160, "trialdata": {"rt": -1000, "trial_type": "single-audio", "word": "clothes", "stimulus": "/static/audio/wordpool/CLOTHES.wav", "conditions": [12, 1600, "a", 24000], "internal_node_id": "0.0-115.0", "trial": 4, "time_elapsed": 712811, "serialpos": 3, "key_press": -1, "wordID": 326, "type": "PRES_AUD", "trial_index": 160}, "uniqueid": "MTK2936:320DUZ38G8T8TEXJ98YDZSMHFKZGJ7", "dateTime": 1519594240525}, {"current_trial": 161, "trialdata": {"rt": -1000, "trial_type": "single-audio", "word": "swimmer", "stimulus": "/static/audio/wordpool/SWIMMER.wav", "conditions": [12, 1600, "a", 24000], "internal_node_id": "0.0-116.0", "trial": 4, "time_elapsed": 715320, "serialpos": 4, "key_press": -1, "wordID": 1419, "type": "PRES_AUD", "trial_index": 161}, "uniqueid": "MTK2936:320DUZ38G8T8TEXJ98YDZSMHFKZGJ7", "dateTime": 1519594243034}, {"current_trial": 162, "trialdata": {"rt": -1000, "trial_type": "single-audio", "word": "gymnast", "stimulus": "/static/audio/wordpool/GYMNAST.wav", "conditions": [12, 1600, "a", 24000], "internal_node_id": "0.0-117.0", "trial": 4, "time_elapsed": 717794, "serialpos": 5, "key_press": -1, "wordID": 674, "type": "PRES_AUD", "trial_index": 162}, "uniqueid": "MTK2936:320DUZ38G8T8TEXJ98YDZSMHFKZGJ7", "dateTime": 1519594245508}, {"current_trial": 163, "trialdata": {"rt": -1000, "trial_type": "single-audio", "word": "glove", "stimulus": "/static/audio/wordpool/GLOVE.wav", "conditions": [12, 1600, "a", 24000], "internal_node_id": "0.0-118.0", "trial": 4, "time_elapsed": 720225, "serialpos": 6, "key_press": -1, "wordID": 641, "type": "PRES_AUD", "trial_index": 163}, "uniqueid": "MTK2936:320DUZ38G8T8TEXJ98YDZSMHFKZGJ7", "dateTime": 1519594247939}, {"current_trial": 164, "trialdata": {"rt": -1000, "trial_type": "single-audio", "word": "bureau", "stimulus": "/static/audio/wordpool/BUREAU.wav", "conditions": [12, 1600, "a", 24000], "internal_node_id": "0.0-119.0", "trial": 4, "time_elapsed": 722711, "serialpos": 7, "key_press": -1, "wordID": 198, "type": "PRES_AUD", "trial_index": 164}, "uniqueid": "MTK2936:320DUZ38G8T8TEXJ98YDZSMHFKZGJ7", "dateTime": 1519594250425}, {"current_trial": 165, "trialdata": {"rt": -1000, "trial_type": "single-audio", "word": "handbag", "stimulus": "/static/audio/wordpool/HANDBAG.wav", "conditions": [12, 1600, "a", 24000], "internal_node_id": "0.0-120.0", "trial": 4, "time_elapsed": 725211, "serialpos": 8, "key_press": -1, "wordID": 683, "type": "PRES_AUD", "trial_index": 165}, "uniqueid": "MTK2936:320DUZ38G8T8TEXJ98YDZSMHFKZGJ7", "dateTime": 1519594252925}, {"current_trial": 166, "trialdata": {"rt": -1000, "trial_type": "single-audio", "word": "quail", "stimulus": "/static/audio/wordpool/QUAIL.wav", "conditions": [12, 1600, "a", 24000], "internal_node_id": "0.0-121.0", "trial": 4, "time_elapsed": 727732, "serialpos": 9, "key_press": -1, "wordID": 1146, "type": "PRES_AUD", "trial_index": 166}, "uniqueid": "MTK2936:320DUZ38G8T8TEXJ98YDZSMHFKZGJ7", "dateTime": 1519594255446}, {"current_trial": 167, "trialdata": {"rt": -1000, "trial_type": "single-audio", "word": "brandy", "stimulus": "/static/audio/wordpool/BRANDY.wav", "conditions": [12, 1600, "a", 24000], "internal_node_id": "0.0-122.0", "trial": 4, "time_elapsed": 730208, "serialpos": 10, "key_press": -1, "wordID": 168, "type": "PRES_AUD", "trial_index": 167}, "uniqueid": "MTK2936:320DUZ38G8T8TEXJ98YDZSMHFKZGJ7", "dateTime": 1519594257922}, {"current_trial": 168, "trialdata": {"rt": -1000, "trial_type": "single-audio", "word": "necklace", "stimulus": "/static/audio/wordpool/NECKLACE.wav", "conditions": [12, 1600, "a", 24000], "internal_node_id": "0.0-123.0", "trial": 4, "time_elapsed": 732780, "serialpos": 11, "key_press": -1, "wordID": 939, "type": "PRES_AUD", "trial_index": 168}, "uniqueid": "MTK2936:320DUZ38G8T8TEXJ98YDZSMHFKZGJ7", "dateTime": 1519594260494}, {"current_trial": 169, "trialdata": {"rt": -1, "trial_type": "single-stim", "stimulus": "", "internal_node_id": "0.0-124.0-0.0", "time_elapsed": 734131, "key_press": -1, "type": "PRE_RECALL_DELAY", "trial_index": 169}, "uniqueid": "MTK2936:320DUZ38G8T8TEXJ98YDZSMHFKZGJ7", "dateTime": 1519594261845}, {"current_trial": 170, "trialdata": {"rt": -1000, "trial_type": "single-audio", "stimulus": "/static/audio/400Hz.wav", "internal_node_id": "0.0-125.0", "time_elapsed": 734632, "key_press": -1, "type": "PRE_RECALL_ALERT", "trial_index": 170}, "uniqueid": "MTK2936:320DUZ38G8T8TEXJ98YDZSMHFKZGJ7", "dateTime": 1519594262346}, {"current_trial": 171, "trialdata": {"rt": [4899, 6741, 9629, 14756, 19301, 24660, 33029, 45900], "recwords": ["necklace", "brandy", "quail", "swimmer", "glove", "airplane", "bureau", "champagne"], "key_times": [2893, 3091, 3363, 3531, 4019, 4228, 4476, 4659, 4899, 5643, 5835, 6003, 6156, 6291, 6571, 6741, 8436, 8636, 8883, 9019, 9243, 9629, 11587, 11771, 11915, 12091, 12716, 12988, 13155, 13363, 14108, 14251, 14380, 14756, 17876, 18043, 18228, 18691, 18859, 19301, 22331, 22523, 22667, 23428, 23611, 23756, 24276, 24428, 24660, 28012, 28635, 28868, 29028, 29412, 32004, 33029, 42741, 43028, 43324, 43540, 44117, 44444, 44867, 45004, 45139, 45900], "trial_type": "free-recall", "conditions": [12, 1600, "a", 24000], "internal_node_id": "0.0-126.0-0.0", "key_presses": [78, 69, 67, 75, 76, 65, 67, 69, 13, 66, 82, 65, 78, 68, 89, 13, 81, 85, 65, 73, 76, 13, 83, 87, 73, 73, 8, 77, 77, 82, 8, 69, 82, 32, 71, 76, 79, 86, 69, 13, 65, 73, 82, 80, 76, 65, 78, 69, 13, 66, 85, 82, 69, 65, 85, 13, 67, 72, 65, 77, 80, 65, 71, 78, 69, 13], "trial": 4, "time_elapsed": 794636, "type": "FREE_RECALL", "trial_index": 171}, "uniqueid": "MTK2936:320DUZ38G8T8TEXJ98YDZSMHFKZGJ7", "dateTime": 1519594322353}, {"current_trial": 172, "trialdata": {"rt": 480, "trial_type": "text", "internal_node_id": "0.0-127.0", "time_elapsed": 797120, "key_press": 32, "type": "INSTRUCTIONS", "trial_index": 172}, "uniqueid": "MTK2936:320DUZ38G8T8TEXJ98YDZSMHFKZGJ7", "dateTime": 1519594324834}, {"current_trial": 173, "trialdata": {"rt": [1724, 3236, 5036, 6660, 8380, 9932, 11460], "trial_type": "math-distractor", "key_times": [1236, 1444, 1724, 2964, 3044, 3236, 4692, 4860, 5036, 6316, 6484, 6660, 8005, 8204, 8380, 9500, 9732, 9932, 11076, 11260, 11460], "responses": ["17", "10", "16", "15", "14", "12", "14"], "num2": [7, 4, 6, 5, 7, 8, 6, 9], "num3": [5, 1, 5, 6, 2, 2, 1, 1], "conditions": [24, 800, "a", 12000], "internal_node_id": "0.0-128.0", "key_presses": [97, 103, 13, 97, 96, 13, 97, 102, 13, 97, 101, 13, 97, 100, 13, 97, 98, 13, 97, 100, 13], "trial": 5, "time_elapsed": 811123, "type": "DISTRACTOR", "trial_index": 173, "num1": [5, 5, 5, 4, 5, 2, 7, 3]}, "uniqueid": "MTK2936:320DUZ38G8T8TEXJ98YDZSMHFKZGJ7", "dateTime": 1519594338838}, {"current_trial": 174, "trialdata": {"rt": -1, "trial_type": "single-stim", "stimulus": "<p id=\"stim\">10</p>", "internal_node_id": "0.0-129.0-0.0", "time_elapsed": 814125, "key_press": -1, "trial_index": 174}, "uniqueid": "MTK2936:320DUZ38G8T8TEXJ98YDZSMHFKZGJ7", "dateTime": 1519594341839}, {"current_trial": 175, "trialdata": {"rt": -1, "trial_type": "single-stim", "stimulus": "<p id=\"stim\">9</p>", "internal_node_id": "0.0-129.0-1.0", "time_elapsed": 815127, "key_press": -1, "trial_index": 175}, "uniqueid": "MTK2936:320DUZ38G8T8TEXJ98YDZSMHFKZGJ7", "dateTime": 1519594342841}, {"current_trial": 176, "trialdata": {"rt": -1, "trial_type": "single-stim", "stimulus": "<p id=\"stim\">8</p>", "internal_node_id": "0.0-129.0-2.0", "time_elapsed": 816128, "key_press": -1, "trial_index": 176}, "uniqueid": "MTK2936:320DUZ38G8T8TEXJ98YDZSMHFKZGJ7", "dateTime": 1519594343842}, {"current_trial": 177, "trialdata": {"rt": -1, "trial_type": "single-stim", "stimulus": "<p id=\"stim\">7</p>", "internal_node_id": "0.0-129.0-3.0", "time_elapsed": 817131, "key_press": -1, "trial_index": 177}, "uniqueid": "MTK2936:320DUZ38G8T8TEXJ98YDZSMHFKZGJ7", "dateTime": 1519594344845}, {"current_trial": 178, "trialdata": {"rt": -1, "trial_type": "single-stim", "stimulus": "<p id=\"stim\">6</p>", "internal_node_id": "0.0-129.0-4.0", "time_elapsed": 818132, "key_press": -1, "trial_index": 178}, "uniqueid": "MTK2936:320DUZ38G8T8TEXJ98YDZSMHFKZGJ7", "dateTime": 1519594345846}, {"current_trial": 179, "trialdata": {"rt": -1, "trial_type": "single-stim", "stimulus": "<p id=\"stim\">5</p>", "internal_node_id": "0.0-129.0-5.0", "time_elapsed": 819134, "key_press": -1, "trial_index": 179}, "uniqueid": "MTK2936:320DUZ38G8T8TEXJ98YDZSMHFKZGJ7", "dateTime": 1519594346849}, {"current_trial": 180, "trialdata": {"rt": -1, "trial_type": "single-stim", "stimulus": "<p id=\"stim\">4</p>", "internal_node_id": "0.0-129.0-6.0", "time_elapsed": 820137, "key_press": -1, "trial_index": 180}, "uniqueid": "MTK2936:320DUZ38G8T8TEXJ98YDZSMHFKZGJ7", "dateTime": 1519594347851}, {"current_trial": 181, "trialdata": {"rt": -1, "trial_type": "single-stim", "stimulus": "<p id=\"stim\">3</p>", "internal_node_id": "0.0-129.0-7.0", "time_elapsed": 821140, "key_press": -1, "trial_index": 181}, "uniqueid": "MTK2936:320DUZ38G8T8TEXJ98YDZSMHFKZGJ7", "dateTime": 1519594348854}, {"current_trial": 182, "trialdata": {"rt": -1, "trial_type": "single-stim", "stimulus": "<p id=\"stim\">2</p>", "internal_node_id": "0.0-129.0-8.0", "time_elapsed": 822141, "key_press": -1, "trial_index": 182}, "uniqueid": "MTK2936:320DUZ38G8T8TEXJ98YDZSMHFKZGJ7", "dateTime": 1519594349855}, {"current_trial": 183, "trialdata": {"rt": -1, "trial_type": "single-stim", "stimulus": "<p id=\"stim\">1</p>", "internal_node_id": "0.0-129.0-9.0", "time_elapsed": 823144, "key_press": -1, "trial_index": 183}, "uniqueid": "MTK2936:320DUZ38G8T8TEXJ98YDZSMHFKZGJ7", "dateTime": 1519594350858}, {"current_trial": 184, "trialdata": {"rt": -1, "trial_type": "single-stim", "stimulus": "<p id=\"stim\">+</p>", "internal_node_id": "0.0-130.0-0.0", "time_elapsed": 824645, "key_press": -1, "type": "FIXATION", "trial_index": 184}, "uniqueid": "MTK2936:320DUZ38G8T8TEXJ98YDZSMHFKZGJ7", "dateTime": 1519594352359}, {"current_trial": 185, "trialdata": {"rt": -1000, "trial_type": "single-audio", "word": "parsley", "stimulus": "/static/audio/wordpool/PARSLEY.wav", "conditions": [24, 800, "a", 12000], "internal_node_id": "0.0-131.0", "trial": 5, "time_elapsed": 826361, "serialpos": 0, "key_press": -1, "wordID": 1015, "type": "PRES_AUD", "trial_index": 185}, "uniqueid": "MTK2936:320DUZ38G8T8TEXJ98YDZSMHFKZGJ7", "dateTime": 1519594354075}, {"current_trial": 186, "trialdata": {"rt": -1000, "trial_type": "single-audio", "word": "helmet", "stimulus": "/static/audio/wordpool/HELMET.wav", "conditions": [24, 800, "a", 12000], "internal_node_id": "0.0-132.0", "trial": 5, "time_elapsed": 828081, "serialpos": 1, "key_press": -1, "wordID": 701, "type": "PRES_AUD", "trial_index": 186}, "uniqueid": "MTK2936:320DUZ38G8T8TEXJ98YDZSMHFKZGJ7", "dateTime": 1519594355795}, {"current_trial": 187, "trialdata": {"rt": -1000, "trial_type": "single-audio", "word": "stamp", "stimulus": "/static/audio/wordpool/STAMP.wav", "conditions": [24, 800, "a", 12000], "internal_node_id": "0.0-133.0", "trial": 5, "time_elapsed": 829853, "serialpos": 2, "key_press": -1, "wordID": 1369, "type": "PRES_AUD", "trial_index": 187}, "uniqueid": "MTK2936:320DUZ38G8T8TEXJ98YDZSMHFKZGJ7", "dateTime": 1519594357567}, {"current_trial": 188, "trialdata": {"rt": -1000, "trial_type": "single-audio", "word": "orange", "stimulus": "/static/audio/wordpool/ORANGE.wav", "conditions": [24, 800, "a", 12000], "internal_node_id": "0.0-134.0", "trial": 5, "time_elapsed": 831744, "serialpos": 3, "key_press": -1, "wordID": 979, "type": "PRES_AUD", "trial_index": 188}, "uniqueid": "MTK2936:320DUZ38G8T8TEXJ98YDZSMHFKZGJ7", "dateTime": 1519594359458}, {"current_trial": 189, "trialdata": {"rt": -1000, "trial_type": "single-audio", "word": "termite", "stimulus": "/static/audio/wordpool/TERMITE.wav", "conditions": [24, 800, "a", 12000], "internal_node_id": "0.0-135.0", "trial": 5, "time_elapsed": 833619, "serialpos": 4, "key_press": -1, "wordID": 1450, "type": "PRES_AUD", "trial_index": 189}, "uniqueid": "MTK2936:320DUZ38G8T8TEXJ98YDZSMHFKZGJ7", "dateTime": 1519594361334}, {"current_trial": 190, "trialdata": {"rt": -1000, "trial_type": "single-audio", "word": "bug", "stimulus": "/static/audio/wordpool/BUG.wav", "conditions": [24, 800, "a", 12000], "internal_node_id": "0.0-136.0", "trial": 5, "time_elapsed": 835236, "serialpos": 5, "key_press": -1, "wordID": 186, "type": "PRES_AUD", "trial_index": 190}, "uniqueid": "MTK2936:320DUZ38G8T8TEXJ98YDZSMHFKZGJ7", "dateTime": 1519594362950}, {"current_trial": 191, "trialdata": {"rt": -1000, "trial_type": "single-audio", "word": "virus", "stimulus": "/static/audio/wordpool/VIRUS.wav", "conditions": [24, 800, "a", 12000], "internal_node_id": "0.0-137.0", "trial": 5, "time_elapsed": 837236, "serialpos": 6, "key_press": -1, "wordID": 1571, "type": "PRES_AUD", "trial_index": 191}, "uniqueid": "MTK2936:320DUZ38G8T8TEXJ98YDZSMHFKZGJ7", "dateTime": 1519594364950}, {"current_trial": 192, "trialdata": {"rt": -1000, "trial_type": "single-audio", "word": "driver", "stimulus": "/static/audio/wordpool/DRIVER.wav", "conditions": [24, 800, "a", 12000], "internal_node_id": "0.0-138.0", "trial": 5, "time_elapsed": 839177, "serialpos": 7, "key_press": -1, "wordID": 498, "type": "PRES_AUD", "trial_index": 192}, "uniqueid": "MTK2936:320DUZ38G8T8TEXJ98YDZSMHFKZGJ7", "dateTime": 1519594366891}, {"current_trial": 193, "trialdata": {"rt": -1000, "trial_type": "single-audio", "word": "witness", "stimulus": "/static/audio/wordpool/WITNESS.wav", "conditions": [24, 800, "a", 12000], "internal_node_id": "0.0-139.0", "trial": 5, "time_elapsed": 841110, "serialpos": 8, "key_press": -1, "wordID": 1617, "type": "PRES_AUD", "trial_index": 193}, "uniqueid": "MTK2936:320DUZ38G8T8TEXJ98YDZSMHFKZGJ7", "dateTime": 1519594368824}, {"current_trial": 194, "trialdata": {"rt": -1000, "trial_type": "single-audio", "word": "garlic", "stimulus": "/static/audio/wordpool/GARLIC.wav", "conditions": [24, 800, "a", 12000], "internal_node_id": "0.0-140.0", "trial": 5, "time_elapsed": 842758, "serialpos": 9, "key_press": -1, "wordID": 623, "type": "PRES_AUD", "trial_index": 194}, "uniqueid": "MTK2936:320DUZ38G8T8TEXJ98YDZSMHFKZGJ7", "dateTime": 1519594370472}, {"current_trial": 195, "trialdata": {"rt": -1000, "trial_type": "single-audio", "word": "label", "stimulus": "/static/audio/wordpool/LABEL.wav", "conditions": [24, 800, "a", 12000], "internal_node_id": "0.0-141.0", "trial": 5, "time_elapsed": 844698, "serialpos": 10, "key_press": -1, "wordID": 789, "type": "PRES_AUD", "trial_index": 195}, "uniqueid": "MTK2936:320DUZ38G8T8TEXJ98YDZSMHFKZGJ7", "dateTime": 1519594372413}, {"current_trial": 196, "trialdata": {"rt": -1000, "trial_type": "single-audio", "word": "church", "stimulus": "/static/audio/wordpool/CHURCH.wav", "conditions": [24, 800, "a", 12000], "internal_node_id": "0.0-142.0", "trial": 5, "time_elapsed": 846565, "serialpos": 11, "key_press": -1, "wordID": 306, "type": "PRES_AUD", "trial_index": 196}, "uniqueid": "MTK2936:320DUZ38G8T8TEXJ98YDZSMHFKZGJ7", "dateTime": 1519594374279}, {"current_trial": 197, "trialdata": {"rt": -1000, "trial_type": "single-audio", "word": "france", "stimulus": "/static/audio/wordpool/FRANCE.wav", "conditions": [24, 800, "a", 12000], "internal_node_id": "0.0-143.0", "trial": 5, "time_elapsed": 848466, "serialpos": 12, "key_press": -1, "wordID": 600, "type": "PRES_AUD", "trial_index": 197}, "uniqueid": "MTK2936:320DUZ38G8T8TEXJ98YDZSMHFKZGJ7", "dateTime": 1519594376180}, {"current_trial": 198, "trialdata": {"rt": -1000, "trial_type": "single-audio", "word": "mammal", "stimulus": "/static/audio/wordpool/MAMMAL.wav", "conditions": [24, 800, "a", 12000], "internal_node_id": "0.0-144.0", "trial": 5, "time_elapsed": 850128, "serialpos": 13, "key_press": -1, "wordID": 860, "type": "PRES_AUD", "trial_index": 198}, "uniqueid": "MTK2936:320DUZ38G8T8TEXJ98YDZSMHFKZGJ7", "dateTime": 1519594377842}, {"current_trial": 199, "trialdata": {"rt": -1000, "trial_type": "single-audio", "word": "dress", "stimulus": "/static/audio/wordpool/DRESS.wav", "conditions": [24, 800, "a", 12000], "internal_node_id": "0.0-145.0", "trial": 5, "time_elapsed": 851958, "serialpos": 14, "key_press": -1, "wordID": 494, "type": "PRES_AUD", "trial_index": 199}, "uniqueid": "MTK2936:320DUZ38G8T8TEXJ98YDZSMHFKZGJ7", "dateTime": 1519594379672}, {"current_trial": 200, "trialdata": {"rt": -1000, "trial_type": "single-audio", "word": "coffee", "stimulus": "/static/audio/wordpool/COFFEE.wav", "conditions": [24, 800, "a", 12000], "internal_node_id": "0.0-146.0", "trial": 5, "time_elapsed": 853689, "serialpos": 15, "key_press": -1, "wordID": 340, "type": "PRES_AUD", "trial_index": 200}, "uniqueid": "MTK2936:320DUZ38G8T8TEXJ98YDZSMHFKZGJ7", "dateTime": 1519594381403}, {"current_trial": 201, "trialdata": {"rt": -1000, "trial_type": "single-audio", "word": "outlaw", "stimulus": "/static/audio/wordpool/OUTLAW.wav", "conditions": [24, 800, "a", 12000], "internal_node_id": "0.0-147.0", "trial": 5, "time_elapsed": 855482, "serialpos": 16, "key_press": -1, "wordID": 988, "type": "PRES_AUD", "trial_index": 201}, "uniqueid": "MTK2936:320DUZ38G8T8TEXJ98YDZSMHFKZGJ7", "dateTime": 1519594383196}, {"current_trial": 202, "trialdata": {"rt": -1000, "trial_type": "single-audio", "word": "stallion", "stimulus": "/static/audio/wordpool/STALLION.wav", "conditions": [24, 800, "a", 12000], "internal_node_id": "0.0-148.0", "trial": 5, "time_elapsed": 857290, "serialpos": 17, "key_press": -1, "wordID": 1368, "type": "PRES_AUD", "trial_index": 202}, "uniqueid": "MTK2936:320DUZ38G8T8TEXJ98YDZSMHFKZGJ7", "dateTime": 1519594385005}, {"current_trial": 203, "trialdata": {"rt": -1000, "trial_type": "single-audio", "word": "eyelash", "stimulus": "/static/audio/wordpool/EYELASH.wav", "conditions": [24, 800, "a", 12000], "internal_node_id": "0.0-149.0", "trial": 5, "time_elapsed": 859237, "serialpos": 18, "key_press": -1, "wordID": 545, "type": "PRES_AUD", "trial_index": 203}, "uniqueid": "MTK2936:320DUZ38G8T8TEXJ98YDZSMHFKZGJ7", "dateTime": 1519594386952}, {"current_trial": 204, "trialdata": {"rt": -1000, "trial_type": "single-audio", "word": "diner", "stimulus": "/static/audio/wordpool/DINER.wav", "conditions": [24, 800, "a", 12000], "internal_node_id": "0.0-150.0", "trial": 5, "time_elapsed": 861250, "serialpos": 19, "key_press": -1, "wordID": 466, "type": "PRES_AUD", "trial_index": 204}, "uniqueid": "MTK2936:320DUZ38G8T8TEXJ98YDZSMHFKZGJ7", "dateTime": 1519594388965}, {"current_trial": 205, "trialdata": {"rt": -1000, "trial_type": "single-audio", "word": "worker", "stimulus": "/static/audio/wordpool/WORKER.wav", "conditions": [24, 800, "a", 12000], "internal_node_id": "0.0-151.0", "trial": 5, "time_elapsed": 862911, "serialpos": 20, "key_press": -1, "wordID": 1620, "type": "PRES_AUD", "trial_index": 205}, "uniqueid": "MTK2936:320DUZ38G8T8TEXJ98YDZSMHFKZGJ7", "dateTime": 1519594390626}, {"current_trial": 206, "trialdata": {"rt": -1000, "trial_type": "single-audio", "word": "skirt", "stimulus": "/static/audio/wordpool/SKIRT.wav", "conditions": [24, 800, "a", 12000], "internal_node_id": "0.0-152.0", "trial": 5, "time_elapsed": 864790, "serialpos": 21, "key_press": -1, "wordID": 1318, "type": "PRES_AUD", "trial_index": 206}, "uniqueid": "MTK2936:320DUZ38G8T8TEXJ98YDZSMHFKZGJ7", "dateTime": 1519594392504}, {"current_trial": 207, "trialdata": {"rt": -1000, "trial_type": "single-audio", "word": "missile", "stimulus": "/static/audio/wordpool/MISSILE.wav", "conditions": [24, 800, "a", 12000], "internal_node_id": "0.0-153.0", "trial": 5, "time_elapsed": 866757, "serialpos": 22, "key_press": -1, "wordID": 899, "type": "PRES_AUD", "trial_index": 207}, "uniqueid": "MTK2936:320DUZ38G8T8TEXJ98YDZSMHFKZGJ7", "dateTime": 1519594394471}, {"current_trial": 208, "trialdata": {"rt": -1000, "trial_type": "single-audio", "word": "rocket", "stimulus": "/static/audio/wordpool/ROCKET.wav", "conditions": [24, 800, "a", 12000], "internal_node_id": "0.0-154.0", "trial": 5, "time_elapsed": 868529, "serialpos": 23, "key_press": -1, "wordID": 1201, "type": "PRES_AUD", "trial_index": 208}, "uniqueid": "MTK2936:320DUZ38G8T8TEXJ98YDZSMHFKZGJ7", "dateTime": 1519594396243}, {"current_trial": 209, "trialdata": {"rt": -1, "trial_type": "single-stim", "stimulus": "", "internal_node_id": "0.0-155.0-0.0", "time_elapsed": 869806, "key_press": -1, "type": "PRE_RECALL_DELAY", "trial_index": 209}, "uniqueid": "MTK2936:320DUZ38G8T8TEXJ98YDZSMHFKZGJ7", "dateTime": 1519594397520}, {"current_trial": 210, "trialdata": {"rt": -1000, "trial_type": "single-audio", "stimulus": "/static/audio/400Hz.wav", "internal_node_id": "0.0-156.0", "time_elapsed": 870314, "key_press": -1, "type": "PRE_RECALL_ALERT", "trial_index": 210}, "uniqueid": "MTK2936:320DUZ38G8T8TEXJ98YDZSMHFKZGJ7", "dateTime": 1519594398028}, {"current_trial": 211, "trialdata": {"rt": [6556, 9573, 12460, 14572, 16604, 24908, 29533, 37238, 40766, 45181, 54317], "recwords": ["rocket", "missile", "skirt", "worker", "eyelash", "church", "orange", "outlaw", "france", "termite", "helmet"], "key_times": [5308, 5795, 5932, 6051, 6227, 6403, 6556, 7267, 7555, 7764, 7915, 8219, 8723, 8939, 9573, 10923, 11219, 11387, 11667, 11803, 12460, 13260, 13451, 13731, 13955, 14091, 14211, 14572, 15011, 15267, 15427, 15611, 15827, 15931, 16123, 16604, 22148, 22411, 22891, 23051, 23411, 24099, 24339, 24468, 24908, 28037, 28252, 28435, 28995, 29132, 29316, 29533, 35843, 36020, 36236, 36404, 36651, 36836, 37238, 39756, 39964, 40148, 40308, 40412, 40540, 40766, 44171, 44396, 44500, 44596, 44771, 44868, 45012, 45181, 52581, 53189, 53435, 53627, 53836, 54011, 54317], "trial_type": "free-recall", "conditions": [24, 800, "a", 12000], "internal_node_id": "0.0-157.0-0.0", "key_presses": [82, 79, 67, 75, 69, 84, 13, 77, 73, 83, 83, 73, 76, 69, 13, 83, 75, 73, 82, 84, 13, 87, 79, 82, 75, 69, 82, 13, 69, 89, 69, 76, 65, 83, 72, 13, 67, 72, 85, 82, 72, 8, 67, 72, 13, 79, 82, 65, 78, 71, 69, 13, 79, 85, 84, 76, 65, 87, 13, 70, 82, 65, 78, 67, 69, 13, 84, 69, 82, 77, 73, 84, 69, 13, 72, 69, 76, 77, 69, 84, 13], "trial": 5, "time_elapsed": 930317, "type": "FREE_RECALL", "trial_index": 211}, "uniqueid": "MTK2936:320DUZ38G8T8TEXJ98YDZSMHFKZGJ7", "dateTime": 1519594458035}, {"current_trial": 212, "trialdata": {"rt": 652, "trial_type": "text", "internal_node_id": "0.0-158.0", "time_elapsed": 932975, "key_press": 32, "type": "INSTRUCTIONS", "trial_index": 212}, "uniqueid": "MTK2936:320DUZ38G8T8TEXJ98YDZSMHFKZGJ7", "dateTime": 1519594460689}, {"current_trial": 213, "trialdata": {"rt": [1388, 3324, 4900, 6684, 8060, 9980, 11620, 14212, 16012, 17644, 19140, 21756], "trial_type": "math-distractor", "key_times": [1005, 1212, 1388, 2971, 3164, 3324, 4396, 4668, 4900, 6379, 6476, 6684, 7716, 7860, 8060, 9556, 9780, 9980, 11212, 11411, 11620, 13851, 14028, 14212, 15660, 15835, 16012, 17213, 17467, 17644, 18772, 18964, 19140, 21301, 21572, 21756, 23252, 23852], "responses": ["12", "15", "16", "10", "11", "15", "13", "21", "14", "14", "14", "16"], "num2": [6, 1, 5, 1, 2, 5, 4, 8, 3, 9, 8, 7, 2], "num3": [1, 9, 4, 6, 1, 6, 5, 9, 7, 2, 4, 4, 9], "conditions": [12, 1600, "a", 24000], "internal_node_id": "0.0-159.0", "key_presses": [97, 98, 13, 97, 101, 13, 97, 102, 13, 97, 96, 13, 97, 97, 13, 97, 101, 13, 97, 99, 13, 98, 97, 13, 97, 100, 13, 97, 100, 13, 97, 100, 13, 97, 102, 13, 97, 100], "trial": 6, "time_elapsed": 958981, "type": "DISTRACTOR", "trial_index": 213, "num1": [5, 5, 7, 3, 8, 4, 4, 4, 4, 3, 2, 5, 3]}, "uniqueid": "MTK2936:320DUZ38G8T8TEXJ98YDZSMHFKZGJ7", "dateTime": 1519594486695}, {"current_trial": 214, "trialdata": {"rt": -1, "trial_type": "single-stim", "stimulus": "<p id=\"stim\">10</p>", "internal_node_id": "0.0-160.0-0.0", "time_elapsed": 961983, "key_press": -1, "trial_index": 214}, "uniqueid": "MTK2936:320DUZ38G8T8TEXJ98YDZSMHFKZGJ7", "dateTime": 1519594489697}, {"current_trial": 215, "trialdata": {"rt": -1, "trial_type": "single-stim", "stimulus": "<p id=\"stim\">9</p>", "internal_node_id": "0.0-160.0-1.0", "time_elapsed": 962985, "key_press": -1, "trial_index": 215}, "uniqueid": "MTK2936:320DUZ38G8T8TEXJ98YDZSMHFKZGJ7", "dateTime": 1519594490699}, {"current_trial": 216, "trialdata": {"rt": -1, "trial_type": "single-stim", "stimulus": "<p id=\"stim\">8</p>", "internal_node_id": "0.0-160.0-2.0", "time_elapsed": 963986, "key_press": -1, "trial_index": 216}, "uniqueid": "MTK2936:320DUZ38G8T8TEXJ98YDZSMHFKZGJ7", "dateTime": 1519594491700}, {"current_trial": 217, "trialdata": {"rt": -1, "trial_type": "single-stim", "stimulus": "<p id=\"stim\">7</p>", "internal_node_id": "0.0-160.0-3.0", "time_elapsed": 964988, "key_press": -1, "trial_index": 217}, "uniqueid": "MTK2936:320DUZ38G8T8TEXJ98YDZSMHFKZGJ7", "dateTime": 1519594492702}, {"current_trial": 218, "trialdata": {"rt": -1, "trial_type": "single-stim", "stimulus": "<p id=\"stim\">6</p>", "internal_node_id": "0.0-160.0-4.0", "time_elapsed": 965989, "key_press": -1, "trial_index": 218}, "uniqueid": "MTK2936:320DUZ38G8T8TEXJ98YDZSMHFKZGJ7", "dateTime": 1519594493703}, {"current_trial": 219, "trialdata": {"rt": -1, "trial_type": "single-stim", "stimulus": "<p id=\"stim\">5</p>", "internal_node_id": "0.0-160.0-5.0", "time_elapsed": 966990, "key_press": -1, "trial_index": 219}, "uniqueid": "MTK2936:320DUZ38G8T8TEXJ98YDZSMHFKZGJ7", "dateTime": 1519594494704}, {"current_trial": 220, "trialdata": {"rt": -1, "trial_type": "single-stim", "stimulus": "<p id=\"stim\">4</p>", "internal_node_id": "0.0-160.0-6.0", "time_elapsed": 967992, "key_press": -1, "trial_index": 220}, "uniqueid": "MTK2936:320DUZ38G8T8TEXJ98YDZSMHFKZGJ7", "dateTime": 1519594495706}, {"current_trial": 221, "trialdata": {"rt": -1, "trial_type": "single-stim", "stimulus": "<p id=\"stim\">3</p>", "internal_node_id": "0.0-160.0-7.0", "time_elapsed": 968993, "key_press": -1, "trial_index": 221}, "uniqueid": "MTK2936:320DUZ38G8T8TEXJ98YDZSMHFKZGJ7", "dateTime": 1519594496708}, {"current_trial": 222, "trialdata": {"rt": -1, "trial_type": "single-stim", "stimulus": "<p id=\"stim\">2</p>", "internal_node_id": "0.0-160.0-8.0", "time_elapsed": 969995, "key_press": -1, "trial_index": 222}, "uniqueid": "MTK2936:320DUZ38G8T8TEXJ98YDZSMHFKZGJ7", "dateTime": 1519594497709}, {"current_trial": 223, "trialdata": {"rt": -1, "trial_type": "single-stim", "stimulus": "<p id=\"stim\">1</p>", "internal_node_id": "0.0-160.0-9.0", "time_elapsed": 970997, "key_press": -1, "trial_index": 223}, "uniqueid": "MTK2936:320DUZ38G8T8TEXJ98YDZSMHFKZGJ7", "dateTime": 1519594498711}, {"current_trial": 224, "trialdata": {"rt": -1, "trial_type": "single-stim", "stimulus": "<p id=\"stim\">+</p>", "internal_node_id": "0.0-161.0-0.0", "time_elapsed": 972498, "key_press": -1, "type": "FIXATION", "trial_index": 224}, "uniqueid": "MTK2936:320DUZ38G8T8TEXJ98YDZSMHFKZGJ7", "dateTime": 1519594500213}, {"current_trial": 225, "trialdata": {"rt": -1000, "trial_type": "single-audio", "word": "patrol", "stimulus": "/static/audio/wordpool/PATROL.wav", "conditions": [12, 1600, "a", 24000], "internal_node_id": "0.0-162.0", "trial": 6, "time_elapsed": 975142, "serialpos": 0, "key_press": -1, "wordID": 1026, "type": "PRES_AUD", "trial_index": 225}, "uniqueid": "MTK2936:320DUZ38G8T8TEXJ98YDZSMHFKZGJ7", "dateTime": 1519594502856}, {"current_trial": 226, "trialdata": {"rt": -1000, "trial_type": "single-audio", "word": "picnic", "stimulus": "/static/audio/wordpool/PICNIC.wav", "conditions": [12, 1600, "a", 24000], "internal_node_id": "0.0-163.0", "trial": 6, "time_elapsed": 977768, "serialpos": 1, "key_press": -1, "wordID": 1059, "type": "PRES_AUD", "trial_index": 226}, "uniqueid": "MTK2936:320DUZ38G8T8TEXJ98YDZSMHFKZGJ7", "dateTime": 1519594505482}, {"current_trial": 227, "trialdata": {"rt": -1000, "trial_type": "single-audio", "word": "suitcase", "stimulus": "/static/audio/wordpool/SUITCASE.wav", "conditions": [12, 1600, "a", 24000], "internal_node_id": "0.0-164.0", "trial": 6, "time_elapsed": 980299, "serialpos": 2, "key_press": -1, "wordID": 1402, "type": "PRES_AUD", "trial_index": 227}, "uniqueid": "MTK2936:320DUZ38G8T8TEXJ98YDZSMHFKZGJ7", "dateTime": 1519594508013}, {"current_trial": 228, "trialdata": {"rt": -1000, "trial_type": "single-audio", "word": "flashlight", "stimulus": "/static/audio/wordpool/FLASHLIGHT.wav", "conditions": [12, 1600, "a", 24000], "internal_node_id": "0.0-165.0", "trial": 6, "time_elapsed": 982830, "serialpos": 3, "key_press": -1, "wordID": 574, "type": "PRES_AUD", "trial_index": 228}, "uniqueid": "MTK2936:320DUZ38G8T8TEXJ98YDZSMHFKZGJ7", "dateTime": 1519594510546}, {"current_trial": 229, "trialdata": {"rt": -1000, "trial_type": "single-audio", "word": "stone", "stimulus": "/static/audio/wordpool/STONE.wav", "conditions": [12, 1600, "a", 24000], "internal_node_id": "0.0-166.0", "trial": 6, "time_elapsed": 985353, "serialpos": 4, "key_press": -1, "wordID": 1384, "type": "PRES_AUD", "trial_index": 229}, "uniqueid": "MTK2936:320DUZ38G8T8TEXJ98YDZSMHFKZGJ7", "dateTime": 1519594513067}, {"current_trial": 230, "trialdata": {"rt": -1000, "trial_type": "single-audio", "word": "knife", "stimulus": "/static/audio/wordpool/KNIFE.wav", "conditions": [12, 1600, "a", 24000], "internal_node_id": "0.0-167.0", "trial": 6, "time_elapsed": 988001, "serialpos": 5, "key_press": -1, "wordID": 784, "type": "PRES_AUD", "trial_index": 230}, "uniqueid": "MTK2936:320DUZ38G8T8TEXJ98YDZSMHFKZGJ7", "dateTime": 1519594515715}, {"current_trial": 231, "trialdata": {"rt": -1000, "trial_type": "single-audio", "word": "tombstone", "stimulus": "/static/audio/wordpool/TOMBSTONE.wav", "conditions": [12, 1600, "a", 24000], "internal_node_id": "0.0-168.0", "trial": 6, "time_elapsed": 990649, "serialpos": 6, "key_press": -1, "wordID": 1477, "type": "PRES_AUD", "trial_index": 231}, "uniqueid": "MTK2936:320DUZ38G8T8TEXJ98YDZSMHFKZGJ7", "dateTime": 1519594518363}, {"current_trial": 232, "trialdata": {"rt": -1000, "trial_type": "single-audio", "word": "mildew", "stimulus": "/static/audio/wordpool/MILDEW.wav", "conditions": [12, 1600, "a", 24000], "internal_node_id": "0.0-169.0", "trial": 6, "time_elapsed": 993244, "serialpos": 7, "key_press": -1, "wordID": 892, "type": "PRES_AUD", "trial_index": 232}, "uniqueid": "MTK2936:320DUZ38G8T8TEXJ98YDZSMHFKZGJ7", "dateTime": 1519594520959}, {"current_trial": 233, "trialdata": {"rt": -1000, "trial_type": "single-audio", "word": "marrow", "stimulus": "/static/audio/wordpool/MARROW.wav", "conditions": [12, 1600, "a", 24000], "internal_node_id": "0.0-170.0", "trial": 6, "time_elapsed": 996020, "serialpos": 8, "key_press": -1, "wordID": 871, "type": "PRES_AUD", "trial_index": 233}, "uniqueid": "MTK2936:320DUZ38G8T8TEXJ98YDZSMHFKZGJ7", "dateTime": 1519594523735}, {"current_trial": 234, "trialdata": {"rt": -1000, "trial_type": "single-audio", "word": "liver", "stimulus": "/static/audio/wordpool/LIVER.wav", "conditions": [12, 1600, "a", 24000], "internal_node_id": "0.0-171.0", "trial": 6, "time_elapsed": 998477, "serialpos": 9, "key_press": -1, "wordID": 832, "type": "PRES_AUD", "trial_index": 234}, "uniqueid": "MTK2936:320DUZ38G8T8TEXJ98YDZSMHFKZGJ7", "dateTime": 1519594526191}, {"current_trial": 235, "trialdata": {"rt": -1000, "trial_type": "single-audio", "word": "police", "stimulus": "/static/audio/wordpool/POLICE.wav", "conditions": [12, 1600, "a", 24000], "internal_node_id": "0.0-172.0", "trial": 6, "time_elapsed": 1001185, "serialpos": 10, "key_press": -1, "wordID": 1097, "type": "PRES_AUD", "trial_index": 235}, "uniqueid": "MTK2936:320DUZ38G8T8TEXJ98YDZSMHFKZGJ7", "dateTime": 1519594528899}, {"current_trial": 236, "trialdata": {"rt": -1000, "trial_type": "single-audio", "word": "spoon", "stimulus": "/static/audio/wordpool/SPOON.wav", "conditions": [12, 1600, "a", 24000], "internal_node_id": "0.0-173.0", "trial": 6, "time_elapsed": 1003769, "serialpos": 11, "key_press": -1, "wordID": 1356, "type": "PRES_AUD", "trial_index": 236}, "uniqueid": "MTK2936:320DUZ38G8T8TEXJ98YDZSMHFKZGJ7", "dateTime": 1519594531483}, {"current_trial": 237, "trialdata": {"rt": -1, "trial_type": "single-stim", "stimulus": "", "internal_node_id": "0.0-174.0-0.0", "time_elapsed": 1005001, "key_press": -1, "type": "PRE_RECALL_DELAY", "trial_index": 237}, "uniqueid": "MTK2936:320DUZ38G8T8TEXJ98YDZSMHFKZGJ7", "dateTime": 1519594532715}, {"current_trial": 238, "trialdata": {"rt": -1000, "trial_type": "single-audio", "stimulus": "/static/audio/400Hz.wav", "internal_node_id": "0.0-175.0", "time_elapsed": 1005510, "key_press": -1, "type": "PRE_RECALL_ALERT", "trial_index": 238}, "uniqueid": "MTK2936:320DUZ38G8T8TEXJ98YDZSMHFKZGJ7", "dateTime": 1519594533225}, {"current_trial": 239, "trialdata": {"rt": [3552, 5808, 7696, 14343, 17984, 21656, 23656, 27768, 30127, 37073, 44833], "recwords": ["sppon", "police", "liver", "tranplant", "mildew", "spoon", "knife", "suitcase", "police", "patrol", "flashlight"], "key_times": [2050, 2183, 2330, 2543, 2735, 3552, 4727, 4903, 5079, 5279, 5383, 5519, 5808, 6751, 6943, 7087, 7271, 7407, 7696, 8599, 9023, 9583, 12120, 12776, 12943, 13063, 13263, 13431, 14343, 16368, 16631, 16871, 17055, 17263, 17471, 17984, 19312, 19471, 19703, 19831, 20015, 21656, 22591, 22807, 23055, 23287, 23447, 23656, 25343, 25623, 26359, 26567, 26847, 27144, 27295, 27391, 27768, 28743, 28983, 29271, 29519, 29719, 29904, 30127, 35895, 36063, 36263, 36455, 36544, 36727, 37073, 42720, 42935, 43168, 43312, 43536, 43887, 44128, 44336, 44472, 44584, 44833], "trial_type": "free-recall", "conditions": [12, 1600, "a", 24000], "internal_node_id": "0.0-176.0-0.0", "key_presses": [83, 80, 80, 79, 78, 13, 80, 79, 76, 73, 67, 69, 13, 76, 73, 86, 69, 82, 13, 84, 82, 65, 78, 80, 76, 65, 78, 84, 13, 77, 73, 76, 68, 69, 87, 13, 83, 80, 79, 79, 78, 13, 75, 78, 73, 70, 69, 13, 83, 85, 73, 84, 67, 65, 83, 69, 13, 80, 79, 76, 73, 67, 69, 13, 80, 65, 84, 82, 79, 76, 13, 70, 76, 65, 83, 72, 76, 73, 71, 72, 84, 13], "trial": 6, "time_elapsed": 1065515, "type": "FREE_RECALL", "trial_index": 239}, "uniqueid": "MTK2936:320DUZ38G8T8TEXJ98YDZSMHFKZGJ7", "dateTime": 1519594593234}, {"current_trial": 240, "trialdata": {"rt": 335, "trial_type": "text", "internal_node_id": "0.0-177.0", "time_elapsed": 1067857, "key_press": 32, "type": "INSTRUCTIONS", "trial_index": 240}, "uniqueid": "MTK2936:320DUZ38G8T8TEXJ98YDZSMHFKZGJ7", "dateTime": 1519594595571}, {"current_trial": 241, "trialdata": {"rt": [2779, 4164, 5787, 7292, 8788, 11083, 13259, 15620, 17412, 18899, 20620, 22923], "trial_type": "math-distractor", "key_times": [2484, 2619, 2779, 3795, 3963, 4164, 5523, 5612, 5787, 6885, 7108, 7292, 8357, 8596, 8788, 10660, 10883, 11083, 12916, 13259, 15276, 15460, 15620, 17020, 17188, 17412, 18477, 18684, 18899, 20180, 20404, 20620, 22524