{"assignmentId": "3R0T90IZ1TJLL0RDZGHRCO9MONUCG2", "workerId": "MTK2581", "questiondata": {"avail_screen_height": 860, "color_depth": 24, "screen_width": 1440, "pixel_depth": 24, "avail_screen_width": 1440, "screen_height": 900}, "bonus": 0, "hitId": "3CESM1J3EIAQFLAIES34N77G2KU6WJ", "counterbalance": 2630, "useragent": "Mozilla/5.0 (Windows NT 10.0; WOW64; rv:47.0) Gecko/20100101 Firefox/47.0", "eventdata": [{"eventtype": "initialized", "interval": 0, "value": null, "timestamp": 1519074950353}, {"eventtype": "window_resize", "interval": 0, "value": [1440, 808], "timestamp": 1519074950353}, {"eventtype": "focus", "interval": 194, "value": "on", "timestamp": 1519074950547}, {"eventtype": "focus", "interval": 2319884, "value": "off", "timestamp": 1519077270431}, {"eventtype": "focus", "interval": 22978, "value": "on", "timestamp": 1519077293409}], "data": [{"current_trial": 0, "trialdata": {"rt": 1648, "trial_type": "text", "internal_node_id": "0.0-0.0", "time_elapsed": 1649, "key_press": 32, "type": "INSTRUCTIONS", "trial_index": 0}, "uniqueid": "MTK2581:3R0T90IZ1TJLL0RDZGHRCO9MONUCG2", "dateTime": 1519074952397}, {"current_trial": 1, "trialdata": {"rt": 17333, "trial_type": "text", "internal_node_id": "0.0-1.0", "time_elapsed": 18985, "key_press": 32, "type": "INSTRUCTIONS", "trial_index": 1}, "uniqueid": "MTK2581:3R0T90IZ1TJLL0RDZGHRCO9MONUCG2", "dateTime": 1519074969733}, {"current_trial": 2, "trialdata": {"rt": [7108], "trial_type": "audio-test", "responses": ["ocean"], "internal_node_id": "0.0-2.0", "time_elapsed": 26193, "type": "AUDIO_TEST", "trial_index": 2}, "uniqueid": "MTK2581:3R0T90IZ1TJLL0RDZGHRCO9MONUCG2", "dateTime": 1519074976941}, {"current_trial": 3, "trialdata": {"rt": [9452], "trial_type": "audio-test", "responses": ["crystal"], "internal_node_id": "0.0-3.0", "time_elapsed": 35657, "type": "AUDIO_TEST", "trial_index": 3}, "uniqueid": "MTK2581:3R0T90IZ1TJLL0RDZGHRCO9MONUCG2", "dateTime": 1519074986404}, {"current_trial": 4, "trialdata": {"rt": [7069], "trial_type": "audio-test", "responses": ["spice"], "internal_node_id": "0.0-4.0", "time_elapsed": 42736, "type": "AUDIO_TEST", "trial_index": 4}, "uniqueid": "MTK2581:3R0T90IZ1TJLL0RDZGHRCO9MONUCG2", "dateTime": 1519074993484}, {"current_trial": 5, "trialdata": {"rt": 22348, "trial_type": "survey-text", "responses": "{\"Q0\":\"3:30 AM\",\"Q1\":\"11:30 AM\",\"Q2\":\"5\"}", "internal_node_id": "0.0-5.0", "time_elapsed": 65838, "type": "SLEEP_SURVEY", "trial_index": 5}, "uniqueid": "MTK2581:3R0T90IZ1TJLL0RDZGHRCO9MONUCG2", "dateTime": 1519075016585}, {"current_trial": 6, "trialdata": {"rt": 32656, "trial_type": "text", "internal_node_id": "0.0-6.0", "time_elapsed": 99498, "key_press": 32, "type": "INSTRUCTIONS", "trial_index": 6}, "uniqueid": "MTK2581:3R0T90IZ1TJLL0RDZGHRCO9MONUCG2", "dateTime": 1519075050247}, {"current_trial": 7, "trialdata": {"rt": 15469, "trial_type": "text", "internal_node_id": "0.0-7.0", "time_elapsed": 115471, "key_press": 32, "type": "INSTRUCTIONS", "trial_index": 7}, "uniqueid": "MTK2581:3R0T90IZ1TJLL0RDZGHRCO9MONUCG2", "dateTime": 1519075066218}, {"current_trial": 8, "trialdata": {"rt": 10058, "trial_type": "text", "internal_node_id": "0.0-8.0", "time_elapsed": 126031, "key_press": 32, "type": "INSTRUCTIONS", "trial_index": 8}, "uniqueid": "MTK2581:3R0T90IZ1TJLL0RDZGHRCO9MONUCG2", "dateTime": 1519075076779}, {"current_trial": 9, "trialdata": {"rt": [6435, 9467, 11763, 14115, 16755], "trial_type": "math-distractor", "key_times": [4916, 5132, 6435, 8651, 8867, 9467, 11227, 11452, 11763, 13643, 13876, 14115, 16260, 16499, 16755], "responses": ["12", "15", "16", "14", "20"], "num2": [8, 3, 4, 4, 8, 8], "num3": [2, 7, 8, 1, 4, 8], "conditions": [18, 1200, "v", 18000], "internal_node_id": "0.0-9.0", "key_presses": [97, 98, 13, 97, 101, 13, 97, 102, 13, 97, 100, 13, 98, 96, 13], "trial": 0, "time_elapsed": 145047, "type": "DISTRACTOR", "trial_index": 9, "num1": [2, 5, 4, 9, 8, 9]}, "uniqueid": "MTK2581:3R0T90IZ1TJLL0RDZGHRCO9MONUCG2", "dateTime": 1519075095795}, {"current_trial": 10, "trialdata": {"rt": -1, "trial_type": "single-stim", "stimulus": "<p id=\"stim\">10</p>", "internal_node_id": "0.0-10.0-0.0", "time_elapsed": 148053, "key_press": -1, "trial_index": 10}, "uniqueid": "MTK2581:3R0T90IZ1TJLL0RDZGHRCO9MONUCG2", "dateTime": 1519075098800}, {"current_trial": 11, "trialdata": {"rt": -1, "trial_type": "single-stim", "stimulus": "<p id=\"stim\">9</p>", "internal_node_id": "0.0-10.0-1.0", "time_elapsed": 149055, "key_press": -1, "trial_index": 11}, "uniqueid": "MTK2581:3R0T90IZ1TJLL0RDZGHRCO9MONUCG2", "dateTime": 1519075099803}, {"current_trial": 12, "trialdata": {"rt": -1, "trial_type": "single-stim", "stimulus": "<p id=\"stim\">8</p>", "internal_node_id": "0.0-10.0-2.0", "time_elapsed": 150058, "key_press": -1, "trial_index": 12}, "uniqueid": "MTK2581:3R0T90IZ1TJLL0RDZGHRCO9MONUCG2", "dateTime": 1519075100805}, {"current_trial": 13, "trialdata": {"rt": -1, "trial_type": "single-stim", "stimulus": "<p id=\"stim\">7</p>", "internal_node_id": "0.0-10.0-3.0", "time_elapsed": 151060, "key_press": -1, "trial_index": 13}, "uniqueid": "MTK2581:3R0T90IZ1TJLL0RDZGHRCO9MONUCG2", "dateTime": 1519075101807}, {"current_trial": 14, "trialdata": {"rt": -1, "trial_type": "single-stim", "stimulus": "<p id=\"stim\">6</p>", "internal_node_id": "0.0-10.0-4.0", "time_elapsed": 152062, "key_press": -1, "trial_index": 14}, "uniqueid": "MTK2581:3R0T90IZ1TJLL0RDZGHRCO9MONUCG2", "dateTime": 1519075102809}, {"current_trial": 15, "trialdata": {"rt": -1, "trial_type": "single-stim", "stimulus": "<p id=\"stim\">5</p>", "internal_node_id": "0.0-10.0-5.0", "time_elapsed": 153064, "key_press": -1, "trial_index": 15}, "uniqueid": "MTK2581:3R0T90IZ1TJLL0RDZGHRCO9MONUCG2", "dateTime": 1519075103811}, {"current_trial": 16, "trialdata": {"rt": -1, "trial_type": "single-stim", "stimulus": "<p id=\"stim\">4</p>", "internal_node_id": "0.0-10.0-6.0", "time_elapsed": 154067, "key_press": -1, "trial_index": 16}, "uniqueid": "MTK2581:3R0T90IZ1TJLL0RDZGHRCO9MONUCG2", "dateTime": 1519075104814}, {"current_trial": 17, "trialdata": {"rt": -1, "trial_type": "single-stim", "stimulus": "<p id=\"stim\">3</p>", "internal_node_id": "0.0-10.0-7.0", "time_elapsed": 155069, "key_press": -1, "trial_index": 17}, "uniqueid": "MTK2581:3R0T90IZ1TJLL0RDZGHRCO9MONUCG2", "dateTime": 1519075105816}, {"current_trial": 18, "trialdata": {"rt": -1, "trial_type": "single-stim", "stimulus": "<p id=\"stim\">2</p>", "internal_node_id": "0.0-10.0-8.0", "time_elapsed": 156070, "key_press": -1, "trial_index": 18}, "uniqueid": "MTK2581:3R0T90IZ1TJLL0RDZGHRCO9MONUCG2", "dateTime": 1519075106817}, {"current_trial": 19, "trialdata": {"rt": -1, "trial_type": "single-stim", "stimulus": "<p id=\"stim\">1</p>", "internal_node_id": "0.0-10.0-9.0", "time_elapsed": 157071, "key_press": -1, "trial_index": 19}, "uniqueid": "MTK2581:3R0T90IZ1TJLL0RDZGHRCO9MONUCG2", "dateTime": 1519075107819}, {"current_trial": 20, "trialdata": {"rt": -1, "trial_type": "single-stim", "stimulus": "<p id=\"stim\">+</p>", "internal_node_id": "0.0-11.0-0.0", "time_elapsed": 158575, "key_press": -1, "type": "FIXATION", "trial_index": 20}, "uniqueid": "MTK2581:3R0T90IZ1TJLL0RDZGHRCO9MONUCG2", "dateTime": 1519075109322}, {"current_trial": 21, "trialdata": {"rt": -1, "trial_type": "single-stim", "word": "human", "stimulus": "<p id=\"stim\">HUMAN</p>", "conditions": [18, 1200, "v", 18000], "internal_node_id": "0.0-12.0", "trial": 0, "time_elapsed": 159778, "serialpos": 0, "key_press": -1, "wordID": 725, "type": "PRES_VIS", "trial_index": 21}, "uniqueid": "MTK2581:3R0T90IZ1TJLL0RDZGHRCO9MONUCG2", "dateTime": 1519075110525}, {"current_trial": 22, "trialdata": {"rt": -1, "trial_type": "single-stim", "word": "piano", "stimulus": "<p id=\"stim\">PIANO</p>", "conditions": [18, 1200, "v", 18000], "internal_node_id": "0.0-13.0", "trial": 0, "time_elapsed": 161989, "serialpos": 1, "key_press": -1, "wordID": 1056, "type": "PRES_VIS", "trial_index": 22}, "uniqueid": "MTK2581:3R0T90IZ1TJLL0RDZGHRCO9MONUCG2", "dateTime": 1519075112737}, {"current_trial": 23, "trialdata": {"rt": -1, "trial_type": "single-stim", "word": "football", "stimulus": "<p id=\"stim\">FOOTBALL</p>", "conditions": [18, 1200, "v", 18000], "internal_node_id": "0.0-14.0", "trial": 0, "time_elapsed": 164027, "serialpos": 2, "key_press": -1, "wordID": 590, "type": "PRES_VIS", "trial_index": 23}, "uniqueid": "MTK2581:3R0T90IZ1TJLL0RDZGHRCO9MONUCG2", "dateTime": 1519075114774}, {"current_trial": 24, "trialdata": {"rt": -1, "trial_type": "single-stim", "word": "beaver", "stimulus": "<p id=\"stim\">BEAVER</p>", "conditions": [18, 1200, "v", 18000], "internal_node_id": "0.0-15.0", "trial": 0, "time_elapsed": 166399, "serialpos": 3, "key_press": -1, "wordID": 108, "type": "PRES_VIS", "trial_index": 24}, "uniqueid": "MTK2581:3R0T90IZ1TJLL0RDZGHRCO9MONUCG2", "dateTime": 1519075117146}, {"current_trial": 25, "trialdata": {"rt": -1, "trial_type": "single-stim", "word": "cellar", "stimulus": "<p id=\"stim\">CELLAR</p>", "conditions": [18, 1200, "v", 18000], "internal_node_id": "0.0-16.0", "trial": 0, "time_elapsed": 168524, "serialpos": 4, "key_press": -1, "wordID": 266, "type": "PRES_VIS", "trial_index": 25}, "uniqueid": "MTK2581:3R0T90IZ1TJLL0RDZGHRCO9MONUCG2", "dateTime": 1519075119272}, {"current_trial": 26, "trialdata": {"rt": -1, "trial_type": "single-stim", "word": "lion", "stimulus": "<p id=\"stim\">LION</p>", "conditions": [18, 1200, "v", 18000], "internal_node_id": "0.0-17.0", "trial": 0, "time_elapsed": 170754, "serialpos": 5, "key_press": -1, "wordID": 826, "type": "PRES_VIS", "trial_index": 26}, "uniqueid": "MTK2581:3R0T90IZ1TJLL0RDZGHRCO9MONUCG2", "dateTime": 1519075121502}, {"current_trial": 27, "trialdata": {"rt": -1, "trial_type": "single-stim", "word": "wife", "stimulus": "<p id=\"stim\">WIFE</p>", "conditions": [18, 1200, "v", 18000], "internal_node_id": "0.0-18.0", "trial": 0, "time_elapsed": 172862, "serialpos": 6, "key_press": -1, "wordID": 1608, "type": "PRES_VIS", "trial_index": 27}, "uniqueid": "MTK2581:3R0T90IZ1TJLL0RDZGHRCO9MONUCG2", "dateTime": 1519075123609}, {"current_trial": 28, "trialdata": {"rt": -1, "trial_type": "single-stim", "word": "zipper", "stimulus": "<p id=\"stim\">ZIPPER</p>", "conditions": [18, 1200, "v", 18000], "internal_node_id": "0.0-19.0", "trial": 0, "time_elapsed": 174906, "serialpos": 7, "key_press": -1, "wordID": 1635, "type": "PRES_VIS", "trial_index": 28}, "uniqueid": "MTK2581:3R0T90IZ1TJLL0RDZGHRCO9MONUCG2", "dateTime": 1519075125653}, {"current_trial": 29, "trialdata": {"rt": -1, "trial_type": "single-stim", "word": "apron", "stimulus": "<p id=\"stim\">APRON</p>", "conditions": [18, 1200, "v", 18000], "internal_node_id": "0.0-20.0", "trial": 0, "time_elapsed": 177078, "serialpos": 8, "key_press": -1, "wordID": 34, "type": "PRES_VIS", "trial_index": 29}, "uniqueid": "MTK2581:3R0T90IZ1TJLL0RDZGHRCO9MONUCG2", "dateTime": 1519075127825}, {"current_trial": 30, "trialdata": {"rt": -1, "trial_type": "single-stim", "word": "suspect", "stimulus": "<p id=\"stim\">SUSPECT</p>", "conditions": [18, 1200, "v", 18000], "internal_node_id": "0.0-21.0", "trial": 0, "time_elapsed": 179197, "serialpos": 9, "key_press": -1, "wordID": 1414, "type": "PRES_VIS", "trial_index": 30}, "uniqueid": "MTK2581:3R0T90IZ1TJLL0RDZGHRCO9MONUCG2", "dateTime": 1519075129944}, {"current_trial": 31, "trialdata": {"rt": -1, "trial_type": "single-stim", "word": "chemist", "stimulus": "<p id=\"stim\">CHEMIST</p>", "conditions": [18, 1200, "v", 18000], "internal_node_id": "0.0-22.0", "trial": 0, "time_elapsed": 181461, "serialpos": 10, "key_press": -1, "wordID": 291, "type": "PRES_VIS", "trial_index": 31}, "uniqueid": "MTK2581:3R0T90IZ1TJLL0RDZGHRCO9MONUCG2", "dateTime": 1519075132208}, {"current_trial": 32, "trialdata": {"rt": -1, "trial_type": "single-stim", "word": "smog", "stimulus": "<p id=\"stim\">SMOG</p>", "conditions": [18, 1200, "v", 18000], "internal_node_id": "0.0-23.0", "trial": 0, "time_elapsed": 183628, "serialpos": 11, "key_press": -1, "wordID": 1329, "type": "PRES_VIS", "trial_index": 32}, "uniqueid": "MTK2581:3R0T90IZ1TJLL0RDZGHRCO9MONUCG2", "dateTime": 1519075134375}, {"current_trial": 33, "trialdata": {"rt": -1, "trial_type": "single-stim", "word": "lily", "stimulus": "<p id=\"stim\">LILY</p>", "conditions": [18, 1200, "v", 18000], "internal_node_id": "0.0-24.0", "trial": 0, "time_elapsed": 185805, "serialpos": 12, "key_press": -1, "wordID": 820, "type": "PRES_VIS", "trial_index": 33}, "uniqueid": "MTK2581:3R0T90IZ1TJLL0RDZGHRCO9MONUCG2", "dateTime": 1519075136552}, {"current_trial": 34, "trialdata": {"rt": -1, "trial_type": "single-stim", "word": "spool", "stimulus": "<p id=\"stim\">SPOOL</p>", "conditions": [18, 1200, "v", 18000], "internal_node_id": "0.0-25.0", "trial": 0, "time_elapsed": 188004, "serialpos": 13, "key_press": -1, "wordID": 1355, "type": "PRES_VIS", "trial_index": 34}, "uniqueid": "MTK2581:3R0T90IZ1TJLL0RDZGHRCO9MONUCG2", "dateTime": 1519075138751}, {"current_trial": 35, "trialdata": {"rt": -1, "trial_type": "single-stim", "word": "asia", "stimulus": "<p id=\"stim\">ASIA</p>", "conditions": [18, 1200, "v", 18000], "internal_node_id": "0.0-26.0", "trial": 0, "time_elapsed": 190331, "serialpos": 14, "key_press": -1, "wordID": 45, "type": "PRES_VIS", "trial_index": 35}, "uniqueid": "MTK2581:3R0T90IZ1TJLL0RDZGHRCO9MONUCG2", "dateTime": 1519075141078}, {"current_trial": 36, "trialdata": {"rt": -1, "trial_type": "single-stim", "word": "patrol", "stimulus": "<p id=\"stim\">PATROL</p>", "conditions": [18, 1200, "v", 18000], "internal_node_id": "0.0-27.0", "trial": 0, "time_elapsed": 192378, "serialpos": 15, "key_press": -1, "wordID": 1026, "type": "PRES_VIS", "trial_index": 36}, "uniqueid": "MTK2581:3R0T90IZ1TJLL0RDZGHRCO9MONUCG2", "dateTime": 1519075143125}, {"current_trial": 37, "trialdata": {"rt": -1, "trial_type": "single-stim", "word": "dresser", "stimulus": "<p id=\"stim\">DRESSER</p>", "conditions": [18, 1200, "v", 18000], "internal_node_id": "0.0-28.0", "trial": 0, "time_elapsed": 194588, "serialpos": 16, "key_press": -1, "wordID": 495, "type": "PRES_VIS", "trial_index": 37}, "uniqueid": "MTK2581:3R0T90IZ1TJLL0RDZGHRCO9MONUCG2", "dateTime": 1519075145335}, {"current_trial": 38, "trialdata": {"rt": -1, "trial_type": "single-stim", "word": "thief", "stimulus": "<p id=\"stim\">THIEF</p>", "conditions": [18, 1200, "v", 18000], "internal_node_id": "0.0-29.0", "trial": 0, "time_elapsed": 196815, "serialpos": 17, "key_press": -1, "wordID": 1455, "type": "PRES_VIS", "trial_index": 38}, "uniqueid": "MTK2581:3R0T90IZ1TJLL0RDZGHRCO9MONUCG2", "dateTime": 1519075147563}, {"current_trial": 39, "trialdata": {"rt": -1, "trial_type": "single-stim", "stimulus": "", "internal_node_id": "0.0-30.0-0.0", "time_elapsed": 199073, "key_press": -1, "type": "PRE_RECALL_DELAY", "trial_index": 39}, "uniqueid": "MTK2581:3R0T90IZ1TJLL0RDZGHRCO9MONUCG2", "dateTime": 1519075149821}, {"current_trial": 40, "trialdata": {"rt": -1000, "trial_type": "single-audio", "stimulus": "/static/audio/400Hz.wav", "internal_node_id": "0.0-31.0", "time_elapsed": 199577, "key_press": -1, "type": "PRE_RECALL_ALERT", "trial_index": 40}, "uniqueid": "MTK2581:3R0T90IZ1TJLL0RDZGHRCO9MONUCG2", "dateTime": 1519075150324}, {"current_trial": 41, "trialdata": {"rt": [2791, 4590, 6151, 8022, 10734, 12974, 17830], "recwords": ["asia", "human", "lily", "spool", "football", "dresser", "beaver"], "key_times": [1903, 2071, 2223, 2375, 2791, 3607, 3807, 4031, 4191, 4343, 4590, 4958, 5263, 5503, 5727, 6151, 6463, 6590, 6879, 7055, 7295, 8022, 9118, 9367, 9543, 9670, 9902, 10039, 10262, 10431, 10734, 11095, 11358, 11774, 12086, 12319, 12550, 12742, 12974, 16790, 16942, 17142, 17318, 17454, 17663, 17830], "trial_type": "free-recall", "conditions": [18, 1200, "v", 18000], "internal_node_id": "0.0-32.0-0.0", "key_presses": [65, 83, 73, 65, 13, 72, 85, 77, 65, 78, 13, 76, 73, 76, 89, 13, 83, 80, 79, 79, 76, 13, 70, 79, 79, 84, 66, 65, 76, 76, 13, 68, 82, 69, 83, 83, 69, 82, 13, 66, 69, 65, 86, 69, 82, 13], "trial": 0, "time_elapsed": 259586, "type": "FREE_RECALL", "trial_index": 41}, "uniqueid": "MTK2581:3R0T90IZ1TJLL0RDZGHRCO9MONUCG2", "dateTime": 1519075210341}, {"current_trial": 42, "trialdata": {"rt": 1243, "trial_type": "text", "internal_node_id": "0.0-33.0", "time_elapsed": 262839, "key_press": 32, "type": "INSTRUCTIONS", "trial_index": 42}, "uniqueid": "MTK2581:3R0T90IZ1TJLL0RDZGHRCO9MONUCG2", "dateTime": 1519075213587}, {"current_trial": 43, "trialdata": {"rt": [3357, 6029, 7749, 9789, 11925, 13789, 15701, 17341], "trial_type": "math-distractor", "key_times": [2701, 3021, 3357, 4837, 5277, 6029, 7493, 7749, 9325, 9477, 9789, 11485, 11717, 11925, 13405, 13589, 13789, 15245, 15405, 15701, 16933, 17085, 17341], "responses": ["16", "15", "7", "12", "14", "22", "15", "12"], "num2": [3, 3, 5, 4, 1, 8, 4, 8, 8], "num3": [9, 4, 1, 7, 5, 7, 8, 2, 7], "conditions": [18, 1200, "v", 18000], "internal_node_id": "0.0-34.0", "key_presses": [97, 102, 13, 97, 101, 13, 103, 13, 97, 98, 13, 97, 100, 13, 98, 98, 13, 97, 101, 13, 97, 98, 13], "trial": 1, "time_elapsed": 282851, "type": "DISTRACTOR", "trial_index": 43, "num1": [4, 8, 1, 1, 8, 7, 3, 2, 8]}, "uniqueid": "MTK2581:3R0T90IZ1TJLL0RDZGHRCO9MONUCG2", "dateTime": 1519075233598}, {"current_trial": 44, "trialdata": {"rt": -1, "trial_type": "single-stim", "stimulus": "<p id=\"stim\">10</p>", "internal_node_id": "0.0-35.0-0.0", "time_elapsed": 285854, "key_press": -1, "trial_index": 44}, "uniqueid": "MTK2581:3R0T90IZ1TJLL0RDZGHRCO9MONUCG2", "dateTime": 1519075236601}, {"current_trial": 45, "trialdata": {"rt": -1, "trial_type": "single-stim", "stimulus": "<p id=\"stim\">9</p>", "internal_node_id": "0.0-35.0-1.0", "time_elapsed": 286856, "key_press": -1, "trial_index": 45}, "uniqueid": "MTK2581:3R0T90IZ1TJLL0RDZGHRCO9MONUCG2", "dateTime": 1519075237604}, {"current_trial": 46, "trialdata": {"rt": -1, "trial_type": "single-stim", "stimulus": "<p id=\"stim\">8</p>", "internal_node_id": "0.0-35.0-2.0", "time_elapsed": 287859, "key_press": -1, "trial_index": 46}, "uniqueid": "MTK2581:3R0T90IZ1TJLL0RDZGHRCO9MONUCG2", "dateTime": 1519075238606}, {"current_trial": 47, "trialdata": {"rt": -1, "trial_type": "single-stim", "stimulus": "<p id=\"stim\">7</p>", "internal_node_id": "0.0-35.0-3.0", "time_elapsed": 288861, "key_press": -1, "trial_index": 47}, "uniqueid": "MTK2581:3R0T90IZ1TJLL0RDZGHRCO9MONUCG2", "dateTime": 1519075239609}, {"current_trial": 48, "trialdata": {"rt": -1, "trial_type": "single-stim", "stimulus": "<p id=\"stim\">6</p>", "internal_node_id": "0.0-35.0-4.0", "time_elapsed": 289863, "key_press": -1, "trial_index": 48}, "uniqueid": "MTK2581:3R0T90IZ1TJLL0RDZGHRCO9MONUCG2", "dateTime": 1519075240610}, {"current_trial": 49, "trialdata": {"rt": -1, "trial_type": "single-stim", "stimulus": "<p id=\"stim\">5</p>", "internal_node_id": "0.0-35.0-5.0", "time_elapsed": 290865, "key_press": -1, "trial_index": 49}, "uniqueid": "MTK2581:3R0T90IZ1TJLL0RDZGHRCO9MONUCG2", "dateTime": 1519075241612}, {"current_trial": 50, "trialdata": {"rt": -1, "trial_type": "single-stim", "stimulus": "<p id=\"stim\">4</p>", "internal_node_id": "0.0-35.0-6.0", "time_elapsed": 291866, "key_press": -1, "trial_index": 50}, "uniqueid": "MTK2581:3R0T90IZ1TJLL0RDZGHRCO9MONUCG2", "dateTime": 1519075242613}, {"current_trial": 51, "trialdata": {"rt": -1, "trial_type": "single-stim", "stimulus": "<p id=\"stim\">3</p>", "internal_node_id": "0.0-35.0-7.0", "time_elapsed": 292868, "key_press": -1, "trial_index": 51}, "uniqueid": "MTK2581:3R0T90IZ1TJLL0RDZGHRCO9MONUCG2", "dateTime": 1519075243616}, {"current_trial": 52, "trialdata": {"rt": -1, "trial_type": "single-stim", "stimulus": "<p id=\"stim\">2</p>", "internal_node_id": "0.0-35.0-8.0", "time_elapsed": 293871, "key_press": -1, "trial_index": 52}, "uniqueid": "MTK2581:3R0T90IZ1TJLL0RDZGHRCO9MONUCG2", "dateTime": 1519075244618}, {"current_trial": 53, "trialdata": {"rt": -1, "trial_type": "single-stim", "stimulus": "<p id=\"stim\">1</p>", "internal_node_id": "0.0-35.0-9.0", "time_elapsed": 294873, "key_press": -1, "trial_index": 53}, "uniqueid": "MTK2581:3R0T90IZ1TJLL0RDZGHRCO9MONUCG2", "dateTime": 1519075245620}, {"current_trial": 54, "trialdata": {"rt": -1, "trial_type": "single-stim", "stimulus": "<p id=\"stim\">+</p>", "internal_node_id": "0.0-36.0-0.0", "time_elapsed": 296375, "key_press": -1, "type": "FIXATION", "trial_index": 54}, "uniqueid": "MTK2581:3R0T90IZ1TJLL0RDZGHRCO9MONUCG2", "dateTime": 1519075247122}, {"current_trial": 55, "trialdata": {"rt": -1, "trial_type": "single-stim", "word": "shelf", "stimulus": "<p id=\"stim\">SHELF</p>", "conditions": [18, 1200, "v", 18000], "internal_node_id": "0.0-37.0", "trial": 1, "time_elapsed": 297577, "serialpos": 0, "key_press": -1, "wordID": 1279, "type": "PRES_VIS", "trial_index": 55}, "uniqueid": "MTK2581:3R0T90IZ1TJLL0RDZGHRCO9MONUCG2", "dateTime": 1519075248324}, {"current_trial": 56, "trialdata": {"rt": -1, "trial_type": "single-stim", "word": "inmate", "stimulus": "<p id=\"stim\">INMATE</p>", "conditions": [18, 1200, "v", 18000], "internal_node_id": "0.0-38.0", "trial": 1, "time_elapsed": 299920, "serialpos": 1, "key_press": -1, "wordID": 737, "type": "PRES_VIS", "trial_index": 56}, "uniqueid": "MTK2581:3R0T90IZ1TJLL0RDZGHRCO9MONUCG2", "dateTime": 1519075250668}, {"current_trial": 57, "trialdata": {"rt": -1, "trial_type": "single-stim", "word": "cottage", "stimulus": "<p id=\"stim\">COTTAGE</p>", "conditions": [18, 1200, "v", 18000], "internal_node_id": "0.0-39.0", "trial": 1, "time_elapsed": 302114, "serialpos": 2, "key_press": -1, "wordID": 383, "type": "PRES_VIS", "trial_index": 57}, "uniqueid": "MTK2581:3R0T90IZ1TJLL0RDZGHRCO9MONUCG2", "dateTime": 1519075252861}, {"current_trial": 58, "trialdata": {"rt": -1, "trial_type": "single-stim", "word": "fireman", "stimulus": "<p id=\"stim\">FIREMAN</p>", "conditions": [18, 1200, "v", 18000], "internal_node_id": "0.0-40.0", "trial": 1, "time_elapsed": 304372, "serialpos": 3, "key_press": -1, "wordID": 568, "type": "PRES_VIS", "trial_index": 58}, "uniqueid": "MTK2581:3R0T90IZ1TJLL0RDZGHRCO9MONUCG2", "dateTime": 1519075255120}, {"current_trial": 59, "trialdata": {"rt": -1, "trial_type": "single-stim", "word": "bug", "stimulus": "<p id=\"stim\">BUG</p>", "conditions": [18, 1200, "v", 18000], "internal_node_id": "0.0-41.0", "trial": 1, "time_elapsed": 306600, "serialpos": 4, "key_press": -1, "wordID": 186, "type": "PRES_VIS", "trial_index": 59}, "uniqueid": "MTK2581:3R0T90IZ1TJLL0RDZGHRCO9MONUCG2", "dateTime": 1519075257348}, {"current_trial": 60, "trialdata": {"rt": -1, "trial_type": "single-stim", "word": "woman", "stimulus": "<p id=\"stim\">WOMAN</p>", "conditions": [18, 1200, "v", 18000], "internal_node_id": "0.0-42.0", "trial": 1, "time_elapsed": 308968, "serialpos": 5, "key_press": -1, "wordID": 1619, "type": "PRES_VIS", "trial_index": 60}, "uniqueid": "MTK2581:3R0T90IZ1TJLL0RDZGHRCO9MONUCG2", "dateTime": 1519075259716}, {"current_trial": 61, "trialdata": {"rt": -1, "trial_type": "single-stim", "word": "army", "stimulus": "<p id=\"stim\">ARMY</p>", "conditions": [18, 1200, "v", 18000], "internal_node_id": "0.0-43.0", "trial": 1, "time_elapsed": 311312, "serialpos": 6, "key_press": -1, "wordID": 38, "type": "PRES_VIS", "trial_index": 61}, "uniqueid": "MTK2581:3R0T90IZ1TJLL0RDZGHRCO9MONUCG2", "dateTime": 1519075262060}, {"current_trial": 62, "trialdata": {"rt": -1, "trial_type": "single-stim", "word": "tortoise", "stimulus": "<p id=\"stim\">TORTOISE</p>", "conditions": [18, 1200, "v", 18000], "internal_node_id": "0.0-44.0", "trial": 1, "time_elapsed": 313462, "serialpos": 7, "key_press": -1, "wordID": 1485, "type": "PRES_VIS", "trial_index": 62}, "uniqueid": "MTK2581:3R0T90IZ1TJLL0RDZGHRCO9MONUCG2", "dateTime": 1519075264210}, {"current_trial": 63, "trialdata": {"rt": -1, "trial_type": "single-stim", "word": "lumber", "stimulus": "<p id=\"stim\">LUMBER</p>", "conditions": [18, 1200, "v", 18000], "internal_node_id": "0.0-45.0", "trial": 1, "time_elapsed": 315846, "serialpos": 8, "key_press": -1, "wordID": 847, "type": "PRES_VIS", "trial_index": 63}, "uniqueid": "MTK2581:3R0T90IZ1TJLL0RDZGHRCO9MONUCG2", "dateTime": 1519075266593}, {"current_trial": 64, "trialdata": {"rt": -1, "trial_type": "single-stim", "word": "bucket", "stimulus": "<p id=\"stim\">BUCKET</p>", "conditions": [18, 1200, "v", 18000], "internal_node_id": "0.0-46.0", "trial": 1, "time_elapsed": 317898, "serialpos": 9, "key_press": -1, "wordID": 183, "type": "PRES_VIS", "trial_index": 64}, "uniqueid": "MTK2581:3R0T90IZ1TJLL0RDZGHRCO9MONUCG2", "dateTime": 1519075268645}, {"current_trial": 65, "trialdata": {"rt": -1, "trial_type": "single-stim", "word": "grave", "stimulus": "<p id=\"stim\">GRAVE</p>", "conditions": [18, 1200, "v", 18000], "internal_node_id": "0.0-47.0", "trial": 1, "time_elapsed": 320131, "serialpos": 10, "key_press": -1, "wordID": 657, "type": "PRES_VIS", "trial_index": 65}, "uniqueid": "MTK2581:3R0T90IZ1TJLL0RDZGHRCO9MONUCG2", "dateTime": 1519075270879}, {"current_trial": 66, "trialdata": {"rt": -1, "trial_type": "single-stim", "word": "switch", "stimulus": "<p id=\"stim\">SWITCH</p>", "conditions": [18, 1200, "v", 18000], "internal_node_id": "0.0-48.0", "trial": 1, "time_elapsed": 322412, "serialpos": 11, "key_press": -1, "wordID": 1421, "type": "PRES_VIS", "trial_index": 66}, "uniqueid": "MTK2581:3R0T90IZ1TJLL0RDZGHRCO9MONUCG2", "dateTime": 1519075273159}, {"current_trial": 67, "trialdata": {"rt": -1, "trial_type": "single-stim", "word": "denim", "stimulus": "<p id=\"stim\">DENIM</p>", "conditions": [18, 1200, "v", 18000], "internal_node_id": "0.0-49.0", "trial": 1, "time_elapsed": 324686, "serialpos": 12, "key_press": -1, "wordID": 445, "type": "PRES_VIS", "trial_index": 67}, "uniqueid": "MTK2581:3R0T90IZ1TJLL0RDZGHRCO9MONUCG2", "dateTime": 1519075275433}, {"current_trial": 68, "trialdata": {"rt": -1, "trial_type": "single-stim", "word": "hiker", "stimulus": "<p id=\"stim\">HIKER</p>", "conditions": [18, 1200, "v", 18000], "internal_node_id": "0.0-50.0", "trial": 1, "time_elapsed": 327037, "serialpos": 13, "key_press": -1, "wordID": 707, "type": "PRES_VIS", "trial_index": 68}, "uniqueid": "MTK2581:3R0T90IZ1TJLL0RDZGHRCO9MONUCG2", "dateTime": 1519075277785}, {"current_trial": 69, "trialdata": {"rt": -1, "trial_type": "single-stim", "word": "girl", "stimulus": "<p id=\"stim\">GIRL</p>", "conditions": [18, 1200, "v", 18000], "internal_node_id": "0.0-51.0", "trial": 1, "time_elapsed": 329304, "serialpos": 14, "key_press": -1, "wordID": 636, "type": "PRES_VIS", "trial_index": 69}, "uniqueid": "MTK2581:3R0T90IZ1TJLL0RDZGHRCO9MONUCG2", "dateTime": 1519075280051}, {"current_trial": 70, "trialdata": {"rt": -1, "trial_type": "single-stim", "word": "omelet", "stimulus": "<p id=\"stim\">OMELET</p>", "conditions": [18, 1200, "v", 18000], "internal_node_id": "0.0-52.0", "trial": 1, "time_elapsed": 331500, "serialpos": 15, "key_press": -1, "wordID": 975, "type": "PRES_VIS", "trial_index": 70}, "uniqueid": "MTK2581:3R0T90IZ1TJLL0RDZGHRCO9MONUCG2", "dateTime": 1519075282247}, {"current_trial": 71, "trialdata": {"rt": -1, "trial_type": "single-stim", "word": "salt", "stimulus": "<p id=\"stim\">SALT</p>", "conditions": [18, 1200, "v", 18000], "internal_node_id": "0.0-53.0", "trial": 1, "time_elapsed": 333679, "serialpos": 16, "key_press": -1, "wordID": 1228, "type": "PRES_VIS", "trial_index": 71}, "uniqueid": "MTK2581:3R0T90IZ1TJLL0RDZGHRCO9MONUCG2", "dateTime": 1519075284426}, {"current_trial": 72, "trialdata": {"rt": -1, "trial_type": "single-stim", "word": "island", "stimulus": "<p id=\"stim\">ISLAND</p>", "conditions": [18, 1200, "v", 18000], "internal_node_id": "0.0-54.0", "trial": 1, "time_elapsed": 335732, "serialpos": 17, "key_press": -1, "wordID": 744, "type": "PRES_VIS", "trial_index": 72}, "uniqueid": "MTK2581:3R0T90IZ1TJLL0RDZGHRCO9MONUCG2", "dateTime": 1519075286479}, {"current_trial": 73, "trialdata": {"rt": -1, "trial_type": "single-stim", "stimulus": "", "internal_node_id": "0.0-55.0-0.0", "time_elapsed": 337950, "key_press": -1, "type": "PRE_RECALL_DELAY", "trial_index": 73}, "uniqueid": "MTK2581:3R0T90IZ1TJLL0RDZGHRCO9MONUCG2", "dateTime": 1519075288697}, {"current_trial": 74, "trialdata": {"rt": -1000, "trial_type": "single-audio", "stimulus": "/static/audio/400Hz.wav", "internal_node_id": "0.0-56.0", "time_elapsed": 338452, "key_press": -1, "type": "PRE_RECALL_ALERT", "trial_index": 74}, "uniqueid": "MTK2581:3R0T90IZ1TJLL0RDZGHRCO9MONUCG2", "dateTime": 1519075289199}, {"current_trial": 75, "trialdata": {"rt": [3093, 4621, 6085, 8149, 9901, 11413, 16717, 24709, 26741, 29733], "recwords": ["island", "woman", "girl", "bucket", "inmate", "denim", "fireman", "salt", "omelette", "island"], "key_times": [2022, 2213, 2357, 2485, 2669, 2853, 3093, 3525, 3749, 3981, 4165, 4317, 4621, 5221, 5405, 5613, 5821, 6085, 6725, 6949, 7141, 7269, 7397, 7909, 8149, 8541, 8765, 9069, 9173, 9429, 9629, 9901, 10205, 10461, 10613, 10845, 11037, 11413, 15117, 15309, 15485, 15805, 16061, 16269, 16405, 16717, 23734, 23941, 24317, 24501, 24709, 25189, 25413, 25541, 25709, 25877, 26109, 26277, 26477, 26741, 28749, 28901, 29101, 29245, 29421, 29557, 29733], "trial_type": "free-recall", "conditions": [18, 1200, "v", 18000], "internal_node_id": "0.0-57.0-0.0", "key_presses": [73, 83, 76, 65, 78, 68, 13, 87, 79, 77, 65, 78, 13, 71, 73, 82, 76, 13, 66, 85, 67, 75, 69, 84, 13, 73, 78, 77, 65, 84, 69, 13, 68, 69, 78, 73, 77, 13, 70, 73, 82, 69, 77, 65, 78, 13, 83, 65, 76, 84, 13, 79, 77, 69, 76, 69, 84, 84, 69, 13, 73, 83, 76, 65, 78, 68, 13], "trial": 1, "time_elapsed": 398457, "type": "FREE_RECALL", "trial_index": 75}, "uniqueid": "MTK2581:3R0T90IZ1TJLL0RDZGHRCO9MONUCG2", "dateTime": 1519075349210}, {"current_trial": 76, "trialdata": {"rt": 3308, "trial_type": "text", "internal_node_id": "0.0-58.0", "time_elapsed": 403772, "key_press": 32, "type": "INSTRUCTIONS", "trial_index": 76}, "uniqueid": "MTK2581:3R0T90IZ1TJLL0RDZGHRCO9MONUCG2", "dateTime": 1519075354519}, {"current_trial": 77, "trialdata": {"rt": [2663, 4487, 6599, 8455, 11103, 13079, 14911, 18111, 20183, 22415], "trial_type": "math-distractor", "key_times": [2087, 2279, 2663, 4183, 4487, 6143, 6383, 6599, 7967, 8215, 8455, 10599, 10847, 11103, 12567, 12815, 13079, 14671, 14911, 17583, 17871, 18111, 19728, 19896, 20183, 21727, 22095, 22415], "responses": ["15", "8", "14", "10", "21", "16", "6", "26", "12", "14"], "num2": [6, 3, 4, 2, 9, 8, 1, 8, 5, 8, 3], "num3": [6, 2, 8, 3, 6, 2, 2, 9, 5, 4, 4], "conditions": [24, 800, "v", 24000], "internal_node_id": "0.0-59.0", "key_presses": [97, 101, 13, 104, 13, 97, 100, 13, 97, 96, 13, 98, 97, 13, 97, 102, 13, 102, 13, 98, 102, 13, 97, 98, 13, 97, 100, 13], "trial": 2, "time_elapsed": 428782, "type": "DISTRACTOR", "trial_index": 77, "num1": [3, 3, 2, 5, 2, 6, 3, 8, 2, 2, 9]}, "uniqueid": "MTK2581:3R0T90IZ1TJLL0RDZGHRCO9MONUCG2", "dateTime": 1519075379529}, {"current_trial": 78, "trialdata": {"rt": -1, "trial_type": "single-stim", "stimulus": "<p id=\"stim\">10</p>", "internal_node_id": "0.0-60.0-0.0", "time_elapsed": 431783, "key_press": -1, "trial_index": 78}, "uniqueid": "MTK2581:3R0T90IZ1TJLL0RDZGHRCO9MONUCG2", "dateTime": 1519075382530}, {"current_trial": 79, "trialdata": {"rt": -1, "trial_type": "single-stim", "stimulus": "<p id=\"stim\">9</p>", "internal_node_id": "0.0-60.0-1.0", "time_elapsed": 432784, "key_press": -1, "trial_index": 79}, "uniqueid": "MTK2581:3R0T90IZ1TJLL0RDZGHRCO9MONUCG2", "dateTime": 1519075383532}, {"current_trial": 80, "trialdata": {"rt": -1, "trial_type": "single-stim", "stimulus": "<p id=\"stim\">8</p>", "internal_node_id": "0.0-60.0-2.0", "time_elapsed": 433786, "key_press": -1, "trial_index": 80}, "uniqueid": "MTK2581:3R0T90IZ1TJLL0RDZGHRCO9MONUCG2", "dateTime": 1519075384533}, {"current_trial": 81, "trialdata": {"rt": -1, "trial_type": "single-stim", "stimulus": "<p id=\"stim\">7</p>", "internal_node_id": "0.0-60.0-3.0", "time_elapsed": 434787, "key_press": -1, "trial_index": 81}, "uniqueid": "MTK2581:3R0T90IZ1TJLL0RDZGHRCO9MONUCG2", "dateTime": 1519075385534}, {"current_trial": 82, "trialdata": {"rt": -1, "trial_type": "single-stim", "stimulus": "<p id=\"stim\">6</p>", "internal_node_id": "0.0-60.0-4.0", "time_elapsed": 435788, "key_press": -1, "trial_index": 82}, "uniqueid": "MTK2581:3R0T90IZ1TJLL0RDZGHRCO9MONUCG2", "dateTime": 1519075386535}, {"current_trial": 83, "trialdata": {"rt": -1, "trial_type": "single-stim", "stimulus": "<p id=\"stim\">5</p>", "internal_node_id": "0.0-60.0-5.0", "time_elapsed": 436790, "key_press": -1, "trial_index": 83}, "uniqueid": "MTK2581:3R0T90IZ1TJLL0RDZGHRCO9MONUCG2", "dateTime": 1519075387537}, {"current_trial": 84, "trialdata": {"rt": -1, "trial_type": "single-stim", "stimulus": "<p id=\"stim\">4</p>", "internal_node_id": "0.0-60.0-6.0", "time_elapsed": 437791, "key_press": -1, "trial_index": 84}, "uniqueid": "MTK2581:3R0T90IZ1TJLL0RDZGHRCO9MONUCG2", "dateTime": 1519075388538}, {"current_trial": 85, "trialdata": {"rt": -1, "trial_type": "single-stim", "stimulus": "<p id=\"stim\">3</p>", "internal_node_id": "0.0-60.0-7.0", "time_elapsed": 438792, "key_press": -1, "trial_index": 85}, "uniqueid": "MTK2581:3R0T90IZ1TJLL0RDZGHRCO9MONUCG2", "dateTime": 1519075389539}, {"current_trial": 86, "trialdata": {"rt": -1, "trial_type": "single-stim", "stimulus": "<p id=\"stim\">2</p>", "internal_node_id": "0.0-60.0-8.0", "time_elapsed": 439794, "key_press": -1, "trial_index": 86}, "uniqueid": "MTK2581:3R0T90IZ1TJLL0RDZGHRCO9MONUCG2", "dateTime": 1519075390541}, {"current_trial": 87, "trialdata": {"rt": -1, "trial_type": "single-stim", "stimulus": "<p id=\"stim\">1</p>", "internal_node_id": "0.0-60.0-9.0", "time_elapsed": 440795, "key_press": -1, "trial_index": 87}, "uniqueid": "MTK2581:3R0T90IZ1TJLL0RDZGHRCO9MONUCG2", "dateTime": 1519075391542}, {"current_trial": 88, "trialdata": {"rt": -1, "trial_type": "single-stim", "stimulus": "<p id=\"stim\">+</p>", "internal_node_id": "0.0-61.0-0.0", "time_elapsed": 442296, "key_press": -1, "type": "FIXATION", "trial_index": 88}, "uniqueid": "MTK2581:3R0T90IZ1TJLL0RDZGHRCO9MONUCG2", "dateTime": 1519075393043}, {"current_trial": 89, "trialdata": {"rt": -1, "trial_type": "single-stim", "word": "blueprint", "stimulus": "<p id=\"stim\">BLUEPRINT</p>", "conditions": [24, 800, "v", 24000], "internal_node_id": "0.0-62.0", "trial": 2, "time_elapsed": 443098, "serialpos": 0, "key_press": -1, "wordID": 141, "type": "PRES_VIS", "trial_index": 89}, "uniqueid": "MTK2581:3R0T90IZ1TJLL0RDZGHRCO9MONUCG2", "dateTime": 1519075393845}, {"current_trial": 90, "trialdata": {"rt": -1, "trial_type": "single-stim", "word": "report", "stimulus": "<p id=\"stim\">REPORT</p>", "conditions": [24, 800, "v", 24000], "internal_node_id": "0.0-63.0", "trial": 2, "time_elapsed": 444737, "serialpos": 1, "key_press": -1, "wordID": 1183, "type": "PRES_VIS", "trial_index": 90}, "uniqueid": "MTK2581:3R0T90IZ1TJLL0RDZGHRCO9MONUCG2", "dateTime": 1519075395484}, {"current_trial": 91, "trialdata": {"rt": -1, "trial_type": "single-stim", "word": "primate", "stimulus": "<p id=\"stim\">PRIMATE</p>", "conditions": [24, 800, "v", 24000], "internal_node_id": "0.0-64.0", "trial": 2, "time_elapsed": 446603, "serialpos": 2, "key_press": -1, "wordID": 1122, "type": "PRES_VIS", "trial_index": 91}, "uniqueid": "MTK2581:3R0T90IZ1TJLL0RDZGHRCO9MONUCG2", "dateTime": 1519075397350}, {"current_trial": 92, "trialdata": {"rt": -1, "trial_type": "single-stim", "word": "mammal", "stimulus": "<p id=\"stim\">MAMMAL</p>", "conditions": [24, 800, "v", 24000], "internal_node_id": "0.0-65.0", "trial": 2, "time_elapsed": 448257, "serialpos": 3, "key_press": -1, "wordID": 860, "type": "PRES_VIS", "trial_index": 92}, "uniqueid": "MTK2581:3R0T90IZ1TJLL0RDZGHRCO9MONUCG2", "dateTime": 1519075399004}, {"current_trial": 93, "trialdata": {"rt": -1, "trial_type": "single-stim", "word": "dancer", "stimulus": "<p id=\"stim\">DANCER</p>", "conditions": [24, 800, "v", 24000], "internal_node_id": "0.0-66.0", "trial": 2, "time_elapsed": 449895, "serialpos": 4, "key_press": -1, "wordID": 436, "type": "PRES_VIS", "trial_index": 93}, "uniqueid": "MTK2581:3R0T90IZ1TJLL0RDZGHRCO9MONUCG2", "dateTime": 1519075400642}, {"current_trial": 94, "trialdata": {"rt": -1, "trial_type": "single-stim", "word": "leader", "stimulus": "<p id=\"stim\">LEADER</p>", "conditions": [24, 800, "v", 24000], "internal_node_id": "0.0-67.0", "trial": 2, "time_elapsed": 451714, "serialpos": 5, "key_press": -1, "wordID": 806, "type": "PRES_VIS", "trial_index": 94}, "uniqueid": "MTK2581:3R0T90IZ1TJLL0RDZGHRCO9MONUCG2", "dateTime": 1519075402461}, {"current_trial": 95, "trialdata": {"rt": -1, "trial_type": "single-stim", "word": "ankle", "stimulus": "<p id=\"stim\">ANKLE</p>", "conditions": [24, 800, "v", 24000], "internal_node_id": "0.0-68.0", "trial": 2, "time_elapsed": 453710, "serialpos": 6, "key_press": -1, "wordID": 23, "type": "PRES_VIS", "trial_index": 95}, "uniqueid": "MTK2581:3R0T90IZ1TJLL0RDZGHRCO9MONUCG2", "dateTime": 1519075404457}, {"current_trial": 96, "trialdata": {"rt": -1, "trial_type": "single-stim", "word": "pigeon", "stimulus": "<p id=\"stim\">PIGEON</p>", "conditions": [24, 800, "v", 24000], "internal_node_id": "0.0-69.0", "trial": 2, "time_elapsed": 455705, "serialpos": 7, "key_press": -1, "wordID": 1064, "type": "PRES_VIS", "trial_index": 96}, "uniqueid": "MTK2581:3R0T90IZ1TJLL0RDZGHRCO9MONUCG2", "dateTime": 1519075406453}, {"current_trial": 97, "trialdata": {"rt": -1, "trial_type": "single-stim", "word": "gavel", "stimulus": "<p id=\"stim\">GAVEL</p>", "conditions": [24, 800, "v", 24000], "internal_node_id": "0.0-70.0", "trial": 2, "time_elapsed": 457431, "serialpos": 8, "key_press": -1, "wordID": 626, "type": "PRES_VIS", "trial_index": 97}, "uniqueid": "MTK2581:3R0T90IZ1TJLL0RDZGHRCO9MONUCG2", "dateTime": 1519075408178}, {"current_trial": 98, "trialdata": {"rt": -1, "trial_type": "single-stim", "word": "hero", "stimulus": "<p id=\"stim\">HERO</p>", "conditions": [24, 800, "v", 24000], "internal_node_id": "0.0-71.0", "trial": 2, "time_elapsed": 459359, "serialpos": 9, "key_press": -1, "wordID": 705, "type": "PRES_VIS", "trial_index": 98}, "uniqueid": "MTK2581:3R0T90IZ1TJLL0RDZGHRCO9MONUCG2", "dateTime": 1519075410106}, {"current_trial": 99, "trialdata": {"rt": -1, "trial_type": "single-stim", "word": "maple", "stimulus": "<p id=\"stim\">MAPLE</p>", "conditions": [24, 800, "v", 24000], "internal_node_id": "0.0-72.0", "trial": 2, "time_elapsed": 461177, "serialpos": 10, "key_press": -1, "wordID": 865, "type": "PRES_VIS", "trial_index": 99}, "uniqueid": "MTK2581:3R0T90IZ1TJLL0RDZGHRCO9MONUCG2", "dateTime": 1519075411924}, {"current_trial": 100, "trialdata": {"rt": -1, "trial_type": "single-stim", "word": "gymnast", "stimulus": "<p id=\"stim\">GYMNAST</p>", "conditions": [24, 800, "v", 24000], "internal_node_id": "0.0-73.0", "trial": 2, "time_elapsed": 463075, "serialpos": 11, "key_press": -1, "wordID": 674, "type": "PRES_VIS", "trial_index": 100}, "uniqueid": "MTK2581:3R0T90IZ1TJLL0RDZGHRCO9MONUCG2", "dateTime": 1519075413822}, {"current_trial": 101, "trialdata": {"rt": -1, "trial_type": "single-stim", "word": "twister", "stimulus": "<p id=\"stim\">TWISTER</p>", "conditions": [24, 800, "v", 24000], "internal_node_id": "0.0-74.0", "trial": 2, "time_elapsed": 464828, "serialpos": 12, "key_press": -1, "wordID": 1529, "type": "PRES_VIS", "trial_index": 101}, "uniqueid": "MTK2581:3R0T90IZ1TJLL0RDZGHRCO9MONUCG2", "dateTime": 1519075415575}, {"current_trial": 102, "trialdata": {"rt": -1, "trial_type": "single-stim", "word": "package", "stimulus": "<p id=\"stim\">PACKAGE</p>", "conditions": [24, 800, "v", 24000], "internal_node_id": "0.0-75.0", "trial": 2, "time_elapsed": 466545, "serialpos": 13, "key_press": -1, "wordID": 996, "type": "PRES_VIS", "trial_index": 102}, "uniqueid": "MTK2581:3R0T90IZ1TJLL0RDZGHRCO9MONUCG2", "dateTime": 1519075417292}, {"current_trial": 103, "trialdata": {"rt": -1, "trial_type": "single-stim", "word": "flashlight", "stimulus": "<p id=\"stim\">FLASHLIGHT</p>", "conditions": [24, 800, "v", 24000], "internal_node_id": "0.0-76.0", "trial": 2, "time_elapsed": 468473, "serialpos": 14, "key_press": -1, "wordID": 574, "type": "PRES_VIS", "trial_index": 103}, "uniqueid": "MTK2581:3R0T90IZ1TJLL0RDZGHRCO9MONUCG2", "dateTime": 1519075419220}, {"current_trial": 104, "trialdata": {"rt": -1, "trial_type": "single-stim", "word": "friend", "stimulus": "<p id=\"stim\">FRIEND</p>", "conditions": [24, 800, "v", 24000], "internal_node_id": "0.0-77.0", "trial": 2, "time_elapsed": 470435, "serialpos": 15, "key_press": -1, "wordID": 605, "type": "PRES_VIS", "trial_index": 104}, "uniqueid": "MTK2581:3R0T90IZ1TJLL0RDZGHRCO9MONUCG2", "dateTime": 1519075421182}, {"current_trial": 105, "trialdata": {"rt": -1, "trial_type": "single-stim", "word": "lizard", "stimulus": "<p id=\"stim\">LIZARD</p>", "conditions": [24, 800, "v", 24000], "internal_node_id": "0.0-78.0", "trial": 2, "time_elapsed": 472176, "serialpos": 16, "key_press": -1, "wordID": 833, "type": "PRES_VIS", "trial_index": 105}, "uniqueid": "MTK2581:3R0T90IZ1TJLL0RDZGHRCO9MONUCG2", "dateTime": 1519075422924}, {"current_trial": 106, "trialdata": {"rt": -1, "trial_type": "single-stim", "word": "briefcase", "stimulus": "<p id=\"stim\">BRIEFCASE</p>", "conditions": [24, 800, "v", 24000], "internal_node_id": "0.0-79.0", "trial": 2, "time_elapsed": 473791, "serialpos": 17, "key_press": -1, "wordID": 174, "type": "PRES_VIS", "trial_index": 106}, "uniqueid": "MTK2581:3R0T90IZ1TJLL0RDZGHRCO9MONUCG2", "dateTime": 1519075424538}, {"current_trial": 107, "trialdata": {"rt": -1, "trial_type": "single-stim", "word": "guard", "stimulus": "<p id=\"stim\">GUARD</p>", "conditions": [24, 800, "v", 24000], "internal_node_id": "0.0-80.0", "trial": 2, "time_elapsed": 475690, "serialpos": 18, "key_press": -1, "wordID": 666, "type": "PRES_VIS", "trial_index": 107}, "uniqueid": "MTK2581:3R0T90IZ1TJLL0RDZGHRCO9MONUCG2", "dateTime": 1519075426437}, {"current_trial": 108, "trialdata": {"rt": -1, "trial_type": "single-stim", "word": "rocket", "stimulus": "<p id=\"stim\">ROCKET</p>", "conditions": [24, 800, "v", 24000], "internal_node_id": "0.0-81.0", "trial": 2, "time_elapsed": 477525, "serialpos": 19, "key_press": -1, "wordID": 1201, "type": "PRES_VIS", "trial_index": 108}, "uniqueid": "MTK2581:3R0T90IZ1TJLL0RDZGHRCO9MONUCG2", "dateTime": 1519075428272}, {"current_trial": 109, "trialdata": {"rt": -1, "trial_type": "single-stim", "word": "knapsack", "stimulus": "<p id=\"stim\">KNAPSACK</p>", "conditions": [24, 800, "v", 24000], "internal_node_id": "0.0-82.0", "trial": 2, "time_elapsed": 479494, "serialpos": 20, "key_press": -1, "wordID": 782, "type": "PRES_VIS", "trial_index": 109}, "uniqueid": "MTK2581:3R0T90IZ1TJLL0RDZGHRCO9MONUCG2", "dateTime": 1519075430242}, {"current_trial": 110, "trialdata": {"rt": -1, "trial_type": "single-stim", "word": "suitcase", "stimulus": "<p id=\"stim\">SUITCASE</p>", "conditions": [24, 800, "v", 24000], "internal_node_id": "0.0-83.0", "trial": 2, "time_elapsed": 481401, "serialpos": 21, "key_press": -1, "wordID": 1402, "type": "PRES_VIS", "trial_index": 110}, "uniqueid": "MTK2581:3R0T90IZ1TJLL0RDZGHRCO9MONUCG2", "dateTime": 1519075432148}, {"current_trial": 111, "trialdata": {"rt": -1, "trial_type": "single-stim", "word": "nightgown", "stimulus": "<p id=\"stim\">NIGHTGOWN</p>", "conditions": [24, 800, "v", 24000], "internal_node_id": "0.0-84.0", "trial": 2, "time_elapsed": 483401, "serialpos": 22, "key_press": -1, "wordID": 952, "type": "PRES_VIS", "trial_index": 111}, "uniqueid": "MTK2581:3R0T90IZ1TJLL0RDZGHRCO9MONUCG2", "dateTime": 1519075434149}, {"current_trial": 112, "trialdata": {"rt": -1, "trial_type": "single-stim", "word": "chipmunk", "stimulus": "<p id=\"stim\">CHIPMUNK</p>", "conditions": [24, 800, "v", 24000], "internal_node_id": "0.0-85.0", "trial": 2, "time_elapsed": 485392, "serialpos": 23, "key_press": -1, "wordID": 303, "type": "PRES_VIS", "trial_index": 112}, "uniqueid": "MTK2581:3R0T90IZ1TJLL0RDZGHRCO9MONUCG2", "dateTime": 1519075436140}, {"current_trial": 113, "trialdata": {"rt": -1, "trial_type": "single-stim", "stimulus": "", "internal_node_id": "0.0-86.0-0.0", "time_elapsed": 487814, "key_press": -1, "type": "PRE_RECALL_DELAY", "trial_index": 113}, "uniqueid": "MTK2581:3R0T90IZ1TJLL0RDZGHRCO9MONUCG2", "dateTime": 1519075438561}, {"current_trial": 114, "trialdata": {"rt": -1000, "trial_type": "single-audio", "stimulus": "/static/audio/400Hz.wav", "internal_node_id": "0.0-87.0", "time_elapsed": 488315, "key_press": -1, "type": "PRE_RECALL_ALERT", "trial_index": 114}, "uniqueid": "MTK2581:3R0T90IZ1TJLL0RDZGHRCO9MONUCG2", "dateTime": 1519075439062}, {"current_trial": 115, "trialdata": {"rt": [4331, 7955, 13891, 17251, 35787, 51123], "recwords": ["nightgown", "chipmunk", "briefcase", "guard", "suspect", "lizard"], "key_times": [1948, 2156, 2380, 2532, 2668, 3252, 3532, 3724, 3892, 4331, 5355, 5516, 5820, 6044, 6348, 6580, 6844, 7028, 7955, 9211, 9540, 9908, 10100, 10356, 10596, 10852, 11083, 11828, 12035, 12540, 12964, 13204, 13403, 13628, 13891, 16052, 16187, 16356, 16596, 16860, 17251, 33597, 33964, 34275, 34587, 34739, 35044, 35403, 35787, 48396, 48939, 49659, 49907, 50139, 50379, 50603, 50875, 51123, 59699, 59852], "trial_type": "free-recall", "conditions": [24, 800, "v", 24000], "internal_node_id": "0.0-88.0-0.0", "key_presses": [78, 73, 71, 72, 84, 71, 79, 87, 78, 13, 67, 72, 73, 80, 77, 85, 78, 75, 13, 66, 82, 73, 69, 70, 65, 67, 69, 8, 8, 8, 67, 65, 83, 69, 13, 71, 85, 65, 82, 68, 13, 83, 85, 83, 80, 69, 67, 84, 13, 59, 8, 76, 73, 90, 65, 82, 68, 13, 71, 65], "trial": 2, "time_elapsed": 548321, "type": "FREE_RECALL", "trial_index": 115}, "uniqueid": "MTK2581:3R0T90IZ1TJLL0RDZGHRCO9MONUCG2", "dateTime": 1519075499072}, {"current_trial": 116, "trialdata": {"rt": 1164, "trial_type": "text", "internal_node_id": "0.0-89.0", "time_elapsed": 551490, "key_press": 32, "type": "INSTRUCTIONS", "trial_index": 116}, "uniqueid": "MTK2581:3R0T90IZ1TJLL0RDZGHRCO9MONUCG2", "dateTime": 1519075502238}, {"current_trial": 117, "trialdata": {"rt": [2394, 4290, 6474, 8322, 10434, 12722, 14970, 17506, 19738, 21866], "trial_type": "math-distractor", "key_times": [1706, 1946, 2394, 3738, 4010, 4290, 6034, 6218, 6474, 7834, 8034, 8322, 9970, 10210, 10434, 12298, 12506, 12722, 14594, 14754, 14970, 16954, 17250, 17506, 19234, 19442, 19738, 21362, 21610, 21866, 23786], "responses": ["18", "13", "15", "18", "16", "22", "21", "13", "22", "18"], "num2": [4, 5, 6, 7, 9, 5, 5, 2, 6, 9, 8], "num3": [8, 2, 7, 8, 3, 8, 8, 8, 7, 6, 8], "conditions": [12, 800, "v", 24000], "internal_node_id": "0.0-90.0", "key_presses": [97, 104, 13, 97, 99, 13, 97, 101, 13, 97, 104, 13, 97, 102, 13, 98, 98, 13, 98, 97, 13, 97, 99, 13, 98, 98, 13, 97, 104, 13, 98], "trial": 3, "time_elapsed": 577498, "type": "DISTRACTOR", "trial_index": 117, "num1": [6, 6, 2, 3, 4, 9, 8, 3, 9, 3, 9]}, "uniqueid": "MTK2581:3R0T90IZ1TJLL0RDZGHRCO9MONUCG2", "dateTime": 1519075528245}, {"current_trial": 118, "trialdata": {"rt": -1, "trial_type": "single-stim", "stimulus": "<p id=\"stim\">10</p>", "internal_node_id": "0.0-91.0-0.0", "time_elapsed": 580499, "key_press": -1, "trial_index": 118}, "uniqueid": "MTK2581:3R0T90IZ1TJLL0RDZGHRCO9MONUCG2", "dateTime": 1519075531246}, {"current_trial": 119, "trialdata": {"rt": -1, "trial_type": "single-stim", "stimulus": "<p id=\"stim\">9</p>", "internal_node_id": "0.0-91.0-1.0", "time_elapsed": 581501, "key_press": -1, "trial_index": 119}, "uniqueid": "MTK2581:3R0T90IZ1TJLL0RDZGHRCO9MONUCG2", "dateTime": 1519075532248}, {"current_trial": 120, "trialdata": {"rt": -1, "trial_type": "single-stim", "stimulus": "<p id=\"stim\">8</p>", "internal_node_id": "0.0-91.0-2.0", "time_elapsed": 582502, "key_press": -1, "trial_index": 120}, "uniqueid": "MTK2581:3R0T90IZ1TJLL0RDZGHRCO9MONUCG2", "dateTime": 1519075533249}, {"current_trial": 121, "trialdata": {"rt": -1, "trial_type": "single-stim", "stimulus": "<p id=\"stim\">7</p>", "internal_node_id": "0.0-91.0-3.0", "time_elapsed": 583503, "key_press": -1, "trial_index": 121}, "uniqueid": "MTK2581:3R0T90IZ1TJLL0RDZGHRCO9MONUCG2", "dateTime": 1519075534251}, {"current_trial": 122, "trialdata": {"rt": -1, "trial_type": "single-stim", "stimulus": "<p id=\"stim\">6</p>", "internal_node_id": "0.0-91.0-4.0", "time_elapsed": 584505, "key_press": -1, "trial_index": 122}, "uniqueid": "MTK2581:3R0T90IZ1TJLL0RDZGHRCO9MONUCG2", "dateTime": 1519075535252}, {"current_trial": 123, "trialdata": {"rt": -1, "trial_type": "single-stim", "stimulus": "<p id=\"stim\">5</p>", "internal_node_id": "0.0-91.0-5.0", "time_elapsed": 585506, "key_press": -1, "trial_index": 123}, "uniqueid": "MTK2581:3R0T90IZ1TJLL0RDZGHRCO9MONUCG2", "dateTime": 1519075536253}, {"current_trial": 124, "trialdata": {"rt": -1, "trial_type": "single-stim", "stimulus": "<p id=\"stim\">4</p>", "internal_node_id": "0.0-91.0-6.0", "time_elapsed": 586508, "key_press": -1, "trial_index": 124}, "uniqueid": "MTK2581:3R0T90IZ1TJLL0RDZGHRCO9MONUCG2", "dateTime": 1519075537255}, {"current_trial": 125, "trialdata": {"rt": -1, "trial_type": "single-stim", "stimulus": "<p id=\"stim\">3</p>", "internal_node_id": "0.0-91.0-7.0", "time_elapsed": 587510, "key_press": -1, "trial_index": 125}, "uniqueid": "MTK2581:3R0T90IZ1TJLL0RDZGHRCO9MONUCG2", "dateTime": 1519075538257}, {"current_trial": 126, "trialdata": {"rt": -1, "trial_type": "single-stim", "stimulus": "<p id=\"stim\">2</p>", "internal_node_id": "0.0-91.0-8.0", "time_elapsed": 588513, "key_press": -1, "trial_index": 126}, "uniqueid": "MTK2581:3R0T90IZ1TJLL0RDZGHRCO9MONUCG2", "dateTime": 1519075539260}, {"current_trial": 127, "trialdata": {"rt": -1, "trial_type": "single-stim", "stimulus": "<p id=\"stim\">1</p>", "internal_node_id": "0.0-91.0-9.0", "time_elapsed": 589515, "key_press": -1, "trial_index": 127}, "uniqueid": "MTK2581:3R0T90IZ1TJLL0RDZGHRCO9MONUCG2", "dateTime": 1519075540262}, {"current_trial": 128, "trialdata": {"rt": -1, "trial_type": "single-stim", "stimulus": "<p id=\"stim\">+</p>", "internal_node_id": "0.0-92.0-0.0", "time_elapsed": 591016, "key_press": -1, "type": "FIXATION", "trial_index": 128}, "uniqueid": "MTK2581:3R0T90IZ1TJLL0RDZGHRCO9MONUCG2", "dateTime": 1519075541763}, {"current_trial": 129, "trialdata": {"rt": -1, "trial_type": "single-stim", "word": "turkey", "stimulus": "<p id=\"stim\">TURKEY</p>", "conditions": [12, 800, "v", 24000], "internal_node_id": "0.0-93.0", "trial": 3, "time_elapsed": 591817, "serialpos": 0, "key_press": -1, "wordID": 1519, "type": "PRES_VIS", "trial_index": 129}, "uniqueid": "MTK2581:3R0T90IZ1TJLL0RDZGHRCO9MONUCG2", "dateTime": 1519075542565}, {"current_trial": 130, "trialdata": {"rt": -1, "trial_type": "single-stim", "word": "husband", "stimulus": "<p id=\"stim\">HUSBAND</p>", "conditions": [12, 800, "v", 24000], "internal_node_id": "0.0-94.0", "trial": 3, "time_elapsed": 593453, "serialpos": 1, "key_press": -1, "wordID": 727, "type": "PRES_VIS", "trial_index": 130}, "uniqueid": "MTK2581:3R0T90IZ1TJLL0RDZGHRCO9MONUCG2", "dateTime": 1519075544200}, {"current_trial": 131, "trialdata": {"rt": -1, "trial_type": "single-stim", "word": "cousin", "stimulus": "<p id=\"stim\">COUSIN</p>", "conditions": [12, 800, "v", 24000], "internal_node_id": "0.0-95.0", "trial": 3, "time_elapsed": 595206, "serialpos": 2, "key_press": -1, "wordID": 391, "type": "PRES_VIS", "trial_index": 131}, "uniqueid": "MTK2581:3R0T90IZ1TJLL0RDZGHRCO9MONUCG2", "dateTime": 1519075545953}, {"current_trial": 132, "trialdata": {"rt": -1, "trial_type": "single-stim", "word": "shovel", "stimulus": "<p id=\"stim\">SHOVEL</p>", "conditions": [12, 800, "v", 24000], "internal_node_id": "0.0-96.0", "trial": 3, "time_elapsed": 596823, "serialpos": 3, "key_press": -1, "wordID": 1294, "type": "PRES_VIS", "trial_index": 132}, "uniqueid": "MTK2581:3R0T90IZ1TJLL0RDZGHRCO9MONUCG2", "dateTime": 1519075547570}, {"current_trial": 133, "trialdata": {"rt": -1, "trial_type": "single-stim", "word": "typist", "stimulus": "<p id=\"stim\">TYPIST</p>", "conditions": [12, 800, "v", 24000], "internal_node_id": "0.0-97.0", "trial": 3, "time_elapsed": 598663, "serialpos": 4, "key_press": -1, "wordID": 1531, "type": "PRES_VIS", "trial_index": 133}, "uniqueid": "MTK2581:3R0T90IZ1TJLL0RDZGHRCO9MONUCG2", "dateTime": 1519075549410}, {"current_trial": 134, "trialdata": {"rt": -1, "trial_type": "single-stim", "word": "tablet", "stimulus": "<p id=\"stim\">TABLET</p>", "conditions": [12, 800, "v", 24000], "internal_node_id": "0.0-98.0", "trial": 3, "time_elapsed": 600588, "serialpos": 5, "key_press": -1, "wordID": 1426, "type": "PRES_VIS", "trial_index": 134}, "uniqueid": "MTK2581:3R0T90IZ1TJLL0RDZGHRCO9MONUCG2", "dateTime": 1519075551335}, {"current_trial": 135, "trialdata": {"rt": -1, "trial_type": "single-stim", "word": "dentist", "stimulus": "<p id=\"stim\">DENTIST</p>", "conditions": [12, 800, "v", 24000], "internal_node_id": "0.0-99.0", "trial": 3, "time_elapsed": 602193, "serialpos": 6, "key_press": -1, "wordID": 446, "type": "PRES_VIS", "trial_index": 135}, "uniqueid": "MTK2581:3R0T90IZ1TJLL0RDZGHRCO9MONUCG2", "dateTime": 1519075552941}, {"current_trial": 136, "trialdata": {"rt": -1, "trial_type": "single-stim", "word": "razor", "stimulus": "<p id=\"stim\">RAZOR</p>", "conditions": [12, 800, "v", 24000], "internal_node_id": "0.0-100.0", "trial": 3, "time_elapsed": 603840, "serialpos": 7, "key_press": -1, "wordID": 1170, "type": "PRES_VIS", "trial_index": 136}, "uniqueid": "MTK2581:3R0T90IZ1TJLL0RDZGHRCO9MONUCG2", "dateTime": 1519075554587}, {"current_trial": 137, "trialdata": {"rt": -1, "trial_type": "single-stim", "word": "sparrow", "stimulus": "<p id=\"stim\">SPARROW</p>", "conditions": [12, 800, "v", 24000], "internal_node_id": "0.0-101.0", "trial": 3, "time_elapsed": 605836, "serialpos": 8, "key_press": -1, "wordID": 1346, "type": "PRES_VIS", "trial_index": 137}, "uniqueid": "MTK2581:3R0T90IZ1TJLL0RDZGHRCO9MONUCG2", "dateTime": 1519075556583}, {"current_trial": 138, "trialdata": {"rt": -1, "trial_type": "single-stim", "word": "money", "stimulus": "<p id=\"stim\">MONEY</p>", "conditions": [12, 800, "v", 24000], "internal_node_id": "0.0-102.0", "trial": 3, "time_elapsed": 607822, "serialpos": 9, "key_press": -1, "wordID": 907, "type": "PRES_VIS", "trial_index": 138}, "uniqueid": "MTK2581:3R0T90IZ1TJLL0RDZGHRCO9MONUCG2", "dateTime": 1519075558569}, {"current_trial": 139, "trialdata": {"rt": -1, "trial_type": "single-stim", "word": "uncle", "stimulus": "<p id=\"stim\">UNCLE</p>", "conditions": [12, 800, "v", 24000], "internal_node_id": "0.0-103.0", "trial": 3, "time_elapsed": 609560, "serialpos": 10, "key_press": -1, "wordID": 1535, "type": "PRES_VIS", "trial_index": 139}, "uniqueid": "MTK2581:3R0T90IZ1TJLL0RDZGHRCO9MONUCG2", "dateTime": 1519075560308}, {"current_trial": 140, "trialdata": {"rt": -1, "trial_type": "single-stim", "word": "scalpel", "stimulus": "<p id=\"stim\">SCALPEL</p>", "conditions": [12, 800, "v", 24000], "internal_node_id": "0.0-104.0", "trial": 3, "time_elapsed": 611189, "serialpos": 11, "key_press": -1, "wordID": 1242, "type": "PRES_VIS", "trial_index": 140}, "uniqueid": "MTK2581:3R0T90IZ1TJLL0RDZGHRCO9MONUCG2", "dateTime": 1519075561937}, {"current_trial": 141, "trialdata": {"rt": -1, "trial_type": "single-stim", "stimulus": "", "internal_node_id": "0.0-105.0-0.0", "time_elapsed": 613379, "key_press": -1, "type": "PRE_RECALL_DELAY", "trial_index": 141}, "uniqueid": "MTK2581:3R0T90IZ1TJLL0RDZGHRCO9MONUCG2", "dateTime": 1519075564126}, {"current_trial": 142, "trialdata": {"rt": -1000, "trial_type": "single-audio", "stimulus": "/static/audio/400Hz.wav", "internal_node_id": "0.0-106.0", "time_elapsed": 613881, "key_press": -1, "type": "PRE_RECALL_ALERT", "trial_index": 142}, "uniqueid": "MTK2581:3R0T90IZ1TJLL0RDZGHRCO9MONUCG2", "dateTime": 1519075564628}, {"current_trial": 143, "trialdata": {"rt": [2395, 4419, 6227, 8347, 10283, 11859], "recwords": ["turkey", "husband", "cousin", "uncle", "typist", "dentist"], "key_times": [1236, 1363, 1571, 1715, 1883, 2035, 2395, 3043, 3259, 3460, 3683, 3819, 3939, 4115, 4419, 5060, 5187, 5395, 5563, 5715, 5899, 6227, 6932, 7179, 7411, 7891, 8155, 8347, 9012, 9171, 9427, 9707, 9835, 10083, 10283, 10620, 10835, 10955, 11115, 11235, 11395, 11611, 11859], "trial_type": "free-recall", "conditions": [12, 800, "v", 24000], "internal_node_id": "0.0-107.0-0.0", "key_presses": [84, 85, 82, 75, 69, 89, 13, 72, 85, 83, 66, 65, 78, 68, 13, 67, 79, 85, 83, 73, 78, 13, 85, 78, 67, 76, 69, 13, 84, 89, 80, 73, 83, 84, 13, 68, 69, 78, 84, 73, 83, 84, 13], "trial": 3, "time_elapsed": 673889, "type": "FREE_RECALL", "trial_index": 143}, "uniqueid": "MTK2581:3R0T90IZ1TJLL0RDZGHRCO9MONUCG2", "dateTime": 1519075624639}, {"current_trial": 144, "trialdata": {"rt": 1076, "trial_type": "text", "internal_node_id": "0.0-108.0", "time_elapsed": 676969, "key_press": 32, "type": "INSTRUCTIONS", "trial_index": 144}, "uniqueid": "MTK2581:3R0T90IZ1TJLL0RDZGHRCO9MONUCG2", "dateTime": 1519075627717}, {"current_trial": 145, "trialdata": {"rt": [2954, 4930, 7186, 9306, 11417, 13433, 15609, 18089, 20193, 22275], "trial_type": "math-distractor", "key_times": [2394, 2578, 2954, 4379, 4642, 4930, 6730, 6978, 7186, 8890, 9082, 9306, 10994, 11194, 11417, 12986, 13226, 13433, 15210, 15402, 15609, 17810, 18089, 19530, 19890, 20193, 21706, 21945, 22275, 23730, 23977], "responses": ["16", "19", "24", "16", "21", "14", "21", "9", "14", "15"], "num2": [3, 1, 8, 5, 6, 4, 5, 5, 6, 9, 2], "num3": [8, 9, 7, 7, 6, 1, 8, 1, 1, 4, 3], "conditions": [12, 1600, "v", 24000], "internal_node_id": "0.0-109.0", "key_presses": [97, 102, 13, 97, 105, 13, 98, 100, 13, 97, 102, 13, 98, 97, 13, 97, 100, 13, 98, 97, 13, 105, 13, 97, 100, 13, 97, 101, 13, 97, 99], "trial": 4, "time_elapsed": 702978, "type": "DISTRACTOR", "trial_index": 145, "num1": [5, 9, 9, 4, 9, 9, 8, 3, 7, 2, 8]}, "uniqueid": "MTK2581:3R0T90IZ1TJLL0RDZGHRCO9MONUCG2", "dateTime": 1519075653725}, {"current_trial": 146, "trialdata": {"rt": -1, "trial_type": "single-stim", "stimulus": "<p id=\"stim\">10</p>", "internal_node_id": "0.0-110.0-0.0", "time_elapsed": 705979, "key_press": -1, "trial_index": 146}, "uniqueid": "MTK2581:3R0T90IZ1TJLL0RDZGHRCO9MONUCG2", "dateTime": 1519075656727}, {"current_trial": 147, "trialdata": {"rt": -1, "trial_type": "single-stim", "stimulus": "<p id=\"stim\">9</p>", "internal_node_id": "0.0-110.0-1.0", "time_elapsed": 706981, "key_press": -1, "trial_index": 147}, "uniqueid": "MTK2581:3R0T90IZ1TJLL0RDZGHRCO9MONUCG2", "dateTime": 1519075657729}, {"current_trial": 148, "trialdata": {"rt": -1, "trial_type": "single-stim", "stimulus": "<p id=\"stim\">8</p>", "internal_node_id": "0.0-110.0-2.0", "time_elapsed": 707983, "key_press": -1, "trial_index": 148}, "uniqueid": "MTK2581:3R0T90IZ1TJLL0RDZGHRCO9MONUCG2", "dateTime": 1519075658730}, {"current_trial": 149, "trialdata": {"rt": -1, "trial_type": "single-stim", "stimulus": "<p id=\"stim\">7</p>", "internal_node_id": "0.0-110.0-3.0", "time_elapsed": 708985, "key_press": -1, "trial_index": 149}, "uniqueid": "MTK2581:3R0T90IZ1TJLL0RDZGHRCO9MONUCG2", "dateTime": 1519075659732}, {"current_trial": 150, "trialdata": {"rt": -1, "trial_type": "single-stim", "stimulus": "<p id=\"stim\">6</p>", "internal_node_id": "0.0-110.0-4.0", "time_elapsed": 709987, "key_press": -1, "trial_index": 150}, "uniqueid": "MTK2581:3R0T90IZ1TJLL0RDZGHRCO9MONUCG2", "dateTime": 1519075660734}, {"current_trial": 151, "trialdata": {"rt": -1, "trial_type": "single-stim", "stimulus": "<p id=\"stim\">5</p>", "internal_node_id": "0.0-110.0-5.0", "time_elapsed": 710988, "key_press": -1, "trial_index": 151}, "uniqueid": "MTK2581:3R0T90IZ1TJLL0RDZGHRCO9MONUCG2", "dateTime": 1519075661735}, {"current_trial": 152, "trialdata": {"rt": -1, "trial_type": "single-stim", "stimulus": "<p id=\"stim\">4</p>", "internal_node_id": "0.0-110.0-6.0", "time_elapsed": 711989, "key_press": -1, "trial_index": 152}, "uniqueid": "MTK2581:3R0T90IZ1TJLL0RDZGHRCO9MONUCG2", "dateTime": 1519075662736}, {"current_trial": 153, "trialdata": {"rt": -1, "trial_type": "single-stim", "stimulus": "<p id=\"stim\">3</p>", "internal_node_id": "0.0-110.0-7.0", "time_elapsed": 712990, "key_press": -1, "trial_index": 153}, "uniqueid": "MTK2581:3R0T90IZ1TJLL0RDZGHRCO9MONUCG2", "dateTime": 1519075663738}, {"current_trial": 154, "trialdata": {"rt": -1, "trial_type": "single-stim", "stimulus": "<p id=\"stim\">2</p>", "internal_node_id": "0.0-110.0-8.0", "time_elapsed": 713992, "key_press": -1, "trial_index": 154}, "uniqueid": "MTK2581:3R0T90IZ1TJLL0RDZGHRCO9MONUCG2", "dateTime": 1519075664740}, {"current_trial": 155, "trialdata": {"rt": -1, "trial_type": "single-stim", "stimulus": "<p id=\"stim\">1</p>", "internal_node_id": "0.0-110.0-9.0", "time_elapsed": 714994, "key_press": -1, "trial_index": 155}, "uniqueid": "MTK2581:3R0T90IZ1TJLL0RDZGHRCO9MONUCG2", "dateTime": 1519075665741}, {"current_trial": 156, "trialdata": {"rt": -1, "trial_type": "single-stim", "stimulus": "<p id=\"stim\">+</p>", "internal_node_id": "0.0-111.0-0.0", "time_elapsed": 716495, "key_press": -1, "type": "FIXATION", "trial_index": 156}, "uniqueid": "MTK2581:3R0T90IZ1TJLL0RDZGHRCO9MONUCG2", "dateTime": 1519075667242}, {"current_trial": 157, "trialdata": {"rt": -1, "trial_type": "single-stim", "word": "scotch", "stimulus": "<p id=\"stim\">SCOTCH</p>", "conditions": [12, 1600, "v", 24000], "internal_node_id": "0.0-112.0", "trial": 4, "time_elapsed": 718096, "serialpos": 0, "key_press": -1, "wordID": 1250, "type": "PRES_VIS", "trial_index": 157}, "uniqueid": "MTK2581:3R0T90IZ1TJLL0RDZGHRCO9MONUCG2", "dateTime": 1519075668843}, {"current_trial": 158, "trialdata": {"rt": -1, "trial_type": "single-stim", "word": "cocoon", "stimulus": "<p id=\"stim\">COCOON</p>", "conditions": [12, 1600, "v", 24000], "internal_node_id": "0.0-113.0", "trial": 4, "time_elapsed": 720750, "serialpos": 1, "key_press": -1, "wordID": 338, "type": "PRES_VIS", "trial_index": 158}, "uniqueid": "MTK2581:3R0T90IZ1TJLL0RDZGHRCO9MONUCG2", "dateTime": 1519075671497}, {"current_trial": 159, "trialdata": {"rt": -1, "trial_type": "single-stim", "word": "onion", "stimulus": "<p id=\"stim\">ONION</p>", "conditions": [12, 1600, "v", 24000], "internal_node_id": "0.0-114.0", "trial": 4, "time_elapsed": 723449, "serialpos": 2, "key_press": -1, "wordID": 976, "type": "PRES_VIS", "trial_index": 159}, "uniqueid": "MTK2581:3R0T90IZ1TJLL0RDZGHRCO9MONUCG2", "dateTime": 1519075674196}, {"current_trial": 160, "trialdata": {"rt": -1, "trial_type": "single-stim", "word": "clothes", "stimulus": "<p id=\"stim\">CLOTHES</p>", "conditions": [12, 1600, "v", 24000], "internal_node_id": "0.0-115.0", "trial": 4, "time_elapsed": 725989, "serialpos": 3, "key_press": -1, "wordID": 326, "type": "PRES_VIS", "trial_index": 160}, "uniqueid": "MTK2581:3R0T90IZ1TJLL0RDZGHRCO9MONUCG2", "dateTime": 1519075676736}, {"current_trial": 161, "trialdata": {"rt": -1, "trial_type": "single-stim", "word": "author", "stimulus": "<p id=\"stim\">AUTHOR</p>", "conditions": [12, 1600, "v", 24000], "internal_node_id": "0.0-116.0", "trial": 4, "time_elapsed": 728719, "serialpos": 4, "key_press": -1, "wordID": 60, "type": "PRES_VIS", "trial_index": 161}, "uniqueid": "MTK2581:3R0T90IZ1TJLL0RDZGHRCO9MONUCG2", "dateTime": 1519075679466}, {"current_trial": 162, "trialdata": {"rt": -1, "trial_type": "single-stim", "word": "portrait", "stimulus": "<p id=\"stim\">PORTRAIT</p>", "conditions": [12, 1600, "v", 24000], "internal_node_id": "0.0-117.0", "trial": 4, "time_elapsed": 731377, "serialpos": 5, "key_press": -1, "wordID": 1110, "type": "PRES_VIS", "trial_index": 162}, "uniqueid": "MTK2581:3R0T90IZ1TJLL0RDZGHRCO9MONUCG2", "dateTime": 1519075682124}, {"current_trial": 163, "trialdata": {"rt": -1, "trial_type": "single-stim", "word": "harp", "stimulus": "<p id=\"stim\">HARP</p>", "conditions": [12, 1600, "v", 24000], "internal_node_id": "0.0-118.0", "trial": 4, "time_elapsed": 734086, "serialpos": 6, "key_press": -1, "wordID": 688, "type": "PRES_VIS", "trial_index": 163}, "uniqueid": "MTK2581:3R0T90IZ1TJLL0RDZGHRCO9MONUCG2", "dateTime": 1519075684834}, {"current_trial": 164, "trialdata": {"rt": -1, "trial_type": "single-stim", "word": "brandy", "stimulus": "<p id=\"stim\">BRANDY</p>", "conditions": [12, 1600, "v", 24000], "internal_node_id": "0.0-119.0", "trial": 4, "time_elapsed": 736732, "serialpos": 7, "key_press": -1, "wordID": 168, "type": "PRES_VIS", "trial_index": 164}, "uniqueid": "MTK2581:3R0T90IZ1TJLL0RDZGHRCO9MONUCG2", "dateTime": 1519075687479}, {"current_trial": 165, "trialdata": {"rt": -1, "trial_type": "single-stim", "word": "handbag", "stimulus": "<p id=\"stim\">HANDBAG</p>", "conditions": [12, 1600, "v", 24000], "internal_node_id": "0.0-120.0", "trial": 4, "time_elapsed": 739221, "serialpos": 8, "key_press": -1, "wordID": 683, "type": "PRES_VIS", "trial_index": 165}, "uniqueid": "MTK2581:3R0T90IZ1TJLL0RDZGHRCO9MONUCG2", "dateTime": 1519075689969}, {"current_trial": 166, "trialdata": {"rt": -1, "trial_type": "single-stim", "word": "necklace", "stimulus": "<p id=\"stim\">NECKLACE</p>", "conditions": [12, 1600, "v", 24000], "internal_node_id": "0.0-121.0", "trial": 4, "time_elapsed": 741762, "serialpos": 9, "key_press": -1, "wordID": 939, "type": "PRES_VIS", "trial_index": 166}, "uniqueid": "MTK2581:3R0T90IZ1TJLL0RDZGHRCO9MONUCG2", "dateTime": 1519075692509}, {"current_trial": 167, "trialdata": {"rt": -1, "trial_type": "single-stim", "word": "belly", "stimulus": "<p id=\"stim\">BELLY</p>", "conditions": [12, 1600, "v", 24000], "internal_node_id": "0.0-122.0", "trial": 4, "time_elapsed": 744323, "serialpos": 10, "key_press": -1, "wordID": 118, "type": "PRES_VIS", "trial_index": 167}, "uniqueid": "MTK2581:3R0T90IZ1TJLL0RDZGHRCO9MONUCG2", "dateTime": 1519075695070}, {"current_trial": 168, "trialdata": {"rt": -1, "trial_type": "single-stim", "word": "parsley", "stimulus": "<p id=\"stim\">PARSLEY</p>", "conditions": [12, 1600, "v", 24000], "internal_node_id": "0.0-123.0", "trial": 4, "time_elapsed": 746939, "serialpos": 11, "key_press": -1, "wordID": 1015, "type": "PRES_VIS", "trial_index": 168}, "uniqueid": "MTK2581:3R0T90IZ1TJLL0RDZGHRCO9MONUCG2", "dateTime": 1519075697686}, {"current_trial": 169, "trialdata": {"rt": -1, "trial_type": "single-stim", "stimulus": "", "internal_node_id": "0.0-124.0-0.0", "time_elapsed": 749462, "key_press": -1, "type": "PRE_RECALL_DELAY", "trial_index": 169}, "uniqueid": "MTK2581:3R0T90IZ1TJLL0RDZGHRCO9MONUCG2", "dateTime": 1519075700210}, {"current_trial": 170, "trialdata": {"rt": -1000, "trial_type": "single-audio", "stimulus": "/static/audio/400Hz.wav", "internal_node_id": "0.0-125.0", "time_elapsed": 749964, "key_press": -1, "type": "PRE_RECALL_ALERT", "trial_index": 170}, "uniqueid": "MTK2581:3R0T90IZ1TJLL0RDZGHRCO9MONUCG2", "dateTime": 1519075700711}, {"current_trial": 171, "trialdata": {"rt": [5096, 7680, 10056, 13456, 17176, 20440, 24664, 32263], "recwords": ["necklace", "onion", "harp", "scotch", "belly", "parsley", "brandy", "cocoon"], "key_times": [3041, 3169, 3416, 3536, 4024, 4184, 4480, 4744, 5096, 5784, 6040, 6272, 6488, 6696, 7680, 8824, 9016, 9248, 9392, 10056, 11464, 11704, 11952, 12168, 12456, 12600, 13456, 16056, 16216, 16376, 16528, 16872, 17176, 17560, 17672, 17936, 18272, 18720, 19008, 19208, 20440, 21297, 21472, 21672, 21832, 22416, 22536, 24664, 29744, 30144, 30400, 30544, 31064, 31400, 31560, 31792, 32263], "trial_type": "free-recall", "conditions": [12, 1600, "v", 24000], "internal_node_id": "0.0-126.0-0.0", "key_presses": [78, 69, 67, 75, 76, 65, 67, 69, 13, 79, 78, 73, 79, 78, 13, 72, 65, 82, 80, 13, 83, 67, 79, 84, 67, 72, 13, 66, 69, 76, 76, 89, 13, 80, 65, 82, 83, 76, 69, 89, 13, 66, 82, 65, 78, 68, 89, 13, 79, 8, 67, 79, 67, 79, 79, 78, 13], "trial": 4, "time_elapsed": 809970, "type": "FREE_RECALL", "trial_index": 171}, "uniqueid": "MTK2581:3R0T90IZ1TJLL0RDZGHRCO9MONUCG2", "dateTime": 1519075760721}, {"current_trial": 172, "trialdata": {"rt": 1186, "trial_type": "text", "internal_node_id": "0.0-127.0", "time_elapsed": 813160, "key_press": 32, "type": "INSTRUCTIONS", "trial_index": 172}, "uniqueid": "MTK2581:3R0T90IZ1TJLL0RDZGHRCO9MONUCG2", "dateTime": 1519075763907}, {"current_trial": 173, "trialdata": {"rt": [2010, 3706, 5370, 7490, 9282, 10922], "trial_type": "math-distractor", "key_times": [1474, 1674, 2010, 3402, 3706, 4994, 5186, 5370, 6922, 7210, 7490, 8858, 9050, 9282, 10690, 10922], "responses": ["11", "7", "14", "17", "11", "8"], "num2": [3, 3, 6, 5, 3, 5, 8], "num3": [3, 1, 4, 7, 4, 2, 4], "conditions": [12, 800, "v", 12000], "internal_node_id": "0.0-128.0", "key_presses": [97, 97, 13, 103, 13, 97, 100, 13, 97, 103, 13, 97, 97, 13, 104, 13], "trial": 5, "time_elapsed": 827167, "type": "DISTRACTOR", "trial_index": 173, "num1": [5, 3, 4, 5, 4, 1, 2]}, "uniqueid": "MTK2581:3R0T90IZ1TJLL0RDZGHRCO9MONUCG2", "dateTime": 1519075777914}, {"current_trial": 174, "trialdata": {"rt": -1, "trial_type": "single-stim", "stimulus": "<p id=\"stim\">10</p>", "internal_node_id": "0.0-129.0-0.0", "time_elapsed": 830169, "key_press": -1, "trial_index": 174}, "uniqueid": "MTK2581:3R0T90IZ1TJLL0RDZGHRCO9MONUCG2", "dateTime": 1519075780917}, {"current_trial": 175, "trialdata": {"rt": -1, "trial_type": "single-stim", "stimulus": "<p id=\"stim\">9</p>", "internal_node_id": "0.0-129.0-1.0", "time_elapsed": 831171, "key_press": -1, "trial_index": 175}, "uniqueid": "MTK2581:3R0T90IZ1TJLL0RDZGHRCO9MONUCG2", "dateTime": 1519075781918}, {"current_trial": 176, "trialdata": {"rt": -1, "trial_type": "single-stim", "stimulus": "<p id=\"stim\">8</p>", "internal_node_id": "0.0-129.0-2.0", "time_elapsed": 832172, "key_press": -1, "trial_index": 176}, "uniqueid": "MTK2581:3R0T90IZ1TJLL0RDZGHRCO9MONUCG2", "dateTime": 1519075782919}, {"current_trial": 177, "trialdata": {"rt": -1, "trial_type": "single-stim", "stimulus": "<p id=\"stim\">7</p>", "internal_node_id": "0.0-129.0-3.0", "time_elapsed": 833174, "key_press": -1, "trial_index": 177}, "uniqueid": "MTK2581:3R0T90IZ1TJLL0RDZGHRCO9MONUCG2", "dateTime": 1519075783921}, {"current_trial": 178, "trialdata": {"rt": -1, "trial_type": "single-stim", "stimulus": "<p id=\"stim\">6</p>", "internal_node_id": "0.0-129.0-4.0", "time_elapsed": 834176, "key_press": -1, "trial_index": 178}, "uniqueid": "MTK2581:3R0T90IZ1TJLL0RDZGHRCO9MONUCG2", "dateTime": 1519075784923}, {"current_trial": 179, "trialdata": {"rt": -1, "trial_type": "single-stim", "stimulus": "<p id=\"stim\">5</p>", "internal_node_id": "0.0-129.0-5.0", "time_elapsed": 835178, "key_press": -1, "trial_index": 179}, "uniqueid": "MTK2581:3R0T90IZ1TJLL0RDZGHRCO9MONUCG2", "dateTime": 1519075785925}, {"current_trial": 180, "trialdata": {"rt": -1, "trial_type": "single-stim", "stimulus": "<p id=\"stim\">4</p>", "internal_node_id": "0.0-129.0-6.0", "time_elapsed": 836179, "key_press": -1, "trial_index": 180}, "uniqueid": "MTK2581:3R0T90IZ1TJLL0RDZGHRCO9MONUCG2", "dateTime": 1519075786926}, {"current_trial": 181, "trialdata": {"rt": -1, "trial_type": "single-stim", "stimulus": "<p id=\"stim\">3</p>", "internal_node_id": "0.0-129.0-7.0", "time_elapsed": 837180, "key_press": -1, "trial_index": 181}, "uniqueid": "MTK2581:3R0T90IZ1TJLL0RDZGHRCO9MONUCG2", "dateTime": 1519075787928}, {"current_trial": 182, "trialdata": {"rt": -1, "trial_type": "single-stim", "stimulus": "<p id=\"stim\">2</p>", "internal_node_id": "0.0-129.0-8.0", "time_elapsed": 838182, "key_press": -1, "trial_index": 182}, "uniqueid": "MTK2581:3R0T90IZ1TJLL0RDZGHRCO9MONUCG2", "dateTime": 1519075788929}, {"current_trial": 183, "trialdata": {"rt": -1, "trial_type": "single-stim", "stimulus": "<p id=\"stim\">1</p>", "internal_node_id": "0.0-129.0-9.0", "time_elapsed": 839183, "key_press": -1, "trial_index": 183}, "uniqueid": "MTK2581:3R0T90IZ1TJLL0RDZGHRCO9MONUCG2", "dateTime": 1519075789931}, {"current_trial": 184, "trialdata": {"rt": -1, "trial_type": "single-stim", "stimulus": "<p id=\"stim\">+</p>", "internal_node_id": "0.0-130.0-0.0", "time_elapsed": 840684, "key_press": -1, "type": "FIXATION", "trial_index": 184}, "uniqueid": "MTK2581:3R0T90IZ1TJLL0RDZGHRCO9MONUCG2", "dateTime": 1519075791432}, {"current_trial": 185, "trialdata": {"rt": -1, "trial_type": "single-stim", "word": "costume", "stimulus": "<p id=\"stim\">COSTUME</p>", "conditions": [12, 800, "v", 12000], "internal_node_id": "0.0-131.0", "trial": 5, "time_elapsed": 841486, "serialpos": 0, "key_press": -1, "wordID": 382, "type": "PRES_VIS", "trial_index": 185}, "uniqueid": "MTK2581:3R0T90IZ1TJLL0RDZGHRCO9MONUCG2", "dateTime": 1519075792233}, {"current_trial": 186, "trialdata": {"rt": -1, "trial_type": "single-stim", "word": "jello", "stimulus": "<p id=\"stim\">JELLO</p>", "conditions": [12, 800, "v", 12000], "internal_node_id": "0.0-132.0", "trial": 5, "time_elapsed": 843196, "serialpos": 1, "key_press": -1, "wordID": 753, "type": "PRES_VIS", "trial_index": 186}, "uniqueid": "MTK2581:3R0T90IZ1TJLL0RDZGHRCO9MONUCG2", "dateTime": 1519075793944}, {"current_trial": 187, "trialdata": {"rt": -1, "trial_type": "single-stim", "word": "trout", "stimulus": "<p id=\"stim\">TROUT</p>", "conditions": [12, 800, "v", 12000], "internal_node_id": "0.0-133.0", "trial": 5, "time_elapsed": 845127, "serialpos": 2, "key_press": -1, "wordID": 1510, "type": "PRES_VIS", "trial_index": 187}, "uniqueid": "MTK2581:3R0T90IZ1TJLL0RDZGHRCO9MONUCG2", "dateTime": 1519075795874}, {"current_trial": 188, "trialdata": {"rt": -1, "trial_type": "single-stim", "word": "flipper", "stimulus": "<p id=\"stim\">FLIPPER</p>", "conditions": [12, 800, "v", 12000], "internal_node_id": "0.0-134.0", "trial": 5, "time_elapsed": 846786, "serialpos": 3, "key_press": -1, "wordID": 579, "type": "PRES_VIS", "trial_index": 188}, "uniqueid": "MTK2581:3R0T90IZ1TJLL0RDZGHRCO9MONUCG2", "dateTime": 1519075797534}, {"current_trial": 189, "trialdata": {"rt": -1, "trial_type": "single-stim", "word": "flower", "stimulus": "<p id=\"stim\">FLOWER</p>", "conditions": [12, 800, "v", 12000], "internal_node_id": "0.0-135.0", "trial": 5, "time_elapsed": 848462, "serialpos": 4, "key_press": -1, "wordID": 583, "type": "PRES_VIS", "trial_index": 189}, "uniqueid": "MTK2581:3R0T90IZ1TJLL0RDZGHRCO9MONUCG2", "dateTime": 1519075799210}, {"current_trial": 190, "trialdata": {"rt": -1, "trial_type": "single-stim", "word": "brother", "stimulus": "<p id=\"stim\">BROTHER</p>", "conditions": [12, 800, "v", 12000], "internal_node_id": "0.0-136.0", "trial": 5, "time_elapsed": 850263, "serialpos": 5, "key_press": -1, "wordID": 178, "type": "PRES_VIS", "trial_index": 190}, "uniqueid": "MTK2581:3R0T90IZ1TJLL0RDZGHRCO9MONUCG2", "dateTime": 1519075801010}, {"current_trial": 191, "trialdata": {"rt": -1, "trial_type": "single-stim", "word": "cod", "stimulus": "<p id=\"stim\">COD</p>", "conditions": [12, 800, "v", 12000], "internal_node_id": "0.0-137.0", "trial": 5, "time_elapsed": 852180, "serialpos": 6, "key_press": -1, "wordID": 339, "type": "PRES_VIS", "trial_index": 191}, "uniqueid": "MTK2581:3R0T90IZ1TJLL0RDZGHRCO9MONUCG2", "dateTime": 1519075802927}, {"current_trial": 192, "trialdata": {"rt": -1, "trial_type": "single-stim", "word": "wardrobe", "stimulus": "<p id=\"stim\">WARDROBE</p>", "conditions": [12, 800, "v", 12000], "internal_node_id": "0.0-138.0", "trial": 5, "time_elapsed": 853918, "serialpos": 7, "key_press": -1, "wordID": 1586, "type": "PRES_VIS", "trial_index": 192}, "uniqueid": "MTK2581:3R0T90IZ1TJLL0RDZGHRCO9MONUCG2", "dateTime": 1519075804666}, {"current_trial": 193, "trialdata": {"rt": -1, "trial_type": "single-stim", "word": "fleet", "stimulus": "<p id=\"stim\">FLEET</p>", "conditions": [12, 800, "v", 12000], "internal_node_id": "0.0-139.0", "trial": 5, "time_elapsed": 855604, "serialpos": 8, "key_press": -1, "wordID": 577, "type": "PRES_VIS", "trial_index": 193}, "uniqueid": "MTK2581:3R0T90IZ1TJLL0RDZGHRCO9MONUCG2", "dateTime": 1519075806351}, {"current_trial": 194, "trialdata": {"rt": -1, "trial_type": "single-stim", "word": "flag", "stimulus": "<p id=\"stim\">FLAG</p>", "conditions": [12, 800, "v", 12000], "internal_node_id": "0.0-140.0", "trial": 5, "time_elapsed": 857575, "serialpos": 9, "key_press": -1, "wordID": 572, "type": "PRES_VIS", "trial_index": 194}, "uniqueid": "MTK2581:3R0T90IZ1TJLL0RDZGHRCO9MONUCG2", "dateTime": 1519075808322}, {"current_trial": 195, "trialdata": {"rt": -1, "trial_type": "single-stim", "word": "shirt", "stimulus": "<p id=\"stim\">SHIRT</p>", "conditions": [12, 800, "v", 12000], "internal_node_id": "0.0-141.0", "trial": 5, "time_elapsed": 859282, "serialpos": 10, "key_press": -1, "wordID": 1286, "type": "PRES_VIS", "trial_index": 195}, "uniqueid": "MTK2581:3R0T90IZ1TJLL0RDZGHRCO9MONUCG2", "dateTime": 1519075810030}, {"current_trial": 196, "trialdata": {"rt": -1, "trial_type": "single-stim", "word": "scarf", "stimulus": "<p id=\"stim\">SCARF</p>", "conditions": [12, 800, "v", 12000], "internal_node_id": "0.0-142.0", "trial": 5, "time_elapsed": 861104, "serialpos": 11, "key_press": -1, "wordID": 1245, "type": "PRES_VIS", "trial_index": 196}, "uniqueid": "MTK2581:3R0T90IZ1TJLL0RDZGHRCO9MONUCG2", "dateTime": 1519075811851}, {"current_trial": 197, "trialdata": {"rt": -1, "trial_type": "single-stim", "stimulus": "", "internal_node_id": "0.0-143.0-0.0", "time_elapsed": 863267, "key_press": -1, "type": "PRE_RECALL_DELAY", "trial_index": 197}, "uniqueid": "MTK2581:3R0T90IZ1TJLL0RDZGHRCO9MONUCG2", "dateTime": 1519075814014}, {"current_trial": 198, "trialdata": {"rt": -1000, "trial_type": "single-audio", "stimulus": "/static/audio/400Hz.wav", "internal_node_id": "0.0-144.0", "time_elapsed": 863768, "key_press": -1, "type": "PRE_RECALL_ALERT", "trial_index": 198}, "uniqueid": "MTK2581:3R0T90IZ1TJLL0RDZGHRCO9MONUCG2", "dateTime": 1519075814516}, {"current_trial": 199, "trialdata": {"rt": [3266, 5034, 8554, 13857, 18122, 20130, 25234], "recwords": ["jello", "cod", "trout", "flag", "scarf", "shirt", "flower"], "key_times": [2098, 2274, 2442, 2602, 2898, 3266, 4418, 4618, 4850, 5034, 6418, 6690, 6850, 7034, 7242, 8554, 12994, 13210, 13370, 13657, 13857, 17026, 17274, 17490, 17706, 17962, 18122, 18330, 18522, 18730, 19106, 19338, 20130, 23913, 24082, 24298, 24410, 24626, 24818, 25234], "trial_type": "free-recall", "conditions": [12, 800, "v", 12000], "internal_node_id": "0.0-145.0-0.0", "key_presses": [74, 69, 76, 76, 79, 13, 67, 79, 68, 13, 84, 82, 79, 85, 84, 13, 70, 76, 65, 71, 13, 83, 67, 65, 82, 70, 13, 83, 72, 73, 82, 84, 13, 70, 76, 79, 87, 69, 82, 13], "trial": 5, "time_elapsed": 923775, "type": "FREE_RECALL", "trial_index": 199}, "uniqueid": "MTK2581:3R0T90IZ1TJLL0RDZGHRCO9MONUCG2", "dateTime": 1519075874527}, {"current_trial": 200, "trialdata": {"rt": 1818, "trial_type": "text", "internal_node_id": "0.0-146.0", "time_elapsed": 927599, "key_press": 32, "type": "INSTRUCTIONS", "trial_index": 200}, "uniqueid": "MTK2581:3R0T90IZ1TJLL0RDZGHRCO9MONUCG2", "dateTime": 1519075878346}, {"current_trial": 201, "trialdata": {"rt": [2778, 4642, 7050, 8562, 10522, 12474, 14194, 16498, 18514, 20314, 22338], "trial_type": "math-distractor", "key_times": [2178, 2514, 2778, 4154, 4330, 4642, 6530, 6730, 7050, 8314, 8562, 10170, 10338, 10522, 12090, 12258, 12474, 13818, 13970, 14194, 16074, 16274, 16498, 18194, 18346, 18514, 19834, 20066, 20314, 21754, 21970, 22338], "responses": ["25", "11", "13", "8", "20", "16", "13", "14", "22", "19", "18"], "num2": [8, 6, 4, 5, 8, 2, 9, 2, 8, 8, 8, 7], "num3": [9, 2, 4, 2, 5, 8, 3, 5, 8, 3, 1, 3], "conditions": [24, 1600, "v", 24000], "internal_node_id": "0.0-147.0", "key_presses": [98, 101, 13, 97, 97, 13, 97, 99, 13, 104, 13, 98, 96, 13, 97, 102, 13, 97, 99, 13, 97, 100, 13, 98, 98, 13, 97, 105, 13, 97, 104, 13], "trial": 6, "time_elapsed": 953606, "type": "DISTRACTOR", "trial_index": 201, "num1": [8, 3, 5, 1, 7, 6, 1, 7, 6, 8, 9, 6]}, "uniqueid": "MTK2581:3R0T90IZ1TJLL0RDZGHRCO9MONUCG2", "dateTime": 1519075904353}, {"current_trial": 202, "trialdata": {"rt": -1, "trial_type": "single-stim", "stimulus": "<p id=\"stim\">10</p>", "internal_node_id": "0.0-148.0-0.0", "time_elapsed": 956608, "key_press": -1, "trial_index": 202}, "uniqueid": "MTK2581:3R0T90IZ1TJLL0RDZGHRCO9MONUCG2", "dateTime": 1519075907355}, {"current_trial": 203, "trialdata": {"rt": -1, "trial_type": "single-stim", "stimulus": "<p id=\"stim\">9</p>", "internal_node_id": "0.0-148.0-1.0", "time_elapsed": 957610, "key_press": -1, "trial_index": 203}, "uniqueid": "MTK2581:3R0T90IZ1TJLL0RDZGHRCO9MONUCG2", "dateTime": 1519075908357}, {"current_trial": 204, "trialdata": {"rt": -1, "trial_type": "single-stim", "stimulus": "<p id=\"stim\">8</p>", "internal_node_id": "0.0-148.0-2.0", "time_elapsed": 958611, "key_press": -1, "trial_index": 204}, "uniqueid": "MTK2581:3R0T90IZ1TJLL0RDZGHRCO9MONUCG2", "dateTime": 1519075909358}, {"current_trial": 205, "trialdata": {"rt": -1, "trial_type": "single-stim", "stimulus": "<p id=\"stim\">7</p>", "internal_node_id": "0.0-148.0-3.0", "time_elapsed": 959613, "key_press": -1, "trial_index": 205}, "uniqueid": "MTK2581:3R0T90IZ1TJLL0RDZGHRCO9MONUCG2", "dateTime": 1519075910360}, {"current_trial": 206, "trialdata": {"rt": -1, "trial_type": "single-stim", "stimulus": "<p id=\"stim\">6</p>", "internal_node_id": "0.0-148.0-4.0", "time_elapsed": 960614, "key_press": -1, "trial_index": 206}, "uniqueid": "MTK2581:3R0T90IZ1TJLL0RDZGHRCO9MONUCG2", "dateTime": 1519075911361}, {"current_trial": 207, "trialdata": {"rt": -1, "trial_type": "single-stim", "stimulus": "<p id=\"stim\">5</p>", "internal_node_id": "0.0-148.0-5.0", "time_elapsed": 961615, "key_press": -1, "trial_index": 207}, "uniqueid": "MTK2581:3R0T90IZ1TJLL0RDZGHRCO9MONUCG2", "dateTime": 1519075912363}, {"current_trial": 208, "trialdata": {"rt": -1, "trial_type": "single-stim", "stimulus": "<p id=\"stim\">4</p>", "internal_node_id": "0.0-148.0-6.0", "time_elapsed": 962617, "key_press": -1, "trial_index": 208}, "uniqueid": "MTK2581:3R0T90IZ1TJLL0RDZGHRCO9MONUCG2", "dateTime": 1519075913364}, {"current_trial": 209, "trialdata": {"rt": -1, "trial_type": "single-stim", "stimulus": "<p id=\"stim\">3</p>", "internal_node_id": "0.0-148.0-7.0", "time_elapsed": 963618, "key_press": -1, "trial_index": 209}, "uniqueid": "MTK2581:3R0T90IZ1TJLL0RDZGHRCO9MONUCG2", "dateTime": 1519075914365}, {"current_trial": 210, "trialdata": {"rt": -1, "trial_type": "single-stim", "stimulus": "<p id=\"stim\">2</p>", "internal_node_id": "0.0-148.0-8.0", "time_elapsed": 964619, "key_press": -1, "trial_index": 210}, "uniqueid": "MTK2581:3R0T90IZ1TJLL0RDZGHRCO9MONUCG2", "dateTime": 1519075915367}, {"current_trial": 211, "trialdata": {"rt": -1, "trial_type": "single-stim", "stimulus": "<p id=\"stim\">1</p>", "internal_node_id": "0.0-148.0-9.0", "time_elapsed": 965620, "key_press": -1, "trial_index": 211}, "uniqueid": "MTK2581:3R0T90IZ1TJLL0RDZGHRCO9MONUCG2", "dateTime": 1519075916367}, {"current_trial": 212, "trialdata": {"rt": -1, "trial_type": "single-stim", "stimulus": "<p id=\"stim\">+</p>", "internal_node_id": "0.0-149.0-0.0", "time_elapsed": 967122, "key_press": -1, "type": "FIXATION", "trial_index": 212}, "uniqueid": "MTK2581:3R0T90IZ1TJLL0RDZGHRCO9MONUCG2", "dateTime": 1519075917869}, {"current_trial": 213, "trialdata": {"rt": -1, "trial_type": "single-stim", "word": "stomach", "stimulus": "<p id=\"stim\">STOMACH</p>", "conditions": [24, 1600, "v", 24000], "internal_node_id": "0.0-150.0", "trial": 6, "time_elapsed": 968723, "serialpos": 0, "key_press": -1, "wordID": 1383, "type": "PRES_VIS", "trial_index": 213}, "uniqueid": "MTK2581:3R0T90IZ1TJLL0RDZGHRCO9MONUCG2", "dateTime": 1519075919470}, {"current_trial": 214, "trialdata": {"rt": -1, "trial_type": "single-stim", "word": "flesh", "stimulus": "<p id=\"stim\">FLESH</p>", "conditions": [24, 1600, "v", 24000], "internal_node_id": "0.0-151.0", "trial": 6, "time_elapsed": 971174, "serialpos": 1, "key_press": -1, "wordID": 578, "type": "PRES_VIS", "trial_index": 214}, "uniqueid": "MTK2581:3R0T90IZ1TJLL0RDZGHRCO9MONUCG2", "dateTime": 1519075921921}, {"current_trial": 215, "trialdata": {"rt": -1, "trial_type": "single-stim", "word": "daughter", "stimulus": "<p id=\"stim\">DAUGHTER</p>", "conditions": [24, 1600, "v", 24000], "internal_node_id": "0.0-152.0", "trial": 6, "time_elapsed": 973730, "serialpos": 2, "key_press": -1, "wordID": 441, "type": "PRES_VIS", "trial_index": 215}, "uniqueid": "MTK2581:3R0T90IZ1TJLL0RDZGHRCO9MONUCG2", "dateTime": 1519075924478}, {"current_trial": 216, "trialdata": {"rt": -1, "trial_type": "single-stim", "word": "staple", "stimulus": "<p id=\"stim\">STAPLE</p>", "conditions": [24, 1600, "v", 24000], "internal_node_id": "0.0-153.0", "trial": 6, "time_elapsed": 976433, "serialpos": 3, "key_press": -1, "wordID": 1370, "type": "PRES_VIS", "trial_index": 216}, "uniqueid": "MTK2581:3R0T90IZ1TJLL0RDZGHRCO9MONUCG2", "dateTime": 1519075927180}, {"current_trial": 217, "trialdata": {"rt": -1, "trial_type": "single-stim", "word": "actor", "stimulus": "<p id=\"stim\">ACTOR</p>", "conditions": [24, 1600, "v", 24000], "internal_node_id": "0.0-154.0", "trial": 6, "time_elapsed": 978984, "serialpos": 4, "key_press": -1, "wordID": 4, "type": "PRES_VIS", "trial_index": 217}, "uniqueid": "MTK2581:3R0T90IZ1TJLL0RDZGHRCO9MONUCG2", "dateTime": 1519075929731}, {"current_trial": 218, "trialdata": {"rt": -1, "trial_type": "single-stim", "word": "film", "stimulus": "<p id=\"stim\">FILM</p>", "conditions": [24, 1600, "v", 24000], "internal_node_id": "0.0-155.0", "trial": 6, "time_elapsed": 981760, "serialpos": 5, "key_press": -1, "wordID": 564, "type": "PRES_VIS", "trial_index": 218}, "uniqueid": "MTK2581:3R0T90IZ1TJLL0RDZGHRCO9MONUCG2", "dateTime": 1519075932507}, {"current_trial": 219, "trialdata": {"rt": -1, "trial_type": "single-stim", "word": "cross", "stimulus": "<p id=\"stim\">CROSS</p>", "conditions": [24, 1600, "v", 24000], "internal_node_id": "0.0-156.0", "trial": 6, "time_elapsed": 984207, "serialpos": 6, "key_press": -1, "wordID": 412, "type": "PRES_VIS", "trial_index": 219}, "uniqueid": "MTK2581:3R0T90IZ1TJLL0RDZGHRCO9MONUCG2", "dateTime": 1519075934955}, {"current_trial": 220, "trialdata": {"rt": -1, "trial_type": "single-stim", "word": "widow", "stimulus": "<p id=\"stim\">WIDOW</p>", "conditions": [24, 1600, "v", 24000], "internal_node_id": "0.0-157.0", "trial": 6, "time_elapsed": 986936, "serialpos": 7, "key_press": -1, "wordID": 1607, "type": "PRES_VIS", "trial_index": 220}, "uniqueid": "MTK2581:3R0T90IZ1TJLL0RDZGHRCO9MONUCG2", "dateTime": 1519075937683}, {"current_trial": 221, "trialdata": {"rt": -1, "trial_type": "single-stim", "word": "ketchup", "stimulus": "<p id=\"stim\">KETCHUP</p>", "conditions": [24, 1600, "v", 24000], "internal_node_id": "0.0-158.0", "trial": 6, "time_elapsed": 989589, "serialpos": 8, "key_press": -1, "wordID": 770, "type": "PRES_VIS", "trial_index": 221}, "uniqueid": "MTK2581:3R0T90IZ1TJLL0RDZGHRCO9MONUCG2", "dateTime": 1519075940337}, {"current_trial": 222, "trialdata": {"rt": -1, "trial_type": "single-stim", "word": "message", "stimulus": "<p id=\"stim\">MESSAGE</p>", "conditions": [24, 1600, "v", 24000], "internal_node_id": "0.0-159.0", "trial": 6, "time_elapsed": 992024, "serialpos": 9, "key_press": -1, "wordID": 887, "type": "PRES_VIS", "trial_index": 222}, "uniqueid": "MTK2581:3R0T90IZ1TJLL0RDZGHRCO9MONUCG2", "dateTime": 1519075942772}, {"current_trial": 223, "trialdata": {"rt": -1, "trial_type": "single-stim", "word": "mars", "stimulus": "<p id=\"stim\">MARS</p>", "conditions": [24, 1600, "v", 24000], "internal_node_id": "0.0-160.0", "trial": 6, "time_elapsed": 994794, "serialpos": 10, "key_press": -1, "wordID": 872, "type": "PRES_VIS", "trial_index": 223}, "uniqueid": "MTK2581:3R0T90IZ1TJLL0RDZGHRCO9MONUCG2", "dateTime": 1519075945541}, {"current_trial": 224, "trialdata": {"rt": -1, "trial_type": "single-stim", "word": "silk", "stimulus": "<p id=\"stim\">SILK</p>", "conditions": [24, 1600, "v", 24000], "internal_node_id": "0.0-161.0", "trial": 6, "time_elapsed": 997262, "serialpos": 11, "key_press": -1, "wordID": 1306, "type": "PRES_VIS", "trial_index": 224}, "uniqueid": "MTK2581:3R0T90IZ1TJLL0RDZGHRCO9MONUCG2", "dateTime": 1519075948009}, {"current_trial": 225, "trialdata": {"rt": -1, "trial_type": "single-stim", "word": "tile", "stimulus": "<p id=\"stim\">TILE</p>", "conditions": [24, 1600, "v", 24000], "internal_node_id": "0.0-162.0", "trial": 6, "time_elapsed": 1000040, "serialpos": 12, "key_press": -1, "wordID": 1467, "type": "PRES_VIS", "trial_index": 225}, "uniqueid": "MTK2581:3R0T90IZ1TJLL0RDZGHRCO9MONUCG2", "dateTime": 1519075950788}, {"current_trial": 226, "trialdata": {"rt": -1, "trial_type": "single-stim", "word": "europe", "stimulus": "<p id=\"stim\">EUROPE</p>", "conditions": [24, 1600, "v", 24000], "internal_node_id": "0.0-163.0", "trial": 6, "time_elapsed": 1002678, "serialpos": 13, "key_press": -1, "wordID": 540, "type": "PRES_VIS", "trial_index": 226}, "uniqueid": "MTK2581:3R0T90IZ1TJLL0RDZGHRCO9MONUCG2", "dateTime": 1519075953425}, {"current_trial": 227, "trialdata": {"rt": -1, "trial_type": "single-stim", "word": "lagoon", "stimulus": "<p id=\"stim\">LAGOON</p>", "conditions": [24, 1600, "v", 24000], "internal_node_id": "0.0-164.0", "trial": 6, "time_elapsed": 1005456, "serialpos": 14, "key_press": -1, "wordID": 794, "type": "PRES_VIS", "trial_index": 227}, "uniqueid": "MTK2581:3R0T90IZ1TJLL0RDZGHRCO9MONUCG2", "dateTime": 1519075956203}, {"current_trial": 228, "trialdata": {"rt": -1, "trial_type": "single-stim", "word": "shortcake", "stimulus": "<p id=\"stim\">SHORTCAKE</p>", "conditions": [24, 1600, "v", 24000], "internal_node_id": "0.0-165.0", "trial": 6, "time_elapsed": 1008132, "serialpos": 15, "key_press": -1, "wordID": 1291, "type": "PRES_VIS", "trial_index": 228}, "uniqueid": "MTK2581:3R0T90IZ1TJLL0RDZGHRCO9MONUCG2", "dateTime": 1519075958880}, {"current_trial": 229, "trialdata": {"rt": -1, "trial_type": "single-stim", "word": "dragon", "stimulus": "<p id=\"stim\">DRAGON</p>", "conditions": [24, 1600, "v", 24000], "internal_node_id": "0.0-166.0", "trial": 6, "time_elapsed": 1010685, "serialpos": 16, "key_press": -1, "wordID": 491, "type": "PRES_VIS", "trial_index": 229}, "uniqueid": "MTK2581:3R0T90IZ1TJLL0RDZGHRCO9MONUCG2", "dateTime": 1519075961433}, {"current_trial": 230, "trialdata": {"rt": -1, "trial_type": "single-stim", "word": "goblin", "stimulus": "<p id=\"stim\">GOBLIN</p>", "conditions": [24, 1600, "v", 24000], "internal_node_id": "0.0-167.0", "trial": 6, "time_elapsed": 1013300, "serialpos": 17, "key_press": -1, "wordID": 644, "type": "PRES_VIS", "trial_index": 230}, "uniqueid": "MTK2581:3R0T90IZ1TJLL0RDZGHRCO9MONUCG2", "dateTime": 1519075964047}, {"current_trial": 231, "trialdata": {"rt": -1, "trial_type": "single-stim", "word": "barrel", "stimulus": "<p id=\"stim\">BARREL</p>", "conditions": [24, 1600, "v", 24000], "internal_node_id": "0.0-168.0", "trial": 6, "time_elapsed": 1016007, "serialpos": 18, "key_press": -1, "wordID": 90, "type": "PRES_VIS", "trial_index": 231}, "uniqueid": "MTK2581:3R0T90IZ1TJLL0RDZGHRCO9MONUCG2", "dateTime": 1519075966755}, {"current_trial": 232, "trialdata": {"rt": -1, "trial_type": "single-stim", "word": "fireplace", "stimulus": "<p id=\"stim\">FIREPLACE</p>", "conditions": [24, 1600, "v", 24000], "internal_node_id": "0.0-169.0", "trial": 6, "time_elapsed": 1018460, "serialpos": 19, "key_press": -1, "wordID": 569, "type": "PRES_VIS", "trial_index": 232}, "uniqueid": "MTK2581:3R0T90IZ1TJLL0RDZGHRCO9MONUCG2", "dateTime": 1519075969207}, {"current_trial": 233, "trialdata": {"rt": -1, "trial_type": "single-stim", "word": "picnic", "stimulus": "<p id=\"stim\">PICNIC</p>", "conditions": [24, 1600, "v", 24000], "internal_node_id": "0.0-170.0", "trial": 6, "time_elapsed": 1021016, "serialpos": 20, "key_press": -1, "wordID": 1059, "type": "PRES_VIS", "trial_index": 233}, "uniqueid": "MTK2581:3R0T90IZ1TJLL0RDZGHRCO9MONUCG2", "dateTime": 1519075971763}, {"current_trial": 234, "trialdata": {"rt": -1, "trial_type": "single-stim", "word": "fruit", "stimulus": "<p id=\"stim\">FRUIT</p>", "conditions": [24, 1600, "v", 24000], "internal_node_id": "0.0-171.0", "trial": 6, "time_elapsed": 1023575, "serialpos": 21, "key_press": -1, "wordID": 609, "type": "PRES_VIS", "trial_index": 234}, "uniqueid": "MTK2581:3R0T90IZ1TJLL0RDZGHRCO9MONUCG2", "dateTime": 1519075974322}, {"current_trial": 235, "trialdata": {"rt": -1, "trial_type": "single-stim", "word": "witness", "stimulus": "<p id=\"stim\">WITNESS</p>", "conditions": [24, 1600, "v", 24000], "internal_node_id": "0.0-172.0", "trial": 6, "time_elapsed": 1026027, "serialpos": 22, "key_press": -1, "wordID": 1617, "type": "PRES_VIS", "trial_index": 235}, "uniqueid": "MTK2581:3R0T90IZ1TJLL0RDZGHRCO9MONUCG2", "dateTime": 1519075976775}, {"current_trial": 236, "trialdata": {"rt": -1, "trial_type": "single-stim", "word": "egypt", "stimulus": "<p id=\"stim\">EGYPT</p>", "conditions": [24, 1600, "v", 24000], "internal_node_id": "0.0-173.0", "trial": 6, "time_elapsed": 1028496, "serialpos": 23, "key_press": -1, "wordID": 518, "type": "PRES_VIS", "trial_index": 236}, "uniqueid": "MTK2581:3R0T90IZ1TJLL0RDZGHRCO9MONUCG2", "dateTime": 1519075979244}, {"current_trial": 237, "trialdata": {"rt": -1, "trial_type": "single-stim", "stimulus": "", "internal_node_id": "0.0-174.0-0.0", "time_elapsed": 1030686, "key_press": -1, "type": "PRE_RECALL_DELAY", "trial_index": 237}, "uniqueid": "MTK2581:3R0T90IZ1TJLL0RDZGHRCO9MONUCG2", "dateTime": 1519075981434}, {"current_trial": 238, "trialdata": {"rt": -1000, "trial_type": "single-audio", "stimulus": "/static/audio/400Hz.wav", "internal_node_id": "0.0-175.0", "time_elapsed": 1031187, "key_press": -1, "type": "PRE_RECALL_ALERT", "trial_index": 238}, "uniqueid": "MTK2581:3R0T90IZ1TJLL0RDZGHRCO9MONUCG2", "dateTime": 1519075981935}, {"current_trial": 239, "trialdata": {"rt": [3077, 6941, 11685, 14941, 17885, 23797, 33309, 54260], "recwords": ["egypt", "shortcake", "europe", "mars", "ketchup", "stomach", "picnic", "window"], "key_times": [1750, 1981, 2229, 2493, 2733, 3077, 3519, 3638, 3901, 4741, 4973, 5269, 5517, 5693, 5853, 6941, 9429, 9661, 9949, 10133, 10469, 10693, 11685, 13237, 13358, 13597, 13797, 14941, 16293, 16437, 16685, 16957, 17053, 17261, 17557, 17885, 22149, 22461, 22589, 22797, 22965, 23189, 23333, 23797, 31798, 32093, 32309, 32541, 32733, 32917, 33309, 52525, 52660, 52885, 53084, 53293, 53420, 54260], "trial_type": "free-recall", "conditions": [24, 1600, "v", 24000], "internal_node_id": "0.0-176.0-0.0", "key_presses": [69, 71, 89, 80, 84, 13, 83, 72, 79, 82, 84, 67, 65, 75, 69, 13, 69, 85, 82, 79, 80, 69, 13, 77, 65, 82, 83, 13, 75, 69, 84, 67, 72, 85, 80, 13, 83, 84, 79, 77, 65, 67, 72, 13, 80, 73, 67, 78, 73, 67, 13, 87, 73, 78, 68, 79, 87, 13], "trial": 6, "time_elapsed": 1091195, "type": "FREE_RECALL", "trial_index": 239}, "uniqueid": "MTK2581:3R0T90IZ1TJLL0RDZGHRCO9MONUCG2", "dateTime": 1519076041946}, {"current_trial": 240, "trialdata": {"rt": 1372, "trial_type": "text", "internal_node_id": "0.0-177.0", "time_elapsed": 1094573, "key_press": 32, "type": "INSTRUCTIONS", "trial_index": 240}, "uniqueid": "MTK2581:3R0T90IZ1TJLL0RDZGHRCO9MONUCG2", "dateTime": 1519076045320}, {"current_trial": 241, "trialdata": {"rt": [3930, 6602, 8354, 10562, 12658, 14554, 16898, 18802, 20890, 22778], "trial_type": "math-distractor", "key_times": [1763, 2179, 3027, 3755, 3930, 5994, 6171, 6602, 7914, 8098, 8354, 10114, 10322, 10562, 12074, 12395, 12658, 14074, 14298, 14554, 16474, 16642, 16898, 18514, 18802, 20346, 20682, 20890, 22298, 22530, 22778], "responses": ["14", "22", "19", "19", "17", "13", "11", "9", "17", "20"], "num2": [5, 8, 5, 7, 8, 4, 2, 2, 7, 6, 5], "num3": [5, 8, 6, 3, 8, 5, 7, 1, 5, 6, 2], "conditions": [12, 800, "v", 24000], "internal_node_id": "0.0-178.0", "key_presses": [97, 101, 8, 100, 13, 98, 98, 13, 97, 105, 13, 97, 105, 13, 97, 103, 13, 97, 99, 13, 97, 97, 13, 105, 13, 97, 103, 13, 98, 96, 13], "trial": 7, "time_elapsed": 1120580, "type": "DISTRACTOR", "trial_index": 241, "num1": [4, 6, 8, 9, 1, 4, 2, 6, 5, 8, 2]}, "uniqueid": "MTK2581:3R0T90IZ1TJLL0RDZGHRCO9MONUCG2", "dateTime": 1519076071328}, {"current_trial": 242, "trialdata": {"rt": -1, "trial_type": "single-stim", "stimulus": "<p id=\"stim\">10</p>", "internal_node_id": "0.0-179.0-0.0", "time_elapsed": 1123581, "key_press": -1, "trial_index": 242}, "uniqueid": "MTK2581:3R0T90IZ1TJLL0RDZGHRCO9MONUCG2", "dateTime": 1519076074329}, {"current_trial": 243, "trialdata": {"rt": -1, "trial_type": "single-stim", "stimulus": "<p id=\"stim\">9</p>", "internal_node_id": "0.0-179.0-1.0", "time_elapsed": 1124583, "key_press": -1, "trial_index": 243}, "uniqueid": "MTK2581:3R0T90IZ1TJLL0RDZGHRCO9MONUCG2", "dateTime": 1519076075330}, {"current_trial": 244, "trialdata": {"rt": -1, "trial_type": "single-stim", "stimulus": "<p id=\"stim\">8</p>", "internal_node_id": "0.0-179.0-2.0", "time_elapsed": 1125583, "key_press": -1, "trial_index": 244}, "uniqueid": "MTK2581:3R0T90IZ1TJLL0RDZGHRCO9MONUCG2", "dateTime": 1519076076331}, {"current_trial": 245, "trialdata": {"rt": -1, "trial_type": "single-stim", "stimulus": "<p id=\"stim\">7</p>", "internal_node_id": "0.0-179.0-3.0", "time_elapsed": 1126585, "key_press": -1, "trial_index": 245}, "uniqueid": "MTK2581:3R0T90IZ1TJLL0RDZGHRCO9MONUCG2", "dateTime": 1519076077332}, {"current_trial": 246, "trialdata": {"rt": -1, "trial_type": "single-stim", "stimulus": "<p id=\"stim\">6</p>", "internal_node_id": "0.0-179.0-4.0", "time_elapsed": 1127586, "key_press": -1, "trial_index": 246}, "uniqueid": "MTK2581:3R0T90IZ1TJLL0RDZGHRCO9MONUCG2", "dateTime": 1519076078333}, {"current_trial": 247, "trialdata": {"rt": -1, "trial_type": "single-stim", "stimulus": "<p id=\"stim\">5</p>", "internal_node_id": "0.0-179.0-5.0", "time_elapsed": 1128588, "key_press": -1, "trial_index": 247}, "uniqueid": "MTK2581:3R0T90IZ1TJLL0RDZGHRCO9MONUCG2", "dateTime": 1519076079335}, {"current_trial": 248, "trialdata": {"rt": -1, "trial_type": "single-stim", "stimulus": "<p id=\"stim\">4</p>", "internal_node_id": "0.0-179.0-6.0", "time_elapsed": 1129589, "key_press": -1, "trial_index": 248}, "uniqueid": "MTK2581:3R0T90IZ1TJLL0RDZGHRCO9MONUCG2", "dateTime": 1519076080337}, {"current_trial": 249, "trialdata": {"rt": -1, "trial_type": "single-stim", "stimulus": "<p id=\"stim\">3</p>", "internal_node_id": "0.0-179.0-7.0", "time_elapsed": 1130591, "key_press": -1, "trial_index": 249}, "uniqueid": "MTK2581:3R0T90IZ1TJLL0RDZGHRCO9MONUCG2", "dateTime": 1519076081338}, {"current_trial": 250, "trialdata": {"rt": -1, "trial_type": "single-stim", "stimulus": "<p id=\"stim\">2</p>", "internal_node_id": "0.0-179.0-8.0", "time_elapsed": 1131592, "key_press": -1, "trial_index": 250}, "uniqueid": "MTK2581:3R0T90IZ1TJLL0RDZGHRCO9MONUCG2", "dateTime": 1519076082339}, {"current_trial": 251, "trialdata": {"rt": -1, "trial_type": "single-stim", "stimulus": "<p id=\"stim\">1</p>", "internal_node_id": "0.0-179.0-9.0", "time_elapsed": 1132594, "key_press": -1, "trial_index": 251}, "uniqueid": "MTK2581:3R0T90IZ1TJLL0RDZGHRCO9MONUCG2", "dateTime": 1519076083341}, {"current_trial": 252, "trialdata": {"rt": -1, "trial_type": "single-stim", "stimulus": "<p id=\"stim\">+</p>", "internal_node_id": "0.0-180.0-0.0", "time_elapsed": 1134095, "key_press": -1, "type": "FIXATION", "trial_index": 252}, "uniqueid": "MTK2581:3R0T90IZ1TJLL0RDZGHRCO9MONUCG2", "dateTime": 1519076084843}, {"current_trial": 253, "trialdata": {"rt": -1, "trial_type": "single-stim", "word": "lava", "stimulus": "<p id=\"stim\">LAVA</p>", "conditions": [12, 800, "v", 24000], "internal_node_id": "0.0-181.0", "trial": 7, "time_elapsed": 1134897, "serialpos": 0, "key_press": -1, "wordID": 803, "type": "PRES_VIS", "trial_index": 253}, "uniqueid": "MTK2581:3R0T90IZ1TJLL0RDZGHRCO9MONUCG2", "dateTime": 1519076085644}, {"current_trial": 254, "trialdata": {"rt": -1, "trial_type": "single-stim", "word": "crater", "stimulus": "<p id=\"stim\">CRATER</p>", "conditions": [12, 800, "v", 24000], "internal_node_id": "0.0-182.0", "trial": 7, "time_elapsed": 1136892, "serialpos": 1, "key_press": -1, "wordID": 399, "type": "PRES_VIS", "trial_index": 254}, "uniqueid": "MTK2581:3R0T90IZ1TJLL0RDZGHRCO9MONUCG2", "dateTime": 1519076087639}, {"current_trial": 255, "trialdata": {"rt": -1, "trial_type": "single-stim", "word": "termite", "stimulus": "<p id=\"stim\">TERMIT