{"assignmentId": "32Q90QCQ1TS5KK7ALY81041IFZLKE4", "workerId": "MTK2463", "questiondata": {"avail_screen_height": 860, "color_depth": 24, "screen_width": 1440, "pixel_depth": 24, "avail_screen_width": 1440, "screen_height": 900}, "bonus": 0, "hitId": "31SIZS5W59MEH7CGU77W6DGQAS4RQJ", "counterbalance": 2519, "useragent": "Mozilla/5.0 (Windows NT 10.0; rv:57.0) Gecko/20100101 Firefox/57.0", "eventdata": [{"eventtype": "initialized", "interval": 0, "value": null, "timestamp": 1517265473991}, {"eventtype": "window_resize", "interval": 0, "value": [1440, 799], "timestamp": 1517265473991}, {"eventtype": "focus", "interval": 5883, "value": "off", "timestamp": 1517265479874}, {"eventtype": "focus", "interval": 8288, "value": "on", "timestamp": 1517265488162}, {"eventtype": "focus", "interval": 1085, "value": "off", "timestamp": 1517265489247}, {"eventtype": "focus", "interval": 2711, "value": "on", "timestamp": 1517265491958}, {"eventtype": "focus", "interval": 1046, "value": "off", "timestamp": 1517265493004}, {"eventtype": "focus", "interval": 4712, "value": "on", "timestamp": 1517265497716}, {"eventtype": "focus", "interval": 4617, "value": "off", "timestamp": 1517265502333}, {"eventtype": "focus", "interval": 8624, "value": "on", "timestamp": 1517265510957}, {"eventtype": "focus", "interval": 2, "value": "off", "timestamp": 1517265510959}, {"eventtype": "focus", "interval": 1, "value": "on", "timestamp": 1517265510960}, {"eventtype": "focus", "interval": 4527, "value": "off", "timestamp": 1517265515487}, {"eventtype": "focus", "interval": 26387, "value": "on", "timestamp": 1517265541874}, {"eventtype": "focus", "interval": 7873, "value": "off", "timestamp": 1517265549747}, {"eventtype": "focus", "interval": 2460, "value": "on", "timestamp": 1517265552207}, {"eventtype": "focus", "interval": 5480, "value": "off", "timestamp": 1517265557687}, {"eventtype": "focus", "interval": 5, "value": "on", "timestamp": 1517265557692}, {"eventtype": "focus", "interval": 3, "value": "off", "timestamp": 1517265557695}, {"eventtype": "focus", "interval": 8106, "value": "on", "timestamp": 1517265565801}, {"eventtype": "focus", "interval": 1968, "value": "off", "timestamp": 1517265567769}, {"eventtype": "focus", "interval": 125264, "value": "on", "timestamp": 1517265693033}, {"eventtype": "focus", "interval": 278069, "value": "off", "timestamp": 1517265971102}, {"eventtype": "focus", "interval": 1998, "value": "on", "timestamp": 1517265973100}, {"eventtype": "focus", "interval": 472552, "value": "off", "timestamp": 1517266445652}, {"eventtype": "focus", "interval": 4922, "value": "on", "timestamp": 1517266450574}, {"eventtype": "focus", "interval": 125305, "value": "off", "timestamp": 1517266575879}, {"eventtype": "focus", "interval": 41742, "value": "on", "timestamp": 1517266617621}, {"eventtype": "focus", "interval": 352736, "value": "off", "timestamp": 1517266970357}, {"eventtype": "focus", "interval": 1940, "value": "on", "timestamp": 1517266972297}, {"eventtype": "focus", "interval": 336770, "value": "off", "timestamp": 1517267309067}, {"eventtype": "focus", "interval": 1979, "value": "on", "timestamp": 1517267311046}, {"eventtype": "focus", "interval": 513255, "value": "off", "timestamp": 1517267824301}, {"eventtype": "focus", "interval": 35816, "value": "on", "timestamp": 1517267860117}, {"eventtype": "focus", "interval": 329191, "value": "off", "timestamp": 1517268189308}, {"eventtype": "focus", "interval": 2632, "value": "on", "timestamp": 1517268191940}, {"eventtype": "focus", "interval": 2, "value": "off", "timestamp": 1517268191942}, {"eventtype": "focus", "interval": 59, "value": "on", "timestamp": 1517268192001}], "data": [{"current_trial": 0, "trialdata": {"rt": 130294, "trial_type": "text", "internal_node_id": "0.0-0.0", "time_elapsed": 130297, "key_press": 13, "type": "INSTRUCTIONS", "trial_index": 0}, "uniqueid": "MTK2463:32Q90QCQ1TS5KK7ALY81041IFZLKE4", "dateTime": 1517265694947}, {"current_trial": 1, "trialdata": {"rt": 4875, "trial_type": "text", "internal_node_id": "0.0-1.0", "time_elapsed": 135175, "key_press": 13, "type": "INSTRUCTIONS", "trial_index": 1}, "uniqueid": "MTK2463:32Q90QCQ1TS5KK7ALY81041IFZLKE4", "dateTime": 1517265699824}, {"current_trial": 2, "trialdata": {"rt": [6167], "trial_type": "audio-test", "responses": ["ocean"], "internal_node_id": "0.0-2.0", "time_elapsed": 141378, "type": "AUDIO_TEST", "trial_index": 2}, "uniqueid": "MTK2463:32Q90QCQ1TS5KK7ALY81041IFZLKE4", "dateTime": 1517265706027}, {"current_trial": 3, "trialdata": {"rt": [3546], "trial_type": "audio-test", "responses": ["crystal"], "internal_node_id": "0.0-3.0", "time_elapsed": 144947, "type": "AUDIO_TEST", "trial_index": 3}, "uniqueid": "MTK2463:32Q90QCQ1TS5KK7ALY81041IFZLKE4", "dateTime": 1517265709596}, {"current_trial": 4, "trialdata": {"rt": [2735], "trial_type": "audio-test", "responses": ["spice"], "internal_node_id": "0.0-4.0", "time_elapsed": 147706, "type": "AUDIO_TEST", "trial_index": 4}, "uniqueid": "MTK2463:32Q90QCQ1TS5KK7ALY81041IFZLKE4", "dateTime": 1517265712355}, {"current_trial": 5, "trialdata": {"rt": 11939, "trial_type": "survey-text", "responses": "{\"Q0\":\"4:00am\",\"Q1\":\"9:00am\",\"Q2\":\"4\"}", "internal_node_id": "0.0-5.0", "time_elapsed": 160399, "type": "SLEEP_SURVEY", "trial_index": 5}, "uniqueid": "MTK2463:32Q90QCQ1TS5KK7ALY81041IFZLKE4", "dateTime": 1517265725048}, {"current_trial": 6, "trialdata": {"rt": 79703, "trial_type": "text", "internal_node_id": "0.0-6.0", "time_elapsed": 241103, "key_press": 13, "type": "INSTRUCTIONS", "trial_index": 6}, "uniqueid": "MTK2463:32Q90QCQ1TS5KK7ALY81041IFZLKE4", "dateTime": 1517265805752}, {"current_trial": 7, "trialdata": {"rt": 16113, "trial_type": "text", "internal_node_id": "0.0-7.0", "time_elapsed": 257719, "key_press": 13, "type": "INSTRUCTIONS", "trial_index": 7}, "uniqueid": "MTK2463:32Q90QCQ1TS5KK7ALY81041IFZLKE4", "dateTime": 1517265822368}, {"current_trial": 8, "trialdata": {"rt": 5626, "trial_type": "text", "internal_node_id": "0.0-8.0", "time_elapsed": 263847, "key_press": 13, "type": "INSTRUCTIONS", "trial_index": 8}, "uniqueid": "MTK2463:32Q90QCQ1TS5KK7ALY81041IFZLKE4", "dateTime": 1517265828496}, {"current_trial": 9, "trialdata": {"rt": [2289, 4097, 6377, 7929, 9857, 11514, 13289, 14922, 17258], "trial_type": "math-distractor", "key_times": [1986, 2057, 2289, 3898, 3969, 4097, 5986, 6210, 6377, 7762, 7842, 7929, 9570, 9641, 9857, 11282, 11425, 11514, 12977, 13066, 13289, 14586, 14689, 14922, 16850, 17073, 17258], "responses": ["20", "10", "17", "10", "16", "11", "15", "13", "17"], "num2": [7, 8, 4, 1, 6, 1, 1, 5, 8, 1], "num3": [4, 1, 4, 6, 7, 3, 5, 2, 5, 3], "conditions": [18, 1200, "a", 18000], "internal_node_id": "0.0-9.0", "key_presses": [98, 96, 13, 97, 96, 13, 97, 103, 13, 97, 96, 13, 97, 102, 13, 97, 97, 13, 97, 101, 13, 97, 99, 13, 97, 103, 13], "trial": 0, "time_elapsed": 282854, "type": "DISTRACTOR", "trial_index": 9, "num1": [9, 1, 9, 3, 3, 7, 9, 7, 4, 4]}, "uniqueid": "MTK2463:32Q90QCQ1TS5KK7ALY81041IFZLKE4", "dateTime": 1517265847503}, {"current_trial": 10, "trialdata": {"rt": -1, "trial_type": "single-stim", "stimulus": "<p id=\"stim\">10</p>", "internal_node_id": "0.0-10.0-0.0", "time_elapsed": 285858, "key_press": -1, "trial_index": 10}, "uniqueid": "MTK2463:32Q90QCQ1TS5KK7ALY81041IFZLKE4", "dateTime": 1517265850507}, {"current_trial": 11, "trialdata": {"rt": -1, "trial_type": "single-stim", "stimulus": "<p id=\"stim\">9</p>", "internal_node_id": "0.0-10.0-1.0", "time_elapsed": 286879, "key_press": -1, "trial_index": 11}, "uniqueid": "MTK2463:32Q90QCQ1TS5KK7ALY81041IFZLKE4", "dateTime": 1517265851528}, {"current_trial": 12, "trialdata": {"rt": -1, "trial_type": "single-stim", "stimulus": "<p id=\"stim\">8</p>", "internal_node_id": "0.0-10.0-2.0", "time_elapsed": 287882, "key_press": -1, "trial_index": 12}, "uniqueid": "MTK2463:32Q90QCQ1TS5KK7ALY81041IFZLKE4", "dateTime": 1517265852531}, {"current_trial": 13, "trialdata": {"rt": -1, "trial_type": "single-stim", "stimulus": "<p id=\"stim\">7</p>", "internal_node_id": "0.0-10.0-3.0", "time_elapsed": 288883, "key_press": -1, "trial_index": 13}, "uniqueid": "MTK2463:32Q90QCQ1TS5KK7ALY81041IFZLKE4", "dateTime": 1517265853532}, {"current_trial": 14, "trialdata": {"rt": -1, "trial_type": "single-stim", "stimulus": "<p id=\"stim\">6</p>", "internal_node_id": "0.0-10.0-4.0", "time_elapsed": 289885, "key_press": -1, "trial_index": 14}, "uniqueid": "MTK2463:32Q90QCQ1TS5KK7ALY81041IFZLKE4", "dateTime": 1517265854534}, {"current_trial": 15, "trialdata": {"rt": -1, "trial_type": "single-stim", "stimulus": "<p id=\"stim\">5</p>", "internal_node_id": "0.0-10.0-5.0", "time_elapsed": 290886, "key_press": -1, "trial_index": 15}, "uniqueid": "MTK2463:32Q90QCQ1TS5KK7ALY81041IFZLKE4", "dateTime": 1517265855535}, {"current_trial": 16, "trialdata": {"rt": -1, "trial_type": "single-stim", "stimulus": "<p id=\"stim\">4</p>", "internal_node_id": "0.0-10.0-6.0", "time_elapsed": 291888, "key_press": -1, "trial_index": 16}, "uniqueid": "MTK2463:32Q90QCQ1TS5KK7ALY81041IFZLKE4", "dateTime": 1517265856537}, {"current_trial": 17, "trialdata": {"rt": -1, "trial_type": "single-stim", "stimulus": "<p id=\"stim\">3</p>", "internal_node_id": "0.0-10.0-7.0", "time_elapsed": 292889, "key_press": -1, "trial_index": 17}, "uniqueid": "MTK2463:32Q90QCQ1TS5KK7ALY81041IFZLKE4", "dateTime": 1517265857538}, {"current_trial": 18, "trialdata": {"rt": -1, "trial_type": "single-stim", "stimulus": "<p id=\"stim\">2</p>", "internal_node_id": "0.0-10.0-8.0", "time_elapsed": 293891, "key_press": -1, "trial_index": 18}, "uniqueid": "MTK2463:32Q90QCQ1TS5KK7ALY81041IFZLKE4", "dateTime": 1517265858540}, {"current_trial": 19, "trialdata": {"rt": -1, "trial_type": "single-stim", "stimulus": "<p id=\"stim\">1</p>", "internal_node_id": "0.0-10.0-9.0", "time_elapsed": 294891, "key_press": -1, "trial_index": 19}, "uniqueid": "MTK2463:32Q90QCQ1TS5KK7ALY81041IFZLKE4", "dateTime": 1517265859541}, {"current_trial": 20, "trialdata": {"rt": -1, "trial_type": "single-stim", "stimulus": "<p id=\"stim\">+</p>", "internal_node_id": "0.0-11.0-0.0", "time_elapsed": 296394, "key_press": -1, "type": "FIXATION", "trial_index": 20}, "uniqueid": "MTK2463:32Q90QCQ1TS5KK7ALY81041IFZLKE4", "dateTime": 1517265861043}, {"current_trial": 21, "trialdata": {"rt": -1000, "trial_type": "single-audio", "word": "survey", "stimulus": "/static/audio/wordpool/SURVEY.wav", "conditions": [18, 1200, "a", 18000], "internal_node_id": "0.0-12.0", "trial": 0, "time_elapsed": 298808, "serialpos": 0, "key_press": -1, "wordID": 1413, "type": "PRES_AUD", "trial_index": 21}, "uniqueid": "MTK2463:32Q90QCQ1TS5KK7ALY81041IFZLKE4", "dateTime": 1517265863457}, {"current_trial": 22, "trialdata": {"rt": -1000, "trial_type": "single-audio", "word": "palace", "stimulus": "/static/audio/wordpool/PALACE.wav", "conditions": [18, 1200, "a", 18000], "internal_node_id": "0.0-13.0", "trial": 0, "time_elapsed": 301052, "serialpos": 1, "key_press": -1, "wordID": 1005, "type": "PRES_AUD", "trial_index": 22}, "uniqueid": "MTK2463:32Q90QCQ1TS5KK7ALY81041IFZLKE4", "dateTime": 1517265865701}, {"current_trial": 23, "trialdata": {"rt": -1000, "trial_type": "single-audio", "word": "japan", "stimulus": "/static/audio/wordpool/JAPAN.wav", "conditions": [18, 1200, "a", 18000], "internal_node_id": "0.0-14.0", "trial": 0, "time_elapsed": 303389, "serialpos": 2, "key_press": -1, "wordID": 748, "type": "PRES_AUD", "trial_index": 23}, "uniqueid": "MTK2463:32Q90QCQ1TS5KK7ALY81041IFZLKE4", "dateTime": 1517265868038}, {"current_trial": 24, "trialdata": {"rt": -1000, "trial_type": "single-audio", "word": "rifle", "stimulus": "/static/audio/wordpool/RIFLE.wav", "conditions": [18, 1200, "a", 18000], "internal_node_id": "0.0-15.0", "trial": 0, "time_elapsed": 305677, "serialpos": 3, "key_press": -1, "wordID": 1191, "type": "PRES_AUD", "trial_index": 24}, "uniqueid": "MTK2463:32Q90QCQ1TS5KK7ALY81041IFZLKE4", "dateTime": 1517265870326}, {"current_trial": 25, "trialdata": {"rt": -1000, "trial_type": "single-audio", "word": "friend", "stimulus": "/static/audio/wordpool/FRIEND.wav", "conditions": [18, 1200, "a", 18000], "internal_node_id": "0.0-16.0", "trial": 0, "time_elapsed": 307853, "serialpos": 4, "key_press": -1, "wordID": 605, "type": "PRES_AUD", "trial_index": 25}, "uniqueid": "MTK2463:32Q90QCQ1TS5KK7ALY81041IFZLKE4", "dateTime": 1517265872502}, {"current_trial": 26, "trialdata": {"rt": -1000, "trial_type": "single-audio", "word": "bunny", "stimulus": "/static/audio/wordpool/BUNNY.wav", "conditions": [18, 1200, "a", 18000], "internal_node_id": "0.0-17.0", "trial": 0, "time_elapsed": 310041, "serialpos": 5, "key_press": -1, "wordID": 197, "type": "PRES_AUD", "trial_index": 26}, "uniqueid": "MTK2463:32Q90QCQ1TS5KK7ALY81041IFZLKE4", "dateTime": 1517265874691}, {"current_trial": 27, "trialdata": {"rt": -1000, "trial_type": "single-audio", "word": "termite", "stimulus": "/static/audio/wordpool/TERMITE.wav", "conditions": [18, 1200, "a", 18000], "internal_node_id": "0.0-18.0", "trial": 0, "time_elapsed": 312297, "serialpos": 6, "key_press": -1, "wordID": 1450, "type": "PRES_AUD", "trial_index": 27}, "uniqueid": "MTK2463:32Q90QCQ1TS5KK7ALY81041IFZLKE4", "dateTime": 1517265876946}, {"current_trial": 28, "trialdata": {"rt": -1000, "trial_type": "single-audio", "word": "blender", "stimulus": "/static/audio/wordpool/BLENDER.wav", "conditions": [18, 1200, "a", 18000], "internal_node_id": "0.0-19.0", "trial": 0, "time_elapsed": 314300, "serialpos": 7, "key_press": -1, "wordID": 135, "type": "PRES_AUD", "trial_index": 28}, "uniqueid": "MTK2463:32Q90QCQ1TS5KK7ALY81041IFZLKE4", "dateTime": 1517265878949}, {"current_trial": 29, "trialdata": {"rt": -1000, "trial_type": "single-audio", "word": "brother", "stimulus": "/static/audio/wordpool/BROTHER.wav", "conditions": [18, 1200, "a", 18000], "internal_node_id": "0.0-20.0", "trial": 0, "time_elapsed": 316440, "serialpos": 8, "key_press": -1, "wordID": 178, "type": "PRES_AUD", "trial_index": 29}, "uniqueid": "MTK2463:32Q90QCQ1TS5KK7ALY81041IFZLKE4", "dateTime": 1517265881089}, {"current_trial": 30, "trialdata": {"rt": -1000, "trial_type": "single-audio", "word": "seafood", "stimulus": "/static/audio/wordpool/SEAFOOD.wav", "conditions": [18, 1200, "a", 18000], "internal_node_id": "0.0-21.0", "trial": 0, "time_elapsed": 318744, "serialpos": 9, "key_press": -1, "wordID": 1259, "type": "PRES_AUD", "trial_index": 30}, "uniqueid": "MTK2463:32Q90QCQ1TS5KK7ALY81041IFZLKE4", "dateTime": 1517265883394}, {"current_trial": 31, "trialdata": {"rt": -1000, "trial_type": "single-audio", "word": "robin", "stimulus": "/static/audio/wordpool/ROBIN.wav", "conditions": [18, 1200, "a", 18000], "internal_node_id": "0.0-22.0", "trial": 0, "time_elapsed": 320934, "serialpos": 10, "key_press": -1, "wordID": 1198, "type": "PRES_AUD", "trial_index": 31}, "uniqueid": "MTK2463:32Q90QCQ1TS5KK7ALY81041IFZLKE4", "dateTime": 1517265885583}, {"current_trial": 32, "trialdata": {"rt": -1000, "trial_type": "single-audio", "word": "rust", "stimulus": "/static/audio/wordpool/RUST.wav", "conditions": [18, 1200, "a", 18000], "internal_node_id": "0.0-23.0", "trial": 0, "time_elapsed": 323293, "serialpos": 11, "key_press": -1, "wordID": 1218, "type": "PRES_AUD", "trial_index": 32}, "uniqueid": "MTK2463:32Q90QCQ1TS5KK7ALY81041IFZLKE4", "dateTime": 1517265887942}, {"current_trial": 33, "trialdata": {"rt": -1000, "trial_type": "single-audio", "word": "fox", "stimulus": "/static/audio/wordpool/FOX.wav", "conditions": [18, 1200, "a", 18000], "internal_node_id": "0.0-24.0", "trial": 0, "time_elapsed": 325524, "serialpos": 12, "key_press": -1, "wordID": 597, "type": "PRES_AUD", "trial_index": 33}, "uniqueid": "MTK2463:32Q90QCQ1TS5KK7ALY81041IFZLKE4", "dateTime": 1517265890173}, {"current_trial": 34, "trialdata": {"rt": -1000, "trial_type": "single-audio", "word": "xerox", "stimulus": "/static/audio/wordpool/XEROX.wav", "conditions": [18, 1200, "a", 18000], "internal_node_id": "0.0-25.0", "trial": 0, "time_elapsed": 327812, "serialpos": 13, "key_press": -1, "wordID": 1627, "type": "PRES_AUD", "trial_index": 34}, "uniqueid": "MTK2463:32Q90QCQ1TS5KK7ALY81041IFZLKE4", "dateTime": 1517265892461}, {"current_trial": 35, "trialdata": {"rt": -1000, "trial_type": "single-audio", "word": "grill", "stimulus": "/static/audio/wordpool/GRILL.wav", "conditions": [18, 1200, "a", 18000], "internal_node_id": "0.0-26.0", "trial": 0, "time_elapsed": 330149, "serialpos": 14, "key_press": -1, "wordID": 660, "type": "PRES_AUD", "trial_index": 35}, "uniqueid": "MTK2463:32Q90QCQ1TS5KK7ALY81041IFZLKE4", "dateTime": 1517265894798}, {"current_trial": 36, "trialdata": {"rt": -1000, "trial_type": "single-audio", "word": "supper", "stimulus": "/static/audio/wordpool/SUPPER.wav", "conditions": [18, 1200, "a", 18000], "internal_node_id": "0.0-27.0", "trial": 0, "time_elapsed": 332466, "serialpos": 15, "key_press": -1, "wordID": 1410, "type": "PRES_AUD", "trial_index": 36}, "uniqueid": "MTK2463:32Q90QCQ1TS5KK7ALY81041IFZLKE4", "dateTime": 1517265897115}, {"current_trial": 37, "trialdata": {"rt": -1000, "trial_type": "single-audio", "word": "critic", "stimulus": "/static/audio/wordpool/CRITIC.wav", "conditions": [18, 1200, "a", 18000], "internal_node_id": "0.0-28.0", "trial": 0, "time_elapsed": 334527, "serialpos": 16, "key_press": -1, "wordID": 409, "type": "PRES_AUD", "trial_index": 37}, "uniqueid": "MTK2463:32Q90QCQ1TS5KK7ALY81041IFZLKE4", "dateTime": 1517265899176}, {"current_trial": 38, "trialdata": {"rt": -1000, "trial_type": "single-audio", "word": "apron", "stimulus": "/static/audio/wordpool/APRON.wav", "conditions": [18, 1200, "a", 18000], "internal_node_id": "0.0-29.0", "trial": 0, "time_elapsed": 336854, "serialpos": 17, "key_press": -1, "wordID": 34, "type": "PRES_AUD", "trial_index": 38}, "uniqueid": "MTK2463:32Q90QCQ1TS5KK7ALY81041IFZLKE4", "dateTime": 1517265901504}, {"current_trial": 39, "trialdata": {"rt": -1, "trial_type": "single-stim", "stimulus": "", "internal_node_id": "0.0-30.0-0.0", "time_elapsed": 338218, "key_press": -1, "type": "PRE_RECALL_DELAY", "trial_index": 39}, "uniqueid": "MTK2463:32Q90QCQ1TS5KK7ALY81041IFZLKE4", "dateTime": 1517265902867}, {"current_trial": 40, "trialdata": {"rt": -1000, "trial_type": "single-audio", "stimulus": "/static/audio/400Hz.wav", "internal_node_id": "0.0-31.0", "time_elapsed": 338719, "key_press": -1, "type": "PRE_RECALL_ALERT", "trial_index": 40}, "uniqueid": "MTK2463:32Q90QCQ1TS5KK7ALY81041IFZLKE4", "dateTime": 1517265903368}, {"current_trial": 41, "trialdata": {"rt": [3442, 5170, 6258, 7466, 9146, 10698, 12538, 13834, 34530, 41738, 42755, 46298], "recwords": ["xerox", "grill", "critic", "apron", "bunny", "termite", "blender", "japan", "robin", "supper", "", ""], "key_times": [1755, 2091, 2290, 2482, 2595, 2771, 3027, 3442, 4162, 4386, 4507, 4722, 4899, 5170, 5354, 5563, 5651, 5794, 5883, 6035, 6258, 6451, 6642, 6794, 6946, 7114, 7466, 8098, 8347, 8555, 8690, 8903, 9146, 9323, 9499, 9571, 9675, 9786, 9882, 10354, 10498, 10546, 10698, 11010, 11258, 11386, 11731, 11899, 12131, 12242, 12538, 12794, 12906, 13066, 13258, 13372, 13458, 13571, 13834, 33778, 33867, 34003, 34170, 34282, 34530, 41147, 41274, 41322, 41506, 41562, 41618, 41738, 42755, 46298], "trial_type": "free-recall", "conditions": [18, 1200, "a", 18000], "internal_node_id": "0.0-32.0-0.0", "key_presses": [20, 88, 20, 69, 82, 79, 88, 32, 71, 82, 73, 76, 76, 13, 67, 82, 73, 84, 73, 67, 13, 65, 80, 82, 79, 78, 13, 66, 85, 78, 78, 89, 13, 84, 69, 82, 77, 73, 78, 8, 84, 69, 13, 66, 76, 69, 78, 68, 69, 82, 13, 20, 74, 20, 65, 80, 65, 78, 13, 82, 79, 66, 73, 78, 13, 83, 85, 80, 80, 69, 82, 13, 13, 32], "trial": 0, "time_elapsed": 398726, "type": "FREE_RECALL", "trial_index": 41}, "uniqueid": "MTK2463:32Q90QCQ1TS5KK7ALY81041IFZLKE4", "dateTime": 1517265963395}, {"current_trial": 42, "trialdata": {"rt": 1364, "trial_type": "text", "internal_node_id": "0.0-33.0", "time_elapsed": 402111, "key_press": 13, "type": "INSTRUCTIONS", "trial_index": 42}, "uniqueid": "MTK2463:32Q90QCQ1TS5KK7ALY81041IFZLKE4", "dateTime": 1517265966760}, {"current_trial": 43, "trialdata": {"rt": [5036, 6739, 10323, 12043, 13915, 16188], "trial_type": "math-distractor", "key_times": [1988, 2072, 2332, 5036, 6380, 6555, 6739, 10039, 10139, 10323, 11836, 11931, 12043, 13524, 13667, 13915, 15764, 15988, 16188, 17956], "responses": ["16", "11", "16", "13", "18", "17"], "num2": [8, 1, 7, 6, 6, 2, 1], "num3": [5, 8, 3, 4, 8, 9, 8], "conditions": [18, 1200, "a", 18000], "internal_node_id": "0.0-34.0", "key_presses": [97, 102, 9, 13, 97, 97, 13, 97, 102, 13, 97, 99, 13, 97, 104, 13, 97, 103, 13, 97], "trial": 1, "time_elapsed": 422116, "type": "DISTRACTOR", "trial_index": 43, "num1": [3, 2, 6, 3, 4, 6, 5]}, "uniqueid": "MTK2463:32Q90QCQ1TS5KK7ALY81041IFZLKE4", "dateTime": 1517265986766}, {"current_trial": 44, "trialdata": {"rt": -1, "trial_type": "single-stim", "stimulus": "<p id=\"stim\">10</p>", "internal_node_id": "0.0-35.0-0.0", "time_elapsed": 425118, "key_press": -1, "trial_index": 44}, "uniqueid": "MTK2463:32Q90QCQ1TS5KK7ALY81041IFZLKE4", "dateTime": 1517265989767}, {"current_trial": 45, "trialdata": {"rt": -1, "trial_type": "single-stim", "stimulus": "<p id=\"stim\">9</p>", "internal_node_id": "0.0-35.0-1.0", "time_elapsed": 426120, "key_press": -1, "trial_index": 45}, "uniqueid": "MTK2463:32Q90QCQ1TS5KK7ALY81041IFZLKE4", "dateTime": 1517265990769}, {"current_trial": 46, "trialdata": {"rt": -1, "trial_type": "single-stim", "stimulus": "<p id=\"stim\">8</p>", "internal_node_id": "0.0-35.0-2.0", "time_elapsed": 427121, "key_press": -1, "trial_index": 46}, "uniqueid": "MTK2463:32Q90QCQ1TS5KK7ALY81041IFZLKE4", "dateTime": 1517265991770}, {"current_trial": 47, "trialdata": {"rt": -1, "trial_type": "single-stim", "stimulus": "<p id=\"stim\">7</p>", "internal_node_id": "0.0-35.0-3.0", "time_elapsed": 428122, "key_press": -1, "trial_index": 47}, "uniqueid": "MTK2463:32Q90QCQ1TS5KK7ALY81041IFZLKE4", "dateTime": 1517265992771}, {"current_trial": 48, "trialdata": {"rt": -1, "trial_type": "single-stim", "stimulus": "<p id=\"stim\">6</p>", "internal_node_id": "0.0-35.0-4.0", "time_elapsed": 429123, "key_press": -1, "trial_index": 48}, "uniqueid": "MTK2463:32Q90QCQ1TS5KK7ALY81041IFZLKE4", "dateTime": 1517265993773}, {"current_trial": 49, "trialdata": {"rt": -1, "trial_type": "single-stim", "stimulus": "<p id=\"stim\">5</p>", "internal_node_id": "0.0-35.0-5.0", "time_elapsed": 430125, "key_press": -1, "trial_index": 49}, "uniqueid": "MTK2463:32Q90QCQ1TS5KK7ALY81041IFZLKE4", "dateTime": 1517265994774}, {"current_trial": 50, "trialdata": {"rt": -1, "trial_type": "single-stim", "stimulus": "<p id=\"stim\">4</p>", "internal_node_id": "0.0-35.0-6.0", "time_elapsed": 431126, "key_press": -1, "trial_index": 50}, "uniqueid": "MTK2463:32Q90QCQ1TS5KK7ALY81041IFZLKE4", "dateTime": 1517265995775}, {"current_trial": 51, "trialdata": {"rt": -1, "trial_type": "single-stim", "stimulus": "<p id=\"stim\">3</p>", "internal_node_id": "0.0-35.0-7.0", "time_elapsed": 432127, "key_press": -1, "trial_index": 51}, "uniqueid": "MTK2463:32Q90QCQ1TS5KK7ALY81041IFZLKE4", "dateTime": 1517265996777}, {"current_trial": 52, "trialdata": {"rt": -1, "trial_type": "single-stim", "stimulus": "<p id=\"stim\">2</p>", "internal_node_id": "0.0-35.0-8.0", "time_elapsed": 433129, "key_press": -1, "trial_index": 52}, "uniqueid": "MTK2463:32Q90QCQ1TS5KK7ALY81041IFZLKE4", "dateTime": 1517265997778}, {"current_trial": 53, "trialdata": {"rt": -1, "trial_type": "single-stim", "stimulus": "<p id=\"stim\">1</p>", "internal_node_id": "0.0-35.0-9.0", "time_elapsed": 434130, "key_press": -1, "trial_index": 53}, "uniqueid": "MTK2463:32Q90QCQ1TS5KK7ALY81041IFZLKE4", "dateTime": 1517265998779}, {"current_trial": 54, "trialdata": {"rt": -1, "trial_type": "single-stim", "stimulus": "<p id=\"stim\">+</p>", "internal_node_id": "0.0-36.0-0.0", "time_elapsed": 435631, "key_press": -1, "type": "FIXATION", "trial_index": 54}, "uniqueid": "MTK2463:32Q90QCQ1TS5KK7ALY81041IFZLKE4", "dateTime": 1517266000280}, {"current_trial": 55, "trialdata": {"rt": -1000, "trial_type": "single-audio", "word": "dime", "stimulus": "/static/audio/wordpool/DIME.wav", "conditions": [18, 1200, "a", 18000], "internal_node_id": "0.0-37.0", "trial": 1, "time_elapsed": 437756, "serialpos": 0, "key_press": -1, "wordID": 465, "type": "PRES_AUD", "trial_index": 55}, "uniqueid": "MTK2463:32Q90QCQ1TS5KK7ALY81041IFZLKE4", "dateTime": 1517266002406}, {"current_trial": 56, "trialdata": {"rt": -1000, "trial_type": "single-audio", "word": "dorm", "stimulus": "/static/audio/wordpool/DORM.wav", "conditions": [18, 1200, "a", 18000], "internal_node_id": "0.0-38.0", "trial": 1, "time_elapsed": 440146, "serialpos": 1, "key_press": -1, "wordID": 487, "type": "PRES_AUD", "trial_index": 56}, "uniqueid": "MTK2463:32Q90QCQ1TS5KK7ALY81041IFZLKE4", "dateTime": 1517266004795}, {"current_trial": 57, "trialdata": {"rt": -1000, "trial_type": "single-audio", "word": "bucket", "stimulus": "/static/audio/wordpool/BUCKET.wav", "conditions": [18, 1200, "a", 18000], "internal_node_id": "0.0-39.0", "trial": 1, "time_elapsed": 442396, "serialpos": 2, "key_press": -1, "wordID": 183, "type": "PRES_AUD", "trial_index": 57}, "uniqueid": "MTK2463:32Q90QCQ1TS5KK7ALY81041IFZLKE4", "dateTime": 1517266007045}, {"current_trial": 58, "trialdata": {"rt": -1000, "trial_type": "single-audio", "word": "mask", "stimulus": "/static/audio/wordpool/MASK.wav", "conditions": [18, 1200, "a", 18000], "internal_node_id": "0.0-40.0", "trial": 1, "time_elapsed": 444434, "serialpos": 3, "key_press": -1, "wordID": 875, "type": "PRES_AUD", "trial_index": 58}, "uniqueid": "MTK2463:32Q90QCQ1TS5KK7ALY81041IFZLKE4", "dateTime": 1517266009084}, {"current_trial": 59, "trialdata": {"rt": -1000, "trial_type": "single-audio", "word": "scalpel", "stimulus": "/static/audio/wordpool/SCALPEL.wav", "conditions": [18, 1200, "a", 18000], "internal_node_id": "0.0-41.0", "trial": 1, "time_elapsed": 446597, "serialpos": 4, "key_press": -1, "wordID": 1242, "type": "PRES_AUD", "trial_index": 59}, "uniqueid": "MTK2463:32Q90QCQ1TS5KK7ALY81041IFZLKE4", "dateTime": 1517266011246}, {"current_trial": 60, "trialdata": {"rt": -1000, "trial_type": "single-audio", "word": "badge", "stimulus": "/static/audio/wordpool/BADGE.wav", "conditions": [18, 1200, "a", 18000], "internal_node_id": "0.0-42.0", "trial": 1, "time_elapsed": 448819, "serialpos": 5, "key_press": -1, "wordID": 67, "type": "PRES_AUD", "trial_index": 60}, "uniqueid": "MTK2463:32Q90QCQ1TS5KK7ALY81041IFZLKE4", "dateTime": 1517266013468}, {"current_trial": 61, "trialdata": {"rt": -1000, "trial_type": "single-audio", "word": "staple", "stimulus": "/static/audio/wordpool/STAPLE.wav", "conditions": [18, 1200, "a", 18000], "internal_node_id": "0.0-43.0", "trial": 1, "time_elapsed": 451207, "serialpos": 6, "key_press": -1, "wordID": 1370, "type": "PRES_AUD", "trial_index": 61}, "uniqueid": "MTK2463:32Q90QCQ1TS5KK7ALY81041IFZLKE4", "dateTime": 1517266015857}, {"current_trial": 62, "trialdata": {"rt": -1000, "trial_type": "single-audio", "word": "toaster", "stimulus": "/static/audio/wordpool/TOASTER.wav", "conditions": [18, 1200, "a", 18000], "internal_node_id": "0.0-44.0", "trial": 1, "time_elapsed": 453224, "serialpos": 7, "key_press": -1, "wordID": 1471, "type": "PRES_AUD", "trial_index": 62}, "uniqueid": "MTK2463:32Q90QCQ1TS5KK7ALY81041IFZLKE4", "dateTime": 1517266017873}, {"current_trial": 63, "trialdata": {"rt": -1000, "trial_type": "single-audio", "word": "sibling", "stimulus": "/static/audio/wordpool/SIBLING.wav", "conditions": [18, 1200, "a", 18000], "internal_node_id": "0.0-45.0", "trial": 1, "time_elapsed": 455549, "serialpos": 8, "key_press": -1, "wordID": 1300, "type": "PRES_AUD", "trial_index": 63}, "uniqueid": "MTK2463:32Q90QCQ1TS5KK7ALY81041IFZLKE4", "dateTime": 1517266020198}, {"current_trial": 64, "trialdata": {"rt": -1000, "trial_type": "single-audio", "word": "jello", "stimulus": "/static/audio/wordpool/JELLO.wav", "conditions": [18, 1200, "a", 18000], "internal_node_id": "0.0-46.0", "trial": 1, "time_elapsed": 457813, "serialpos": 9, "key_press": -1, "wordID": 753, "type": "PRES_AUD", "trial_index": 64}, "uniqueid": "MTK2463:32Q90QCQ1TS5KK7ALY81041IFZLKE4", "dateTime": 1517266022462}, {"current_trial": 65, "trialdata": {"rt": -1000, "trial_type": "single-audio", "word": "beaker", "stimulus": "/static/audio/wordpool/BEAKER.wav", "conditions": [18, 1200, "a", 18000], "internal_node_id": "0.0-47.0", "trial": 1, "time_elapsed": 459880, "serialpos": 10, "key_press": -1, "wordID": 103, "type": "PRES_AUD", "trial_index": 65}, "uniqueid": "MTK2463:32Q90QCQ1TS5KK7ALY81041IFZLKE4", "dateTime": 1517266024529}, {"current_trial": 66, "trialdata": {"rt": -1000, "trial_type": "single-audio", "word": "frame", "stimulus": "/static/audio/wordpool/FRAME.wav", "conditions": [18, 1200, "a", 18000], "internal_node_id": "0.0-48.0", "trial": 1, "time_elapsed": 461957, "serialpos": 11, "key_press": -1, "wordID": 599, "type": "PRES_AUD", "trial_index": 66}, "uniqueid": "MTK2463:32Q90QCQ1TS5KK7ALY81041IFZLKE4", "dateTime": 1517266026606}, {"current_trial": 67, "trialdata": {"rt": -1000, "trial_type": "single-audio", "word": "airplane", "stimulus": "/static/audio/wordpool/AIRPLANE.wav", "conditions": [18, 1200, "a", 18000], "internal_node_id": "0.0-49.0", "trial": 1, "time_elapsed": 464193, "serialpos": 12, "key_press": -1, "wordID": 11, "type": "PRES_AUD", "trial_index": 67}, "uniqueid": "MTK2463:32Q90QCQ1TS5KK7ALY81041IFZLKE4", "dateTime": 1517266028842}, {"current_trial": 68, "trialdata": {"rt": -1000, "trial_type": "single-audio", "word": "lipstick", "stimulus": "/static/audio/wordpool/LIPSTICK.wav", "conditions": [18, 1200, "a", 18000], "internal_node_id": "0.0-50.0", "trial": 1, "time_elapsed": 466195, "serialpos": 13, "key_press": -1, "wordID": 828, "type": "PRES_AUD", "trial_index": 68}, "uniqueid": "MTK2463:32Q90QCQ1TS5KK7ALY81041IFZLKE4", "dateTime": 1517266030844}, {"current_trial": 69, "trialdata": {"rt": -1000, "trial_type": "single-audio", "word": "yacht", "stimulus": "/static/audio/wordpool/YACHT.wav", "conditions": [18, 1200, "a", 18000], "internal_node_id": "0.0-51.0", "trial": 1, "time_elapsed": 468367, "serialpos": 14, "key_press": -1, "wordID": 1628, "type": "PRES_AUD", "trial_index": 69}, "uniqueid": "MTK2463:32Q90QCQ1TS5KK7ALY81041IFZLKE4", "dateTime": 1517266033016}, {"current_trial": 70, "trialdata": {"rt": -1000, "trial_type": "single-audio", "word": "wagon", "stimulus": "/static/audio/wordpool/WAGON.wav", "conditions": [18, 1200, "a", 18000], "internal_node_id": "0.0-52.0", "trial": 1, "time_elapsed": 470755, "serialpos": 15, "key_press": -1, "wordID": 1577, "type": "PRES_AUD", "trial_index": 70}, "uniqueid": "MTK2463:32Q90QCQ1TS5KK7ALY81041IFZLKE4", "dateTime": 1517266035404}, {"current_trial": 71, "trialdata": {"rt": -1000, "trial_type": "single-audio", "word": "clothes", "stimulus": "/static/audio/wordpool/CLOTHES.wav", "conditions": [18, 1200, "a", 18000], "internal_node_id": "0.0-53.0", "trial": 1, "time_elapsed": 473038, "serialpos": 16, "key_press": -1, "wordID": 326, "type": "PRES_AUD", "trial_index": 71}, "uniqueid": "MTK2463:32Q90QCQ1TS5KK7ALY81041IFZLKE4", "dateTime": 1517266037687}, {"current_trial": 72, "trialdata": {"rt": -1000, "trial_type": "single-audio", "word": "jelly", "stimulus": "/static/audio/wordpool/JELLY.wav", "conditions": [18, 1200, "a", 18000], "internal_node_id": "0.0-54.0", "trial": 1, "time_elapsed": 475322, "serialpos": 17, "key_press": -1, "wordID": 754, "type": "PRES_AUD", "trial_index": 72}, "uniqueid": "MTK2463:32Q90QCQ1TS5KK7ALY81041IFZLKE4", "dateTime": 1517266039971}, {"current_trial": 73, "trialdata": {"rt": -1, "trial_type": "single-stim", "stimulus": "", "internal_node_id": "0.0-55.0-0.0", "time_elapsed": 476540, "key_press": -1, "type": "PRE_RECALL_DELAY", "trial_index": 73}, "uniqueid": "MTK2463:32Q90QCQ1TS5KK7ALY81041IFZLKE4", "dateTime": 1517266041189}, {"current_trial": 74, "trialdata": {"rt": -1000, "trial_type": "single-audio", "stimulus": "/static/audio/400Hz.wav", "internal_node_id": "0.0-56.0", "time_elapsed": 477041, "key_press": -1, "type": "PRE_RECALL_ALERT", "trial_index": 74}, "uniqueid": "MTK2463:32Q90QCQ1TS5KK7ALY81041IFZLKE4", "dateTime": 1517266041690}, {"current_trial": 75, "trialdata": {"rt": [3281, 5521, 7746, 9386, 10370, 12738, 14890, 19795, 20993, 22465, 23209, 33617], "recwords": ["clothes", "jelly", "lipstick", "airplane", "wagon", "beaker", "frame", "staple", "toaster", "dorm", "dime", "yacht"], "key_times": [2145, 2297, 2498, 2593, 2705, 2833, 2929, 3281, 3594, 3737, 3898, 4034, 5218, 5521, 6155, 6266, 6441, 6698, 6762, 6857, 7026, 7145, 7746, 8257, 8353, 8505, 8665, 8777, 8978, 9081, 9242, 9386, 9570, 9649, 9753, 9873, 9945, 10370, 10674, 10778, 10841, 10970, 11073, 11185, 12738, 14057, 14258, 14385, 14530, 14666, 14890, 19017, 19106, 19225, 19338, 19450, 19586, 19795, 20010, 20185, 20369, 20458, 20578, 20730, 20809, 20993, 21906, 21985, 22130, 22258, 22465, 22610, 22785, 22889, 23034, 23209, 32826, 33018, 33065, 33185, 33361, 33617], "trial_type": "free-recall", "conditions": [18, 1200, "a", 18000], "internal_node_id": "0.0-57.0-0.0", "key_presses": [67, 76, 79, 84, 72, 69, 83, 13, 74, 69, 76, 76, 89, 13, 76, 73, 80, 83, 84, 73, 67, 75, 13, 65, 73, 82, 80, 76, 65, 78, 69, 13, 87, 65, 71, 79, 78, 13, 66, 69, 65, 75, 69, 82, 13, 70, 82, 65, 77, 69, 13, 83, 84, 65, 80, 76, 69, 13, 84, 79, 65, 83, 84, 69, 82, 13, 68, 79, 82, 77, 13, 68, 73, 77, 69, 13, 89, 65, 67, 72, 84, 13], "trial": 1, "time_elapsed": 537046, "type": "FREE_RECALL", "trial_index": 75}, "uniqueid": "MTK2463:32Q90QCQ1TS5KK7ALY81041IFZLKE4", "dateTime": 1517266101700}, {"current_trial": 76, "trialdata": {"rt": 1267, "trial_type": "text", "internal_node_id": "0.0-58.0", "time_elapsed": 540319, "key_press": 13, "type": "INSTRUCTIONS", "trial_index": 76}, "uniqueid": "MTK2463:32Q90QCQ1TS5KK7ALY81041IFZLKE4", "dateTime": 1517266104968}, {"current_trial": 77, "trialdata": {"rt": [2965, 4973, 6869, 8501, 10685], "trial_type": "math-distractor", "key_times": [2557, 2789, 2965, 4629, 4740, 4973, 6557, 6724, 6869, 8237, 8277, 8501, 10068, 10317, 10685], "responses": ["17", "18", "14", "12", "17"], "num2": [7, 9, 9, 6, 2, 9], "num3": [6, 8, 1, 3, 6, 1], "conditions": [24, 1600, "a", 12000], "internal_node_id": "0.0-59.0", "key_presses": [97, 103, 13, 97, 104, 13, 97, 100, 13, 97, 98, 13, 97, 103, 13], "trial": 2, "time_elapsed": 553324, "type": "DISTRACTOR", "trial_index": 77, "num1": [4, 1, 4, 3, 9, 5]}, "uniqueid": "MTK2463:32Q90QCQ1TS5KK7ALY81041IFZLKE4", "dateTime": 1517266117973}, {"current_trial": 78, "trialdata": {"rt": -1, "trial_type": "single-stim", "stimulus": "<p id=\"stim\">10</p>", "internal_node_id": "0.0-60.0-0.0", "time_elapsed": 556326, "key_press": -1, "trial_index": 78}, "uniqueid": "MTK2463:32Q90QCQ1TS5KK7ALY81041IFZLKE4", "dateTime": 1517266120975}, {"current_trial": 79, "trialdata": {"rt": -1, "trial_type": "single-stim", "stimulus": "<p id=\"stim\">9</p>", "internal_node_id": "0.0-60.0-1.0", "time_elapsed": 557327, "key_press": -1, "trial_index": 79}, "uniqueid": "MTK2463:32Q90QCQ1TS5KK7ALY81041IFZLKE4", "dateTime": 1517266121976}, {"current_trial": 80, "trialdata": {"rt": -1, "trial_type": "single-stim", "stimulus": "<p id=\"stim\">8</p>", "internal_node_id": "0.0-60.0-2.0", "time_elapsed": 558328, "key_press": -1, "trial_index": 80}, "uniqueid": "MTK2463:32Q90QCQ1TS5KK7ALY81041IFZLKE4", "dateTime": 1517266122977}, {"current_trial": 81, "trialdata": {"rt": -1, "trial_type": "single-stim", "stimulus": "<p id=\"stim\">7</p>", "internal_node_id": "0.0-60.0-3.0", "time_elapsed": 559330, "key_press": -1, "trial_index": 81}, "uniqueid": "MTK2463:32Q90QCQ1TS5KK7ALY81041IFZLKE4", "dateTime": 1517266123979}, {"current_trial": 82, "trialdata": {"rt": -1, "trial_type": "single-stim", "stimulus": "<p id=\"stim\">6</p>", "internal_node_id": "0.0-60.0-4.0", "time_elapsed": 560331, "key_press": -1, "trial_index": 82}, "uniqueid": "MTK2463:32Q90QCQ1TS5KK7ALY81041IFZLKE4", "dateTime": 1517266124980}, {"current_trial": 83, "trialdata": {"rt": -1, "trial_type": "single-stim", "stimulus": "<p id=\"stim\">5</p>", "internal_node_id": "0.0-60.0-5.0", "time_elapsed": 561334, "key_press": -1, "trial_index": 83}, "uniqueid": "MTK2463:32Q90QCQ1TS5KK7ALY81041IFZLKE4", "dateTime": 1517266125983}, {"current_trial": 84, "trialdata": {"rt": -1, "trial_type": "single-stim", "stimulus": "<p id=\"stim\">4</p>", "internal_node_id": "0.0-60.0-6.0", "time_elapsed": 562336, "key_press": -1, "trial_index": 84}, "uniqueid": "MTK2463:32Q90QCQ1TS5KK7ALY81041IFZLKE4", "dateTime": 1517266126985}, {"current_trial": 85, "trialdata": {"rt": -1, "trial_type": "single-stim", "stimulus": "<p id=\"stim\">3</p>", "internal_node_id": "0.0-60.0-7.0", "time_elapsed": 563338, "key_press": -1, "trial_index": 85}, "uniqueid": "MTK2463:32Q90QCQ1TS5KK7ALY81041IFZLKE4", "dateTime": 1517266127987}, {"current_trial": 86, "trialdata": {"rt": -1, "trial_type": "single-stim", "stimulus": "<p id=\"stim\">2</p>", "internal_node_id": "0.0-60.0-8.0", "time_elapsed": 564340, "key_press": -1, "trial_index": 86}, "uniqueid": "MTK2463:32Q90QCQ1TS5KK7ALY81041IFZLKE4", "dateTime": 1517266128989}, {"current_trial": 87, "trialdata": {"rt": -1, "trial_type": "single-stim", "stimulus": "<p id=\"stim\">1</p>", "internal_node_id": "0.0-60.0-9.0", "time_elapsed": 565341, "key_press": -1, "trial_index": 87}, "uniqueid": "MTK2463:32Q90QCQ1TS5KK7ALY81041IFZLKE4", "dateTime": 1517266129990}, {"current_trial": 88, "trialdata": {"rt": -1, "trial_type": "single-stim", "stimulus": "<p id=\"stim\">+</p>", "internal_node_id": "0.0-61.0-0.0", "time_elapsed": 566842, "key_press": -1, "type": "FIXATION", "trial_index": 88}, "uniqueid": "MTK2463:32Q90QCQ1TS5KK7ALY81041IFZLKE4", "dateTime": 1517266131491}, {"current_trial": 89, "trialdata": {"rt": -1000, "trial_type": "single-audio", "word": "binder", "stimulus": "/static/audio/wordpool/BINDER.wav", "conditions": [24, 1600, "a", 12000], "internal_node_id": "0.0-62.0", "trial": 2, "time_elapsed": 569388, "serialpos": 0, "key_press": -1, "wordID": 126, "type": "PRES_AUD", "trial_index": 89}, "uniqueid": "MTK2463:32Q90QCQ1TS5KK7ALY81041IFZLKE4", "dateTime": 1517266134037}, {"current_trial": 90, "trialdata": {"rt": -1000, "trial_type": "single-audio", "word": "victim", "stimulus": "/static/audio/wordpool/VICTIM.wav", "conditions": [24, 1600, "a", 12000], "internal_node_id": "0.0-63.0", "trial": 2, "time_elapsed": 572098, "serialpos": 1, "key_press": -1, "wordID": 1561, "type": "PRES_AUD", "trial_index": 90}, "uniqueid": "MTK2463:32Q90QCQ1TS5KK7ALY81041IFZLKE4", "dateTime": 1517266136748}, {"current_trial": 91, "trialdata": {"rt": -1000, "trial_type": "single-audio", "word": "suspect", "stimulus": "/static/audio/wordpool/SUSPECT.wav", "conditions": [24, 1600, "a", 12000], "internal_node_id": "0.0-64.0", "trial": 2, "time_elapsed": 574783, "serialpos": 2, "key_press": -1, "wordID": 1414, "type": "PRES_AUD", "trial_index": 91}, "uniqueid": "MTK2463:32Q90QCQ1TS5KK7ALY81041IFZLKE4", "dateTime": 1517266139432}, {"current_trial": 92, "trialdata": {"rt": -1000, "trial_type": "single-audio", "word": "creature", "stimulus": "/static/audio/wordpool/CREATURE.wav", "conditions": [24, 1600, "a", 12000], "internal_node_id": "0.0-65.0", "trial": 2, "time_elapsed": 577536, "serialpos": 3, "key_press": -1, "wordID": 402, "type": "PRES_AUD", "trial_index": 92}, "uniqueid": "MTK2463:32Q90QCQ1TS5KK7ALY81041IFZLKE4", "dateTime": 1517266142186}, {"current_trial": 93, "trialdata": {"rt": -1000, "trial_type": "single-audio", "word": "flashlight", "stimulus": "/static/audio/wordpool/FLASHLIGHT.wav", "conditions": [24, 1600, "a", 12000], "internal_node_id": "0.0-66.0", "trial": 2, "time_elapsed": 580302, "serialpos": 4, "key_press": -1, "wordID": 574, "type": "PRES_AUD", "trial_index": 93}, "uniqueid": "MTK2463:32Q90QCQ1TS5KK7ALY81041IFZLKE4", "dateTime": 1517266144951}, {"current_trial": 94, "trialdata": {"rt": -1000, "trial_type": "single-audio", "word": "leg", "stimulus": "/static/audio/wordpool/LEG.wav", "conditions": [24, 1600, "a", 12000], "internal_node_id": "0.0-67.0", "trial": 2, "time_elapsed": 582872, "serialpos": 5, "key_press": -1, "wordID": 808, "type": "PRES_AUD", "trial_index": 94}, "uniqueid": "MTK2463:32Q90QCQ1TS5KK7ALY81041IFZLKE4", "dateTime": 1517266147521}, {"current_trial": 95, "trialdata": {"rt": -1000, "trial_type": "single-audio", "word": "turkey", "stimulus": "/static/audio/wordpool/TURKEY.wav", "conditions": [24, 1600, "a", 12000], "internal_node_id": "0.0-68.0", "trial": 2, "time_elapsed": 585297, "serialpos": 6, "key_press": -1, "wordID": 1519, "type": "PRES_AUD", "trial_index": 95}, "uniqueid": "MTK2463:32Q90QCQ1TS5KK7ALY81041IFZLKE4", "dateTime": 1517266149946}, {"current_trial": 96, "trialdata": {"rt": -1000, "trial_type": "single-audio", "word": "primate", "stimulus": "/static/audio/wordpool/PRIMATE.wav", "conditions": [24, 1600, "a", 12000], "internal_node_id": "0.0-69.0", "trial": 2, "time_elapsed": 588090, "serialpos": 7, "key_press": -1, "wordID": 1122, "type": "PRES_AUD", "trial_index": 96}, "uniqueid": "MTK2463:32Q90QCQ1TS5KK7ALY81041IFZLKE4", "dateTime": 1517266152739}, {"current_trial": 97, "trialdata": {"rt": -1000, "trial_type": "single-audio", "word": "valley", "stimulus": "/static/audio/wordpool/VALLEY.wav", "conditions": [24, 1600, "a", 12000], "internal_node_id": "0.0-70.0", "trial": 2, "time_elapsed": 590874, "serialpos": 8, "key_press": -1, "wordID": 1544, "type": "PRES_AUD", "trial_index": 97}, "uniqueid": "MTK2463:32Q90QCQ1TS5KK7ALY81041IFZLKE4", "dateTime": 1517266155524}, {"current_trial": 98, "trialdata": {"rt": -1000, "trial_type": "single-audio", "word": "bacon", "stimulus": "/static/audio/wordpool/BACON.wav", "conditions": [24, 1600, "a", 12000], "internal_node_id": "0.0-71.0", "trial": 2, "time_elapsed": 593592, "serialpos": 9, "key_press": -1, "wordID": 66, "type": "PRES_AUD", "trial_index": 98}, "uniqueid": "MTK2463:32Q90QCQ1TS5KK7ALY81041IFZLKE4", "dateTime": 1517266158241}, {"current_trial": 99, "trialdata": {"rt": -1000, "trial_type": "single-audio", "word": "ketchup", "stimulus": "/static/audio/wordpool/KETCHUP.wav", "conditions": [24, 1600, "a", 12000], "internal_node_id": "0.0-72.0", "trial": 2, "time_elapsed": 596203, "serialpos": 10, "key_press": -1, "wordID": 770, "type": "PRES_AUD", "trial_index": 99}, "uniqueid": "MTK2463:32Q90QCQ1TS5KK7ALY81041IFZLKE4", "dateTime": 1517266160852}, {"current_trial": 100, "trialdata": {"rt": -1000, "trial_type": "single-audio", "word": "canyon", "stimulus": "/static/audio/wordpool/CANYON.wav", "conditions": [24, 1600, "a", 12000], "internal_node_id": "0.0-73.0", "trial": 2, "time_elapsed": 598956, "serialpos": 11, "key_press": -1, "wordID": 234, "type": "PRES_AUD", "trial_index": 100}, "uniqueid": "MTK2463:32Q90QCQ1TS5KK7ALY81041IFZLKE4", "dateTime": 1517266163605}, {"current_trial": 101, "trialdata": {"rt": -1000, "trial_type": "single-audio", "word": "cabbage", "stimulus": "/static/audio/wordpool/CABBAGE.wav", "conditions": [24, 1600, "a", 12000], "internal_node_id": "0.0-74.0", "trial": 2, "time_elapsed": 601567, "serialpos": 12, "key_press": -1, "wordID": 209, "type": "PRES_AUD", "trial_index": 101}, "uniqueid": "MTK2463:32Q90QCQ1TS5KK7ALY81041IFZLKE4", "dateTime": 1517266166216}, {"current_trial": 102, "trialdata": {"rt": -1000, "trial_type": "single-audio", "word": "empire", "stimulus": "/static/audio/wordpool/EMPIRE.wav", "conditions": [24, 1600, "a", 12000], "internal_node_id": "0.0-75.0", "trial": 2, "time_elapsed": 604059, "serialpos": 13, "key_press": -1, "wordID": 529, "type": "PRES_AUD", "trial_index": 102}, "uniqueid": "MTK2463:32Q90QCQ1TS5KK7ALY81041IFZLKE4", "dateTime": 1517266168708}, {"current_trial": 103, "trialdata": {"rt": -1000, "trial_type": "single-audio", "word": "uncle", "stimulus": "/static/audio/wordpool/UNCLE.wav", "conditions": [24, 1600, "a", 12000], "internal_node_id": "0.0-76.0", "trial": 2, "time_elapsed": 606792, "serialpos": 14, "key_press": -1, "wordID": 1535, "type": "PRES_AUD", "trial_index": 103}, "uniqueid": "MTK2463:32Q90QCQ1TS5KK7ALY81041IFZLKE4", "dateTime": 1517266171441}, {"current_trial": 104, "trialdata": {"rt": -1000, "trial_type": "single-audio", "word": "award", "stimulus": "/static/audio/wordpool/AWARD.wav", "conditions": [24, 1600, "a", 12000], "internal_node_id": "0.0-77.0", "trial": 2, "time_elapsed": 609360, "serialpos": 15, "key_press": -1, "wordID": 62, "type": "PRES_AUD", "trial_index": 104}, "uniqueid": "MTK2463:32Q90QCQ1TS5KK7ALY81041IFZLKE4", "dateTime": 1517266174010}, {"current_trial": 105, "trialdata": {"rt": -1000, "trial_type": "single-audio", "word": "report", "stimulus": "/static/audio/wordpool/REPORT.wav", "conditions": [24, 1600, "a", 12000], "internal_node_id": "0.0-78.0", "trial": 2, "time_elapsed": 611902, "serialpos": 16, "key_press": -1, "wordID": 1183, "type": "PRES_AUD", "trial_index": 105}, "uniqueid": "MTK2463:32Q90QCQ1TS5KK7ALY81041IFZLKE4", "dateTime": 1517266176551}, {"current_trial": 106, "trialdata": {"rt": -1000, "trial_type": "single-audio", "word": "hawk", "stimulus": "/static/audio/wordpool/HAWK.wav", "conditions": [24, 1600, "a", 12000], "internal_node_id": "0.0-79.0", "trial": 2, "time_elapsed": 614534, "serialpos": 17, "key_press": -1, "wordID": 691, "type": "PRES_AUD", "trial_index": 106}, "uniqueid": "MTK2463:32Q90QCQ1TS5KK7ALY81041IFZLKE4", "dateTime": 1517266179183}, {"current_trial": 107, "trialdata": {"rt": -1000, "trial_type": "single-audio", "word": "goblin", "stimulus": "/static/audio/wordpool/GOBLIN.wav", "conditions": [24, 1600, "a", 12000], "internal_node_id": "0.0-80.0", "trial": 2, "time_elapsed": 617282, "serialpos": 18, "key_press": -1, "wordID": 644, "type": "PRES_AUD", "trial_index": 107}, "uniqueid": "MTK2463:32Q90QCQ1TS5KK7ALY81041IFZLKE4", "dateTime": 1517266181931}, {"current_trial": 108, "trialdata": {"rt": -1000, "trial_type": "single-audio", "word": "daughter", "stimulus": "/static/audio/wordpool/DAUGHTER.wav", "conditions": [24, 1600, "a", 12000], "internal_node_id": "0.0-81.0", "trial": 2, "time_elapsed": 619806, "serialpos": 19, "key_press": -1, "wordID": 441, "type": "PRES_AUD", "trial_index": 108}, "uniqueid": "MTK2463:32Q90QCQ1TS5KK7ALY81041IFZLKE4", "dateTime": 1517266184455}, {"current_trial": 109, "trialdata": {"rt": -1000, "trial_type": "single-audio", "word": "witness", "stimulus": "/static/audio/wordpool/WITNESS.wav", "conditions": [24, 1600, "a", 12000], "internal_node_id": "0.0-82.0", "trial": 2, "time_elapsed": 622502, "serialpos": 20, "key_press": -1, "wordID": 1617, "type": "PRES_AUD", "trial_index": 109}, "uniqueid": "MTK2463:32Q90QCQ1TS5KK7ALY81041IFZLKE4", "dateTime": 1517266187154}, {"current_trial": 110, "trialdata": {"rt": -1000, "trial_type": "single-audio", "word": "cabin", "stimulus": "/static/audio/wordpool/CABIN.wav", "conditions": [24, 1600, "a", 12000], "internal_node_id": "0.0-83.0", "trial": 2, "time_elapsed": 625020, "serialpos": 21, "key_press": -1, "wordID": 210, "type": "PRES_AUD", "trial_index": 110}, "uniqueid": "MTK2463:32Q90QCQ1TS5KK7ALY81041IFZLKE4", "dateTime": 1517266189670}, {"current_trial": 111, "trialdata": {"rt": -1000, "trial_type": "single-audio", "word": "church", "stimulus": "/static/audio/wordpool/CHURCH.wav", "conditions": [24, 1600, "a", 12000], "internal_node_id": "0.0-84.0", "trial": 2, "time_elapsed": 627549, "serialpos": 22, "key_press": -1, "wordID": 306, "type": "PRES_AUD", "trial_index": 111}, "uniqueid": "MTK2463:32Q90QCQ1TS5KK7ALY81041IFZLKE4", "dateTime": 1517266192198}, {"current_trial": 112, "trialdata": {"rt": -1000, "trial_type": "single-audio", "word": "chapel", "stimulus": "/static/audio/wordpool/CHAPEL.wav", "conditions": [24, 1600, "a", 12000], "internal_node_id": "0.0-85.0", "trial": 2, "time_elapsed": 630245, "serialpos": 23, "key_press": -1, "wordID": 279, "type": "PRES_AUD", "trial_index": 112}, "uniqueid": "MTK2463:32Q90QCQ1TS5KK7ALY81041IFZLKE4", "dateTime": 1517266194895}, {"current_trial": 113, "trialdata": {"rt": -1, "trial_type": "single-stim", "stimulus": "", "internal_node_id": "0.0-86.0-0.0", "time_elapsed": 631731, "key_press": -1, "type": "PRE_RECALL_DELAY", "trial_index": 113}, "uniqueid": "MTK2463:32Q90QCQ1TS5KK7ALY81041IFZLKE4", "dateTime": 1517266196381}, {"current_trial": 114, "trialdata": {"rt": -1000, "trial_type": "single-audio", "stimulus": "/static/audio/400Hz.wav", "internal_node_id": "0.0-87.0", "time_elapsed": 632233, "key_press": -1, "type": "PRE_RECALL_ALERT", "trial_index": 114}, "uniqueid": "MTK2463:32Q90QCQ1TS5KK7ALY81041IFZLKE4", "dateTime": 1517266196882}, {"current_trial": 115, "trialdata": {"rt": [3835, 5515, 6707, 7843, 9371, 12851, 15331, 17579, 19051, 27995, 39027, 41651, 49515, 50923], "recwords": ["church", "chapel", "witness", "cabin", "daughter", "goblin", "cabbage", "valley", "kingdom", "butter", "creature", "suspect", "victim", "binder"], "key_times": [2739, 2859, 3043, 3131, 3339, 3427, 3835, 4299, 4555, 4699, 4883, 5035, 5219, 5515, 5683, 5827, 5987, 6139, 6267, 6331, 6531, 6707, 7123, 7195, 7363, 7499, 7627, 7843, 8355, 8491, 8603, 8747, 8883, 8979, 9147, 9211, 9371, 10227, 10371, 10491, 10987, 11147, 11315, 11539, 11723, 11931, 12139, 12235, 12307, 12851, 13219, 13387, 13963, 14147, 14363, 14443, 14571, 15331, 15507, 15603, 15787, 16003, 16155, 16411, 17579, 17971, 18163, 18243, 18323, 18523, 18643, 18739, 19051, 24219, 24435, 24523, 24683, 24867, 24955, 27995, 37955, 38251, 38347, 38427, 38483, 38627, 38763, 38835, 39027, 39235, 39499, 39643, 39947, 40123, 40339, 40483, 40627, 40947, 41195, 41475, 41651, 48235, 48435, 48571, 48803, 48907, 49043, 49515, 49899, 50067, 50187, 50315, 50547, 50651, 50923], "trial_type": "free-recall", "conditions": [24, 1600, "a", 12000], "internal_node_id": "0.0-88.0-0.0", "key_presses": [67, 72, 85, 82, 67, 72, 13, 67, 72, 65, 80, 69, 76, 13, 87, 73, 84, 78, 69, 83, 83, 13, 67, 65, 66, 73, 78, 13, 68, 65, 85, 71, 72, 84, 69, 82, 13, 68, 79, 66, 8, 8, 8, 71, 79, 66, 76, 73, 78, 13, 67, 65, 66, 66, 65, 71, 69, 13, 86, 65, 76, 76, 69, 89, 13, 75, 73, 78, 71, 68, 79, 77, 13, 66, 85, 84, 84, 69, 82, 13, 67, 82, 69, 65, 84, 85, 82, 69, 13, 83, 83, 85, 8, 8, 85, 83, 80, 69, 67, 84, 13, 86, 73, 67, 84, 73, 77, 13, 66, 73, 78, 68, 69, 82, 13], "trial": 2, "time_elapsed": 692237, "type": "FREE_RECALL", "trial_index": 115}, "uniqueid": "MTK2463:32Q90QCQ1TS5KK7ALY81041IFZLKE4", "dateTime": 1517266256890}, {"current_trial": 116, "trialdata": {"rt": 1404, "trial_type": "text", "internal_node_id": "0.0-89.0", "time_elapsed": 695647, "key_press": 13, "type": "INSTRUCTIONS", "trial_index": 116}, "uniqueid": "MTK2463:32Q90QCQ1TS5KK7ALY81041IFZLKE4", "dateTime": 1517266260296}, {"current_trial": 117, "trialdata": {"rt": [2836, 4476, 6388, 8500, 10172, 13404, 15444, 17348, 18732, 21188, 23796], "trial_type": "math-distractor", "key_times": [2420, 2588, 2836, 4148, 4244, 4476, 6100, 6180, 6388, 8212, 8260, 8500, 9876, 9940, 10172, 13100, 13268, 13404, 15236, 15340, 15444, 17092, 17348, 18460, 18500, 18732, 20868, 20980, 21188, 23300, 23508, 23796], "responses": ["18", "19", "16", "15", "15", "25", "20", "9", "15", "19", "24"], "num2": [9, 3, 8, 8, 7, 9, 9, 2, 7, 7, 9, 4], "num3": [2, 9, 1, 5, 3, 8, 6, 3, 1, 7, 6, 6], "conditions": [24, 800, "a", 24000], "internal_node_id": "0.0-90.0", "key_presses": [97, 104, 13, 97, 105, 13, 97, 102, 13, 97, 101, 13, 97, 101, 13, 98, 101, 13, 98, 96, 13, 105, 13, 97, 101, 13, 97, 105, 13, 98, 100, 13], "trial": 3, "time_elapsed": 721653, "type": "DISTRACTOR", "trial_index": 117, "num1": [7, 7, 7, 2, 5, 8, 5, 4, 7, 5, 9, 9]}, "uniqueid": "MTK2463:32Q90QCQ1TS5KK7ALY81041IFZLKE4", "dateTime": 1517266286302}, {"current_trial": 118, "trialdata": {"rt": -1, "trial_type": "single-stim", "stimulus": "<p id=\"stim\">10</p>", "internal_node_id": "0.0-91.0-0.0", "time_elapsed": 724655, "key_press": -1, "trial_index": 118}, "uniqueid": "MTK2463:32Q90QCQ1TS5KK7ALY81041IFZLKE4", "dateTime": 1517266289304}, {"current_trial": 119, "trialdata": {"rt": -1, "trial_type": "single-stim", "stimulus": "<p id=\"stim\">9</p>", "internal_node_id": "0.0-91.0-1.0", "time_elapsed": 725657, "key_press": -1, "trial_index": 119}, "uniqueid": "MTK2463:32Q90QCQ1TS5KK7ALY81041IFZLKE4", "dateTime": 1517266290306}, {"current_trial": 120, "trialdata": {"rt": -1, "trial_type": "single-stim", "stimulus": "<p id=\"stim\">8</p>", "internal_node_id": "0.0-91.0-2.0", "time_elapsed": 726659, "key_press": -1, "trial_index": 120}, "uniqueid": "MTK2463:32Q90QCQ1TS5KK7ALY81041IFZLKE4", "dateTime": 1517266291308}, {"current_trial": 121, "trialdata": {"rt": -1, "trial_type": "single-stim", "stimulus": "<p id=\"stim\">7</p>", "internal_node_id": "0.0-91.0-3.0", "time_elapsed": 727660, "key_press": -1, "trial_index": 121}, "uniqueid": "MTK2463:32Q90QCQ1TS5KK7ALY81041IFZLKE4", "dateTime": 1517266292309}, {"current_trial": 122, "trialdata": {"rt": -1, "trial_type": "single-stim", "stimulus": "<p id=\"stim\">6</p>", "internal_node_id": "0.0-91.0-4.0", "time_elapsed": 728661, "key_press": -1, "trial_index": 122}, "uniqueid": "MTK2463:32Q90QCQ1TS5KK7ALY81041IFZLKE4", "dateTime": 1517266293310}, {"current_trial": 123, "trialdata": {"rt": -1, "trial_type": "single-stim", "stimulus": "<p id=\"stim\">5</p>", "internal_node_id": "0.0-91.0-5.0", "time_elapsed": 729662, "key_press": -1, "trial_index": 123}, "uniqueid": "MTK2463:32Q90QCQ1TS5KK7ALY81041IFZLKE4", "dateTime": 1517266294311}, {"current_trial": 124, "trialdata": {"rt": -1, "trial_type": "single-stim", "stimulus": "<p id=\"stim\">4</p>", "internal_node_id": "0.0-91.0-6.0", "time_elapsed": 730663, "key_press": -1, "trial_index": 124}, "uniqueid": "MTK2463:32Q90QCQ1TS5KK7ALY81041IFZLKE4", "dateTime": 1517266295312}, {"current_trial": 125, "trialdata": {"rt": -1, "trial_type": "single-stim", "stimulus": "<p id=\"stim\">3</p>", "internal_node_id": "0.0-91.0-7.0", "time_elapsed": 731663, "key_press": -1, "trial_index": 125}, "uniqueid": "MTK2463:32Q90QCQ1TS5KK7ALY81041IFZLKE4", "dateTime": 1517266296313}, {"current_trial": 126, "trialdata": {"rt": -1, "trial_type": "single-stim", "stimulus": "<p id=\"stim\">2</p>", "internal_node_id": "0.0-91.0-8.0", "time_elapsed": 732665, "key_press": -1, "trial_index": 126}, "uniqueid": "MTK2463:32Q90QCQ1TS5KK7ALY81041IFZLKE4", "dateTime": 1517266297314}, {"current_trial": 127, "trialdata": {"rt": -1, "trial_type": "single-stim", "stimulus": "<p id=\"stim\">1</p>", "internal_node_id": "0.0-91.0-9.0", "time_elapsed": 733666, "key_press": -1, "trial_index": 127}, "uniqueid": "MTK2463:32Q90QCQ1TS5KK7ALY81041IFZLKE4", "dateTime": 1517266298316}, {"current_trial": 128, "trialdata": {"rt": -1, "trial_type": "single-stim", "stimulus": "<p id=\"stim\">+</p>", "internal_node_id": "0.0-92.0-0.0", "time_elapsed": 735167, "key_press": -1, "type": "FIXATION", "trial_index": 128}, "uniqueid": "MTK2463:32Q90QCQ1TS5KK7ALY81041IFZLKE4", "dateTime": 1517266299817}, {"current_trial": 129, "trialdata": {"rt": -1000, "trial_type": "single-audio", "word": "glass", "stimulus": "/static/audio/wordpool/GLASS.wav", "conditions": [24, 800, "a", 24000], "internal_node_id": "0.0-93.0", "trial": 3, "time_elapsed": 736804, "serialpos": 0, "key_press": -1, "wordID": 638, "type": "PRES_AUD", "trial_index": 129}, "uniqueid": "MTK2463:32Q90QCQ1TS5KK7ALY81041IFZLKE4", "dateTime": 1517266301453}, {"current_trial": 130, "trialdata": {"rt": -1000, "trial_type": "single-audio", "word": "rabbit", "stimulus": "/static/audio/wordpool/RABBIT.wav", "conditions": [24, 800, "a", 24000], "internal_node_id": "0.0-94.0", "trial": 3, "time_elapsed": 738767, "serialpos": 1, "key_press": -1, "wordID": 1151, "type": "PRES_AUD", "trial_index": 130}, "uniqueid": "MTK2463:32Q90QCQ1TS5KK7ALY81041IFZLKE4", "dateTime": 1517266303416}, {"current_trial": 131, "trialdata": {"rt": -1000, "trial_type": "single-audio", "word": "snake", "stimulus": "/static/audio/wordpool/SNAKE.wav", "conditions": [24, 800, "a", 24000], "internal_node_id": "0.0-95.0", "trial": 3, "time_elapsed": 740703, "serialpos": 2, "key_press": -1, "wordID": 1332, "type": "PRES_AUD", "trial_index": 131}, "uniqueid": "MTK2463:32Q90QCQ1TS5KK7ALY81041IFZLKE4", "dateTime": 1517266305352}, {"current_trial": 132, "trialdata": {"rt": -1000, "trial_type": "single-audio", "word": "woman", "stimulus": "/static/audio/wordpool/WOMAN.wav", "conditions": [24, 800, "a", 24000], "internal_node_id": "0.0-96.0", "trial": 3, "time_elapsed": 742683, "serialpos": 3, "key_press": -1, "wordID": 1619, "type": "PRES_AUD", "trial_index": 132}, "uniqueid": "MTK2463:32Q90QCQ1TS5KK7ALY81041IFZLKE4", "dateTime": 1517266307332}, {"current_trial": 133, "trialdata": {"rt": -1000, "trial_type": "single-audio", "word": "crevice", "stimulus": "/static/audio/wordpool/CREVICE.wav", "conditions": [24, 800, "a", 24000], "internal_node_id": "0.0-97.0", "trial": 3, "time_elapsed": 744488, "serialpos": 4, "key_press": -1, "wordID": 404, "type": "PRES_AUD", "trial_index": 133}, "uniqueid": "MTK2463:32Q90QCQ1TS5KK7ALY81041IFZLKE4", "dateTime": 1517266309138}, {"current_trial": 134, "trialdata": {"rt": -1000, "trial_type": "single-audio", "word": "cyclone", "stimulus": "/static/audio/wordpool/CYCLONE.wav", "conditions": [24, 800, "a", 24000], "internal_node_id": "0.0-98.0", "trial": 3, "time_elapsed": 746111, "serialpos": 5, "key_press": -1, "wordID": 430, "type": "PRES_AUD", "trial_index": 134}, "uniqueid": "MTK2463:32Q90QCQ1TS5KK7ALY81041IFZLKE4", "dateTime": 1517266310760}, {"current_trial": 135, "trialdata": {"rt": -1000, "trial_type": "single-audio", "word": "rebel", "stimulus": "/static/audio/wordpool/REBEL.wav", "conditions": [24, 800, "a", 24000], "internal_node_id": "0.0-99.0", "trial": 3, "time_elapsed": 748029, "serialpos": 6, "key_press": -1, "wordID": 1171, "type": "PRES_AUD", "trial_index": 135}, "uniqueid": "MTK2463:32Q90QCQ1TS5KK7ALY81041IFZLKE4", "dateTime": 1517266312678}, {"current_trial": 136, "trialdata": {"rt": -1000, "trial_type": "single-audio", "word": "mars", "stimulus": "/static/audio/wordpool/MARS.wav", "conditions": [24, 800, "a", 24000], "internal_node_id": "0.0-100.0", "trial": 3, "time_elapsed": 749838, "serialpos": 7, "key_press": -1, "wordID": 872, "type": "PRES_AUD", "trial_index": 136}, "uniqueid": "MTK2463:32Q90QCQ1TS5KK7ALY81041IFZLKE4", "dateTime": 1517266314487}, {"current_trial": 137, "trialdata": {"rt": -1000, "trial_type": "single-audio", "word": "pecan", "stimulus": "/static/audio/wordpool/PECAN.wav", "conditions": [24, 800, "a", 24000], "internal_node_id": "0.0-101.0", "trial": 3, "time_elapsed": 751545, "serialpos": 8, "key_press": -1, "wordID": 1035, "type": "PRES_AUD", "trial_index": 137}, "uniqueid": "MTK2463:32Q90QCQ1TS5KK7ALY81041IFZLKE4", "dateTime": 1517266316195}, {"current_trial": 138, "trialdata": {"rt": -1000, "trial_type": "single-audio", "word": "mildew", "stimulus": "/static/audio/wordpool/MILDEW.wav", "conditions": [24, 800, "a", 24000], "internal_node_id": "0.0-102.0", "trial": 3, "time_elapsed": 753352, "serialpos": 9, "key_press": -1, "wordID": 892, "type": "PRES_AUD", "trial_index": 138}, "uniqueid": "MTK2463:32Q90QCQ1TS5KK7ALY81041IFZLKE4", "dateTime": 1517266318002}, {"current_trial": 139, "trialdata": {"rt": -1000, "trial_type": "single-audio", "word": "fungus", "stimulus": "/static/audio/wordpool/FUNGUS.wav", "conditions": [24, 800, "a", 24000], "internal_node_id": "0.0-103.0", "trial": 3, "time_elapsed": 754980, "serialpos": 10, "key_press": -1, "wordID": 613, "type": "PRES_AUD", "trial_index": 139}, "uniqueid": "MTK2463:32Q90QCQ1TS5KK7ALY81041IFZLKE4", "dateTime": 1517266319629}, {"current_trial": 140, "trialdata": {"rt": -1000, "trial_type": "single-audio", "word": "tortoise", "stimulus": "/static/audio/wordpool/TORTOISE.wav", "conditions": [24, 800, "a", 24000], "internal_node_id": "0.0-104.0", "trial": 3, "time_elapsed": 756686, "serialpos": 11, "key_press": -1, "wordID": 1485, "type": "PRES_AUD", "trial_index": 140}, "uniqueid": "MTK2463:32Q90QCQ1TS5KK7ALY81041IFZLKE4", "dateTime": 1517266321335}, {"current_trial": 141, "trialdata": {"rt": -1000, "trial_type": "single-audio", "word": "mailbox", "stimulus": "/static/audio/wordpool/MAILBOX.wav", "conditions": [24, 800, "a", 24000], "internal_node_id": "0.0-105.0", "trial": 3, "time_elapsed": 758389, "serialpos": 12, "key_press": -1, "wordID": 856, "type": "PRES_AUD", "trial_index": 141}, "uniqueid": "MTK2463:32Q90QCQ1TS5KK7ALY81041IFZLKE4", "dateTime": 1517266323038}, {"current_trial": 142, "trialdata": {"rt": -1000, "trial_type": "single-audio", "word": "child", "stimulus": "/static/audio/wordpool/CHILD.wav", "conditions": [24, 800, "a", 24000], "internal_node_id": "0.0-106.0", "trial": 3, "time_elapsed": 760276, "serialpos": 13, "key_press": -1, "wordID": 298, "type": "PRES_AUD", "trial_index": 142}, "uniqueid": "MTK2463:32Q90QCQ1TS5KK7ALY81041IFZLKE4", "dateTime": 1517266324925}, {"current_trial": 143, "trialdata": {"rt": -1000, "trial_type": "single-audio", "word": "quarter", "stimulus": "/static/audio/wordpool/QUARTER.wav", "conditions": [24, 800, "a", 24000], "internal_node_id": "0.0-107.0", "trial": 3, "time_elapsed": 761907, "serialpos": 14, "key_press": -1, "wordID": 1147, "type": "PRES_AUD", "trial_index": 143}, "uniqueid": "MTK2463:32Q90QCQ1TS5KK7ALY81041IFZLKE4", "dateTime": 1517266326556}, {"current_trial": 144, "trialdata": {"rt": -1000, "trial_type": "single-audio", "word": "record", "stimulus": "/static/audio/wordpool/RECORD.wav", "conditions": [24, 800, "a", 24000], "internal_node_id": "0.0-108.0", "trial": 3, "time_elapsed": 763792, "serialpos": 15, "key_press": -1, "wordID": 1175, "type": "PRES_AUD", "trial_index": 144}, "uniqueid": "MTK2463:32Q90QCQ1TS5KK7ALY81041IFZLKE4", "dateTime": 1517266328441}, {"current_trial": 145, "trialdata": {"rt": -1000, "trial_type": "single-audio", "word": "pasta", "stimulus": "/static/audio/wordpool/PASTA.wav", "conditions": [24, 800, "a", 24000], "internal_node_id": "0.0-109.0", "trial": 3, "time_elapsed": 765776, "serialpos": 16, "key_press": -1, "wordID": 1020, "type": "PRES_AUD", "trial_index": 145}, "uniqueid": "MTK2463:32Q90QCQ1TS5KK7ALY81041IFZLKE4", "dateTime": 1517266330425}, {"current_trial": 146, "trialdata": {"rt": -1000, "trial_type": "single-audio", "word": "dust", "stimulus": "/static/audio/wordpool/DUST.wav", "conditions": [24, 800, "a", 24000], "internal_node_id": "0.0-110.0", "trial": 3, "time_elapsed": 767619, "serialpos": 17, "key_press": -1, "wordID": 507, "type": "PRES_AUD", "trial_index": 146}, "uniqueid": "MTK2463:32Q90QCQ1TS5KK7ALY81041IFZLKE4", "dateTime": 1517266332268}, {"current_trial": 147, "trialdata": {"rt": -1000, "trial_type": "single-audio", "word": "ointment", "stimulus": "/static/audio/wordpool/OINTMENT.wav", "conditions": [24, 800, "a", 24000], "internal_node_id": "0.0-111.0", "trial": 3, "time_elapsed": 769461, "serialpos": 18, "key_press": -1, "wordID": 973, "type": "PRES_AUD", "trial_index": 147}, "uniqueid": "MTK2463:32Q90QCQ1TS5KK7ALY81041IFZLKE4", "dateTime": 1517266334111}, {"current_trial": 148, "trialdata": {"rt": -1000, "trial_type": "single-audio", "word": "shirt", "stimulus": "/static/audio/wordpool/SHIRT.wav", "conditions": [24, 800, "a", 24000], "internal_node_id": "0.0-112.0", "trial": 3, "time_elapsed": 771314, "serialpos": 19, "key_press": -1, "wordID": 1286, "type": "PRES_AUD", "trial_index": 148}, "uniqueid": "MTK2463:32Q90QCQ1TS5KK7ALY81041IFZLKE4", "dateTime": 1517266335963}, {"current_trial": 149, "trialdata": {"rt": -1000, "trial_type": "single-audio", "word": "diner", "stimulus": "/static/audio/wordpool/DINER.wav", "conditions": [24, 800, "a", 24000], "internal_node_id": "0.0-113.0", "trial": 3, "time_elapsed": 773182, "serialpos": 20, "key_press": -1, "wordID": 466, "type": "PRES_AUD", "trial_index": 149}, "uniqueid": "MTK2463:32Q90QCQ1TS5KK7ALY81041IFZLKE4", "dateTime": 1517266337831}, {"current_trial": 150, "trialdata": {"rt": -1000, "trial_type": "single-audio", "word": "waitress", "stimulus": "/static/audio/wordpool/WAITRESS.wav", "conditions": [24, 800, "a", 24000], "internal_node_id": "0.0-114.0", "trial": 3, "time_elapsed": 774887, "serialpos": 21, "key_press": -1, "wordID": 1580, "type": "PRES_AUD", "trial_index": 150}, "uniqueid": "MTK2463:32Q90QCQ1TS5KK7ALY81041IFZLKE4", "dateTime": 1517266339537}, {"current_trial": 151, "trialdata": {"rt": -1000, "trial_type": "single-audio", "word": "treat", "stimulus": "/static/audio/wordpool/TREAT.wav", "conditions": [24, 800, "a", 24000], "internal_node_id": "0.0-115.0", "trial": 3, "time_elapsed": 776534, "serialpos": 22, "key_press": -1, "wordID": 1500, "type": "PRES_AUD", "trial_index": 151}, "uniqueid": "MTK2463:32Q90QCQ1TS5KK7ALY81041IFZLKE4", "dateTime": 1517266341183}, {"current_trial": 152, "trialdata": {"rt": -1000, "trial_type": "single-audio", "word": "girl", "stimulus": "/static/audio/wordpool/GIRL.wav", "conditions": [24, 800, "a", 24000], "internal_node_id": "0.0-116.0", "trial": 3, "time_elapsed": 778196, "serialpos": 23, "key_press": -1, "wordID": 636, "type": "PRES_AUD", "trial_index": 152}, "uniqueid": "MTK2463:32Q90QCQ1TS5KK7ALY81041IFZLKE4", "dateTime": 1517266342846}, {"current_trial": 153, "trialdata": {"rt": -1, "trial_type": "single-stim", "stimulus": "", "internal_node_id": "0.0-117.0-0.0", "time_elapsed": 779545, "key_press": -1, "type": "PRE_RECALL_DELAY", "trial_index": 153}, "uniqueid": "MTK2463:32Q90QCQ1TS5KK7ALY81041IFZLKE4", "dateTime": 1517266344194}, {"current_trial": 154, "trialdata": {"rt": -1000, "trial_type": "single-audio", "stimulus": "/static/audio/400Hz.wav", "internal_node_id": "0.0-118.0", "time_elapsed": 780047, "key_press": -1, "type": "PRE_RECALL_ALERT", "trial_index": 154}, "uniqueid": "MTK2463:32Q90QCQ1TS5KK7ALY81041IFZLKE4", "dateTime": 1517266344696}, {"current_trial": 155, "trialdata": {"rt": [4469, 5949, 6749, 7637, 9333, 10133, 16493, 17221, 19277, 21373, 22645, 25133, 26117], "recwords": ["diner", "waitress", "treat", "girl", "ointment", "shirt", "tortoise", "dust", "pasta", "child", "mailbox", "quarter", "record"], "key_times": [2165, 2221, 2469, 2909, 3077, 3245, 3405, 3509, 3677, 3757, 3821, 3917, 4469, 4805, 4919, 5058, 5173, 5429, 5533, 5581, 5781, 5949, 6173, 6357, 6437, 6501, 6565, 6749, 7005, 7101, 7245, 7381, 7637, 8261, 8325, 8397, 8517, 8701, 8845, 9037, 9181, 9333, 9517, 9637, 9701, 9805, 9965, 10133, 14661, 15077, 15589, 15797, 15965, 16053, 16221, 16293, 16493, 16725, 16845, 17013, 17093, 17221, 18301, 18477, 18637, 18813, 19045, 19277, 20781, 20853, 20941, 20989, 21149, 21373, 21661, 21789, 21861, 21973, 22157, 22237, 22445, 22645, 24213, 24317, 24469, 24565, 24741, 24917, 24981, 25133, 25349, 25429, 25613, 25677, 25821, 25949, 26117], "trial_type": "free-recall", "conditions": [24, 800, "a", 24000], "internal_node_id": "0.0-119.0-0.0", "key_presses": [87, 65, 73, 8, 8, 8, 8, 68, 73, 78, 69, 82, 13, 87, 65, 73, 84, 82, 69, 83, 83, 13, 84, 82, 69, 65, 84, 13, 71, 73, 82, 76, 13, 79, 73, 78, 84, 77, 69, 78, 84, 13, 83, 72, 73, 82, 84, 13, 84, 79, 82, 84, 79, 73, 83, 69, 13, 68, 85, 83, 84, 13, 80, 65, 83, 84, 65, 13, 67, 72, 73, 76, 68, 13, 77, 65, 73, 76, 66, 79, 88, 13, 81, 85, 65, 82, 84, 69, 82, 13, 82, 69, 67, 79, 82, 68, 13], "trial": 3, "time_elapsed": 840051, "type": "FREE_RECALL", "trial_index": 155}, "uniqueid": "MTK2463:32Q90QCQ1TS5KK7ALY81041IFZLKE4", "dateTime": 1517266404704}, {"current_trial": 156, "trialdata": {"rt": 1063, "trial_type": "text", "internal_node_id": "0.0-120.0", "time_elapsed": 843119, "key_press": 13, "type": "INSTRUCTIONS", "trial_index": 156}, "uniqueid": "MTK2463:32Q90QCQ1TS5KK7ALY81041IFZLKE4", "dateTime": 1517266407768}, {"current_trial": 157, "trialdata": {"rt": [2501, 4205, 5669, 6981, 8629, 10301, 12141, 14205, 16213, 18453, 20989, 22749], "trial_type": "math-distractor", "key_times": [2261, 2501, 3829, 3997, 4205, 5373, 5533, 5669, 6765, 6853, 6981, 8461, 8541, 8629, 9941, 10125, 10301, 11717, 11981, 12141, 14013, 14109, 14205, 15877, 15965, 16213, 18133, 18237, 18453, 20661, 20845, 20989, 22389, 22557, 22749], "responses": ["8", "11", "14", "10", "20", "21", "13", "10", "16", "13", "21", "11"], "num2": [1, 5, 8, 8, 9, 8, 6, 4, 2, 3, 5, 5, 4], "num3": [2, 3, 4, 1, 6, 5, 2, 5, 6, 1, 8, 5, 8], "conditions": [12, 1600, "a", 24000], "internal_node_id": "0.0-121.0", "key_presses": [104, 13, 97, 97, 13, 97, 100, 13, 97, 96, 13, 98, 96, 13, 98, 97, 13, 97, 99, 13, 97, 96, 13, 97, 102, 13, 97, 99, 13, 98, 97, 13, 97, 97, 13], "trial": 4, "time_elapsed": 869123, "type": "DISTRACTOR", "trial_index": 157, "num1": [4, 3, 2, 1, 5, 8, 5, 1, 8, 9, 8, 1, 4]}, "uniqueid": "MTK2463:32Q90QCQ1TS5KK7ALY81041IFZLKE4", "dateTime": 1517266433773}, {"current_trial": 158, "trialdata": {"rt": -1, "trial_type": "single-stim", "stimulus": "<p id=\"stim\">10</p>", "internal_node_id": "0.0-122.0-0.0", "time_elapsed": 872126, "key_press": -1, "trial_index": 158}, "uniqueid": "MTK2463:32Q90QCQ1TS5KK7ALY81041IFZLKE4", "dateTime": 1517266436775}, {"current_trial": 159, "trialdata": {"rt": -1, "trial_type": "single-stim", "stimulus": "<p id=\"stim\">9</p>", "internal_node_id": "0.0-122.0-1.0", "time_elapsed": 873127, "key_press": -1, "trial_index": 159}, "uniqueid": "MTK2463:32Q90QCQ1TS5KK7ALY81041IFZLKE4", "dateTime": 1517266437776}, {"current_trial": 160, "trialdata": {"rt": -1, "trial_type": "single-stim", "stimulus": "<p id=\"stim\">8</p>", "internal_node_id": "0.0-122.0-2.0", "time_elapsed": 874129, "key_press": -1, "trial_index": 160}, "uniqueid": "MTK2463:32Q90QCQ1TS5KK7ALY81041IFZLKE4", "dateTime": 1517266438778}, {"current_trial": 161, "trialdata": {"rt": -1, "trial_type": "single-stim", "stimulus": "<p id=\"stim\">7</p>", "internal_node_id": "0.0-122.0-3.0", "time_elapsed": 875130, "key_press": -1, "trial_index": 161}, "uniqueid": "MTK2463:32Q90QCQ1TS5KK7ALY81041IFZLKE4", "dateTime": 1517266439779}, {"current_trial": 162, "trialdata": {"rt": -1, "trial_type": "single-stim", "stimulus": "<p id=\"stim\">6</p>", "internal_node_id": "0.0-122.0-4.0", "time_elapsed": 876131, "key_press": -1, "trial_index": 162}, "uniqueid": "MTK2463:32Q90QCQ1TS5KK7ALY81041IFZLKE4", "dateTime": 1517266440780}, {"current_trial": 163, "trialdata": {"rt": -1, "trial_type": "single-stim", "stimulus": "<p id=\"stim\">5</p>", "internal_node_id": "0.0-122.0-5.0", "time_elapsed": 877132, "key_press": -1, "trial_index": 163}, "uniqueid": "MTK2463:32Q90QCQ1TS5KK7ALY81041IFZLKE4", "dateTime": 1517266441781}, {"current_trial": 164, "trialdata": {"rt": -1, "trial_type": "single-stim", "stimulus": "<p id=\"stim\">4</p>", "internal_node_id": "0.0-122.0-6.0", "time_elapsed": 878133, "key_press": -1, "trial_index": 164}, "uniqueid": "MTK2463:32Q90QCQ1TS5KK7ALY81041IFZLKE4", "dateTime": 1517266442783}, {"current_trial": 165, "trialdata": {"rt": -1, "trial_type": "single-stim", "stimulus": "<p id=\"stim\">3</p>", "internal_node_id": "0.0-122.0-7.0", "time_elapsed": 879135, "key_press": -1, "trial_index": 165}, "uniqueid": "MTK2463:32Q90QCQ1TS5KK7ALY81041IFZLKE4", "dateTime": 1517266443784}, {"current_trial": 166, "trialdata": {"rt": -1, "trial_type": "single-stim", "stimulus": "<p id=\"stim\">2</p>", "internal_node_id": "0.0-122.0-8.0", "time_elapsed": 880136, "key_press": -1, "trial_index": 166}, "uniqueid": "MTK2463:32Q90QCQ1TS5KK7ALY81041IFZLKE4", "dateTime": 1517266444785}, {"current_trial": 167, "trialdata": {"rt": -1, "trial_type": "single-stim", "stimulus": "<p id=\"stim\">1</p>", "internal_node_id": "0.0-122.0-9.0", "time_elapsed": 881137, "key_press": -1, "trial_index": 167}, "uniqueid": "MTK2463:32Q90QCQ1TS5KK7ALY81041IFZLKE4", "dateTime": 1517266445786}, {"current_trial": 168, "trialdata": {"rt": -1, "trial_type": "single-stim", "stimulus": "<p id=\"stim\">+</p>", "internal_node_id": "0.0-123.0-0.0", "time_elapsed": 882639, "key_press": -1, "type": "FIXATION", "trial_index": 168}, "uniqueid": "MTK2463:32Q90QCQ1TS5KK7ALY81041IFZLKE4", "dateTime": 1517266447288}, {"current_trial": 169, "trialdata": {"rt": -1000, "trial_type": "single-audio", "word": "sidewalk", "stimulus": "/static/audio/wordpool/SIDEWALK.wav", "conditions": [12, 1600, "a", 24000], "internal_node_id": "0.0-124.0", "trial": 4, "time_elapsed": 885184, "serialpos": 0, "key_press": -1, "wordID": 1302, "type": "PRES_AUD", "trial_index": 169}, "uniqueid": "MTK2463:32Q90QCQ1TS5KK7ALY81041IFZLKE4", "dateTime": 1517266449834}, {"current_trial": 170, "trialdata": {"rt": -1000, "trial_type": "single-audio", "word": "plaza", "stimulus": "/static/audio/wordpool/PLAZA.wav", "conditions": [12, 1600, "a", 24000], "internal_node_id": "0.0-125.0", "trial": 4, "time_elapsed": 887662, "serialpos": 1, "key_press": -1, "wordID": 1087, "type": "PRES_AUD", "trial_index": 170}, "uniqueid": "MTK2463:32Q90QCQ1TS5KK7ALY81041IFZLKE4", "dateTime": 1517266452311}, {"current_trial": 171, "trialdata": {"rt": -1000, "trial_type": "single-audio", "word": "wrench", "stimulus": "/static/audio/wordpool/WRENCH.wav", "conditions": [12, 1600, "a", 24000], "internal_node_id": "0.0-126.0", "trial": 4, "time_elapsed": 890389, "serialpos": 2, "key_press": -1, "wordID": 1624, "type": "PRES_AUD", "trial_index": 171}, "uniqueid": "MTK2463:32Q90QCQ1TS5KK7ALY81041IFZLKE4", "dateTime": 1517266455038}, {"current_trial": 172, "trialdata": {"rt": -1000, "trial_type": "single-audio", "word": "pocket", "stimulus": "/static/audio/wordpool/POCKET.wav", "conditions": [12, 1600, "a", 24000], "internal_node_id": "0.0-127.0", "trial": 4, "time_elapsed": 892904, "serialpos": 3, "key_press": -1, "wordID": 1092, "type": "PRES_AUD", "trial_index": 172}, "uniqueid": "MTK2463:32Q90QCQ1TS5KK7ALY81041IFZLKE4", "dateTime": 1517266457554}, {"current_trial": 173, "trialdata": {"rt": -1000, "trial_type": "single-audio", "word": "portrait", "stimulus": "/static/audio/wordpool/PORTRAIT.wav", "conditions": [12, 1600, "a", 24000], "internal_node_id": "0.0-128.0", "trial": 4, "time_elapsed": 895369, "serialpos": 4, "key_press": -1, "wordID": 1110, "type": "PRES_AUD", "trial_index": 173}, "uniqueid": "MTK2463:32Q90QCQ1TS5KK7ALY81041IFZLKE4", "dateTime": 1517266460018}, {"current_trial": 174, "trialdata": {"rt": -1000, "trial_type": "single-audio", "word": "flower", "stimulus": "/static/audio/wordpool/FLOWER.wav", "conditions": [12, 1600, "a", 24000], "internal_node_id": "0.0-129.0", "trial": 4, "time_elapsed": 897898, "serialpos": 5, "key_press": -1, "wordID": 583, "type": "PRES_AUD", "trial_index": 174}, "uniqueid": "MTK2463:32Q90QCQ1TS5KK7ALY81041IFZLKE4", "dateTime": 1517266462547}, {"current_trial": 175, "trialdata": {"rt": -1000, "trial_type": "single-audio", "word": "grape", "stimulus": "/static/audio/wordpool/GRAPE.wav", "conditions": [12, 1600, "a", 24000], "internal_node_id": "0.0-130.0", "trial": 4, "time_elapsed": 900687, "serialpos": 6, "key_press": -1, "wordID": 653, "type": "PRES_AUD", "trial_index": 175}, "uniqueid": "MTK2463:32Q90QCQ1TS5KK7ALY81041IFZLKE4", "dateTime": 1517266465336}, {"current_trial": 176, "trialdata": {"rt": -1000, "trial_type": "single-audio", "word": "human", "stimulus": "/static/audio/wordpool/HUMAN.wav", "conditions": [12, 1600, "a", 24000], "internal_node_id": "0.0-131.0", "trial": 4, "time_elapsed": 903153, "serialpos": 7, "key_press": -1, "wordID": 725, "type": "PRES_AUD", "trial_index": 176}, "uniqueid": "MTK2463:32Q90QCQ1TS5KK7ALY81041IFZLKE4", "dateTime": 1517266467802}, {"current_trial": 177, "trialdata": {"rt": -1000, "trial_type": "single-audio", "word": "package", "stimulus": "/static/audio/wordpool/PACKAGE.wav", "conditions": [12, 1600, "a", 24000], "internal_node_id": "0.0-132.0", "trial": 4, "time_elapsed": 905950, "serialpos": 8, "key_press": -1, "wordID": 996, "type": "PRES_AUD", "trial_index": 177}, "uniqueid": "MTK2463:32Q90QCQ1TS5KK7ALY81041IFZLKE4", "dateTime": 1517266470599}, {"current_trial": 178, "trialdata": {"rt": -1000, "trial_type": "single-audio", "word": "barley", "stimulus": "/static/audio/wordpool/BARLEY.wav", "conditions": [12, 1600, "a", 24000], "internal_node_id": "0.0-133.0", "trial": 4, "time_elapsed": 908689, "serialpos": 9, "key_press": -1, "wordID": 87, "type": "PRES_AUD", "trial_index": 178}, "uniqueid": "MTK2463:32Q90QCQ1TS5KK7ALY81041IFZLKE4", "dateTime": 1517266473338}, {"current_trial": 179, "trialdata": {"rt": -1000, "trial_type": "single-audio", "word": "oyster", "stimulus": "/static/audio/wordpool/OYSTER.wav", "conditions": [12, 1600, "a", 24000], "internal_node_id": "0.0-134.0", "trial": 4, "time_elapsed": 911190, "serialpos": 10, "key_press": -1, "wordID": 994, "type": "PRES_AUD", "trial_index": 179}, "uniqueid": "MTK2463:32Q90QCQ1TS5KK7ALY81041IFZLKE4", "dateTime": 1517266475840}, {"current_trial": 180, "trialdata": {"rt": -1000, "trial_type": "single-audio", "word": "ground", "stimulus": "/static/audio/wordpool/GROUND.wav", "conditions": [12, 1600, "a", 24000], "internal_node_id": "0.0-135.0", "trial": 4, "time_elapsed": 913640, "serialpos": 11, "key_press": -1, "wordID": 665, "type": "PRES_AUD", "trial_index": 180}, "uniqueid": "MTK2463:32Q90QCQ1TS5KK7ALY81041IFZLKE4", "dateTime": 1517266478289}, {"current_trial": 181, "trialdata": {"rt": -1, "trial_type": "single-stim", "stimulus": "", "internal_node_id": "0.0-136.0-0.0", "time_elapsed": 914849, "key_press": -1, "type": "PRE_RECALL_DELAY", "trial_index": 181}, "uniqueid": "MTK2463:32Q90QCQ1TS5KK7ALY81041IFZLKE4", "dateTime": 1517266479499}, {"current_trial": 182, "trialdata": {"rt": -1000, "trial_type": "single-audio", "stimulus": "/static/audio/400Hz.wav", "internal_node_id": "0.0-137.0", "time_elapsed": 915351, "key_press": -1, "type": "PRE_RECALL_ALERT", "trial_index": 182}, "uniqueid": "MTK2463:32Q90QCQ1TS5KK7ALY81041IFZLKE4", "dateTime": 1517266480000}, {"current_trial": 183, "trialdata": {"rt": [2326, 3974, 5950, 7038, 8014, 8950, 12182, 13550], "recwords": ["oyster", "ground", "package", "barley", "human", "brief", "plaza", "sidewalk"], "key_times": [1422, 1630, 1726, 1806, 1990, 2078, 2326, 3094, 3286, 3422, 3510, 3710, 3822, 3974, 4238, 4478, 4494, 5070, 5238, 5342, 5382, 5486, 5638, 5718, 5798, 5950, 6198, 6310, 6350, 6486, 6646, 6830, 7038, 7262, 7462, 7646, 7758, 7846, 8014, 8246, 8374, 8526, 8606, 8806, 8950, 11206, 11302, 11486, 11758, 11974, 12182, 12534, 12606, 12750, 12950, 13142, 13230, 13310, 13366, 13550], "trial_type": "free-recall", "conditions": [12, 1600, "a", 24000], "internal_node_id": "0.0-138.0-0.0", "key_presses": [79, 89, 83, 84, 69, 82, 32, 71, 82, 79, 85, 78, 68, 13, 80, 67, 65, 8, 8, 65, 67, 75, 65, 71, 69, 13, 66, 65, 82, 76, 69, 89, 13, 72, 85, 77, 65, 78, 13, 66, 82, 73, 69, 70, 13, 80, 76, 65, 90, 65, 13, 83, 73, 68, 69, 87, 65, 76, 75, 13], "trial": 4, "time_elapsed": 975355, "type": "FREE_RECALL", "trial_index": 183}, "uniqueid": "MTK2463:32Q90QCQ1TS5KK7ALY81041IFZLKE4", "dateTime": 1517266540008}, {"current_trial": 184, "trialdata": {"rt": 1087, "trial_type": "text", "internal_node_id": "0.0-139.0", "time_elapsed": 978447, "key_press": 13, "type": "INSTRUCTIONS", "trial_index": 184}, "uniqueid": "MTK2463:32Q90QCQ1TS5KK7ALY81041IFZLKE4", "dateTime": 1517266543096}, {"current_trial": 185, "trialdata": {"rt": [1749, 3397, 4933, 6693, 8293, 9453, 12245, 13925, 16597, 19645, 20829, 22238, 23981], "trial_type": "math-distractor", "key_times": [1453, 1541, 1749, 3205, 3397, 4701, 4781, 4933, 6445, 6501, 6693, 8013, 8077, 8293, 9245, 9357, 9453, 11925, 12029, 12245, 13725, 13789, 13925, 16293, 16477, 16597, 19389, 19469, 19645, 20621, 20749, 20829, 22045, 22173, 22238, 23725, 23805, 23981], "responses": ["15", "9", "13", "12", "12", "10", "16", "10", "25", "26", "11", "11", "13"], "num2": [7, 5, 4, 2, 1, 7, 3, 3, 7, 9, 4, 1, 6, 5], "num3": [4, 1, 2, 6, 8, 1, 4, 5, 9, 9, 1, 4, 1, 1], "conditions": [12, 1600, "a", 24000], "internal_node_id": "0.0-140.0", "key_presses": [97, 101, 13, 105, 13, 97, 99, 13, 97, 98, 13, 97, 98, 13, 97, 96, 13, 97, 102, 13, 97, 96, 13, 98, 101, 13, 98, 102, 13, 97, 97, 13, 97, 97, 13, 97, 99, 13], "trial": 5, "time_elapsed": 1004452, "type": "DISTRACTOR", "trial_index": 185, "num1": [4, 3, 7, 4, 3, 2, 9, 2, 9, 8, 6, 6, 6, 3]}, "uniqueid": "MTK2463:32Q90QCQ1TS5KK7ALY81041IFZLKE4", "dateTime": 1517266569101}, {"current_trial": 186, "trialdata": {"rt": -1, "trial_type": "single-stim", "stimulus": "<p id=\"stim\">10</p>", "internal_node_id": "0.0-141.0-0.0", "time_elapsed": 1007454, "key_press": -1, "trial_index": 186}, "uniqueid": "MTK2463:32Q90QCQ1TS5KK7ALY81041IFZLKE4", "dateTime": 1517266572104}, {"current_trial": 187, "trialdata": {"rt": -1, "trial_type": "single-stim", "stimulus": "<p id=\"stim\">9</p>", "internal_node_id": "0.0-141.0-1.0", "time_elapsed": 1008457, "key_press": -1, "trial_index": 187}, "uniqueid": "MTK2463:32Q90QCQ1TS5KK7ALY81041IFZLKE4", "dateTime": 1517266573106}, {"current_trial": 188, "trialdata": {"rt": -1, "trial_type": "single-stim", "stimulus": "<p id=\"stim\">8</p>", "internal_node_id": "0.0-141.0-2.0", "time_elapsed": 1009458, "key_press": -1, "trial_index": 188}, "uniqueid": "MTK2463:32Q90QCQ1TS5KK7ALY81041IFZLKE4", "dateTime": 1517266574107}, {"current_trial": 189, "trialdata": {"rt": -1, "trial_type": "single-stim", "stimulus": "<p id=\"stim\">7</p>", "internal_node_id": "0.0-141.0-3.0", "time_elapsed": 1010459, "key_press": -1, "trial_index": 189}, "uniqueid": "MTK2463:32Q90QCQ1TS5KK7ALY81041IFZLKE4", "dateTime": 1517266575109}, {"current_trial": 190, "trialdata": {"rt": -1, "trial_type": "single-stim", "stimulus": "<p id=\"stim\">6</p>", "internal_node_id": "0.0-141.0-4.0", "time_elapsed": 1011471, "key_press": -1, "trial_index": 190}, "uniqueid": "MTK2463:32Q90QCQ1TS5KK7ALY81041IFZLKE4", "dateTime": 1517266576120}, {"current_trial": 191, "trialdata": {"rt": -1, "trial_type": "single-stim", "stimulus": "<p id=\"stim\">5</p>", "internal_node_id": "0.0-141.0-5.0", "time_elapsed": 1012473, "key_press": -1, "trial_index": 191}, "uniqueid": "MTK2463:32Q90QCQ1TS5KK7ALY81041IFZLKE4", "dateTime": 1517266577123}, {"current_trial": 192, "trialdata": {"rt": -1, "trial_type": "single-stim", "stimulus": "<p id=\"stim\">4</p>", "internal_node_id": "0.0-141.0-6.0", "time_elapsed": 1013474, "key_press": -1, "trial_index": 192}, "uniqueid": "MTK2463:32Q90QCQ1TS5KK7ALY81041IFZLKE4", "dateTime": 1517266578124}, {"current_trial": 193, "trialdata": {"rt": -1, "trial_type": "single-stim", "stimulus": "<p id=\"stim\">3</p>", "internal_node_id": "0.0-141.0-7.0", "time_elapsed": 1014475, "key_press": -1, "trial_index": 193}, "uniqueid": "MTK2463:32Q90QCQ1TS5KK7ALY81041IFZLKE4", "dateTime": 1517266579124}, {"current_trial": 194, "trialdata": {"rt": -1, "trial_type": "single-stim", "stimulus": "<p id=\"stim\">2</p>", "internal_node_id": "0.0-141.0-8.0", "time_elapsed": 1015477, "key_press": -1, "trial_index": 194}, "uniqueid": "MTK2463:32Q90QCQ1TS5KK7ALY81041IFZLKE4", "dateTime": 1517266580126}, {"current_trial": 195, "trialdata": {"rt": -1, "trial_type": "single-stim", "stimulus": "<p id=\"stim\">1</p>", "internal_node_id": "0.0-141.0-9.0", "time_elapsed": 1016478, "key_press": -1, "trial_index": 195}, "uniqueid": "MTK2463:32Q90QCQ1TS5KK7ALY81041IFZLKE4", "dateTime": 1517266581128}, {"current_trial": 196, "trialdata": {"rt": -1, "trial_type": "single-stim", "stimulus": "<p id=\"stim\">+</p>", "internal_node_id": "0.0-142.0-0.0", "time_elapsed": 1017980, "key_press": -1, "type": "FIXATION", "trial_index": 196}, "uniqueid": "MTK2463:32Q90QCQ1TS5KK7ALY81041IFZLKE4", "dateTime": 1517266582629}, {"current_trial": 197, "trialdata": {"rt": -1000, "trial_type": "single-audio", "word": "whiskers", "stimulus": "/static/audio/wordpool/WHISKERS.wav", "conditions": [12, 1600, "a", 24000], "internal_node_id": "0.0-143.0", "trial": 5, "time_elapsed": 1020470, "serialpos": 0, "key_press": -1, "wordID": 1604, "type": "PRES_AUD", "trial_index": 197}, "uniqueid": "MTK2463:32Q90QCQ1TS5KK7ALY81041IFZLKE4", "dateTime": 1517266585119}, {"current_trial": 198, "trialdata": {"rt": -1000, "trial_type": "single-audio", "word": "item", "stimulus": "/static/audio/wordpool/ITEM.wav", "conditions": [12, 1600, "a", 24000], "internal_node_id": "0.0-144.0", "trial": 5, "time_elapsed": 1023021, "serialpos": 1, "key_press": -1, "wordID": 745, "type": "PRES_AUD", "trial_index": 198}, "uniqueid": "MTK2463:32Q90QCQ1TS5KK7ALY81041IFZLKE4", "dateTime": 1517266587671}, {"current_trial": 199, "trialdata": {"rt": -1000, "trial_type": "single-audio", "word": "soda", "stimulus": "/static/audio/wordpool/SODA.wav", "conditions": [12, 1600, "a", 24000], "internal_node_id": "0.0-145.0", "trial": 5, "time_elapsed": 1025786, "serialpos": 2, "key_press": -1, "wordID": 1340, "type": "PRES_AUD", "trial_index": 199}, "uniqueid": "MTK2463:32Q90QCQ1TS5KK7ALY81041IFZLKE4", "dateTime": 1517266590435}, {"current_trial": 200, "trialdata": {"rt": -1000, "trial_type": "single-audio", "word": "smog", "stimulus": "/static/audio/wordpool/SMOG.wav", "conditions": [12, 1600, "a", 24000], "internal_node_id": "0.0-146.0", "trial": 5, "time_elapsed": 1028422, "serialpos": 3, "key_press": -1, "wordID": 1329, "type": "PRES_AUD", "trial_index": 200}, "uniqueid": "MTK2463:32Q90QCQ1TS5KK7ALY81041IFZLKE4", "dateTime": 1517266593071}, {"current_trial": 201, "trialdata": {"rt": -1000, "trial_type": "single-audio", "word": "hiker", "stimulus": "/static/audio/wordpool/HIKER.wav", "conditions": [12, 1600, "a", 24000], "internal_node_id": "0.0-147.0", "trial": 5, "time_elapsed": 1030979, "serialpos": 4, "key_press": -1, "wordID": 707, "type": "PRES_AUD", "trial_index": 201}, "uniqueid": "MTK2463:32Q90QCQ1TS5KK7ALY81041IFZLKE4", "dateTime": 1517266595628}, {"current_trial": 202, "trialdata": {"rt": -1000, "trial_type": "single-audio", "word": "climber", "stimulus": "/static/audio/wordpool/CLIMBER.wav", "conditions": [12, 1600, "a", 24000], "internal_node_id": "0.0-148.0", "trial": 5, "time_elapsed": 1033436, "serialpos": 5, "key_press": -1, "wordID": 322, "type": "PRES_AUD", "trial_index": 202}, "uniqueid": "MTK2463:32Q90QCQ1TS5KK7ALY81041IFZLKE4", "dateTime": 1517266598086}, {"current_trial": 203, "trialdata": {"rt": -1000, "trial_type": "single-audio", "word": "river", "stimulus": "/static/audio/wordpool/RIVER.wav", "conditions": [12, 1600, "a", 24000], "internal_node_id": "0.0-149.0", "trial": 5, "time_elapsed": 1036114, "serialpos": 6, "key_press": -1, "wordID": 1193, "type": "PRES_AUD", "trial_index": 203}, "uniqueid": "MTK2463:32Q90QCQ1TS5KK7ALY81041IFZLKE4", "dateTime": 1517266600763}, {"current_trial": 204, "trialdata": {"rt": -1000, "trial_type": "single-audio", "word": "leopard", "stimulus": "/static/audio/wordpool/LEOPARD.wav", "conditions": [12, 1600, "a", 24000], "internal_node_id": "0.0-150.0", "trial": 5, "time_elapsed": 1038656, "serialpos": 7, "key_press": -1, "wordID": 811, "type": "PRES_AUD", "trial_index": 204}, "uniqueid": "MTK2463:32Q90QCQ1TS5KK7ALY81041IFZLKE4", "dateTime": 1517266603305}, {"current_trial": 205, "trialdata": {"rt": -1000, "trial_type": "single-audio", "word": "spool", "stimulus": "/static/audio/wordpool/SPOOL.wav", "conditions": [12, 1600, "a", 24000], "internal_node_id": "0.0-151.0", "trial": 5, "time_elapsed": 1041233, "serialpos": 8, "key_press": -1, "wordID": 1355, "type": "PRES_AUD", "trial_index": 205}, "uniqueid": "MTK2463:32Q90QCQ1TS5KK7ALY81041IFZLKE4", "dateTime": 1517266605882}, {"current_trial": 206, "trialdata": {"rt": -1000, "trial_type": "single-audio", "word": "whistle", "stimulus": "/static/audio/wordpool/WHISTLE.wav", "conditions": [12, 1600, "a", 24000], "internal_node_id": "0.0-152.0", "trial": 5, "time_elapsed": 1043967, "serialpos": 9, "key_press": -1, "wordID": 1605, "type": "PRES_AUD", "trial_index": 206}, "uniqueid": "MTK2463:32Q90QCQ1TS5KK7ALY81041IFZLKE4", "dateTime": 1517266608616}, {"current_trial": 207, "trialdata": {"rt": -1000, "trial_type": "single-audio", "word": "ozone", "stimulus": "/static/audio/wordpool/OZONE.wav", "conditions": [12, 1600, "a", 24000], "internal_node_id": "0.0-153.0", "trial": 5, "time_elapsed": 1046623, "serialpos": 10, "key_press": -1, "wordID": 995, "type": "PRES_AUD", "trial_index": 207}, "uniqueid": "MTK2463:32Q90QCQ1TS5KK7ALY81041IFZLKE4", "dateTime": 1517266611272}, {"current_trial": 208, "trialdata": {"rt": -1000, "trial_type": "single-audio", "word": "trout", "stimulus": "/static/audio/wordpool/TROUT.wav", "conditions": [12, 1600, "a", 24000], "internal_node_id": "0.0-154.0", "trial": 5, "time_elapsed": 1049229, "serialpos": 11, "key_press": -1, "wordID": 1510, "type": "PRES_AUD", "trial_index": 208}, "uniqueid": "MTK2463:32Q90QCQ1TS5KK7ALY81041IFZLKE4", "dateTime": 1517266613878}, {"current_trial": 209, "trialdata": {"rt": -1, "trial_type": "single-stim", "stimulus": "", "internal_node_id": "0.0-155.0-0.0", "time_elapsed": 1050561, "key_press": -1, "type": "PRE_RECALL_DELAY", "trial_index": 209}, "uniqueid": "MTK2463:32Q90QCQ1TS5KK7ALY81041IFZLKE4", "dateTime": 1517266615210}, {"current_trial": 210, "trialdata": {"rt": -1000, "trial_type": "single-audio", "stimulus": "/static/audio/400Hz.wav", "internal_node_id": "0.0-156.0", "time_elapsed": 1051063, "key_press": -1, "type": "PRE_RECALL_ALERT", "trial_index": 210}, "uniqueid": "MTK2463:32Q90QCQ1TS5KK7ALY81041IFZLKE4", "dateTime": 1517266615712}, {"current_trial": 211, "trialdata": {"rt": [5022, 6062, 7302, 9518, 11390, 14134, 15646, 23478], "recwords": ["whistle", "school", "ozone", "trout", "hiker", "river", "leopard", "climber"], "key_times": [2910, 3118, 3182, 3278, 3494, 3574, 3766, 4126, 4286, 4446, 4550, 4702, 4870, 5022, 5158, 5270, 5390, 5462, 5638, 5846, 6062, 6342, 6462, 6582, 6686, 6854, 7302, 7470, 7654, 7750, 7814, 8206, 8366, 8670, 8822, 9246, 9518, 10070, 10118, 10374, 10550, 10630, 11390, 13118, 13230, 13384, 13606, 13662, 14134, 14526, 14638, 14774, 15006, 15166, 15254, 15454, 15646, 22598, 22726, 22814, 22927, 23150, 23294, 23366, 23478], "trial_type": "free-recall", "conditions": [12, 1600, "a", 24000], "internal_node_id": "0.0-157.0-0.0", "key_presses": [87, 72, 73, 83, 83, 84, 76, 8, 8, 8, 84, 76, 69, 13, 83, 67, 72, 79, 79, 76, 13, 79, 90, 79, 78, 69, 13, 84, 82, 69, 65, 8, 8, 79, 85, 84, 13, 72, 73, 75, 69, 82, 13, 82, 73, 86, 69, 82, 13, 76, 69, 79, 80, 65, 82, 68, 13, 67, 76, 73, 77, 66, 69, 82, 13], "trial": 5, "time_elapsed": 1111066, "type": "FREE_RECALL", "trial_index": 211}, "uniqueid": "MTK2463:32Q90QCQ1TS5KK7ALY81041IFZLKE4", "dateTime": 1517266675720}, {"current_trial": 212, "trialdata": {"rt": 1047, "trial_type": "text", "internal_node_id": "0.0-158.0", "time_elapsed": 1114120, "key_press": 13, "type": "INSTRUCTIONS", "trial_index": 212}, "uniqueid": "MTK2463:32Q90QCQ1TS5KK7ALY81041IFZLKE4", "dateTime": 1517266678769}, {"current_trial": 213, "trialdata": {"rt": [2380, 3980, 5268, 7612, 9476, 10636, 11956], "trial_type": "math-distractor", "key_times": [2132, 2268, 2380, 3796, 3980, 4996, 5068, 5268, 7028, 7372, 7612, 9196, 9476, 10436, 10548, 10636, 11772, 11868, 11956], "responses": ["11", "6", "12", "19", "8", "10", "10"], "num2": [1, 1, 2, 9, 2, 8, 3, 8], "num3": [6, 1, 2, 9, 3, 1, 6, 1], "conditions": [24, 800, "a", 12000], "internal_node_id": "0.0-159.0", "key_presses": [97, 97, 13, 102, 13, 97, 98, 13, 97, 105, 13, 104, 13, 97, 96, 13, 97, 96, 13], "trial": 6, "time_elapsed": 1128124, "type": "DISTRACTOR", "trial_index": 213, "num1": [4, 4, 8, 1, 3, 1, 1, 1]}, "uniqueid": "MTK2463:32Q90QCQ1TS5KK7ALY81041IFZLKE4", "dateTime": 1517266692773}, {"current_trial": 214, "trialdata": {"rt": -1, "trial_type": "single-stim", "stimulus": "<p id=\"stim\">10</p>", "internal_node_id": "0.0-160.0-0.0", "time_elapsed": 1131127, "key_press": -1, "trial_index": 214}, "uniqueid": "MTK2463:32Q90QCQ1TS5KK7ALY81041IFZLKE4", "dateTime": 1517266695776}, {"current_trial": 215, "trialdata": {"rt": -1, "trial_type": "single-stim", "stimulus": "<p id=\"stim\">9</p>", "internal_node_id": "0.0-160.0-1.0", "time_elapsed": 1132129, "key_press": -1, "trial_index": 215}, "uniqueid": "MTK2463:32Q90QCQ1TS5KK7ALY81041IFZLKE4", "dateTime": 1517266696778}, {"current_trial": 216, "trialdata": {"rt": -1, "trial_type": "single-stim", "stimulus": "<p id=\"stim\">8</p>", "internal_node_id": "0.0-160.0-2.0", "time_elapsed": 1133130, "key_press": -1, "trial_index": 216}, "uniqueid": "MTK2463:32Q90QCQ1TS5KK7ALY81041IFZLKE4", "dateTime": 1517266697779}, {"current_trial": 217, "trialdata": {"rt": -1, "trial_type": "single-stim", "stimulus": "<p id=\"stim\">7</p>", "internal_node_id": "0.0-160.0-3.0", "time_elapsed": 1134131, "key_press": -1, "trial_index": 217}, "uniqueid": "MTK2463:32Q90QCQ1TS5KK7ALY81041IFZLKE4", "dateTime": 1517266698780}, {"current_trial": 218, "trialdata": {"rt": -1, "trial_type": "single-stim", "stimulus": "<p id=\"stim\">6</p>", "internal_node_id": "0.0-160.0-4.0", "time_elapsed": 1135132, "key_press": -1, "trial_index": 218}, "uniqueid": "MTK2463:32Q90QCQ1TS5KK7ALY81041IFZLKE4", "dateTime": 1517266699782}, {"current_trial": 219, "trialdata": {"rt": -1, "trial_type": "single-stim", "stimulus": "<p id=\"stim\">5</p>", "internal_node_id": "0.0-160.0-5.0", "time_elapsed": 1136134, "key_press": -1, "trial_index": 219}, "uniqueid": "MTK2463:32Q90QCQ1TS5KK7ALY81041IFZLKE4", "dateTime": 1517266700783}, {"current_trial": 220, "trialdata": {"rt": -1, "trial_type": "single-stim", "stimulus": "<p id=\"stim\">4</p>", "internal_node_id": "0.0-160.0-6.0", "time_elapsed": 1137136, "key_press": -1, "trial_index": 220}, "uniqueid": "MTK2463:32Q90QCQ1TS5KK7ALY81041IFZLKE4", "dateTime": 1517266701785}, {"current_trial": 221, "trialdata": {"rt": -1, "trial_type": "single-stim", "stimulus": "<p id=\"stim\">3</p>", "internal_node_id": "0.0-160.0-7.0", "time_elapsed": 1138136, "key_press": -1, "trial_index": 221}, "uniqueid": "MTK2463:32Q90QCQ1TS5KK7ALY81041IFZLKE4", "dateTime": 1517266702786}, {"current_trial": 222, "trialdata": {"rt": -1, "trial_type": "single-stim", "stimulus": "<p id=\"stim\">2</p>", "internal_node_id": "0.0-160.0-8.0", "time_elapsed": 1139139, "key_press": -1, "trial_index": 222}, "uniqueid": "MTK2463:32Q90QCQ1TS5KK7ALY81041IFZLKE4", "dateTime": 1517266703788}, {"current_trial": 223, "trialdata": {"rt": -1, "trial_type": "single-stim", "stimulus": "<p id=\"stim\">1</p>", "internal_node_id": "0.0-160.0-9.0", "time_elapsed": 1140140, "key_press": -1, "trial_index": 223}, "uniqueid": "MTK2463:32Q90QCQ1TS5KK7ALY81041IFZLKE4", "dateTime": 1517266704789}, {"current_trial": 224, "trialdata": {"rt": -1, "trial_type": "single-stim", "stimulus": "<p id=\"stim\">+</p>", "internal_node_id": "0.0-161.0-0.0", "time_elapsed": 1141640, "key_press": -1, "type": "FIXATION", "trial_index": 224}, "uniqueid": "MTK2463:32Q90QCQ1TS5KK7ALY81041IFZLKE4", "dateTime": 1517266706289}, {"current_trial": 225, "trialdata": {"rt": -1000, "trial_type": "single-audio", "word": "picnic", "stimulus": "/static/audio/wordpool/PICNIC.wav", "conditions": [24, 800, "a", 12000], "internal_node_id": "0.0-162.0", "trial": 6, "time_elapsed": 1143253, "serialpos": 0, "key_press": -1, "wordID": 1059, "type": "PRES_AUD", "trial_index": 225}, "uniqueid": "MTK2463:32Q90QCQ1TS5KK7ALY81041IFZLKE4", "dateTime": 1517266707903}, {"current_trial": 226, "trialdata": {"rt": -1000, "trial_type": "single-audio", "word": "beaver", "stimulus": "/static/audio/wordpool/BEAVER.wav", "conditions": [24, 800, "a", 12000], "internal_node_id": "0.0-163.0", "trial": 6, "time_elapsed": 1145089, "serialpos": 1, "key_press": -1, "wordID": 108, "type": "PRES_AUD", "trial_index": 226}, "uniqueid": "MTK2463:32Q90QCQ1TS5KK7ALY81041IFZLKE4", "dateTime": 1517266709738}, {"current_trial": 227, "trialdata": {"rt": -1000, "trial_type": "single-audio", "word": "tribe", "stimulus": "/static/audio/wordpool/TRIBE.wav", "conditions": [24, 800, "a", 12000], "internal_node_id": "0.0-164.0", "trial": 6, "time_elapsed": 1146838, "serialpos": 2, "key_press": -1, "wordID": 1504, "type": "PRES_AUD", "trial_index": 227}, "uniqueid": "MTK2463:32Q90QCQ1TS5KK7ALY81041IFZLKE4", "dateTime": 1517266711488}, {"current_trial": 228, "trialdata": {"rt": -1000, "trial_type": "single-audio", "word": "radish", "stimulus": "/static/audio/wordpool/RADISH.wav", "conditions": [24, 800, "a", 12000], "internal_node_id": "0.0-165.0", "trial": 6, "time_elapsed": 1148478, "serialpos": 3, "key_press": -1, "wordID": 1157, "type": "PRES_AUD", "trial_index": 228}, "uniqueid": "MTK2463:32Q90QCQ1TS5KK7ALY81041IFZLKE4", "dateTime": 1517266713128}, {"current_trial": 229, "trialdata": {"rt": -1000, "trial_type": "single-audio", "word": "chipmunk", "stimulus": "/static/audio/wordpool/CHIPMUNK.wav", "conditions": [24, 800, "a", 12000], "internal_node_id": "0.0-166.0", "trial": 6, "time_elapsed": 1150162, "serialpos": 4, "key_press": -1, "wordID": 303, "type": "PRES_AUD", "trial_index": 229}, "uniqueid": "MTK2463:32Q90QCQ1TS5KK7ALY81041IFZLKE4", "dateTime": 1517266714811}, {"current_trial": 230, "trialdata": {"rt": -1000, "trial_type": "single-audio", "word": "couch", "stimulus": "/static/audio/wordpool/COUCH.wav", "conditions": [24, 800, "a", 12000], "internal_node_id": "0.0-167.0", "trial": 6, "time_elapsed": 1152101, "serialpos": 5, "key_press": -1, "wordID": 385, "type": "PRES_AUD", "trial_index": 230}, "uniqueid": "MTK2463:32Q90QCQ1TS5KK7ALY81041IFZLKE4", "dateTime": 1517266716750}, {"current_trial": 231, "trialdata": {"rt": -1000, "trial_type": "single-audio", "word": "shelter", "stimulus": "/static/audio/wordpool/SHELTER.wav", "conditions": [24, 800, "a", 12000], "internal_node_id": "0.0-168.0", "trial": 6, "time_elapsed": 1153940, "serialpos": 6, "key_press": -1, "wordID": 1281, "type": "PRES_AUD", "trial_index": 231}, "uniqueid": "MTK2463:32Q90QCQ1TS5KK7ALY81041IFZLKE4", "dateTime": 1517266718590}, {"current_trial": 232, "trialdata": {"rt": -1000, "trial_type": "single-audio", "word": "box", "stimulus": "/static/audio/wordpool/BOX.wav", "conditions": [24, 800, "a", 12000], "internal_node_id": "0.0-169.0", "trial": 6, "time_elapsed": 1155640, "serialpos": 7, "key_press": -1, "wordID": 158, "type": "PRES_AUD", "trial_index": 232}, "uniqueid": "MTK2463:32Q90QCQ1TS5KK7ALY81041IFZLKE4", "dateTime": 1517266720289}, {"current_trial": 233, "trialdata": {"rt": -1000, "trial_type": "single-audio", "word": "crayon", "stimulus": "/static/audio/wordpool/CRAYON.wav", "conditions": [24, 800, "a", 12000], "internal_node_id": "0.0-170.0", "trial": 6, "time_elapsed": 1157567, "serialpos": 8, "key_press": -1, "wordID": 400, "type": "PRES_AUD", "trial_index": 233}, "uniqueid": "MTK2463:32Q90QCQ1TS5KK7ALY81041IFZLKE4", "dateTime": 1517266722216}, {"current_trial": 234, "trialdata": {"rt": -1000, "trial_type": "single-audio", "word": "cocktail", "stimulus": "/static/audio/wordpool/COCKTAIL.wav", "conditions": [24, 800, "a", 12000], "internal_node_id": "0.0-171.0", "trial": 6, "time_elapsed": 1159324, "serialpos": 9, "key_press": -1, "wordID": 337, "type": "PRES_AUD", "trial_index": 234}, "uniqueid": "MTK2463:32Q90QCQ1TS5KK7ALY81041IFZLKE4", "dateTime": 1517266723973}, {"current_trial": 235, "trialdata": {"rt": -1000, "trial_type": "single-audio", "word": "brick", "stimulus": "/static/audio/wordpool/BRICK.wav", "conditions": [24, 800, "a", 12000], "internal_node_id": "0.0-172.0", "trial": 6, "time_elapsed": 1161079, "serialpos": 10, "key_press": -1, "wordID": 171, "type": "PRES_AUD", "trial_index": 235}, "uniqueid": "MTK2463:32Q90QCQ1TS5KK7ALY81041IFZLKE4", "dateTime": 1517266725729}, {"current_trial": 236, "trialdata": {"rt": -1000, "trial_type": "single-audio", "word": "stone", "stimulus": "/static/audio/wordpool/STONE.wav", "conditions": [24, 800, "a", 12000], "internal_node_id": "0.0-173.0", "trial": 6, "time_elapsed": 1162768, "serialpos": 11, "key_press": -1, "wordID": 1384, "type": "PRES_AUD", "trial_index": 236}, "uniqueid": "MTK2463:32Q90QCQ1TS5KK7ALY81041IFZLKE4", "dateTime": 1517266727417}, {"current_trial": 237, "trialdata": {"rt": -1000, "trial_type": "single-audio", "word": "shelf", "stimulus": "/static/audio/wordpool/SHELF.wav", "conditions": [24, 800, "a", 12000], "internal_node_id": "0.0-174.0", "trial": 6, "time_elapsed": 1164618, "serialpos": 12, "key_press": -1, "wordID": 1279, "type": "PRES_AUD", "trial_index": 237}, "uniqueid": "MTK2463:32Q90QCQ1TS5KK7ALY81041IFZLKE4", "dateTime": 1517266729267}, {"current_trial": 238, "trialdata": {"rt