{"assignmentId": "3Y5140Z9DYNIBG6CU930H0L92IEPIW", "workerId": "MTK2556", "questiondata": {"origin": "United States", "strat-rehearsal": "10", "marital": "Single", "education": "Associate degree", "ethnicity": "Not Hispanic", "color_depth": 24, "distracted": "No", "wrote-notes": "No", "strat-other": "I repeated the words as I saw them multiple times.", "screen_width": 1536, "avail_screen_width": 1536, "avail_screen_height": 824, "strat-image": "0", "language": "English", "gender": "Female", "age": "21", "gender_other": "", "race": ["Black"], "strat-categorize": "100", "pixel_depth": 24, "strat-spatial": "0", "strat-story": "0", "race_other": "", "screen_height": 864}, "bonus": 0, "hitId": "3ACRLU860NL24X5MPJQ6CHM89HXEBT", "counterbalance": 1463, "useragent": "Mozilla/5.0 (Windows NT 10.0; Win64; x64) AppleWebKit/537.36 (KHTML, like Gecko) Chrome/63.0.3239.132 Safari/537.36", "eventdata": [{"eventtype": "initialized", "interval": 0, "value": null, "timestamp": 1519063685235}, {"eventtype": "window_resize", "interval": 0, "value": [1536, 774], "timestamp": 1519063685235}, {"eventtype": "focus", "interval": 3337628, "value": "off", "timestamp": 1519067022863}, {"eventtype": "focus", "interval": 6667, "value": "on", "timestamp": 1519067029530}], "data": [{"current_trial": 0, "trialdata": {"rt": 2499, "trial_type": "text", "internal_node_id": "0.0-0.0", "time_elapsed": 2501, "key_press": 87, "type": "INSTRUCTIONS", "trial_index": 0}, "uniqueid": "MTK2556:3Y5140Z9DYNIBG6CU930H0L92IEPIW", "dateTime": 1519063688034}, {"current_trial": 1, "trialdata": {"rt": 16833, "trial_type": "text", "internal_node_id": "0.0-1.0", "time_elapsed": 19336, "key_press": 73, "type": "INSTRUCTIONS", "trial_index": 1}, "uniqueid": "MTK2556:3Y5140Z9DYNIBG6CU930H0L92IEPIW", "dateTime": 1519063704868}, {"current_trial": 2, "trialdata": {"rt": [8128], "trial_type": "audio-test", "responses": ["ocean"], "internal_node_id": "0.0-2.0", "time_elapsed": 27500, "type": "AUDIO_TEST", "trial_index": 2}, "uniqueid": "MTK2556:3Y5140Z9DYNIBG6CU930H0L92IEPIW", "dateTime": 1519063713032}, {"current_trial": 3, "trialdata": {"rt": [8010], "trial_type": "audio-test", "responses": ["crystal"], "internal_node_id": "0.0-3.0", "time_elapsed": 35514, "type": "AUDIO_TEST", "trial_index": 3}, "uniqueid": "MTK2556:3Y5140Z9DYNIBG6CU930H0L92IEPIW", "dateTime": 1519063721046}, {"current_trial": 4, "trialdata": {"rt": [5380], "trial_type": "audio-test", "responses": ["spice"], "internal_node_id": "0.0-4.0", "time_elapsed": 40898, "type": "AUDIO_TEST", "trial_index": 4}, "uniqueid": "MTK2556:3Y5140Z9DYNIBG6CU930H0L92IEPIW", "dateTime": 1519063726430}, {"current_trial": 5, "trialdata": {"rt": 55387, "trial_type": "survey-text", "responses": "{\"Q0\":\"12 AM\",\"Q1\":\"10 AM\",\"Q2\":\"5\"}", "internal_node_id": "0.0-5.0", "time_elapsed": 97039, "type": "SLEEP_SURVEY", "trial_index": 5}, "uniqueid": "MTK2556:3Y5140Z9DYNIBG6CU930H0L92IEPIW", "dateTime": 1519063782571}, {"current_trial": 6, "trialdata": {"rt": 58642, "trial_type": "text", "internal_node_id": "0.0-6.0", "time_elapsed": 156683, "key_press": 188, "type": "INSTRUCTIONS", "trial_index": 6}, "uniqueid": "MTK2556:3Y5140Z9DYNIBG6CU930H0L92IEPIW", "dateTime": 1519063842215}, {"current_trial": 7, "trialdata": {"rt": 15767, "trial_type": "text", "internal_node_id": "0.0-7.0", "time_elapsed": 172952, "key_press": 76, "type": "INSTRUCTIONS", "trial_index": 7}, "uniqueid": "MTK2556:3Y5140Z9DYNIBG6CU930H0L92IEPIW", "dateTime": 1519063858484}, {"current_trial": 8, "trialdata": {"rt": 13961, "trial_type": "text", "internal_node_id": "0.0-8.0", "time_elapsed": 187418, "key_press": 188, "type": "INSTRUCTIONS", "trial_index": 8}, "uniqueid": "MTK2556:3Y5140Z9DYNIBG6CU930H0L92IEPIW", "dateTime": 1519063872950}, {"current_trial": 9, "trialdata": {"rt": [8228, 16676], "trial_type": "math-distractor", "key_times": [6736, 7721, 8228, 15588, 15987, 16676], "responses": ["19", "12"], "num2": [8, 6, 9], "num3": [4, 5, 7], "conditions": [18, 1200, "v", 18000], "internal_node_id": "0.0-9.0", "key_presses": [49, 57, 13, 49, 50, 13], "trial": 0, "time_elapsed": 206436, "type": "DISTRACTOR", "trial_index": 9, "num1": [7, 1, 2]}, "uniqueid": "MTK2556:3Y5140Z9DYNIBG6CU930H0L92IEPIW", "dateTime": 1519063891968}, {"current_trial": 10, "trialdata": {"rt": -1, "trial_type": "single-stim", "stimulus": "<p id=\"stim\">10</p>", "internal_node_id": "0.0-10.0-0.0", "time_elapsed": 209444, "key_press": -1, "trial_index": 10}, "uniqueid": "MTK2556:3Y5140Z9DYNIBG6CU930H0L92IEPIW", "dateTime": 1519063894976}, {"current_trial": 11, "trialdata": {"rt": -1, "trial_type": "single-stim", "stimulus": "<p id=\"stim\">9</p>", "internal_node_id": "0.0-10.0-1.0", "time_elapsed": 210448, "key_press": -1, "trial_index": 11}, "uniqueid": "MTK2556:3Y5140Z9DYNIBG6CU930H0L92IEPIW", "dateTime": 1519063895980}, {"current_trial": 12, "trialdata": {"rt": -1, "trial_type": "single-stim", "stimulus": "<p id=\"stim\">8</p>", "internal_node_id": "0.0-10.0-2.0", "time_elapsed": 211451, "key_press": -1, "trial_index": 12}, "uniqueid": "MTK2556:3Y5140Z9DYNIBG6CU930H0L92IEPIW", "dateTime": 1519063896983}, {"current_trial": 13, "trialdata": {"rt": -1, "trial_type": "single-stim", "stimulus": "<p id=\"stim\">7</p>", "internal_node_id": "0.0-10.0-3.0", "time_elapsed": 212455, "key_press": -1, "trial_index": 13}, "uniqueid": "MTK2556:3Y5140Z9DYNIBG6CU930H0L92IEPIW", "dateTime": 1519063897987}, {"current_trial": 14, "trialdata": {"rt": -1, "trial_type": "single-stim", "stimulus": "<p id=\"stim\">6</p>", "internal_node_id": "0.0-10.0-4.0", "time_elapsed": 213459, "key_press": -1, "trial_index": 14}, "uniqueid": "MTK2556:3Y5140Z9DYNIBG6CU930H0L92IEPIW", "dateTime": 1519063898991}, {"current_trial": 15, "trialdata": {"rt": -1, "trial_type": "single-stim", "stimulus": "<p id=\"stim\">5</p>", "internal_node_id": "0.0-10.0-5.0", "time_elapsed": 214463, "key_press": -1, "trial_index": 15}, "uniqueid": "MTK2556:3Y5140Z9DYNIBG6CU930H0L92IEPIW", "dateTime": 1519063899995}, {"current_trial": 16, "trialdata": {"rt": -1, "trial_type": "single-stim", "stimulus": "<p id=\"stim\">4</p>", "internal_node_id": "0.0-10.0-6.0", "time_elapsed": 215467, "key_press": -1, "trial_index": 16}, "uniqueid": "MTK2556:3Y5140Z9DYNIBG6CU930H0L92IEPIW", "dateTime": 1519063900999}, {"current_trial": 17, "trialdata": {"rt": -1, "trial_type": "single-stim", "stimulus": "<p id=\"stim\">3</p>", "internal_node_id": "0.0-10.0-7.0", "time_elapsed": 216471, "key_press": -1, "trial_index": 17}, "uniqueid": "MTK2556:3Y5140Z9DYNIBG6CU930H0L92IEPIW", "dateTime": 1519063902003}, {"current_trial": 18, "trialdata": {"rt": -1, "trial_type": "single-stim", "stimulus": "<p id=\"stim\">2</p>", "internal_node_id": "0.0-10.0-8.0", "time_elapsed": 217474, "key_press": -1, "trial_index": 18}, "uniqueid": "MTK2556:3Y5140Z9DYNIBG6CU930H0L92IEPIW", "dateTime": 1519063903006}, {"current_trial": 19, "trialdata": {"rt": -1, "trial_type": "single-stim", "stimulus": "<p id=\"stim\">1</p>", "internal_node_id": "0.0-10.0-9.0", "time_elapsed": 218477, "key_press": -1, "trial_index": 19}, "uniqueid": "MTK2556:3Y5140Z9DYNIBG6CU930H0L92IEPIW", "dateTime": 1519063904010}, {"current_trial": 20, "trialdata": {"rt": -1, "trial_type": "single-stim", "stimulus": "<p id=\"stim\">+</p>", "internal_node_id": "0.0-11.0-0.0", "time_elapsed": 219980, "key_press": -1, "type": "FIXATION", "trial_index": 20}, "uniqueid": "MTK2556:3Y5140Z9DYNIBG6CU930H0L92IEPIW", "dateTime": 1519063905512}, {"current_trial": 21, "trialdata": {"rt": -1, "trial_type": "single-stim", "word": "church", "stimulus": "<p id=\"stim\">CHURCH</p>", "conditions": [18, 1200, "v", 18000], "internal_node_id": "0.0-12.0", "trial": 0, "time_elapsed": 221184, "serialpos": 0, "key_press": -1, "wordID": 306, "type": "PRES_VIS", "trial_index": 21}, "uniqueid": "MTK2556:3Y5140Z9DYNIBG6CU930H0L92IEPIW", "dateTime": 1519063906716}, {"current_trial": 22, "trialdata": {"rt": -1, "trial_type": "single-stim", "word": "stamp", "stimulus": "<p id=\"stim\">STAMP</p>", "conditions": [18, 1200, "v", 18000], "internal_node_id": "0.0-13.0", "trial": 0, "time_elapsed": 223359, "serialpos": 1, "key_press": -1, "wordID": 1369, "type": "PRES_VIS", "trial_index": 22}, "uniqueid": "MTK2556:3Y5140Z9DYNIBG6CU930H0L92IEPIW", "dateTime": 1519063908892}, {"current_trial": 23, "trialdata": {"rt": -1, "trial_type": "single-stim", "word": "agent", "stimulus": "<p id=\"stim\">AGENT</p>", "conditions": [18, 1200, "v", 18000], "internal_node_id": "0.0-14.0", "trial": 0, "time_elapsed": 225558, "serialpos": 2, "key_press": -1, "wordID": 9, "type": "PRES_VIS", "trial_index": 23}, "uniqueid": "MTK2556:3Y5140Z9DYNIBG6CU930H0L92IEPIW", "dateTime": 1519063911090}, {"current_trial": 24, "trialdata": {"rt": -1, "trial_type": "single-stim", "word": "hostess", "stimulus": "<p id=\"stim\">HOSTESS</p>", "conditions": [18, 1200, "v", 18000], "internal_node_id": "0.0-15.0", "trial": 0, "time_elapsed": 227936, "serialpos": 3, "key_press": -1, "wordID": 722, "type": "PRES_VIS", "trial_index": 24}, "uniqueid": "MTK2556:3Y5140Z9DYNIBG6CU930H0L92IEPIW", "dateTime": 1519063913468}, {"current_trial": 25, "trialdata": {"rt": -1, "trial_type": "single-stim", "word": "judge", "stimulus": "<p id=\"stim\">JUDGE</p>", "conditions": [18, 1200, "v", 18000], "internal_node_id": "0.0-16.0", "trial": 0, "time_elapsed": 229970, "serialpos": 4, "key_press": -1, "wordID": 760, "type": "PRES_VIS", "trial_index": 25}, "uniqueid": "MTK2556:3Y5140Z9DYNIBG6CU930H0L92IEPIW", "dateTime": 1519063915502}, {"current_trial": 26, "trialdata": {"rt": -1, "trial_type": "single-stim", "word": "hero", "stimulus": "<p id=\"stim\">HERO</p>", "conditions": [18, 1200, "v", 18000], "internal_node_id": "0.0-17.0", "trial": 0, "time_elapsed": 232276, "serialpos": 5, "key_press": -1, "wordID": 705, "type": "PRES_VIS", "trial_index": 26}, "uniqueid": "MTK2556:3Y5140Z9DYNIBG6CU930H0L92IEPIW", "dateTime": 1519063917808}, {"current_trial": 27, "trialdata": {"rt": -1, "trial_type": "single-stim", "word": "lettuce", "stimulus": "<p id=\"stim\">LETTUCE</p>", "conditions": [18, 1200, "v", 18000], "internal_node_id": "0.0-18.0", "trial": 0, "time_elapsed": 234281, "serialpos": 6, "key_press": -1, "wordID": 813, "type": "PRES_VIS", "trial_index": 27}, "uniqueid": "MTK2556:3Y5140Z9DYNIBG6CU930H0L92IEPIW", "dateTime": 1519063919813}, {"current_trial": 28, "trialdata": {"rt": -1, "trial_type": "single-stim", "word": "drawing", "stimulus": "<p id=\"stim\">DRAWING</p>", "conditions": [18, 1200, "v", 18000], "internal_node_id": "0.0-19.0", "trial": 0, "time_elapsed": 236440, "serialpos": 7, "key_press": -1, "wordID": 493, "type": "PRES_VIS", "trial_index": 28}, "uniqueid": "MTK2556:3Y5140Z9DYNIBG6CU930H0L92IEPIW", "dateTime": 1519063921973}, {"current_trial": 29, "trialdata": {"rt": -1, "trial_type": "single-stim", "word": "pistol", "stimulus": "<p id=\"stim\">PISTOL</p>", "conditions": [18, 1200, "v", 18000], "internal_node_id": "0.0-20.0", "trial": 0, "time_elapsed": 238581, "serialpos": 8, "key_press": -1, "wordID": 1074, "type": "PRES_VIS", "trial_index": 29}, "uniqueid": "MTK2556:3Y5140Z9DYNIBG6CU930H0L92IEPIW", "dateTime": 1519063924113}, {"current_trial": 30, "trialdata": {"rt": -1, "trial_type": "single-stim", "word": "drill", "stimulus": "<p id=\"stim\">DRILL</p>", "conditions": [18, 1200, "v", 18000], "internal_node_id": "0.0-21.0", "trial": 0, "time_elapsed": 240673, "serialpos": 9, "key_press": -1, "wordID": 496, "type": "PRES_VIS", "trial_index": 30}, "uniqueid": "MTK2556:3Y5140Z9DYNIBG6CU930H0L92IEPIW", "dateTime": 1519063926205}, {"current_trial": 31, "trialdata": {"rt": -1, "trial_type": "single-stim", "word": "mailman", "stimulus": "<p id=\"stim\">MAILMAN</p>", "conditions": [18, 1200, "v", 18000], "internal_node_id": "0.0-22.0", "trial": 0, "time_elapsed": 242800, "serialpos": 10, "key_press": -1, "wordID": 857, "type": "PRES_VIS", "trial_index": 31}, "uniqueid": "MTK2556:3Y5140Z9DYNIBG6CU930H0L92IEPIW", "dateTime": 1519063928332}, {"current_trial": 32, "trialdata": {"rt": -1, "trial_type": "single-stim", "word": "picture", "stimulus": "<p id=\"stim\">PICTURE</p>", "conditions": [18, 1200, "v", 18000], "internal_node_id": "0.0-23.0", "trial": 0, "time_elapsed": 245060, "serialpos": 11, "key_press": -1, "wordID": 1060, "type": "PRES_VIS", "trial_index": 32}, "uniqueid": "MTK2556:3Y5140Z9DYNIBG6CU930H0L92IEPIW", "dateTime": 1519063930592}, {"current_trial": 33, "trialdata": {"rt": -1, "trial_type": "single-stim", "word": "diner", "stimulus": "<p id=\"stim\">DINER</p>", "conditions": [18, 1200, "v", 18000], "internal_node_id": "0.0-24.0", "trial": 0, "time_elapsed": 247336, "serialpos": 12, "key_press": -1, "wordID": 466, "type": "PRES_VIS", "trial_index": 33}, "uniqueid": "MTK2556:3Y5140Z9DYNIBG6CU930H0L92IEPIW", "dateTime": 1519063932868}, {"current_trial": 34, "trialdata": {"rt": -1, "trial_type": "single-stim", "word": "message", "stimulus": "<p id=\"stim\">MESSAGE</p>", "conditions": [18, 1200, "v", 18000], "internal_node_id": "0.0-25.0", "trial": 0, "time_elapsed": 249340, "serialpos": 13, "key_press": -1, "wordID": 887, "type": "PRES_VIS", "trial_index": 34}, "uniqueid": "MTK2556:3Y5140Z9DYNIBG6CU930H0L92IEPIW", "dateTime": 1519063934872}, {"current_trial": 35, "trialdata": {"rt": -1, "trial_type": "single-stim", "word": "box", "stimulus": "<p id=\"stim\">BOX</p>", "conditions": [18, 1200, "v", 18000], "internal_node_id": "0.0-26.0", "trial": 0, "time_elapsed": 251629, "serialpos": 14, "key_press": -1, "wordID": 158, "type": "PRES_VIS", "trial_index": 35}, "uniqueid": "MTK2556:3Y5140Z9DYNIBG6CU930H0L92IEPIW", "dateTime": 1519063937161}, {"current_trial": 36, "trialdata": {"rt": -1, "trial_type": "single-stim", "word": "seagull", "stimulus": "<p id=\"stim\">SEAGULL</p>", "conditions": [18, 1200, "v", 18000], "internal_node_id": "0.0-27.0", "trial": 0, "time_elapsed": 253922, "serialpos": 15, "key_press": -1, "wordID": 1260, "type": "PRES_VIS", "trial_index": 36}, "uniqueid": "MTK2556:3Y5140Z9DYNIBG6CU930H0L92IEPIW", "dateTime": 1519063939454}, {"current_trial": 37, "trialdata": {"rt": -1, "trial_type": "single-stim", "word": "salad", "stimulus": "<p id=\"stim\">SALAD</p>", "conditions": [18, 1200, "v", 18000], "internal_node_id": "0.0-28.0", "trial": 0, "time_elapsed": 256197, "serialpos": 16, "key_press": -1, "wordID": 1223, "type": "PRES_VIS", "trial_index": 37}, "uniqueid": "MTK2556:3Y5140Z9DYNIBG6CU930H0L92IEPIW", "dateTime": 1519063941729}, {"current_trial": 38, "trialdata": {"rt": -1, "trial_type": "single-stim", "word": "cookbook", "stimulus": "<p id=\"stim\">COOKBOOK</p>", "conditions": [18, 1200, "v", 18000], "internal_node_id": "0.0-29.0", "trial": 0, "time_elapsed": 258589, "serialpos": 17, "key_press": -1, "wordID": 372, "type": "PRES_VIS", "trial_index": 38}, "uniqueid": "MTK2556:3Y5140Z9DYNIBG6CU930H0L92IEPIW", "dateTime": 1519063944121}, {"current_trial": 39, "trialdata": {"rt": -1, "trial_type": "single-stim", "stimulus": "", "internal_node_id": "0.0-30.0-0.0", "time_elapsed": 260897, "key_press": -1, "type": "PRE_RECALL_DELAY", "trial_index": 39}, "uniqueid": "MTK2556:3Y5140Z9DYNIBG6CU930H0L92IEPIW", "dateTime": 1519063946429}, {"current_trial": 40, "trialdata": {"rt": -1000, "trial_type": "single-audio", "stimulus": "/static/audio/400Hz.wav", "internal_node_id": "0.0-31.0", "time_elapsed": 261400, "key_press": -1, "type": "PRE_RECALL_ALERT", "trial_index": 40}, "uniqueid": "MTK2556:3Y5140Z9DYNIBG6CU930H0L92IEPIW", "dateTime": 1519063946932}, {"current_trial": 41, "trialdata": {"rt": [5227, 8886, 10411, 11953, 16971, 19199, 22223, 27778], "recwords": ["diner", "hostess", "salad", "box", "church", "pistol", "mailman", "seagull"], "key_times": [1680, 1853, 2008, 2318, 2765, 2901, 3684, 3868, 4102, 4861, 5021, 5227, 5986, 6219, 6378, 6755, 7043, 7324, 7470, 8886, 9257, 9468, 9587, 9735, 9985, 10411, 11059, 11334, 11525, 11953, 13523, 14369, 15065, 15562, 15915, 16077, 16394, 16528, 16971, 17429, 18234, 18316, 18597, 18684, 18928, 19199, 19574, 19792, 19909, 20181, 20444, 20559, 20958, 22223, 25615, 25921, 26179, 26842, 27098, 27384, 27542, 27778], "trial_type": "free-recall", "conditions": [18, 1200, "v", 18000], "internal_node_id": "0.0-32.0-0.0", "key_presses": [16, 68, 73, 78, 8, 8, 20, 73, 78, 69, 82, 13, 72, 79, 83, 84, 69, 83, 83, 13, 83, 65, 76, 65, 68, 13, 66, 79, 88, 13, 67, 72, 73, 8, 85, 82, 67, 72, 13, 80, 73, 83, 84, 79, 76, 13, 77, 65, 73, 76, 77, 65, 78, 13, 83, 69, 65, 71, 85, 76, 76, 13], "trial": 0, "time_elapsed": 321404, "type": "FREE_RECALL", "trial_index": 41}, "uniqueid": "MTK2556:3Y5140Z9DYNIBG6CU930H0L92IEPIW", "dateTime": 1519064006938}, {"current_trial": 42, "trialdata": {"rt": 2784, "trial_type": "text", "internal_node_id": "0.0-33.0", "time_elapsed": 326192, "key_press": 74, "type": "INSTRUCTIONS", "trial_index": 42}, "uniqueid": "MTK2556:3Y5140Z9DYNIBG6CU930H0L92IEPIW", "dateTime": 1519064011724}, {"current_trial": 43, "trialdata": {"rt": [4188, 8675, 14582], "trial_type": "math-distractor", "key_times": [3578, 3978, 4188, 8230, 8504, 8675, 13867, 14342, 14582], "responses": ["15", "14", "16"], "num2": [3, 1, 7, 7], "num3": [6, 8, 5, 3], "conditions": [18, 1200, "v", 18000], "internal_node_id": "0.0-34.0", "key_presses": [49, 53, 13, 49, 52, 13, 49, 54, 13], "trial": 1, "time_elapsed": 346200, "type": "DISTRACTOR", "trial_index": 43, "num1": [6, 5, 4, 5]}, "uniqueid": "MTK2556:3Y5140Z9DYNIBG6CU930H0L92IEPIW", "dateTime": 1519064031732}, {"current_trial": 44, "trialdata": {"rt": -1, "trial_type": "single-stim", "stimulus": "<p id=\"stim\">10</p>", "internal_node_id": "0.0-35.0-0.0", "time_elapsed": 349202, "key_press": -1, "trial_index": 44}, "uniqueid": "MTK2556:3Y5140Z9DYNIBG6CU930H0L92IEPIW", "dateTime": 1519064034734}, {"current_trial": 45, "trialdata": {"rt": -1, "trial_type": "single-stim", "stimulus": "<p id=\"stim\">9</p>", "internal_node_id": "0.0-35.0-1.0", "time_elapsed": 350206, "key_press": -1, "trial_index": 45}, "uniqueid": "MTK2556:3Y5140Z9DYNIBG6CU930H0L92IEPIW", "dateTime": 1519064035738}, {"current_trial": 46, "trialdata": {"rt": -1, "trial_type": "single-stim", "stimulus": "<p id=\"stim\">8</p>", "internal_node_id": "0.0-35.0-2.0", "time_elapsed": 351209, "key_press": -1, "trial_index": 46}, "uniqueid": "MTK2556:3Y5140Z9DYNIBG6CU930H0L92IEPIW", "dateTime": 1519064036741}, {"current_trial": 47, "trialdata": {"rt": -1, "trial_type": "single-stim", "stimulus": "<p id=\"stim\">7</p>", "internal_node_id": "0.0-35.0-3.0", "time_elapsed": 352212, "key_press": -1, "trial_index": 47}, "uniqueid": "MTK2556:3Y5140Z9DYNIBG6CU930H0L92IEPIW", "dateTime": 1519064037744}, {"current_trial": 48, "trialdata": {"rt": -1, "trial_type": "single-stim", "stimulus": "<p id=\"stim\">6</p>", "internal_node_id": "0.0-35.0-4.0", "time_elapsed": 353214, "key_press": -1, "trial_index": 48}, "uniqueid": "MTK2556:3Y5140Z9DYNIBG6CU930H0L92IEPIW", "dateTime": 1519064038746}, {"current_trial": 49, "trialdata": {"rt": -1, "trial_type": "single-stim", "stimulus": "<p id=\"stim\">5</p>", "internal_node_id": "0.0-35.0-5.0", "time_elapsed": 354218, "key_press": -1, "trial_index": 49}, "uniqueid": "MTK2556:3Y5140Z9DYNIBG6CU930H0L92IEPIW", "dateTime": 1519064039750}, {"current_trial": 50, "trialdata": {"rt": -1, "trial_type": "single-stim", "stimulus": "<p id=\"stim\">4</p>", "internal_node_id": "0.0-35.0-6.0", "time_elapsed": 355222, "key_press": -1, "trial_index": 50}, "uniqueid": "MTK2556:3Y5140Z9DYNIBG6CU930H0L92IEPIW", "dateTime": 1519064040754}, {"current_trial": 51, "trialdata": {"rt": -1, "trial_type": "single-stim", "stimulus": "<p id=\"stim\">3</p>", "internal_node_id": "0.0-35.0-7.0", "time_elapsed": 356226, "key_press": -1, "trial_index": 51}, "uniqueid": "MTK2556:3Y5140Z9DYNIBG6CU930H0L92IEPIW", "dateTime": 1519064041758}, {"current_trial": 52, "trialdata": {"rt": -1, "trial_type": "single-stim", "stimulus": "<p id=\"stim\">2</p>", "internal_node_id": "0.0-35.0-8.0", "time_elapsed": 357230, "key_press": -1, "trial_index": 52}, "uniqueid": "MTK2556:3Y5140Z9DYNIBG6CU930H0L92IEPIW", "dateTime": 1519064042762}, {"current_trial": 53, "trialdata": {"rt": -1, "trial_type": "single-stim", "stimulus": "<p id=\"stim\">1</p>", "internal_node_id": "0.0-35.0-9.0", "time_elapsed": 358234, "key_press": -1, "trial_index": 53}, "uniqueid": "MTK2556:3Y5140Z9DYNIBG6CU930H0L92IEPIW", "dateTime": 1519064043766}, {"current_trial": 54, "trialdata": {"rt": -1, "trial_type": "single-stim", "stimulus": "<p id=\"stim\">+</p>", "internal_node_id": "0.0-36.0-0.0", "time_elapsed": 359736, "key_press": -1, "type": "FIXATION", "trial_index": 54}, "uniqueid": "MTK2556:3Y5140Z9DYNIBG6CU930H0L92IEPIW", "dateTime": 1519064045268}, {"current_trial": 55, "trialdata": {"rt": -1, "trial_type": "single-stim", "word": "atom", "stimulus": "<p id=\"stim\">ATOM</p>", "conditions": [18, 1200, "v", 18000], "internal_node_id": "0.0-37.0", "trial": 1, "time_elapsed": 360940, "serialpos": 0, "key_press": -1, "wordID": 54, "type": "PRES_VIS", "trial_index": 55}, "uniqueid": "MTK2556:3Y5140Z9DYNIBG6CU930H0L92IEPIW", "dateTime": 1519064046472}, {"current_trial": 56, "trialdata": {"rt": -1, "trial_type": "single-stim", "word": "eagle", "stimulus": "<p id=\"stim\">EAGLE</p>", "conditions": [18, 1200, "v", 18000], "internal_node_id": "0.0-38.0", "trial": 1, "time_elapsed": 362983, "serialpos": 1, "key_press": -1, "wordID": 511, "type": "PRES_VIS", "trial_index": 56}, "uniqueid": "MTK2556:3Y5140Z9DYNIBG6CU930H0L92IEPIW", "dateTime": 1519064048515}, {"current_trial": 57, "trialdata": {"rt": -1, "trial_type": "single-stim", "word": "portrait", "stimulus": "<p id=\"stim\">PORTRAIT</p>", "conditions": [18, 1200, "v", 18000], "internal_node_id": "0.0-39.0", "trial": 1, "time_elapsed": 365166, "serialpos": 2, "key_press": -1, "wordID": 1110, "type": "PRES_VIS", "trial_index": 57}, "uniqueid": "MTK2556:3Y5140Z9DYNIBG6CU930H0L92IEPIW", "dateTime": 1519064050698}, {"current_trial": 58, "trialdata": {"rt": -1, "trial_type": "single-stim", "word": "flashlight", "stimulus": "<p id=\"stim\">FLASHLIGHT</p>", "conditions": [18, 1200, "v", 18000], "internal_node_id": "0.0-40.0", "trial": 1, "time_elapsed": 367177, "serialpos": 3, "key_press": -1, "wordID": 574, "type": "PRES_VIS", "trial_index": 58}, "uniqueid": "MTK2556:3Y5140Z9DYNIBG6CU930H0L92IEPIW", "dateTime": 1519064052709}, {"current_trial": 59, "trialdata": {"rt": -1, "trial_type": "single-stim", "word": "europe", "stimulus": "<p id=\"stim\">EUROPE</p>", "conditions": [18, 1200, "v", 18000], "internal_node_id": "0.0-41.0", "trial": 1, "time_elapsed": 369496, "serialpos": 4, "key_press": -1, "wordID": 540, "type": "PRES_VIS", "trial_index": 59}, "uniqueid": "MTK2556:3Y5140Z9DYNIBG6CU930H0L92IEPIW", "dateTime": 1519064055028}, {"current_trial": 60, "trialdata": {"rt": -1, "trial_type": "single-stim", "word": "elbow", "stimulus": "<p id=\"stim\">ELBOW</p>", "conditions": [18, 1200, "v", 18000], "internal_node_id": "0.0-42.0", "trial": 1, "time_elapsed": 371672, "serialpos": 5, "key_press": -1, "wordID": 519, "type": "PRES_VIS", "trial_index": 60}, "uniqueid": "MTK2556:3Y5140Z9DYNIBG6CU930H0L92IEPIW", "dateTime": 1519064057204}, {"current_trial": 61, "trialdata": {"rt": -1, "trial_type": "single-stim", "word": "mammal", "stimulus": "<p id=\"stim\">MAMMAL</p>", "conditions": [18, 1200, "v", 18000], "internal_node_id": "0.0-43.0", "trial": 1, "time_elapsed": 373847, "serialpos": 6, "key_press": -1, "wordID": 860, "type": "PRES_VIS", "trial_index": 61}, "uniqueid": "MTK2556:3Y5140Z9DYNIBG6CU930H0L92IEPIW", "dateTime": 1519064059379}, {"current_trial": 62, "trialdata": {"rt": -1, "trial_type": "single-stim", "word": "football", "stimulus": "<p id=\"stim\">FOOTBALL</p>", "conditions": [18, 1200, "v", 18000], "internal_node_id": "0.0-44.0", "trial": 1, "time_elapsed": 376124, "serialpos": 7, "key_press": -1, "wordID": 590, "type": "PRES_VIS", "trial_index": 62}, "uniqueid": "MTK2556:3Y5140Z9DYNIBG6CU930H0L92IEPIW", "dateTime": 1519064061656}, {"current_trial": 63, "trialdata": {"rt": -1, "trial_type": "single-stim", "word": "tablet", "stimulus": "<p id=\"stim\">TABLET</p>", "conditions": [18, 1200, "v", 18000], "internal_node_id": "0.0-45.0", "trial": 1, "time_elapsed": 378444, "serialpos": 8, "key_press": -1, "wordID": 1426, "type": "PRES_VIS", "trial_index": 63}, "uniqueid": "MTK2556:3Y5140Z9DYNIBG6CU930H0L92IEPIW", "dateTime": 1519064063976}, {"current_trial": 64, "trialdata": {"rt": -1, "trial_type": "single-stim", "word": "ketchup", "stimulus": "<p id=\"stim\">KETCHUP</p>", "conditions": [18, 1200, "v", 18000], "internal_node_id": "0.0-46.0", "trial": 1, "time_elapsed": 380609, "serialpos": 9, "key_press": -1, "wordID": 770, "type": "PRES_VIS", "trial_index": 64}, "uniqueid": "MTK2556:3Y5140Z9DYNIBG6CU930H0L92IEPIW", "dateTime": 1519064066141}, {"current_trial": 65, "trialdata": {"rt": -1, "trial_type": "single-stim", "word": "nightgown", "stimulus": "<p id=\"stim\">NIGHTGOWN</p>", "conditions": [18, 1200, "v", 18000], "internal_node_id": "0.0-47.0", "trial": 1, "time_elapsed": 382802, "serialpos": 10, "key_press": -1, "wordID": 952, "type": "PRES_VIS", "trial_index": 65}, "uniqueid": "MTK2556:3Y5140Z9DYNIBG6CU930H0L92IEPIW", "dateTime": 1519064068335}, {"current_trial": 66, "trialdata": {"rt": -1, "trial_type": "single-stim", "word": "grill", "stimulus": "<p id=\"stim\">GRILL</p>", "conditions": [18, 1200, "v", 18000], "internal_node_id": "0.0-48.0", "trial": 1, "time_elapsed": 384916, "serialpos": 11, "key_press": -1, "wordID": 660, "type": "PRES_VIS", "trial_index": 66}, "uniqueid": "MTK2556:3Y5140Z9DYNIBG6CU930H0L92IEPIW", "dateTime": 1519064070448}, {"current_trial": 67, "trialdata": {"rt": -1, "trial_type": "single-stim", "word": "mailbox", "stimulus": "<p id=\"stim\">MAILBOX</p>", "conditions": [18, 1200, "v", 18000], "internal_node_id": "0.0-49.0", "trial": 1, "time_elapsed": 386973, "serialpos": 12, "key_press": -1, "wordID": 856, "type": "PRES_VIS", "trial_index": 67}, "uniqueid": "MTK2556:3Y5140Z9DYNIBG6CU930H0L92IEPIW", "dateTime": 1519064072505}, {"current_trial": 68, "trialdata": {"rt": -1, "trial_type": "single-stim", "word": "kitchen", "stimulus": "<p id=\"stim\">KITCHEN</p>", "conditions": [18, 1200, "v", 18000], "internal_node_id": "0.0-50.0", "trial": 1, "time_elapsed": 388985, "serialpos": 13, "key_press": -1, "wordID": 777, "type": "PRES_VIS", "trial_index": 68}, "uniqueid": "MTK2556:3Y5140Z9DYNIBG6CU930H0L92IEPIW", "dateTime": 1519064074519}, {"current_trial": 69, "trialdata": {"rt": -1, "trial_type": "single-stim", "word": "toaster", "stimulus": "<p id=\"stim\">TOASTER</p>", "conditions": [18, 1200, "v", 18000], "internal_node_id": "0.0-51.0", "trial": 1, "time_elapsed": 391031, "serialpos": 14, "key_press": -1, "wordID": 1471, "type": "PRES_VIS", "trial_index": 69}, "uniqueid": "MTK2556:3Y5140Z9DYNIBG6CU930H0L92IEPIW", "dateTime": 1519064076563}, {"current_trial": 70, "trialdata": {"rt": -1, "trial_type": "single-stim", "word": "mildew", "stimulus": "<p id=\"stim\">MILDEW</p>", "conditions": [18, 1200, "v", 18000], "internal_node_id": "0.0-52.0", "trial": 1, "time_elapsed": 393218, "serialpos": 15, "key_press": -1, "wordID": 892, "type": "PRES_VIS", "trial_index": 70}, "uniqueid": "MTK2556:3Y5140Z9DYNIBG6CU930H0L92IEPIW", "dateTime": 1519064078750}, {"current_trial": 71, "trialdata": {"rt": -1, "trial_type": "single-stim", "word": "cottage", "stimulus": "<p id=\"stim\">COTTAGE</p>", "conditions": [18, 1200, "v", 18000], "internal_node_id": "0.0-53.0", "trial": 1, "time_elapsed": 395230, "serialpos": 16, "key_press": -1, "wordID": 383, "type": "PRES_VIS", "trial_index": 71}, "uniqueid": "MTK2556:3Y5140Z9DYNIBG6CU930H0L92IEPIW", "dateTime": 1519064080762}, {"current_trial": 72, "trialdata": {"rt": -1, "trial_type": "single-stim", "word": "cashier", "stimulus": "<p id=\"stim\">CASHIER</p>", "conditions": [18, 1200, "v", 18000], "internal_node_id": "0.0-54.0", "trial": 1, "time_elapsed": 397378, "serialpos": 17, "key_press": -1, "wordID": 253, "type": "PRES_VIS", "trial_index": 72}, "uniqueid": "MTK2556:3Y5140Z9DYNIBG6CU930H0L92IEPIW", "dateTime": 1519064082910}, {"current_trial": 73, "trialdata": {"rt": -1, "trial_type": "single-stim", "stimulus": "", "internal_node_id": "0.0-55.0-0.0", "time_elapsed": 399785, "key_press": -1, "type": "PRE_RECALL_DELAY", "trial_index": 73}, "uniqueid": "MTK2556:3Y5140Z9DYNIBG6CU930H0L92IEPIW", "dateTime": 1519064085317}, {"current_trial": 74, "trialdata": {"rt": -1000, "trial_type": "single-audio", "stimulus": "/static/audio/400Hz.wav", "internal_node_id": "0.0-56.0", "time_elapsed": 400293, "key_press": -1, "type": "PRE_RECALL_ALERT", "trial_index": 74}, "uniqueid": "MTK2556:3Y5140Z9DYNIBG6CU930H0L92IEPIW", "dateTime": 1519064085825}, {"current_trial": 75, "trialdata": {"rt": [3400, 5578, 8603, 15654, 19388, 23786, 41701], "recwords": ["atom", "eagle", "mildew", "nightgown", "ketchup", "mammal", "mailbox"], "key_times": [1921, 2293, 2605, 2895, 3400, 4210, 4516, 4666, 5020, 5156, 5578, 6626, 6864, 7095, 7425, 7836, 8053, 8603, 9334, 10166, 10436, 10669, 11175, 11386, 11590, 11695, 12684, 13012, 13095, 13270, 13479, 15654, 16308, 16591, 16862, 17149, 17240, 18359, 18612, 19388, 22580, 22767, 22899, 23054, 23214, 23289, 23786, 39587, 39739, 39869, 40176, 40790, 41056, 41259, 41701], "trial_type": "free-recall", "conditions": [18, 1200, "v", 18000], "internal_node_id": "0.0-57.0-0.0", "key_presses": [65, 84, 79, 77, 13, 69, 65, 71, 76, 69, 13, 77, 73, 76, 68, 69, 87, 13, 75, 8, 78, 79, 8, 73, 71, 72, 84, 71, 79, 87, 78, 13, 75, 69, 84, 67, 72, 85, 80, 13, 77, 65, 77, 77, 65, 76, 13, 77, 65, 73, 76, 66, 79, 88, 13], "trial": 1, "time_elapsed": 460297, "type": "FREE_RECALL", "trial_index": 75}, "uniqueid": "MTK2556:3Y5140Z9DYNIBG6CU930H0L92IEPIW", "dateTime": 1519064145831}, {"current_trial": 76, "trialdata": {"rt": 148048, "trial_type": "text", "internal_node_id": "0.0-58.0", "time_elapsed": 610349, "key_press": 32, "type": "INSTRUCTIONS", "trial_index": 76}, "uniqueid": "MTK2556:3Y5140Z9DYNIBG6CU930H0L92IEPIW", "dateTime": 1519064295881}, {"current_trial": 77, "trialdata": {"rt": [3358, 7279, 13256, 15548, 19267, 21504, 23671], "trial_type": "math-distractor", "key_times": [2840, 3202, 3358, 6892, 6996, 7279, 12940, 13138, 13256, 14899, 15402, 15548, 18762, 19162, 19267, 21249, 21390, 21504, 23310, 23566, 23671], "responses": ["14", "20", "23", "18", "16", "11", "13"], "num2": [9, 8, 6, 8, 5, 6, 1, 2], "num3": [2, 4, 9, 5, 9, 4, 9, 3], "conditions": [24, 1600, "v", 24000], "internal_node_id": "0.0-59.0", "key_presses": [49, 52, 13, 50, 48, 13, 50, 51, 13, 49, 56, 13, 49, 54, 13, 49, 49, 13, 49, 51, 13], "trial": 2, "time_elapsed": 635352, "type": "DISTRACTOR", "trial_index": 77, "num1": [3, 8, 8, 5, 2, 1, 3, 4]}, "uniqueid": "MTK2556:3Y5140Z9DYNIBG6CU930H0L92IEPIW", "dateTime": 1519064320884}, {"current_trial": 78, "trialdata": {"rt": -1, "trial_type": "single-stim", "stimulus": "<p id=\"stim\">10</p>", "internal_node_id": "0.0-60.0-0.0", "time_elapsed": 638353, "key_press": -1, "trial_index": 78}, "uniqueid": "MTK2556:3Y5140Z9DYNIBG6CU930H0L92IEPIW", "dateTime": 1519064323885}, {"current_trial": 79, "trialdata": {"rt": -1, "trial_type": "single-stim", "stimulus": "<p id=\"stim\">9</p>", "internal_node_id": "0.0-60.0-1.0", "time_elapsed": 639355, "key_press": -1, "trial_index": 79}, "uniqueid": "MTK2556:3Y5140Z9DYNIBG6CU930H0L92IEPIW", "dateTime": 1519064324887}, {"current_trial": 80, "trialdata": {"rt": -1, "trial_type": "single-stim", "stimulus": "<p id=\"stim\">8</p>", "internal_node_id": "0.0-60.0-2.0", "time_elapsed": 640356, "key_press": -1, "trial_index": 80}, "uniqueid": "MTK2556:3Y5140Z9DYNIBG6CU930H0L92IEPIW", "dateTime": 1519064325888}, {"current_trial": 81, "trialdata": {"rt": -1, "trial_type": "single-stim", "stimulus": "<p id=\"stim\">7</p>", "internal_node_id": "0.0-60.0-3.0", "time_elapsed": 641358, "key_press": -1, "trial_index": 81}, "uniqueid": "MTK2556:3Y5140Z9DYNIBG6CU930H0L92IEPIW", "dateTime": 1519064326890}, {"current_trial": 82, "trialdata": {"rt": -1, "trial_type": "single-stim", "stimulus": "<p id=\"stim\">6</p>", "internal_node_id": "0.0-60.0-4.0", "time_elapsed": 642359, "key_press": -1, "trial_index": 82}, "uniqueid": "MTK2556:3Y5140Z9DYNIBG6CU930H0L92IEPIW", "dateTime": 1519064327891}, {"current_trial": 83, "trialdata": {"rt": -1, "trial_type": "single-stim", "stimulus": "<p id=\"stim\">5</p>", "internal_node_id": "0.0-60.0-5.0", "time_elapsed": 643360, "key_press": -1, "trial_index": 83}, "uniqueid": "MTK2556:3Y5140Z9DYNIBG6CU930H0L92IEPIW", "dateTime": 1519064328892}, {"current_trial": 84, "trialdata": {"rt": -1, "trial_type": "single-stim", "stimulus": "<p id=\"stim\">4</p>", "internal_node_id": "0.0-60.0-6.0", "time_elapsed": 644361, "key_press": -1, "trial_index": 84}, "uniqueid": "MTK2556:3Y5140Z9DYNIBG6CU930H0L92IEPIW", "dateTime": 1519064329893}, {"current_trial": 85, "trialdata": {"rt": -1, "trial_type": "single-stim", "stimulus": "<p id=\"stim\">3</p>", "internal_node_id": "0.0-60.0-7.0", "time_elapsed": 645362, "key_press": -1, "trial_index": 85}, "uniqueid": "MTK2556:3Y5140Z9DYNIBG6CU930H0L92IEPIW", "dateTime": 1519064330894}, {"current_trial": 86, "trialdata": {"rt": -1, "trial_type": "single-stim", "stimulus": "<p id=\"stim\">2</p>", "internal_node_id": "0.0-60.0-8.0", "time_elapsed": 646364, "key_press": -1, "trial_index": 86}, "uniqueid": "MTK2556:3Y5140Z9DYNIBG6CU930H0L92IEPIW", "dateTime": 1519064331896}, {"current_trial": 87, "trialdata": {"rt": -1, "trial_type": "single-stim", "stimulus": "<p id=\"stim\">1</p>", "internal_node_id": "0.0-60.0-9.0", "time_elapsed": 647365, "key_press": -1, "trial_index": 87}, "uniqueid": "MTK2556:3Y5140Z9DYNIBG6CU930H0L92IEPIW", "dateTime": 1519064332897}, {"current_trial": 88, "trialdata": {"rt": -1, "trial_type": "single-stim", "stimulus": "<p id=\"stim\">+</p>", "internal_node_id": "0.0-61.0-0.0", "time_elapsed": 648866, "key_press": -1, "type": "FIXATION", "trial_index": 88}, "uniqueid": "MTK2556:3Y5140Z9DYNIBG6CU930H0L92IEPIW", "dateTime": 1519064334398}, {"current_trial": 89, "trialdata": {"rt": -1, "trial_type": "single-stim", "word": "ankle", "stimulus": "<p id=\"stim\">ANKLE</p>", "conditions": [24, 1600, "v", 24000], "internal_node_id": "0.0-62.0", "trial": 2, "time_elapsed": 650467, "serialpos": 0, "key_press": -1, "wordID": 23, "type": "PRES_VIS", "trial_index": 89}, "uniqueid": "MTK2556:3Y5140Z9DYNIBG6CU930H0L92IEPIW", "dateTime": 1519064335999}, {"current_trial": 90, "trialdata": {"rt": -1, "trial_type": "single-stim", "word": "shoulder", "stimulus": "<p id=\"stim\">SHOULDER</p>", "conditions": [24, 1600, "v", 24000], "internal_node_id": "0.0-63.0", "trial": 2, "time_elapsed": 652924, "serialpos": 1, "key_press": -1, "wordID": 1293, "type": "PRES_VIS", "trial_index": 90}, "uniqueid": "MTK2556:3Y5140Z9DYNIBG6CU930H0L92IEPIW", "dateTime": 1519064338457}, {"current_trial": 91, "trialdata": {"rt": -1, "trial_type": "single-stim", "word": "skirt", "stimulus": "<p id=\"stim\">SKIRT</p>", "conditions": [24, 1600, "v", 24000], "internal_node_id": "0.0-64.0", "trial": 2, "time_elapsed": 655619, "serialpos": 2, "key_press": -1, "wordID": 1318, "type": "PRES_VIS", "trial_index": 91}, "uniqueid": "MTK2556:3Y5140Z9DYNIBG6CU930H0L92IEPIW", "dateTime": 1519064341151}, {"current_trial": 92, "trialdata": {"rt": -1, "trial_type": "single-stim", "word": "smog", "stimulus": "<p id=\"stim\">SMOG</p>", "conditions": [24, 1600, "v", 24000], "internal_node_id": "0.0-65.0", "trial": 2, "time_elapsed": 658241, "serialpos": 3, "key_press": -1, "wordID": 1329, "type": "PRES_VIS", "trial_index": 92}, "uniqueid": "MTK2556:3Y5140Z9DYNIBG6CU930H0L92IEPIW", "dateTime": 1519064343773}, {"current_trial": 93, "trialdata": {"rt": -1, "trial_type": "single-stim", "word": "orange", "stimulus": "<p id=\"stim\">ORANGE</p>", "conditions": [24, 1600, "v", 24000], "internal_node_id": "0.0-66.0", "trial": 2, "time_elapsed": 660879, "serialpos": 4, "key_press": -1, "wordID": 979, "type": "PRES_VIS", "trial_index": 93}, "uniqueid": "MTK2556:3Y5140Z9DYNIBG6CU930H0L92IEPIW", "dateTime": 1519064346411}, {"current_trial": 94, "trialdata": {"rt": -1, "trial_type": "single-stim", "word": "paddle", "stimulus": "<p id=\"stim\">PADDLE</p>", "conditions": [24, 1600, "v", 24000], "internal_node_id": "0.0-67.0", "trial": 2, "time_elapsed": 663550, "serialpos": 5, "key_press": -1, "wordID": 999, "type": "PRES_VIS", "trial_index": 94}, "uniqueid": "MTK2556:3Y5140Z9DYNIBG6CU930H0L92IEPIW", "dateTime": 1519064349082}, {"current_trial": 95, "trialdata": {"rt": -1, "trial_type": "single-stim", "word": "driver", "stimulus": "<p id=\"stim\">DRIVER</p>", "conditions": [24, 1600, "v", 24000], "internal_node_id": "0.0-68.0", "trial": 2, "time_elapsed": 666207, "serialpos": 6, "key_press": -1, "wordID": 498, "type": "PRES_VIS", "trial_index": 95}, "uniqueid": "MTK2556:3Y5140Z9DYNIBG6CU930H0L92IEPIW", "dateTime": 1519064351740}, {"current_trial": 96, "trialdata": {"rt": -1, "trial_type": "single-stim", "word": "hamper", "stimulus": "<p id=\"stim\">HAMPER</p>", "conditions": [24, 1600, "v", 24000], "internal_node_id": "0.0-69.0", "trial": 2, "time_elapsed": 668951, "serialpos": 7, "key_press": -1, "wordID": 681, "type": "PRES_VIS", "trial_index": 96}, "uniqueid": "MTK2556:3Y5140Z9DYNIBG6CU930H0L92IEPIW", "dateTime": 1519064354483}, {"current_trial": 97, "trialdata": {"rt": -1, "trial_type": "single-stim", "word": "braces", "stimulus": "<p id=\"stim\">BRACES</p>", "conditions": [24, 1600, "v", 24000], "internal_node_id": "0.0-70.0", "trial": 2, "time_elapsed": 671384, "serialpos": 8, "key_press": -1, "wordID": 163, "type": "PRES_VIS", "trial_index": 97}, "uniqueid": "MTK2556:3Y5140Z9DYNIBG6CU930H0L92IEPIW", "dateTime": 1519064356916}, {"current_trial": 98, "trialdata": {"rt": -1, "trial_type": "single-stim", "word": "truck", "stimulus": "<p id=\"stim\">TRUCK</p>", "conditions": [24, 1600, "v", 24000], "internal_node_id": "0.0-71.0", "trial": 2, "time_elapsed": 673940, "serialpos": 9, "key_press": -1, "wordID": 1511, "type": "PRES_VIS", "trial_index": 98}, "uniqueid": "MTK2556:3Y5140Z9DYNIBG6CU930H0L92IEPIW", "dateTime": 1519064359473}, {"current_trial": 99, "trialdata": {"rt": -1, "trial_type": "single-stim", "word": "item", "stimulus": "<p id=\"stim\">ITEM</p>", "conditions": [24, 1600, "v", 24000], "internal_node_id": "0.0-72.0", "trial": 2, "time_elapsed": 676560, "serialpos": 10, "key_press": -1, "wordID": 745, "type": "PRES_VIS", "trial_index": 99}, "uniqueid": "MTK2556:3Y5140Z9DYNIBG6CU930H0L92IEPIW", "dateTime": 1519064362092}, {"current_trial": 100, "trialdata": {"rt": -1, "trial_type": "single-stim", "word": "bullet", "stimulus": "<p id=\"stim\">BULLET</p>", "conditions": [24, 1600, "v", 24000], "internal_node_id": "0.0-73.0", "trial": 2, "time_elapsed": 679309, "serialpos": 11, "key_press": -1, "wordID": 193, "type": "PRES_VIS", "trial_index": 100}, "uniqueid": "MTK2556:3Y5140Z9DYNIBG6CU930H0L92IEPIW", "dateTime": 1519064364841}, {"current_trial": 101, "trialdata": {"rt": -1, "trial_type": "single-stim", "word": "machine", "stimulus": "<p id=\"stim\">MACHINE</p>", "conditions": [24, 1600, "v", 24000], "internal_node_id": "0.0-74.0", "trial": 2, "time_elapsed": 681941, "serialpos": 12, "key_press": -1, "wordID": 851, "type": "PRES_VIS", "trial_index": 101}, "uniqueid": "MTK2556:3Y5140Z9DYNIBG6CU930H0L92IEPIW", "dateTime": 1519064367473}, {"current_trial": 102, "trialdata": {"rt": -1, "trial_type": "single-stim", "word": "palace", "stimulus": "<p id=\"stim\">PALACE</p>", "conditions": [24, 1600, "v", 24000], "internal_node_id": "0.0-75.0", "trial": 2, "time_elapsed": 684530, "serialpos": 13, "key_press": -1, "wordID": 1005, "type": "PRES_VIS", "trial_index": 102}, "uniqueid": "MTK2556:3Y5140Z9DYNIBG6CU930H0L92IEPIW", "dateTime": 1519064370062}, {"current_trial": 103, "trialdata": {"rt": -1, "trial_type": "single-stim", "word": "tractor", "stimulus": "<p id=\"stim\">TRACTOR</p>", "conditions": [24, 1600, "v", 24000], "internal_node_id": "0.0-76.0", "trial": 2, "time_elapsed": 687065, "serialpos": 14, "key_press": -1, "wordID": 1492, "type": "PRES_VIS", "trial_index": 103}, "uniqueid": "MTK2556:3Y5140Z9DYNIBG6CU930H0L92IEPIW", "dateTime": 1519064372597}, {"current_trial": 104, "trialdata": {"rt": -1, "trial_type": "single-stim", "word": "mummy", "stimulus": "<p id=\"stim\">MUMMY</p>", "conditions": [24, 1600, "v", 24000], "internal_node_id": "0.0-77.0", "trial": 2, "time_elapsed": 689744, "serialpos": 15, "key_press": -1, "wordID": 931, "type": "PRES_VIS", "trial_index": 104}, "uniqueid": "MTK2556:3Y5140Z9DYNIBG6CU930H0L92IEPIW", "dateTime": 1519064375276}, {"current_trial": 105, "trialdata": {"rt": -1, "trial_type": "single-stim", "word": "scribble", "stimulus": "<p id=\"stim\">SCRIBBLE</p>", "conditions": [24, 1600, "v", 24000], "internal_node_id": "0.0-78.0", "trial": 2, "time_elapsed": 692205, "serialpos": 16, "key_press": -1, "wordID": 1255, "type": "PRES_VIS", "trial_index": 105}, "uniqueid": "MTK2556:3Y5140Z9DYNIBG6CU930H0L92IEPIW", "dateTime": 1519064377737}, {"current_trial": 106, "trialdata": {"rt": -1, "trial_type": "single-stim", "word": "cod", "stimulus": "<p id=\"stim\">COD</p>", "conditions": [24, 1600, "v", 24000], "internal_node_id": "0.0-79.0", "trial": 2, "time_elapsed": 694843, "serialpos": 17, "key_press": -1, "wordID": 339, "type": "PRES_VIS", "trial_index": 106}, "uniqueid": "MTK2556:3Y5140Z9DYNIBG6CU930H0L92IEPIW", "dateTime": 1519064380375}, {"current_trial": 107, "trialdata": {"rt": -1, "trial_type": "single-stim", "word": "salmon", "stimulus": "<p id=\"stim\">SALMON</p>", "conditions": [24, 1600, "v", 24000], "internal_node_id": "0.0-80.0", "trial": 2, "time_elapsed": 697518, "serialpos": 18, "key_press": -1, "wordID": 1226, "type": "PRES_VIS", "trial_index": 107}, "uniqueid": "MTK2556:3Y5140Z9DYNIBG6CU930H0L92IEPIW", "dateTime": 1519064383050}, {"current_trial": 108, "trialdata": {"rt": -1, "trial_type": "single-stim", "word": "tile", "stimulus": "<p id=\"stim\">TILE</p>", "conditions": [24, 1600, "v", 24000], "internal_node_id": "0.0-81.0", "trial": 2, "time_elapsed": 700177, "serialpos": 19, "key_press": -1, "wordID": 1467, "type": "PRES_VIS", "trial_index": 108}, "uniqueid": "MTK2556:3Y5140Z9DYNIBG6CU930H0L92IEPIW", "dateTime": 1519064385709}, {"current_trial": 109, "trialdata": {"rt": -1, "trial_type": "single-stim", "word": "twig", "stimulus": "<p id=\"stim\">TWIG</p>", "conditions": [24, 1600, "v", 24000], "internal_node_id": "0.0-82.0", "trial": 2, "time_elapsed": 702789, "serialpos": 20, "key_press": -1, "wordID": 1526, "type": "PRES_VIS", "trial_index": 109}, "uniqueid": "MTK2556:3Y5140Z9DYNIBG6CU930H0L92IEPIW", "dateTime": 1519064388322}, {"current_trial": 110, "trialdata": {"rt": -1, "trial_type": "single-stim", "word": "wagon", "stimulus": "<p id=\"stim\">WAGON</p>", "conditions": [24, 1600, "v", 24000], "internal_node_id": "0.0-83.0", "trial": 2, "time_elapsed": 705400, "serialpos": 21, "key_press": -1, "wordID": 1577, "type": "PRES_VIS", "trial_index": 110}, "uniqueid": "MTK2556:3Y5140Z9DYNIBG6CU930H0L92IEPIW", "dateTime": 1519064390932}, {"current_trial": 111, "trialdata": {"rt": -1, "trial_type": "single-stim", "word": "patient", "stimulus": "<p id=\"stim\">PATIENT</p>", "conditions": [24, 1600, "v", 24000], "internal_node_id": "0.0-84.0", "trial": 2, "time_elapsed": 707861, "serialpos": 22, "key_press": -1, "wordID": 1023, "type": "PRES_VIS", "trial_index": 111}, "uniqueid": "MTK2556:3Y5140Z9DYNIBG6CU930H0L92IEPIW", "dateTime": 1519064393393}, {"current_trial": 112, "trialdata": {"rt": -1, "trial_type": "single-stim", "word": "doughnut", "stimulus": "<p id=\"stim\">DOUGHNUT</p>", "conditions": [24, 1600, "v", 24000], "internal_node_id": "0.0-85.0", "trial": 2, "time_elapsed": 710424, "serialpos": 23, "key_press": -1, "wordID": 489, "type": "PRES_VIS", "trial_index": 112}, "uniqueid": "MTK2556:3Y5140Z9DYNIBG6CU930H0L92IEPIW", "dateTime": 1519064395956}, {"current_trial": 113, "trialdata": {"rt": -1, "trial_type": "single-stim", "stimulus": "", "internal_node_id": "0.0-86.0-0.0", "time_elapsed": 712769, "key_press": -1, "type": "PRE_RECALL_DELAY", "trial_index": 113}, "uniqueid": "MTK2556:3Y5140Z9DYNIBG6CU930H0L92IEPIW", "dateTime": 1519064398301}, {"current_trial": 114, "trialdata": {"rt": -1000, "trial_type": "single-audio", "stimulus": "/static/audio/400Hz.wav", "internal_node_id": "0.0-87.0", "time_elapsed": 713280, "key_press": -1, "type": "PRE_RECALL_ALERT", "trial_index": 114}, "uniqueid": "MTK2556:3Y5140Z9DYNIBG6CU930H0L92IEPIW", "dateTime": 1519064398812}, {"current_trial": 115, "trialdata": {"rt": [3280, 7078, 10392, 12499, 15110, 18276, 29951, 39689, 41285], "recwords": ["smog", "orange", "shoulder", "ankle", "skirt", "doughnut", "smog", "driver", "truck"], "key_times": [1333, 1806, 1927, 2258, 2928, 3280, 4097, 4272, 4550, 4681, 4921, 5716, 6285, 6394, 7078, 7743, 7848, 8727, 8950, 9208, 9368, 9549, 9717, 10392, 10680, 10963, 11733, 11926, 12069, 12499, 12908, 13565, 13743, 13960, 14193, 15110, 15750, 15889, 16088, 16312, 16688, 17145, 17367, 17545, 18276, 28209, 28276, 28519, 29133, 29951, 37712, 38224, 38404, 38646, 38958, 39218, 39689, 40344, 40551, 40715, 40899, 41040, 41285], "trial_type": "free-recall", "conditions": [24, 1600, "v", 24000], "internal_node_id": "0.0-88.0-0.0", "key_presses": [16, 83, 77, 79, 71, 13, 79, 82, 65, 78, 71, 87, 8, 69, 13, 83, 72, 79, 85, 76, 68, 69, 82, 13, 65, 78, 75, 76, 69, 13, 83, 75, 73, 82, 84, 13, 68, 79, 85, 71, 72, 78, 85, 84, 13, 83, 77, 79, 71, 13, 68, 82, 73, 86, 69, 82, 13, 84, 82, 85, 67, 75, 13], "trial": 2, "time_elapsed": 773282, "type": "FREE_RECALL", "trial_index": 115}, "uniqueid": "MTK2556:3Y5140Z9DYNIBG6CU930H0L92IEPIW", "dateTime": 1519064458816}, {"current_trial": 116, "trialdata": {"rt": 3110, "trial_type": "text", "internal_node_id": "0.0-89.0", "time_elapsed": 778396, "key_press": 75, "type": "INSTRUCTIONS", "trial_index": 116}, "uniqueid": "MTK2556:3Y5140Z9DYNIBG6CU930H0L92IEPIW", "dateTime": 1519064463928}, {"current_trial": 117, "trialdata": {"rt": [3324, 8797, 10864, 13786, 17873, 21258, 22989], "trial_type": "math-distractor", "key_times": [2672, 3067, 3324, 7057, 7247, 8028, 8540, 8797, 10451, 10685, 10864, 13194, 13618, 13786, 17501, 17706, 17873, 20732, 20968, 21258, 22485, 22680, 22989], "responses": ["16", "20", "21", "16", "13", "10", "11"], "num2": [3, 7, 7, 8, 5, 1, 9, 6], "num3": [6, 4, 7, 1, 7, 7, 9, 7], "conditions": [12, 800, "v", 24000], "internal_node_id": "0.0-90.0", "key_presses": [49, 54, 13, 50, 57, 8, 48, 13, 50, 49, 13, 49, 54, 13, 49, 51, 13, 49, 48, 13, 49, 49, 13], "trial": 3, "time_elapsed": 804398, "type": "DISTRACTOR", "trial_index": 117, "num1": [7, 9, 7, 7, 1, 2, 1, 7]}, "uniqueid": "MTK2556:3Y5140Z9DYNIBG6CU930H0L92IEPIW", "dateTime": 1519064489930}, {"current_trial": 118, "trialdata": {"rt": -1, "trial_type": "single-stim", "stimulus": "<p id=\"stim\">10</p>", "internal_node_id": "0.0-91.0-0.0", "time_elapsed": 807400, "key_press": -1, "trial_index": 118}, "uniqueid": "MTK2556:3Y5140Z9DYNIBG6CU930H0L92IEPIW", "dateTime": 1519064492932}, {"current_trial": 119, "trialdata": {"rt": -1, "trial_type": "single-stim", "stimulus": "<p id=\"stim\">9</p>", "internal_node_id": "0.0-91.0-1.0", "time_elapsed": 808401, "key_press": -1, "trial_index": 119}, "uniqueid": "MTK2556:3Y5140Z9DYNIBG6CU930H0L92IEPIW", "dateTime": 1519064493933}, {"current_trial": 120, "trialdata": {"rt": -1, "trial_type": "single-stim", "stimulus": "<p id=\"stim\">8</p>", "internal_node_id": "0.0-91.0-2.0", "time_elapsed": 809402, "key_press": -1, "trial_index": 120}, "uniqueid": "MTK2556:3Y5140Z9DYNIBG6CU930H0L92IEPIW", "dateTime": 1519064494934}, {"current_trial": 121, "trialdata": {"rt": -1, "trial_type": "single-stim", "stimulus": "<p id=\"stim\">7</p>", "internal_node_id": "0.0-91.0-3.0", "time_elapsed": 810403, "key_press": -1, "trial_index": 121}, "uniqueid": "MTK2556:3Y5140Z9DYNIBG6CU930H0L92IEPIW", "dateTime": 1519064495935}, {"current_trial": 122, "trialdata": {"rt": -1, "trial_type": "single-stim", "stimulus": "<p id=\"stim\">6</p>", "internal_node_id": "0.0-91.0-4.0", "time_elapsed": 811404, "key_press": -1, "trial_index": 122}, "uniqueid": "MTK2556:3Y5140Z9DYNIBG6CU930H0L92IEPIW", "dateTime": 1519064496936}, {"current_trial": 123, "trialdata": {"rt": -1, "trial_type": "single-stim", "stimulus": "<p id=\"stim\">5</p>", "internal_node_id": "0.0-91.0-5.0", "time_elapsed": 812406, "key_press": -1, "trial_index": 123}, "uniqueid": "MTK2556:3Y5140Z9DYNIBG6CU930H0L92IEPIW", "dateTime": 1519064497938}, {"current_trial": 124, "trialdata": {"rt": -1, "trial_type": "single-stim", "stimulus": "<p id=\"stim\">4</p>", "internal_node_id": "0.0-91.0-6.0", "time_elapsed": 813407, "key_press": -1, "trial_index": 124}, "uniqueid": "MTK2556:3Y5140Z9DYNIBG6CU930H0L92IEPIW", "dateTime": 1519064498939}, {"current_trial": 125, "trialdata": {"rt": -1, "trial_type": "single-stim", "stimulus": "<p id=\"stim\">3</p>", "internal_node_id": "0.0-91.0-7.0", "time_elapsed": 814408, "key_press": -1, "trial_index": 125}, "uniqueid": "MTK2556:3Y5140Z9DYNIBG6CU930H0L92IEPIW", "dateTime": 1519064499940}, {"current_trial": 126, "trialdata": {"rt": -1, "trial_type": "single-stim", "stimulus": "<p id=\"stim\">2</p>", "internal_node_id": "0.0-91.0-8.0", "time_elapsed": 815409, "key_press": -1, "trial_index": 126}, "uniqueid": "MTK2556:3Y5140Z9DYNIBG6CU930H0L92IEPIW", "dateTime": 1519064500941}, {"current_trial": 127, "trialdata": {"rt": -1, "trial_type": "single-stim", "stimulus": "<p id=\"stim\">1</p>", "internal_node_id": "0.0-91.0-9.0", "time_elapsed": 816410, "key_press": -1, "trial_index": 127}, "uniqueid": "MTK2556:3Y5140Z9DYNIBG6CU930H0L92IEPIW", "dateTime": 1519064501942}, {"current_trial": 128, "trialdata": {"rt": -1, "trial_type": "single-stim", "stimulus": "<p id=\"stim\">+</p>", "internal_node_id": "0.0-92.0-0.0", "time_elapsed": 817911, "key_press": -1, "type": "FIXATION", "trial_index": 128}, "uniqueid": "MTK2556:3Y5140Z9DYNIBG6CU930H0L92IEPIW", "dateTime": 1519064503443}, {"current_trial": 129, "trialdata": {"rt": -1, "trial_type": "single-stim", "word": "venus", "stimulus": "<p id=\"stim\">VENUS</p>", "conditions": [12, 800, "v", 24000], "internal_node_id": "0.0-93.0", "trial": 3, "time_elapsed": 818712, "serialpos": 0, "key_press": -1, "wordID": 1556, "type": "PRES_VIS", "trial_index": 129}, "uniqueid": "MTK2556:3Y5140Z9DYNIBG6CU930H0L92IEPIW", "dateTime": 1519064504244}, {"current_trial": 130, "trialdata": {"rt": -1, "trial_type": "single-stim", "word": "lake", "stimulus": "<p id=\"stim\">LAKE</p>", "conditions": [12, 800, "v", 24000], "internal_node_id": "0.0-94.0", "trial": 3, "time_elapsed": 820377, "serialpos": 1, "key_press": -1, "wordID": 795, "type": "PRES_VIS", "trial_index": 130}, "uniqueid": "MTK2556:3Y5140Z9DYNIBG6CU930H0L92IEPIW", "dateTime": 1519064505909}, {"current_trial": 131, "trialdata": {"rt": -1, "trial_type": "single-stim", "word": "mask", "stimulus": "<p id=\"stim\">MASK</p>", "conditions": [12, 800, "v", 24000], "internal_node_id": "0.0-95.0", "trial": 3, "time_elapsed": 822314, "serialpos": 2, "key_press": -1, "wordID": 875, "type": "PRES_VIS", "trial_index": 131}, "uniqueid": "MTK2556:3Y5140Z9DYNIBG6CU930H0L92IEPIW", "dateTime": 1519064507846}, {"current_trial": 132, "trialdata": {"rt": -1, "trial_type": "single-stim", "word": "pilot", "stimulus": "<p id=\"stim\">PILOT</p>", "conditions": [12, 800, "v", 24000], "internal_node_id": "0.0-96.0", "trial": 3, "time_elapsed": 824086, "serialpos": 3, "key_press": -1, "wordID": 1069, "type": "PRES_VIS", "trial_index": 132}, "uniqueid": "MTK2556:3Y5140Z9DYNIBG6CU930H0L92IEPIW", "dateTime": 1519064509618}, {"current_trial": 133, "trialdata": {"rt": -1, "trial_type": "single-stim", "word": "island", "stimulus": "<p id=\"stim\">ISLAND</p>", "conditions": [12, 800, "v", 24000], "internal_node_id": "0.0-97.0", "trial": 3, "time_elapsed": 825761, "serialpos": 4, "key_press": -1, "wordID": 744, "type": "PRES_VIS", "trial_index": 133}, "uniqueid": "MTK2556:3Y5140Z9DYNIBG6CU930H0L92IEPIW", "dateTime": 1519064511293}, {"current_trial": 134, "trialdata": {"rt": -1, "trial_type": "single-stim", "word": "gallon", "stimulus": "<p id=\"stim\">GALLON</p>", "conditions": [12, 800, "v", 24000], "internal_node_id": "0.0-98.0", "trial": 3, "time_elapsed": 827633, "serialpos": 5, "key_press": -1, "wordID": 617, "type": "PRES_VIS", "trial_index": 134}, "uniqueid": "MTK2556:3Y5140Z9DYNIBG6CU930H0L92IEPIW", "dateTime": 1519064513165}, {"current_trial": 135, "trialdata": {"rt": -1, "trial_type": "single-stim", "word": "onion", "stimulus": "<p id=\"stim\">ONION</p>", "conditions": [12, 800, "v", 24000], "internal_node_id": "0.0-99.0", "trial": 3, "time_elapsed": 829274, "serialpos": 6, "key_press": -1, "wordID": 976, "type": "PRES_VIS", "trial_index": 135}, "uniqueid": "MTK2556:3Y5140Z9DYNIBG6CU930H0L92IEPIW", "dateTime": 1519064514806}, {"current_trial": 136, "trialdata": {"rt": -1, "trial_type": "single-stim", "word": "lagoon", "stimulus": "<p id=\"stim\">LAGOON</p>", "conditions": [12, 800, "v", 24000], "internal_node_id": "0.0-100.0", "trial": 3, "time_elapsed": 830965, "serialpos": 7, "key_press": -1, "wordID": 794, "type": "PRES_VIS", "trial_index": 136}, "uniqueid": "MTK2556:3Y5140Z9DYNIBG6CU930H0L92IEPIW", "dateTime": 1519064516497}, {"current_trial": 137, "trialdata": {"rt": -1, "trial_type": "single-stim", "word": "college", "stimulus": "<p id=\"stim\">COLLEGE</p>", "conditions": [12, 800, "v", 24000], "internal_node_id": "0.0-101.0", "trial": 3, "time_elapsed": 832679, "serialpos": 8, "key_press": -1, "wordID": 345, "type": "PRES_VIS", "trial_index": 137}, "uniqueid": "MTK2556:3Y5140Z9DYNIBG6CU930H0L92IEPIW", "dateTime": 1519064518211}, {"current_trial": 138, "trialdata": {"rt": -1, "trial_type": "single-stim", "word": "student", "stimulus": "<p id=\"stim\">STUDENT</p>", "conditions": [12, 800, "v", 24000], "internal_node_id": "0.0-102.0", "trial": 3, "time_elapsed": 834303, "serialpos": 9, "key_press": -1, "wordID": 1394, "type": "PRES_VIS", "trial_index": 138}, "uniqueid": "MTK2556:3Y5140Z9DYNIBG6CU930H0L92IEPIW", "dateTime": 1519064519835}, {"current_trial": 139, "trialdata": {"rt": -1, "trial_type": "single-stim", "word": "marrow", "stimulus": "<p id=\"stim\">MARROW</p>", "conditions": [12, 800, "v", 24000], "internal_node_id": "0.0-103.0", "trial": 3, "time_elapsed": 835987, "serialpos": 10, "key_press": -1, "wordID": 871, "type": "PRES_VIS", "trial_index": 139}, "uniqueid": "MTK2556:3Y5140Z9DYNIBG6CU930H0L92IEPIW", "dateTime": 1519064521519}, {"current_trial": 140, "trialdata": {"rt": -1, "trial_type": "single-stim", "word": "proton", "stimulus": "<p id=\"stim\">PROTON</p>", "conditions": [12, 800, "v", 24000], "internal_node_id": "0.0-104.0", "trial": 3, "time_elapsed": 837976, "serialpos": 11, "key_press": -1, "wordID": 1131, "type": "PRES_VIS", "trial_index": 140}, "uniqueid": "MTK2556:3Y5140Z9DYNIBG6CU930H0L92IEPIW", "dateTime": 1519064523508}, {"current_trial": 141, "trialdata": {"rt": -1, "trial_type": "single-stim", "stimulus": "", "internal_node_id": "0.0-105.0-0.0", "time_elapsed": 840249, "key_press": -1, "type": "PRE_RECALL_DELAY", "trial_index": 141}, "uniqueid": "MTK2556:3Y5140Z9DYNIBG6CU930H0L92IEPIW", "dateTime": 1519064525781}, {"current_trial": 142, "trialdata": {"rt": -1000, "trial_type": "single-audio", "stimulus": "/static/audio/400Hz.wav", "internal_node_id": "0.0-106.0", "time_elapsed": 840756, "key_press": -1, "type": "PRE_RECALL_ALERT", "trial_index": 142}, "uniqueid": "MTK2556:3Y5140Z9DYNIBG6CU930H0L92IEPIW", "dateTime": 1519064526288}, {"current_trial": 143, "trialdata": {"rt": [4294, 6957, 8453, 11078, 14254, 59088], "recwords": ["proton", "venus", "lake", "college", "student", "mask"], "key_times": [1426, 1786, 2147, 2440, 2577, 2843, 4294, 4889, 5229, 5462, 5732, 6073, 6323, 6487, 6957, 7523, 7610, 7821, 8148, 8453, 8913, 9054, 9313, 9787, 10003, 10246, 10434, 11078, 11700, 12117, 12443, 12640, 12893, 13112, 13435, 13556, 13752, 14254, 57137, 57334, 57554, 57779, 59088], "trial_type": "free-recall", "conditions": [12, 800, "v", 24000], "internal_node_id": "0.0-107.0-0.0", "key_presses": [80, 82, 79, 84, 79, 78, 13, 86, 69, 78, 83, 8, 85, 83, 13, 76, 65, 75, 69, 13, 67, 79, 76, 76, 69, 71, 69, 13, 83, 89, 8, 84, 85, 68, 69, 78, 84, 13, 77, 65, 83, 75, 13], "trial": 3, "time_elapsed": 900758, "type": "FREE_RECALL", "trial_index": 143}, "uniqueid": "MTK2556:3Y5140Z9DYNIBG6CU930H0L92IEPIW", "dateTime": 1519064586292}, {"current_trial": 144, "trialdata": {"rt": 1943, "trial_type": "text", "internal_node_id": "0.0-108.0", "time_elapsed": 904704, "key_press": 72, "type": "INSTRUCTIONS", "trial_index": 144}, "uniqueid": "MTK2556:3Y5140Z9DYNIBG6CU930H0L92IEPIW", "dateTime": 1519064590236}, {"current_trial": 145, "trialdata": {"rt": [3071, 6620, 8931, 11563, 14097, 16617, 19768, 22818], "trial_type": "math-distractor", "key_times": [2661, 2860, 3071, 4861, 5371, 6195, 6397, 6620, 8415, 8625, 8931, 10898, 11277, 11563, 13768, 13978, 14097, 16078, 16333, 16617, 18597, 18856, 19469, 19600, 19768, 22139, 22540, 22818], "responses": ["13", "17", "14", "17", "14", "10", "12", "19"], "num2": [7, 7, 5, 9, 7, 6, 2, 6, 6], "num3": [3, 2, 4, 1, 1, 2, 8, 7, 3], "conditions": [12, 1600, "v", 24000], "internal_node_id": "0.0-109.0", "key_presses": [49, 51, 13, 49, 56, 8, 55, 13, 49, 52, 13, 49, 55, 13, 49, 52, 13, 49, 48, 13, 49, 51, 8, 50, 13, 49, 57, 13], "trial": 4, "time_elapsed": 930706, "type": "DISTRACTOR", "trial_index": 145, "num1": [3, 8, 5, 7, 6, 2, 2, 6, 3]}, "uniqueid": "MTK2556:3Y5140Z9DYNIBG6CU930H0L92IEPIW", "dateTime": 1519064616238}, {"current_trial": 146, "trialdata": {"rt": -1, "trial_type": "single-stim", "stimulus": "<p id=\"stim\">10</p>", "internal_node_id": "0.0-110.0-0.0", "time_elapsed": 933708, "key_press": -1, "trial_index": 146}, "uniqueid": "MTK2556:3Y5140Z9DYNIBG6CU930H0L92IEPIW", "dateTime": 1519064619240}, {"current_trial": 147, "trialdata": {"rt": -1, "trial_type": "single-stim", "stimulus": "<p id=\"stim\">9</p>", "internal_node_id": "0.0-110.0-1.0", "time_elapsed": 934709, "key_press": -1, "trial_index": 147}, "uniqueid": "MTK2556:3Y5140Z9DYNIBG6CU930H0L92IEPIW", "dateTime": 1519064620241}, {"current_trial": 148, "trialdata": {"rt": -1, "trial_type": "single-stim", "stimulus": "<p id=\"stim\">8</p>", "internal_node_id": "0.0-110.0-2.0", "time_elapsed": 935710, "key_press": -1, "trial_index": 148}, "uniqueid": "MTK2556:3Y5140Z9DYNIBG6CU930H0L92IEPIW", "dateTime": 1519064621242}, {"current_trial": 149, "trialdata": {"rt": -1, "trial_type": "single-stim", "stimulus": "<p id=\"stim\">7</p>", "internal_node_id": "0.0-110.0-3.0", "time_elapsed": 936711, "key_press": -1, "trial_index": 149}, "uniqueid": "MTK2556:3Y5140Z9DYNIBG6CU930H0L92IEPIW", "dateTime": 1519064622243}, {"current_trial": 150, "trialdata": {"rt": -1, "trial_type": "single-stim", "stimulus": "<p id=\"stim\">6</p>", "internal_node_id": "0.0-110.0-4.0", "time_elapsed": 937712, "key_press": -1, "trial_index": 150}, "uniqueid": "MTK2556:3Y5140Z9DYNIBG6CU930H0L92IEPIW", "dateTime": 1519064623244}, {"current_trial": 151, "trialdata": {"rt": -1, "trial_type": "single-stim", "stimulus": "<p id=\"stim\">5</p>", "internal_node_id": "0.0-110.0-5.0", "time_elapsed": 938713, "key_press": -1, "trial_index": 151}, "uniqueid": "MTK2556:3Y5140Z9DYNIBG6CU930H0L92IEPIW", "dateTime": 1519064624245}, {"current_trial": 152, "trialdata": {"rt": -1, "trial_type": "single-stim", "stimulus": "<p id=\"stim\">4</p>", "internal_node_id": "0.0-110.0-6.0", "time_elapsed": 939714, "key_press": -1, "trial_index": 152}, "uniqueid": "MTK2556:3Y5140Z9DYNIBG6CU930H0L92IEPIW", "dateTime": 1519064625246}, {"current_trial": 153, "trialdata": {"rt": -1, "trial_type": "single-stim", "stimulus": "<p id=\"stim\">3</p>", "internal_node_id": "0.0-110.0-7.0", "time_elapsed": 940715, "key_press": -1, "trial_index": 153}, "uniqueid": "MTK2556:3Y5140Z9DYNIBG6CU930H0L92IEPIW", "dateTime": 1519064626247}, {"current_trial": 154, "trialdata": {"rt": -1, "trial_type": "single-stim", "stimulus": "<p id=\"stim\">2</p>", "internal_node_id": "0.0-110.0-8.0", "time_elapsed": 941717, "key_press": -1, "trial_index": 154}, "uniqueid": "MTK2556:3Y5140Z9DYNIBG6CU930H0L92IEPIW", "dateTime": 1519064627249}, {"current_trial": 155, "trialdata": {"rt": -1, "trial_type": "single-stim", "stimulus": "<p id=\"stim\">1</p>", "internal_node_id": "0.0-110.0-9.0", "time_elapsed": 942718, "key_press": -1, "trial_index": 155}, "uniqueid": "MTK2556:3Y5140Z9DYNIBG6CU930H0L92IEPIW", "dateTime": 1519064628250}, {"current_trial": 156, "trialdata": {"rt": -1, "trial_type": "single-stim", "stimulus": "<p id=\"stim\">+</p>", "internal_node_id": "0.0-111.0-0.0", "time_elapsed": 944220, "key_press": -1, "type": "FIXATION", "trial_index": 156}, "uniqueid": "MTK2556:3Y5140Z9DYNIBG6CU930H0L92IEPIW", "dateTime": 1519064629752}, {"current_trial": 157, "trialdata": {"rt": -1, "trial_type": "single-stim", "word": "coffee", "stimulus": "<p id=\"stim\">COFFEE</p>", "conditions": [12, 1600, "v", 24000], "internal_node_id": "0.0-112.0", "trial": 4, "time_elapsed": 945821, "serialpos": 0, "key_press": -1, "wordID": 340, "type": "PRES_VIS", "trial_index": 157}, "uniqueid": "MTK2556:3Y5140Z9DYNIBG6CU930H0L92IEPIW", "dateTime": 1519064631353}, {"current_trial": 158, "trialdata": {"rt": -1, "trial_type": "single-stim", "word": "soda", "stimulus": "<p id=\"stim\">SODA</p>", "conditions": [12, 1600, "v", 24000], "internal_node_id": "0.0-113.0", "trial": 4, "time_elapsed": 948231, "serialpos": 1, "key_press": -1, "wordID": 1340, "type": "PRES_VIS", "trial_index": 158}, "uniqueid": "MTK2556:3Y5140Z9DYNIBG6CU930H0L92IEPIW", "dateTime": 1519064633763}, {"current_trial": 159, "trialdata": {"rt": -1, "trial_type": "single-stim", "word": "motor", "stimulus": "<p id=\"stim\">MOTOR</p>", "conditions": [12, 1600, "v", 24000], "internal_node_id": "0.0-114.0", "trial": 4, "time_elapsed": 950765, "serialpos": 2, "key_press": -1, "wordID": 921, "type": "PRES_VIS", "trial_index": 159}, "uniqueid": "MTK2556:3Y5140Z9DYNIBG6CU930H0L92IEPIW", "dateTime": 1519064636297}, {"current_trial": 160, "trialdata": {"rt": -1, "trial_type": "single-stim", "word": "pliers", "stimulus": "<p id=\"stim\">PLIERS</p>", "conditions": [12, 1600, "v", 24000], "internal_node_id": "0.0-115.0", "trial": 4, "time_elapsed": 953296, "serialpos": 3, "key_press": -1, "wordID": 1088, "type": "PRES_VIS", "trial_index": 160}, "uniqueid": "MTK2556:3Y5140Z9DYNIBG6CU930H0L92IEPIW", "dateTime": 1519064638828}, {"current_trial": 161, "trialdata": {"rt": -1, "trial_type": "single-stim", "word": "friend", "stimulus": "<p id=\"stim\">FRIEND</p>", "conditions": [12, 1600, "v", 24000], "internal_node_id": "0.0-116.0", "trial": 4, "time_elapsed": 955718, "serialpos": 4, "key_press": -1, "wordID": 605, "type": "PRES_VIS", "trial_index": 161}, "uniqueid": "MTK2556:3Y5140Z9DYNIBG6CU930H0L92IEPIW", "dateTime": 1519064641250}, {"current_trial": 162, "trialdata": {"rt": -1, "trial_type": "single-stim", "word": "pecan", "stimulus": "<p id=\"stim\">PECAN</p>", "conditions": [12, 1600, "v", 24000], "internal_node_id": "0.0-117.0", "trial": 4, "time_elapsed": 958320, "serialpos": 5, "key_press": -1, "wordID": 1035, "type": "PRES_VIS", "trial_index": 162}, "uniqueid": "MTK2556:3Y5140Z9DYNIBG6CU930H0L92IEPIW", "dateTime": 1519064643852}, {"current_trial": 163, "trialdata": {"rt": -1, "trial_type": "single-stim", "word": "daisy", "stimulus": "<p id=\"stim\">DAISY</p>", "conditions": [12, 1600, "v", 24000], "internal_node_id": "0.0-118.0", "trial": 4, "time_elapsed": 960770, "serialpos": 6, "key_press": -1, "wordID": 434, "type": "PRES_VIS", "trial_index": 163}, "uniqueid": "MTK2556:3Y5140Z9DYNIBG6CU930H0L92IEPIW", "dateTime": 1519064646302}, {"current_trial": 164, "trialdata": {"rt": -1, "trial_type": "single-stim", "word": "muffin", "stimulus": "<p id=\"stim\">MUFFIN</p>", "conditions": [12, 1600, "v", 24000], "internal_node_id": "0.0-119.0", "trial": 4, "time_elapsed": 963524, "serialpos": 7, "key_press": -1, "wordID": 928, "type": "PRES_VIS", "trial_index": 164}, "uniqueid": "MTK2556:3Y5140Z9DYNIBG6CU930H0L92IEPIW", "dateTime": 1519064649056}, {"current_trial": 165, "trialdata": {"rt": -1, "trial_type": "single-stim", "word": "marine", "stimulus": "<p id=\"stim\">MARINE</p>", "conditions": [12, 1600, "v", 24000], "internal_node_id": "0.0-120.0", "trial": 4, "time_elapsed": 966224, "serialpos": 8, "key_press": -1, "wordID": 868, "type": "PRES_VIS", "trial_index": 165}, "uniqueid": "MTK2556:3Y5140Z9DYNIBG6CU930H0L92IEPIW", "dateTime": 1519064651756}, {"current_trial": 166, "trialdata": {"rt": -1, "trial_type": "single-stim", "word": "daughter", "stimulus": "<p id=\"stim\">DAUGHTER</p>", "conditions": [12, 1600, "v", 24000], "internal_node_id": "0.0-121.0", "trial": 4, "time_elapsed": 968647, "serialpos": 9, "key_press": -1, "wordID": 441, "type": "PRES_VIS", "trial_index": 166}, "uniqueid": "MTK2556:3Y5140Z9DYNIBG6CU930H0L92IEPIW", "dateTime": 1519064654179}, {"current_trial": 167, "trialdata": {"rt": -1, "trial_type": "single-stim", "word": "cocktail", "stimulus": "<p id=\"stim\">COCKTAIL</p>", "conditions": [12, 1600, "v", 24000], "internal_node_id": "0.0-122.0", "trial": 4, "time_elapsed": 971222, "serialpos": 10, "key_press": -1, "wordID": 337, "type": "PRES_VIS", "trial_index": 167}, "uniqueid": "MTK2556:3Y5140Z9DYNIBG6CU930H0L92IEPIW", "dateTime": 1519064656754}, {"current_trial": 168, "trialdata": {"rt": -1, "trial_type": "single-stim", "word": "table", "stimulus": "<p id=\"stim\">TABLE</p>", "conditions": [12, 1600, "v", 24000], "internal_node_id": "0.0-123.0", "trial": 4, "time_elapsed": 973914, "serialpos": 11, "key_press": -1, "wordID": 1425, "type": "PRES_VIS", "trial_index": 168}, "uniqueid": "MTK2556:3Y5140Z9DYNIBG6CU930H0L92IEPIW", "dateTime": 1519064659446}, {"current_trial": 169, "trialdata": {"rt": -1, "trial_type": "single-stim", "stimulus": "", "internal_node_id": "0.0-124.0-0.0", "time_elapsed": 976392, "key_press": -1, "type": "PRE_RECALL_DELAY", "trial_index": 169}, "uniqueid": "MTK2556:3Y5140Z9DYNIBG6CU930H0L92IEPIW", "dateTime": 1519064661924}, {"current_trial": 170, "trialdata": {"rt": -1000, "trial_type": "single-audio", "stimulus": "/static/audio/400Hz.wav", "internal_node_id": "0.0-125.0", "time_elapsed": 976896, "key_press": -1, "type": "PRE_RECALL_ALERT", "trial_index": 170}, "uniqueid": "MTK2556:3Y5140Z9DYNIBG6CU930H0L92IEPIW", "dateTime": 1519064662429}, {"current_trial": 171, "trialdata": {"rt": [3337, 6191, 8375, 12800, 14920, 19308, 21447, 23792, 25372, 28997], "recwords": ["tab", "table", "muffin", "cocktail", "muffin", "daisy", "friend", "coffee", "soda", "motor"], "key_times": [1256, 1613, 1721, 2427, 3068, 3337, 4780, 5054, 5135, 5488, 5768, 6191, 6821, 7111, 7272, 7423, 7564, 7793, 8375, 9332, 9598, 10530, 10967, 11319, 11778, 11890, 12173, 12800, 13128, 13607, 13799, 13993, 14350, 14592, 14920, 15458, 15636, 16064, 16210, 16596, 17124, 17521, 18249, 18688, 18843, 18971, 19308, 19838, 20027, 20195, 20476, 20894, 20979, 21447, 21883, 22046, 22401, 22870, 23129, 23287, 23792, 24183, 24332, 24785, 25049, 25372, 26543, 26812, 27111, 27255, 27683, 28997], "trial_type": "free-recall", "conditions": [12, 1600, "v", 24000], "internal_node_id": "0.0-126.0-0.0", "key_presses": [84, 65, 72, 8, 66, 186, 84, 65, 66, 76, 69, 13, 77, 85, 70, 70, 73, 78, 13, 67, 79, 67, 75, 84, 65, 73, 76, 13, 77, 85, 70, 70, 73, 78, 13, 68, 65, 73, 83, 84, 8, 85, 89, 8, 8, 89, 13, 70, 82, 73, 69, 78, 68, 13, 67, 79, 70, 70, 69, 69, 13, 83, 79, 68, 65, 13, 77, 79, 84, 79, 82, 13], "trial": 4, "time_elapsed": 1036899, "type": "FREE_RECALL", "trial_index": 171}, "uniqueid": "MTK2556:3Y5140Z9DYNIBG6CU930H0L92IEPIW", "dateTime": 1519064722433}, {"current_trial": 172, "trialdata": {"rt": 2214, "trial_type": "text", "internal_node_id": "0.0-127.0", "time_elapsed": 1041116, "key_press": 74, "type": "INSTRUCTIONS", "trial_index": 172}, "uniqueid": "MTK2556:3Y5140Z9DYNIBG6CU930H0L92IEPIW", "dateTime": 1519064726648}, {"current_trial": 173, "trialdata": {"rt": [3833, 6766, 8937, 15416, 20162], "trial_type": "math-distractor", "key_times": [3383, 3612, 3833, 6201, 6477, 6766, 8262, 8619, 8937, 15003, 15173, 15416, 19786, 20011, 20162], "responses": ["13", "14", "19", "22", "11"], "num2": [4, 7, 1, 8, 2, 9], "num3": [7, 4, 9, 6, 6, 5], "conditions": [12, 800, "v", 24000], "internal_node_id": "0.0-128.0", "key_presses": [49, 51, 13, 49, 52, 13, 49, 57, 13, 50, 50, 13, 49, 49, 13], "trial": 5, "time_elapsed": 1067118, "type": "DISTRACTOR", "trial_index": 173, "num1": [2, 3, 9, 9, 3, 8]}, "uniqueid": "MTK2556:3Y5140Z9DYNIBG6CU930H0L92IEPIW", "dateTime": 1519064752650}, {"current_trial": 174, "trialdata": {"rt": -1, "trial_type": "single-stim", "stimulus": "<p id=\"stim\">10</p>", "internal_node_id": "0.0-129.0-0.0", "time_elapsed": 1070121, "key_press": -1, "trial_index": 174}, "uniqueid": "MTK2556:3Y5140Z9DYNIBG6CU930H0L92IEPIW", "dateTime": 1519064755653}, {"current_trial": 175, "trialdata": {"rt": -1, "trial_type": "single-stim", "stimulus": "<p id=\"stim\">9</p>", "internal_node_id": "0.0-129.0-1.0", "time_elapsed": 1071122, "key_press": -1, "trial_index": 175}, "uniqueid": "MTK2556:3Y5140Z9DYNIBG6CU930H0L92IEPIW", "dateTime": 1519064756654}, {"current_trial": 176, "trialdata": {"rt": -1, "trial_type": "single-stim", "stimulus": "<p id=\"stim\">8</p>", "internal_node_id": "0.0-129.0-2.0", "time_elapsed": 1072124, "key_press": -1, "trial_index": 176}, "uniqueid": "MTK2556:3Y5140Z9DYNIBG6CU930H0L92IEPIW", "dateTime": 1519064757656}, {"current_trial": 177, "trialdata": {"rt": -1, "trial_type": "single-stim", "stimulus": "<p id=\"stim\">7</p>", "internal_node_id": "0.0-129.0-3.0", "time_elapsed": 1073125, "key_press": -1, "trial_index": 177}, "uniqueid": "MTK2556:3Y5140Z9DYNIBG6CU930H0L92IEPIW", "dateTime": 1519064758658}, {"current_trial": 178, "trialdata": {"rt": -1, "trial_type": "single-stim", "stimulus": "<p id=\"stim\">6</p>", "internal_node_id": "0.0-129.0-4.0", "time_elapsed": 1074127, "key_press": -1, "trial_index": 178}, "uniqueid": "MTK2556:3Y5140Z9DYNIBG6CU930H0L92IEPIW", "dateTime": 1519064759659}, {"current_trial": 179, "trialdata": {"rt": -1, "trial_type": "single-stim", "stimulus": "<p id=\"stim\">5</p>", "internal_node_id": "0.0-129.0-5.0", "time_elapsed": 1075128, "key_press": -1, "trial_index": 179}, "uniqueid": "MTK2556:3Y5140Z9DYNIBG6CU930H0L92IEPIW", "dateTime": 1519064760660}, {"current_trial": 180, "trialdata": {"rt": -1, "trial_type": "single-stim", "stimulus": "<p id=\"stim\">4</p>", "internal_node_id": "0.0-129.0-6.0", "time_elapsed": 1076129, "key_press": -1, "trial_index": 180}, "uniqueid": "MTK2556:3Y5140Z9DYNIBG6CU930H0L92IEPIW", "dateTime": 1519064761662}, {"current_trial": 181, "trialdata": {"rt": -1, "trial_type": "single-stim", "stimulus": "<p id=\"stim\">3</p>", "internal_node_id": "0.0-129.0-7.0", "time_elapsed": 1077131, "key_press": -1, "trial_index": 181}, "uniqueid": "MTK2556:3Y5140Z9DYNIBG6CU930H0L92IEPIW", "dateTime": 1519064762663}, {"current_trial": 182, "trialdata": {"rt": -1, "trial_type": "single-stim", "stimulus": "<p id=\"stim\">2</p>", "internal_node_id": "0.0-129.0-8.0", "time_elapsed": 1078132, "key_press": -1, "trial_index": 182}, "uniqueid": "MTK2556:3Y5140Z9DYNIBG6CU930H0L92IEPIW", "dateTime": 1519064763664}, {"current_trial": 183, "trialdata": {"rt": -1, "trial_type": "single-stim", "stimulus": "<p id=\"stim\">1</p>", "internal_node_id": "0.0-129.0-9.0", "time_elapsed": 1079133, "key_press": -1, "trial_index": 183}, "uniqueid": "MTK2556:3Y5140Z9DYNIBG6CU930H0L92IEPIW", "dateTime": 1519064764665}, {"current_trial": 184, "trialdata": {"rt": -1, "trial_type": "single-stim", "stimulus": "<p id=\"stim\">+</p>", "internal_node_id": "0.0-130.0-0.0", "time_elapsed": 1080634, "key_press": -1, "type": "FIXATION", "trial_index": 184}, "uniqueid": "MTK2556:3Y5140Z9DYNIBG6CU930H0L92IEPIW", "dateTime": 1519064766166}, {"current_trial": 185, "trialdata": {"rt": -1, "trial_type": "single-stim", "word": "guitar", "stimulus": "<p id=\"stim\">GUITAR</p>", "conditions": [12, 800, "v", 24000], "internal_node_id": "0.0-131.0", "trial": 5, "time_elapsed": 1081435, "serialpos": 0, "key_press": -1, "wordID": 669, "type": "PRES_VIS", "trial_index": 185}, "uniqueid": "MTK2556:3Y5140Z9DYNIBG6CU930H0L92IEPIW", "dateTime": 1519064766967}, {"current_trial": 186, "trialdata": {"rt": -1, "trial_type": "single-stim", "word": "camel", "stimulus": "<p id=\"stim\">CAMEL</p>", "conditions": [12, 800, "v", 24000], "internal_node_id": "0.0-132.0", "trial": 5, "time_elapsed": 1083180, "serialpos": 1, "key_press": -1, "wordID": 222, "type": "PRES_VIS", "trial_index": 186}, "uniqueid": "MTK2556:3Y5140Z9DYNIBG6CU930H0L92IEPIW", "dateTime": 1519064768712}, {"current_trial": 187, "trialdata": {"rt": -1, "trial_type": "single-stim", "word": "pepper", "stimulus": "<p id=\"stim\">PEPPER</p>", "conditions": [12, 800, "v", 24000], "internal_node_id": "0.0-133.0", "trial": 5, "time_elapsed": 1084860, "serialpos": 2, "key_press": -1, "wordID": 1046, "type": "PRES_VIS", "trial_index": 187}, "uniqueid": "MTK2556:3Y5140Z9DYNIBG6CU930H0L92IEPIW", "dateTime": 1519064770392}, {"current_trial": 188, "trialdata": {"rt": -1, "trial_type": "single-stim", "word": "outlaw", "stimulus": "<p id=\"stim\">OUTLAW</p>", "conditions": [12, 800, "v", 24000], "internal_node_id": "0.0-134.0", "trial": 5, "time_elapsed": 1086751, "serialpos": 3, "key_press": -1, "wordID": 988, "type": "PRES_VIS", "trial_index": 188}, "uniqueid": "MTK2556:3Y5140Z9DYNIBG6CU930H0L92IEPIW", "dateTime": 1519064772283}, {"current_trial": 189, "trialdata": {"rt": -1, "trial_type": "single-stim", "word": "vagrant", "stimulus": "<p id=\"stim\">VAGRANT</p>", "conditions": [12, 800, "v", 24000], "internal_node_id": "0.0-135.0", "trial": 5, "time_elapsed": 1088560, "serialpos": 4, "key_press": -1, "wordID": 1543, "type": "PRES_VIS", "trial_index": 189}, "uniqueid": "MTK2556:3Y5140Z9DYNIBG6CU930H0L92IEPIW", "dateTime": 1519064774092}, {"current_trial": 190, "trialdata": {"rt": -1, "trial_type": "single-stim", "word": "headband", "stimulus": "<p id=\"stim\">HEADBAND</p>", "conditions": [12, 800, "v", 24000], "internal_node_id": "0.0-136.0", "trial": 5, "time_elapsed": 1090368, "serialpos": 5, "key_press": -1, "wordID": 695, "type": "PRES_VIS", "trial_index": 190}, "uniqueid": "MTK2556:3Y5140Z9DYNIBG6CU930H0L92IEPIW", "dateTime": 1519064775900}, {"current_trial": 191, "trialdata": {"rt": -1, "trial_type": "single-stim", "word": "shirt", "stimulus": "<p id=\"stim\">SHIRT</p>", "conditions": [12, 800, "v", 24000], "internal_node_id": "0.0-137.0", "trial": 5, "time_elapsed": 1092300, "serialpos": 6, "key_press": -1, "wordID": 1286, "type": "PRES_VIS", "trial_index": 191}, "uniqueid": "MTK2556:3Y5140Z9DYNIBG6CU930H0L92IEPIW", "dateTime": 1519064777832}, {"current_trial": 192, "trialdata": {"rt": -1, "trial_type": "single-stim", "word": "garlic", "stimulus": "<p id=\"stim\">GARLIC</p>", "conditions": [12, 800, "v", 24000], "internal_node_id": "0.0-138.0", "trial": 5, "time_elapsed": 1093926, "serialpos": 7, "key_press": -1, "wordID": 623, "type": "PRES_VIS", "trial_index": 192}, "uniqueid": "MTK2556:3Y5140Z9DYNIBG6CU930H0L92IEPIW", "dateTime": 1519064779458}, {"current_trial": 193, "trialdata": {"rt": -1, "trial_type": "single-stim", "word": "shovel", "stimulus": "<p id=\"stim\">SHOVEL</p>", "conditions": [12, 800, "v", 24000], "internal_node_id": "0.0-139.0", "trial": 5, "time_elapsed": 1095684, "serialpos": 8, "key_press": -1, "wordID": 1294, "type": "PRES_VIS", "trial_index": 193}, "uniqueid": "MTK2556:3Y5140Z9DYNIBG6CU930H0L92IEPIW", "dateTime": 1519064781216}, {"current_trial": 194, "trialdata": {"rt": -1, "trial_type": "single-stim", "word": "clock", "stimulus": "<p id=\"stim\">CLOCK</p>", "conditions": [12, 800, "v", 24000], "internal_node_id": "0.0-140.0", "trial": 5, "time_elapsed": 1097383, "serialpos": 9, "key_press": -1, "wordID": 324, "type": "PRES_VIS", "trial_index": 194}, "uniqueid": "MTK2556:3Y5140Z9DYNIBG6CU930H0L92IEPIW", "dateTime": 1519064782915}, {"current_trial": 195, "trialdata": {"rt": -1, "trial_type": "single-stim", "word": "luggage", "stimulus": "<p id=\"stim\">LUGGAGE</p>", "conditions": [12, 800, "v", 24000], "internal_node_id": "0.0-141.0", "trial": 5, "time_elapsed": 1099064, "serialpos": 10, "key_press": -1, "wordID": 846, "type": "PRES_VIS", "trial_index": 195}, "uniqueid": "MTK2556:3Y5140Z9DYNIBG6CU930H0L92IEPIW", "dateTime": 1519064784597}, {"current_trial": 196, "trialdata": {"rt": -1, "trial_type": "single-stim", "word": "summit", "stimulus": "<p id=\"stim\">SUMMIT</p>", "conditions": [12, 800, "v", 24000], "internal_node_id": "0.0-142.0", "trial": 5, "time_elapsed": 1100724, "serialpos": 11, "key_press": -1, "wordID": 1404, "type": "PRES_VIS", "trial_index": 196}, "uniqueid": "MTK2556:3Y5140Z9DYNIBG6CU930H0L92IEPIW", "dateTime": 1519064786257}, {"current_trial": 197, "trialdata": {"rt": -1, "trial_type": "single-stim", "stimulus": "", "internal_node_id": "0.0-143.0-0.0", "time_elapsed": 1103119, "key_press": -1, "type": "PRE_RECALL_DELAY", "trial_index": 197}, "uniqueid": "MTK2556:3Y5140Z9DYNIBG6CU930H0L92IEPIW", "dateTime": 1519064788651}, {"current_trial": 198, "trialdata": {"rt": -1000, "trial_type": "single-audio", "stimulus": "/static/audio/400Hz.wav", "internal_node_id": "0.0-144.0", "time_elapsed": 1103621, "key_press": -1, "type": "PRE_RECALL_ALERT", "trial_index": 198}, "uniqueid": "MTK2556:3Y5140Z9DYNIBG6CU930H0L92IEPIW", "dateTime": 1519064789153}, {"current_trial": 199, "trialdata": {"rt": [2613, 6231, 10556, 12957, 23091, 37093], "recwords": ["summit", "garlic", "guitar", "outlaw", "headband", "summit"], "key_times": [1034, 1169, 1472, 1605, 1812, 2026, 2613, 2984, 3498, 3634, 3799, 3943, 4331, 4715, 5219, 5459, 5648, 6231, 7826, 8620, 8901, 9285, 9653, 9981, 10556, 11119, 11383, 11760, 11915, 12167, 12430, 12957, 20426, 20600, 20889, 21168, 21499, 21764, 21978, 22172, 23091, 34927, 35075, 35333, 35490, 35702, 35896, 37093], "trial_type": "free-recall", "conditions": [12, 800, "v", 24000], "internal_node_id": "0.0-145.0-0.0", "key_presses": [83, 85, 77, 77, 73, 84, 32, 70, 71, 8, 8, 71, 65, 82, 76, 73, 67, 13, 71, 85, 73, 84, 65, 82, 13, 79, 85, 84, 76, 65, 87, 13, 72, 69, 65, 68, 66, 65, 78, 68, 13, 83, 85, 77, 77, 73, 84, 13], "trial": 5, "time_elapsed": 1163622, "type": "FREE_RECALL", "trial_index": 199}, "uniqueid": "MTK2556:3Y5140Z9DYNIBG6CU930H0L92IEPIW", "dateTime": 1519064849157}, {"current_trial": 200, "trialdata": {"rt": 7462, "trial_type": "text", "internal_node_id": "0.0-146.0", "time_elapsed": 1173089, "key_press": 74, "type": "INSTRUCTIONS", "trial_index": 200}, "uniqueid": "MTK2556:3Y5140Z9DYNIBG6CU930H0L92IEPIW", "dateTime": 1519064858621}, {"current_trial": 201, "trialdata": {"rt": [6361], "trial_type": "math-distractor", "key_times": [5835, 6204, 6361, 11489, 11730], "responses": ["15"], "num2": [7, 6], "num3": [2, 5], "conditions": [12, 800, "v", 12000], "internal_node_id": "0.0-147.0", "key_presses": [49, 53, 13, 49, 50], "trial": 6, "time_elapsed": 1187092, "type": "DISTRACTOR", "trial_index": 201, "num1": [6, 1]}, "uniqueid": "MTK2556:3Y5140Z9DYNIBG6CU930H0L92IEPIW", "dateTime": 1519064872624}, {"current_trial": 202, "trialdata": {"rt": -1, "trial_type": "single-stim", "stimulus": "<p id=\"stim\">10</p>", "internal_node_id": "0.0-148.0-0.0", "time_elapsed": 1190094, "key_press": -1, "trial_index": 202}, "uniqueid": "MTK2556:3Y5140Z9DYNIBG6CU930H0L92IEPIW", "dateTime": 1519064875626}, {"current_trial": 203, "trialdata": {"rt": -1, "trial_type": "single-stim", "stimulus": "<p id=\"stim\">9</p>", "internal_node_id": "0.0-148.0-1.0", "time_elapsed": 1191096, "key_press": -1, "trial_index": 203}, "uniqueid": "MTK2556:3Y5140Z9DYNIBG6CU930H0L92IEPIW", "dateTime": 1519064876628}, {"current_trial": 204, "trialdata": {"rt": -1, "trial_type": "single-stim", "stimulus": "<p id=\"stim\">8</p>", "internal_node_id": "0.0-148.0-2.0", "time_elapsed": 1192096, "key_press": -1, "trial_index": 204}, "uniqueid": "MTK2556:3Y5140Z9DYNIBG6CU930H0L92IEPIW", "dateTime": 1519064877628}, {"current_trial": 205, "trialdata": {"rt": -1, "trial_type": "single-stim", "stimulus": "<p id=\"stim\">7</p>", "internal_node_id": "0.0-148.0-3.0", "time_elapsed": 1193098, "key_press": -1, "trial_index": 205}, "uniqueid": "MTK2556:3Y5140Z9DYNIBG6CU930H0L92IEPIW", "dateTime": 1519064878630}, {"current_trial": 206, "trialdata": {"rt": -1, "trial_type": "single-stim", "stimulus": "<p id=\"stim\">6</p>", "internal_node_id": "0.0-148.0-4.0", "time_elapsed": 1194099, "key_press": -1, "trial_index": 206}, "uniqueid": "MTK2556:3Y5140Z9DYNIBG6CU930H0L92IEPIW", "dateTime": 1519064879631}, {"current_trial": 207, "trialdata": {"rt": -1, "trial_type": "single-stim", "stimulus": "<p id=\"stim\">5</p>", "internal_node_id": "0.0-148.0-5.0", "time_elapsed": 1195099, "key_press": -1, "trial_index": 207}, "uniqueid": "MTK2556:3Y5140Z9DYNIBG6CU930H0L92IEPIW", "dateTime": 1519064880632}, {"current_trial": 208, "trialdata": {"rt": -1, "trial_type": "single-stim", "stimulus": "<p id=\"stim\">4</p>", "internal_node_id": "0.0-148.0-6.0", "time_elapsed": 1196100, "key_press": -1, "trial_index": 208}, "uniqueid": "MTK2556:3Y5140Z9DYNIBG6CU930H0L92IEPIW", "dateTime": 1519064881632}, {"current_trial": 209, "trialdata": {"rt": -1, "trial_type": "single-stim", "stimulus": "<p id=\"stim\">3</p>", "internal_node_id": "0.0-148.0-7.0", "time_elapsed": 1197102, "key_press": -1, "trial_index": 209}, "uniqueid": "MTK2556:3Y5140Z9DYNIBG6CU930H0L92IEPIW", "dateTime": 1519064882634}, {"current_trial": 210, "trialdata": {"rt": -1, "trial_type": "single-stim", "stimulus": "<p id=\"stim\">2</p>", "internal_node_id": "0.0-148.0-8.0", "time_elapsed": 1198103, "key_press": -1, "trial_index": 210}, "uniqueid": "MTK2556:3Y5140Z9DYNIBG6CU930H0L92IEPIW", "dateTime": 1519064883635}, {"current_trial": 211, "trialdata": {"rt": -1, "trial_type": "single-stim", "stimulus": "<p id=\"stim\">1</p>", "internal_node_id": "0.0-148.0-9.0", "time_elapsed": 1199104, "key_press": -1, "trial_index": 211}, "uniqueid": "MTK2556:3Y5140Z9DYNIBG6CU930H0L92IEPIW", "dateTime": 1519064884636}, {"current_trial": 212, "trialdata": {"rt": -1, "trial_type": "single-stim", "stimulus": "<p id=\"stim\">+</p>", "internal_node_id": "0.0-149.0-0.0", "time_elapsed": 1200606, "key_press": -1, "type": "FIXATION", "trial_index": 212}, "uniqueid": "MTK2556:3Y5140Z9DYNIBG6CU930H0L92IEPIW", "dateTime": 1519064886138}, {"current_trial": 213, "trialdata": {"rt": -1, "trial_type": "single-stim", "word": "wasp", "stimulus": "<p id=\"stim\">WASP</p>", "conditions": [12, 800, "v", 12000], "internal_node_id": "0.0-150.0", "trial": 6, "time_elapsed": 1201407, "serialpos": 0, "key_press": -1, "wordID": 1592, "type": "PRES_VIS", "trial_index": 213}, "uniqueid": "MTK2556:3Y5140Z9DYNIBG6CU930H0L92IEPIW", "dateTime": 1519064886939}, {"current_trial": 214, "trialdata": {"rt": -1, "trial_type": "single-stim", "word": "supper", "stimulus": "<p id=\"stim\">SUPPER</p>", "conditions": [12, 800, "v", 12000], "internal_node_id": "0.0-151.0", "trial": 6, "time_elapsed": 1203347, "serialpos": 1, "key_press": -1, "wordID": 1410, "type": "PRES_VIS", "trial_index": 214}, "uniqueid": "MTK2556:3Y5140Z9DYNIBG6CU930H0L92IEPIW", "dateTime": 1519064888879}, {"current_trial": 215, "trialdata": {"rt": -1, "trial_type": "single-stim", "word": "flute", "stimulus": "<p id=\"stim\">FLUTE</p>", "conditions": [12, 800, "v", 12000], "internal_node_id": "0.0-152.0", "trial": 6, "time_elapsed": 1205294, "serialpos": 2, "key_press": -1, "wordID": 584, "type": "PRES_VIS", "trial_index": 215}, "uniqueid": "MTK2556:3Y5140Z9DYNIBG6CU930H0L92IEPIW", "dateTime": 1519064890826}, {"current_trial": 216, "trialdata": {"rt": -1, "trial_type": "single-stim", "word": "dress", "stimulus": "<p id=\"stim\">DRESS</p>", "conditions": [12, 800, "v", 12000], "internal_node_id": "0.0-153.0", "trial": 6, "time_elapsed": 1206999, "serialpos": 3, "key_press": -1, "wordID": 494, "type": "PRES_VIS", "trial_index": 216}, "uniqueid": "MTK2556:3Y5140Z9DYNIBG6CU930H0L92IEPIW", "dateTime": 1519064892531}, {"current_trial": 217, "trialdata": {"rt": -1, "trial_type": "single-stim", "word": "blouse", "stimulus": "<p id=\"stim\">BLOUSE</p>", "conditions": [12, 800, "v", 12000], "internal_node_id": "0.0-154.0", "trial": 6, "time_elapsed": 1208782, "serialpos": 4, "key_press": -1, "wordID": 138, "type": "PRES_VIS", "trial_index": 217}, "uniqueid": "MTK2556:3Y5140Z9DYNIBG6CU930H0L92IEPIW", "dateTime": 1519064894315}, {"current_trial": 218, "trialdata": {"rt": -1, "trial_type": "single-stim", "word": "candy", "stimulus": "<p id=\"stim\">CANDY</p>", "conditions": [12, 800, "v", 12000], "internal_node_id": "0.0-155.0", "trial": 6, "time_elapsed": 1210410, "serialpos": 5, "key_press": -1, "wordID": 229, "type": "PRES_VIS", "trial_index": 218}, "uniqueid": "MTK2556:3Y5140Z9DYNIBG6CU930H0L92IEPIW", "dateTime": 1519064895943}, {"current_trial": 219, "trialdata": {"rt": -1, "trial_type": "single-stim", "word": "suspect", "stimulus": "<p id=\"stim\">SUSPECT</p>", "conditions": [12, 800, "v", 12000], "internal_node_id": "0.0-156.0", "trial": 6, "time_elapsed": 1212228, "serialpos": 6, "key_press": -1, "wordID": 1414, "type": "PRES_VIS", "trial_index": 219}, "uniqueid": "MTK2556:3Y5140Z9DYNIBG6CU930H0L92IEPIW", "dateTime": 1519064897760}, {"current_trial": 220, "trialdata": {"rt": -1, "trial_type": "single-stim", "word": "plaza", "stimulus": "<p id=\"stim\">PLAZA</p>", "conditions": [12, 800, "v", 12000], "internal_node_id": "0.0-157.0", "trial": 6, "time_elapsed": 1213938, "serialpos": 7, "key_press": -1, "wordID": 1087, "type": "PRES_VIS", "trial_index": 220}, "uniqueid": "MTK2556:3Y5140Z9DYNIBG6CU930H0L92IEPIW", "dateTime": 1519064899470}, {"current_trial": 221, "trialdata": {"rt": -1, "trial_type": "single-stim", "word": "pudding", "stimulus": "<p id=\"stim\">PUDDING</p>", "conditions": [12, 800, "v", 12000], "internal_node_id": "0.0-158.0", "trial": 6, "time_elapsed": 1215542, "serialpos": 8, "key_press": -1, "wordID": 1138, "type": "PRES_VIS", "trial_index": 221}, "uniqueid": "MTK2556:3Y5140Z9DYNIBG6CU930H0L92IEPIW", "dateTime": 1519064901074}, {"current_trial": 222, "trialdata": {"rt": -1, "trial_type": "single-stim", "word": "knife", "stimulus": "<p id=\"stim\">KNIFE</p>", "conditions": [12, 800, "v", 12000], "internal_node_id": "0.0-159.0", "trial": 6, "time_elapsed": 1217200, "serialpos": 9, "key_press": -1, "wordID": 784, "type": "PRES_VIS", "trial_index": 222}, "uniqueid": "MTK2556:3Y5140Z9DYNIBG6CU930H0L92IEPIW", "dateTime": 1519064902732}, {"current_trial": 223, "trialdata": {"rt": -1, "trial_type": "single-stim", "word": "iceberg", "stimulus": "<p id=\"stim\">ICEBERG</p>", "conditions": [12, 800, "v", 12000], "internal_node_id": "0.0-160.0", "trial": 6, "time_elapsed": 1219105, "serialpos": 10, "key_press": -1, "wordID": 730, "type": "PRES_VIS", "trial_index": 223}, "uniqueid": "MTK2556:3Y5140Z9DYNIBG6CU930H0L92IEPIW", "dateTime": 1519064904638}, {"current_trial": 224, "trialdata": {"rt": -1, "trial_type": "single-stim", "word": "banquet", "stimulus": "<p id=\"stim\">BANQUET</p>", "conditions": [12, 800, "v", 12000], "internal_node_id": "0.0-161.0", "trial": 6, "time_elapsed": 1221074, "serialpos": 11, "key_press": -1, "wordID": 85, "type": "PRES_VIS", "trial_index": 224}, "uniqueid": "MTK2556:3Y5140Z9DYNIBG6CU930H0L92IEPIW", "dateTime": 1519064906606}, {"current_trial": 225, "trialdata": {"rt": -1, "trial_type": "single-stim", "stimulus": "", "internal_node_id": "0.0-162.0-0.0", "time_elapsed": 1223506, "key_press": -1, "type": "PRE_RECALL_DELAY", "trial_index": 225}, "uniqueid": "MTK2556:3Y5140Z9DYNIBG6CU930H0L92IEPIW", "dateTime": 1519064909038}, {"current_trial": 226, "trialdata": {"rt": -1000, "trial_type": "single-audio", "stimulus": "/static/audio/400Hz.wav", "internal_node_id": "0.0-163.0", "time_elapsed": 1224008, "key_press": -1, "type": "PRE_RECALL_ALERT", "trial_index": 226}, "uniqueid": "MTK2556:3Y5140Z9DYNIBG6CU930H0L92IEPIW", "dateTime": 1519064909540}, {"current_trial": 227, "trialdata": {"rt": [2719, 4603, 6895, 8503, 10673, 14521, 30571], "recwords": ["supper", "candy", "wasp", "dress", "blouse", "banquet", "supper"], "key_times": [1043, 1192, 1492, 1662, 1819, 2119, 2719, 3258, 3585, 3716, 3856, 4102, 4603, 5984, 6210, 6245, 6505, 6895, 7363, 7641, 7802, 8050, 8172, 8503, 9373, 9640, 9853, 10066, 10241, 10436, 10673, 11291, 11476, 11610, 12571, 12881, 13123, 13443, 14521, 29004, 29284, 29612, 29778, 29915, 30160, 30571], "trial_type": "free-recall", "conditions": [12, 800, "v", 12000], "internal_node_id": "0.0-164.0-0.0", "key_presses": [83, 85, 80, 80, 69, 82, 13, 67, 65, 78, 68, 89, 13, 87, 65, 83, 80, 13, 68, 82, 69, 83, 83, 13, 66, 76, 79, 85, 83, 69, 13, 66, 65, 78, 81, 85, 69, 84, 13, 83, 85, 80, 80, 69, 82, 13], "trial": 6, "time_elapsed": 1284011, "type": "FREE_RECALL", "trial_index": 227}, "uniqueid": "MTK2556:3Y5140Z9DYNIBG6CU930H0L92IEPIW", "dateTime": 1519064969547}, {"current_trial": 228, "trialdata": {"rt": 1520, "trial_type": "text", "internal_node_id": "0.0-165.0", "time_elapsed": 1287535, "key_press": 69, "type": "INSTRUCTIONS", "trial_index": 228}, "uniqueid": "MTK2556:3Y5140Z9DYNIBG6CU930H0L92IEPIW", "dateTime": 1519064973067}, {"current_trial": 229, "trialdata": {"rt": [5338, 12348, 19355, 23469], "trial_type": "math-distractor", "key_times": [4832, 5338, 11785, 12060, 12348, 19106, 19237, 19355, 23312, 23469], "responses": ["9", "23", "22", "8"], "num2": [1, 7, 9, 6, 8], "num3": [5, 7, 7, 1, 4], "conditions": [24, 800, "v", 24000], "internal_node_id": "0.0-166.0", "key_presses": [57, 13, 50, 51, 13, 50, 50, 13, 56, 13], "trial": 7, "time_elapsed": 1313538, "type": "DISTRACTOR", "trial_index": 229, "num1": [3, 9, 8, 1, 5]}, "uniqueid": "MTK2556:3Y5140Z9DYNIBG6CU930H0L92IEPIW", "dateTime": 1519064999070}, {"current_trial": 230, "trialdata": {"rt": -1, "trial_type": "single-stim", "stimulus": "<p id=\"stim\">10</p>", "internal_node_id": "0.0-167.0-0.0", "time_elapsed": 1316539, "key_press": -1, "trial_index": 230}, "uniqueid": "MTK2556:3Y5140Z9DYNIBG6CU930H0L92IEPIW", "dateTime": 1519065002072}, {"current_trial": 231, "trialdata": {"rt": -1, "trial_type": "single-stim", "stimulus": "<p id=\"stim\">9</p>", "internal_node_id": "0.0-167.0-1.0", "time_elapsed": 1317541, "key_press": -1, "trial_index": 231}, "uniqueid": "MTK2556:3Y5140Z9DYNIBG6CU930H0L92IEPIW", "dateTime": 1519065003073}, {"current_trial": 232, "trialdata": {"rt": -1, "trial_type": "single-stim", "stimulus": "<p id=\"stim\">8</p>", "internal_node_id": "0.0-167.0-2.0", "time_elapsed": 1318542, "key_press": -1, "trial_index": 232}, "uniqueid": "MTK2556:3Y5140Z9DYNIBG6CU930H0L92IEPIW", "dateTime": 1519065004074}, {"current_trial": 233, "trialdata": {"rt": -1, "trial_type": "single-stim", "stimulus": "<p id=\"stim\">7</p>", "internal_node_id": "0.0-167.0-3.0", "time_elapsed": 1319543, "key_press": -1, "trial_index": 233}, "uniqueid": "MTK2556:3Y5140Z9DYNIBG6CU930H0L92IEPIW", "dateTime": 1519065005076}, {"current_trial": 234, "trialdata": {"rt": -1, "trial_type": "single-stim", "stimulus": "<p id=\"stim\">6</p>", "internal_node_id": "0.0-167.0-4.0", "time_elapsed": 1320545, "key_press": -1, "trial_index": 234}, "uniqueid": "MTK2556:3Y5140Z9DYNIBG6CU930H0L92IEPIW", "dateTime": 1519065006077}, {"current_trial": 235, "trialdata": {"rt": -1, "trial_type": "single-stim", "stimulus": "<p id=\"stim\">5</p>", "internal_node_id": "0.0-167.0-5.0", "time_elapsed": 1321546, "key_press": -1, "trial_index": 235}, "uniqueid": "MTK2556:3Y5140Z9DYNIBG6CU930H0L92IEPIW", "dateTime": 1519065007078}, {"current_trial": 236, "trialdata": {"rt": -1, "trial_type": "single-stim", "stimulus": "<p id=\"stim\">4</p>", "internal_node_id": "0.0-167.0-6.0", "time_elapsed": 1322546, "key_press": -1, "trial_index": 236}, "uniqueid": "MTK2556:3Y5140Z9DYNIBG6CU930H0L92IEPIW", "dateTime": 1519065008079}, {"current_trial": 237, "trialdata": {"rt": -1, "trial_type": "single-stim", "stimulus": "<p id=\"stim\">3</p>", "internal_node_id": "0.0-167.0-7.0", "time_elapsed": 1323548, "key_press": -1, "trial_index": 237}, "uniqueid": "MTK2556:3Y5140Z9DYNIBG6CU930H0L92IEPIW", "dateTime": 1519065009080}, {"current_trial": 238, "trialdata": {"rt": -1, "trial_type": "single-stim", "stimulus": "<p id=\"stim\">2</p>", "internal_node_id": "0.0-167.0-8.0", "time_elapsed": 1324549, "key_press": -1, "trial_index": 238}, "uniqueid": "MTK2556:3Y5140Z9DYNIBG6CU930H0L92IEPIW", "dateTime": 1519065010081}, {"current_trial": 239, "trialdata": {"rt": -1, "trial_type": "single-stim", "stimulus": "<p id=\"stim\">1</p>", "internal_node_id": "0.0-167.0-9.0", "time_elapsed": 1325550, "key_press": -1, "trial_index": 239}, "uniqueid": "MTK2556:3Y5140Z9DYNIBG6CU930H0L92IEPIW", "dateTime": 1519065011083}, {"current_trial": 240, "trialdata": {"rt": -1, "trial_type": "single-stim", "stimulus": "<p id=\"stim\">+</p>", "internal_node_id": "0.0-168.0-0.0", "time_elapsed": 1327052, "key_press": -1, "type": "FIXATION", "trial_index": 240}, "uniqueid": "MTK2556:3Y5140Z9DYNIBG6CU930H0L92IEPIW", "dateTime": 1519065012584}, {"current_trial": 241, "trialdata": {"rt": -1, "trial_type": "single-stim", "word": "laser", "stimulus": "<p id=\"stim\">LASER</p>", "conditions": [24, 800, "v", 24000], "internal_node_id": "0.0-169.0", "trial": 7, "time_elapsed": 1327853, "serialpos": 0, "key_press": -1, "wordID": 800, "type": "PRES_VIS", "trial_index": 241}, "uniqueid": "MTK2556:3Y5140Z9DYNIBG6CU930H0L92IEPIW", "dateTime": 1519065013385}, {"current_trial": 242, "trialdata": {"rt": -1, "trial_type": "single-stim", "word": "comet", "stimulus": "<p id=\"stim\">COMET</p>", "conditions": [24, 800, "v", 24000], "internal_node_id": "0.0-170.0", "trial": 7, "time_elapsed": 1329712, "serialpos": 1, "key_press": -1, "wordID": 352, "type": "PRES_VIS", "trial_index": 242}, "uniqueid": "MTK2556:3Y5140Z9DYNIBG6CU930H0L92IEPIW", "dateTime": 1519065015244}, {"current_trial": 243, "trialdata": {"rt": -1, "trial_type": "single-stim", "word": "shortcake", "stimulus": "<p id=\"stim\">SHORTCAKE</p>", "conditions": [24, 800, "v", 24000], "internal_node_id": "0.0-171.0", "trial": 7, "time_elapsed": 1331415, "serialpos": 2, "key_press": -1, "wordID": 1291, "type": "PRES_VIS", "trial_index": 243}, "uniqueid": "MTK2556:3Y5140Z9DYNIBG6CU930H0L92IEPIW", "dateTime": 1519065016947}, {"current_trial": 244, "trialdata": {"rt": -1, "trial_type": "single-stim", "word": "chest", "stimulus": "<p id=\"stim\">CHEST</p>", "conditions": [24, 800, "v", 24000], "internal_node_id": "0.0-172.0", "trial": 7, "time_elapsed": 1333405, "serialpos": 3, "key_press": -1, "wordID": 294, "type": "PRES_VIS", "trial_index": 244}, "uniqueid": "MTK2556:3Y5140Z9DYNIBG6CU930H0L92IEPIW", "dateTime": 1519065018937}, {"current_trial": 245, "trialdata": {"rt": -1, "trial_type": "single-stim", "word": "denim", "stimulus": "<p id=\"stim\">DENIM</p>", "conditions": [24, 800, "v", 24000], "internal_node_id": "0.0-173.0", "trial": 7, "time_elapsed": 1335393, "serialpos": 4, "key_press": -1, "wordID": 445, "type": "PRES_VIS", "trial_index": 245}, "uniqueid": "MTK2556:3Y5140Z9DYNIBG6CU930H0L92IEPIW", "dateTime": 1519065020925}, {"current_trial": 246, "trialdata": {"rt": -1, "trial_type": "single-stim", "word": "honey", "stimulus": "<p id=\"stim\">HONEY</p>", "conditions": [24, 800, "v", 24000], "internal_node_id": "0.0-174.0", "trial": 7, "time_elapsed": 1337368, "serialpos": 5, "key_press": -1, "wordID": 712, "type": "PRES_VIS", "trial_index": 246}, "uniqueid": "MTK2556:3Y5140Z9DYNIBG6CU930H0L92IEPIW", "dateTime": 1519065022900}, {"current_trial": 247, "trialdata": {"rt": -1, "trial_type": "single-stim", "word": "milk", "stimulus": "<p id=\"stim\">MILK</p>", "conditions": [24, 800, "v", 24000], "internal_node_id": "0.0-175.0", "trial": 7, "time_elapsed": 1339343, "serialpos": 6, "key_press": -1, "wordID": 894, "type": "PRES_VIS", "trial_index": 247}, "uniqueid": "MTK2556:3Y5140Z9DYNIBG6CU930H0L92IEPIW", "dateTime": 1519065024875}, {"current_trial": 248, "trialdata": {"rt": -1, "trial_type": "single-stim", "word": "plaid", "stimulus": "<p id=\"stim\">PLAID</p>", "conditions": [24, 800, "v", 24000], "internal_node_id": "0.0-176.0", "trial": 7, "time_elapsed": 1341105, "serialpos": 7, "key_press": -1, "wordID": 1079, "type": "PRES_VIS", "trial_index": 248}, "uniqueid": "MTK2556:3Y5140Z9DYNIBG6CU930H0L92IEPIW", "dateTime": 1519065026637}, {"current_trial": 249, "trialdata": {"rt": -1, "trial_type": "single-stim", "word": "rug", "stimulus": "<p id=\"stim\">RUG</p>", "conditions": [24, 800, "v", 24000], "internal_node_id": "0.0-177.0", "trial": 7, "time_elapsed": 1342792, "serialpos": 8, "key_press": -1, "wordID": 1214, "type": "PRES_VIS", "trial_index": 249}, "uniqueid": "MTK2556:3Y5140Z9DYNIBG6CU930H0L92IEPIW", "dateTime": 1519065028324}, {"current_trial": 250, "trialdata": {"rt": -1, "trial_type": "single-stim", "word": "stove", "stimulus": "<p id=\"stim\">STOVE</p>", "conditions": [24, 800, "v", 24000], "internal_node_id": "0.0-178.0", "trial": 7, "time_elapsed": 1344516, "serialpos": 9, "key_press": -1, "wordID": 1387, "type": "PRES_VIS", "trial_index": 250}, "uniqueid": "MTK2556:3Y5140Z9DYNIBG6CU930H0L92IEPIW", "dateTime": 1519065030048}, {"current_trial": 251, "trialdata": {"rt": -1, "trial_type": "single-stim", "word": "wrist", "stimulus": "<p id=\"stim\">WRIST</p>", "conditions": [24, 800, "v", 24000], "internal_node_id": "0.0-179.0", "trial": 7, "time_elapsed": 1346179, "serialpos": 10, "key_press": -1, "wordID": 1625, "type": "PRES_VIS", "trial_index": 251}, "uniqueid": "MTK2556:3Y5140Z9DYNIBG6CU930H0L92IEPIW", "dateTime": 1519065031711}, {"current_trial": 252, "trialdata": {"rt": -1, "trial_type": "single-stim", "word": "stallion", "stimulus": "<p id=\"stim\">STALLION</p>", "conditions": [24, 800, "v", 24000], "internal_node_id": "0.0-180.0", "trial": 7, "time_elapsed": 1348007, "serialpos": 11, "key_press": -1, "wordID": 1368, "type": "PRES_VIS", "trial_index": 252}, "uniqueid": "MTK2556:3Y5140Z9DYNIBG6CU930H0L92IEPIW", "dateTime": 1519065033539}, {"current_trial": 253, "trialdata": {"rt": -1, "trial_type": "single-stim", "word": "statue", "stimulus": "<p id=\"stim\">STATUE</p>", "conditions": [24, 800, "v", 24000], "internal_node_id": "0.0-181.0", "trial": 7, "time_elapsed": 1349685, "serialpos": 12, "key_press": -1, "wordID": 1373, "type": "PRES_VIS", "trial_index": 253}, "uniqueid": "MTK2556:3Y5140Z9DYNIBG6CU930H0L92IEPIW", "dateTime": 1519065035217}, {"current_trial": 254, "trialdata": {"rt": -1, "trial_type": "single-stim", "word": "female", "stimulus": "<p id=\"stim\">FEMALE</p>", "conditions": [24, 800, "v", 24000], "internal_node_id": "0.0-182.0", "trial": 7, "time_elapsed": 1351631, "serialpos": 13, "key_press": -1, "wordID": 558, "type": "PRES_VIS", "trial_index": 254}, "uniqueid": "MTK2556:3Y5140Z9DYNIBG6CU930H0L92IEPIW", "dateTime": 1519065037163}, {"current_trial": 255, "trialdata": {"rt": -1, "trial_type": "single-stim", "word": "snack", "stimulus": "<p id=\"stim\">SNACK</p>", "conditions": [24, 800, "v", 24000], "internal_node_id": "0.0-183.0", "trial": 7, "time_elapsed": 1353357, "serialpos": 14, "key_press": -1, "wordID": 1330, "type": "PRES_VIS", "trial_index": 255}, "uniqueid": "MTK2556:3Y5140Z9DYNIBG6CU930H0L92IEPIW", "dateTime": 1519065038889}, {"current_trial": 256, "trialdata": {"rt": -1, "trial_type": "single-stim", "word": "turtle", "stimulus": "<p id=\"stim\">TURTLE</p>", "conditions": [24, 800, "v", 24000], "internal_node_id": "0.0-184.0", "trial": 7, "time_elapsed": 1355089, "serialpos": 15, "key_press": -1, "wordID": 1521, "type": "PRES_VIS", "trial_index": 256}, "uniqueid": "MTK2556:3Y5140Z9DYNIBG6CU930H0L92IEPIW", "dateTime": 1519065040622}, {"current_trial": 257, "trialdata": {"rt": -1, "trial_type": "single-stim", "word": "globe", "stimulus": "<p id=\"stim\">GLOBE</p>", "conditions": [24, 800, "v", 24000], "internal_node_id": "0.0-185.0", "trial": 7, "time_elapsed": 1357042, "serialpos": 16, "key_press": -1, "wordID": 640, "type": "PRES_VIS", "trial_index": 257}, "uniqueid": "MTK2556: