{"assignmentId": "3NQL1CS15SFH60IDK3Y29G4FCMKVYS", "workerId": "MTK2153", "questiondata": {"origin": "United States", "strat-rehearsal": "76", "marital": "Married/Domestic Partnership", "education": "Some college", "ethnicity": "Not Hispanic", "color_depth": 24, "distracted": "No", "wrote-notes": "No", "strat-other": "I tried to create pictures building on the words. Like a girl in a dress near lava eating grapes and salmon.", "screen_width": 1536, "avail_screen_width": 1536, "avail_screen_height": 824, "strat-image": "37", "language": "english", "gender": "Female", "age": "30", "gender_other": "", "race": ["White"], "strat-categorize": "75", "pixel_depth": 24, "strat-spatial": "0", "strat-story": "86", "race_other": "", "screen_height": 864}, "bonus": 0, "hitId": "31KSVEGZ34ZJ14826G62Y2YCYM7RWV", "counterbalance": 2559, "useragent": "Mozilla/5.0 (Windows NT 10.0; Win64; x64) AppleWebKit/537.36 (KHTML, like Gecko) Chrome/63.0.3239.132 Safari/537.36", "eventdata": [{"eventtype": "initialized", "interval": 0, "value": null, "timestamp": 1516750297453}, {"eventtype": "window_resize", "interval": 0, "value": [1540, 816], "timestamp": 1516750297453}, {"eventtype": "focus", "interval": 934193, "value": "off", "timestamp": 1516751231646}, {"eventtype": "focus", "interval": 4778, "value": "on", "timestamp": 1516751236424}, {"eventtype": "focus", "interval": 249773, "value": "off", "timestamp": 1516751486197}, {"eventtype": "focus", "interval": 2813, "value": "on", "timestamp": 1516751489010}, {"eventtype": "focus", "interval": 150653, "value": "off", "timestamp": 1516751639663}, {"eventtype": "focus", "interval": 13652, "value": "on", "timestamp": 1516751653315}, {"eventtype": "focus", "interval": 115560, "value": "off", "timestamp": 1516751768875}, {"eventtype": "focus", "interval": 4406, "value": "on", "timestamp": 1516751773281}, {"eventtype": "focus", "interval": 436744, "value": "off", "timestamp": 1516752210025}, {"eventtype": "focus", "interval": 4149, "value": "on", "timestamp": 1516752214174}, {"eventtype": "focus", "interval": 253158, "value": "off", "timestamp": 1516752467332}, {"eventtype": "focus", "interval": 3370, "value": "on", "timestamp": 1516752470702}, {"eventtype": "focus", "interval": 304458, "value": "off", "timestamp": 1516752775160}, {"eventtype": "focus", "interval": 2541, "value": "on", "timestamp": 1516752777701}], "data": [{"current_trial": 0, "trialdata": {"rt": 3139, "trial_type": "text", "internal_node_id": "0.0-0.0", "time_elapsed": 3141, "key_press": 13, "type": "INSTRUCTIONS", "trial_index": 0}, "uniqueid": "MTK2153:3NQL1CS15SFH60IDK3Y29G4FCMKVYS", "dateTime": 1516750301147}, {"current_trial": 1, "trialdata": {"rt": 25310, "trial_type": "text", "internal_node_id": "0.0-1.0", "time_elapsed": 28452, "key_press": 13, "type": "INSTRUCTIONS", "trial_index": 1}, "uniqueid": "MTK2153:3NQL1CS15SFH60IDK3Y29G4FCMKVYS", "dateTime": 1516750326458}, {"current_trial": 2, "trialdata": {"rt": [13155], "trial_type": "audio-test", "responses": ["ocean"], "internal_node_id": "0.0-2.0", "time_elapsed": 41615, "type": "AUDIO_TEST", "trial_index": 2}, "uniqueid": "MTK2153:3NQL1CS15SFH60IDK3Y29G4FCMKVYS", "dateTime": 1516750339621}, {"current_trial": 3, "trialdata": {"rt": [7064], "trial_type": "audio-test", "responses": ["crystal"], "internal_node_id": "0.0-3.0", "time_elapsed": 48682, "type": "AUDIO_TEST", "trial_index": 3}, "uniqueid": "MTK2153:3NQL1CS15SFH60IDK3Y29G4FCMKVYS", "dateTime": 1516750346688}, {"current_trial": 4, "trialdata": {"rt": [6439], "trial_type": "audio-test", "responses": ["spice"], "internal_node_id": "0.0-4.0", "time_elapsed": 55123, "type": "AUDIO_TEST", "trial_index": 4}, "uniqueid": "MTK2153:3NQL1CS15SFH60IDK3Y29G4FCMKVYS", "dateTime": 1516750353129}, {"current_trial": 5, "trialdata": {"rt": 29161, "trial_type": "survey-text", "responses": "{\"Q0\":\"7:00pm\",\"Q1\":\"6:00am\",\"Q2\":\"3\"}", "internal_node_id": "0.0-5.0", "time_elapsed": 85038, "type": "SLEEP_SURVEY", "trial_index": 5}, "uniqueid": "MTK2153:3NQL1CS15SFH60IDK3Y29G4FCMKVYS", "dateTime": 1516750383044}, {"current_trial": 6, "trialdata": {"rt": 54972, "trial_type": "text", "internal_node_id": "0.0-6.0", "time_elapsed": 141011, "key_press": 13, "type": "INSTRUCTIONS", "trial_index": 6}, "uniqueid": "MTK2153:3NQL1CS15SFH60IDK3Y29G4FCMKVYS", "dateTime": 1516750439017}, {"current_trial": 7, "trialdata": {"rt": 8135, "trial_type": "text", "internal_node_id": "0.0-7.0", "time_elapsed": 149647, "key_press": 13, "type": "INSTRUCTIONS", "trial_index": 7}, "uniqueid": "MTK2153:3NQL1CS15SFH60IDK3Y29G4FCMKVYS", "dateTime": 1516750447653}, {"current_trial": 8, "trialdata": {"rt": 4417, "trial_type": "text", "internal_node_id": "0.0-8.0", "time_elapsed": 154566, "key_press": 13, "type": "INSTRUCTIONS", "trial_index": 8}, "uniqueid": "MTK2153:3NQL1CS15SFH60IDK3Y29G4FCMKVYS", "dateTime": 1516750452572}, {"current_trial": 9, "trialdata": {"rt": [5074, 13731], "trial_type": "math-distractor", "key_times": [4553, 4616, 5074, 13409, 13489, 13731], "responses": ["13", "20"], "num2": [4, 4, 8], "num3": [5, 9, 8], "conditions": [18, 1200, "v", 18000], "internal_node_id": "0.0-9.0", "key_presses": [97, 99, 13, 98, 96, 13], "trial": 0, "time_elapsed": 173570, "type": "DISTRACTOR", "trial_index": 9, "num1": [4, 7, 8]}, "uniqueid": "MTK2153:3NQL1CS15SFH60IDK3Y29G4FCMKVYS", "dateTime": 1516750471576}, {"current_trial": 10, "trialdata": {"rt": -1, "trial_type": "single-stim", "stimulus": "<p id=\"stim\">10</p>", "internal_node_id": "0.0-10.0-0.0", "time_elapsed": 176573, "key_press": -1, "trial_index": 10}, "uniqueid": "MTK2153:3NQL1CS15SFH60IDK3Y29G4FCMKVYS", "dateTime": 1516750474579}, {"current_trial": 11, "trialdata": {"rt": -1, "trial_type": "single-stim", "stimulus": "<p id=\"stim\">9</p>", "internal_node_id": "0.0-10.0-1.0", "time_elapsed": 177575, "key_press": -1, "trial_index": 11}, "uniqueid": "MTK2153:3NQL1CS15SFH60IDK3Y29G4FCMKVYS", "dateTime": 1516750475581}, {"current_trial": 12, "trialdata": {"rt": -1, "trial_type": "single-stim", "stimulus": "<p id=\"stim\">8</p>", "internal_node_id": "0.0-10.0-2.0", "time_elapsed": 178577, "key_press": -1, "trial_index": 12}, "uniqueid": "MTK2153:3NQL1CS15SFH60IDK3Y29G4FCMKVYS", "dateTime": 1516750476583}, {"current_trial": 13, "trialdata": {"rt": -1, "trial_type": "single-stim", "stimulus": "<p id=\"stim\">7</p>", "internal_node_id": "0.0-10.0-3.0", "time_elapsed": 179578, "key_press": -1, "trial_index": 13}, "uniqueid": "MTK2153:3NQL1CS15SFH60IDK3Y29G4FCMKVYS", "dateTime": 1516750477584}, {"current_trial": 14, "trialdata": {"rt": -1, "trial_type": "single-stim", "stimulus": "<p id=\"stim\">6</p>", "internal_node_id": "0.0-10.0-4.0", "time_elapsed": 180580, "key_press": -1, "trial_index": 14}, "uniqueid": "MTK2153:3NQL1CS15SFH60IDK3Y29G4FCMKVYS", "dateTime": 1516750478586}, {"current_trial": 15, "trialdata": {"rt": -1, "trial_type": "single-stim", "stimulus": "<p id=\"stim\">5</p>", "internal_node_id": "0.0-10.0-5.0", "time_elapsed": 181581, "key_press": -1, "trial_index": 15}, "uniqueid": "MTK2153:3NQL1CS15SFH60IDK3Y29G4FCMKVYS", "dateTime": 1516750479587}, {"current_trial": 16, "trialdata": {"rt": -1, "trial_type": "single-stim", "stimulus": "<p id=\"stim\">4</p>", "internal_node_id": "0.0-10.0-6.0", "time_elapsed": 182583, "key_press": -1, "trial_index": 16}, "uniqueid": "MTK2153:3NQL1CS15SFH60IDK3Y29G4FCMKVYS", "dateTime": 1516750480589}, {"current_trial": 17, "trialdata": {"rt": -1, "trial_type": "single-stim", "stimulus": "<p id=\"stim\">3</p>", "internal_node_id": "0.0-10.0-7.0", "time_elapsed": 183586, "key_press": -1, "trial_index": 17}, "uniqueid": "MTK2153:3NQL1CS15SFH60IDK3Y29G4FCMKVYS", "dateTime": 1516750481592}, {"current_trial": 18, "trialdata": {"rt": -1, "trial_type": "single-stim", "stimulus": "<p id=\"stim\">2</p>", "internal_node_id": "0.0-10.0-8.0", "time_elapsed": 184587, "key_press": -1, "trial_index": 18}, "uniqueid": "MTK2153:3NQL1CS15SFH60IDK3Y29G4FCMKVYS", "dateTime": 1516750482593}, {"current_trial": 19, "trialdata": {"rt": -1, "trial_type": "single-stim", "stimulus": "<p id=\"stim\">1</p>", "internal_node_id": "0.0-10.0-9.0", "time_elapsed": 185587, "key_press": -1, "trial_index": 19}, "uniqueid": "MTK2153:3NQL1CS15SFH60IDK3Y29G4FCMKVYS", "dateTime": 1516750483593}, {"current_trial": 20, "trialdata": {"rt": -1, "trial_type": "single-stim", "stimulus": "<p id=\"stim\">+</p>", "internal_node_id": "0.0-11.0-0.0", "time_elapsed": 187089, "key_press": -1, "type": "FIXATION", "trial_index": 20}, "uniqueid": "MTK2153:3NQL1CS15SFH60IDK3Y29G4FCMKVYS", "dateTime": 1516750485095}, {"current_trial": 21, "trialdata": {"rt": -1, "trial_type": "single-stim", "word": "motor", "stimulus": "<p id=\"stim\">MOTOR</p>", "conditions": [18, 1200, "v", 18000], "internal_node_id": "0.0-12.0", "trial": 0, "time_elapsed": 188291, "serialpos": 0, "key_press": -1, "wordID": 921, "type": "PRES_VIS", "trial_index": 21}, "uniqueid": "MTK2153:3NQL1CS15SFH60IDK3Y29G4FCMKVYS", "dateTime": 1516750486297}, {"current_trial": 22, "trialdata": {"rt": -1, "trial_type": "single-stim", "word": "zipper", "stimulus": "<p id=\"stim\">ZIPPER</p>", "conditions": [18, 1200, "v", 18000], "internal_node_id": "0.0-13.0", "trial": 0, "time_elapsed": 190455, "serialpos": 1, "key_press": -1, "wordID": 1635, "type": "PRES_VIS", "trial_index": 22}, "uniqueid": "MTK2153:3NQL1CS15SFH60IDK3Y29G4FCMKVYS", "dateTime": 1516750488461}, {"current_trial": 23, "trialdata": {"rt": -1, "trial_type": "single-stim", "word": "plaza", "stimulus": "<p id=\"stim\">PLAZA</p>", "conditions": [18, 1200, "v", 18000], "internal_node_id": "0.0-14.0", "trial": 0, "time_elapsed": 192689, "serialpos": 2, "key_press": -1, "wordID": 1087, "type": "PRES_VIS", "trial_index": 23}, "uniqueid": "MTK2153:3NQL1CS15SFH60IDK3Y29G4FCMKVYS", "dateTime": 1516750490695}, {"current_trial": 24, "trialdata": {"rt": -1, "trial_type": "single-stim", "word": "goblin", "stimulus": "<p id=\"stim\">GOBLIN</p>", "conditions": [18, 1200, "v", 18000], "internal_node_id": "0.0-15.0", "trial": 0, "time_elapsed": 195072, "serialpos": 3, "key_press": -1, "wordID": 644, "type": "PRES_VIS", "trial_index": 24}, "uniqueid": "MTK2153:3NQL1CS15SFH60IDK3Y29G4FCMKVYS", "dateTime": 1516750493078}, {"current_trial": 25, "trialdata": {"rt": -1, "trial_type": "single-stim", "word": "fleet", "stimulus": "<p id=\"stim\">FLEET</p>", "conditions": [18, 1200, "v", 18000], "internal_node_id": "0.0-16.0", "trial": 0, "time_elapsed": 197419, "serialpos": 4, "key_press": -1, "wordID": 577, "type": "PRES_VIS", "trial_index": 25}, "uniqueid": "MTK2153:3NQL1CS15SFH60IDK3Y29G4FCMKVYS", "dateTime": 1516750495425}, {"current_trial": 26, "trialdata": {"rt": -1, "trial_type": "single-stim", "word": "garden", "stimulus": "<p id=\"stim\">GARDEN</p>", "conditions": [18, 1200, "v", 18000], "internal_node_id": "0.0-17.0", "trial": 0, "time_elapsed": 199460, "serialpos": 5, "key_press": -1, "wordID": 622, "type": "PRES_VIS", "trial_index": 26}, "uniqueid": "MTK2153:3NQL1CS15SFH60IDK3Y29G4FCMKVYS", "dateTime": 1516750497466}, {"current_trial": 27, "trialdata": {"rt": -1, "trial_type": "single-stim", "word": "xerox", "stimulus": "<p id=\"stim\">XEROX</p>", "conditions": [18, 1200, "v", 18000], "internal_node_id": "0.0-18.0", "trial": 0, "time_elapsed": 201821, "serialpos": 6, "key_press": -1, "wordID": 1627, "type": "PRES_VIS", "trial_index": 27}, "uniqueid": "MTK2153:3NQL1CS15SFH60IDK3Y29G4FCMKVYS", "dateTime": 1516750499827}, {"current_trial": 28, "trialdata": {"rt": -1, "trial_type": "single-stim", "word": "salt", "stimulus": "<p id=\"stim\">SALT</p>", "conditions": [18, 1200, "v", 18000], "internal_node_id": "0.0-19.0", "trial": 0, "time_elapsed": 203848, "serialpos": 7, "key_press": -1, "wordID": 1228, "type": "PRES_VIS", "trial_index": 28}, "uniqueid": "MTK2153:3NQL1CS15SFH60IDK3Y29G4FCMKVYS", "dateTime": 1516750501854}, {"current_trial": 29, "trialdata": {"rt": -1, "trial_type": "single-stim", "word": "bunny", "stimulus": "<p id=\"stim\">BUNNY</p>", "conditions": [18, 1200, "v", 18000], "internal_node_id": "0.0-20.0", "trial": 0, "time_elapsed": 205965, "serialpos": 8, "key_press": -1, "wordID": 197, "type": "PRES_VIS", "trial_index": 29}, "uniqueid": "MTK2153:3NQL1CS15SFH60IDK3Y29G4FCMKVYS", "dateTime": 1516750503971}, {"current_trial": 30, "trialdata": {"rt": -1, "trial_type": "single-stim", "word": "keeper", "stimulus": "<p id=\"stim\">KEEPER</p>", "conditions": [18, 1200, "v", 18000], "internal_node_id": "0.0-21.0", "trial": 0, "time_elapsed": 208051, "serialpos": 9, "key_press": -1, "wordID": 768, "type": "PRES_VIS", "trial_index": 30}, "uniqueid": "MTK2153:3NQL1CS15SFH60IDK3Y29G4FCMKVYS", "dateTime": 1516750506057}, {"current_trial": 31, "trialdata": {"rt": -1, "trial_type": "single-stim", "word": "donkey", "stimulus": "<p id=\"stim\">DONKEY</p>", "conditions": [18, 1200, "v", 18000], "internal_node_id": "0.0-22.0", "trial": 0, "time_elapsed": 210337, "serialpos": 10, "key_press": -1, "wordID": 483, "type": "PRES_VIS", "trial_index": 31}, "uniqueid": "MTK2153:3NQL1CS15SFH60IDK3Y29G4FCMKVYS", "dateTime": 1516750508343}, {"current_trial": 32, "trialdata": {"rt": -1, "trial_type": "single-stim", "word": "college", "stimulus": "<p id=\"stim\">COLLEGE</p>", "conditions": [18, 1200, "v", 18000], "internal_node_id": "0.0-23.0", "trial": 0, "time_elapsed": 212611, "serialpos": 11, "key_press": -1, "wordID": 345, "type": "PRES_VIS", "trial_index": 32}, "uniqueid": "MTK2153:3NQL1CS15SFH60IDK3Y29G4FCMKVYS", "dateTime": 1516750510617}, {"current_trial": 33, "trialdata": {"rt": -1, "trial_type": "single-stim", "word": "chemist", "stimulus": "<p id=\"stim\">CHEMIST</p>", "conditions": [18, 1200, "v", 18000], "internal_node_id": "0.0-24.0", "trial": 0, "time_elapsed": 214798, "serialpos": 12, "key_press": -1, "wordID": 291, "type": "PRES_VIS", "trial_index": 33}, "uniqueid": "MTK2153:3NQL1CS15SFH60IDK3Y29G4FCMKVYS", "dateTime": 1516750512804}, {"current_trial": 34, "trialdata": {"rt": -1, "trial_type": "single-stim", "word": "contract", "stimulus": "<p id=\"stim\">CONTRACT</p>", "conditions": [18, 1200, "v", 18000], "internal_node_id": "0.0-25.0", "trial": 0, "time_elapsed": 216802, "serialpos": 13, "key_press": -1, "wordID": 367, "type": "PRES_VIS", "trial_index": 34}, "uniqueid": "MTK2153:3NQL1CS15SFH60IDK3Y29G4FCMKVYS", "dateTime": 1516750514809}, {"current_trial": 35, "trialdata": {"rt": -1, "trial_type": "single-stim", "word": "belly", "stimulus": "<p id=\"stim\">BELLY</p>", "conditions": [18, 1200, "v", 18000], "internal_node_id": "0.0-26.0", "trial": 0, "time_elapsed": 219006, "serialpos": 14, "key_press": -1, "wordID": 118, "type": "PRES_VIS", "trial_index": 35}, "uniqueid": "MTK2153:3NQL1CS15SFH60IDK3Y29G4FCMKVYS", "dateTime": 1516750517012}, {"current_trial": 36, "trialdata": {"rt": -1, "trial_type": "single-stim", "word": "toaster", "stimulus": "<p id=\"stim\">TOASTER</p>", "conditions": [18, 1200, "v", 18000], "internal_node_id": "0.0-27.0", "trial": 0, "time_elapsed": 221013, "serialpos": 15, "key_press": -1, "wordID": 1471, "type": "PRES_VIS", "trial_index": 36}, "uniqueid": "MTK2153:3NQL1CS15SFH60IDK3Y29G4FCMKVYS", "dateTime": 1516750519019}, {"current_trial": 37, "trialdata": {"rt": -1, "trial_type": "single-stim", "word": "quail", "stimulus": "<p id=\"stim\">QUAIL</p>", "conditions": [18, 1200, "v", 18000], "internal_node_id": "0.0-28.0", "trial": 0, "time_elapsed": 223092, "serialpos": 16, "key_press": -1, "wordID": 1146, "type": "PRES_VIS", "trial_index": 37}, "uniqueid": "MTK2153:3NQL1CS15SFH60IDK3Y29G4FCMKVYS", "dateTime": 1516750521099}, {"current_trial": 38, "trialdata": {"rt": -1, "trial_type": "single-stim", "word": "witness", "stimulus": "<p id=\"stim\">WITNESS</p>", "conditions": [18, 1200, "v", 18000], "internal_node_id": "0.0-29.0", "trial": 0, "time_elapsed": 225219, "serialpos": 17, "key_press": -1, "wordID": 1617, "type": "PRES_VIS", "trial_index": 38}, "uniqueid": "MTK2153:3NQL1CS15SFH60IDK3Y29G4FCMKVYS", "dateTime": 1516750523226}, {"current_trial": 39, "trialdata": {"rt": -1, "trial_type": "single-stim", "stimulus": "", "internal_node_id": "0.0-30.0-0.0", "time_elapsed": 227602, "key_press": -1, "type": "PRE_RECALL_DELAY", "trial_index": 39}, "uniqueid": "MTK2153:3NQL1CS15SFH60IDK3Y29G4FCMKVYS", "dateTime": 1516750525609}, {"current_trial": 40, "trialdata": {"rt": -1000, "trial_type": "single-audio", "stimulus": "/static/audio/400Hz.wav", "internal_node_id": "0.0-31.0", "time_elapsed": 228105, "key_press": -1, "type": "PRE_RECALL_ALERT", "trial_index": 40}, "uniqueid": "MTK2153:3NQL1CS15SFH60IDK3Y29G4FCMKVYS", "dateTime": 1516750526112}, {"current_trial": 41, "trialdata": {"rt": [3464, 5328, 7963, 11845, 15533, 28958, 51382], "recwords": ["quail", "witness", "xerox", "garden", "salt", "quail", ""], "key_times": [1444, 2274, 2513, 2954, 3186, 3464, 3788, 3914, 4155, 4366, 4507, 4747, 4886, 5328, 5655, 5885, 6028, 6233, 6605, 7963, 8152, 8324, 8435, 8729, 8970, 9428, 11845, 14169, 14363, 14568, 14969, 15533, 27684, 27844, 28229, 28406, 28620, 28958, 51382, 59755], "trial_type": "free-recall", "conditions": [18, 1200, "v", 18000], "internal_node_id": "0.0-32.0-0.0", "key_presses": [81, 85, 65, 73, 76, 13, 87, 73, 84, 78, 69, 83, 83, 13, 88, 69, 82, 79, 88, 13, 71, 65, 82, 68, 69, 78, 13, 83, 65, 76, 84, 13, 81, 85, 65, 73, 76, 13, 13, 67], "trial": 0, "time_elapsed": 288110, "type": "FREE_RECALL", "trial_index": 41}, "uniqueid": "MTK2153:3NQL1CS15SFH60IDK3Y29G4FCMKVYS", "dateTime": 1516750586117}, {"current_trial": 42, "trialdata": {"rt": 1958, "trial_type": "text", "internal_node_id": "0.0-33.0", "time_elapsed": 292069, "key_press": 13, "type": "INSTRUCTIONS", "trial_index": 42}, "uniqueid": "MTK2153:3NQL1CS15SFH60IDK3Y29G4FCMKVYS", "dateTime": 1516750590075}, {"current_trial": 43, "trialdata": {"rt": [6482, 10230, 14901], "trial_type": "math-distractor", "key_times": [6036, 6221, 6482, 9951, 10230, 14592, 14745, 14901], "responses": ["16", "9", "20"], "num2": [8, 6, 8, 9], "num3": [5, 2, 6, 8], "conditions": [18, 1200, "v", 18000], "internal_node_id": "0.0-34.0", "key_presses": [97, 102, 13, 105, 13, 98, 96, 13], "trial": 1, "time_elapsed": 312075, "type": "DISTRACTOR", "trial_index": 43, "num1": [3, 1, 6, 6]}, "uniqueid": "MTK2153:3NQL1CS15SFH60IDK3Y29G4FCMKVYS", "dateTime": 1516750610081}, {"current_trial": 44, "trialdata": {"rt": -1, "trial_type": "single-stim", "stimulus": "<p id=\"stim\">10</p>", "internal_node_id": "0.0-35.0-0.0", "time_elapsed": 315076, "key_press": -1, "trial_index": 44}, "uniqueid": "MTK2153:3NQL1CS15SFH60IDK3Y29G4FCMKVYS", "dateTime": 1516750613082}, {"current_trial": 45, "trialdata": {"rt": -1, "trial_type": "single-stim", "stimulus": "<p id=\"stim\">9</p>", "internal_node_id": "0.0-35.0-1.0", "time_elapsed": 316078, "key_press": -1, "trial_index": 45}, "uniqueid": "MTK2153:3NQL1CS15SFH60IDK3Y29G4FCMKVYS", "dateTime": 1516750614084}, {"current_trial": 46, "trialdata": {"rt": -1, "trial_type": "single-stim", "stimulus": "<p id=\"stim\">8</p>", "internal_node_id": "0.0-35.0-2.0", "time_elapsed": 317079, "key_press": -1, "trial_index": 46}, "uniqueid": "MTK2153:3NQL1CS15SFH60IDK3Y29G4FCMKVYS", "dateTime": 1516750615085}, {"current_trial": 47, "trialdata": {"rt": -1, "trial_type": "single-stim", "stimulus": "<p id=\"stim\">7</p>", "internal_node_id": "0.0-35.0-3.0", "time_elapsed": 318081, "key_press": -1, "trial_index": 47}, "uniqueid": "MTK2153:3NQL1CS15SFH60IDK3Y29G4FCMKVYS", "dateTime": 1516750616087}, {"current_trial": 48, "trialdata": {"rt": -1, "trial_type": "single-stim", "stimulus": "<p id=\"stim\">6</p>", "internal_node_id": "0.0-35.0-4.0", "time_elapsed": 319083, "key_press": -1, "trial_index": 48}, "uniqueid": "MTK2153:3NQL1CS15SFH60IDK3Y29G4FCMKVYS", "dateTime": 1516750617089}, {"current_trial": 49, "trialdata": {"rt": -1, "trial_type": "single-stim", "stimulus": "<p id=\"stim\">5</p>", "internal_node_id": "0.0-35.0-5.0", "time_elapsed": 320085, "key_press": -1, "trial_index": 49}, "uniqueid": "MTK2153:3NQL1CS15SFH60IDK3Y29G4FCMKVYS", "dateTime": 1516750618091}, {"current_trial": 50, "trialdata": {"rt": -1, "trial_type": "single-stim", "stimulus": "<p id=\"stim\">4</p>", "internal_node_id": "0.0-35.0-6.0", "time_elapsed": 321087, "key_press": -1, "trial_index": 50}, "uniqueid": "MTK2153:3NQL1CS15SFH60IDK3Y29G4FCMKVYS", "dateTime": 1516750619093}, {"current_trial": 51, "trialdata": {"rt": -1, "trial_type": "single-stim", "stimulus": "<p id=\"stim\">3</p>", "internal_node_id": "0.0-35.0-7.0", "time_elapsed": 322088, "key_press": -1, "trial_index": 51}, "uniqueid": "MTK2153:3NQL1CS15SFH60IDK3Y29G4FCMKVYS", "dateTime": 1516750620094}, {"current_trial": 52, "trialdata": {"rt": -1, "trial_type": "single-stim", "stimulus": "<p id=\"stim\">2</p>", "internal_node_id": "0.0-35.0-8.0", "time_elapsed": 323089, "key_press": -1, "trial_index": 52}, "uniqueid": "MTK2153:3NQL1CS15SFH60IDK3Y29G4FCMKVYS", "dateTime": 1516750621095}, {"current_trial": 53, "trialdata": {"rt": -1, "trial_type": "single-stim", "stimulus": "<p id=\"stim\">1</p>", "internal_node_id": "0.0-35.0-9.0", "time_elapsed": 324090, "key_press": -1, "trial_index": 53}, "uniqueid": "MTK2153:3NQL1CS15SFH60IDK3Y29G4FCMKVYS", "dateTime": 1516750622096}, {"current_trial": 54, "trialdata": {"rt": -1, "trial_type": "single-stim", "stimulus": "<p id=\"stim\">+</p>", "internal_node_id": "0.0-36.0-0.0", "time_elapsed": 325593, "key_press": -1, "type": "FIXATION", "trial_index": 54}, "uniqueid": "MTK2153:3NQL1CS15SFH60IDK3Y29G4FCMKVYS", "dateTime": 1516750623599}, {"current_trial": 55, "trialdata": {"rt": -1, "trial_type": "single-stim", "word": "lettuce", "stimulus": "<p id=\"stim\">LETTUCE</p>", "conditions": [18, 1200, "v", 18000], "internal_node_id": "0.0-37.0", "trial": 1, "time_elapsed": 326795, "serialpos": 0, "key_press": -1, "wordID": 813, "type": "PRES_VIS", "trial_index": 55}, "uniqueid": "MTK2153:3NQL1CS15SFH60IDK3Y29G4FCMKVYS", "dateTime": 1516750624801}, {"current_trial": 56, "trialdata": {"rt": -1, "trial_type": "single-stim", "word": "empire", "stimulus": "<p id=\"stim\">EMPIRE</p>", "conditions": [18, 1200, "v", 18000], "internal_node_id": "0.0-38.0", "trial": 1, "time_elapsed": 329101, "serialpos": 1, "key_press": -1, "wordID": 529, "type": "PRES_VIS", "trial_index": 56}, "uniqueid": "MTK2153:3NQL1CS15SFH60IDK3Y29G4FCMKVYS", "dateTime": 1516750627108}, {"current_trial": 57, "trialdata": {"rt": -1, "trial_type": "single-stim", "word": "mister", "stimulus": "<p id=\"stim\">MISTER</p>", "conditions": [18, 1200, "v", 18000], "internal_node_id": "0.0-39.0", "trial": 1, "time_elapsed": 331146, "serialpos": 2, "key_press": -1, "wordID": 900, "type": "PRES_VIS", "trial_index": 57}, "uniqueid": "MTK2153:3NQL1CS15SFH60IDK3Y29G4FCMKVYS", "dateTime": 1516750629152}, {"current_trial": 58, "trialdata": {"rt": -1, "trial_type": "single-stim", "word": "dorm", "stimulus": "<p id=\"stim\">DORM</p>", "conditions": [18, 1200, "v", 18000], "internal_node_id": "0.0-40.0", "trial": 1, "time_elapsed": 333488, "serialpos": 3, "key_press": -1, "wordID": 487, "type": "PRES_VIS", "trial_index": 58}, "uniqueid": "MTK2153:3NQL1CS15SFH60IDK3Y29G4FCMKVYS", "dateTime": 1516750631494}, {"current_trial": 59, "trialdata": {"rt": -1, "trial_type": "single-stim", "word": "bouquet", "stimulus": "<p id=\"stim\">BOUQUET</p>", "conditions": [18, 1200, "v", 18000], "internal_node_id": "0.0-41.0", "trial": 1, "time_elapsed": 335783, "serialpos": 4, "key_press": -1, "wordID": 156, "type": "PRES_VIS", "trial_index": 59}, "uniqueid": "MTK2153:3NQL1CS15SFH60IDK3Y29G4FCMKVYS", "dateTime": 1516750633789}, {"current_trial": 60, "trialdata": {"rt": -1, "trial_type": "single-stim", "word": "salad", "stimulus": "<p id=\"stim\">SALAD</p>", "conditions": [18, 1200, "v", 18000], "internal_node_id": "0.0-42.0", "trial": 1, "time_elapsed": 338175, "serialpos": 5, "key_press": -1, "wordID": 1223, "type": "PRES_VIS", "trial_index": 60}, "uniqueid": "MTK2153:3NQL1CS15SFH60IDK3Y29G4FCMKVYS", "dateTime": 1516750636181}, {"current_trial": 61, "trialdata": {"rt": -1, "trial_type": "single-stim", "word": "scissors", "stimulus": "<p id=\"stim\">SCISSORS</p>", "conditions": [18, 1200, "v", 18000], "internal_node_id": "0.0-43.0", "trial": 1, "time_elapsed": 340360, "serialpos": 6, "key_press": -1, "wordID": 1249, "type": "PRES_VIS", "trial_index": 61}, "uniqueid": "MTK2153:3NQL1CS15SFH60IDK3Y29G4FCMKVYS", "dateTime": 1516750638366}, {"current_trial": 62, "trialdata": {"rt": -1, "trial_type": "single-stim", "word": "gazelle", "stimulus": "<p id=\"stim\">GAZELLE</p>", "conditions": [18, 1200, "v", 18000], "internal_node_id": "0.0-44.0", "trial": 1, "time_elapsed": 342637, "serialpos": 7, "key_press": -1, "wordID": 627, "type": "PRES_VIS", "trial_index": 62}, "uniqueid": "MTK2153:3NQL1CS15SFH60IDK3Y29G4FCMKVYS", "dateTime": 1516750640643}, {"current_trial": 63, "trialdata": {"rt": -1, "trial_type": "single-stim", "word": "neutron", "stimulus": "<p id=\"stim\">NEUTRON</p>", "conditions": [18, 1200, "v", 18000], "internal_node_id": "0.0-45.0", "trial": 1, "time_elapsed": 344921, "serialpos": 8, "key_press": -1, "wordID": 946, "type": "PRES_VIS", "trial_index": 63}, "uniqueid": "MTK2153:3NQL1CS15SFH60IDK3Y29G4FCMKVYS", "dateTime": 1516750642927}, {"current_trial": 64, "trialdata": {"rt": -1, "trial_type": "single-stim", "word": "leader", "stimulus": "<p id=\"stim\">LEADER</p>", "conditions": [18, 1200, "v", 18000], "internal_node_id": "0.0-46.0", "trial": 1, "time_elapsed": 347081, "serialpos": 9, "key_press": -1, "wordID": 806, "type": "PRES_VIS", "trial_index": 64}, "uniqueid": "MTK2153:3NQL1CS15SFH60IDK3Y29G4FCMKVYS", "dateTime": 1516750645087}, {"current_trial": 65, "trialdata": {"rt": -1, "trial_type": "single-stim", "word": "scarecrow", "stimulus": "<p id=\"stim\">SCARECROW</p>", "conditions": [18, 1200, "v", 18000], "internal_node_id": "0.0-47.0", "trial": 1, "time_elapsed": 349097, "serialpos": 10, "key_press": -1, "wordID": 1244, "type": "PRES_VIS", "trial_index": 65}, "uniqueid": "MTK2153:3NQL1CS15SFH60IDK3Y29G4FCMKVYS", "dateTime": 1516750647103}, {"current_trial": 66, "trialdata": {"rt": -1, "trial_type": "single-stim", "word": "snack", "stimulus": "<p id=\"stim\">SNACK</p>", "conditions": [18, 1200, "v", 18000], "internal_node_id": "0.0-48.0", "trial": 1, "time_elapsed": 351382, "serialpos": 11, "key_press": -1, "wordID": 1330, "type": "PRES_VIS", "trial_index": 66}, "uniqueid": "MTK2153:3NQL1CS15SFH60IDK3Y29G4FCMKVYS", "dateTime": 1516750649389}, {"current_trial": 67, "trialdata": {"rt": -1, "trial_type": "single-stim", "word": "valve", "stimulus": "<p id=\"stim\">VALVE</p>", "conditions": [18, 1200, "v", 18000], "internal_node_id": "0.0-49.0", "trial": 1, "time_elapsed": 353432, "serialpos": 12, "key_press": -1, "wordID": 1545, "type": "PRES_VIS", "trial_index": 67}, "uniqueid": "MTK2153:3NQL1CS15SFH60IDK3Y29G4FCMKVYS", "dateTime": 1516750651438}, {"current_trial": 68, "trialdata": {"rt": -1, "trial_type": "single-stim", "word": "vagrant", "stimulus": "<p id=\"stim\">VAGRANT</p>", "conditions": [18, 1200, "v", 18000], "internal_node_id": "0.0-50.0", "trial": 1, "time_elapsed": 355454, "serialpos": 13, "key_press": -1, "wordID": 1543, "type": "PRES_VIS", "trial_index": 68}, "uniqueid": "MTK2153:3NQL1CS15SFH60IDK3Y29G4FCMKVYS", "dateTime": 1516750653464}, {"current_trial": 69, "trialdata": {"rt": -1, "trial_type": "single-stim", "word": "hound", "stimulus": "<p id=\"stim\">HOUND</p>", "conditions": [18, 1200, "v", 18000], "internal_node_id": "0.0-51.0", "trial": 1, "time_elapsed": 357789, "serialpos": 14, "key_press": -1, "wordID": 723, "type": "PRES_VIS", "trial_index": 69}, "uniqueid": "MTK2153:3NQL1CS15SFH60IDK3Y29G4FCMKVYS", "dateTime": 1516750655795}, {"current_trial": 70, "trialdata": {"rt": -1, "trial_type": "single-stim", "word": "peach", "stimulus": "<p id=\"stim\">PEACH</p>", "conditions": [18, 1200, "v", 18000], "internal_node_id": "0.0-52.0", "trial": 1, "time_elapsed": 359924, "serialpos": 15, "key_press": -1, "wordID": 1030, "type": "PRES_VIS", "trial_index": 70}, "uniqueid": "MTK2153:3NQL1CS15SFH60IDK3Y29G4FCMKVYS", "dateTime": 1516750657931}, {"current_trial": 71, "trialdata": {"rt": -1, "trial_type": "single-stim", "word": "mask", "stimulus": "<p id=\"stim\">MASK</p>", "conditions": [18, 1200, "v", 18000], "internal_node_id": "0.0-53.0", "trial": 1, "time_elapsed": 362031, "serialpos": 16, "key_press": -1, "wordID": 875, "type": "PRES_VIS", "trial_index": 71}, "uniqueid": "MTK2153:3NQL1CS15SFH60IDK3Y29G4FCMKVYS", "dateTime": 1516750660037}, {"current_trial": 72, "trialdata": {"rt": -1, "trial_type": "single-stim", "word": "bacon", "stimulus": "<p id=\"stim\">BACON</p>", "conditions": [18, 1200, "v", 18000], "internal_node_id": "0.0-54.0", "trial": 1, "time_elapsed": 364298, "serialpos": 17, "key_press": -1, "wordID": 66, "type": "PRES_VIS", "trial_index": 72}, "uniqueid": "MTK2153:3NQL1CS15SFH60IDK3Y29G4FCMKVYS", "dateTime": 1516750662304}, {"current_trial": 73, "trialdata": {"rt": -1, "trial_type": "single-stim", "stimulus": "", "internal_node_id": "0.0-55.0-0.0", "time_elapsed": 366466, "key_press": -1, "type": "PRE_RECALL_DELAY", "trial_index": 73}, "uniqueid": "MTK2153:3NQL1CS15SFH60IDK3Y29G4FCMKVYS", "dateTime": 1516750664472}, {"current_trial": 74, "trialdata": {"rt": -1000, "trial_type": "single-audio", "stimulus": "/static/audio/400Hz.wav", "internal_node_id": "0.0-56.0", "time_elapsed": 366968, "key_press": -1, "type": "PRE_RECALL_ALERT", "trial_index": 74}, "uniqueid": "MTK2153:3NQL1CS15SFH60IDK3Y29G4FCMKVYS", "dateTime": 1516750664974}, {"current_trial": 75, "trialdata": {"rt": [4649, 5578, 7973, 11024, 12536, 15566, 17128, 24491], "recwords": ["bacon", "mask", "hound", "lettuce", "snack", "bouquet", "dorm", "empire"], "key_times": [2096, 2343, 2556, 2694, 3200, 3403, 4087, 4649, 4873, 4997, 5155, 5322, 5578, 5899, 6011, 6109, 6300, 6392, 7973, 9133, 9244, 9493, 9633, 9800, 10551, 10812, 11024, 11185, 11365, 11489, 12151, 12322, 12536, 12759, 12952, 13071, 13357, 13803, 14051, 14821, 15566, 16537, 16639, 16777, 16907, 17128, 23631, 23746, 23953, 24129, 24234, 24374, 24491], "trial_type": "free-recall", "conditions": [18, 1200, "v", 18000], "internal_node_id": "0.0-57.0-0.0", "key_presses": [66, 65, 67, 75, 8, 79, 78, 13, 77, 65, 83, 75, 32, 72, 79, 85, 78, 68, 13, 76, 69, 84, 84, 85, 67, 69, 13, 83, 78, 65, 67, 75, 13, 66, 79, 85, 81, 85, 69, 84, 13, 68, 79, 82, 77, 13, 69, 77, 80, 73, 82, 69, 13], "trial": 1, "time_elapsed": 426972, "type": "FREE_RECALL", "trial_index": 75}, "uniqueid": "MTK2153:3NQL1CS15SFH60IDK3Y29G4FCMKVYS", "dateTime": 1516750724980}, {"current_trial": 76, "trialdata": {"rt": 2376, "trial_type": "text", "internal_node_id": "0.0-58.0", "time_elapsed": 431351, "key_press": 13, "type": "INSTRUCTIONS", "trial_index": 76}, "uniqueid": "MTK2153:3NQL1CS15SFH60IDK3Y29G4FCMKVYS", "dateTime": 1516750729357}, {"current_trial": 77, "trialdata": {"rt": [3426, 11600], "trial_type": "math-distractor", "key_times": [3097, 3213, 3426, 11262, 11447, 11600], "responses": ["13", "14"], "num2": [8, 6, 7], "num3": [2, 1, 8], "conditions": [12, 1600, "v", 12000], "internal_node_id": "0.0-59.0", "key_presses": [97, 99, 13, 97, 100, 13], "trial": 2, "time_elapsed": 444355, "type": "DISTRACTOR", "trial_index": 77, "num1": [3, 8, 3]}, "uniqueid": "MTK2153:3NQL1CS15SFH60IDK3Y29G4FCMKVYS", "dateTime": 1516750742361}, {"current_trial": 78, "trialdata": {"rt": -1, "trial_type": "single-stim", "stimulus": "<p id=\"stim\">10</p>", "internal_node_id": "0.0-60.0-0.0", "time_elapsed": 447359, "key_press": -1, "trial_index": 78}, "uniqueid": "MTK2153:3NQL1CS15SFH60IDK3Y29G4FCMKVYS", "dateTime": 1516750745365}, {"current_trial": 79, "trialdata": {"rt": -1, "trial_type": "single-stim", "stimulus": "<p id=\"stim\">9</p>", "internal_node_id": "0.0-60.0-1.0", "time_elapsed": 448360, "key_press": -1, "trial_index": 79}, "uniqueid": "MTK2153:3NQL1CS15SFH60IDK3Y29G4FCMKVYS", "dateTime": 1516750746366}, {"current_trial": 80, "trialdata": {"rt": -1, "trial_type": "single-stim", "stimulus": "<p id=\"stim\">8</p>", "internal_node_id": "0.0-60.0-2.0", "time_elapsed": 449360, "key_press": -1, "trial_index": 80}, "uniqueid": "MTK2153:3NQL1CS15SFH60IDK3Y29G4FCMKVYS", "dateTime": 1516750747366}, {"current_trial": 81, "trialdata": {"rt": -1, "trial_type": "single-stim", "stimulus": "<p id=\"stim\">7</p>", "internal_node_id": "0.0-60.0-3.0", "time_elapsed": 450361, "key_press": -1, "trial_index": 81}, "uniqueid": "MTK2153:3NQL1CS15SFH60IDK3Y29G4FCMKVYS", "dateTime": 1516750748367}, {"current_trial": 82, "trialdata": {"rt": -1, "trial_type": "single-stim", "stimulus": "<p id=\"stim\">6</p>", "internal_node_id": "0.0-60.0-4.0", "time_elapsed": 451363, "key_press": -1, "trial_index": 82}, "uniqueid": "MTK2153:3NQL1CS15SFH60IDK3Y29G4FCMKVYS", "dateTime": 1516750749369}, {"current_trial": 83, "trialdata": {"rt": -1, "trial_type": "single-stim", "stimulus": "<p id=\"stim\">5</p>", "internal_node_id": "0.0-60.0-5.0", "time_elapsed": 452365, "key_press": -1, "trial_index": 83}, "uniqueid": "MTK2153:3NQL1CS15SFH60IDK3Y29G4FCMKVYS", "dateTime": 1516750750371}, {"current_trial": 84, "trialdata": {"rt": -1, "trial_type": "single-stim", "stimulus": "<p id=\"stim\">4</p>", "internal_node_id": "0.0-60.0-6.0", "time_elapsed": 453366, "key_press": -1, "trial_index": 84}, "uniqueid": "MTK2153:3NQL1CS15SFH60IDK3Y29G4FCMKVYS", "dateTime": 1516750751372}, {"current_trial": 85, "trialdata": {"rt": -1, "trial_type": "single-stim", "stimulus": "<p id=\"stim\">3</p>", "internal_node_id": "0.0-60.0-7.0", "time_elapsed": 454367, "key_press": -1, "trial_index": 85}, "uniqueid": "MTK2153:3NQL1CS15SFH60IDK3Y29G4FCMKVYS", "dateTime": 1516750752373}, {"current_trial": 86, "trialdata": {"rt": -1, "trial_type": "single-stim", "stimulus": "<p id=\"stim\">2</p>", "internal_node_id": "0.0-60.0-8.0", "time_elapsed": 455368, "key_press": -1, "trial_index": 86}, "uniqueid": "MTK2153:3NQL1CS15SFH60IDK3Y29G4FCMKVYS", "dateTime": 1516750753375}, {"current_trial": 87, "trialdata": {"rt": -1, "trial_type": "single-stim", "stimulus": "<p id=\"stim\">1</p>", "internal_node_id": "0.0-60.0-9.0", "time_elapsed": 456370, "key_press": -1, "trial_index": 87}, "uniqueid": "MTK2153:3NQL1CS15SFH60IDK3Y29G4FCMKVYS", "dateTime": 1516750754376}, {"current_trial": 88, "trialdata": {"rt": -1, "trial_type": "single-stim", "stimulus": "<p id=\"stim\">+</p>", "internal_node_id": "0.0-61.0-0.0", "time_elapsed": 457871, "key_press": -1, "type": "FIXATION", "trial_index": 88}, "uniqueid": "MTK2153:3NQL1CS15SFH60IDK3Y29G4FCMKVYS", "dateTime": 1516750755877}, {"current_trial": 89, "trialdata": {"rt": -1, "trial_type": "single-stim", "word": "dress", "stimulus": "<p id=\"stim\">DRESS</p>", "conditions": [12, 1600, "v", 12000], "internal_node_id": "0.0-62.0", "trial": 2, "time_elapsed": 459473, "serialpos": 0, "key_press": -1, "wordID": 494, "type": "PRES_VIS", "trial_index": 89}, "uniqueid": "MTK2153:3NQL1CS15SFH60IDK3Y29G4FCMKVYS", "dateTime": 1516750757479}, {"current_trial": 90, "trialdata": {"rt": -1, "trial_type": "single-stim", "word": "braces", "stimulus": "<p id=\"stim\">BRACES</p>", "conditions": [12, 1600, "v", 12000], "internal_node_id": "0.0-63.0", "trial": 2, "time_elapsed": 461950, "serialpos": 1, "key_press": -1, "wordID": 163, "type": "PRES_VIS", "trial_index": 90}, "uniqueid": "MTK2153:3NQL1CS15SFH60IDK3Y29G4FCMKVYS", "dateTime": 1516750759956}, {"current_trial": 91, "trialdata": {"rt": -1, "trial_type": "single-stim", "word": "lava", "stimulus": "<p id=\"stim\">LAVA</p>", "conditions": [12, 1600, "v", 12000], "internal_node_id": "0.0-64.0", "trial": 2, "time_elapsed": 464502, "serialpos": 2, "key_press": -1, "wordID": 803, "type": "PRES_VIS", "trial_index": 91}, "uniqueid": "MTK2153:3NQL1CS15SFH60IDK3Y29G4FCMKVYS", "dateTime": 1516750762508}, {"current_trial": 92, "trialdata": {"rt": -1, "trial_type": "single-stim", "word": "apple", "stimulus": "<p id=\"stim\">APPLE</p>", "conditions": [12, 1600, "v", 12000], "internal_node_id": "0.0-65.0", "trial": 2, "time_elapsed": 467096, "serialpos": 3, "key_press": -1, "wordID": 32, "type": "PRES_VIS", "trial_index": 92}, "uniqueid": "MTK2153:3NQL1CS15SFH60IDK3Y29G4FCMKVYS", "dateTime": 1516750765102}, {"current_trial": 93, "trialdata": {"rt": -1, "trial_type": "single-stim", "word": "stomach", "stimulus": "<p id=\"stim\">STOMACH</p>", "conditions": [12, 1600, "v", 12000], "internal_node_id": "0.0-66.0", "trial": 2, "time_elapsed": 469699, "serialpos": 4, "key_press": -1, "wordID": 1383, "type": "PRES_VIS", "trial_index": 93}, "uniqueid": "MTK2153:3NQL1CS15SFH60IDK3Y29G4FCMKVYS", "dateTime": 1516750767705}, {"current_trial": 94, "trialdata": {"rt": -1, "trial_type": "single-stim", "word": "sunrise", "stimulus": "<p id=\"stim\">SUNRISE</p>", "conditions": [12, 1600, "v", 12000], "internal_node_id": "0.0-67.0", "trial": 2, "time_elapsed": 472211, "serialpos": 5, "key_press": -1, "wordID": 1406, "type": "PRES_VIS", "trial_index": 94}, "uniqueid": "MTK2153:3NQL1CS15SFH60IDK3Y29G4FCMKVYS", "dateTime": 1516750770217}, {"current_trial": 95, "trialdata": {"rt": -1, "trial_type": "single-stim", "word": "pork", "stimulus": "<p id=\"stim\">PORK</p>", "conditions": [12, 1600, "v", 12000], "internal_node_id": "0.0-68.0", "trial": 2, "time_elapsed": 474640, "serialpos": 6, "key_press": -1, "wordID": 1107, "type": "PRES_VIS", "trial_index": 95}, "uniqueid": "MTK2153:3NQL1CS15SFH60IDK3Y29G4FCMKVYS", "dateTime": 1516750772646}, {"current_trial": 96, "trialdata": {"rt": -1, "trial_type": "single-stim", "word": "beef", "stimulus": "<p id=\"stim\">BEEF</p>", "conditions": [12, 1600, "v", 12000], "internal_node_id": "0.0-69.0", "trial": 2, "time_elapsed": 477303, "serialpos": 7, "key_press": -1, "wordID": 112, "type": "PRES_VIS", "trial_index": 96}, "uniqueid": "MTK2153:3NQL1CS15SFH60IDK3Y29G4FCMKVYS", "dateTime": 1516750775309}, {"current_trial": 97, "trialdata": {"rt": -1, "trial_type": "single-stim", "word": "fruit", "stimulus": "<p id=\"stim\">FRUIT</p>", "conditions": [12, 1600, "v", 12000], "internal_node_id": "0.0-70.0", "trial": 2, "time_elapsed": 479726, "serialpos": 8, "key_press": -1, "wordID": 609, "type": "PRES_VIS", "trial_index": 97}, "uniqueid": "MTK2153:3NQL1CS15SFH60IDK3Y29G4FCMKVYS", "dateTime": 1516750777732}, {"current_trial": 98, "trialdata": {"rt": -1, "trial_type": "single-stim", "word": "queen", "stimulus": "<p id=\"stim\">QUEEN</p>", "conditions": [12, 1600, "v", 12000], "internal_node_id": "0.0-71.0", "trial": 2, "time_elapsed": 482390, "serialpos": 9, "key_press": -1, "wordID": 1148, "type": "PRES_VIS", "trial_index": 98}, "uniqueid": "MTK2153:3NQL1CS15SFH60IDK3Y29G4FCMKVYS", "dateTime": 1516750780397}, {"current_trial": 99, "trialdata": {"rt": -1, "trial_type": "single-stim", "word": "tart", "stimulus": "<p id=\"stim\">TART</p>", "conditions": [12, 1600, "v", 12000], "internal_node_id": "0.0-72.0", "trial": 2, "time_elapsed": 485063, "serialpos": 10, "key_press": -1, "wordID": 1435, "type": "PRES_VIS", "trial_index": 99}, "uniqueid": "MTK2153:3NQL1CS15SFH60IDK3Y29G4FCMKVYS", "dateTime": 1516750783069}, {"current_trial": 100, "trialdata": {"rt": -1, "trial_type": "single-stim", "word": "lamp", "stimulus": "<p id=\"stim\">LAMP</p>", "conditions": [12, 1600, "v", 12000], "internal_node_id": "0.0-73.0", "trial": 2, "time_elapsed": 487844, "serialpos": 11, "key_press": -1, "wordID": 797, "type": "PRES_VIS", "trial_index": 100}, "uniqueid": "MTK2153:3NQL1CS15SFH60IDK3Y29G4FCMKVYS", "dateTime": 1516750785850}, {"current_trial": 101, "trialdata": {"rt": -1, "trial_type": "single-stim", "stimulus": "", "internal_node_id": "0.0-74.0-0.0", "time_elapsed": 490082, "key_press": -1, "type": "PRE_RECALL_DELAY", "trial_index": 101}, "uniqueid": "MTK2153:3NQL1CS15SFH60IDK3Y29G4FCMKVYS", "dateTime": 1516750788088}, {"current_trial": 102, "trialdata": {"rt": -1000, "trial_type": "single-audio", "stimulus": "/static/audio/400Hz.wav", "internal_node_id": "0.0-75.0", "time_elapsed": 490583, "key_press": -1, "type": "PRE_RECALL_ALERT", "trial_index": 102}, "uniqueid": "MTK2153:3NQL1CS15SFH60IDK3Y29G4FCMKVYS", "dateTime": 1516750788589}, {"current_trial": 103, "trialdata": {"rt": [3890, 6041, 7473, 10365, 11444, 12684, 13979, 16636, 18066, 20653, 26973, 34563, 47398, 48485, 56522], "recwords": ["dress", "apple", "lava", "sunrise", "tart", "queen", "steak", "beef", "apple", "braces", "lamp", "tart", "steak", "beef", "dress"], "key_times": [2627, 2834, 2917, 3372, 3516, 3890, 4242, 4774, 4927, 5360, 5751, 6041, 6291, 6391, 6637, 7126, 7473, 7886, 8037, 8244, 8446, 8546, 8695, 8918, 10365, 10588, 10741, 10821, 11022, 11444, 11630, 11778, 11911, 12070, 12277, 12684, 13080, 13258, 13414, 13576, 13742, 13979, 15312, 15512, 15684, 16425, 16636, 16871, 17158, 17309, 17533, 17912, 18066, 18348, 18469, 18580, 18837, 19074, 19733, 20653, 26196, 26332, 26388, 26611, 26973, 33840, 34016, 34099, 34305, 34563, 46403, 46668, 46877, 47026, 47168, 47398, 47951, 48088, 48263, 48359, 48485, 55767, 55977, 56099, 56237, 56412, 56522], "trial_type": "free-recall", "conditions": [12, 1600, "v", 12000], "internal_node_id": "0.0-76.0-0.0", "key_presses": [68, 82, 69, 83, 83, 13, 65, 80, 80, 76, 69, 13, 76, 65, 86, 65, 13, 83, 85, 78, 82, 73, 83, 69, 13, 84, 65, 82, 84, 13, 81, 85, 69, 69, 78, 13, 83, 84, 69, 65, 75, 32, 66, 69, 69, 70, 13, 65, 80, 80, 76, 69, 13, 66, 82, 65, 67, 69, 83, 13, 76, 65, 77, 80, 13, 84, 65, 82, 84, 13, 83, 84, 69, 65, 75, 13, 66, 69, 69, 70, 13, 68, 82, 69, 83, 83, 13], "trial": 2, "time_elapsed": 550586, "type": "FREE_RECALL", "trial_index": 103}, "uniqueid": "MTK2153:3NQL1CS15SFH60IDK3Y29G4FCMKVYS", "dateTime": 1516750848594}, {"current_trial": 104, "trialdata": {"rt": 1797, "trial_type": "text", "internal_node_id": "0.0-77.0", "time_elapsed": 554387, "key_press": 13, "type": "INSTRUCTIONS", "trial_index": 104}, "uniqueid": "MTK2153:3NQL1CS15SFH60IDK3Y29G4FCMKVYS", "dateTime": 1516750852393}, {"current_trial": 105, "trialdata": {"rt": [4512, 6865, 8995, 11599], "trial_type": "math-distractor", "key_times": [3662, 3817, 4512, 6290, 6524, 6865, 8480, 8576, 8995, 11224, 11373, 11599], "responses": ["11", "18", "12", "11"], "num2": [2, 9, 2, 3, 8], "num3": [6, 1, 5, 4, 2], "conditions": [12, 800, "v", 12000], "internal_node_id": "0.0-78.0", "key_presses": [97, 97, 13, 97, 104, 13, 97, 98, 13, 97, 97, 13], "trial": 3, "time_elapsed": 568390, "type": "DISTRACTOR", "trial_index": 105, "num1": [3, 8, 6, 4, 1]}, "uniqueid": "MTK2153:3NQL1CS15SFH60IDK3Y29G4FCMKVYS", "dateTime": 1516750866396}, {"current_trial": 106, "trialdata": {"rt": -1, "trial_type": "single-stim", "stimulus": "<p id=\"stim\">10</p>", "internal_node_id": "0.0-79.0-0.0", "time_elapsed": 571392, "key_press": -1, "trial_index": 106}, "uniqueid": "MTK2153:3NQL1CS15SFH60IDK3Y29G4FCMKVYS", "dateTime": 1516750869398}, {"current_trial": 107, "trialdata": {"rt": -1, "trial_type": "single-stim", "stimulus": "<p id=\"stim\">9</p>", "internal_node_id": "0.0-79.0-1.0", "time_elapsed": 572393, "key_press": -1, "trial_index": 107}, "uniqueid": "MTK2153:3NQL1CS15SFH60IDK3Y29G4FCMKVYS", "dateTime": 1516750870399}, {"current_trial": 108, "trialdata": {"rt": -1, "trial_type": "single-stim", "stimulus": "<p id=\"stim\">8</p>", "internal_node_id": "0.0-79.0-2.0", "time_elapsed": 573394, "key_press": -1, "trial_index": 108}, "uniqueid": "MTK2153:3NQL1CS15SFH60IDK3Y29G4FCMKVYS", "dateTime": 1516750871400}, {"current_trial": 109, "trialdata": {"rt": -1, "trial_type": "single-stim", "stimulus": "<p id=\"stim\">7</p>", "internal_node_id": "0.0-79.0-3.0", "time_elapsed": 574395, "key_press": -1, "trial_index": 109}, "uniqueid": "MTK2153:3NQL1CS15SFH60IDK3Y29G4FCMKVYS", "dateTime": 1516750872401}, {"current_trial": 110, "trialdata": {"rt": -1, "trial_type": "single-stim", "stimulus": "<p id=\"stim\">6</p>", "internal_node_id": "0.0-79.0-4.0", "time_elapsed": 575396, "key_press": -1, "trial_index": 110}, "uniqueid": "MTK2153:3NQL1CS15SFH60IDK3Y29G4FCMKVYS", "dateTime": 1516750873402}, {"current_trial": 111, "trialdata": {"rt": -1, "trial_type": "single-stim", "stimulus": "<p id=\"stim\">5</p>", "internal_node_id": "0.0-79.0-5.0", "time_elapsed": 576397, "key_press": -1, "trial_index": 111}, "uniqueid": "MTK2153:3NQL1CS15SFH60IDK3Y29G4FCMKVYS", "dateTime": 1516750874403}, {"current_trial": 112, "trialdata": {"rt": -1, "trial_type": "single-stim", "stimulus": "<p id=\"stim\">4</p>", "internal_node_id": "0.0-79.0-6.0", "time_elapsed": 577399, "key_press": -1, "trial_index": 112}, "uniqueid": "MTK2153:3NQL1CS15SFH60IDK3Y29G4FCMKVYS", "dateTime": 1516750875405}, {"current_trial": 113, "trialdata": {"rt": -1, "trial_type": "single-stim", "stimulus": "<p id=\"stim\">3</p>", "internal_node_id": "0.0-79.0-7.0", "time_elapsed": 578400, "key_press": -1, "trial_index": 113}, "uniqueid": "MTK2153:3NQL1CS15SFH60IDK3Y29G4FCMKVYS", "dateTime": 1516750876406}, {"current_trial": 114, "trialdata": {"rt": -1, "trial_type": "single-stim", "stimulus": "<p id=\"stim\">2</p>", "internal_node_id": "0.0-79.0-8.0", "time_elapsed": 579401, "key_press": -1, "trial_index": 114}, "uniqueid": "MTK2153:3NQL1CS15SFH60IDK3Y29G4FCMKVYS", "dateTime": 1516750877407}, {"current_trial": 115, "trialdata": {"rt": -1, "trial_type": "single-stim", "stimulus": "<p id=\"stim\">1</p>", "internal_node_id": "0.0-79.0-9.0", "time_elapsed": 580403, "key_press": -1, "trial_index": 115}, "uniqueid": "MTK2153:3NQL1CS15SFH60IDK3Y29G4FCMKVYS", "dateTime": 1516750878409}, {"current_trial": 116, "trialdata": {"rt": -1, "trial_type": "single-stim", "stimulus": "<p id=\"stim\">+</p>", "internal_node_id": "0.0-80.0-0.0", "time_elapsed": 581904, "key_press": -1, "type": "FIXATION", "trial_index": 116}, "uniqueid": "MTK2153:3NQL1CS15SFH60IDK3Y29G4FCMKVYS", "dateTime": 1516750879910}, {"current_trial": 117, "trialdata": {"rt": -1, "trial_type": "single-stim", "word": "army", "stimulus": "<p id=\"stim\">ARMY</p>", "conditions": [12, 800, "v", 12000], "internal_node_id": "0.0-81.0", "trial": 3, "time_elapsed": 582705, "serialpos": 0, "key_press": -1, "wordID": 38, "type": "PRES_VIS", "trial_index": 117}, "uniqueid": "MTK2153:3NQL1CS15SFH60IDK3Y29G4FCMKVYS", "dateTime": 1516750880711}, {"current_trial": 118, "trialdata": {"rt": -1, "trial_type": "single-stim", "word": "nightgown", "stimulus": "<p id=\"stim\">NIGHTGOWN</p>", "conditions": [12, 800, "v", 12000], "internal_node_id": "0.0-82.0", "trial": 3, "time_elapsed": 584445, "serialpos": 1, "key_press": -1, "wordID": 952, "type": "PRES_VIS", "trial_index": 118}, "uniqueid": "MTK2153:3NQL1CS15SFH60IDK3Y29G4FCMKVYS", "dateTime": 1516750882451}, {"current_trial": 119, "trialdata": {"rt": -1, "trial_type": "single-stim", "word": "denim", "stimulus": "<p id=\"stim\">DENIM</p>", "conditions": [12, 800, "v", 12000], "internal_node_id": "0.0-83.0", "trial": 3, "time_elapsed": 586350, "serialpos": 2, "key_press": -1, "wordID": 445, "type": "PRES_VIS", "trial_index": 119}, "uniqueid": "MTK2153:3NQL1CS15SFH60IDK3Y29G4FCMKVYS", "dateTime": 1516750884356}, {"current_trial": 120, "trialdata": {"rt": -1, "trial_type": "single-stim", "word": "slug", "stimulus": "<p id=\"stim\">SLUG</p>", "conditions": [12, 800, "v", 12000], "internal_node_id": "0.0-84.0", "trial": 3, "time_elapsed": 588099, "serialpos": 3, "key_press": -1, "wordID": 1328, "type": "PRES_VIS", "trial_index": 120}, "uniqueid": "MTK2153:3NQL1CS15SFH60IDK3Y29G4FCMKVYS", "dateTime": 1516750886105}, {"current_trial": 121, "trialdata": {"rt": -1, "trial_type": "single-stim", "word": "waitress", "stimulus": "<p id=\"stim\">WAITRESS</p>", "conditions": [12, 800, "v", 12000], "internal_node_id": "0.0-85.0", "trial": 3, "time_elapsed": 589788, "serialpos": 4, "key_press": -1, "wordID": 1580, "type": "PRES_VIS", "trial_index": 121}, "uniqueid": "MTK2153:3NQL1CS15SFH60IDK3Y29G4FCMKVYS", "dateTime": 1516750887794}, {"current_trial": 122, "trialdata": {"rt": -1, "trial_type": "single-stim", "word": "cashier", "stimulus": "<p id=\"stim\">CASHIER</p>", "conditions": [12, 800, "v", 12000], "internal_node_id": "0.0-86.0", "trial": 3, "time_elapsed": 591442, "serialpos": 5, "key_press": -1, "wordID": 253, "type": "PRES_VIS", "trial_index": 122}, "uniqueid": "MTK2153:3NQL1CS15SFH60IDK3Y29G4FCMKVYS", "dateTime": 1516750889448}, {"current_trial": 123, "trialdata": {"rt": -1, "trial_type": "single-stim", "word": "blockade", "stimulus": "<p id=\"stim\">BLOCKADE</p>", "conditions": [12, 800, "v", 12000], "internal_node_id": "0.0-87.0", "trial": 3, "time_elapsed": 593112, "serialpos": 6, "key_press": -1, "wordID": 136, "type": "PRES_VIS", "trial_index": 123}, "uniqueid": "MTK2153:3NQL1CS15SFH60IDK3Y29G4FCMKVYS", "dateTime": 1516750891118}, {"current_trial": 124, "trialdata": {"rt": -1, "trial_type": "single-stim", "word": "tutu", "stimulus": "<p id=\"stim\">TUTU</p>", "conditions": [12, 800, "v", 12000], "internal_node_id": "0.0-88.0", "trial": 3, "time_elapsed": 594851, "serialpos": 7, "key_press": -1, "wordID": 1523, "type": "PRES_VIS", "trial_index": 124}, "uniqueid": "MTK2153:3NQL1CS15SFH60IDK3Y29G4FCMKVYS", "dateTime": 1516750892857}, {"current_trial": 125, "trialdata": {"rt": -1, "trial_type": "single-stim", "word": "badge", "stimulus": "<p id=\"stim\">BADGE</p>", "conditions": [12, 800, "v", 12000], "internal_node_id": "0.0-89.0", "trial": 3, "time_elapsed": 596473, "serialpos": 8, "key_press": -1, "wordID": 67, "type": "PRES_VIS", "trial_index": 125}, "uniqueid": "MTK2153:3NQL1CS15SFH60IDK3Y29G4FCMKVYS", "dateTime": 1516750894479}, {"current_trial": 126, "trialdata": {"rt": -1, "trial_type": "single-stim", "word": "portrait", "stimulus": "<p id=\"stim\">PORTRAIT</p>", "conditions": [12, 800, "v", 12000], "internal_node_id": "0.0-90.0", "trial": 3, "time_elapsed": 598337, "serialpos": 9, "key_press": -1, "wordID": 1110, "type": "PRES_VIS", "trial_index": 126}, "uniqueid": "MTK2153:3NQL1CS15SFH60IDK3Y29G4FCMKVYS", "dateTime": 1516750896343}, {"current_trial": 127, "trialdata": {"rt": -1, "trial_type": "single-stim", "word": "wife", "stimulus": "<p id=\"stim\">WIFE</p>", "conditions": [12, 800, "v", 12000], "internal_node_id": "0.0-91.0", "trial": 3, "time_elapsed": 600281, "serialpos": 10, "key_press": -1, "wordID": 1608, "type": "PRES_VIS", "trial_index": 127}, "uniqueid": "MTK2153:3NQL1CS15SFH60IDK3Y29G4FCMKVYS", "dateTime": 1516750898287}, {"current_trial": 128, "trialdata": {"rt": -1, "trial_type": "single-stim", "word": "mummy", "stimulus": "<p id=\"stim\">MUMMY</p>", "conditions": [12, 800, "v", 12000], "internal_node_id": "0.0-92.0", "trial": 3, "time_elapsed": 602085, "serialpos": 11, "key_press": -1, "wordID": 931, "type": "PRES_VIS", "trial_index": 128}, "uniqueid": "MTK2153:3NQL1CS15SFH60IDK3Y29G4FCMKVYS", "dateTime": 1516750900092}, {"current_trial": 129, "trialdata": {"rt": -1, "trial_type": "single-stim", "stimulus": "", "internal_node_id": "0.0-93.0-0.0", "time_elapsed": 604395, "key_press": -1, "type": "PRE_RECALL_DELAY", "trial_index": 129}, "uniqueid": "MTK2153:3NQL1CS15SFH60IDK3Y29G4FCMKVYS", "dateTime": 1516750902402}, {"current_trial": 130, "trialdata": {"rt": -1000, "trial_type": "single-audio", "stimulus": "/static/audio/400Hz.wav", "internal_node_id": "0.0-94.0", "time_elapsed": 604896, "key_press": -1, "type": "PRE_RECALL_ALERT", "trial_index": 130}, "uniqueid": "MTK2153:3NQL1CS15SFH60IDK3Y29G4FCMKVYS", "dateTime": 1516750902902}, {"current_trial": 131, "trialdata": {"rt": [2908, 5225, 6268, 8570, 10352, 13781, 15617, 16840, 21318, 22301, 28945, 42575, 50195], "recwords": ["mummy", "portrait", "wife", "mummy", "army", "braggade", "badge", "tutu", "mummy", "wife", "blockade", "slug", "wife"], "key_times": [1437, 1849, 2136, 2296, 2634, 2908, 3245, 3472, 3723, 3997, 4210, 4396, 4511, 4709, 5225, 5466, 5586, 5700, 5944, 6268, 6491, 6762, 7038, 7198, 7924, 8570, 8815, 8964, 9140, 9527, 10352, 10729, 10890, 11066, 11326, 12441, 12572, 12887, 13617, 13781, 14067, 14178, 14449, 14715, 15458, 15617, 15829, 15953, 16062, 16413, 16840, 19753, 20355, 20631, 20782, 21056, 21318, 21855, 21933, 22034, 22184, 22301, 26106, 26294, 26522, 26853, 27183, 27386, 27594, 28480, 28628, 28829, 28945, 41677, 41820, 42054, 42261, 42575, 49782, 49884, 49973, 50088, 50195], "trial_type": "free-recall", "conditions": [12, 800, "v", 12000], "internal_node_id": "0.0-95.0-0.0", "key_presses": [77, 85, 77, 77, 89, 13, 80, 79, 82, 84, 82, 65, 73, 84, 13, 87, 73, 70, 69, 32, 77, 85, 77, 77, 89, 13, 65, 82, 77, 89, 13, 66, 82, 65, 71, 71, 65, 68, 69, 13, 66, 65, 68, 71, 69, 13, 84, 85, 84, 85, 13, 77, 85, 77, 77, 89, 13, 87, 73, 70, 69, 13, 66, 76, 79, 67, 75, 65, 83, 8, 68, 69, 13, 83, 76, 85, 71, 13, 87, 73, 70, 69, 13], "trial": 3, "time_elapsed": 664899, "type": "FREE_RECALL", "trial_index": 131}, "uniqueid": "MTK2153:3NQL1CS15SFH60IDK3Y29G4FCMKVYS", "dateTime": 1516750962908}, {"current_trial": 132, "trialdata": {"rt": 736, "trial_type": "text", "internal_node_id": "0.0-96.0", "time_elapsed": 667640, "key_press": 13, "type": "INSTRUCTIONS", "trial_index": 132}, "uniqueid": "MTK2153:3NQL1CS15SFH60IDK3Y29G4FCMKVYS", "dateTime": 1516750965646}, {"current_trial": 133, "trialdata": {"rt": [2693, 4847, 7436, 16732, 18476, 20676, 22660], "trial_type": "math-distractor", "key_times": [2219, 2423, 2693, 4263, 4369, 4847, 7191, 7436, 16338, 16541, 16732, 18230, 18476, 20438, 20676, 22196, 22466, 22660], "responses": ["16", "12", "6", "24", "6", "9", "17"], "num2": [4, 5, 1, 9, 4, 5, 2, 4], "num3": [8, 1, 3, 8, 1, 2, 7, 5], "conditions": [24, 800, "v", 24000], "internal_node_id": "0.0-97.0", "key_presses": [97, 102, 13, 97, 98, 13, 102, 13, 98, 100, 13, 102, 13, 105, 13, 97, 103, 13], "trial": 4, "time_elapsed": 693644, "type": "DISTRACTOR", "trial_index": 133, "num1": [4, 2, 2, 7, 1, 2, 8, 6]}, "uniqueid": "MTK2153:3NQL1CS15SFH60IDK3Y29G4FCMKVYS", "dateTime": 1516750991650}, {"current_trial": 134, "trialdata": {"rt": -1, "trial_type": "single-stim", "stimulus": "<p id=\"stim\">10</p>", "internal_node_id": "0.0-98.0-0.0", "time_elapsed": 696646, "key_press": -1, "trial_index": 134}, "uniqueid": "MTK2153:3NQL1CS15SFH60IDK3Y29G4FCMKVYS", "dateTime": 1516750994655}, {"current_trial": 135, "trialdata": {"rt": -1, "trial_type": "single-stim", "stimulus": "<p id=\"stim\">9</p>", "internal_node_id": "0.0-98.0-1.0", "time_elapsed": 697650, "key_press": -1, "trial_index": 135}, "uniqueid": "MTK2153:3NQL1CS15SFH60IDK3Y29G4FCMKVYS", "dateTime": 1516750995656}, {"current_trial": 136, "trialdata": {"rt": -1, "trial_type": "single-stim", "stimulus": "<p id=\"stim\">8</p>", "internal_node_id": "0.0-98.0-2.0", "time_elapsed": 698651, "key_press": -1, "trial_index": 136}, "uniqueid": "MTK2153:3NQL1CS15SFH60IDK3Y29G4FCMKVYS", "dateTime": 1516750996658}, {"current_trial": 137, "trialdata": {"rt": -1, "trial_type": "single-stim", "stimulus": "<p id=\"stim\">7</p>", "internal_node_id": "0.0-98.0-3.0", "time_elapsed": 699653, "key_press": -1, "trial_index": 137}, "uniqueid": "MTK2153:3NQL1CS15SFH60IDK3Y29G4FCMKVYS", "dateTime": 1516750997659}, {"current_trial": 138, "trialdata": {"rt": -1, "trial_type": "single-stim", "stimulus": "<p id=\"stim\">6</p>", "internal_node_id": "0.0-98.0-4.0", "time_elapsed": 700655, "key_press": -1, "trial_index": 138}, "uniqueid": "MTK2153:3NQL1CS15SFH60IDK3Y29G4FCMKVYS", "dateTime": 1516750998661}, {"current_trial": 139, "trialdata": {"rt": -1, "trial_type": "single-stim", "stimulus": "<p id=\"stim\">5</p>", "internal_node_id": "0.0-98.0-5.0", "time_elapsed": 701657, "key_press": -1, "trial_index": 139}, "uniqueid": "MTK2153:3NQL1CS15SFH60IDK3Y29G4FCMKVYS", "dateTime": 1516750999663}, {"current_trial": 140, "trialdata": {"rt": -1, "trial_type": "single-stim", "stimulus": "<p id=\"stim\">4</p>", "internal_node_id": "0.0-98.0-6.0", "time_elapsed": 702658, "key_press": -1, "trial_index": 140}, "uniqueid": "MTK2153:3NQL1CS15SFH60IDK3Y29G4FCMKVYS", "dateTime": 1516751000664}, {"current_trial": 141, "trialdata": {"rt": -1, "trial_type": "single-stim", "stimulus": "<p id=\"stim\">3</p>", "internal_node_id": "0.0-98.0-7.0", "time_elapsed": 703659, "key_press": -1, "trial_index": 141}, "uniqueid": "MTK2153:3NQL1CS15SFH60IDK3Y29G4FCMKVYS", "dateTime": 1516751001665}, {"current_trial": 142, "trialdata": {"rt": -1, "trial_type": "single-stim", "stimulus": "<p id=\"stim\">2</p>", "internal_node_id": "0.0-98.0-8.0", "time_elapsed": 704661, "key_press": -1, "trial_index": 142}, "uniqueid": "MTK2153:3NQL1CS15SFH60IDK3Y29G4FCMKVYS", "dateTime": 1516751002668}, {"current_trial": 143, "trialdata": {"rt": -1, "trial_type": "single-stim", "stimulus": "<p id=\"stim\">1</p>", "internal_node_id": "0.0-98.0-9.0", "time_elapsed": 705663, "key_press": -1, "trial_index": 143}, "uniqueid": "MTK2153:3NQL1CS15SFH60IDK3Y29G4FCMKVYS", "dateTime": 1516751003669}, {"current_trial": 144, "trialdata": {"rt": -1, "trial_type": "single-stim", "stimulus": "<p id=\"stim\">+</p>", "internal_node_id": "0.0-99.0-0.0", "time_elapsed": 707164, "key_press": -1, "type": "FIXATION", "trial_index": 144}, "uniqueid": "MTK2153:3NQL1CS15SFH60IDK3Y29G4FCMKVYS", "dateTime": 1516751005170}, {"current_trial": 145, "trialdata": {"rt": -1, "trial_type": "single-stim", "word": "sister", "stimulus": "<p id=\"stim\">SISTER</p>", "conditions": [24, 800, "v", 24000], "internal_node_id": "0.0-100.0", "trial": 4, "time_elapsed": 707965, "serialpos": 0, "key_press": -1, "wordID": 1311, "type": "PRES_VIS", "trial_index": 145}, "uniqueid": "MTK2153:3NQL1CS15SFH60IDK3Y29G4FCMKVYS", "dateTime": 1516751005971}, {"current_trial": 146, "trialdata": {"rt": -1, "trial_type": "single-stim", "word": "crab", "stimulus": "<p id=\"stim\">CRAB</p>", "conditions": [24, 800, "v", 24000], "internal_node_id": "0.0-101.0", "trial": 4, "time_elapsed": 709899, "serialpos": 1, "key_press": -1, "wordID": 396, "type": "PRES_VIS", "trial_index": 146}, "uniqueid": "MTK2153:3NQL1CS15SFH60IDK3Y29G4FCMKVYS", "dateTime": 1516751007905}, {"current_trial": 147, "trialdata": {"rt": -1, "trial_type": "single-stim", "word": "oyster", "stimulus": "<p id=\"stim\">OYSTER</p>", "conditions": [24, 800, "v", 24000], "internal_node_id": "0.0-102.0", "trial": 4, "time_elapsed": 711708, "serialpos": 2, "key_press": -1, "wordID": 994, "type": "PRES_VIS", "trial_index": 147}, "uniqueid": "MTK2153:3NQL1CS15SFH60IDK3Y29G4FCMKVYS", "dateTime": 1516751009714}, {"current_trial": 148, "trialdata": {"rt": -1, "trial_type": "single-stim", "word": "compass", "stimulus": "<p id=\"stim\">COMPASS</p>", "conditions": [24, 800, "v", 24000], "internal_node_id": "0.0-103.0", "trial": 4, "time_elapsed": 713503, "serialpos": 3, "key_press": -1, "wordID": 357, "type": "PRES_VIS", "trial_index": 148}, "uniqueid": "MTK2153:3NQL1CS15SFH60IDK3Y29G4FCMKVYS", "dateTime": 1516751011509}, {"current_trial": 149, "trialdata": {"rt": -1, "trial_type": "single-stim", "word": "hamper", "stimulus": "<p id=\"stim\">HAMPER</p>", "conditions": [24, 800, "v", 24000], "internal_node_id": "0.0-104.0", "trial": 4, "time_elapsed": 715372, "serialpos": 4, "key_press": -1, "wordID": 681, "type": "PRES_VIS", "trial_index": 149}, "uniqueid": "MTK2153:3NQL1CS15SFH60IDK3Y29G4FCMKVYS", "dateTime": 1516751013379}, {"current_trial": 150, "trialdata": {"rt": -1, "trial_type": "single-stim", "word": "pliers", "stimulus": "<p id=\"stim\">PLIERS</p>", "conditions": [24, 800, "v", 24000], "internal_node_id": "0.0-105.0", "trial": 4, "time_elapsed": 717305, "serialpos": 5, "key_press": -1, "wordID": 1088, "type": "PRES_VIS", "trial_index": 150}, "uniqueid": "MTK2153:3NQL1CS15SFH60IDK3Y29G4FCMKVYS", "dateTime": 1516751015311}, {"current_trial": 151, "trialdata": {"rt": -1, "trial_type": "single-stim", "word": "couch", "stimulus": "<p id=\"stim\">COUCH</p>", "conditions": [24, 800, "v", 24000], "internal_node_id": "0.0-106.0", "trial": 4, "time_elapsed": 719035, "serialpos": 6, "key_press": -1, "wordID": 385, "type": "PRES_VIS", "trial_index": 151}, "uniqueid": "MTK2153:3NQL1CS15SFH60IDK3Y29G4FCMKVYS", "dateTime": 1516751017041}, {"current_trial": 152, "trialdata": {"rt": -1, "trial_type": "single-stim", "word": "elbow", "stimulus": "<p id=\"stim\">ELBOW</p>", "conditions": [24, 800, "v", 24000], "internal_node_id": "0.0-107.0", "trial": 4, "time_elapsed": 720727, "serialpos": 7, "key_press": -1, "wordID": 519, "type": "PRES_VIS", "trial_index": 152}, "uniqueid": "MTK2153:3NQL1CS15SFH60IDK3Y29G4FCMKVYS", "dateTime": 1516751018733}, {"current_trial": 153, "trialdata": {"rt": -1, "trial_type": "single-stim", "word": "flute", "stimulus": "<p id=\"stim\">FLUTE</p>", "conditions": [24, 800, "v", 24000], "internal_node_id": "0.0-108.0", "trial": 4, "time_elapsed": 722533, "serialpos": 8, "key_press": -1, "wordID": 584, "type": "PRES_VIS", "trial_index": 153}, "uniqueid": "MTK2153:3NQL1CS15SFH60IDK3Y29G4FCMKVYS", "dateTime": 1516751020540}, {"current_trial": 154, "trialdata": {"rt": -1, "trial_type": "single-stim", "word": "zebra", "stimulus": "<p id=\"stim\">ZEBRA</p>", "conditions": [24, 800, "v", 24000], "internal_node_id": "0.0-109.0", "trial": 4, "time_elapsed": 724349, "serialpos": 9, "key_press": -1, "wordID": 1634, "type": "PRES_VIS", "trial_index": 154}, "uniqueid": "MTK2153:3NQL1CS15SFH60IDK3Y29G4FCMKVYS", "dateTime": 1516751022355}, {"current_trial": 155, "trialdata": {"rt": -1, "trial_type": "single-stim", "word": "pimple", "stimulus": "<p id=\"stim\">PIMPLE</p>", "conditions": [24, 800, "v", 24000], "internal_node_id": "0.0-110.0", "trial": 4, "time_elapsed": 726107, "serialpos": 10, "key_press": -1, "wordID": 1070, "type": "PRES_VIS", "trial_index": 155}, "uniqueid": "MTK2153:3NQL1CS15SFH60IDK3Y29G4FCMKVYS", "dateTime": 1516751024113}, {"current_trial": 156, "trialdata": {"rt": -1, "trial_type": "single-stim", "word": "banjo", "stimulus": "<p id=\"stim\">BANJO</p>", "conditions": [24, 800, "v", 24000], "internal_node_id": "0.0-111.0", "trial": 4, "time_elapsed": 727924, "serialpos": 11, "key_press": -1, "wordID": 81, "type": "PRES_VIS", "trial_index": 156}, "uniqueid": "MTK2153:3NQL1CS15SFH60IDK3Y29G4FCMKVYS", "dateTime": 1516751025930}, {"current_trial": 157, "trialdata": {"rt": -1, "trial_type": "single-stim", "word": "briefcase", "stimulus": "<p id=\"stim\">BRIEFCASE</p>", "conditions": [24, 800, "v", 24000], "internal_node_id": "0.0-112.0", "trial": 4, "time_elapsed": 729691, "serialpos": 12, "key_press": -1, "wordID": 174, "type": "PRES_VIS", "trial_index": 157}, "uniqueid": "MTK2153:3NQL1CS15SFH60IDK3Y29G4FCMKVYS", "dateTime": 1516751027697}, {"current_trial": 158, "trialdata": {"rt": -1, "trial_type": "single-stim", "word": "primate", "stimulus": "<p id=\"stim\">PRIMATE</p>", "conditions": [24, 800, "v", 24000], "internal_node_id": "0.0-113.0", "trial": 4, "time_elapsed": 731396, "serialpos": 13, "key_press": -1, "wordID": 1122, "type": "PRES_VIS", "trial_index": 158}, "uniqueid": "MTK2153:3NQL1CS15SFH60IDK3Y29G4FCMKVYS", "dateTime": 1516751029402}, {"current_trial": 159, "trialdata": {"rt": -1, "trial_type": "single-stim", "word": "drug", "stimulus": "<p id=\"stim\">DRUG</p>", "conditions": [24, 800, "v", 24000], "internal_node_id": "0.0-114.0", "trial": 4, "time_elapsed": 733107, "serialpos": 14, "key_press": -1, "wordID": 500, "type": "PRES_VIS", "trial_index": 159}, "uniqueid": "MTK2153:3NQL1CS15SFH60IDK3Y29G4FCMKVYS", "dateTime": 1516751031113}, {"current_trial": 160, "trialdata": {"rt": -1, "trial_type": "single-stim", "word": "preacher", "stimulus": "<p id=\"stim\">PREACHER</p>", "conditions": [24, 800, "v", 24000], "internal_node_id": "0.0-115.0", "trial": 4, "time_elapsed": 734852, "serialpos": 15, "key_press": -1, "wordID": 1118, "type": "PRES_VIS", "trial_index": 160}, "uniqueid": "MTK2153:3NQL1CS15SFH60IDK3Y29G4FCMKVYS", "dateTime": 1516751032858}, {"current_trial": 161, "trialdata": {"rt": -1, "trial_type": "single-stim", "word": "virus", "stimulus": "<p id=\"stim\">VIRUS</p>", "conditions": [24, 800, "v", 24000], "internal_node_id": "0.0-116.0", "trial": 4, "time_elapsed": 736756, "serialpos": 16, "key_press": -1, "wordID": 1571, "type": "PRES_VIS", "trial_index": 161}, "uniqueid": "MTK2153:3NQL1CS15SFH60IDK3Y29G4FCMKVYS", "dateTime": 1516751034762}, {"current_trial": 162, "trialdata": {"rt": -1, "trial_type": "single-stim", "word": "sketch", "stimulus": "<p id=\"stim\">SKETCH</p>", "conditions": [24, 800, "v", 24000], "internal_node_id": "0.0-117.0", "trial": 4, "time_elapsed": 738658, "serialpos": 17, "key_press": -1, "wordID": 1314, "type": "PRES_VIS", "trial_index": 162}, "uniqueid": "MTK2153:3NQL1CS15SFH60IDK3Y29G4FCMKVYS", "dateTime": 1516751036664}, {"current_trial": 163, "trialdata": {"rt": -1, "trial_type": "single-stim", "word": "convict", "stimulus": "<p id=\"stim\">CONVICT</p>", "conditions": [24, 800, "v", 24000], "internal_node_id": "0.0-118.0", "trial": 4, "time_elapsed": 740606, "serialpos": 18, "key_press": -1, "wordID": 370, "type": "PRES_VIS", "trial_index": 163}, "uniqueid": "MTK2153:3NQL1CS15SFH60IDK3Y29G4FCMKVYS", "dateTime": 1516751038612}, {"current_trial": 164, "trialdata": {"rt": -1, "trial_type": "single-stim", "word": "suitcase", "stimulus": "<p id=\"stim\">SUITCASE</p>", "conditions": [24, 800, "v", 24000], "internal_node_id": "0.0-119.0", "trial": 4, "time_elapsed": 742451, "serialpos": 19, "key_press": -1, "wordID": 1402, "type": "PRES_VIS", "trial_index": 164}, "uniqueid": "MTK2153:3NQL1CS15SFH60IDK3Y29G4FCMKVYS", "dateTime": 1516751040457}, {"current_trial": 165, "trialdata": {"rt": -1, "trial_type": "single-stim", "word": "sandwich", "stimulus": "<p id=\"stim\">SANDWICH</p>", "conditions": [24, 800, "v", 24000], "internal_node_id": "0.0-120.0", "trial": 4, "time_elapsed": 744397, "serialpos": 20, "key_press": -1, "wordID": 1231, "type": "PRES_VIS", "trial_index": 165}, "uniqueid": "MTK2153:3NQL1CS15SFH60IDK3Y29G4FCMKVYS", "dateTime": 1516751042403}, {"current_trial": 166, "trialdata": {"rt": -1, "trial_type": "single-stim", "word": "radish", "stimulus": "<p id=\"stim\">RADISH</p>", "conditions": [24, 800, "v", 24000], "internal_node_id": "0.0-121.0", "trial": 4, "time_elapsed": 746242, "serialpos": 21, "key_press": -1, "wordID": 1157, "type": "PRES_VIS", "trial_index": 166}, "uniqueid": "MTK2153:3NQL1CS15SFH60IDK3Y29G4FCMKVYS", "dateTime": 1516751044249}, {"current_trial": 167, "trialdata": {"rt": -1, "trial_type": "single-stim", "word": "cabbage", "stimulus": "<p id=\"stim\">CABBAGE</p>", "conditions": [24, 800, "v", 24000], "internal_node_id": "0.0-122.0", "trial": 4, "time_elapsed": 747847, "serialpos": 22, "key_press": -1, "wordID": 209, "type": "PRES_VIS", "trial_index": 167}, "uniqueid": "MTK2153:3NQL1CS15SFH60IDK3Y29G4FCMKVYS", "dateTime": 1516751045853}, {"current_trial": 168, "trialdata": {"rt": -1, "trial_type": "single-stim", "word": "flower", "stimulus": "<p id=\"stim\">FLOWER</p>", "conditions": [24, 800, "v", 24000], "internal_node_id": "0.0-123.0", "trial": 4, "time_elapsed": 749793, "serialpos": 23, "key_press": -1, "wordID": 583, "type": "PRES_VIS", "trial_index": 168}, "uniqueid": "MTK2153:3NQL1CS15SFH60IDK3Y29G4FCMKVYS", "dateTime": 1516751047799}, {"current_trial": 169, "trialdata": {"rt": -1, "trial_type": "single-stim", "stimulus": "", "internal_node_id": "0.0-124.0-0.0", "time_elapsed": 751937, "key_press": -1, "type": "PRE_RECALL_DELAY", "trial_index": 169}, "uniqueid": "MTK2153:3NQL1CS15SFH60IDK3Y29G4FCMKVYS", "dateTime": 1516751049943}, {"current_trial": 170, "trialdata": {"rt": -1000, "trial_type": "single-audio", "stimulus": "/static/audio/400Hz.wav", "internal_node_id": "0.0-125.0", "time_elapsed": 752439, "key_press": -1, "type": "PRE_RECALL_ALERT", "trial_index": 170}, "uniqueid": "MTK2153:3NQL1CS15SFH60IDK3Y29G4FCMKVYS", "dateTime": 1516751050445}, {"current_trial": 171, "trialdata": {"rt": [5057, 7226, 8423, 9832, 12422, 22481, 27656, 34695, 44272, 57346], "recwords": ["convict", "suitecase", "radish", "cabbage", "flower", "sister", "elbow", "preacher", "briefcase", "pliers"], "key_times": [2570, 2711, 2893, 3858, 3955, 4194, 4705, 5057, 5300, 5361, 5484, 5640, 6028, 6320, 6581, 6765, 6947, 7226, 7408, 7540, 7780, 7961, 8125, 8214, 8423, 8653, 8892, 9155, 9311, 9416, 9539, 9675, 9832, 10317, 10430, 10600, 10740, 10929, 11108, 12422, 21334, 21429, 21537, 21739, 21946, 22005, 22481, 25609, 26084, 26219, 26412, 26672, 26963, 27409, 27656, 33326, 33447, 33544, 33711, 33928, 34023, 34197, 34289, 34695, 42353, 42505, 42666, 42888, 43189, 43495, 43711, 43841, 44038, 44272, 55669, 56452, 56670, 56887, 57001, 57211, 57346], "trial_type": "free-recall", "conditions": [24, 800, "v", 24000], "internal_node_id": "0.0-126.0-0.0", "key_presses": [67, 79, 78, 86, 73, 67, 84, 13, 83, 85, 73, 84, 69, 67, 65, 83, 69, 13, 82, 65, 68, 73, 83, 72, 32, 67, 65, 66, 66, 65, 71, 69, 32, 70, 76, 79, 87, 69, 82, 13, 83, 73, 83, 84, 69, 82, 13, 83, 8, 69, 76, 66, 79, 87, 13, 80, 82, 69, 65, 67, 72, 69, 82, 13, 66, 82, 73, 69, 70, 67, 65, 83, 69, 13, 80, 76, 73, 69, 82, 83, 13], "trial": 4, "time_elapsed": 812443, "type": "FREE_RECALL", "trial_index": 171}, "uniqueid": "MTK2153:3NQL1CS15SFH60IDK3Y29G4FCMKVYS", "dateTime": 1516751110455}, {"current_trial": 172, "trialdata": {"rt": 1021, "trial_type": "text", "internal_node_id": "0.0-127.0", "time_elapsed": 815472, "key_press": 13, "type": "INSTRUCTIONS", "trial_index": 172}, "uniqueid": "MTK2153:3NQL1CS15SFH60IDK3Y29G4FCMKVYS", "dateTime": 1516751113478}, {"current_trial": 173, "trialdata": {"rt": [2178, 7771, 18851, 23846], "trial_type": "math-distractor", "key_times": [1798, 1948, 2178, 7449, 7629, 7771, 17428, 18590, 18851, 23393, 23571, 23846], "responses": ["16", "11", "18", "16"], "num2": [4, 5, 8, 5, 2], "num3": [8, 4, 7, 4, 7], "conditions": [12, 1600, "v", 24000], "internal_node_id": "0.0-128.0", "key_presses": [97, 102, 13, 97, 97, 13, 97, 104, 13, 97, 102, 13], "trial": 5, "time_elapsed": 841475, "type": "DISTRACTOR", "trial_index": 173, "num1": [4, 2, 3, 7, 5]}, "uniqueid": "MTK2153:3NQL1CS15SFH60IDK3Y29G4FCMKVYS", "dateTime": 1516751139481}, {"current_trial": 174, "trialdata": {"rt": -1, "trial_type": "single-stim", "stimulus": "<p id=\"stim\">10</p>", "internal_node_id": "0.0-129.0-0.0", "time_elapsed": 844476, "key_press": -1, "trial_index": 174}, "uniqueid": "MTK2153:3NQL1CS15SFH60IDK3Y29G4FCMKVYS", "dateTime": 1516751142483}, {"current_trial": 175, "trialdata": {"rt": -1, "trial_type": "single-stim", "stimulus": "<p id=\"stim\">9</p>", "internal_node_id": "0.0-129.0-1.0", "time_elapsed": 845478, "key_press": -1, "trial_index": 175}, "uniqueid": "MTK2153:3NQL1CS15SFH60IDK3Y29G4FCMKVYS", "dateTime": 1516751143484}, {"current_trial": 176, "trialdata": {"rt": -1, "trial_type": "single-stim", "stimulus": "<p id=\"stim\">8</p>", "internal_node_id": "0.0-129.0-2.0", "time_elapsed": 846479, "key_press": -1, "trial_index": 176}, "uniqueid": "MTK2153:3NQL1CS15SFH60IDK3Y29G4FCMKVYS", "dateTime": 1516751144485}, {"current_trial": 177, "trialdata": {"rt": -1, "trial_type": "single-stim", "stimulus": "<p id=\"stim\">7</p>", "internal_node_id": "0.0-129.0-3.0", "time_elapsed": 847481, "key_press": -1, "trial_index": 177}, "uniqueid": "MTK2153:3NQL1CS15SFH60IDK3Y29G4FCMKVYS", "dateTime": 1516751145487}, {"current_trial": 178, "trialdata": {"rt": -1, "trial_type": "single-stim", "stimulus": "<p id=\"stim\">6</p>", "internal_node_id": "0.0-129.0-4.0", "time_elapsed": 848483, "key_press": -1, "trial_index": 178}, "uniqueid": "MTK2153:3NQL1CS15SFH60IDK3Y29G4FCMKVYS", "dateTime": 1516751146489}, {"current_trial": 179, "trialdata": {"rt": -1, "trial_type": "single-stim", "stimulus": "<p id=\"stim\">5</p>", "internal_node_id": "0.0-129.0-5.0", "time_elapsed": 849485, "key_press": -1, "trial_index": 179}, "uniqueid": "MTK2153:3NQL1CS15SFH60IDK3Y29G4FCMKVYS", "dateTime": 1516751147491}, {"current_trial": 180, "trialdata": {"rt": -1, "trial_type": "single-stim", "stimulus": "<p id=\"stim\">4</p>", "internal_node_id": "0.0-129.0-6.0", "time_elapsed": 850486, "key_press": -1, "trial_index": 180}, "uniqueid": "MTK2153:3NQL1CS15SFH60IDK3Y29G4FCMKVYS", "dateTime": 1516751148492}, {"current_trial": 181, "trialdata": {"rt": -1, "trial_type": "single-stim", "stimulus": "<p id=\"stim\">3</p>", "internal_node_id": "0.0-129.0-7.0", "time_elapsed": 851487, "key_press": -1, "trial_index": 181}, "uniqueid": "MTK2153:3NQL1CS15SFH60IDK3Y29G4FCMKVYS", "dateTime": 1516751149494}, {"current_trial": 182, "trialdata": {"rt": -1, "trial_type": "single-stim", "stimulus": "<p id=\"stim\">2</p>", "internal_node_id": "0.0-129.0-8.0", "time_elapsed": 852489, "key_press": -1, "trial_index": 182}, "uniqueid": "MTK2153:3NQL1CS15SFH60IDK3Y29G4FCMKVYS", "dateTime": 1516751150495}, {"current_trial": 183, "trialdata": {"rt": -1, "trial_type": "single-stim", "stimulus": "<p id=\"stim\">1</p>", "internal_node_id": "0.0-129.0-9.0", "time_elapsed": 853492, "key_press": -1, "trial_index": 183}, "uniqueid": "MTK2153:3NQL1CS15SFH60IDK3Y29G4FCMKVYS", "dateTime": 1516751151498}, {"current_trial": 184, "trialdata": {"rt": -1, "trial_type": "single-stim", "stimulus": "<p id=\"stim\">+</p>", "internal_node_id": "0.0-130.0-0.0", "time_elapsed": 854993, "key_press": -1, "type": "FIXATION", "trial_index": 184}, "uniqueid": "MTK2153:3NQL1CS15SFH60IDK3Y29G4FCMKVYS", "dateTime": 1516751152999}, {"current_trial": 185, "trialdata": {"rt": -1, "trial_type": "single-stim", "word": "gift", "stimulus": "<p id=\"stim\">GIFT</p>", "conditions": [12, 1600, "v", 24000], "internal_node_id": "0.0-131.0", "trial": 5, "time_elapsed": 856594, "serialpos": 0, "key_press": -1, "wordID": 634, "type": "PRES_VIS", "trial_index": 185}, "uniqueid": "MTK2153:3NQL1CS15SFH60IDK3Y29G4FCMKVYS", "dateTime": 1516751154600}, {"current_trial": 186, "trialdata": {"rt": -1, "trial_type": "single-stim", "word": "postage", "stimulus": "<p id=\"stim\">POSTAGE</p>", "conditions": [12, 1600, "v", 24000], "internal_node_id": "0.0-132.0", "trial": 5, "time_elapsed": 859077, "serialpos": 1, "key_press": -1, "wordID": 1112, "type": "PRES_VIS", "trial_index": 186}, "uniqueid": "MTK2153:3NQL1CS15SFH60IDK3Y29G4FCMKVYS", "dateTime": 1516751157083}, {"current_trial": 187, "trialdata": {"rt": -1, "trial_type": "single-stim", "word": "flesh", "stimulus": "<p id=\"stim\">FLESH</p>", "conditions": [12, 1600, "v", 24000], "internal_node_id": "0.0-133.0", "trial": 5, "time_elapsed": 861809, "serialpos": 2, "key_press": -1, "wordID": 578, "type": "PRES_VIS", "trial_index": 187}, "uniqueid": "MTK2153:3NQL1CS15SFH60IDK3Y29G4FCMKVYS", "dateTime": 1516751159815}, {"current_trial": 188, "trialdata": {"rt": -1, "trial_type": "single-stim", "word": "mammal", "stimulus": "<p id=\"stim\">MAMMAL</p>", "conditions": [12, 1600, "v", 24000], "internal_node_id": "0.0-134.0", "trial": 5, "time_elapsed": 864289, "serialpos": 3, "key_press": -1, "wordID": 860, "type": "PRES_VIS", "trial_index": 188}, "uniqueid": "MTK2153:3NQL1CS15SFH60IDK3Y29G4FCMKVYS", "dateTime": 1516751162295}, {"current_trial": 189, "trialdata": {"rt": -1, "trial_type": "single-stim", "word": "typist", "stimulus": "<p id=\"stim\">TYPIST</p>", "conditions": [12, 1600, "v", 24000], "internal_node_id": "0.0-135.0", "trial": 5, "time_elapsed": 866890, "serialpos": 4, "key_press": -1, "wordID": 1531, "type": "PRES_VIS", "trial_index": 189}, "uniqueid": "MTK2153:3NQL1CS15SFH60IDK3Y29G4FCMKVYS", "dateTime": 1516751164896}, {"current_trial": 190, "trialdata": {"rt": -1, "trial_type": "single-stim", "word": "tombstone", "stimulus": "<p id=\"stim\">TOMBSTONE</p>", "conditions": [12, 1600, "v", 24000], "internal_node_id": "0.0-136.0", "trial": 5, "time_elapsed": 869660, "serialpos": 5, "key_press": -1, "wordID": 1477, "type": "PRES_VIS", "trial_index": 190}, "uniqueid": "MTK2153:3NQL1CS15SFH60IDK3Y29G4FCMKVYS", "dateTime": 1516751167666}, {"current_trial": 191, "trialdata": {"rt": -1, "trial_type": "single-stim", "word": "gallon", "stimulus": "<p id=\"stim\">GALLON</p>", "conditions": [12, 1600, "v", 24000], "internal_node_id": "0.0-137.0", "trial": 5, "time_elapsed": 872318, "serialpos": 6, "key_press": -1, "wordID": 617, "type": "PRES_VIS", "trial_index": 191}, "uniqueid": "MTK2153:3NQL1CS15SFH60IDK3Y29G4FCMKVYS", "dateTime": 1516751170324}, {"current_trial": 192, "trialdata": {"rt": -1, "trial_type": "single-stim", "word": "marrow", "stimulus": "<p id=\"stim\">MARROW</p>", "conditions": [12, 1600, "v", 24000], "internal_node_id": "0.0-138.0", "trial": 5, "time_elapsed": 874760, "serialpos": 7, "key_press": -1, "wordID": 871, "type": "PRES_VIS", "trial_index": 192}, "uniqueid": "MTK2153:3NQL1CS15SFH60IDK3Y29G4FCMKVYS", "dateTime": 1516751172766}, {"current_trial": 193, "trialdata": {"rt": -1, "trial_type": "single-stim", "word": "liver", "stimulus": "<p id=\"stim\">LIVER</p>", "conditions": [12, 1600, "v", 24000], "internal_node_id": "0.0-139.0", "trial": 5, "time_elapsed": 877388, "serialpos": 8, "key_press": -1, "wordID": 832, "type": "PRES_VIS", "trial_index": 193}, "uniqueid": "MTK2153:3NQL1CS15SFH60IDK3Y29G4FCMKVYS", "dateTime": 1516751175394}, {"current_trial": 194, "trialdata": {"rt": -1, "trial_type": "single-stim", "word": "chapel", "stimulus": "<p id=\"stim\">CHAPEL</p>", "conditions": [12, 1600, "v", 24000], "internal_node_id": "0.0-140.0", "trial": 5, "time_elapsed": 880093, "serialpos": 9, "key_press": -1, "wordID": 279, "type": "PRES_VIS", "trial_index": 194}, "uniqueid": "MTK2153:3NQL1CS15SFH60IDK3Y29G4FCMKVYS", "dateTime": 1516751178099}, {"current_trial": 195, "trialdata": {"rt": -1, "trial_type": "single-stim", "word": "backbone", "stimulus": "<p id=\"stim\">BACKBONE</p>", "conditions": [12, 1600, "v", 24000], "internal_node_id": "0.0-141.0", "trial": 5, "time_elapsed": 882846, "serialpos": 10, "key_press": -1, "wordID": 65, "type": "PRES_VIS", "trial_index": 195}, "uniqueid": "MTK2153:3NQL1CS15SFH60IDK3Y29G4FCMKVYS", "dateTime": 1516751180852}, {"current_trial": 196, "trialdata": {"rt": -1, "trial_type": "single-stim", "word": "lizard", "stimulus": "<p id=\"stim\">LIZARD</p>", "conditions": [12, 1600, "v", 24000], "internal_node_id": "0.0-142.0", "trial": 5, "time_elapsed": 885439, "serialpos": 11, "key_press": -1, "wordID": 833, "type": "PRES_VIS", "trial_index": 196}, "uniqueid": "MTK2153:3NQL1CS15SFH60IDK3Y29G4FCMKVYS", "dateTime": 1516751183446}, {"current_trial": 197, "trialdata": {"rt": -1, "trial_type": "single-stim", "stimulus": "", "internal_node_id": "0.0-143.0-0.0", "time_elapsed": 887719, "key_press": -1, "type": "PRE_RECALL_DELAY", "trial_index": 197}, "uniqueid": "MTK2153:3NQL1CS15SFH60IDK3Y29G4FCMKVYS", "dateTime": 1516751185725}, {"current_trial": 198, "trialdata": {"rt": -1000, "trial_type": "single-audio", "stimulus": "/static/audio/400Hz.wav", "internal_node_id": "0.0-144.0", "time_elapsed": 888220, "key_press": -1, "type": "PRE_RECALL_ALERT", "trial_index": 198}, "uniqueid": "MTK2153:3NQL1CS15SFH60IDK3Y29G4FCMKVYS", "dateTime": 1516751186226}, {"current_trial": 199, "trialdata": {"rt": [5651, 7305, 9360, 10700, 11774, 15063, 15993, 19024, 21290, 29754], "recwords": ["lizard", "gallon", "backbone", "marrow", "liver", "skin", "gift", "postage", "lizard", "mammel"], "key_times": [3741, 3925, 4179, 4530, 4727, 5138, 5651, 5904, 6034, 6214, 6388, 6677, 6903, 7305, 7553, 7698, 7912, 7983, 8233, 8438, 8629, 8773, 9360, 9596, 9702, 9912, 10066, 10128, 10284, 10700, 10917, 11101, 11229, 11399, 11583, 11774, 12460, 12567, 12728, 14085, 15063, 15336, 15497, 15582, 15813, 15993, 16827, 17022, 17151, 17420, 17639, 17786, 18203, 19024, 19699, 19878, 20015, 20305, 20450, 20808, 21290, 28111, 28304, 28488, 28638, 29186, 29295, 29754, 45268, 58106, 58251, 58495, 58866], "trial_type": "free-recall", "conditions": [12, 1600, "v", 24000], "internal_node_id": "0.0-145.0-0.0", "key_presses": [76, 73, 90, 65, 82, 68, 13, 71, 65, 76, 76, 79, 78, 13, 66, 65, 67, 75, 66, 79, 78, 69, 13, 77, 65, 82, 82, 79, 87, 13, 76, 73, 86, 69, 82, 13, 83, 75, 73, 78, 13, 71, 73, 70, 84, 32, 80, 79, 83, 84, 65, 71, 69, 13, 76, 73, 90, 65, 82, 68, 13, 77, 65, 77, 77, 69, 76, 13, 18, 71, 73, 70, 84], "trial": 5, "time_elapsed": 948224, "type": "FREE_RECALL", "trial_index": 199}, "uniqueid": "MTK2153:3NQL1CS15SFH60IDK3Y29G4FCMKVYS", "dateTime": 1516751246236}, {"current_trial": 200, "trialdata": {"rt": 766, "trial_type": "text", "internal_node_id": "0.0-146.0", "time_elapsed": 950998, "key_press": 13, "type": "INSTRUCTIONS", "trial_index": 200}, "uniqueid": "MTK2153:3NQL1CS15SFH60IDK3Y29G4FCMKVYS", "dateTime": 1516751249004}, {"current_trial": 201, "trialdata": {"rt": [2499, 7379, 10294], "trial_type": "math-distractor", "key_times": [2061, 2249, 2499, 6005, 6084, 7379, 9743, 10028, 10294, 11840], "responses": ["16", "21", "17"], "num2": [5, 5, 6, 8], "num3": [8, 8, 7, 2], "conditions": [24, 800, "v", 12000], "internal_node_id": "0.0-147.0", "key_presses": [97, 102, 13, 98, 97, 13, 97, 103, 13, 97], "trial": 6, "time_elapsed": 965001, "type": "DISTRACTOR", "trial_index": 201, "num1": [3, 8, 4, 7]}, "uniqueid": "MTK2153:3NQL1CS15SFH60IDK3Y29G4FCMKVYS", "dateTime": 1516751263008}, {"current_trial": 202, "trialdata": {"rt": -1, "trial_type": "single-stim", "stimulus": "<p id=\"stim\">10</p>", "internal_node_id": "0.0-148.0-0.0", "time_elapsed": 968003, "key_press": -1, "trial_index": 202}, "uniqueid": "MTK2153:3NQL1CS15SFH60IDK3Y29G4FCMKVYS", "dateTime": 1516751266010}, {"current_trial": 203, "trialdata": {"rt": -1, "trial_type": "single-stim", "stimulus": "<p id=\"stim\">9</p>", "internal_node_id": "0.0-148.0-1.0", "time_elapsed": 969005, "key_press": -1, "trial_index": 203}, "uniqueid": "MTK2153:3NQL1CS15SFH60IDK3Y29G4FCMKVYS", "dateTime": 1516751267011}, {"current_trial": 204, "trialdata": {"rt": -1, "trial_type": "single-stim", "stimulus": "<p id=\"stim\">8</p>", "internal_node_id": "0.0-148.0-2.0", "time_elapsed": 970007, "key_press": -1, "trial_index": 204}, "uniqueid": "MTK2153:3NQL1CS15SFH60IDK3Y29G4FCMKVYS", "dateTime": 1516751268013}, {"current_trial": 205, "trialdata": {"rt": -1, "trial_type": "single-stim", "stimulus": "<p id=\"stim\">7</p>", "internal_node_id": "0.0-148.0-3.0", "time_elapsed": 971009, "key_press": -1, "trial_index": 205}, "uniqueid": "MTK2153:3NQL1CS15SFH60IDK3Y29G4FCMKVYS", "dateTime": 1516751269015}, {"current_trial": 206, "trialdata": {"rt": -1, "trial_type": "single-stim", "stimulus": "<p id=\"stim\">6</p>", "internal_node_id": "0.0-148.0-4.0", "time_elapsed": 972010, "key_press": -1, "trial_index": 206}, "uniqueid": "MTK2153:3NQL1CS15SFH60IDK3Y29G4FCMKVYS", "dateTime": 1516751270016}, {"current_trial": 207, "trialdata": {"rt": -1, "trial_type": "single-stim", "stimulus": "<p id=\"stim\">5</p>", "internal_node_id": "0.0-148.0-5.0", "time_elapsed": 973011, "key_press": -1, "trial_index": 207}, "uniqueid": "MTK2153:3NQL1CS15SFH60IDK3Y29G4FCMKVYS", "dateTime": 1516751271017}, {"current_trial": 208, "trialdata": {"rt": -1, "trial_type": "single-stim", "stimulus": "<p id=\"stim\">4</p>", "internal_node_id": "0.0-148.0-6.0", "time_elapsed": 974012, "key_press": -1, "trial_index": 208}, "uniqueid": "MTK2153:3NQL1CS15SFH60IDK3Y29G4FCMKVYS", "dateTime": 1516751272018}, {"current_trial": 209, "trialdata": {"rt": -1, "trial_type": "single-stim", "stimulus": "<p id=\"stim\">3</p>", "internal_node_id": "0.0-148.0-7.0", "time_elapsed": 975014, "key_press": -1, "trial_index": 209}, "uniqueid": "MTK2153:3NQL1CS15SFH60IDK3Y29G4FCMKVYS", "dateTime": 1516751273020}, {"current_trial": 210, "trialdata": {"rt": -1, "trial_type": "single-stim", "stimulus": "<p id=\"stim\">2</p>", "internal_node_id": "0.0-148.0-8.0", "time_elapsed": 976015, "key_press": -1, "trial_index": 210}, "uniqueid": "MTK2153:3NQL1CS15SFH60IDK3Y29G4FCMKVYS", "dateTime": 1516751274021}, {"current_trial": 211, "trialdata": {"rt": -1, "trial_type": "single-stim", "stimulus": "<p id=\"stim\">1</p>", "internal_node_id": "0.0-148.0-9.0", "time_elapsed": 977016, "key_press": -1, "trial_index": 211}, "uniqueid": "MTK2153:3NQL1CS15SFH60IDK3Y29G4FCMKVYS", "dateTime": 1516751275022}, {"current_trial": 212, "trialdata": {"rt": -1, "trial_type": "single-stim", "stimulus": "<p id=\"stim\">+</p>", "internal_node_id": "0.0-149.0-0.0", "time_elapsed": 978518, "key_press": -1, "type": "FIXATION", "trial_index": 212}, "uniqueid": "MTK2153:3NQL1CS15SFH60IDK3Y29G4FCMKVYS", "dateTime": 1516751276524}, {"current_trial": 213, "trialdata": {"rt": -1, "trial_type": "single-stim", "word": "sheriff", "stimulus": "<p id=\"stim\">SHERIFF</p>", "conditions": [24, 800, "v", 12000], "internal_node_id": "0.0-150.0", "trial": 6, "time_elapsed": 979320, "serialpos": 0, "key_press": -1, "wordID": 1283, "type": "PRES_VIS", "trial_index": 213}, "uniqueid": "MTK2153:3NQL1CS15SFH60IDK3Y29G4FCMKVYS", "dateTime": 1516751277326}, {"current_trial": 214, "trialdata": {"rt": -1, "trial_type": "single-stim", "word": "mailbox", "stimulus": "<p id=\"stim\">MAILBOX</p>", "conditions": [24, 800, "v", 12000], "internal_node_id": "0.0-151.0", "trial": 6, "time_elapsed": 981059, "serialpos": 1, "key_press": -1, "wordID": 856, "type": "PRES_VIS", "trial_index": 214}, "uniqueid": "MTK2153:3NQL1CS15SFH60IDK3Y29G4FCMKVYS", "dateTime": 1516751279065}, {"current_trial": 215, "trialdata": {"rt": -1, "trial_type": "single-stim", "word": "tile", "stimulus": "<p id=\"stim\">TILE</p>", "conditions": [24, 800, "v", 12000], "internal_node_id": "0.0-152.0", "trial": 6, "time_elapsed": 982894, "serialpos": 2, "key_press": -1, "wordID": 1467, "type": "PRES_VIS", "trial_index": 215}, "uniqueid": "MTK2153:3NQL1CS15SFH60IDK3Y29G4FCMKVYS", "dateTime": 1516751280900}, {"current_trial": 216, "trialdata": {"rt": -1, "trial_type": "single-stim", "word": "velvet", "stimulus": "<p id=\"stim\">VELVET</p>", "conditions": [24, 800, "v", 12000], "internal_node_id": "0.0-153.0", "trial": 6, "time_elapsed": 984581, "serialpos": 3, "key_press": -1, "wordID": 1554, "type": "PRES_VIS", "trial_index": 216}, "uniqueid": "MTK2153:3NQL1CS15SFH60IDK3Y29G4FCMKVYS", "dateTime": 1516751282588}, {"current_trial": 217, "trialdata": {"rt": -1, "trial_type": "single-stim", "word": "pecan", "stimulus": "<p id=\"stim\">PECAN</p>", "conditions": [24, 800, "v", 12000], "internal_node_id": "0.0-154.0", "trial": 6, "time_elapsed": 986527, "serialpos": 4, "key_press": -1, "wordID": 1035, "type": "PRES_VIS", "trial_index": 217}, "uniqueid": "MTK2153:3NQL1CS15SFH60IDK3Y29G4FCMKVYS", "dateTime": 1516751284534}, {"current_trial": 218, "trialdata": {"rt": -1, "trial_type": "single-stim", "word": "brick", "stimulus": "<p id=\"stim\">BRICK</p>", "conditions": [24, 800, "v", 12000], "internal_node_id": "0.0-155.0", "trial": 6, "time_elapsed": 988145, "serialpos": 5, "key_press": -1, "wordID": 171, "type": "PRES_VIS", "trial_index": 218}, "uniqueid": "MTK2153:3NQL1CS15SFH60IDK3Y29G4FCMKVYS", "dateTime": 1516751286151}, {"current_trial": 219, "trialdata": {"rt": -1, "trial_type": "single-stim", "word": "france", "stimulus": "<p id=\"stim\">FRANCE</p>", "conditions": [24, 800, "v", 12000], "internal_node_id": "0.0-156.0", "trial": 6, "time_elapsed": 990011, "serialpos": 6, "key_press": -1, "wordID": 600, "type": "PRES_VIS", "trial_index": 219}, "uniqueid": "MTK2153:3NQL1CS15SFH60IDK3Y29G4FCMKVYS", "dateTime": 1516751288017}, {"current_trial": 220, "trialdata": {"rt": -1, "trial_type": "single-stim", "word": "japan", "stimulus": "<p id=\"stim\">JAPAN</p>", "conditions": [24, 800, "v", 12000], "internal_node_id": "0.0-157.0", "trial": 6, "time_elapsed": 991860, "serialpos": 7, "key_press": -1, "wordID": 748, "type": "PRES_VIS", "trial_index": 220}, "uniqueid": "MTK2153:3NQL1CS15SFH60IDK3Y29G4FCMKVYS", "dateTime": 1516751289866}, {"current_trial": 221, "trialdata": {"rt": -1, "trial_type": "single-stim", "word": "relish", "stimulus": "<p id=\"stim\">RELISH</p>", "conditions": [24, 800, "v", 12000], "internal_node_id": "0.0-158.0", "trial": 6, "time_elapsed": 993690, "serialpos": 8, "key_press": -1, "wordID": 1182, "type": "PRES_VIS", "trial_index": 221}, "uniqueid": "MTK2153:3NQL1CS15SFH60IDK3Y29G4FCMKVYS", "dateTime": 1516751291697}, {"current_trial": 222, "trialdata": {"rt": -1, "trial_type": "single-stim", "word": "necklace", "stimulus": "<p id=\"stim\">NECKLACE</p>", "conditions": [24, 800, "v", 12000], "internal_node_id": "0.0-159.0", "trial": 6, "time_elapsed": 995414, "serialpos": 9, "key_press": -1, "wordID": 939, "type": "PRES_VIS", "trial_index": 222}, "uniqueid": "MTK2153:3NQL1CS15SFH60IDK3Y29G4FCMKVYS", "dateTime": 1516751293420}, {"current_trial": 223, "trialdata": {"rt": -1, "trial_type": "single-stim", "word": "survey", "stimulus": "<p id=\"stim\">SURVEY</p>", "conditions": [24, 800, "v", 12000], "internal_node_id": "0.0-160.0", "trial": 6, "time_elapsed": 997144, "serialpos": 10, "key_press": -1, "wordID": 1413, "type": "PRES_VIS", "trial_index": 223}, "uniqueid": "MTK2153:3NQL1CS15SFH60IDK3Y29G4FCMKVYS", "dateTime": 1516751295150}, {"current_trial": 224, "trialdata": {"rt": -1, "trial_type": "single-stim", "word": "popcorn", "stimulus": "<p id=\"stim\">POPCORN</p>", "conditions": [24, 800, "v", 12000], "internal_node_id": "0.0-161.0", "trial": 6, "time_elapsed": 998823, "serialpos": 11, "key_press": -1, "wordID": 1103, "type": "PRES_VIS", "trial_index": 224}, "uniqueid": "MTK2153:3NQL1CS15SFH60IDK3Y29G4FCMKVYS", "dateTime": 1516751296829}, {"current_trial": 225, "trialdata": {"rt": -1, "trial_type": "single-stim", "word": "rebel", "stimulus": "<p id=\"stim\">REBEL</p>", "conditions": [24, 800, "v", 12000], "internal_node_id": "0.0-162.0", "trial": 6, "time_elapsed": 1000735, "serialpos": 12, "key_press": -1, "wordID": 1171, "type": "PRES_VIS", "trial_index": 225}, "uniqueid": "MTK2153:3NQL1CS15SFH60IDK3Y29G4FCMKVYS", "dateTime": 1516751298741}, {"current_trial": 226, "trialdata": {"rt": -1, "trial_type": "single-stim", "word": "country", "stimulus": "<p id=\"stim\">COUNTRY</p>", "conditions": [24, 800, "v", 12000], "internal_node_id": "0.0-163.0", "trial": 6, "time_elapsed": 1002590, "serialpos": 13, "key_press": -1, "wordID": 387, "type": "PRES_VIS", "trial_index": 226}, "uniqueid": "MTK2153:3NQL1CS15SFH60IDK3Y29G4FCMKVYS", "dateTime": 1516751300596}, {"current_trial": 227, "trialdata": {"rt": -1, "trial_type": "single-stim", "word": "brother", "stimulus": "<p id=\"stim\">BROTHER</p>", "conditions": [24, 800, "v", 12000], "internal_node_id": "0.0-164.0", "trial": 6, "time_elapsed": 1004474, "serialpos": 14, "key_press": -1, "wordID": 178, "type": "PRES_VIS", "trial_index": 227}, "uniqueid": "MTK2153:3NQL1CS15SFH60IDK3Y29G4FCMKVYS", "dateTime": 1516751302480}, {"current_trial": 228, "trialdata": {"rt": -1, "trial_type": "single-stim", "word": "burglar", "stimulus": "<p id=\"stim\">BURGLAR</p>", "conditions": [24, 800, "v", 12000], "internal_node_id": "0.0-165.0", "trial": 6, "time_elapsed": 1006225, "serialpos": 15, "key_press": -1, "wordID": 199, "type": "PRES_VIS", "trial_index": 228}, "uniqueid": "MTK2153:3NQL1CS15SFH60IDK3Y29G4FCMKVYS", "dateTime": 1516751304231}, {"current_trial": 229, "trialdata": {"rt": -1, "trial_type": "single-stim", "word": "sword", "stimulus": "<p id=\"stim\">SWORD</p>", "conditions": [24, 800, "v", 12000], "internal_node_id": "0.0-166.0", "trial": 6, "time_elapsed": 1007906, "serialpos": 16, "key_press": -1, "wordID": 1422, "type": "PRES_VIS", "trial_index": 229}, "uniqueid": "MTK2153:3NQL1CS15SFH60IDK3Y29G4FCMKVYS", "dateTime": 1516751305912}, {"current_trial": 230, "trialdata": {"rt": -1, "trial_type": "single-stim", "word": "twig", "stimulus": "<p id=\"stim\">TWIG</p>", "conditions": [24, 800, "v", 12000], "internal_node_id": "0.0-167.0", "trial": 6, "time_elapsed": 1009861, "serialpos": 17, "key_press": -1, "wordID": 1526, "type": "PRES_VIS", "trial_index": 230}, "uniqueid": "MTK2153:3NQL1CS15SFH60IDK3Y29G4FCMKVYS", "dateTime": 1516751307867}, {"current_trial": 231, "trialdata": {"rt": -1, "trial_type": "single-stim", "word": "hiker", "stimulus": "<p id=\"stim\">HIKER</p>", "conditions": [24, 800, "v", 12000], "internal_node_id": "0.0-168.0", "trial": 6, "time_elapsed": 1011584, "serialpos": 18, "key_press": -1, "wordID": 707, "type": "PRES_VIS", "trial_index": 231}, "uniqueid": "MTK2153:3NQL1CS15SFH60IDK3Y29G4FCMKVYS", "dateTime": 1516751309590}, {"current_trial": 232, "trialdata": {"rt": -1, "trial_type": "single-stim", "word": "dentist", "stimulus": "<p id=\"stim\">DENTIST</p>", "conditions": [24, 800, "v", 12000], "internal_node_id": "0.0-169.0", "trial": 6, "time_elapsed": 1013235, "serialpos": 19, "key_press": -1, "wordID": 446, "type": "PRES_VIS", "trial_index": 232}, "uniqueid": "MTK2153:3NQL1CS15SFH60IDK3Y29G4FCMKVYS", "dateTime": 1516751311242}, {"current_trial": 233, "trialdata": {"rt": -1, "trial_type": "single-stim", "word": "world", "stimulus": "<p id=\"stim\">WORLD</p>", "conditions": [24, 800, "v", 12000], "internal_node_id": "0.0-170.0", "trial": 6, "time_elapsed": 1015094, "serialpos": 20, "key_press": -1, "wordID": 1621, "type": "PRES_VIS", "trial_index": 233}, "uniqueid": "MTK2153:3NQL1CS15SFH60IDK3Y29G4FCMKVYS", "dateTime": 1516751313100}, {"current_trial": 234, "trialdata": {"rt": -1, "trial_type": "single-stim", "word": "cupboard", "stimulus": "<p id=\"stim\">CUPBOARD</p>", "conditions": [24, 800, "v", 12000], "internal_node_id": "0.0-171.0", "trial": 6, "time_elapsed": 1016962, "serialpos": 21, "key_press": -1, "wordID": 424, "type": "PRES_VIS", "trial_index": 234}, "uniqueid": "MTK2153:3NQL1CS15SFH60IDK3Y29G4FCMKVYS", "dateTime": 1516751314968}, {"current_trial": 235, "trialdata": {"rt": -1, "trial_type": "single-stim", "word": "wagon", "stimulus": "<p id=\"stim\">WAGON</p>", "conditions": [24, 800, "v", 12000], "internal_node_id": "0.0-172.0", "trial": 6, "time_elapsed": 1018579, "serialpos": 22, "key_press": -1, "wordID": 1577, "type": "PRES_VIS", "trial_index": 235}, "uniqueid": "MTK2153:3NQL1CS15SFH60IDK3Y29G4FCMKVYS", "dateTime": 1516751316585}, {"current_trial": 236, "trialdata": {"rt": -1, "trial_type": "single-stim", "word": "tractor", "stimulus": "<p id=\"stim\">TRACTOR</p>", "conditions": [24, 800, "v", 12000], "internal_node_id": "0.0-173.0", "trial": 6, "time_elapsed": 1020209, "serialpos": 23, "key_press": -1, "wordID": 1492, "type": "PRES_VIS", "trial_index": 236}, "uniqueid": "MTK2153:3NQL1CS15SFH60IDK3Y29G4FCMKVYS", "dateTime": 1516751318215}, {"current_trial": 237, "trialdata": {"rt": -1, "trial_type": "single-stim", "stimulus": "", "internal_node_id": "0.0-174.0-0.0", "time_elapsed": 1022522, "key_press": -1, "type": "PRE_RECALL_DELAY", "trial_index": 237}, "uniqueid": "MTK2153:3NQL1CS15SFH60IDK3Y29G4FCMKVYS", "dateTime": 1516751320529}, {"current_trial": 238, "trialdata": {"rt": -1000, "trial_type": "single-audio", "stimulus": "/static/audio/400Hz.wav", "internal_node_id": "0.0-175.0", "time_elapsed": 1023024, "key_press": -1, "type": "PRE_RECALL_ALERT", "trial_index": 238}, "uniqueid": "MTK2153:3NQL1CS15SFH60IDK3Y29G4FCMKVYS", "dateTime": 1516751321030}, {"current_trial": 239, "trialdata": {"rt": [2919, 4998, 6381, 7562, 9527, 11395, 13260, 18844, 23330, 28071, 33628, 34591, 39047], "recwords": ["wagon", "tractor", "sword", "twig", "sheriff", "dentist", "world", "nation", "tile", "mailbox", "tractor", "wagon", "tile"], "key_times": [1731, 1926, 2158, 2432, 2571, 2919, 3164, 3374, 3520, 3741, 4194, 4355, 4720, 4998, 5198, 5396, 5509, 5621, 6047, 6381, 6554, 6731, 6826, 7317, 7562, 7707, 7862, 7957, 8095, 8619, 9123, 9273, 9527, 9709, 9901, 9992, 10164, 10271, 10423, 10686, 11395, 11894, 12017, 12110, 12291, 13120, 13260, 13475, 13581, 13748, 13791, 13889, 14013, 18844, 20062, 20156, 20342, 20852, 23330, 26155, 26299, 26385, 26581, 26825, 27092, 27771, 28071, 30984, 31230, 31417, 31689, 32019, 32398, 32736, 33628, 33798, 33957, 34121, 34237, 34426, 34591, 38557, 38652, 38814, 38914, 39047], "trial_type": "free-recall", "conditions": [24, 800, "v", 12000], "internal_node_id": "0.0-176.0-0.0", "key_presses": [87, 65, 71, 79, 78, 13, 84, 82, 65, 67, 84, 79, 82, 13, 83, 87, 79, 82, 68, 13, 84, 87, 73, 71, 13, 83, 72, 69, 82, 73, 70, 70, 13, 68, 69, 78, 84, 73, 83, 84, 13, 87, 79, 82, 76, 68, 13, 78, 65, 84, 73, 79, 78, 13, 84, 73, 76, 69, 13, 77, 65, 73, 76, 66, 79, 88, 13, 84, 82, 65, 67, 84, 79, 82, 13, 87, 65, 71, 79, 78, 13, 84, 73, 76, 69, 13], "trial": 6, "time_elapsed": 1083027, "type": "FREE_RECALL", "trial_index": 239}, "uniqueid": "MTK2153:3NQL1CS15SFH60IDK3Y29G4FCMKVYS", "dateTime": 1516751381037}, {"current_trial": 240, "trialdata": {"rt": 1174, "trial_type": "text", "internal_node_id": "0.0-177.0", "time_elapsed": 1086207, "key_press": 13, "type": "INSTRUCTIONS", "trial_index": 240}, "uniqueid": "MTK2153:3NQL1CS15SFH60IDK3Y29G4FCMKVYS", "dateTime": 1516751384213}, {"current_trial": 241, "trialdata": {"rt": [4028, 8318, 11516, 14305, 17997, 20973], "trial_type": "math-distractor", "key_times": [3501, 3763, 4028, 6993, 8031, 8318, 10531, 10848, 11516, 13918, 14046, 14305, 17713, 17816, 17997, 20616, 20973], "responses": ["12", "15", "16", "12", "21", "9"], "num2": [3, 4, 7, 3, 7, 6, 3], "num3": [1, 3, 7, 5, 7, 2, 7], "conditions": [12, 800, "v", 24000], "internal_node_id": "0.0-178.0", "key_presses": [97, 98, 13, 97, 101, 13, 97, 102, 13, 97, 98, 13, 98, 97, 13, 105, 13], "trial": 7, "time_elapsed": 1112209, "type": "DISTRACTOR", "trial_index": 241, "num1": [8, 7, 2, 7, 7, 1, 6]}, "uniqueid": "MTK2153:3NQL1CS15SFH60IDK3Y29G4FCMKVYS", "dateTime": 1516751410215}, {"current_trial": 242, "trialdata": {"rt": -1, "trial_type": "single-stim", "stimulus": "<p id=\"stim\">10</p>", "internal_node_id": "0.0-179.0-0.0", "time_elapsed": 1115211, "key_press": -1, "trial_index": 242}, "uniqueid": "MTK2153:3NQL1CS15SFH60IDK3Y29G4FCMKVYS", "dateTime": 1516751413217}, {"current_trial": 243, "trialdata": {"rt": -1, "trial_type": "single-stim", "stimulus": "<p id=\"stim\">9</p>", "internal_node_id": "0.0-179.0-1.0", "time_elapsed": 1116212, "key_press": -1, "trial_index": 243}, "uniqueid": "MTK2153:3NQL1CS15SFH60IDK3Y29G4FCMKVYS", "dateTime": 1516751414218}, {"current_trial": 244, "trialdata": {"rt": -1, "trial_type": "single-stim", "stimulus": "<p id=\"stim\">8</p>", "internal_node_id": "0.0-179.0-2.0", "time_elapsed": 1117214, "key_press": -1, "trial_index": 244}, "uniqueid": "MTK2153:3NQL1CS15SFH60IDK3Y29G4FCMKVYS", "dateTime": 1516751415220}, {"current_trial": 245, "trialdata": {"rt": -1, "trial_type": "single-stim", "stimulus": "<p id=\"stim\">7</p>", "internal_node_id": "0.0-179.0-3.0", "time_elapsed": 1118216, "key_press": -1, "trial_index": 245}, "uniqueid": "MTK2153:3NQL1CS15SFH60IDK3Y29G4FCMKVYS", "dateTime": 1516751416222}, {"current_trial": 246, "trialdata": {"rt": -1, "trial_type": "single-stim", "stimulus": "<p id=\"stim\">6</p>", "internal_node_id": "0.0-179.0-4.0", "time_elapsed": 1119218, "key_press": -1, "trial_index": 246}, "uniqueid": "MTK2153:3NQL1CS15SFH60IDK3Y29G4FCMKVYS", "dateTime": 1516751417224}, {"current_trial": 247, "trialdata": {"rt": -1, "trial_type": "single-stim", "stimulus": "<p id=\"stim\">5</p>", "internal_node_id": "0.0-179.0-5.0", "time_elapsed": 1120219, "key_press": -1, "trial_index": 247}, "uniqueid": "MTK2153:3NQL1CS15SFH60IDK3Y29G4FCMKVYS", "dateTime": 1516751418225}, {"current_trial": 248, "trialdata": {"rt": -1, "trial_type": "single-stim", "stimulus": "<p id=\"stim\">4</p>", "internal_node_id": "0.0-179.0-6.0", "time_elapsed": 1121220, "key_press": -1, "trial_index": 248}, "uniqueid": "MTK2153:3NQL1CS15SFH60IDK3Y29G4FCMKVYS", "dateTime": 1516751419226}, {"current_trial": 249, "trialdata": {"rt": -1, "trial_type": "single-stim", "stimulus": "<p id=\"stim\">3</p>", "internal_node_id": "0.0-179.0-7.0", "time_elapsed": 1122222, "key_press": -1, "trial_index": 249}, "uniqueid": "MTK2153:3NQL1CS15SFH60IDK3Y29G4FCMKVYS", "dateTime": 1516751420228}, {"current_trial": 250, "trialdata": {"rt": -1, "trial_type": "single-stim", "stimulus": "<p id=\"stim\">2</p>", "internal_node_id": "0.0-179.0-8.0", "time_elapsed": 1123224, "key_press": -1, "trial_index": 250}, "uniqueid": "MTK2153:3NQL1CS15SFH60IDK3Y29G4FCMKVYS", "dateTime": 1516751421230}, {"current_trial": 251, "trialdata": {"rt": -1, "trial_type": "single-stim", "stimulus": "<p id=\"stim\">1</p>", "internal_node_id": "0.0-179.0-9.0", "time_elapsed": 1124225, "key_press": -1, "trial_index": 251}, "uniqueid": "MTK2153:3NQL1CS15SFH60IDK3Y29G4FCMKVYS", "dateTime": 1516751422232}, {"current_trial": 252, "trialdata": {"rt": -1, "trial_type": "single-stim", "stimulus": "<p id=\"sti