{"assignmentId": "3KOPY89HM997Z2LVETRTGYX8A4BJ3W", "workerId": "MTK2649", "questiondata": {"origin": "United States", "strat-rehearsal": "63", "marital": "Married/Domestic Partnership", "education": "Bachelor's degree", "ethnicity": "Not Hispanic", "color_depth": 24, "distracted": "No", "wrote-notes": "Yes", "strat-other": "tried to make a tune in my head", "screen_width": 1920, "avail_screen_width": 1920, "avail_screen_height": 981, "strat-image": "47", "language": "English", "gender": "Female", "age": "43", "gender_other": "", "race": ["White"], "strat-categorize": "54", "pixel_depth": 24, "strat-spatial": "53", "strat-story": "53", "race_other": "", "screen_height": 1080}, "bonus": 0, "hitId": "3IZPORCT1FG14EDDBHK2XZOPJKLRHU", "counterbalance": 466, "useragent": "Mozilla/5.0 (Macintosh; Intel Mac OS X 10_11_6) AppleWebKit/537.36 (KHTML, like Gecko) Chrome/64.0.3282.167 Safari/537.36", "eventdata": [{"eventtype": "initialized", "interval": 0, "value": null, "timestamp": 1519172482797}, {"eventtype": "window_resize", "interval": 0, "value": [1920, 932], "timestamp": 1519172482797}, {"eventtype": "focus", "interval": 9536, "value": "off", "timestamp": 1519172492333}, {"eventtype": "focus", "interval": 30274, "value": "on", "timestamp": 1519172522607}], "data": [{"current_trial": 0, "trialdata": {"rt": 27253, "trial_type": "text", "internal_node_id": "0.0-0.0", "time_elapsed": 27255, "key_press": 32, "type": "INSTRUCTIONS", "trial_index": 0}, "uniqueid": "MTK2649:3KOPY89HM997Z2LVETRTGYX8A4BJ3W", "dateTime": 1519172524321}, {"current_trial": 1, "trialdata": {"rt": 28651, "trial_type": "text", "internal_node_id": "0.0-1.0", "time_elapsed": 55909, "key_press": 72, "type": "INSTRUCTIONS", "trial_index": 1}, "uniqueid": "MTK2649:3KOPY89HM997Z2LVETRTGYX8A4BJ3W", "dateTime": 1519172552974}, {"current_trial": 2, "trialdata": {"rt": [35058], "trial_type": "audio-test", "responses": ["ocean"], "internal_node_id": "0.0-2.0", "time_elapsed": 91043, "type": "AUDIO_TEST", "trial_index": 2}, "uniqueid": "MTK2649:3KOPY89HM997Z2LVETRTGYX8A4BJ3W", "dateTime": 1519172588108}, {"current_trial": 3, "trialdata": {"rt": [10763], "trial_type": "audio-test", "responses": ["crystal"], "internal_node_id": "0.0-3.0", "time_elapsed": 101809, "type": "AUDIO_TEST", "trial_index": 3}, "uniqueid": "MTK2649:3KOPY89HM997Z2LVETRTGYX8A4BJ3W", "dateTime": 1519172598874}, {"current_trial": 4, "trialdata": {"rt": [12563], "trial_type": "audio-test", "responses": ["spice"], "internal_node_id": "0.0-4.0", "time_elapsed": 114375, "type": "AUDIO_TEST", "trial_index": 4}, "uniqueid": "MTK2649:3KOPY89HM997Z2LVETRTGYX8A4BJ3W", "dateTime": 1519172611440}, {"current_trial": 5, "trialdata": {"rt": 15175, "trial_type": "survey-text", "responses": "{\"Q0\":\"9:30\",\"Q1\":\"4:00\",\"Q2\":\"4\"}", "internal_node_id": "0.0-5.0", "time_elapsed": 130303, "type": "SLEEP_SURVEY", "trial_index": 5}, "uniqueid": "MTK2649:3KOPY89HM997Z2LVETRTGYX8A4BJ3W", "dateTime": 1519172627368}, {"current_trial": 6, "trialdata": {"rt": 24573, "trial_type": "text", "internal_node_id": "0.0-6.0", "time_elapsed": 155876, "key_press": 72, "type": "INSTRUCTIONS", "trial_index": 6}, "uniqueid": "MTK2649:3KOPY89HM997Z2LVETRTGYX8A4BJ3W", "dateTime": 1519172652941}, {"current_trial": 7, "trialdata": {"rt": 5402, "trial_type": "text", "internal_node_id": "0.0-7.0", "time_elapsed": 161783, "key_press": 74, "type": "INSTRUCTIONS", "trial_index": 7}, "uniqueid": "MTK2649:3KOPY89HM997Z2LVETRTGYX8A4BJ3W", "dateTime": 1519172658848}, {"current_trial": 8, "trialdata": {"rt": 3612, "trial_type": "text", "internal_node_id": "0.0-8.0", "time_elapsed": 165900, "key_press": 74, "type": "INSTRUCTIONS", "trial_index": 8}, "uniqueid": "MTK2649:3KOPY89HM997Z2LVETRTGYX8A4BJ3W", "dateTime": 1519172662965}, {"current_trial": 9, "trialdata": {"rt": [2224, 4101, 5486, 7151, 9311, 11167, 12900, 14925, 17523], "trial_type": "math-distractor", "key_times": [1594, 1851, 2224, 3720, 3967, 4101, 5374, 5486, 6757, 7005, 7151, 8917, 9176, 9311, 10987, 11077, 11167, 12529, 12764, 12900, 14520, 14812, 14925, 17095, 17333, 17523], "responses": ["14", "14", "6", "14", "15", "21", "13", "16", "14"], "num2": [5, 1, 3, 9, 9, 6, 4, 5, 7, 6], "num3": [5, 4, 1, 4, 4, 9, 1, 2, 6, 2], "conditions": [18, 1200, "a", 18000], "internal_node_id": "0.0-9.0", "key_presses": [49, 52, 13, 49, 52, 13, 54, 13, 49, 52, 13, 49, 53, 13, 50, 49, 13, 49, 51, 13, 49, 54, 13, 49, 52, 13], "trial": 0, "time_elapsed": 184907, "type": "DISTRACTOR", "trial_index": 9, "num1": [4, 9, 2, 1, 2, 6, 8, 9, 1, 7]}, "uniqueid": "MTK2649:3KOPY89HM997Z2LVETRTGYX8A4BJ3W", "dateTime": 1519172681972}, {"current_trial": 10, "trialdata": {"rt": -1, "trial_type": "single-stim", "stimulus": "<p id=\"stim\">10</p>", "internal_node_id": "0.0-10.0-0.0", "time_elapsed": 187913, "key_press": -1, "trial_index": 10}, "uniqueid": "MTK2649:3KOPY89HM997Z2LVETRTGYX8A4BJ3W", "dateTime": 1519172684978}, {"current_trial": 11, "trialdata": {"rt": -1, "trial_type": "single-stim", "stimulus": "<p id=\"stim\">9</p>", "internal_node_id": "0.0-10.0-1.0", "time_elapsed": 188917, "key_press": -1, "trial_index": 11}, "uniqueid": "MTK2649:3KOPY89HM997Z2LVETRTGYX8A4BJ3W", "dateTime": 1519172685982}, {"current_trial": 12, "trialdata": {"rt": -1, "trial_type": "single-stim", "stimulus": "<p id=\"stim\">8</p>", "internal_node_id": "0.0-10.0-2.0", "time_elapsed": 189921, "key_press": -1, "trial_index": 12}, "uniqueid": "MTK2649:3KOPY89HM997Z2LVETRTGYX8A4BJ3W", "dateTime": 1519172686986}, {"current_trial": 13, "trialdata": {"rt": -1, "trial_type": "single-stim", "stimulus": "<p id=\"stim\">7</p>", "internal_node_id": "0.0-10.0-3.0", "time_elapsed": 190926, "key_press": -1, "trial_index": 13}, "uniqueid": "MTK2649:3KOPY89HM997Z2LVETRTGYX8A4BJ3W", "dateTime": 1519172687991}, {"current_trial": 14, "trialdata": {"rt": -1, "trial_type": "single-stim", "stimulus": "<p id=\"stim\">6</p>", "internal_node_id": "0.0-10.0-4.0", "time_elapsed": 191930, "key_press": -1, "trial_index": 14}, "uniqueid": "MTK2649:3KOPY89HM997Z2LVETRTGYX8A4BJ3W", "dateTime": 1519172688995}, {"current_trial": 15, "trialdata": {"rt": -1, "trial_type": "single-stim", "stimulus": "<p id=\"stim\">5</p>", "internal_node_id": "0.0-10.0-5.0", "time_elapsed": 192934, "key_press": -1, "trial_index": 15}, "uniqueid": "MTK2649:3KOPY89HM997Z2LVETRTGYX8A4BJ3W", "dateTime": 1519172689999}, {"current_trial": 16, "trialdata": {"rt": -1, "trial_type": "single-stim", "stimulus": "<p id=\"stim\">4</p>", "internal_node_id": "0.0-10.0-6.0", "time_elapsed": 193938, "key_press": -1, "trial_index": 16}, "uniqueid": "MTK2649:3KOPY89HM997Z2LVETRTGYX8A4BJ3W", "dateTime": 1519172691003}, {"current_trial": 17, "trialdata": {"rt": -1, "trial_type": "single-stim", "stimulus": "<p id=\"stim\">3</p>", "internal_node_id": "0.0-10.0-7.0", "time_elapsed": 194942, "key_press": -1, "trial_index": 17}, "uniqueid": "MTK2649:3KOPY89HM997Z2LVETRTGYX8A4BJ3W", "dateTime": 1519172692007}, {"current_trial": 18, "trialdata": {"rt": -1, "trial_type": "single-stim", "stimulus": "<p id=\"stim\">2</p>", "internal_node_id": "0.0-10.0-8.0", "time_elapsed": 195946, "key_press": -1, "trial_index": 18}, "uniqueid": "MTK2649:3KOPY89HM997Z2LVETRTGYX8A4BJ3W", "dateTime": 1519172693011}, {"current_trial": 19, "trialdata": {"rt": -1, "trial_type": "single-stim", "stimulus": "<p id=\"stim\">1</p>", "internal_node_id": "0.0-10.0-9.0", "time_elapsed": 196950, "key_press": -1, "trial_index": 19}, "uniqueid": "MTK2649:3KOPY89HM997Z2LVETRTGYX8A4BJ3W", "dateTime": 1519172694015}, {"current_trial": 20, "trialdata": {"rt": -1, "trial_type": "single-stim", "stimulus": "<p id=\"stim\">+</p>", "internal_node_id": "0.0-11.0-0.0", "time_elapsed": 198453, "key_press": -1, "type": "FIXATION", "trial_index": 20}, "uniqueid": "MTK2649:3KOPY89HM997Z2LVETRTGYX8A4BJ3W", "dateTime": 1519172695518}, {"current_trial": 21, "trialdata": {"rt": -1000, "trial_type": "single-audio", "word": "peanut", "stimulus": "/static/audio/wordpool/PEANUT.wav", "conditions": [18, 1200, "a", 18000], "internal_node_id": "0.0-12.0", "trial": 0, "time_elapsed": 200613, "serialpos": 0, "key_press": -1, "wordID": 1031, "type": "PRES_AUD", "trial_index": 21}, "uniqueid": "MTK2649:3KOPY89HM997Z2LVETRTGYX8A4BJ3W", "dateTime": 1519172697678}, {"current_trial": 22, "trialdata": {"rt": -1000, "trial_type": "single-audio", "word": "lava", "stimulus": "/static/audio/wordpool/LAVA.wav", "conditions": [18, 1200, "a", 18000], "internal_node_id": "0.0-13.0", "trial": 0, "time_elapsed": 202970, "serialpos": 1, "key_press": -1, "wordID": 803, "type": "PRES_AUD", "trial_index": 22}, "uniqueid": "MTK2649:3KOPY89HM997Z2LVETRTGYX8A4BJ3W", "dateTime": 1519172700035}, {"current_trial": 23, "trialdata": {"rt": -1000, "trial_type": "single-audio", "word": "shark", "stimulus": "/static/audio/wordpool/SHARK.wav", "conditions": [18, 1200, "a", 18000], "internal_node_id": "0.0-14.0", "trial": 0, "time_elapsed": 205333, "serialpos": 2, "key_press": -1, "wordID": 1274, "type": "PRES_AUD", "trial_index": 23}, "uniqueid": "MTK2649:3KOPY89HM997Z2LVETRTGYX8A4BJ3W", "dateTime": 1519172702398}, {"current_trial": 24, "trialdata": {"rt": -1000, "trial_type": "single-audio", "word": "silk", "stimulus": "/static/audio/wordpool/SILK.wav", "conditions": [18, 1200, "a", 18000], "internal_node_id": "0.0-15.0", "trial": 0, "time_elapsed": 207579, "serialpos": 3, "key_press": -1, "wordID": 1306, "type": "PRES_AUD", "trial_index": 24}, "uniqueid": "MTK2649:3KOPY89HM997Z2LVETRTGYX8A4BJ3W", "dateTime": 1519172704644}, {"current_trial": 25, "trialdata": {"rt": -1000, "trial_type": "single-audio", "word": "keeper", "stimulus": "/static/audio/wordpool/KEEPER.wav", "conditions": [18, 1200, "a", 18000], "internal_node_id": "0.0-16.0", "trial": 0, "time_elapsed": 209924, "serialpos": 4, "key_press": -1, "wordID": 768, "type": "PRES_AUD", "trial_index": 25}, "uniqueid": "MTK2649:3KOPY89HM997Z2LVETRTGYX8A4BJ3W", "dateTime": 1519172706989}, {"current_trial": 26, "trialdata": {"rt": -1000, "trial_type": "single-audio", "word": "ointment", "stimulus": "/static/audio/wordpool/OINTMENT.wav", "conditions": [18, 1200, "a", 18000], "internal_node_id": "0.0-17.0", "trial": 0, "time_elapsed": 212102, "serialpos": 5, "key_press": -1, "wordID": 973, "type": "PRES_AUD", "trial_index": 26}, "uniqueid": "MTK2649:3KOPY89HM997Z2LVETRTGYX8A4BJ3W", "dateTime": 1519172709167}, {"current_trial": 27, "trialdata": {"rt": -1000, "trial_type": "single-audio", "word": "human", "stimulus": "/static/audio/wordpool/HUMAN.wav", "conditions": [18, 1200, "a", 18000], "internal_node_id": "0.0-18.0", "trial": 0, "time_elapsed": 214261, "serialpos": 6, "key_press": -1, "wordID": 725, "type": "PRES_AUD", "trial_index": 27}, "uniqueid": "MTK2649:3KOPY89HM997Z2LVETRTGYX8A4BJ3W", "dateTime": 1519172711326}, {"current_trial": 28, "trialdata": {"rt": -1000, "trial_type": "single-audio", "word": "stamp", "stimulus": "/static/audio/wordpool/STAMP.wav", "conditions": [18, 1200, "a", 18000], "internal_node_id": "0.0-19.0", "trial": 0, "time_elapsed": 216600, "serialpos": 7, "key_press": -1, "wordID": 1369, "type": "PRES_AUD", "trial_index": 28}, "uniqueid": "MTK2649:3KOPY89HM997Z2LVETRTGYX8A4BJ3W", "dateTime": 1519172713665}, {"current_trial": 29, "trialdata": {"rt": -1000, "trial_type": "single-audio", "word": "hamper", "stimulus": "/static/audio/wordpool/HAMPER.wav", "conditions": [18, 1200, "a", 18000], "internal_node_id": "0.0-20.0", "trial": 0, "time_elapsed": 218737, "serialpos": 8, "key_press": -1, "wordID": 681, "type": "PRES_AUD", "trial_index": 29}, "uniqueid": "MTK2649:3KOPY89HM997Z2LVETRTGYX8A4BJ3W", "dateTime": 1519172715802}, {"current_trial": 30, "trialdata": {"rt": -1000, "trial_type": "single-audio", "word": "mummy", "stimulus": "/static/audio/wordpool/MUMMY.wav", "conditions": [18, 1200, "a", 18000], "internal_node_id": "0.0-21.0", "trial": 0, "time_elapsed": 221041, "serialpos": 9, "key_press": -1, "wordID": 931, "type": "PRES_AUD", "trial_index": 30}, "uniqueid": "MTK2649:3KOPY89HM997Z2LVETRTGYX8A4BJ3W", "dateTime": 1519172718106}, {"current_trial": 31, "trialdata": {"rt": -1000, "trial_type": "single-audio", "word": "grill", "stimulus": "/static/audio/wordpool/GRILL.wav", "conditions": [18, 1200, "a", 18000], "internal_node_id": "0.0-22.0", "trial": 0, "time_elapsed": 223392, "serialpos": 10, "key_press": -1, "wordID": 660, "type": "PRES_AUD", "trial_index": 31}, "uniqueid": "MTK2649:3KOPY89HM997Z2LVETRTGYX8A4BJ3W", "dateTime": 1519172720457}, {"current_trial": 32, "trialdata": {"rt": -1000, "trial_type": "single-audio", "word": "banjo", "stimulus": "/static/audio/wordpool/BANJO.wav", "conditions": [18, 1200, "a", 18000], "internal_node_id": "0.0-23.0", "trial": 0, "time_elapsed": 225615, "serialpos": 11, "key_press": -1, "wordID": 81, "type": "PRES_AUD", "trial_index": 32}, "uniqueid": "MTK2649:3KOPY89HM997Z2LVETRTGYX8A4BJ3W", "dateTime": 1519172722680}, {"current_trial": 33, "trialdata": {"rt": -1000, "trial_type": "single-audio", "word": "lamp", "stimulus": "/static/audio/wordpool/LAMP.wav", "conditions": [18, 1200, "a", 18000], "internal_node_id": "0.0-24.0", "trial": 0, "time_elapsed": 227647, "serialpos": 12, "key_press": -1, "wordID": 797, "type": "PRES_AUD", "trial_index": 33}, "uniqueid": "MTK2649:3KOPY89HM997Z2LVETRTGYX8A4BJ3W", "dateTime": 1519172724712}, {"current_trial": 34, "trialdata": {"rt": -1000, "trial_type": "single-audio", "word": "fungus", "stimulus": "/static/audio/wordpool/FUNGUS.wav", "conditions": [18, 1200, "a", 18000], "internal_node_id": "0.0-25.0", "trial": 0, "time_elapsed": 230027, "serialpos": 13, "key_press": -1, "wordID": 613, "type": "PRES_AUD", "trial_index": 34}, "uniqueid": "MTK2649:3KOPY89HM997Z2LVETRTGYX8A4BJ3W", "dateTime": 1519172727092}, {"current_trial": 35, "trialdata": {"rt": -1000, "trial_type": "single-audio", "word": "briefcase", "stimulus": "/static/audio/wordpool/BRIEFCASE.wav", "conditions": [18, 1200, "a", 18000], "internal_node_id": "0.0-26.0", "trial": 0, "time_elapsed": 232163, "serialpos": 14, "key_press": -1, "wordID": 174, "type": "PRES_AUD", "trial_index": 35}, "uniqueid": "MTK2649:3KOPY89HM997Z2LVETRTGYX8A4BJ3W", "dateTime": 1519172729229}, {"current_trial": 36, "trialdata": {"rt": -1000, "trial_type": "single-audio", "word": "racket", "stimulus": "/static/audio/wordpool/RACKET.wav", "conditions": [18, 1200, "a", 18000], "internal_node_id": "0.0-27.0", "trial": 0, "time_elapsed": 234521, "serialpos": 15, "key_press": -1, "wordID": 1154, "type": "PRES_AUD", "trial_index": 36}, "uniqueid": "MTK2649:3KOPY89HM997Z2LVETRTGYX8A4BJ3W", "dateTime": 1519172731586}, {"current_trial": 37, "trialdata": {"rt": -1000, "trial_type": "single-audio", "word": "pebble", "stimulus": "/static/audio/wordpool/PEBBLE.wav", "conditions": [18, 1200, "a", 18000], "internal_node_id": "0.0-28.0", "trial": 0, "time_elapsed": 236900, "serialpos": 16, "key_press": -1, "wordID": 1034, "type": "PRES_AUD", "trial_index": 37}, "uniqueid": "MTK2649:3KOPY89HM997Z2LVETRTGYX8A4BJ3W", "dateTime": 1519172733965}, {"current_trial": 38, "trialdata": {"rt": -1000, "trial_type": "single-audio", "word": "machine", "stimulus": "/static/audio/wordpool/MACHINE.wav", "conditions": [18, 1200, "a", 18000], "internal_node_id": "0.0-29.0", "trial": 0, "time_elapsed": 239042, "serialpos": 17, "key_press": -1, "wordID": 851, "type": "PRES_AUD", "trial_index": 38}, "uniqueid": "MTK2649:3KOPY89HM997Z2LVETRTGYX8A4BJ3W", "dateTime": 1519172736107}, {"current_trial": 39, "trialdata": {"rt": -1, "trial_type": "single-stim", "stimulus": "", "internal_node_id": "0.0-30.0-0.0", "time_elapsed": 240296, "key_press": -1, "type": "PRE_RECALL_DELAY", "trial_index": 39}, "uniqueid": "MTK2649:3KOPY89HM997Z2LVETRTGYX8A4BJ3W", "dateTime": 1519172737361}, {"current_trial": 40, "trialdata": {"rt": -1000, "trial_type": "single-audio", "stimulus": "/static/audio/400Hz.wav", "internal_node_id": "0.0-31.0", "time_elapsed": 240797, "key_press": -1, "type": "PRE_RECALL_ALERT", "trial_index": 40}, "uniqueid": "MTK2649:3KOPY89HM997Z2LVETRTGYX8A4BJ3W", "dateTime": 1519172737862}, {"current_trial": 41, "trialdata": {"rt": [2299, 3290, 4583, 7722, 12560, 15440, 21289, 23135, 31921, 42259, 48763, 48875], "recwords": ["peanut", "lava", "shark", "fungus", "machine", "lamp", "silk", "keeper", "", "lava", "peanut", ""], "key_times": [1299, 1466, 1614, 1782, 2007, 2198, 2299, 2704, 2828, 3030, 3143, 3290, 3706, 3953, 4032, 4279, 4449, 4583, 5697, 5821, 6068, 6451, 6620, 6800, 7722, 11198, 11311, 11558, 11704, 11829, 12075, 12188, 12560, 14641, 14720, 14877, 15102, 15440, 20356, 20514, 20705, 20862, 21289, 21942, 22144, 22291, 22426, 22662, 22763, 23135, 31921, 41461, 41596, 41855, 42080, 42259, 47480, 47704, 47918, 48076, 48279, 48481, 48763, 48875], "trial_type": "free-recall", "conditions": [18, 1200, "a", 18000], "internal_node_id": "0.0-32.0-0.0", "key_presses": [80, 69, 65, 78, 85, 84, 32, 76, 65, 86, 65, 32, 83, 72, 65, 82, 75, 32, 70, 85, 78, 71, 85, 83, 32, 77, 65, 67, 72, 73, 78, 69, 13, 76, 65, 77, 80, 13, 83, 73, 76, 75, 13, 75, 69, 69, 80, 69, 82, 13, 32, 76, 65, 86, 65, 13, 80, 69, 65, 78, 85, 84, 188, 32], "trial": 0, "time_elapsed": 300803, "type": "FREE_RECALL", "trial_index": 41}, "uniqueid": "MTK2649:3KOPY89HM997Z2LVETRTGYX8A4BJ3W", "dateTime": 1519172797869}, {"current_trial": 42, "trialdata": {"rt": 1917, "trial_type": "text", "internal_node_id": "0.0-33.0", "time_elapsed": 304726, "key_press": 76, "type": "INSTRUCTIONS", "trial_index": 42}, "uniqueid": "MTK2649:3KOPY89HM997Z2LVETRTGYX8A4BJ3W", "dateTime": 1519172801791}, {"current_trial": 43, "trialdata": {"rt": [2249, 3902, 5635, 7368, 9313, 10934, 13196, 16975], "trial_type": "math-distractor", "key_times": [1597, 1833, 2249, 3510, 3711, 3902, 5027, 5320, 5635, 6761, 7008, 7368, 8729, 8965, 9313, 10349, 10641, 10934, 12239, 12521, 13196, 15333, 16176, 16345, 16593, 16975], "responses": ["14", "11", "18", "15", "14", "13", "14", "25"], "num2": [4, 2, 4, 7, 8, 2, 6, 7, 5], "num3": [3, 8, 9, 5, 5, 9, 2, 9, 2], "conditions": [18, 1200, "a", 18000], "internal_node_id": "0.0-34.0", "key_presses": [49, 52, 13, 49, 49, 13, 49, 56, 13, 49, 53, 13, 49, 52, 13, 49, 51, 13, 49, 52, 13, 49, 8, 50, 53, 13], "trial": 1, "time_elapsed": 324732, "type": "DISTRACTOR", "trial_index": 43, "num1": [7, 1, 5, 3, 1, 2, 8, 9, 1]}, "uniqueid": "MTK2649:3KOPY89HM997Z2LVETRTGYX8A4BJ3W", "dateTime": 1519172821798}, {"current_trial": 44, "trialdata": {"rt": -1, "trial_type": "single-stim", "stimulus": "<p id=\"stim\">10</p>", "internal_node_id": "0.0-35.0-0.0", "time_elapsed": 327738, "key_press": -1, "trial_index": 44}, "uniqueid": "MTK2649:3KOPY89HM997Z2LVETRTGYX8A4BJ3W", "dateTime": 1519172824803}, {"current_trial": 45, "trialdata": {"rt": -1, "trial_type": "single-stim", "stimulus": "<p id=\"stim\">9</p>", "internal_node_id": "0.0-35.0-1.0", "time_elapsed": 328743, "key_press": -1, "trial_index": 45}, "uniqueid": "MTK2649:3KOPY89HM997Z2LVETRTGYX8A4BJ3W", "dateTime": 1519172825808}, {"current_trial": 46, "trialdata": {"rt": -1, "trial_type": "single-stim", "stimulus": "<p id=\"stim\">8</p>", "internal_node_id": "0.0-35.0-2.0", "time_elapsed": 329746, "key_press": -1, "trial_index": 46}, "uniqueid": "MTK2649:3KOPY89HM997Z2LVETRTGYX8A4BJ3W", "dateTime": 1519172826811}, {"current_trial": 47, "trialdata": {"rt": -1, "trial_type": "single-stim", "stimulus": "<p id=\"stim\">7</p>", "internal_node_id": "0.0-35.0-3.0", "time_elapsed": 330750, "key_press": -1, "trial_index": 47}, "uniqueid": "MTK2649:3KOPY89HM997Z2LVETRTGYX8A4BJ3W", "dateTime": 1519172827816}, {"current_trial": 48, "trialdata": {"rt": -1, "trial_type": "single-stim", "stimulus": "<p id=\"stim\">6</p>", "internal_node_id": "0.0-35.0-4.0", "time_elapsed": 331754, "key_press": -1, "trial_index": 48}, "uniqueid": "MTK2649:3KOPY89HM997Z2LVETRTGYX8A4BJ3W", "dateTime": 1519172828819}, {"current_trial": 49, "trialdata": {"rt": -1, "trial_type": "single-stim", "stimulus": "<p id=\"stim\">5</p>", "internal_node_id": "0.0-35.0-5.0", "time_elapsed": 332759, "key_press": -1, "trial_index": 49}, "uniqueid": "MTK2649:3KOPY89HM997Z2LVETRTGYX8A4BJ3W", "dateTime": 1519172829824}, {"current_trial": 50, "trialdata": {"rt": -1, "trial_type": "single-stim", "stimulus": "<p id=\"stim\">4</p>", "internal_node_id": "0.0-35.0-6.0", "time_elapsed": 333763, "key_press": -1, "trial_index": 50}, "uniqueid": "MTK2649:3KOPY89HM997Z2LVETRTGYX8A4BJ3W", "dateTime": 1519172830828}, {"current_trial": 51, "trialdata": {"rt": -1, "trial_type": "single-stim", "stimulus": "<p id=\"stim\">3</p>", "internal_node_id": "0.0-35.0-7.0", "time_elapsed": 334768, "key_press": -1, "trial_index": 51}, "uniqueid": "MTK2649:3KOPY89HM997Z2LVETRTGYX8A4BJ3W", "dateTime": 1519172831833}, {"current_trial": 52, "trialdata": {"rt": -1, "trial_type": "single-stim", "stimulus": "<p id=\"stim\">2</p>", "internal_node_id": "0.0-35.0-8.0", "time_elapsed": 335771, "key_press": -1, "trial_index": 52}, "uniqueid": "MTK2649:3KOPY89HM997Z2LVETRTGYX8A4BJ3W", "dateTime": 1519172832836}, {"current_trial": 53, "trialdata": {"rt": -1, "trial_type": "single-stim", "stimulus": "<p id=\"stim\">1</p>", "internal_node_id": "0.0-35.0-9.0", "time_elapsed": 336775, "key_press": -1, "trial_index": 53}, "uniqueid": "MTK2649:3KOPY89HM997Z2LVETRTGYX8A4BJ3W", "dateTime": 1519172833840}, {"current_trial": 54, "trialdata": {"rt": -1, "trial_type": "single-stim", "stimulus": "<p id=\"stim\">+</p>", "internal_node_id": "0.0-36.0-0.0", "time_elapsed": 338279, "key_press": -1, "type": "FIXATION", "trial_index": 54}, "uniqueid": "MTK2649:3KOPY89HM997Z2LVETRTGYX8A4BJ3W", "dateTime": 1519172835344}, {"current_trial": 55, "trialdata": {"rt": -1000, "trial_type": "single-audio", "word": "lake", "stimulus": "/static/audio/wordpool/LAKE.wav", "conditions": [18, 1200, "a", 18000], "internal_node_id": "0.0-37.0", "trial": 1, "time_elapsed": 340411, "serialpos": 0, "key_press": -1, "wordID": 795, "type": "PRES_AUD", "trial_index": 55}, "uniqueid": "MTK2649:3KOPY89HM997Z2LVETRTGYX8A4BJ3W", "dateTime": 1519172837476}, {"current_trial": 56, "trialdata": {"rt": -1000, "trial_type": "single-audio", "word": "permit", "stimulus": "/static/audio/wordpool/PERMIT.wav", "conditions": [18, 1200, "a", 18000], "internal_node_id": "0.0-38.0", "trial": 1, "time_elapsed": 342608, "serialpos": 1, "key_press": -1, "wordID": 1050, "type": "PRES_AUD", "trial_index": 56}, "uniqueid": "MTK2649:3KOPY89HM997Z2LVETRTGYX8A4BJ3W", "dateTime": 1519172839673}, {"current_trial": 57, "trialdata": {"rt": -1000, "trial_type": "single-audio", "word": "paddle", "stimulus": "/static/audio/wordpool/PADDLE.wav", "conditions": [18, 1200, "a", 18000], "internal_node_id": "0.0-39.0", "trial": 1, "time_elapsed": 344983, "serialpos": 2, "key_press": -1, "wordID": 999, "type": "PRES_AUD", "trial_index": 57}, "uniqueid": "MTK2649:3KOPY89HM997Z2LVETRTGYX8A4BJ3W", "dateTime": 1519172842048}, {"current_trial": 58, "trialdata": {"rt": -1000, "trial_type": "single-audio", "word": "shortcake", "stimulus": "/static/audio/wordpool/SHORTCAKE.wav", "conditions": [18, 1200, "a", 18000], "internal_node_id": "0.0-40.0", "trial": 1, "time_elapsed": 347248, "serialpos": 3, "key_press": -1, "wordID": 1291, "type": "PRES_AUD", "trial_index": 58}, "uniqueid": "MTK2649:3KOPY89HM997Z2LVETRTGYX8A4BJ3W", "dateTime": 1519172844313}, {"current_trial": 59, "trialdata": {"rt": -1000, "trial_type": "single-audio", "word": "washer", "stimulus": "/static/audio/wordpool/WASHER.wav", "conditions": [18, 1200, "a", 18000], "internal_node_id": "0.0-41.0", "trial": 1, "time_elapsed": 349423, "serialpos": 4, "key_press": -1, "wordID": 1591, "type": "PRES_AUD", "trial_index": 59}, "uniqueid": "MTK2649:3KOPY89HM997Z2LVETRTGYX8A4BJ3W", "dateTime": 1519172846489}, {"current_trial": 60, "trialdata": {"rt": -1000, "trial_type": "single-audio", "word": "xerox", "stimulus": "/static/audio/wordpool/XEROX.wav", "conditions": [18, 1200, "a", 18000], "internal_node_id": "0.0-42.0", "trial": 1, "time_elapsed": 351652, "serialpos": 5, "key_press": -1, "wordID": 1627, "type": "PRES_AUD", "trial_index": 60}, "uniqueid": "MTK2649:3KOPY89HM997Z2LVETRTGYX8A4BJ3W", "dateTime": 1519172848718}, {"current_trial": 61, "trialdata": {"rt": -1000, "trial_type": "single-audio", "word": "mattress", "stimulus": "/static/audio/wordpool/MATTRESS.wav", "conditions": [18, 1200, "a", 18000], "internal_node_id": "0.0-43.0", "trial": 1, "time_elapsed": 353751, "serialpos": 6, "key_press": -1, "wordID": 878, "type": "PRES_AUD", "trial_index": 61}, "uniqueid": "MTK2649:3KOPY89HM997Z2LVETRTGYX8A4BJ3W", "dateTime": 1519172850816}, {"current_trial": 62, "trialdata": {"rt": -1000, "trial_type": "single-audio", "word": "ozone", "stimulus": "/static/audio/wordpool/OZONE.wav", "conditions": [18, 1200, "a", 18000], "internal_node_id": "0.0-44.0", "trial": 1, "time_elapsed": 356134, "serialpos": 7, "key_press": -1, "wordID": 995, "type": "PRES_AUD", "trial_index": 62}, "uniqueid": "MTK2649:3KOPY89HM997Z2LVETRTGYX8A4BJ3W", "dateTime": 1519172853199}, {"current_trial": 63, "trialdata": {"rt": -1000, "trial_type": "single-audio", "word": "binder", "stimulus": "/static/audio/wordpool/BINDER.wav", "conditions": [18, 1200, "a", 18000], "internal_node_id": "0.0-45.0", "trial": 1, "time_elapsed": 358427, "serialpos": 8, "key_press": -1, "wordID": 126, "type": "PRES_AUD", "trial_index": 63}, "uniqueid": "MTK2649:3KOPY89HM997Z2LVETRTGYX8A4BJ3W", "dateTime": 1519172855492}, {"current_trial": 64, "trialdata": {"rt": -1000, "trial_type": "single-audio", "word": "knife", "stimulus": "/static/audio/wordpool/KNIFE.wav", "conditions": [18, 1200, "a", 18000], "internal_node_id": "0.0-46.0", "trial": 1, "time_elapsed": 360819, "serialpos": 9, "key_press": -1, "wordID": 784, "type": "PRES_AUD", "trial_index": 64}, "uniqueid": "MTK2649:3KOPY89HM997Z2LVETRTGYX8A4BJ3W", "dateTime": 1519172857884}, {"current_trial": 65, "trialdata": {"rt": -1000, "trial_type": "single-audio", "word": "convict", "stimulus": "/static/audio/wordpool/CONVICT.wav", "conditions": [18, 1200, "a", 18000], "internal_node_id": "0.0-47.0", "trial": 1, "time_elapsed": 362932, "serialpos": 10, "key_press": -1, "wordID": 370, "type": "PRES_AUD", "trial_index": 65}, "uniqueid": "MTK2649:3KOPY89HM997Z2LVETRTGYX8A4BJ3W", "dateTime": 1519172859997}, {"current_trial": 66, "trialdata": {"rt": -1000, "trial_type": "single-audio", "word": "carrot", "stimulus": "/static/audio/wordpool/CARROT.wav", "conditions": [18, 1200, "a", 18000], "internal_node_id": "0.0-48.0", "trial": 1, "time_elapsed": 365131, "serialpos": 11, "key_press": -1, "wordID": 248, "type": "PRES_AUD", "trial_index": 66}, "uniqueid": "MTK2649:3KOPY89HM997Z2LVETRTGYX8A4BJ3W", "dateTime": 1519172862197}, {"current_trial": 67, "trialdata": {"rt": -1000, "trial_type": "single-audio", "word": "picnic", "stimulus": "/static/audio/wordpool/PICNIC.wav", "conditions": [18, 1200, "a", 18000], "internal_node_id": "0.0-49.0", "trial": 1, "time_elapsed": 367204, "serialpos": 12, "key_press": -1, "wordID": 1059, "type": "PRES_AUD", "trial_index": 67}, "uniqueid": "MTK2649:3KOPY89HM997Z2LVETRTGYX8A4BJ3W", "dateTime": 1519172864269}, {"current_trial": 68, "trialdata": {"rt": -1000, "trial_type": "single-audio", "word": "pimple", "stimulus": "/static/audio/wordpool/PIMPLE.wav", "conditions": [18, 1200, "a", 18000], "internal_node_id": "0.0-50.0", "trial": 1, "time_elapsed": 369328, "serialpos": 13, "key_press": -1, "wordID": 1070, "type": "PRES_AUD", "trial_index": 68}, "uniqueid": "MTK2649:3KOPY89HM997Z2LVETRTGYX8A4BJ3W", "dateTime": 1519172866408}, {"current_trial": 69, "trialdata": {"rt": -1000, "trial_type": "single-audio", "word": "portrait", "stimulus": "/static/audio/wordpool/PORTRAIT.wav", "conditions": [18, 1200, "a", 18000], "internal_node_id": "0.0-51.0", "trial": 1, "time_elapsed": 371367, "serialpos": 14, "key_press": -1, "wordID": 1110, "type": "PRES_AUD", "trial_index": 69}, "uniqueid": "MTK2649:3KOPY89HM997Z2LVETRTGYX8A4BJ3W", "dateTime": 1519172868432}, {"current_trial": 70, "trialdata": {"rt": -1000, "trial_type": "single-audio", "word": "comet", "stimulus": "/static/audio/wordpool/COMET.wav", "conditions": [18, 1200, "a", 18000], "internal_node_id": "0.0-52.0", "trial": 1, "time_elapsed": 373584, "serialpos": 15, "key_press": -1, "wordID": 352, "type": "PRES_AUD", "trial_index": 70}, "uniqueid": "MTK2649:3KOPY89HM997Z2LVETRTGYX8A4BJ3W", "dateTime": 1519172870649}, {"current_trial": 71, "trialdata": {"rt": -1000, "trial_type": "single-audio", "word": "expert", "stimulus": "/static/audio/wordpool/EXPERT.wav", "conditions": [18, 1200, "a", 18000], "internal_node_id": "0.0-53.0", "trial": 1, "time_elapsed": 375679, "serialpos": 16, "key_press": -1, "wordID": 542, "type": "PRES_AUD", "trial_index": 71}, "uniqueid": "MTK2649:3KOPY89HM997Z2LVETRTGYX8A4BJ3W", "dateTime": 1519172872744}, {"current_trial": 72, "trialdata": {"rt": -1000, "trial_type": "single-audio", "word": "salmon", "stimulus": "/static/audio/wordpool/SALMON.wav", "conditions": [18, 1200, "a", 18000], "internal_node_id": "0.0-54.0", "trial": 1, "time_elapsed": 377972, "serialpos": 17, "key_press": -1, "wordID": 1226, "type": "PRES_AUD", "trial_index": 72}, "uniqueid": "MTK2649:3KOPY89HM997Z2LVETRTGYX8A4BJ3W", "dateTime": 1519172875037}, {"current_trial": 73, "trialdata": {"rt": -1, "trial_type": "single-stim", "stimulus": "", "internal_node_id": "0.0-55.0-0.0", "time_elapsed": 379282, "key_press": -1, "type": "PRE_RECALL_DELAY", "trial_index": 73}, "uniqueid": "MTK2649:3KOPY89HM997Z2LVETRTGYX8A4BJ3W", "dateTime": 1519172876347}, {"current_trial": 74, "trialdata": {"rt": -1000, "trial_type": "single-audio", "stimulus": "/static/audio/400Hz.wav", "internal_node_id": "0.0-56.0", "time_elapsed": 379783, "key_press": -1, "type": "PRE_RECALL_ALERT", "trial_index": 74}, "uniqueid": "MTK2649:3KOPY89HM997Z2LVETRTGYX8A4BJ3W", "dateTime": 1519172876848}, {"current_trial": 75, "trialdata": {"rt": [2275, 4209, 6055, 7831, 9857, 13862, 16472, 18182, 20117, 21714, 24122, 26293, 30366, 32481, 36002, 38691, 40884, 43011], "recwords": ["lake", "permit", "paddle", "shortcake", "washer", "xerox", "mattress", "ozone", "binder", "knife", "convict", "carrot", "pristine", "pimple", "portrait", "comet", "expert", "salmon"], "key_times": [1465, 1599, 1779, 1960, 2275, 3107, 3321, 3444, 3658, 3828, 3973, 4209, 5020, 5176, 5514, 5660, 5819, 5908, 6055, 6336, 6516, 6594, 6797, 6977, 7235, 7382, 7472, 7652, 7831, 8867, 9080, 9283, 9429, 9666, 9778, 9857, 11804, 12411, 12602, 12805, 12996, 13119, 13390, 13862, 14458, 14582, 15077, 15257, 15583, 15808, 16090, 16247, 16472, 17057, 17383, 17552, 17845, 17991, 18182, 19049, 19206, 19409, 19599, 19690, 19870, 20117, 20792, 20949, 21129, 21433, 21546, 21714, 22728, 22896, 23109, 23346, 23504, 23729, 23976, 24122, 25067, 25213, 25461, 25720, 25922, 26046, 26293, 28656, 28960, 29185, 29421, 29624, 29725, 29904, 30040, 30366, 31345, 31525, 31728, 31941, 32143, 32301, 32481, 33471, 33775, 34022, 34213, 34968, 35271, 35552, 35755, 36002, 37623, 37847, 38083, 38241, 38500, 38691, 39748, 39985, 40131, 40333, 40480, 40749, 40884, 41852, 41965, 42155, 42347, 42493, 42685, 43011], "trial_type": "free-recall", "conditions": [18, 1200, "a", 18000], "internal_node_id": "0.0-57.0-0.0", "key_presses": [76, 65, 75, 69, 13, 80, 69, 82, 77, 73, 84, 13, 80, 65, 68, 68, 76, 69, 13, 83, 72, 79, 82, 84, 67, 65, 75, 69, 13, 87, 65, 83, 72, 69, 82, 13, 69, 8, 88, 69, 82, 79, 88, 13, 77, 65, 84, 84, 82, 69, 83, 83, 13, 79, 90, 79, 78, 69, 13, 66, 73, 78, 68, 69, 82, 13, 75, 78, 73, 70, 69, 13, 67, 79, 78, 86, 73, 67, 84, 13, 67, 65, 82, 82, 79, 84, 13, 80, 82, 73, 83, 84, 73, 78, 69, 13, 80, 73, 77, 80, 76, 69, 13, 80, 79, 82, 84, 82, 65, 73, 84, 13, 67, 79, 77, 69, 84, 13, 69, 88, 80, 69, 82, 84, 13, 83, 65, 76, 77, 79, 78, 13], "trial": 1, "time_elapsed": 439786, "type": "FREE_RECALL", "trial_index": 75}, "uniqueid": "MTK2649:3KOPY89HM997Z2LVETRTGYX8A4BJ3W", "dateTime": 1519172936853}, {"current_trial": 76, "trialdata": {"rt": 2074, "trial_type": "text", "internal_node_id": "0.0-58.0", "time_elapsed": 443867, "key_press": 70, "type": "INSTRUCTIONS", "trial_index": 76}, "uniqueid": "MTK2649:3KOPY89HM997Z2LVETRTGYX8A4BJ3W", "dateTime": 1519172940932}, {"current_trial": 77, "trialdata": {"rt": [2474, 4386, 7131, 9291, 10866], "trial_type": "math-distractor", "key_times": [2023, 2204, 2474, 3993, 4161, 4386, 6085, 6603, 6805, 6974, 7131, 8796, 9157, 9291, 10405, 10720, 10866], "responses": ["11", "11", "24", "16", "12"], "num2": [7, 3, 8, 2, 3, 1], "num3": [3, 2, 8, 5, 5, 2], "conditions": [12, 800, "a", 12000], "internal_node_id": "0.0-59.0", "key_presses": [49, 49, 13, 49, 49, 13, 49, 8, 50, 52, 13, 49, 54, 13, 49, 50, 13], "trial": 2, "time_elapsed": 456872, "type": "DISTRACTOR", "trial_index": 77, "num1": [1, 6, 7, 9, 4, 1]}, "uniqueid": "MTK2649:3KOPY89HM997Z2LVETRTGYX8A4BJ3W", "dateTime": 1519172953937}, {"current_trial": 78, "trialdata": {"rt": -1, "trial_type": "single-stim", "stimulus": "<p id=\"stim\">10</p>", "internal_node_id": "0.0-60.0-0.0", "time_elapsed": 459877, "key_press": -1, "trial_index": 78}, "uniqueid": "MTK2649:3KOPY89HM997Z2LVETRTGYX8A4BJ3W", "dateTime": 1519172956942}, {"current_trial": 79, "trialdata": {"rt": -1, "trial_type": "single-stim", "stimulus": "<p id=\"stim\">9</p>", "internal_node_id": "0.0-60.0-1.0", "time_elapsed": 460880, "key_press": -1, "trial_index": 79}, "uniqueid": "MTK2649:3KOPY89HM997Z2LVETRTGYX8A4BJ3W", "dateTime": 1519172957945}, {"current_trial": 80, "trialdata": {"rt": -1, "trial_type": "single-stim", "stimulus": "<p id=\"stim\">8</p>", "internal_node_id": "0.0-60.0-2.0", "time_elapsed": 461881, "key_press": -1, "trial_index": 80}, "uniqueid": "MTK2649:3KOPY89HM997Z2LVETRTGYX8A4BJ3W", "dateTime": 1519172958946}, {"current_trial": 81, "trialdata": {"rt": -1, "trial_type": "single-stim", "stimulus": "<p id=\"stim\">7</p>", "internal_node_id": "0.0-60.0-3.0", "time_elapsed": 462885, "key_press": -1, "trial_index": 81}, "uniqueid": "MTK2649:3KOPY89HM997Z2LVETRTGYX8A4BJ3W", "dateTime": 1519172959950}, {"current_trial": 82, "trialdata": {"rt": -1, "trial_type": "single-stim", "stimulus": "<p id=\"stim\">6</p>", "internal_node_id": "0.0-60.0-4.0", "time_elapsed": 463889, "key_press": -1, "trial_index": 82}, "uniqueid": "MTK2649:3KOPY89HM997Z2LVETRTGYX8A4BJ3W", "dateTime": 1519172960954}, {"current_trial": 83, "trialdata": {"rt": -1, "trial_type": "single-stim", "stimulus": "<p id=\"stim\">5</p>", "internal_node_id": "0.0-60.0-5.0", "time_elapsed": 464893, "key_press": -1, "trial_index": 83}, "uniqueid": "MTK2649:3KOPY89HM997Z2LVETRTGYX8A4BJ3W", "dateTime": 1519172961958}, {"current_trial": 84, "trialdata": {"rt": -1, "trial_type": "single-stim", "stimulus": "<p id=\"stim\">4</p>", "internal_node_id": "0.0-60.0-6.0", "time_elapsed": 465897, "key_press": -1, "trial_index": 84}, "uniqueid": "MTK2649:3KOPY89HM997Z2LVETRTGYX8A4BJ3W", "dateTime": 1519172962962}, {"current_trial": 85, "trialdata": {"rt": -1, "trial_type": "single-stim", "stimulus": "<p id=\"stim\">3</p>", "internal_node_id": "0.0-60.0-7.0", "time_elapsed": 466901, "key_press": -1, "trial_index": 85}, "uniqueid": "MTK2649:3KOPY89HM997Z2LVETRTGYX8A4BJ3W", "dateTime": 1519172963967}, {"current_trial": 86, "trialdata": {"rt": -1, "trial_type": "single-stim", "stimulus": "<p id=\"stim\">2</p>", "internal_node_id": "0.0-60.0-8.0", "time_elapsed": 467904, "key_press": -1, "trial_index": 86}, "uniqueid": "MTK2649:3KOPY89HM997Z2LVETRTGYX8A4BJ3W", "dateTime": 1519172964969}, {"current_trial": 87, "trialdata": {"rt": -1, "trial_type": "single-stim", "stimulus": "<p id=\"stim\">1</p>", "internal_node_id": "0.0-60.0-9.0", "time_elapsed": 468909, "key_press": -1, "trial_index": 87}, "uniqueid": "MTK2649:3KOPY89HM997Z2LVETRTGYX8A4BJ3W", "dateTime": 1519172965974}, {"current_trial": 88, "trialdata": {"rt": -1, "trial_type": "single-stim", "stimulus": "<p id=\"stim\">+</p>", "internal_node_id": "0.0-61.0-0.0", "time_elapsed": 470412, "key_press": -1, "type": "FIXATION", "trial_index": 88}, "uniqueid": "MTK2649:3KOPY89HM997Z2LVETRTGYX8A4BJ3W", "dateTime": 1519172967477}, {"current_trial": 89, "trialdata": {"rt": -1000, "trial_type": "single-audio", "word": "apron", "stimulus": "/static/audio/wordpool/APRON.wav", "conditions": [12, 800, "a", 12000], "internal_node_id": "0.0-62.0", "trial": 2, "time_elapsed": 472131, "serialpos": 0, "key_press": -1, "wordID": 34, "type": "PRES_AUD", "trial_index": 89}, "uniqueid": "MTK2649:3KOPY89HM997Z2LVETRTGYX8A4BJ3W", "dateTime": 1519172969196}, {"current_trial": 90, "trialdata": {"rt": -1000, "trial_type": "single-audio", "word": "cellar", "stimulus": "/static/audio/wordpool/CELLAR.wav", "conditions": [12, 800, "a", 12000], "internal_node_id": "0.0-63.0", "trial": 2, "time_elapsed": 473931, "serialpos": 1, "key_press": -1, "wordID": 266, "type": "PRES_AUD", "trial_index": 90}, "uniqueid": "MTK2649:3KOPY89HM997Z2LVETRTGYX8A4BJ3W", "dateTime": 1519172970996}, {"current_trial": 91, "trialdata": {"rt": -1000, "trial_type": "single-audio", "word": "basement", "stimulus": "/static/audio/wordpool/BASEMENT.wav", "conditions": [12, 800, "a", 12000], "internal_node_id": "0.0-64.0", "trial": 2, "time_elapsed": 475637, "serialpos": 2, "key_press": -1, "wordID": 93, "type": "PRES_AUD", "trial_index": 91}, "uniqueid": "MTK2649:3KOPY89HM997Z2LVETRTGYX8A4BJ3W", "dateTime": 1519172972702}, {"current_trial": 92, "trialdata": {"rt": -1000, "trial_type": "single-audio", "word": "gangster", "stimulus": "/static/audio/wordpool/GANGSTER.wav", "conditions": [12, 800, "a", 12000], "internal_node_id": "0.0-65.0", "trial": 2, "time_elapsed": 477402, "serialpos": 3, "key_press": -1, "wordID": 619, "type": "PRES_AUD", "trial_index": 92}, "uniqueid": "MTK2649:3KOPY89HM997Z2LVETRTGYX8A4BJ3W", "dateTime": 1519172974467}, {"current_trial": 93, "trialdata": {"rt": -1000, "trial_type": "single-audio", "word": "sticker", "stimulus": "/static/audio/wordpool/STICKER.wav", "conditions": [12, 800, "a", 12000], "internal_node_id": "0.0-66.0", "trial": 2, "time_elapsed": 479352, "serialpos": 4, "key_press": -1, "wordID": 1381, "type": "PRES_AUD", "trial_index": 93}, "uniqueid": "MTK2649:3KOPY89HM997Z2LVETRTGYX8A4BJ3W", "dateTime": 1519172976417}, {"current_trial": 94, "trialdata": {"rt": -1000, "trial_type": "single-audio", "word": "island", "stimulus": "/static/audio/wordpool/ISLAND.wav", "conditions": [12, 800, "a", 12000], "internal_node_id": "0.0-67.0", "trial": 2, "time_elapsed": 481192, "serialpos": 5, "key_press": -1, "wordID": 744, "type": "PRES_AUD", "trial_index": 94}, "uniqueid": "MTK2649:3KOPY89HM997Z2LVETRTGYX8A4BJ3W", "dateTime": 1519172978257}, {"current_trial": 95, "trialdata": {"rt": -1000, "trial_type": "single-audio", "word": "marine", "stimulus": "/static/audio/wordpool/MARINE.wav", "conditions": [12, 800, "a", 12000], "internal_node_id": "0.0-68.0", "trial": 2, "time_elapsed": 482836, "serialpos": 6, "key_press": -1, "wordID": 868, "type": "PRES_AUD", "trial_index": 95}, "uniqueid": "MTK2649:3KOPY89HM997Z2LVETRTGYX8A4BJ3W", "dateTime": 1519172979901}, {"current_trial": 96, "trialdata": {"rt": -1000, "trial_type": "single-audio", "word": "cloud", "stimulus": "/static/audio/wordpool/CLOUD.wav", "conditions": [12, 800, "a", 12000], "internal_node_id": "0.0-69.0", "trial": 2, "time_elapsed": 484751, "serialpos": 7, "key_press": -1, "wordID": 327, "type": "PRES_AUD", "trial_index": 96}, "uniqueid": "MTK2649:3KOPY89HM997Z2LVETRTGYX8A4BJ3W", "dateTime": 1519172981816}, {"current_trial": 97, "trialdata": {"rt": -1000, "trial_type": "single-audio", "word": "badge", "stimulus": "/static/audio/wordpool/BADGE.wav", "conditions": [12, 800, "a", 12000], "internal_node_id": "0.0-70.0", "trial": 2, "time_elapsed": 486626, "serialpos": 8, "key_press": -1, "wordID": 67, "type": "PRES_AUD", "trial_index": 97}, "uniqueid": "MTK2649:3KOPY89HM997Z2LVETRTGYX8A4BJ3W", "dateTime": 1519172983691}, {"current_trial": 98, "trialdata": {"rt": -1000, "trial_type": "single-audio", "word": "sparrow", "stimulus": "/static/audio/wordpool/SPARROW.wav", "conditions": [12, 800, "a", 12000], "internal_node_id": "0.0-71.0", "trial": 2, "time_elapsed": 488439, "serialpos": 9, "key_press": -1, "wordID": 1346, "type": "PRES_AUD", "trial_index": 98}, "uniqueid": "MTK2649:3KOPY89HM997Z2LVETRTGYX8A4BJ3W", "dateTime": 1519172985504}, {"current_trial": 99, "trialdata": {"rt": -1000, "trial_type": "single-audio", "word": "kleenex", "stimulus": "/static/audio/wordpool/KLEENEX.wav", "conditions": [12, 800, "a", 12000], "internal_node_id": "0.0-72.0", "trial": 2, "time_elapsed": 490422, "serialpos": 10, "key_press": -1, "wordID": 781, "type": "PRES_AUD", "trial_index": 99}, "uniqueid": "MTK2649:3KOPY89HM997Z2LVETRTGYX8A4BJ3W", "dateTime": 1519172987487}, {"current_trial": 100, "trialdata": {"rt": -1000, "trial_type": "single-audio", "word": "dashboard", "stimulus": "/static/audio/wordpool/DASHBOARD.wav", "conditions": [12, 800, "a", 12000], "internal_node_id": "0.0-73.0", "trial": 2, "time_elapsed": 492089, "serialpos": 11, "key_press": -1, "wordID": 440, "type": "PRES_AUD", "trial_index": 100}, "uniqueid": "MTK2649:3KOPY89HM997Z2LVETRTGYX8A4BJ3W", "dateTime": 1519172989154}, {"current_trial": 101, "trialdata": {"rt": -1, "trial_type": "single-stim", "stimulus": "", "internal_node_id": "0.0-74.0-0.0", "time_elapsed": 493339, "key_press": -1, "type": "PRE_RECALL_DELAY", "trial_index": 101}, "uniqueid": "MTK2649:3KOPY89HM997Z2LVETRTGYX8A4BJ3W", "dateTime": 1519172990404}, {"current_trial": 102, "trialdata": {"rt": -1000, "trial_type": "single-audio", "stimulus": "/static/audio/400Hz.wav", "internal_node_id": "0.0-75.0", "time_elapsed": 493840, "key_press": -1, "type": "PRE_RECALL_ALERT", "trial_index": 102}, "uniqueid": "MTK2649:3KOPY89HM997Z2LVETRTGYX8A4BJ3W", "dateTime": 1519172990905}, {"current_trial": 103, "trialdata": {"rt": [4430, 6286, 8761, 12271, 14127, 15950, 18931, 21856, 24635, 27256, 29630, 33916], "recwords": ["apron", "cellar", "basement", "gangster", "sticker", "island", "marry", "cloud", "badge", "sparrow", "kleenex", "database"], "key_times": [2742, 2889, 3282, 3406, 3608, 4430, 5319, 5487, 5611, 5746, 5892, 6140, 6286, 7298, 7411, 7749, 7951, 8086, 8176, 8356, 8603, 8761, 10359, 10572, 10764, 10966, 11292, 11540, 11765, 11900, 12271, 12936, 13204, 13362, 13543, 13666, 13835, 13948, 14127, 14915, 15196, 15387, 15466, 15646, 15804, 15950, 17503, 17964, 18279, 18391, 18717, 18931, 20866, 21080, 21249, 21451, 21721, 21856, 23454, 23589, 23814, 24117, 24297, 24635, 25816, 26244, 26356, 26626, 26750, 26862, 27008, 27256, 28224, 28414, 28584, 28763, 28877, 29011, 29417, 29630, 30553, 30665, 30912, 31351, 31711, 32195, 32589, 32679, 33095, 33523, 33601, 33669, 33916], "trial_type": "free-recall", "conditions": [12, 800, "a", 12000], "internal_node_id": "0.0-76.0-0.0", "key_presses": [65, 80, 82, 79, 78, 13, 67, 69, 76, 76, 65, 82, 13, 66, 65, 83, 69, 77, 69, 78, 84, 13, 71, 65, 78, 71, 83, 84, 69, 82, 13, 83, 84, 73, 67, 75, 69, 82, 13, 73, 83, 76, 65, 78, 68, 13, 77, 65, 82, 82, 89, 13, 67, 76, 79, 85, 68, 13, 66, 65, 68, 71, 69, 13, 83, 80, 65, 82, 82, 79, 87, 13, 75, 76, 69, 69, 78, 69, 88, 13, 68, 65, 84, 65, 86, 8, 66, 65, 67, 8, 83, 69, 13], "trial": 2, "time_elapsed": 553358, "type": "FREE_RECALL", "trial_index": 103}, "uniqueid": "MTK2649:3KOPY89HM997Z2LVETRTGYX8A4BJ3W", "dateTime": 1519173050425}, {"current_trial": 104, "trialdata": {"rt": 54541, "trial_type": "text", "internal_node_id": "0.0-77.0", "time_elapsed": 609905, "key_press": 13, "type": "INSTRUCTIONS", "trial_index": 104}, "uniqueid": "MTK2649:3KOPY89HM997Z2LVETRTGYX8A4BJ3W", "dateTime": 1519173106970}, {"current_trial": 105, "trialdata": {"rt": [2868, 4319, 5917, 8111, 10046, 12329, 14703, 16256, 17831, 19473, 20891, 22342, 23770], "trial_type": "math-distractor", "key_times": [1923, 2283, 2868, 3846, 4218, 4319, 5658, 5725, 5917, 7593, 7908, 8111, 9753, 9955, 10046, 12216, 12329, 14242, 14501, 14703, 15873, 16166, 16256, 17381, 17696, 17831, 19057, 19372, 19473, 20541, 20756, 20891, 21948, 22173, 22342, 23354, 23579, 23770], "responses": ["14", "18", "10", "18", "14", "8", "19", "15", "15", "15", "13", "13", "19"], "num2": [2, 3, 3, 3, 2, 1, 9, 8, 3, 6, 5, 4, 4, 4], "num3": [4, 8, 4, 7, 8, 2, 8, 2, 4, 7, 1, 7, 9, 7], "conditions": [12, 800, "a", 24000], "internal_node_id": "0.0-78.0", "key_presses": [49, 52, 13, 49, 56, 13, 49, 48, 13, 49, 56, 13, 49, 52, 13, 56, 13, 49, 57, 13, 49, 53, 13, 49, 53, 13, 49, 53, 13, 49, 51, 13, 49, 51, 13, 49, 57, 13], "trial": 3, "time_elapsed": 635913, "type": "DISTRACTOR", "trial_index": 105, "num1": [8, 7, 3, 8, 4, 4, 2, 5, 8, 2, 7, 2, 6, 6]}, "uniqueid": "MTK2649:3KOPY89HM997Z2LVETRTGYX8A4BJ3W", "dateTime": 1519173132978}, {"current_trial": 106, "trialdata": {"rt": -1, "trial_type": "single-stim", "stimulus": "<p id=\"stim\">10</p>", "internal_node_id": "0.0-79.0-0.0", "time_elapsed": 638919, "key_press": -1, "trial_index": 106}, "uniqueid": "MTK2649:3KOPY89HM997Z2LVETRTGYX8A4BJ3W", "dateTime": 1519173135984}, {"current_trial": 107, "trialdata": {"rt": -1, "trial_type": "single-stim", "stimulus": "<p id=\"stim\">9</p>", "internal_node_id": "0.0-79.0-1.0", "time_elapsed": 639923, "key_press": -1, "trial_index": 107}, "uniqueid": "MTK2649:3KOPY89HM997Z2LVETRTGYX8A4BJ3W", "dateTime": 1519173136988}, {"current_trial": 108, "trialdata": {"rt": -1, "trial_type": "single-stim", "stimulus": "<p id=\"stim\">8</p>", "internal_node_id": "0.0-79.0-2.0", "time_elapsed": 640926, "key_press": -1, "trial_index": 108}, "uniqueid": "MTK2649:3KOPY89HM997Z2LVETRTGYX8A4BJ3W", "dateTime": 1519173137991}, {"current_trial": 109, "trialdata": {"rt": -1, "trial_type": "single-stim", "stimulus": "<p id=\"stim\">7</p>", "internal_node_id": "0.0-79.0-3.0", "time_elapsed": 641931, "key_press": -1, "trial_index": 109}, "uniqueid": "MTK2649:3KOPY89HM997Z2LVETRTGYX8A4BJ3W", "dateTime": 1519173138996}, {"current_trial": 110, "trialdata": {"rt": -1, "trial_type": "single-stim", "stimulus": "<p id=\"stim\">6</p>", "internal_node_id": "0.0-79.0-4.0", "time_elapsed": 642935, "key_press": -1, "trial_index": 110}, "uniqueid": "MTK2649:3KOPY89HM997Z2LVETRTGYX8A4BJ3W", "dateTime": 1519173140000}, {"current_trial": 111, "trialdata": {"rt": -1, "trial_type": "single-stim", "stimulus": "<p id=\"stim\">5</p>", "internal_node_id": "0.0-79.0-5.0", "time_elapsed": 643939, "key_press": -1, "trial_index": 111}, "uniqueid": "MTK2649:3KOPY89HM997Z2LVETRTGYX8A4BJ3W", "dateTime": 1519173141004}, {"current_trial": 112, "trialdata": {"rt": -1, "trial_type": "single-stim", "stimulus": "<p id=\"stim\">4</p>", "internal_node_id": "0.0-79.0-6.0", "time_elapsed": 644944, "key_press": -1, "trial_index": 112}, "uniqueid": "MTK2649:3KOPY89HM997Z2LVETRTGYX8A4BJ3W", "dateTime": 1519173142009}, {"current_trial": 113, "trialdata": {"rt": -1, "trial_type": "single-stim", "stimulus": "<p id=\"stim\">3</p>", "internal_node_id": "0.0-79.0-7.0", "time_elapsed": 645945, "key_press": -1, "trial_index": 113}, "uniqueid": "MTK2649:3KOPY89HM997Z2LVETRTGYX8A4BJ3W", "dateTime": 1519173143010}, {"current_trial": 114, "trialdata": {"rt": -1, "trial_type": "single-stim", "stimulus": "<p id=\"stim\">2</p>", "internal_node_id": "0.0-79.0-8.0", "time_elapsed": 646947, "key_press": -1, "trial_index": 114}, "uniqueid": "MTK2649:3KOPY89HM997Z2LVETRTGYX8A4BJ3W", "dateTime": 1519173144012}, {"current_trial": 115, "trialdata": {"rt": -1, "trial_type": "single-stim", "stimulus": "<p id=\"stim\">1</p>", "internal_node_id": "0.0-79.0-9.0", "time_elapsed": 647947, "key_press": -1, "trial_index": 115}, "uniqueid": "MTK2649:3KOPY89HM997Z2LVETRTGYX8A4BJ3W", "dateTime": 1519173145012}, {"current_trial": 116, "trialdata": {"rt": -1, "trial_type": "single-stim", "stimulus": "<p id=\"stim\">+</p>", "internal_node_id": "0.0-80.0-0.0", "time_elapsed": 649453, "key_press": -1, "type": "FIXATION", "trial_index": 116}, "uniqueid": "MTK2649:3KOPY89HM997Z2LVETRTGYX8A4BJ3W", "dateTime": 1519173146518}, {"current_trial": 117, "trialdata": {"rt": -1000, "trial_type": "single-audio", "word": "daughter", "stimulus": "/static/audio/wordpool/DAUGHTER.wav", "conditions": [12, 800, "a", 24000], "internal_node_id": "0.0-81.0", "trial": 3, "time_elapsed": 651195, "serialpos": 0, "key_press": -1, "wordID": 441, "type": "PRES_AUD", "trial_index": 117}, "uniqueid": "MTK2649:3KOPY89HM997Z2LVETRTGYX8A4BJ3W", "dateTime": 1519173148260}, {"current_trial": 118, "trialdata": {"rt": -1000, "trial_type": "single-audio", "word": "baby", "stimulus": "/static/audio/wordpool/BABY.wav", "conditions": [12, 800, "a", 24000], "internal_node_id": "0.0-82.0", "trial": 3, "time_elapsed": 652861, "serialpos": 1, "key_press": -1, "wordID": 63, "type": "PRES_AUD", "trial_index": 118}, "uniqueid": "MTK2649:3KOPY89HM997Z2LVETRTGYX8A4BJ3W", "dateTime": 1519173149926}, {"current_trial": 119, "trialdata": {"rt": -1000, "trial_type": "single-audio", "word": "chauffeur", "stimulus": "/static/audio/wordpool/CHAUFFEUR.wav", "conditions": [12, 800, "a", 24000], "internal_node_id": "0.0-83.0", "trial": 3, "time_elapsed": 654562, "serialpos": 2, "key_press": -1, "wordID": 282, "type": "PRES_AUD", "trial_index": 119}, "uniqueid": "MTK2649:3KOPY89HM997Z2LVETRTGYX8A4BJ3W", "dateTime": 1519173151627}, {"current_trial": 120, "trialdata": {"rt": -1000, "trial_type": "single-audio", "word": "dolphin", "stimulus": "/static/audio/wordpool/DOLPHIN.wav", "conditions": [12, 800, "a", 24000], "internal_node_id": "0.0-84.0", "trial": 3, "time_elapsed": 656536, "serialpos": 3, "key_press": -1, "wordID": 482, "type": "PRES_AUD", "trial_index": 120}, "uniqueid": "MTK2649:3KOPY89HM997Z2LVETRTGYX8A4BJ3W", "dateTime": 1519173153601}, {"current_trial": 121, "trialdata": {"rt": -1000, "trial_type": "single-audio", "word": "lettuce", "stimulus": "/static/audio/wordpool/LETTUCE.wav", "conditions": [12, 800, "a", 24000], "internal_node_id": "0.0-85.0", "trial": 3, "time_elapsed": 658301, "serialpos": 4, "key_press": -1, "wordID": 813, "type": "PRES_AUD", "trial_index": 121}, "uniqueid": "MTK2649:3KOPY89HM997Z2LVETRTGYX8A4BJ3W", "dateTime": 1519173155366}, {"current_trial": 122, "trialdata": {"rt": -1000, "trial_type": "single-audio", "word": "doughnut", "stimulus": "/static/audio/wordpool/DOUGHNUT.wav", "conditions": [12, 800, "a", 24000], "internal_node_id": "0.0-86.0", "trial": 3, "time_elapsed": 660088, "serialpos": 5, "key_press": -1, "wordID": 489, "type": "PRES_AUD", "trial_index": 122}, "uniqueid": "MTK2649:3KOPY89HM997Z2LVETRTGYX8A4BJ3W", "dateTime": 1519173157153}, {"current_trial": 123, "trialdata": {"rt": -1000, "trial_type": "single-audio", "word": "iceberg", "stimulus": "/static/audio/wordpool/ICEBERG.wav", "conditions": [12, 800, "a", 24000], "internal_node_id": "0.0-87.0", "trial": 3, "time_elapsed": 661766, "serialpos": 6, "key_press": -1, "wordID": 730, "type": "PRES_AUD", "trial_index": 123}, "uniqueid": "MTK2649:3KOPY89HM997Z2LVETRTGYX8A4BJ3W", "dateTime": 1519173158831}, {"current_trial": 124, "trialdata": {"rt": -1000, "trial_type": "single-audio", "word": "victim", "stimulus": "/static/audio/wordpool/VICTIM.wav", "conditions": [12, 800, "a", 24000], "internal_node_id": "0.0-88.0", "trial": 3, "time_elapsed": 663624, "serialpos": 7, "key_press": -1, "wordID": 1561, "type": "PRES_AUD", "trial_index": 124}, "uniqueid": "MTK2649:3KOPY89HM997Z2LVETRTGYX8A4BJ3W", "dateTime": 1519173160689}, {"current_trial": 125, "trialdata": {"rt": -1000, "trial_type": "single-audio", "word": "onion", "stimulus": "/static/audio/wordpool/ONION.wav", "conditions": [12, 800, "a", 24000], "internal_node_id": "0.0-89.0", "trial": 3, "time_elapsed": 665552, "serialpos": 8, "key_press": -1, "wordID": 976, "type": "PRES_AUD", "trial_index": 125}, "uniqueid": "MTK2649:3KOPY89HM997Z2LVETRTGYX8A4BJ3W", "dateTime": 1519173162617}, {"current_trial": 126, "trialdata": {"rt": -1000, "trial_type": "single-audio", "word": "snack", "stimulus": "/static/audio/wordpool/SNACK.wav", "conditions": [12, 800, "a", 24000], "internal_node_id": "0.0-90.0", "trial": 3, "time_elapsed": 667444, "serialpos": 9, "key_press": -1, "wordID": 1330, "type": "PRES_AUD", "trial_index": 126}, "uniqueid": "MTK2649:3KOPY89HM997Z2LVETRTGYX8A4BJ3W", "dateTime": 1519173164509}, {"current_trial": 127, "trialdata": {"rt": -1000, "trial_type": "single-audio", "word": "staple", "stimulus": "/static/audio/wordpool/STAPLE.wav", "conditions": [12, 800, "a", 24000], "internal_node_id": "0.0-91.0", "trial": 3, "time_elapsed": 669185, "serialpos": 10, "key_press": -1, "wordID": 1370, "type": "PRES_AUD", "trial_index": 127}, "uniqueid": "MTK2649:3KOPY89HM997Z2LVETRTGYX8A4BJ3W", "dateTime": 1519173166250}, {"current_trial": 128, "trialdata": {"rt": -1000, "trial_type": "single-audio", "word": "monster", "stimulus": "/static/audio/wordpool/MONSTER.wav", "conditions": [12, 800, "a", 24000], "internal_node_id": "0.0-92.0", "trial": 3, "time_elapsed": 671014, "serialpos": 11, "key_press": -1, "wordID": 911, "type": "PRES_AUD", "trial_index": 128}, "uniqueid": "MTK2649:3KOPY89HM997Z2LVETRTGYX8A4BJ3W", "dateTime": 1519173168079}, {"current_trial": 129, "trialdata": {"rt": -1, "trial_type": "single-stim", "stimulus": "", "internal_node_id": "0.0-93.0-0.0", "time_elapsed": 672396, "key_press": -1, "type": "PRE_RECALL_DELAY", "trial_index": 129}, "uniqueid": "MTK2649:3KOPY89HM997Z2LVETRTGYX8A4BJ3W", "dateTime": 1519173169461}, {"current_trial": 130, "trialdata": {"rt": -1000, "trial_type": "single-audio", "stimulus": "/static/audio/400Hz.wav", "internal_node_id": "0.0-94.0", "time_elapsed": 672896, "key_press": -1, "type": "PRE_RECALL_ALERT", "trial_index": 130}, "uniqueid": "MTK2649:3KOPY89HM997Z2LVETRTGYX8A4BJ3W", "dateTime": 1519173169961}, {"current_trial": 131, "trialdata": {"rt": [3338, 4643, 8007, 13666, 16208, 19336, 23960, 26907, 29686, 32059, 34422, 37595], "recwords": ["daughter", "baby", "chauffeur", "dolphin", "lettuce", "donut", "iceburg", "victory", "onion", "snack", "stapler", "monster"], "key_times": [1944, 2044, 2213, 2438, 2573, 2765, 2933, 3001, 3338, 3890, 4002, 4103, 4328, 4643, 5194, 5420, 5892, 6150, 6308, 6556, 6882, 7050, 7264, 7557, 7714, 8007, 12192, 12338, 12507, 12664, 12855, 12946, 13159, 13666, 14937, 15184, 15443, 15556, 15669, 15870, 16118, 16208, 18053, 18311, 18515, 18716, 18851, 19336, 20753, 21181, 21361, 22374, 22643, 22778, 23228, 23960, 25062, 25231, 25647, 25906, 26040, 26457, 26671, 26907, 28594, 28752, 28921, 29078, 29247, 29686, 31002, 31238, 31384, 31621, 31733, 32059, 32994, 33387, 33555, 33736, 33961, 34107, 34208, 34422, 35918, 36088, 36267, 36480, 36717, 36886, 36943, 37595], "trial_type": "free-recall", "conditions": [12, 800, "a", 24000], "internal_node_id": "0.0-95.0-0.0", "key_presses": [68, 65, 85, 71, 72, 84, 69, 82, 13, 66, 65, 66, 89, 13, 67, 65, 8, 72, 65, 85, 70, 70, 69, 85, 82, 13, 68, 79, 76, 80, 72, 73, 78, 13, 76, 69, 84, 84, 85, 67, 69, 13, 68, 79, 78, 85, 84, 13, 73, 67, 69, 66, 85, 82, 71, 13, 86, 73, 67, 84, 79, 82, 89, 13, 79, 78, 73, 79, 78, 13, 83, 78, 65, 67, 75, 13, 83, 84, 65, 80, 76, 69, 82, 13, 77, 79, 78, 83, 84, 69, 82, 13], "trial": 3, "time_elapsed": 732902, "type": "FREE_RECALL", "trial_index": 131}, "uniqueid": "MTK2649:3KOPY89HM997Z2LVETRTGYX8A4BJ3W", "dateTime": 1519173229969}, {"current_trial": 132, "trialdata": {"rt": 3789, "trial_type": "text", "internal_node_id": "0.0-96.0", "time_elapsed": 738696, "key_press": 32, "type": "INSTRUCTIONS", "trial_index": 132}, "uniqueid": "MTK2649:3KOPY89HM997Z2LVETRTGYX8A4BJ3W", "dateTime": 1519173235761}, {"current_trial": 133, "trialdata": {"rt": [2362, 3970, 6097, 7728, 9730, 11801, 13510, 15231, 17617, 18866, 20474, 22521], "trial_type": "math-distractor", "key_times": [2103, 2362, 3532, 3746, 3970, 5804, 5961, 6097, 7368, 7570, 7728, 9225, 9573, 9730, 11452, 11597, 11801, 12981, 13353, 13510, 14636, 14928, 15231, 17178, 17425, 17617, 18438, 18651, 18866, 19878, 20283, 20474, 22151, 22319, 22521], "responses": ["9", "12", "22", "12", "13", "22", "17", "15", "20", "13", "17", "11"], "num2": [3, 4, 6, 4, 9, 9, 1, 4, 9, 6, 2, 2, 6], "num3": [2, 2, 9, 4, 1, 8, 8, 6, 6, 1, 7, 7, 4], "conditions": [24, 800, "a", 24000], "internal_node_id": "0.0-97.0", "key_presses": [57, 13, 49, 50, 13, 50, 50, 13, 49, 50, 13, 49, 51, 13, 50, 50, 13, 49, 55, 13, 49, 53, 13, 50, 48, 13, 49, 51, 13, 49, 55, 13, 49, 49, 13], "trial": 4, "time_elapsed": 764702, "type": "DISTRACTOR", "trial_index": 133, "num1": [4, 6, 7, 4, 3, 5, 8, 5, 5, 6, 8, 2, 4]}, "uniqueid": "MTK2649:3KOPY89HM997Z2LVETRTGYX8A4BJ3W", "dateTime": 1519173261767}, {"current_trial": 134, "trialdata": {"rt": -1, "trial_type": "single-stim", "stimulus": "<p id=\"stim\">10</p>", "internal_node_id": "0.0-98.0-0.0", "time_elapsed": 767708, "key_press": -1, "trial_index": 134}, "uniqueid": "MTK2649:3KOPY89HM997Z2LVETRTGYX8A4BJ3W", "dateTime": 1519173264773}, {"current_trial": 135, "trialdata": {"rt": -1, "trial_type": "single-stim", "stimulus": "<p id=\"stim\">9</p>", "internal_node_id": "0.0-98.0-1.0", "time_elapsed": 768712, "key_press": -1, "trial_index": 135}, "uniqueid": "MTK2649:3KOPY89HM997Z2LVETRTGYX8A4BJ3W", "dateTime": 1519173265777}, {"current_trial": 136, "trialdata": {"rt": -1, "trial_type": "single-stim", "stimulus": "<p id=\"stim\">8</p>", "internal_node_id": "0.0-98.0-2.0", "time_elapsed": 769716, "key_press": -1, "trial_index": 136}, "uniqueid": "MTK2649:3KOPY89HM997Z2LVETRTGYX8A4BJ3W", "dateTime": 1519173266781}, {"current_trial": 137, "trialdata": {"rt": -1, "trial_type": "single-stim", "stimulus": "<p id=\"stim\">7</p>", "internal_node_id": "0.0-98.0-3.0", "time_elapsed": 770720, "key_press": -1, "trial_index": 137}, "uniqueid": "MTK2649:3KOPY89HM997Z2LVETRTGYX8A4BJ3W", "dateTime": 1519173267785}, {"current_trial": 138, "trialdata": {"rt": -1, "trial_type": "single-stim", "stimulus": "<p id=\"stim\">6</p>", "internal_node_id": "0.0-98.0-4.0", "time_elapsed": 771723, "key_press": -1, "trial_index": 138}, "uniqueid": "MTK2649:3KOPY89HM997Z2LVETRTGYX8A4BJ3W", "dateTime": 1519173268788}, {"current_trial": 139, "trialdata": {"rt": -1, "trial_type": "single-stim", "stimulus": "<p id=\"stim\">5</p>", "internal_node_id": "0.0-98.0-5.0", "time_elapsed": 772728, "key_press": -1, "trial_index": 139}, "uniqueid": "MTK2649:3KOPY89HM997Z2LVETRTGYX8A4BJ3W", "dateTime": 1519173269793}, {"current_trial": 140, "trialdata": {"rt": -1, "trial_type": "single-stim", "stimulus": "<p id=\"stim\">4</p>", "internal_node_id": "0.0-98.0-6.0", "time_elapsed": 773732, "key_press": -1, "trial_index": 140}, "uniqueid": "MTK2649:3KOPY89HM997Z2LVETRTGYX8A4BJ3W", "dateTime": 1519173270797}, {"current_trial": 141, "trialdata": {"rt": -1, "trial_type": "single-stim", "stimulus": "<p id=\"stim\">3</p>", "internal_node_id": "0.0-98.0-7.0", "time_elapsed": 774737, "key_press": -1, "trial_index": 141}, "uniqueid": "MTK2649:3KOPY89HM997Z2LVETRTGYX8A4BJ3W", "dateTime": 1519173271802}, {"current_trial": 142, "trialdata": {"rt": -1, "trial_type": "single-stim", "stimulus": "<p id=\"stim\">2</p>", "internal_node_id": "0.0-98.0-8.0", "time_elapsed": 775740, "key_press": -1, "trial_index": 142}, "uniqueid": "MTK2649:3KOPY89HM997Z2LVETRTGYX8A4BJ3W", "dateTime": 1519173272805}, {"current_trial": 143, "trialdata": {"rt": -1, "trial_type": "single-stim", "stimulus": "<p id=\"stim\">1</p>", "internal_node_id": "0.0-98.0-9.0", "time_elapsed": 776745, "key_press": -1, "trial_index": 143}, "uniqueid": "MTK2649:3KOPY89HM997Z2LVETRTGYX8A4BJ3W", "dateTime": 1519173273810}, {"current_trial": 144, "trialdata": {"rt": -1, "trial_type": "single-stim", "stimulus": "<p id=\"stim\">+</p>", "internal_node_id": "0.0-99.0-0.0", "time_elapsed": 778248, "key_press": -1, "type": "FIXATION", "trial_index": 144}, "uniqueid": "MTK2649:3KOPY89HM997Z2LVETRTGYX8A4BJ3W", "dateTime": 1519173275313}, {"current_trial": 145, "trialdata": {"rt": -1000, "trial_type": "single-audio", "word": "label", "stimulus": "/static/audio/wordpool/LABEL.wav", "conditions": [24, 800, "a", 24000], "internal_node_id": "0.0-100.0", "trial": 4, "time_elapsed": 779941, "serialpos": 0, "key_press": -1, "wordID": 789, "type": "PRES_AUD", "trial_index": 145}, "uniqueid": "MTK2649:3KOPY89HM997Z2LVETRTGYX8A4BJ3W", "dateTime": 1519173277006}, {"current_trial": 146, "trialdata": {"rt": -1000, "trial_type": "single-audio", "word": "valley", "stimulus": "/static/audio/wordpool/VALLEY.wav", "conditions": [24, 800, "a", 24000], "internal_node_id": "0.0-101.0", "trial": 4, "time_elapsed": 781738, "serialpos": 1, "key_press": -1, "wordID": 1544, "type": "PRES_AUD", "trial_index": 146}, "uniqueid": "MTK2649:3KOPY89HM997Z2LVETRTGYX8A4BJ3W", "dateTime": 1519173278803}, {"current_trial": 147, "trialdata": {"rt": -1000, "trial_type": "single-audio", "word": "canyon", "stimulus": "/static/audio/wordpool/CANYON.wav", "conditions": [24, 800, "a", 24000], "internal_node_id": "0.0-102.0", "trial": 4, "time_elapsed": 783718, "serialpos": 2, "key_press": -1, "wordID": 234, "type": "PRES_AUD", "trial_index": 147}, "uniqueid": "MTK2649:3KOPY89HM997Z2LVETRTGYX8A4BJ3W", "dateTime": 1519173280783}, {"current_trial": 148, "trialdata": {"rt": -1000, "trial_type": "single-audio", "word": "hostess", "stimulus": "/static/audio/wordpool/HOSTESS.wav", "conditions": [24, 800, "a", 24000], "internal_node_id": "0.0-103.0", "trial": 4, "time_elapsed": 785378, "serialpos": 3, "key_press": -1, "wordID": 722, "type": "PRES_AUD", "trial_index": 148}, "uniqueid": "MTK2649:3KOPY89HM997Z2LVETRTGYX8A4BJ3W", "dateTime": 1519173282443}, {"current_trial": 149, "trialdata": {"rt": -1000, "trial_type": "single-audio", "word": "boyfriend", "stimulus": "/static/audio/wordpool/BOYFRIEND.wav", "conditions": [24, 800, "a", 24000], "internal_node_id": "0.0-104.0", "trial": 4, "time_elapsed": 787112, "serialpos": 4, "key_press": -1, "wordID": 161, "type": "PRES_AUD", "trial_index": 149}, "uniqueid": "MTK2649:3KOPY89HM997Z2LVETRTGYX8A4BJ3W", "dateTime": 1519173284177}, {"current_trial": 150, "trialdata": {"rt": -1000, "trial_type": "single-audio", "word": "college", "stimulus": "/static/audio/wordpool/COLLEGE.wav", "conditions": [24, 800, "a", 24000], "internal_node_id": "0.0-105.0", "trial": 4, "time_elapsed": 789000, "serialpos": 5, "key_press": -1, "wordID": 345, "type": "PRES_AUD", "trial_index": 150}, "uniqueid": "MTK2649:3KOPY89HM997Z2LVETRTGYX8A4BJ3W", "dateTime": 1519173286065}, {"current_trial": 151, "trialdata": {"rt": -1000, "trial_type": "single-audio", "word": "cocktail", "stimulus": "/static/audio/wordpool/COCKTAIL.wav", "conditions": [24, 800, "a", 24000], "internal_node_id": "0.0-106.0", "trial": 4, "time_elapsed": 790955, "serialpos": 6, "key_press": -1, "wordID": 337, "type": "PRES_AUD", "trial_index": 151}, "uniqueid": "MTK2649:3KOPY89HM997Z2LVETRTGYX8A4BJ3W", "dateTime": 1519173288020}, {"current_trial": 152, "trialdata": {"rt": -1000, "trial_type": "single-audio", "word": "banker", "stimulus": "/static/audio/wordpool/BANKER.wav", "conditions": [24, 800, "a", 24000], "internal_node_id": "0.0-107.0", "trial": 4, "time_elapsed": 792924, "serialpos": 7, "key_press": -1, "wordID": 83, "type": "PRES_AUD", "trial_index": 152}, "uniqueid": "MTK2649:3KOPY89HM997Z2LVETRTGYX8A4BJ3W", "dateTime": 1519173289989}, {"current_trial": 153, "trialdata": {"rt": -1000, "trial_type": "single-audio", "word": "cashier", "stimulus": "/static/audio/wordpool/CASHIER.wav", "conditions": [24, 800, "a", 24000], "internal_node_id": "0.0-108.0", "trial": 4, "time_elapsed": 794572, "serialpos": 8, "key_press": -1, "wordID": 253, "type": "PRES_AUD", "trial_index": 153}, "uniqueid": "MTK2649:3KOPY89HM997Z2LVETRTGYX8A4BJ3W", "dateTime": 1519173291638}, {"current_trial": 154, "trialdata": {"rt": -1000, "trial_type": "single-audio", "word": "turnip", "stimulus": "/static/audio/wordpool/TURNIP.wav", "conditions": [24, 800, "a", 24000], "internal_node_id": "0.0-109.0", "trial": 4, "time_elapsed": 796233, "serialpos": 9, "key_press": -1, "wordID": 1520, "type": "PRES_AUD", "trial_index": 154}, "uniqueid": "MTK2649:3KOPY89HM997Z2LVETRTGYX8A4BJ3W", "dateTime": 1519173293298}, {"current_trial": 155, "trialdata": {"rt": -1000, "trial_type": "single-audio", "word": "gallon", "stimulus": "/static/audio/wordpool/GALLON.wav", "conditions": [24, 800, "a", 24000], "internal_node_id": "0.0-110.0", "trial": 4, "time_elapsed": 798049, "serialpos": 10, "key_press": -1, "wordID": 617, "type": "PRES_AUD", "trial_index": 155}, "uniqueid": "MTK2649:3KOPY89HM997Z2LVETRTGYX8A4BJ3W", "dateTime": 1519173295114}, {"current_trial": 156, "trialdata": {"rt": -1000, "trial_type": "single-audio", "word": "robber", "stimulus": "/static/audio/wordpool/ROBBER.wav", "conditions": [24, 800, "a", 24000], "internal_node_id": "0.0-111.0", "trial": 4, "time_elapsed": 799819, "serialpos": 11, "key_press": -1, "wordID": 1196, "type": "PRES_AUD", "trial_index": 156}, "uniqueid": "MTK2649:3KOPY89HM997Z2LVETRTGYX8A4BJ3W", "dateTime": 1519173296884}, {"current_trial": 157, "trialdata": {"rt": -1000, "trial_type": "single-audio", "word": "kidney", "stimulus": "/static/audio/wordpool/KIDNEY.wav", "conditions": [24, 800, "a", 24000], "internal_node_id": "0.0-112.0", "trial": 4, "time_elapsed": 801631, "serialpos": 12, "key_press": -1, "wordID": 775, "type": "PRES_AUD", "trial_index": 157}, "uniqueid": "MTK2649:3KOPY89HM997Z2LVETRTGYX8A4BJ3W", "dateTime": 1519173298696}, {"current_trial": 158, "trialdata": {"rt": -1000, "trial_type": "single-audio", "word": "dentist", "stimulus": "/static/audio/wordpool/DENTIST.wav", "conditions": [24, 800, "a", 24000], "internal_node_id": "0.0-113.0", "trial": 4, "time_elapsed": 803384, "serialpos": 13, "key_press": -1, "wordID": 446, "type": "PRES_AUD", "trial_index": 158}, "uniqueid": "MTK2649:3KOPY89HM997Z2LVETRTGYX8A4BJ3W", "dateTime": 1519173300449}, {"current_trial": 159, "trialdata": {"rt": -1000, "trial_type": "single-audio", "word": "football", "stimulus": "/static/audio/wordpool/FOOTBALL.wav", "conditions": [24, 800, "a", 24000], "internal_node_id": "0.0-114.0", "trial": 4, "time_elapsed": 805305, "serialpos": 14, "key_press": -1, "wordID": 590, "type": "PRES_AUD", "trial_index": 159}, "uniqueid": "MTK2649:3KOPY89HM997Z2LVETRTGYX8A4BJ3W", "dateTime": 1519173302371}, {"current_trial": 160, "trialdata": {"rt": -1000, "trial_type": "single-audio", "word": "marrow", "stimulus": "/static/audio/wordpool/MARROW.wav", "conditions": [24, 800, "a", 24000], "internal_node_id": "0.0-115.0", "trial": 4, "time_elapsed": 807204, "serialpos": 15, "key_press": -1, "wordID": 871, "type": "PRES_AUD", "trial_index": 160}, "uniqueid": "MTK2649:3KOPY89HM997Z2LVETRTGYX8A4BJ3W", "dateTime": 1519173304269}, {"current_trial": 161, "trialdata": {"rt": -1000, "trial_type": "single-audio", "word": "swimmer", "stimulus": "/static/audio/wordpool/SWIMMER.wav", "conditions": [24, 800, "a", 24000], "internal_node_id": "0.0-116.0", "trial": 4, "time_elapsed": 809050, "serialpos": 16, "key_press": -1, "wordID": 1419, "type": "PRES_AUD", "trial_index": 161}, "uniqueid": "MTK2649:3KOPY89HM997Z2LVETRTGYX8A4BJ3W", "dateTime": 1519173306115}, {"current_trial": 162, "trialdata": {"rt": -1000, "trial_type": "single-audio", "word": "stallion", "stimulus": "/static/audio/wordpool/STALLION.wav", "conditions": [24, 800, "a", 24000], "internal_node_id": "0.0-117.0", "trial": 4, "time_elapsed": 810866, "serialpos": 17, "key_press": -1, "wordID": 1368, "type": "PRES_AUD", "trial_index": 162}, "uniqueid": "MTK2649:3KOPY89HM997Z2LVETRTGYX8A4BJ3W", "dateTime": 1519173307931}, {"current_trial": 163, "trialdata": {"rt": -1000, "trial_type": "single-audio", "word": "uncle", "stimulus": "/static/audio/wordpool/UNCLE.wav", "conditions": [24, 800, "a", 24000], "internal_node_id": "0.0-118.0", "trial": 4, "time_elapsed": 812701, "serialpos": 18, "key_press": -1, "wordID": 1535, "type": "PRES_AUD", "trial_index": 163}, "uniqueid": "MTK2649:3KOPY89HM997Z2LVETRTGYX8A4BJ3W", "dateTime": 1519173309766}, {"current_trial": 164, "trialdata": {"rt": -1000, "trial_type": "single-audio", "word": "brother", "stimulus": "/static/audio/wordpool/BROTHER.wav", "conditions": [24, 800, "a", 24000], "internal_node_id": "0.0-119.0", "trial": 4, "time_elapsed": 814339, "serialpos": 19, "key_press": -1, "wordID": 178, "type": "PRES_AUD", "trial_index": 164}, "uniqueid": "MTK2649:3KOPY89HM997Z2LVETRTGYX8A4BJ3W", "dateTime": 1519173311404}, {"current_trial": 165, "trialdata": {"rt": -1000, "trial_type": "single-audio", "word": "climber", "stimulus": "/static/audio/wordpool/CLIMBER.wav", "conditions": [24, 800, "a", 24000], "internal_node_id": "0.0-120.0", "trial": 4, "time_elapsed": 816202, "serialpos": 20, "key_press": -1, "wordID": 322, "type": "PRES_AUD", "trial_index": 165}, "uniqueid": "MTK2649:3KOPY89HM997Z2LVETRTGYX8A4BJ3W", "dateTime": 1519173313267}, {"current_trial": 166, "trialdata": {"rt": -1000, "trial_type": "single-audio", "word": "rabbit", "stimulus": "/static/audio/wordpool/RABBIT.wav", "conditions": [24, 800, "a", 24000], "internal_node_id": "0.0-121.0", "trial": 4, "time_elapsed": 818111, "serialpos": 21, "key_press": -1, "wordID": 1151, "type": "PRES_AUD", "trial_index": 166}, "uniqueid": "MTK2649:3KOPY89HM997Z2LVETRTGYX8A4BJ3W", "dateTime": 1519173315176}, {"current_trial": 167, "trialdata": {"rt": -1000, "trial_type": "single-audio", "word": "necklace", "stimulus": "/static/audio/wordpool/NECKLACE.wav", "conditions": [24, 800, "a", 24000], "internal_node_id": "0.0-122.0", "trial": 4, "time_elapsed": 820079, "serialpos": 22, "key_press": -1, "wordID": 939, "type": "PRES_AUD", "trial_index": 167}, "uniqueid": "MTK2649:3KOPY89HM997Z2LVETRTGYX8A4BJ3W", "dateTime": 1519173317144}, {"current_trial": 168, "trialdata": {"rt": -1000, "trial_type": "single-audio", "word": "champagne", "stimulus": "/static/audio/wordpool/CHAMPAGNE.wav", "conditions": [24, 800, "a", 24000], "internal_node_id": "0.0-123.0", "trial": 4, "time_elapsed": 821815, "serialpos": 23, "key_press": -1, "wordID": 277, "type": "PRES_AUD", "trial_index": 168}, "uniqueid": "MTK2649:3KOPY89HM997Z2LVETRTGYX8A4BJ3W", "dateTime": 1519173318880}, {"current_trial": 169, "trialdata": {"rt": -1, "trial_type": "single-stim", "stimulus": "", "internal_node_id": "0.0-124.0-0.0", "time_elapsed": 823126, "key_press": -1, "type": "PRE_RECALL_DELAY", "trial_index": 169}, "uniqueid": "MTK2649:3KOPY89HM997Z2LVETRTGYX8A4BJ3W", "dateTime": 1519173320191}, {"current_trial": 170, "trialdata": {"rt": -1000, "trial_type": "single-audio", "stimulus": "/static/audio/400Hz.wav", "internal_node_id": "0.0-125.0", "time_elapsed": 823626, "key_press": -1, "type": "PRE_RECALL_ALERT", "trial_index": 170}, "uniqueid": "MTK2649:3KOPY89HM997Z2LVETRTGYX8A4BJ3W", "dateTime": 1519173320691}, {"current_trial": 171, "trialdata": {"rt": [4528, 7644, 10176, 13124, 14181, 16577, 22922, 25486, 28434, 34115, 37963, 43274, 46322], "recwords": ["label", "valley", "hostess", "contest", "banker", "cashier", "talent", "robber", "valley", "brother", "uncle", "sparrow", "necklace"], "key_times": [1829, 2593, 2795, 3561, 3673, 3853, 4000, 4213, 4528, 6429, 6553, 6711, 6857, 7239, 7532, 7644, 8950, 9073, 9253, 9490, 9658, 9883, 10052, 10176, 11829, 11976, 12178, 12426, 12606, 12796, 12954, 13124, 13416, 13528, 13652, 13764, 13955, 14068, 14181, 15452, 15576, 15767, 15993, 16060, 16307, 16419, 16577, 18962, 21088, 21358, 22315, 22494, 22641, 22922, 24542, 24710, 24947, 25071, 25216, 25364, 25486, 27411, 27602, 27760, 27872, 28064, 28311, 28434, 32946, 33182, 33351, 33587, 33756, 33868, 33948, 34115, 34397, 34554, 34734, 35443, 35758, 36344, 36883, 37221, 37806, 37963, 41788, 42160, 42317, 42553, 42733, 42812, 43048, 43274, 44939, 45084, 45321, 45456, 45558, 45782, 46007, 46221, 46322], "trial_type": "free-recall", "conditions": [24, 800, "a", 24000], "internal_node_id": "0.0-126.0-0.0", "key_presses": [76, 8, 8, 76, 65, 66, 69, 76, 13, 86, 65, 76, 76, 69, 89, 13, 72, 79, 83, 84, 69, 83, 83, 13, 67, 79, 78, 84, 69, 83, 84, 13, 66, 65, 78, 75, 69, 82, 13, 67, 65, 83, 72, 73, 69, 82, 13, 84, 65, 76, 69, 78, 84, 13, 82, 79, 66, 66, 69, 82, 13, 86, 65, 76, 76, 69, 89, 13, 66, 82, 79, 84, 72, 69, 82, 13, 85, 85, 78, 8, 8, 78, 67, 76, 69, 13, 83, 80, 65, 82, 82, 79, 87, 13, 78, 69, 67, 75, 76, 65, 67, 69, 13], "trial": 4, "time_elapsed": 883632, "type": "FREE_RECALL", "trial_index": 171}, "uniqueid": "MTK2649:3KOPY89HM997Z2LVETRTGYX8A4BJ3W", "dateTime": 1519173380700}, {"current_trial": 172, "trialdata": {"rt": 2618, "trial_type": "text", "internal_node_id": "0.0-127.0", "time_elapsed": 888254, "key_press": 72, "type": "INSTRUCTIONS", "trial_index": 172}, "uniqueid": "MTK2649:3KOPY89HM997Z2LVETRTGYX8A4BJ3W", "dateTime": 1519173385320}, {"current_trial": 173, "trialdata": {"rt": [2453, 4151, 6424, 7976, 9923, 11464, 12849, 14344, 15942, 18102, 19824, 21488, 23344], "trial_type": "math-distractor", "key_times": [1992, 2160, 2453, 3578, 3938, 4151, 5850, 6290, 6424, 7426, 7775, 7976, 9338, 9710, 9923, 11003, 11261, 11464, 12432, 12669, 12849, 13918, 14153, 14344, 15515, 15706, 15942, 17416, 17799, 18102, 19374, 19587, 19824, 20892, 21241, 21488, 22692, 23030, 23344], "responses": ["11", "27", "10", "19", "20", "13", "14", "13", "11", "20", "12", "16", "16"], "num2": [1, 9, 2, 6, 8, 5, 2, 4, 2, 6, 2, 2, 4, 2], "num3": [6, 9, 2, 9, 8, 4, 7, 8, 8, 7, 1, 8, 9, 8], "conditions": [24, 1600, "a", 24000], "internal_node_id": "0.0-128.0", "key_presses": [49, 49, 13, 50, 55, 13, 49, 48, 13, 49, 57, 13, 50, 48, 13, 49, 51, 13, 49, 52, 13, 49, 51, 13, 49, 49, 13, 50, 48, 13, 49, 50, 13, 49, 54, 13, 49, 54, 13], "trial": 5, "time_elapsed": 914260, "type": "DISTRACTOR", "trial_index": 173, "num1": [4, 9, 6, 4, 4, 4, 5, 1, 1, 7, 9, 6, 3, 1]}, "uniqueid": "MTK2649:3KOPY89HM997Z2LVETRTGYX8A4BJ3W", "dateTime": 1519173411325}, {"current_trial": 174, "trialdata": {"rt": -1, "trial_type": "single-stim", "stimulus": "<p id=\"stim\">10</p>", "internal_node_id": "0.0-129.0-0.0", "time_elapsed": 917266, "key_press": -1, "trial_index": 174}, "uniqueid": "MTK2649:3KOPY89HM997Z2LVETRTGYX8A4BJ3W", "dateTime": 1519173414331}, {"current_trial": 175, "trialdata": {"rt": -1, "trial_type": "single-stim", "stimulus": "<p id=\"stim\">9</p>", "internal_node_id": "0.0-129.0-1.0", "time_elapsed": 918271, "key_press": -1, "trial_index": 175}, "uniqueid": "MTK2649:3KOPY89HM997Z2LVETRTGYX8A4BJ3W", "dateTime": 1519173415336}, {"current_trial": 176, "trialdata": {"rt": -1, "trial_type": "single-stim", "stimulus": "<p id=\"stim\">8</p>", "internal_node_id": "0.0-129.0-2.0", "time_elapsed": 919275, "key_press": -1, "trial_index": 176}, "uniqueid": "MTK2649:3KOPY89HM997Z2LVETRTGYX8A4BJ3W", "dateTime": 1519173416340}, {"current_trial": 177, "trialdata": {"rt": -1, "trial_type": "single-stim", "stimulus": "<p id=\"stim\">7</p>", "internal_node_id": "0.0-129.0-3.0", "time_elapsed": 920279, "key_press": -1, "trial_index": 177}, "uniqueid": "MTK2649:3KOPY89HM997Z2LVETRTGYX8A4BJ3W", "dateTime": 1519173417345}, {"current_trial": 178, "trialdata": {"rt": -1, "trial_type": "single-stim", "stimulus": "<p id=\"stim\">6</p>", "internal_node_id": "0.0-129.0-4.0", "time_elapsed": 921283, "key_press": -1, "trial_index": 178}, "uniqueid": "MTK2649:3KOPY89HM997Z2LVETRTGYX8A4BJ3W", "dateTime": 1519173418348}, {"current_trial": 179, "trialdata": {"rt": -1, "trial_type": "single-stim", "stimulus": "<p id=\"stim\">5</p>", "internal_node_id": "0.0-129.0-5.0", "time_elapsed": 922286, "key_press": -1, "trial_index": 179}, "uniqueid": "MTK2649:3KOPY89HM997Z2LVETRTGYX8A4BJ3W", "dateTime": 1519173419351}, {"current_trial": 180, "trialdata": {"rt": -1, "trial_type": "single-stim", "stimulus": "<p id=\"stim\">4</p>", "internal_node_id": "0.0-129.0-6.0", "time_elapsed": 923291, "key_press": -1, "trial_index": 180}, "uniqueid": "MTK2649:3KOPY89HM997Z2LVETRTGYX8A4BJ3W", "dateTime": 1519173420356}, {"current_trial": 181, "trialdata": {"rt": -1, "trial_type": "single-stim", "stimulus": "<p id=\"stim\">3</p>", "internal_node_id": "0.0-129.0-7.0", "time_elapsed": 924295, "key_press": -1, "trial_index": 181}, "uniqueid": "MTK2649:3KOPY89HM997Z2LVETRTGYX8A4BJ3W", "dateTime": 1519173421360}, {"current_trial": 182, "trialdata": {"rt": -1, "trial_type": "single-stim", "stimulus": "<p id=\"stim\">2</p>", "internal_node_id": "0.0-129.0-8.0", "time_elapsed": 925300, "key_press": -1, "trial_index": 182}, "uniqueid": "MTK2649:3KOPY89HM997Z2LVETRTGYX8A4BJ3W", "dateTime": 1519173422365}, {"current_trial": 183, "trialdata": {"rt": -1, "trial_type": "single-stim", "stimulus": "<p id=\"stim\">1</p>", "internal_node_id": "0.0-129.0-9.0", "time_elapsed": 926303, "key_press": -1, "trial_index": 183}, "uniqueid": "MTK2649:3KOPY89HM997Z2LVETRTGYX8A4BJ3W", "dateTime": 1519173423369}, {"current_trial": 184, "trialdata": {"rt": -1, "trial_type": "single-stim", "stimulus": "<p id=\"stim\">+</p>", "internal_node_id": "0.0-130.0-0.0", "time_elapsed": 927807, "key_press": -1, "type": "FIXATION", "trial_index": 184}, "uniqueid": "MTK2649:3KOPY89HM997Z2LVETRTGYX8A4BJ3W", "dateTime": 1519173424872}, {"current_trial": 185, "trialdata": {"rt": -1000, "trial_type": "single-audio", "word": "flag", "stimulus": "/static/audio/wordpool/FLAG.wav", "conditions": [24, 1600, "a", 24000], "internal_node_id": "0.0-131.0", "trial": 5, "time_elapsed": 930264, "serialpos": 0, "key_press": -1, "wordID": 572, "type": "PRES_AUD", "trial_index": 185}, "uniqueid": "MTK2649:3KOPY89HM997Z2LVETRTGYX8A4BJ3W", "dateTime": 1519173427329}, {"current_trial": 186, "trialdata": {"rt": -1000, "trial_type": "single-audio", "word": "bacon", "stimulus": "/static/audio/wordpool/BACON.wav", "conditions": [24, 1600, "a", 24000], "internal_node_id": "0.0-132.0", "trial": 5, "time_elapsed": 933020, "serialpos": 1, "key_press": -1, "wordID": 66, "type": "PRES_AUD", "trial_index": 186}, "uniqueid": "MTK2649:3KOPY89HM997Z2LVETRTGYX8A4BJ3W", "dateTime": 1519173430086}, {"current_trial": 187, "trialdata": {"rt": -1000, "trial_type": "single-audio", "word": "typist", "stimulus": "/static/audio/wordpool/TYPIST.wav", "conditions": [24, 1600, "a", 24000], "internal_node_id": "0.0-133.0", "trial": 5, "time_elapsed": 935793, "serialpos": 2, "key_press": -1, "wordID": 1531, "type": "PRES_AUD", "trial_index": 187}, "uniqueid": "MTK2649:3KOPY89HM997Z2LVETRTGYX8A4BJ3W", "dateTime": 1519173432858}, {"current_trial": 188, "trialdata": {"rt": -1000, "trial_type": "single-audio", "word": "luggage", "stimulus": "/static/audio/wordpool/LUGGAGE.wav", "conditions": [24, 1600, "a", 24000], "internal_node_id": "0.0-134.0", "trial": 5, "time_elapsed": 938585, "serialpos": 3, "key_press": -1, "wordID": 846, "type": "PRES_AUD", "trial_index": 188}, "uniqueid": "MTK2649:3KOPY89HM997Z2LVETRTGYX8A4BJ3W", "dateTime": 1519173435650}, {"current_trial": 189, "trialdata": {"rt": -1000, "trial_type": "single-audio", "word": "candy", "stimulus": "/static/audio/wordpool/CANDY.wav", "conditions": [24, 1600, "a", 24000], "internal_node_id": "0.0-135.0", "trial": 5, "time_elapsed": 941119, "serialpos": 4, "key_press": -1, "wordID": 229, "type": "PRES_AUD", "trial_index": 189}, "uniqueid": "MTK2649:3KOPY89HM997Z2LVETRTGYX8A4BJ3W", "dateTime": 1519173438184}, {"current_trial": 190, "trialdata": {"rt": -1000, "trial_type": "single-audio", "word": "piston", "stimulus": "/static/audio/wordpool/PISTON.wav", "conditions": [24, 1600, "a", 24000], "internal_node_id": "0.0-136.0", "trial": 5, "time_elapsed": 943684, "serialpos": 5, "key_press": -1, "wordID": 1075, "type": "PRES_AUD", "trial_index": 190}, "uniqueid": "MTK2649:3KOPY89HM997Z2LVETRTGYX8A4BJ3W", "dateTime": 1519173440749}, {"current_trial": 191, "trialdata": {"rt": -1000, "trial_type": "single-audio", "word": "valve", "stimulus": "/static/audio/wordpool/VALVE.wav", "conditions": [24, 1600, "a", 24000], "internal_node_id": "0.0-137.0", "trial": 5, "time_elapsed": 946305, "serialpos": 6, "key_press": -1, "wordID": 1545, "type": "PRES_AUD", "trial_index": 191}, "uniqueid": "MTK2649:3KOPY89HM997Z2LVETRTGYX8A4BJ3W", "dateTime": 1519173443370}, {"current_trial": 192, "trialdata": {"rt": -1000, "trial_type": "single-audio", "word": "suitcase", "stimulus": "/static/audio/wordpool/SUITCASE.wav", "conditions": [24, 1600, "a", 24000], "internal_node_id": "0.0-138.0", "trial": 5, "time_elapsed": 949002, "serialpos": 7, "key_press": -1, "wordID": 1402, "type": "PRES_AUD", "trial_index": 192}, "uniqueid": "MTK2649:3KOPY89HM997Z2LVETRTGYX8A4BJ3W", "dateTime": 1519173446067}, {"current_trial": 193, "trialdata": {"rt": -1000, "trial_type": "single-audio", "word": "flower", "stimulus": "/static/audio/wordpool/FLOWER.wav", "conditions": [24, 1600, "a", 24000], "internal_node_id": "0.0-139.0", "trial": 5, "time_elapsed": 951486, "serialpos": 8, "key_press": -1, "wordID": 583, "type": "PRES_AUD", "trial_index": 193}, "uniqueid": "MTK2649:3KOPY89HM997Z2LVETRTGYX8A4BJ3W", "dateTime": 1519173448551}, {"current_trial": 194, "trialdata": {"rt": -1000, "trial_type": "single-audio", "word": "blade", "stimulus": "/static/audio/wordpool/BLADE.wav", "conditions": [24, 1600, "a", 24000], "internal_node_id": "0.0-140.0", "trial": 5, "time_elapsed": 954104, "serialpos": 9, "key_press": -1, "wordID": 133, "type": "PRES_AUD", "trial_index": 194}, "uniqueid": "MTK2649:3KOPY89HM997Z2LVETRTGYX8A4BJ3W", "dateTime": 1519173451169}, {"current_trial": 195, "trialdata": {"rt": -1000, "trial_type": "single-audio", "word": "spool", "stimulus": "/static/audio/wordpool/SPOOL.wav", "conditions": [24, 1600, "a", 24000], "internal_node_id": "0.0-141.0", "trial": 5, "time_elapsed": 956850, "serialpos": 10, "key_press": -1, "wordID": 1355, "type": "PRES_AUD", "trial_index": 195}, "uniqueid": "MTK2649:3KOPY89HM997Z2LVETRTGYX8A4BJ3W", "dateTime": 1519173453915}, {"current_trial": 196, "trialdata": {"rt": -1000, "trial_type": "single-audio", "word": "eyelash", "stimulus": "/static/audio/wordpool/EYELASH.wav", "conditions": [24, 1600, "a", 24000], "internal_node_id": "0.0-142.0", "trial": 5, "time_elapsed": 959404, "serialpos": 11, "key_press": -1, "wordID": 545, "type": "PRES_AUD", "trial_index": 196}, "uniqueid": "MTK2649:3KOPY89HM997Z2LVETRTGYX8A4BJ3W", "dateTime": 1519173456469}, {"current_trial": 197, "trialdata": {"rt": -1000, "trial_type": "single-audio", "word": "leader", "stimulus": "/static/audio/wordpool/LEADER.wav", "conditions": [24, 1600, "a", 24000], "internal_node_id": "0.0-143.0", "trial": 5, "time_elapsed": 962127, "serialpos": 12, "key_press": -1, "wordID": 806, "type": "PRES_AUD", "trial_index": 197}, "uniqueid": "MTK2649:3KOPY89HM997Z2LVETRTGYX8A4BJ3W", "dateTime": 1519173459192}, {"current_trial": 198, "trialdata": {"rt": -1000, "trial_type": "single-audio", "word": "lady", "stimulus": "/static/audio/wordpool/LADY.wav", "conditions": [24, 1600, "a", 24000], "internal_node_id": "0.0-144.0", "trial": 5, "time_elapsed": 964704, "serialpos": 13, "key_press": -1, "wordID": 793, "type": "PRES_AUD", "trial_index": 198}, "uniqueid": "MTK2649:3KOPY89HM997Z2LVETRTGYX8A4BJ3W", "dateTime": 1519173461769}, {"current_trial": 199, "trialdata": {"rt": -1000, "trial_type": "single-audio", "word": "hook", "stimulus": "/static/audio/wordpool/HOOK.wav", "conditions": [24, 1600, "a", 24000], "internal_node_id": "0.0-145.0", "trial": 5, "time_elapsed": 967506, "serialpos": 14, "key_press": -1, "wordID": 714, "type": "PRES_AUD", "trial_index": 199}, "uniqueid": "MTK2649:3KOPY89HM997Z2LVETRTGYX8A4BJ3W", "dateTime": 1519173464571}, {"current_trial": 200, "trialdata": {"rt": -1000, "trial_type": "single-audio", "word": "frame", "stimulus": "/static/audio/wordpool/FRAME.wav", "conditions": [24, 1600, "a", 24000], "internal_node_id": "0.0-146.0", "trial": 5, "time_elapsed": 970045, "serialpos": 15, "key_press": -1, "wordID": 599, "type": "PRES_AUD", "trial_index": 200}, "uniqueid": "MTK2649:3KOPY89HM997Z2LVETRTGYX8A4BJ3W", "dateTime": 1519173467110}, {"current_trial": 201, "trialdata": {"rt": -1000, "trial_type": "single-audio", "word": "garlic", "stimulus": "/static/audio/wordpool/GARLIC.wav", "conditions": [24, 1600, "a", 24000], "internal_node_id": "0.0-147.0", "trial": 5, "time_elapsed": 972679, "serialpos": 16, "key_press": -1, "wordID": 623, "type": "PRES_AUD", "trial_index": 201}, "uniqueid": "MTK2649:3KOPY89HM997Z2LVETRTGYX8A4BJ3W", "dateTime": 1519173469745}, {"current_trial": 202, "trialdata": {"rt": -1000, "trial_type": "single-audio", "word": "wasp", "stimulus": "/static/audio/wordpool/WASP.wav", "conditions": [24, 1600, "a", 24000], "internal_node_id": "0.0-148.0", "trial": 5, "time_elapsed": 975304, "serialpos": 17, "key_press": -1, "wordID": 1592, "type": "PRES_AUD", "trial_index": 202}, "uniqueid": "MTK2649:3KOPY89HM997Z2LVETRTGYX8A4BJ3W", "dateTime": 1519173472369}, {"current_trial": 203, "trialdata": {"rt": -1000, "trial_type": "single-audio", "word": "sponge", "stimulus": "/static/audio/wordpool/SPONGE.wav", "conditions": [24, 1600, "a", 24000], "internal_node_id": "0.0-149.0", "trial": 5, "time_elapsed": 977835, "serialpos": 18, "key_press": -1, "wordID": 1354, "type": "PRES_AUD", "trial_index": 203}, "uniqueid": "MTK2649:3KOPY89HM997Z2LVETRTGYX8A4BJ3W", "dateTime": 1519173474900}, {"current_trial": 204, "trialdata": {"rt": -1000, "trial_type": "single-audio", "word": "fruit", "stimulus": "/static/audio/wordpool/FRUIT.wav", "conditions": [24, 1600, "a", 24000], "internal_node_id": "0.0-150.0", "trial": 5, "time_elapsed": 980459, "serialpos": 19, "key_press": -1, "wordID": 609, "type": "PRES_AUD", "trial_index": 204}, "uniqueid": "MTK2649:3KOPY89HM997Z2LVETRTGYX8A4BJ3W", "dateTime": 1519173477524}, {"current_trial": 205, "trialdata": {"rt": -1000, "trial_type": "single-audio", "word": "citrus", "stimulus": "/static/audio/wordpool/CITRUS.wav", "conditions": [24, 1600, "a", 24000], "internal_node_id": "0.0-151.0", "trial": 5, "time_elapsed": 983261, "serialpos": 20, "key_press": -1, "wordID": 312, "type": "PRES_AUD", "trial_index": 205}, "uniqueid": "MTK2649:3KOPY89HM997Z2LVETRTGYX8A4BJ3W", "dateTime": 1519173480326}, {"current_trial": 206, "trialdata": {"rt": -1000, "trial_type": "single-audio", "word": "clock", "stimulus": "/static/audio/wordpool/CLOCK.wav", "conditions": [24, 1600, "a", 24000], "internal_node_id": "0.0-152.0", "trial": 5, "time_elapsed": 985927, "serialpos": 21, "key_press": -1, "wordID": 324, "type": "PRES_AUD", "trial_index": 206}, "uniqueid": "MTK2649:3KOPY89HM997Z2LVETRTGYX8A4BJ3W", "dateTime": 1519173482992}, {"current_trial": 207, "trialdata": {"rt": -1000, "trial_type": "single-audio", "word": "velvet", "stimulus": "/static/audio/wordpool/VELVET.wav", "conditions": [24, 1600, "a", 24000], "internal_node_id": "0.0-153.0", "trial": 5, "time_elapsed": 988441, "serialpos": 22, "key_press": -1, "wordID": 1554, "type": "PRES_AUD", "trial_index": 207}, "uniqueid": "MTK2649:3KOPY89HM997Z2LVETRTGYX8A4BJ3W", "dateTime": 1519173485506}, {"current_trial": 208, "trialdata": {"rt": -1000, "trial_type": "single-audio", "word": "pepper", "stimulus": "/static/audio/wordpool/PEPPER.wav", "conditions": [24, 1600, "a", 24000], "internal_node_id": "0.0-154.0", "trial": 5, "time_elapsed": 990936, "serialpos": 23, "key_press": -1, "wordID": 1046, "type": "PRES_AUD", "trial_index": 208}, "uniqueid": "MTK2649:3KOPY89HM997Z2LVETRTGYX8A4BJ3W", "dateTime": 1519173488001}, {"current_trial": 209, "trialdata": {"rt": -1, "trial_type": "single-stim", "stimulus": "", "internal_node_id": "0.0-155.0-0.0", "time_elapsed": 992145, "key_press": -1, "type": "PRE_RECALL_DELAY", "trial_index": 209}, "uniqueid": "MTK2649:3KOPY89HM997Z2LVETRTGYX8A4BJ3W", "dateTime": 1519173489210}, {"current_trial": 210, "trialdata": {"rt": -1000, "trial_type": "single-audio", "stimulus": "/static/audio/400Hz.wav", "internal_node_id": "0.0-156.0", "time_elapsed": 992645, "key_press": -1, "type": "PRE_RECALL_ALERT", "trial_index": 210}, "uniqueid": "MTK2649:3KOPY89HM997Z2LVETRTGYX8A4BJ3W", "dateTime": 1519173489710}, {"current_trial": 211, "trialdata": {"rt": [2090, 3699, 5926, 9717, 12203, 13610, 14994, 20124, 21687, 25052, 26391, 29968, 33365, 36267, 38473, 41004, 42163, 44109, 46674, 50893, 53953, 57340, 59252], "recwords": ["flag", "bacon", "typist", "luggage", "candy", "valve", "piston", "suitcase", "flower", "blade", "spool", "english", "lady", "hook", "frame", "garlic", "wasp", "sponge", "fruits", "citrus", "clock", "velvet", "paper"], "key_times": [1506, 1652, 1763, 1989, 2090, 2248, 2371, 2596, 2664, 2889, 3699, 4677, 4970, 5184, 5353, 5566, 5825, 5926, 8277, 8514, 8863, 9008, 9189, 9380, 9526, 9717, 11248, 11372, 11540, 11720, 11956, 12203, 12564, 12710, 12902, 13182, 13273, 13610, 13835, 14026, 14251, 14498, 14611, 14781, 14994, 17334, 17514, 17626, 17795, 18065, 18346, 18808, 18954, 19539, 19685, 19854, 20034, 20124, 20675, 20810, 20979, 21091, 21305, 21485, 21687, 24107, 24253, 24399, 24568, 24872, 25052, 25479, 25659, 25851, 25985, 26187, 26391, 28438, 28741, 29023, 29213, 29371, 29506, 29608, 29968, 32476, 32578, 32882, 33084, 33365, 35661, 35796, 35908, 36065, 36267, 37742, 37911, 38079, 38203, 38360, 38473, 40127, 40217, 40397, 40521, 40677, 40869, 41004, 41241, 41421, 41522, 41668, 42163, 42962, 43153, 43265, 43557, 43839, 43997, 44109, 45380, 45763, 46021, 46101, 46337, 46528, 46674, 48586, 48856, 49216, 49790, 49970, 50364, 50589, 50702, 50893, 52310, 53042, 53233, 53537, 53694, 53953, 55989, 56080, 56337, 56698, 56833, 57148, 57340, 58588, 58735, 58869, 59061, 59151, 59252], "trial_type": "free-recall", "conditions": [24, 1600, "a", 24000], "internal_node_id": "0.0-157.0-0.0", "key_presses": [70, 76, 65, 71, 32, 66, 65, 67, 79, 78, 13, 84, 89, 80, 73, 83, 84, 13, 76, 85, 71, 71, 65, 71, 69, 13, 67, 65, 78, 68, 89, 13, 86, 65, 76, 86, 69, 13, 80, 73, 83, 84, 79, 78, 13, 83, 85, 73, 84, 65, 67, 8, 8, 67, 65, 83, 69, 13, 70, 76, 79, 87, 69, 82, 13, 66, 76, 65, 68, 69, 13, 83, 80, 79, 79, 76, 13, 69, 78, 71, 76, 73, 83, 72, 13, 76, 65, 68, 89, 13, 72, 79, 79, 75, 13, 70, 82, 65, 77, 69, 13, 71, 65, 82, 76, 73, 67, 13, 87, 65, 83, 80, 13, 83, 80, 79, 78, 71, 69, 13, 70, 82, 85, 73, 84, 83, 13, 67, 73, 84, 82, 73, 8, 85, 83, 13, 67, 76, 79, 67, 75, 13, 86, 69, 76, 86, 69, 84, 13, 80, 65, 80, 69, 82, 13], "trial": 5, "time_elapsed": 1052651, "type": "FREE_RECALL", "trial_index": 211}, "uniqueid": "MTK2649:3KOPY89HM997Z2LVETRTGYX8A4BJ3W", "dateTime": 1519173549718}, {"current_trial": 212, "trialdata": {"rt": 3934, "trial_type": "text", "internal_node_id": "0.0-158.0", "time_elapsed": 1058592, "key_press": 73, "type": "INSTRUCTIONS", "trial_index": 212}, "uniqueid": "MTK2649:3KOPY89HM997Z2LVETRTGYX8A4BJ3W", "dateTime": 1519173555657}, {"current_trial": 213, "trialdata": {"rt": [2641, 4385, 6083, 7905, 10212, 11889, 13564, 16062, 17536, 19212, 20955, 22869], "trial_type": "math-distractor", "key_times": [2202, 2449, 2641, 4013, 4194, 4385, 5678, 5802, 6083, 7445, 7636, 7905, 9234, 9683, 9818, 9897, 10212, 11281, 11618, 11889, 13205, 13407, 13564, 15927, 16062, 17131, 17333, 17536, 18841, 19055, 19212, 20438, 20697, 20955, 21935, 22588, 22869], "responses": ["14", "11", "17", "17", "21", "17", "11", "5", "11", "12", "20", "17"], "num2": [6, 2, 4, 2, 8, 4, 5, 1, 1, 4, 2, 3, 4], "num3": [7, 3, 8, 8, 8, 6, 3, 2, 9, 5, 9, 7, 2], "conditions": [12, 1600, "a", 24000], "internal_node_id": "0.0-159.0", "key_presses": [49, 52, 13, 49, 49, 13, 49, 55, 13, 49, 55, 13, 49, 8, 50, 49, 13, 49, 55, 13, 49, 49, 13, 53, 13, 49, 49, 13, 49, 50, 13, 50, 48, 13, 49, 55, 13], "trial": 6, "time_elapsed": 1084602, "type": "DISTRACTOR", "trial_index": 213, "num1": [1, 6, 8, 7, 5, 7, 3, 2, 1, 3, 9, 7, 3]}, "uniqueid": "MTK2649:3KOPY89HM997Z2LVETRTGYX8A4BJ3W", "dateTime": 1519173581667}, {"current_trial": 214, "trialdata": {"rt": -1, "trial_type": "single-stim", "stimulus": "<p id=\"stim\">10</p>", "internal_node_id": "0.0-160.0-0.0", "time_elapsed": 1087607, "key_press": -1, "trial_index": 214}, "uniqueid": "MTK2649:3KOPY89HM997Z2LVETRTGYX8A4BJ3W", "dateTime": 1519173584673}, {"current_trial": 215, "trialdata": {"rt": -1, "trial_type": "single-stim", "stimulus": "<p id=\"stim\">9</p>", "internal_node_id": "0.0-160.0-1.0", "time_elapsed": 1088612, "key_press": -1, "trial_index": 215}, "uniqueid": "MTK2649:3KOPY89HM997Z2LVETRTGYX8A4BJ3W", "dateTime": 1519173585677}, {"current_trial": 216, "trialdata": {"rt": -1, "trial_type": "single-stim", "stimulus": "<p id=\"stim\">8</p>", "internal_node_id": "0.0-160.0-2.0", "time_elapsed": 1089615, "key_press": -1, "trial_index": 216}, "uniqueid": "MTK2649:3KOPY89HM997Z2LVETRTGYX8A4BJ3W", "dateTime": 1519173586680}, {"current_trial": 217, "trialdata": {"rt": -1, "trial_type": "single-stim", "stimulus": "<p id=\"stim\">7</p>", "internal_node_id": "0.0-160.0-3.0", "time_elapsed": 1090620, "key_press": -1, "trial_index": 217}, "uniqueid": "MTK2649:3KOPY89HM997Z2LVETRTGYX8A4BJ3W", "dateTime": 1519173587685}, {"current_trial": 218, "trialdata": {"rt": -1, "trial_type": "single-stim", "stimulus": "<p id=\"stim\">6</p>", "internal_node_id": "0.0-160.0-4.0", "time_elapsed": 1091624, "key_press": -1, "trial_index": 218}, "uniqueid": "MTK2649:3KOPY89HM997Z2LVETRTGYX8A4BJ3W", "dateTime": 1519173588689}, {"current_trial": 219, "trialdata": {"rt": -1, "trial_type": "single-stim", "stimulus": "<p id=\"stim\">5</p>", "internal_node_id": "0.0-160.0-5.0", "time_elapsed": 1092627, "key_press": -1, "trial_index": 219}, "uniqueid": "MTK2649:3KOPY89HM997Z2LVETRTGYX8A4BJ3W", "dateTime": 1519173589692}, {"current_trial": 220, "trialdata": {"rt": -1, "trial_type": "single-stim", "stimulus": "<p id=\"stim\">4</p>", "internal_node_id": "0.0-160.0-6.0", "time_elapsed": 1093632, "key_press": -1, "trial_index": 220}, "uniqueid": "MTK2649:3KOPY89HM997Z2LVETRTGYX8A4BJ3W", "dateTime": 1519173590697}, {"current_trial": 221, "trialdata": {"rt": -1, "trial_type": "single-stim", "stimulus": "<p id=\"stim\">3</p>", "internal_node_id": "0.0-160.0-7.0", "time_elapsed": 1094636, "key_press": -1, "trial_index": 221}, "uniqueid": "MTK2649:3KOPY89HM997Z2LVETRTGYX8A4BJ3W", "dateTime": 1519173591701}, {"current_trial": 222, "trialdata": {"rt": -1, "trial_type": "single-stim", "stimulus": "<p id=\"stim\">2</p>", "internal_node_id": "0.0-160.0-8.0", "time_elapsed": 1095640, "key_press": -1, "trial_index": 222}, "uniqueid": "MTK2649:3KOPY89HM997Z2LVETRTGYX8A4BJ3W", "dateTime": 1519173592705}, {"current_trial": 223, "trialdata": {"rt": -1, "trial_type": "single-stim", "stimulus": "<p id=\"stim\">1</p>", "internal_node_id": "0.0-160.0-9.0", "time_elapsed": 1096644, "key_press": -1, "trial_index": 223}, "uniqueid": "MTK2649:3KOPY89HM997Z2LVETRTGYX8A4BJ3W", "dateTime": 1519173593709}, {"current_trial": 224, "trialdata": {"rt": -1, "trial_type": "single-stim", "stimulus": "<p id=\"stim\">+</p>", "internal_node_id": "0.0-161.0-0.0", "time_elapsed": 1098148, "key_press": -1, "type": "FIXATION", "trial_index": 224}, "uniqueid": "MTK2649:3KOPY89HM997Z2LVETRTGYX8A4BJ3W", "dateTime": 1519173595213}, {"current_trial": 225, "trialdata": {"rt": -1000, "trial_type": "single-audio", "word": "helmet", "stimulus": "/static/audio/wordpool/HELMET.wav", "conditions": [12, 1600, "a", 24000], "internal_node_id": "0.0-162.0", "trial": 6, "time_elapsed": 1100834, "serialpos": 0, "key_press": -1, "wordID": 701, "type": "PRES_AUD", "trial_index": 225}, "uniqueid": "MTK2649:3KOPY89HM997Z2LVETRTGYX8A4BJ3W", "dateTime": 1519173597899}, {"current_trial": 226, "trialdata": {"rt": -1000, "trial_type": "single-audio", "word": "drug", "stimulus": "/static/audio/wordpool/DRUG.wav", "conditions": [12, 1600, "a", 24000], "internal_node_id": "0.0-163.0", "trial": 6, "time_elapsed": 1103372, "serialpos": 1, "key_press": -1, "wordID": 500, "type": "PRES_AUD", "trial_index": 226}, "uniqueid": "MTK2649:3KOPY89HM997Z2LVETRTGYX8A4BJ3W", "dateTime": 1519173600437}, {"current_trial": 227, "trialdata": {"rt": -1000, "trial_type": "single-audio", "word": "muffin", "stimulus": "/static/audio/wordpool/MUFFIN.wav", "conditions": [12, 1600, "a", 24000], "internal_node_id": "0.0-164.0", "trial": 6, "time_elapsed": 1106078, "serialpos": 2, "key_press": -1, "wordID": 928, "type": "PRES_AUD", "trial_index": 227}, "uniqueid": "MTK2649:3KOPY89HM997Z2LVETRTGYX8A4BJ3W", "dateTime": 1519173603143}, {"current_trial": 228, "trialdata": {"rt": -1000, "trial_type": "single-audio", "word": "patrol", "stimulus": "/static/audio/wordpool/PATROL.wav", "conditions": [12, 1600, "a", 24000], "internal_node_id": "0.0-165.0", "trial": 6, "time_elapsed": 1108644, "serialpos": 3, "key_press": -1, "wordID": 1026, "type": "PRES_AUD", "trial_index": 228}, "uniqueid": "MTK2649:3KOPY89HM997Z2LVETRTGYX8A4BJ3W", "dateTime": 1519173605709}, {"current_trial": 229, "trialdata": {"rt": -1000, "trial_type": "single-audio", "word": "arm", "stimulus": "/static/audio/wordpool/ARM.wav", "conditions": [12, 1600, "a", 24000], "internal_node_id": "0.0-166.0", "trial": 6, "time_elapsed": 1111209, "serialpos": 4, "key_press": -1, "wordID": 37, "type": "PRES_AUD", "trial_index": 229}, "uniqueid": "MTK2649:3KOPY89HM997Z2LVETRTGYX8A4BJ3W", "dateTime": 1519173608274}, {"current_trial": 230, "trialdata": {"rt": -1000, "trial_type": "single-audio", "word": "atom", "stimulus": "/static/audio/wordpool/ATOM.wav", "conditions": [12, 1600, "a", 24000], "internal_node_id": "0.0-167.0", "trial": 6, "time_elapsed": 1113815, "serialpos": 5, "key_press": -1, "wordID": 54, "type": "PRES_AUD", "trial_index": 230}, "uniqueid": "MTK2649:3KOPY89HM997Z2LVETRTGYX8A4BJ3W", "dateTime": 1519173610880}, {"current_trial": 231, "trialdata": {"rt": -1000, "trial_type": "single-audio", "word": "police", "stimulus": "/static/audio/wordpool/POLICE.wav", "conditions": [12, 1600, "a", 24000], "internal_node_id": "0.0-168.0", "trial": 6, "time_elapsed": 1116521, "serialpos": 6, "key_press": -1, "wordID": 1097, "type": "PRES_AUD", "trial_index": 231}, "uniqueid": "MTK2649:3KOPY89HM997Z2LVETRTGYX8A4BJ3W", "dateTime": 1519173613586}, {"current_trial": 232, "trialdata": {"rt": -1000, "trial_type": "single-audio", "word": "bug", "stimulus": "/static/audio/wordpool/BUG.wav", "conditions": [12, 1600, "a", 24000], "internal_node_id": "0.0-169.0", "trial": 6, "time_elapsed": 1119307, "serialpos": 7, "key_press": -1, "wordID": 186, "type": "PRES_AUD", "trial_index": 232}, "uniqueid": "MTK2649:3KOPY89HM997Z2LVETRTGYX8A4BJ3W", "dateTime": 1519173616372}, {"current_trial": 233, "trialdata": {"rt": -1000, "trial_type": "single-audio", "word": "virus", "stimulus": "/static/audio/wordpool/VIRUS.wav", "conditions": [12, 1600, "a", 24000], "internal_node_id": "0.0-170.0", "trial": 6, "time_elapsed": 1121954, "serialpos": 8, "key_press": -1, "wordID": 1571, "type": "PRES_AUD", "trial_index": 233}, "uniqueid": "MTK2649:3KOPY89HM997Z2LVETRTGYX8A4BJ3W", "dateTime": 1519173619019}, {"current_trial": 234, "trialdata": {"rt": -1000, "trial_type": "single-audio", "word": "lumber", "stimulus": "/static/audio/wordpool/LUMBER.wav", "conditions": [12, 1600, "a", 24000], "internal_node_id": "0.0-171.0", "trial": 6, "time_elapsed": 1124451, "serialpos": 9, "key_press": -1, "wordID": 847, "type": "PRES_AUD", "trial_index": 234}, "uniqueid": "MTK2649:3KOPY89HM997Z2LVETRTGYX8A4BJ3W", "dateTime": 1519173621516}, {"current_trial": 235, "trialdata": {"rt": -1000, "trial_type": "single-audio", "word": "casket", "stimulus": "/static/audio/wordpool/CASKET.wav", "conditions": [12, 1600, "a", 24000], "internal_node_id": "0.0-172.0", "trial": 6, "time_elapsed": 1127155, "serialpos": 10, "key_press": -1, "wordID": 254, "type": "PRES_AUD", "trial_index": 235}, "uniqueid": "MTK2649:3KOPY89HM997Z2LVETRTGYX8A4BJ3W", "dateTime": 1519173624220}, {"current_trial": 236, "trialdata": {"rt": -1000, "trial_type": "single-audio", "word": "foot", "stimulus": "/static/audio/wordpool/FOOT.wav", "conditions": [12, 1600, "a", 24000], "internal_node_id": "0.0-173.0", "trial": 6, "time_elapsed": 1129767, "serialpos": 11, "key_press": -1, "wordID": 589, "type": "PRES_AUD", "trial_index": 236}, "uniqueid": "MTK2649:3KOPY89HM997Z2LVETRTGYX8A4BJ3W", "dateTime": 1519173626833}, {"current_trial": 237, "trialdata": {"rt": -1, "trial_type": "single-stim", "stimulus": "", "internal_node_id": "0.0-174.0-0.0", "time_elapsed": 1131004, "key_press": -1, "type": "PRE_RECALL_DELAY", "trial_index": 237}, "uniqueid": "MTK2649:3KOPY89HM997Z2LVETRTGYX8A4BJ3W", "dateTime