{"assignmentId": "39GHHAVOMGYSHY4ZE7WCQ3PEN874J9", "workerId": "MTK2285", "questiondata": {"avail_screen_height": 744, "color_depth": 24, "screen_width": 1360, "pixel_depth": 24, "avail_screen_width": 1295, "screen_height": 768}, "bonus": 0, "hitId": "3D1UCPY6GGGGS1RIXNP02OSAA5438C", "counterbalance": 2187, "useragent": "Mozilla/5.0 (X11; Linux x86_64) AppleWebKit/537.36 (KHTML, like Gecko) Chrome/63.0.3239.108 Safari/537.36", "eventdata": [{"eventtype": "initialized", "interval": 0, "value": null, "timestamp": 1516917689479}, {"eventtype": "window_resize", "interval": 0, "value": [863, 477], "timestamp": 1516917689479}, {"eventtype": "window_resize", "interval": 17706, "value": [862, 458], "timestamp": 1516917707185}, {"eventtype": "focus", "interval": 1054, "value": "off", "timestamp": 1516917708239}, {"eventtype": "window_resize", "interval": 334, "value": [863, 477], "timestamp": 1516917708573}, {"eventtype": "focus", "interval": 1689, "value": "on", "timestamp": 1516917710262}, {"eventtype": "focus", "interval": 2, "value": "off", "timestamp": 1516917710264}, {"eventtype": "focus", "interval": 0, "value": "on", "timestamp": 1516917710264}, {"eventtype": "window_resize", "interval": 1148, "value": [862, 458], "timestamp": 1516917711412}, {"eventtype": "focus", "interval": 6226, "value": "off", "timestamp": 1516917717638}, {"eventtype": "window_resize", "interval": 316, "value": [863, 477], "timestamp": 1516917717954}, {"eventtype": "window_resize", "interval": 3261, "value": [862, 458], "timestamp": 1516917721215}, {"eventtype": "focus", "interval": 943, "value": "on", "timestamp": 1516917722158}, {"eventtype": "window_resize", "interval": 281, "value": [863, 477], "timestamp": 1516917722439}, {"eventtype": "window_resize", "interval": 215302, "value": [1036, 573], "timestamp": 1516917937741}, {"eventtype": "window_resize", "interval": 736, "value": [1177, 651], "timestamp": 1516917938477}, {"eventtype": "window_resize", "interval": 377, "value": [1295, 716], "timestamp": 1516917938854}, {"eventtype": "window_resize", "interval": 1859182, "value": [1293, 687], "timestamp": 1516919798036}, {"eventtype": "focus", "interval": 1434, "value": "off", "timestamp": 1516919799470}, {"eventtype": "window_resize", "interval": 230, "value": [1295, 716], "timestamp": 1516919799700}, {"eventtype": "window_resize", "interval": 6353, "value": [1293, 687], "timestamp": 1516919806053}, {"eventtype": "focus", "interval": 977, "value": "on", "timestamp": 1516919807030}, {"eventtype": "window_resize", "interval": 310, "value": [1295, 716], "timestamp": 1516919807340}, {"eventtype": "window_resize", "interval": 11846, "value": [1293, 687], "timestamp": 1516919819186}, {"eventtype": "window_resize", "interval": 746, "value": [1295, 716], "timestamp": 1516919819932}, {"eventtype": "window_resize", "interval": 749869, "value": [1293, 687], "timestamp": 1516920569801}, {"eventtype": "window_resize", "interval": 1885, "value": [1295, 716], "timestamp": 1516920571686}], "data": [{"current_trial": 0, "trialdata": {"rt": 1648, "trial_type": "text", "internal_node_id": "0.0-0.0", "time_elapsed": 1651, "key_press": 32, "type": "INSTRUCTIONS", "trial_index": 0}, "uniqueid": "MTK2285:39GHHAVOMGYSHY4ZE7WCQ3PEN874J9", "dateTime": 1516917691972}, {"current_trial": 1, "trialdata": {"rt": 6703, "trial_type": "text", "internal_node_id": "0.0-1.0", "time_elapsed": 8355, "key_press": 32, "type": "INSTRUCTIONS", "trial_index": 1}, "uniqueid": "MTK2285:39GHHAVOMGYSHY4ZE7WCQ3PEN874J9", "dateTime": 1516917698677}, {"current_trial": 2, "trialdata": {"rt": [31522], "trial_type": "audio-test", "responses": ["ocean"], "internal_node_id": "0.0-2.0", "time_elapsed": 39918, "type": "AUDIO_TEST", "trial_index": 2}, "uniqueid": "MTK2285:39GHHAVOMGYSHY4ZE7WCQ3PEN874J9", "dateTime": 1516917730239}, {"current_trial": 3, "trialdata": {"rt": [7954], "trial_type": "audio-test", "responses": ["crystal"], "internal_node_id": "0.0-3.0", "time_elapsed": 47878, "type": "AUDIO_TEST", "trial_index": 3}, "uniqueid": "MTK2285:39GHHAVOMGYSHY4ZE7WCQ3PEN874J9", "dateTime": 1516917738199}, {"current_trial": 4, "trialdata": {"rt": [5103], "trial_type": "audio-test", "responses": ["spice"], "internal_node_id": "0.0-4.0", "time_elapsed": 52987, "type": "AUDIO_TEST", "trial_index": 4}, "uniqueid": "MTK2285:39GHHAVOMGYSHY4ZE7WCQ3PEN874J9", "dateTime": 1516917743308}, {"current_trial": 5, "trialdata": {"rt": 135739, "trial_type": "survey-text", "responses": "{\"Q0\":\"2am\",\"Q1\":\"8am\",\"Q2\":\"5\"}", "internal_node_id": "0.0-5.0", "time_elapsed": 189479, "type": "SLEEP_SURVEY", "trial_index": 5}, "uniqueid": "MTK2285:39GHHAVOMGYSHY4ZE7WCQ3PEN874J9", "dateTime": 1516917879800}, {"current_trial": 6, "trialdata": {"rt": 24644, "trial_type": "text", "internal_node_id": "0.0-6.0", "time_elapsed": 215123, "key_press": 32, "type": "INSTRUCTIONS", "trial_index": 6}, "uniqueid": "MTK2285:39GHHAVOMGYSHY4ZE7WCQ3PEN874J9", "dateTime": 1516917905445}, {"current_trial": 7, "trialdata": {"rt": 2952, "trial_type": "text", "internal_node_id": "0.0-7.0", "time_elapsed": 218577, "key_press": 17, "type": "INSTRUCTIONS", "trial_index": 7}, "uniqueid": "MTK2285:39GHHAVOMGYSHY4ZE7WCQ3PEN874J9", "dateTime": 1516917908898}, {"current_trial": 8, "trialdata": {"rt": 2991, "trial_type": "text", "internal_node_id": "0.0-8.0", "time_elapsed": 222069, "key_press": 32, "type": "INSTRUCTIONS", "trial_index": 8}, "uniqueid": "MTK2285:39GHHAVOMGYSHY4ZE7WCQ3PEN874J9", "dateTime": 1516917912391}, {"current_trial": 9, "trialdata": {"rt": [3631, 6173, 8403, 11939, 14720], "trial_type": "math-distractor", "key_times": [3079, 3306, 3631, 5406, 5726, 6173, 7860, 8157, 8403, 11220, 11401, 11939, 14053, 14372, 14720], "responses": ["16", "15", "14", "11", "18"], "num2": [7, 9, 1, 5, 6, 7], "num3": [2, 5, 6, 4, 5, 9], "conditions": [18, 1200, "v", 18000], "internal_node_id": "0.0-9.0", "key_presses": [49, 54, 13, 49, 53, 13, 49, 52, 13, 49, 49, 13, 49, 56, 13], "trial": 0, "time_elapsed": 241082, "type": "DISTRACTOR", "trial_index": 9, "num1": [7, 1, 7, 2, 7, 9]}, "uniqueid": "MTK2285:39GHHAVOMGYSHY4ZE7WCQ3PEN874J9", "dateTime": 1516917931403}, {"current_trial": 10, "trialdata": {"rt": -1, "trial_type": "single-stim", "stimulus": "<p id=\"stim\">10</p>", "internal_node_id": "0.0-10.0-0.0", "time_elapsed": 244084, "key_press": -1, "trial_index": 10}, "uniqueid": "MTK2285:39GHHAVOMGYSHY4ZE7WCQ3PEN874J9", "dateTime": 1516917934405}, {"current_trial": 11, "trialdata": {"rt": -1, "trial_type": "single-stim", "stimulus": "<p id=\"stim\">9</p>", "internal_node_id": "0.0-10.0-1.0", "time_elapsed": 245085, "key_press": -1, "trial_index": 11}, "uniqueid": "MTK2285:39GHHAVOMGYSHY4ZE7WCQ3PEN874J9", "dateTime": 1516917935406}, {"current_trial": 12, "trialdata": {"rt": -1, "trial_type": "single-stim", "stimulus": "<p id=\"stim\">8</p>", "internal_node_id": "0.0-10.0-2.0", "time_elapsed": 246107, "key_press": -1, "trial_index": 12}, "uniqueid": "MTK2285:39GHHAVOMGYSHY4ZE7WCQ3PEN874J9", "dateTime": 1516917936428}, {"current_trial": 13, "trialdata": {"rt": 995, "trial_type": "single-stim", "stimulus": "<p id=\"stim\">7</p>", "internal_node_id": "0.0-10.0-3.0", "time_elapsed": 247108, "key_press": 17, "trial_index": 13}, "uniqueid": "MTK2285:39GHHAVOMGYSHY4ZE7WCQ3PEN874J9", "dateTime": 1516917937429}, {"current_trial": 14, "trialdata": {"rt": 99, "trial_type": "single-stim", "stimulus": "<p id=\"stim\">6</p>", "internal_node_id": "0.0-10.0-4.0", "time_elapsed": 248109, "key_press": 189, "trial_index": 14}, "uniqueid": "MTK2285:39GHHAVOMGYSHY4ZE7WCQ3PEN874J9", "dateTime": 1516917938430}, {"current_trial": 15, "trialdata": {"rt": 197, "trial_type": "single-stim", "stimulus": "<p id=\"stim\">5</p>", "internal_node_id": "0.0-10.0-5.0", "time_elapsed": 249110, "key_press": 189, "trial_index": 15}, "uniqueid": "MTK2285:39GHHAVOMGYSHY4ZE7WCQ3PEN874J9", "dateTime": 1516917939431}, {"current_trial": 16, "trialdata": {"rt": -1, "trial_type": "single-stim", "stimulus": "<p id=\"stim\">4</p>", "internal_node_id": "0.0-10.0-6.0", "time_elapsed": 250110, "key_press": -1, "trial_index": 16}, "uniqueid": "MTK2285:39GHHAVOMGYSHY4ZE7WCQ3PEN874J9", "dateTime": 1516917940432}, {"current_trial": 17, "trialdata": {"rt": -1, "trial_type": "single-stim", "stimulus": "<p id=\"stim\">3</p>", "internal_node_id": "0.0-10.0-7.0", "time_elapsed": 251111, "key_press": -1, "trial_index": 17}, "uniqueid": "MTK2285:39GHHAVOMGYSHY4ZE7WCQ3PEN874J9", "dateTime": 1516917941432}, {"current_trial": 18, "trialdata": {"rt": -1, "trial_type": "single-stim", "stimulus": "<p id=\"stim\">2</p>", "internal_node_id": "0.0-10.0-8.0", "time_elapsed": 252112, "key_press": -1, "trial_index": 18}, "uniqueid": "MTK2285:39GHHAVOMGYSHY4ZE7WCQ3PEN874J9", "dateTime": 1516917942433}, {"current_trial": 19, "trialdata": {"rt": -1, "trial_type": "single-stim", "stimulus": "<p id=\"stim\">1</p>", "internal_node_id": "0.0-10.0-9.0", "time_elapsed": 253113, "key_press": -1, "trial_index": 19}, "uniqueid": "MTK2285:39GHHAVOMGYSHY4ZE7WCQ3PEN874J9", "dateTime": 1516917943434}, {"current_trial": 20, "trialdata": {"rt": -1, "trial_type": "single-stim", "stimulus": "<p id=\"stim\">+</p>", "internal_node_id": "0.0-11.0-0.0", "time_elapsed": 254614, "key_press": -1, "type": "FIXATION", "trial_index": 20}, "uniqueid": "MTK2285:39GHHAVOMGYSHY4ZE7WCQ3PEN874J9", "dateTime": 1516917944935}, {"current_trial": 21, "trialdata": {"rt": -1, "trial_type": "single-stim", "word": "report", "stimulus": "<p id=\"stim\">REPORT</p>", "conditions": [18, 1200, "v", 18000], "internal_node_id": "0.0-12.0", "trial": 0, "time_elapsed": 255816, "serialpos": 0, "key_press": -1, "wordID": 1183, "type": "PRES_VIS", "trial_index": 21}, "uniqueid": "MTK2285:39GHHAVOMGYSHY4ZE7WCQ3PEN874J9", "dateTime": 1516917946137}, {"current_trial": 22, "trialdata": {"rt": -1, "trial_type": "single-stim", "word": "thief", "stimulus": "<p id=\"stim\">THIEF</p>", "conditions": [18, 1200, "v", 18000], "internal_node_id": "0.0-13.0", "trial": 0, "time_elapsed": 258093, "serialpos": 1, "key_press": -1, "wordID": 1455, "type": "PRES_VIS", "trial_index": 22}, "uniqueid": "MTK2285:39GHHAVOMGYSHY4ZE7WCQ3PEN874J9", "dateTime": 1516917948414}, {"current_trial": 23, "trialdata": {"rt": -1, "trial_type": "single-stim", "word": "dustpan", "stimulus": "<p id=\"stim\">DUSTPAN</p>", "conditions": [18, 1200, "v", 18000], "internal_node_id": "0.0-14.0", "trial": 0, "time_elapsed": 260476, "serialpos": 2, "key_press": -1, "wordID": 508, "type": "PRES_VIS", "trial_index": 23}, "uniqueid": "MTK2285:39GHHAVOMGYSHY4ZE7WCQ3PEN874J9", "dateTime": 1516917950797}, {"current_trial": 24, "trialdata": {"rt": -1, "trial_type": "single-stim", "word": "cupboard", "stimulus": "<p id=\"stim\">CUPBOARD</p>", "conditions": [18, 1200, "v", 18000], "internal_node_id": "0.0-15.0", "trial": 0, "time_elapsed": 262770, "serialpos": 3, "key_press": -1, "wordID": 424, "type": "PRES_VIS", "trial_index": 24}, "uniqueid": "MTK2285:39GHHAVOMGYSHY4ZE7WCQ3PEN874J9", "dateTime": 1516917953091}, {"current_trial": 25, "trialdata": {"rt": -1, "trial_type": "single-stim", "word": "tractor", "stimulus": "<p id=\"stim\">TRACTOR</p>", "conditions": [18, 1200, "v", 18000], "internal_node_id": "0.0-16.0", "trial": 0, "time_elapsed": 265009, "serialpos": 4, "key_press": -1, "wordID": 1492, "type": "PRES_VIS", "trial_index": 25}, "uniqueid": "MTK2285:39GHHAVOMGYSHY4ZE7WCQ3PEN874J9", "dateTime": 1516917955330}, {"current_trial": 26, "trialdata": {"rt": -1, "trial_type": "single-stim", "word": "drug", "stimulus": "<p id=\"stim\">DRUG</p>", "conditions": [18, 1200, "v", 18000], "internal_node_id": "0.0-17.0", "trial": 0, "time_elapsed": 267068, "serialpos": 5, "key_press": -1, "wordID": 500, "type": "PRES_VIS", "trial_index": 26}, "uniqueid": "MTK2285:39GHHAVOMGYSHY4ZE7WCQ3PEN874J9", "dateTime": 1516917957389}, {"current_trial": 27, "trialdata": {"rt": -1, "trial_type": "single-stim", "word": "table", "stimulus": "<p id=\"stim\">TABLE</p>", "conditions": [18, 1200, "v", 18000], "internal_node_id": "0.0-18.0", "trial": 0, "time_elapsed": 269433, "serialpos": 6, "key_press": -1, "wordID": 1425, "type": "PRES_VIS", "trial_index": 27}, "uniqueid": "MTK2285:39GHHAVOMGYSHY4ZE7WCQ3PEN874J9", "dateTime": 1516917959754}, {"current_trial": 28, "trialdata": {"rt": -1, "trial_type": "single-stim", "word": "guard", "stimulus": "<p id=\"stim\">GUARD</p>", "conditions": [18, 1200, "v", 18000], "internal_node_id": "0.0-19.0", "trial": 0, "time_elapsed": 271736, "serialpos": 7, "key_press": -1, "wordID": 666, "type": "PRES_VIS", "trial_index": 28}, "uniqueid": "MTK2285:39GHHAVOMGYSHY4ZE7WCQ3PEN874J9", "dateTime": 1516917962057}, {"current_trial": 29, "trialdata": {"rt": -1, "trial_type": "single-stim", "word": "leopard", "stimulus": "<p id=\"stim\">LEOPARD</p>", "conditions": [18, 1200, "v", 18000], "internal_node_id": "0.0-20.0", "trial": 0, "time_elapsed": 273850, "serialpos": 8, "key_press": -1, "wordID": 811, "type": "PRES_VIS", "trial_index": 29}, "uniqueid": "MTK2285:39GHHAVOMGYSHY4ZE7WCQ3PEN874J9", "dateTime": 1516917964171}, {"current_trial": 30, "trialdata": {"rt": -1, "trial_type": "single-stim", "word": "tombstone", "stimulus": "<p id=\"stim\">TOMBSTONE</p>", "conditions": [18, 1200, "v", 18000], "internal_node_id": "0.0-21.0", "trial": 0, "time_elapsed": 276200, "serialpos": 9, "key_press": -1, "wordID": 1477, "type": "PRES_VIS", "trial_index": 30}, "uniqueid": "MTK2285:39GHHAVOMGYSHY4ZE7WCQ3PEN874J9", "dateTime": 1516917966521}, {"current_trial": 31, "trialdata": {"rt": -1, "trial_type": "single-stim", "word": "bug", "stimulus": "<p id=\"stim\">BUG</p>", "conditions": [18, 1200, "v", 18000], "internal_node_id": "0.0-22.0", "trial": 0, "time_elapsed": 278506, "serialpos": 10, "key_press": -1, "wordID": 186, "type": "PRES_VIS", "trial_index": 31}, "uniqueid": "MTK2285:39GHHAVOMGYSHY4ZE7WCQ3PEN874J9", "dateTime": 1516917968827}, {"current_trial": 32, "trialdata": {"rt": -1, "trial_type": "single-stim", "word": "vagrant", "stimulus": "<p id=\"stim\">VAGRANT</p>", "conditions": [18, 1200, "v", 18000], "internal_node_id": "0.0-23.0", "trial": 0, "time_elapsed": 280632, "serialpos": 11, "key_press": -1, "wordID": 1543, "type": "PRES_VIS", "trial_index": 32}, "uniqueid": "MTK2285:39GHHAVOMGYSHY4ZE7WCQ3PEN874J9", "dateTime": 1516917970953}, {"current_trial": 33, "trialdata": {"rt": -1, "trial_type": "single-stim", "word": "padding", "stimulus": "<p id=\"stim\">PADDING</p>", "conditions": [18, 1200, "v", 18000], "internal_node_id": "0.0-24.0", "trial": 0, "time_elapsed": 282783, "serialpos": 12, "key_press": -1, "wordID": 998, "type": "PRES_VIS", "trial_index": 33}, "uniqueid": "MTK2285:39GHHAVOMGYSHY4ZE7WCQ3PEN874J9", "dateTime": 1516917973104}, {"current_trial": 34, "trialdata": {"rt": -1, "trial_type": "single-stim", "word": "staple", "stimulus": "<p id=\"stim\">STAPLE</p>", "conditions": [18, 1200, "v", 18000], "internal_node_id": "0.0-25.0", "trial": 0, "time_elapsed": 284812, "serialpos": 13, "key_press": -1, "wordID": 1370, "type": "PRES_VIS", "trial_index": 34}, "uniqueid": "MTK2285:39GHHAVOMGYSHY4ZE7WCQ3PEN874J9", "dateTime": 1516917975133}, {"current_trial": 35, "trialdata": {"rt": -1, "trial_type": "single-stim", "word": "mailman", "stimulus": "<p id=\"stim\">MAILMAN</p>", "conditions": [18, 1200, "v", 18000], "internal_node_id": "0.0-26.0", "trial": 0, "time_elapsed": 286998, "serialpos": 14, "key_press": -1, "wordID": 857, "type": "PRES_VIS", "trial_index": 35}, "uniqueid": "MTK2285:39GHHAVOMGYSHY4ZE7WCQ3PEN874J9", "dateTime": 1516917977319}, {"current_trial": 36, "trialdata": {"rt": -1, "trial_type": "single-stim", "word": "worker", "stimulus": "<p id=\"stim\">WORKER</p>", "conditions": [18, 1200, "v", 18000], "internal_node_id": "0.0-27.0", "trial": 0, "time_elapsed": 289013, "serialpos": 15, "key_press": -1, "wordID": 1620, "type": "PRES_VIS", "trial_index": 36}, "uniqueid": "MTK2285:39GHHAVOMGYSHY4ZE7WCQ3PEN874J9", "dateTime": 1516917979334}, {"current_trial": 37, "trialdata": {"rt": -1, "trial_type": "single-stim", "word": "lion", "stimulus": "<p id=\"stim\">LION</p>", "conditions": [18, 1200, "v", 18000], "internal_node_id": "0.0-28.0", "trial": 0, "time_elapsed": 291061, "serialpos": 16, "key_press": -1, "wordID": 826, "type": "PRES_VIS", "trial_index": 37}, "uniqueid": "MTK2285:39GHHAVOMGYSHY4ZE7WCQ3PEN874J9", "dateTime": 1516917981382}, {"current_trial": 38, "trialdata": {"rt": -1, "trial_type": "single-stim", "word": "jello", "stimulus": "<p id=\"stim\">JELLO</p>", "conditions": [18, 1200, "v", 18000], "internal_node_id": "0.0-29.0", "trial": 0, "time_elapsed": 293411, "serialpos": 17, "key_press": -1, "wordID": 753, "type": "PRES_VIS", "trial_index": 38}, "uniqueid": "MTK2285:39GHHAVOMGYSHY4ZE7WCQ3PEN874J9", "dateTime": 1516917983732}, {"current_trial": 39, "trialdata": {"rt": -1, "trial_type": "single-stim", "stimulus": "", "internal_node_id": "0.0-30.0-0.0", "time_elapsed": 295647, "key_press": -1, "type": "PRE_RECALL_DELAY", "trial_index": 39}, "uniqueid": "MTK2285:39GHHAVOMGYSHY4ZE7WCQ3PEN874J9", "dateTime": 1516917985969}, {"current_trial": 40, "trialdata": {"rt": -1000, "trial_type": "single-audio", "stimulus": "/static/audio/400Hz.wav", "internal_node_id": "0.0-31.0", "time_elapsed": 296177, "key_press": -1, "type": "PRE_RECALL_ALERT", "trial_index": 40}, "uniqueid": "MTK2285:39GHHAVOMGYSHY4ZE7WCQ3PEN874J9", "dateTime": 1516917986498}, {"current_trial": 41, "trialdata": {"rt": [2690, 4445, 7168, 8782, 10240, 11609], "recwords": ["report", "thief", "worker", "mailman", "jello", "staple"], "key_times": [1667, 1753, 1884, 2084, 2186, 2422, 2690, 3465, 3584, 3764, 3964, 4178, 4445, 4792, 4970, 5770, 5942, 6315, 6435, 6595, 6720, 6842, 6964, 7168, 7570, 7726, 7866, 8032, 8223, 8344, 8437, 8782, 9165, 9343, 9483, 9639, 9876, 10240, 10580, 10731, 10897, 11087, 11330, 11447, 11609], "trial_type": "free-recall", "conditions": [18, 1200, "v", 18000], "internal_node_id": "0.0-32.0-0.0", "key_presses": [82, 69, 80, 79, 82, 84, 13, 84, 72, 73, 69, 70, 13, 77, 65, 8, 8, 87, 79, 82, 75, 69, 82, 13, 77, 65, 73, 76, 77, 65, 78, 13, 74, 69, 76, 76, 79, 13, 83, 84, 65, 80, 76, 69, 13], "trial": 0, "time_elapsed": 356183, "type": "FREE_RECALL", "trial_index": 41}, "uniqueid": "MTK2285:39GHHAVOMGYSHY4ZE7WCQ3PEN874J9", "dateTime": 1516918046506}, {"current_trial": 42, "trialdata": {"rt": 1523, "trial_type": "text", "internal_node_id": "0.0-33.0", "time_elapsed": 359709, "key_press": 66, "type": "INSTRUCTIONS", "trial_index": 42}, "uniqueid": "MTK2285:39GHHAVOMGYSHY4ZE7WCQ3PEN874J9", "dateTime": 1516918050030}, {"current_trial": 43, "trialdata": {"rt": [5309, 8267, 11010, 13146, 15899, 17948], "trial_type": "math-distractor", "key_times": [4652, 5006, 5309, 7877, 8051, 8267, 10615, 10747, 11010, 12581, 12875, 13146, 15333, 15612, 15899, 17501, 17752, 17948], "responses": ["16", "22", "10", "13", "14", "13"], "num2": [3, 6, 5, 8, 8, 2, 4], "num3": [5, 8, 4, 4, 2, 4, 4], "conditions": [18, 1200, "v", 18000], "internal_node_id": "0.0-34.0", "key_presses": [49, 54, 13, 50, 50, 13, 49, 48, 13, 49, 51, 13, 49, 52, 13, 49, 51, 13], "trial": 1, "time_elapsed": 379713, "type": "DISTRACTOR", "trial_index": 43, "num1": [8, 8, 1, 1, 4, 7, 3]}, "uniqueid": "MTK2285:39GHHAVOMGYSHY4ZE7WCQ3PEN874J9", "dateTime": 1516918070034}, {"current_trial": 44, "trialdata": {"rt": -1, "trial_type": "single-stim", "stimulus": "<p id=\"stim\">10</p>", "internal_node_id": "0.0-35.0-0.0", "time_elapsed": 382714, "key_press": -1, "trial_index": 44}, "uniqueid": "MTK2285:39GHHAVOMGYSHY4ZE7WCQ3PEN874J9", "dateTime": 1516918073035}, {"current_trial": 45, "trialdata": {"rt": -1, "trial_type": "single-stim", "stimulus": "<p id=\"stim\">9</p>", "internal_node_id": "0.0-35.0-1.0", "time_elapsed": 383715, "key_press": -1, "trial_index": 45}, "uniqueid": "MTK2285:39GHHAVOMGYSHY4ZE7WCQ3PEN874J9", "dateTime": 1516918074036}, {"current_trial": 46, "trialdata": {"rt": -1, "trial_type": "single-stim", "stimulus": "<p id=\"stim\">8</p>", "internal_node_id": "0.0-35.0-2.0", "time_elapsed": 384716, "key_press": -1, "trial_index": 46}, "uniqueid": "MTK2285:39GHHAVOMGYSHY4ZE7WCQ3PEN874J9", "dateTime": 1516918075037}, {"current_trial": 47, "trialdata": {"rt": -1, "trial_type": "single-stim", "stimulus": "<p id=\"stim\">7</p>", "internal_node_id": "0.0-35.0-3.0", "time_elapsed": 385717, "key_press": -1, "trial_index": 47}, "uniqueid": "MTK2285:39GHHAVOMGYSHY4ZE7WCQ3PEN874J9", "dateTime": 1516918076038}, {"current_trial": 48, "trialdata": {"rt": -1, "trial_type": "single-stim", "stimulus": "<p id=\"stim\">6</p>", "internal_node_id": "0.0-35.0-4.0", "time_elapsed": 386718, "key_press": -1, "trial_index": 48}, "uniqueid": "MTK2285:39GHHAVOMGYSHY4ZE7WCQ3PEN874J9", "dateTime": 1516918077039}, {"current_trial": 49, "trialdata": {"rt": -1, "trial_type": "single-stim", "stimulus": "<p id=\"stim\">5</p>", "internal_node_id": "0.0-35.0-5.0", "time_elapsed": 387719, "key_press": -1, "trial_index": 49}, "uniqueid": "MTK2285:39GHHAVOMGYSHY4ZE7WCQ3PEN874J9", "dateTime": 1516918078040}, {"current_trial": 50, "trialdata": {"rt": -1, "trial_type": "single-stim", "stimulus": "<p id=\"stim\">4</p>", "internal_node_id": "0.0-35.0-6.0", "time_elapsed": 388720, "key_press": -1, "trial_index": 50}, "uniqueid": "MTK2285:39GHHAVOMGYSHY4ZE7WCQ3PEN874J9", "dateTime": 1516918079041}, {"current_trial": 51, "trialdata": {"rt": -1, "trial_type": "single-stim", "stimulus": "<p id=\"stim\">3</p>", "internal_node_id": "0.0-35.0-7.0", "time_elapsed": 389721, "key_press": -1, "trial_index": 51}, "uniqueid": "MTK2285:39GHHAVOMGYSHY4ZE7WCQ3PEN874J9", "dateTime": 1516918080042}, {"current_trial": 52, "trialdata": {"rt": -1, "trial_type": "single-stim", "stimulus": "<p id=\"stim\">2</p>", "internal_node_id": "0.0-35.0-8.0", "time_elapsed": 390722, "key_press": -1, "trial_index": 52}, "uniqueid": "MTK2285:39GHHAVOMGYSHY4ZE7WCQ3PEN874J9", "dateTime": 1516918081043}, {"current_trial": 53, "trialdata": {"rt": -1, "trial_type": "single-stim", "stimulus": "<p id=\"stim\">1</p>", "internal_node_id": "0.0-35.0-9.0", "time_elapsed": 391723, "key_press": -1, "trial_index": 53}, "uniqueid": "MTK2285:39GHHAVOMGYSHY4ZE7WCQ3PEN874J9", "dateTime": 1516918082044}, {"current_trial": 54, "trialdata": {"rt": -1, "trial_type": "single-stim", "stimulus": "<p id=\"stim\">+</p>", "internal_node_id": "0.0-36.0-0.0", "time_elapsed": 393224, "key_press": -1, "type": "FIXATION", "trial_index": 54}, "uniqueid": "MTK2285:39GHHAVOMGYSHY4ZE7WCQ3PEN874J9", "dateTime": 1516918083545}, {"current_trial": 55, "trialdata": {"rt": -1, "trial_type": "single-stim", "word": "church", "stimulus": "<p id=\"stim\">CHURCH</p>", "conditions": [18, 1200, "v", 18000], "internal_node_id": "0.0-37.0", "trial": 1, "time_elapsed": 394425, "serialpos": 0, "key_press": -1, "wordID": 306, "type": "PRES_VIS", "trial_index": 55}, "uniqueid": "MTK2285:39GHHAVOMGYSHY4ZE7WCQ3PEN874J9", "dateTime": 1516918084746}, {"current_trial": 56, "trialdata": {"rt": -1, "trial_type": "single-stim", "word": "maple", "stimulus": "<p id=\"stim\">MAPLE</p>", "conditions": [18, 1200, "v", 18000], "internal_node_id": "0.0-38.0", "trial": 1, "time_elapsed": 396504, "serialpos": 1, "key_press": -1, "wordID": 865, "type": "PRES_VIS", "trial_index": 56}, "uniqueid": "MTK2285:39GHHAVOMGYSHY4ZE7WCQ3PEN874J9", "dateTime": 1516918086826}, {"current_trial": 57, "trialdata": {"rt": -1, "trial_type": "single-stim", "word": "piston", "stimulus": "<p id=\"stim\">PISTON</p>", "conditions": [18, 1200, "v", 18000], "internal_node_id": "0.0-39.0", "trial": 1, "time_elapsed": 398678, "serialpos": 2, "key_press": -1, "wordID": 1075, "type": "PRES_VIS", "trial_index": 57}, "uniqueid": "MTK2285:39GHHAVOMGYSHY4ZE7WCQ3PEN874J9", "dateTime": 1516918088999}, {"current_trial": 58, "trialdata": {"rt": -1, "trial_type": "single-stim", "word": "razor", "stimulus": "<p id=\"stim\">RAZOR</p>", "conditions": [18, 1200, "v", 18000], "internal_node_id": "0.0-40.0", "trial": 1, "time_elapsed": 401069, "serialpos": 3, "key_press": -1, "wordID": 1170, "type": "PRES_VIS", "trial_index": 58}, "uniqueid": "MTK2285:39GHHAVOMGYSHY4ZE7WCQ3PEN874J9", "dateTime": 1516918091390}, {"current_trial": 59, "trialdata": {"rt": -1, "trial_type": "single-stim", "word": "blockade", "stimulus": "<p id=\"stim\">BLOCKADE</p>", "conditions": [18, 1200, "v", 18000], "internal_node_id": "0.0-41.0", "trial": 1, "time_elapsed": 403303, "serialpos": 4, "key_press": -1, "wordID": 136, "type": "PRES_VIS", "trial_index": 59}, "uniqueid": "MTK2285:39GHHAVOMGYSHY4ZE7WCQ3PEN874J9", "dateTime": 1516918093625}, {"current_trial": 60, "trialdata": {"rt": -1, "trial_type": "single-stim", "word": "cook", "stimulus": "<p id=\"stim\">COOK</p>", "conditions": [18, 1200, "v", 18000], "internal_node_id": "0.0-42.0", "trial": 1, "time_elapsed": 405674, "serialpos": 5, "key_press": -1, "wordID": 371, "type": "PRES_VIS", "trial_index": 60}, "uniqueid": "MTK2285:39GHHAVOMGYSHY4ZE7WCQ3PEN874J9", "dateTime": 1516918095995}, {"current_trial": 61, "trialdata": {"rt": -1, "trial_type": "single-stim", "word": "lipstick", "stimulus": "<p id=\"stim\">LIPSTICK</p>", "conditions": [18, 1200, "v", 18000], "internal_node_id": "0.0-43.0", "trial": 1, "time_elapsed": 407733, "serialpos": 6, "key_press": -1, "wordID": 828, "type": "PRES_VIS", "trial_index": 61}, "uniqueid": "MTK2285:39GHHAVOMGYSHY4ZE7WCQ3PEN874J9", "dateTime": 1516918098054}, {"current_trial": 62, "trialdata": {"rt": -1, "trial_type": "single-stim", "word": "author", "stimulus": "<p id=\"stim\">AUTHOR</p>", "conditions": [18, 1200, "v", 18000], "internal_node_id": "0.0-44.0", "trial": 1, "time_elapsed": 409875, "serialpos": 7, "key_press": -1, "wordID": 60, "type": "PRES_VIS", "trial_index": 62}, "uniqueid": "MTK2285:39GHHAVOMGYSHY4ZE7WCQ3PEN874J9", "dateTime": 1516918100196}, {"current_trial": 63, "trialdata": {"rt": -1, "trial_type": "single-stim", "word": "gymnast", "stimulus": "<p id=\"stim\">GYMNAST</p>", "conditions": [18, 1200, "v", 18000], "internal_node_id": "0.0-45.0", "trial": 1, "time_elapsed": 412194, "serialpos": 8, "key_press": -1, "wordID": 674, "type": "PRES_VIS", "trial_index": 63}, "uniqueid": "MTK2285:39GHHAVOMGYSHY4ZE7WCQ3PEN874J9", "dateTime": 1516918102516}, {"current_trial": 64, "trialdata": {"rt": -1, "trial_type": "single-stim", "word": "wife", "stimulus": "<p id=\"stim\">WIFE</p>", "conditions": [18, 1200, "v", 18000], "internal_node_id": "0.0-46.0", "trial": 1, "time_elapsed": 414296, "serialpos": 9, "key_press": -1, "wordID": 1608, "type": "PRES_VIS", "trial_index": 64}, "uniqueid": "MTK2285:39GHHAVOMGYSHY4ZE7WCQ3PEN874J9", "dateTime": 1516918104617}, {"current_trial": 65, "trialdata": {"rt": -1, "trial_type": "single-stim", "word": "dentist", "stimulus": "<p id=\"stim\">DENTIST</p>", "conditions": [18, 1200, "v", 18000], "internal_node_id": "0.0-47.0", "trial": 1, "time_elapsed": 416459, "serialpos": 10, "key_press": -1, "wordID": 446, "type": "PRES_VIS", "trial_index": 65}, "uniqueid": "MTK2285:39GHHAVOMGYSHY4ZE7WCQ3PEN874J9", "dateTime": 1516918106780}, {"current_trial": 66, "trialdata": {"rt": -1, "trial_type": "single-stim", "word": "sphinx", "stimulus": "<p id=\"stim\">SPHINX</p>", "conditions": [18, 1200, "v", 18000], "internal_node_id": "0.0-48.0", "trial": 1, "time_elapsed": 418715, "serialpos": 11, "key_press": -1, "wordID": 1348, "type": "PRES_VIS", "trial_index": 66}, "uniqueid": "MTK2285:39GHHAVOMGYSHY4ZE7WCQ3PEN874J9", "dateTime": 1516918109036}, {"current_trial": 67, "trialdata": {"rt": -1, "trial_type": "single-stim", "word": "fireman", "stimulus": "<p id=\"stim\">FIREMAN</p>", "conditions": [18, 1200, "v", 18000], "internal_node_id": "0.0-49.0", "trial": 1, "time_elapsed": 420806, "serialpos": 12, "key_press": -1, "wordID": 568, "type": "PRES_VIS", "trial_index": 67}, "uniqueid": "MTK2285:39GHHAVOMGYSHY4ZE7WCQ3PEN874J9", "dateTime": 1516918111127}, {"current_trial": 68, "trialdata": {"rt": -1, "trial_type": "single-stim", "word": "napkin", "stimulus": "<p id=\"stim\">NAPKIN</p>", "conditions": [18, 1200, "v", 18000], "internal_node_id": "0.0-50.0", "trial": 1, "time_elapsed": 423053, "serialpos": 13, "key_press": -1, "wordID": 936, "type": "PRES_VIS", "trial_index": 68}, "uniqueid": "MTK2285:39GHHAVOMGYSHY4ZE7WCQ3PEN874J9", "dateTime": 1516918113375}, {"current_trial": 69, "trialdata": {"rt": -1, "trial_type": "single-stim", "word": "parsley", "stimulus": "<p id=\"stim\">PARSLEY</p>", "conditions": [18, 1200, "v", 18000], "internal_node_id": "0.0-51.0", "trial": 1, "time_elapsed": 425154, "serialpos": 14, "key_press": -1, "wordID": 1015, "type": "PRES_VIS", "trial_index": 69}, "uniqueid": "MTK2285:39GHHAVOMGYSHY4ZE7WCQ3PEN874J9", "dateTime": 1516918115475}, {"current_trial": 70, "trialdata": {"rt": -1, "trial_type": "single-stim", "word": "flashlight", "stimulus": "<p id=\"stim\">FLASHLIGHT</p>", "conditions": [18, 1200, "v", 18000], "internal_node_id": "0.0-52.0", "trial": 1, "time_elapsed": 427307, "serialpos": 15, "key_press": -1, "wordID": 574, "type": "PRES_VIS", "trial_index": 70}, "uniqueid": "MTK2285:39GHHAVOMGYSHY4ZE7WCQ3PEN874J9", "dateTime": 1516918117628}, {"current_trial": 71, "trialdata": {"rt": -1, "trial_type": "single-stim", "word": "ankle", "stimulus": "<p id=\"stim\">ANKLE</p>", "conditions": [18, 1200, "v", 18000], "internal_node_id": "0.0-53.0", "trial": 1, "time_elapsed": 429597, "serialpos": 16, "key_press": -1, "wordID": 23, "type": "PRES_VIS", "trial_index": 71}, "uniqueid": "MTK2285:39GHHAVOMGYSHY4ZE7WCQ3PEN874J9", "dateTime": 1516918119918}, {"current_trial": 72, "trialdata": {"rt": -1, "trial_type": "single-stim", "word": "patient", "stimulus": "<p id=\"stim\">PATIENT</p>", "conditions": [18, 1200, "v", 18000], "internal_node_id": "0.0-54.0", "trial": 1, "time_elapsed": 431756, "serialpos": 17, "key_press": -1, "wordID": 1023, "type": "PRES_VIS", "trial_index": 72}, "uniqueid": "MTK2285:39GHHAVOMGYSHY4ZE7WCQ3PEN874J9", "dateTime": 1516918122078}, {"current_trial": 73, "trialdata": {"rt": -1, "trial_type": "single-stim", "stimulus": "", "internal_node_id": "0.0-55.0-0.0", "time_elapsed": 434213, "key_press": -1, "type": "PRE_RECALL_DELAY", "trial_index": 73}, "uniqueid": "MTK2285:39GHHAVOMGYSHY4ZE7WCQ3PEN874J9", "dateTime": 1516918124534}, {"current_trial": 74, "trialdata": {"rt": -1000, "trial_type": "single-audio", "stimulus": "/static/audio/400Hz.wav", "internal_node_id": "0.0-56.0", "time_elapsed": 434714, "key_press": -1, "type": "PRE_RECALL_ALERT", "trial_index": 74}, "uniqueid": "MTK2285:39GHHAVOMGYSHY4ZE7WCQ3PEN874J9", "dateTime": 1516918125036}, {"current_trial": 75, "trialdata": {"rt": [1682, 3331, 5594, 14088, 15296, 25531, 30516, 55300], "recwords": ["church", "maple", "cook", "sphinx", "ankle", "fireman", "parsley", "clergy"], "key_times": [493, 582, 903, 1038, 1350, 1416, 1682, 1985, 2141, 2328, 2540, 2684, 3331, 4793, 4904, 5048, 5257, 5594, 12351, 12574, 12796, 12959, 13304, 13569, 14088, 14371, 14526, 14675, 14907, 15048, 15296, 23091, 23154, 23333, 23477, 23603, 23720, 23923, 23962, 24587, 24753, 24904, 25040, 25209, 25531, 28800, 28936, 29035, 29292, 29736, 29875, 30278, 30516, 46468, 46624, 46793, 47116, 47334, 48400, 48496, 49634, 50127, 50157, 50189, 50232, 50256, 50279, 50310, 50340, 50370, 50401, 50431, 50463, 50525, 50526, 54267, 54399, 54504, 54635, 54870, 55081, 55300], "trial_type": "free-recall", "conditions": [18, 1200, "v", 18000], "internal_node_id": "0.0-57.0-0.0", "key_presses": [67, 72, 85, 82, 67, 72, 13, 77, 65, 80, 76, 69, 13, 67, 79, 79, 75, 13, 83, 80, 72, 73, 78, 88, 13, 65, 78, 75, 76, 69, 13, 70, 73, 82, 69, 77, 69, 65, 78, 8, 8, 8, 65, 78, 13, 80, 65, 82, 83, 76, 69, 89, 13, 84, 79, 65, 83, 84, 16, 191, 8, 8, 8, 8, 8, 8, 8, 8, 8, 8, 8, 8, 8, 8, 8, 67, 76, 69, 82, 71, 89, 13], "trial": 1, "time_elapsed": 494718, "type": "FREE_RECALL", "trial_index": 75}, "uniqueid": "MTK2285:39GHHAVOMGYSHY4ZE7WCQ3PEN874J9", "dateTime": 1516918185041}, {"current_trial": 76, "trialdata": {"rt": 1579, "trial_type": "text", "internal_node_id": "0.0-58.0", "time_elapsed": 498299, "key_press": 32, "type": "INSTRUCTIONS", "trial_index": 76}, "uniqueid": "MTK2285:39GHHAVOMGYSHY4ZE7WCQ3PEN874J9", "dateTime": 1516918188620}, {"current_trial": 77, "trialdata": {"rt": [2286, 4463, 8069, 11287, 14843, 16852, 20443], "trial_type": "math-distractor", "key_times": [1343, 2286, 3919, 4223, 4463, 6976, 7467, 7595, 7782, 8069, 10763, 11055, 11287, 13843, 14216, 14843, 16547, 16852, 19974, 20081, 20443, 22881, 23322, 23798, 23910], "responses": ["3", "16", "22", "24", "10", "9", "20"], "num2": [1, 1, 9, 9, 3, 1, 5, 2], "num3": [1, 9, 9, 9, 5, 6, 9, 5], "conditions": [12, 800, "v", 24000], "internal_node_id": "0.0-59.0", "key_presses": [51, 13, 49, 54, 13, 49, 8, 50, 50, 13, 50, 52, 13, 49, 48, 13, 57, 13, 50, 48, 13, 49, 53, 8, 54], "trial": 2, "time_elapsed": 523302, "type": "DISTRACTOR", "trial_index": 77, "num1": [1, 6, 4, 6, 2, 2, 6, 9]}, "uniqueid": "MTK2285:39GHHAVOMGYSHY4ZE7WCQ3PEN874J9", "dateTime": 1516918213623}, {"current_trial": 78, "trialdata": {"rt": -1, "trial_type": "single-stim", "stimulus": "<p id=\"stim\">10</p>", "internal_node_id": "0.0-60.0-0.0", "time_elapsed": 526303, "key_press": -1, "trial_index": 78}, "uniqueid": "MTK2285:39GHHAVOMGYSHY4ZE7WCQ3PEN874J9", "dateTime": 1516918216624}, {"current_trial": 79, "trialdata": {"rt": -1, "trial_type": "single-stim", "stimulus": "<p id=\"stim\">9</p>", "internal_node_id": "0.0-60.0-1.0", "time_elapsed": 527304, "key_press": -1, "trial_index": 79}, "uniqueid": "MTK2285:39GHHAVOMGYSHY4ZE7WCQ3PEN874J9", "dateTime": 1516918217625}, {"current_trial": 80, "trialdata": {"rt": -1, "trial_type": "single-stim", "stimulus": "<p id=\"stim\">8</p>", "internal_node_id": "0.0-60.0-2.0", "time_elapsed": 528305, "key_press": -1, "trial_index": 80}, "uniqueid": "MTK2285:39GHHAVOMGYSHY4ZE7WCQ3PEN874J9", "dateTime": 1516918218626}, {"current_trial": 81, "trialdata": {"rt": -1, "trial_type": "single-stim", "stimulus": "<p id=\"stim\">7</p>", "internal_node_id": "0.0-60.0-3.0", "time_elapsed": 529306, "key_press": -1, "trial_index": 81}, "uniqueid": "MTK2285:39GHHAVOMGYSHY4ZE7WCQ3PEN874J9", "dateTime": 1516918219627}, {"current_trial": 82, "trialdata": {"rt": -1, "trial_type": "single-stim", "stimulus": "<p id=\"stim\">6</p>", "internal_node_id": "0.0-60.0-4.0", "time_elapsed": 530307, "key_press": -1, "trial_index": 82}, "uniqueid": "MTK2285:39GHHAVOMGYSHY4ZE7WCQ3PEN874J9", "dateTime": 1516918220628}, {"current_trial": 83, "trialdata": {"rt": -1, "trial_type": "single-stim", "stimulus": "<p id=\"stim\">5</p>", "internal_node_id": "0.0-60.0-5.0", "time_elapsed": 531308, "key_press": -1, "trial_index": 83}, "uniqueid": "MTK2285:39GHHAVOMGYSHY4ZE7WCQ3PEN874J9", "dateTime": 1516918221629}, {"current_trial": 84, "trialdata": {"rt": -1, "trial_type": "single-stim", "stimulus": "<p id=\"stim\">4</p>", "internal_node_id": "0.0-60.0-6.0", "time_elapsed": 532309, "key_press": -1, "trial_index": 84}, "uniqueid": "MTK2285:39GHHAVOMGYSHY4ZE7WCQ3PEN874J9", "dateTime": 1516918222630}, {"current_trial": 85, "trialdata": {"rt": -1, "trial_type": "single-stim", "stimulus": "<p id=\"stim\">3</p>", "internal_node_id": "0.0-60.0-7.0", "time_elapsed": 533310, "key_press": -1, "trial_index": 85}, "uniqueid": "MTK2285:39GHHAVOMGYSHY4ZE7WCQ3PEN874J9", "dateTime": 1516918223631}, {"current_trial": 86, "trialdata": {"rt": -1, "trial_type": "single-stim", "stimulus": "<p id=\"stim\">2</p>", "internal_node_id": "0.0-60.0-8.0", "time_elapsed": 534311, "key_press": -1, "trial_index": 86}, "uniqueid": "MTK2285:39GHHAVOMGYSHY4ZE7WCQ3PEN874J9", "dateTime": 1516918224632}, {"current_trial": 87, "trialdata": {"rt": -1, "trial_type": "single-stim", "stimulus": "<p id=\"stim\">1</p>", "internal_node_id": "0.0-60.0-9.0", "time_elapsed": 535312, "key_press": -1, "trial_index": 87}, "uniqueid": "MTK2285:39GHHAVOMGYSHY4ZE7WCQ3PEN874J9", "dateTime": 1516918225633}, {"current_trial": 88, "trialdata": {"rt": -1, "trial_type": "single-stim", "stimulus": "<p id=\"stim\">+</p>", "internal_node_id": "0.0-61.0-0.0", "time_elapsed": 536813, "key_press": -1, "type": "FIXATION", "trial_index": 88}, "uniqueid": "MTK2285:39GHHAVOMGYSHY4ZE7WCQ3PEN874J9", "dateTime": 1516918227134}, {"current_trial": 89, "trialdata": {"rt": -1, "trial_type": "single-stim", "word": "yarn", "stimulus": "<p id=\"stim\">YARN</p>", "conditions": [12, 800, "v", 24000], "internal_node_id": "0.0-62.0", "trial": 2, "time_elapsed": 537614, "serialpos": 0, "key_press": -1, "wordID": 1630, "type": "PRES_VIS", "trial_index": 89}, "uniqueid": "MTK2285:39GHHAVOMGYSHY4ZE7WCQ3PEN874J9", "dateTime": 1516918227936}, {"current_trial": 90, "trialdata": {"rt": -1, "trial_type": "single-stim", "word": "slime", "stimulus": "<p id=\"stim\">SLIME</p>", "conditions": [12, 800, "v", 24000], "internal_node_id": "0.0-63.0", "trial": 2, "time_elapsed": 539373, "serialpos": 1, "key_press": -1, "wordID": 1326, "type": "PRES_VIS", "trial_index": 90}, "uniqueid": "MTK2285:39GHHAVOMGYSHY4ZE7WCQ3PEN874J9", "dateTime": 1516918229694}, {"current_trial": 91, "trialdata": {"rt": -1, "trial_type": "single-stim", "word": "igloo", "stimulus": "<p id=\"stim\">IGLOO</p>", "conditions": [12, 800, "v", 24000], "internal_node_id": "0.0-64.0", "trial": 2, "time_elapsed": 541189, "serialpos": 2, "key_press": -1, "wordID": 733, "type": "PRES_VIS", "trial_index": 91}, "uniqueid": "MTK2285:39GHHAVOMGYSHY4ZE7WCQ3PEN874J9", "dateTime": 1516918231510}, {"current_trial": 92, "trialdata": {"rt": -1, "trial_type": "single-stim", "word": "salad", "stimulus": "<p id=\"stim\">SALAD</p>", "conditions": [12, 800, "v", 24000], "internal_node_id": "0.0-65.0", "trial": 2, "time_elapsed": 542947, "serialpos": 3, "key_press": -1, "wordID": 1223, "type": "PRES_VIS", "trial_index": 92}, "uniqueid": "MTK2285:39GHHAVOMGYSHY4ZE7WCQ3PEN874J9", "dateTime": 1516918233268}, {"current_trial": 93, "trialdata": {"rt": -1, "trial_type": "single-stim", "word": "clothes", "stimulus": "<p id=\"stim\">CLOTHES</p>", "conditions": [12, 800, "v", 24000], "internal_node_id": "0.0-66.0", "trial": 2, "time_elapsed": 544777, "serialpos": 4, "key_press": -1, "wordID": 326, "type": "PRES_VIS", "trial_index": 93}, "uniqueid": "MTK2285:39GHHAVOMGYSHY4ZE7WCQ3PEN874J9", "dateTime": 1516918235098}, {"current_trial": 94, "trialdata": {"rt": -1, "trial_type": "single-stim", "word": "saddle", "stimulus": "<p id=\"stim\">SADDLE</p>", "conditions": [12, 800, "v", 24000], "internal_node_id": "0.0-67.0", "trial": 2, "time_elapsed": 546664, "serialpos": 5, "key_press": -1, "wordID": 1220, "type": "PRES_VIS", "trial_index": 94}, "uniqueid": "MTK2285:39GHHAVOMGYSHY4ZE7WCQ3PEN874J9", "dateTime": 1516918236985}, {"current_trial": 95, "trialdata": {"rt": -1, "trial_type": "single-stim", "word": "scalpel", "stimulus": "<p id=\"stim\">SCALPEL</p>", "conditions": [12, 800, "v", 24000], "internal_node_id": "0.0-68.0", "trial": 2, "time_elapsed": 548562, "serialpos": 6, "key_press": -1, "wordID": 1242, "type": "PRES_VIS", "trial_index": 95}, "uniqueid": "MTK2285:39GHHAVOMGYSHY4ZE7WCQ3PEN874J9", "dateTime": 1516918238884}, {"current_trial": 96, "trialdata": {"rt": -1, "trial_type": "single-stim", "word": "lava", "stimulus": "<p id=\"stim\">LAVA</p>", "conditions": [12, 800, "v", 24000], "internal_node_id": "0.0-69.0", "trial": 2, "time_elapsed": 550195, "serialpos": 7, "key_press": -1, "wordID": 803, "type": "PRES_VIS", "trial_index": 96}, "uniqueid": "MTK2285:39GHHAVOMGYSHY4ZE7WCQ3PEN874J9", "dateTime": 1516918240516}, {"current_trial": 97, "trialdata": {"rt": -1, "trial_type": "single-stim", "word": "actress", "stimulus": "<p id=\"stim\">ACTRESS</p>", "conditions": [12, 800, "v", 24000], "internal_node_id": "0.0-70.0", "trial": 2, "time_elapsed": 552090, "serialpos": 8, "key_press": -1, "wordID": 5, "type": "PRES_VIS", "trial_index": 97}, "uniqueid": "MTK2285:39GHHAVOMGYSHY4ZE7WCQ3PEN874J9", "dateTime": 1516918242411}, {"current_trial": 98, "trialdata": {"rt": -1, "trial_type": "single-stim", "word": "actor", "stimulus": "<p id=\"stim\">ACTOR</p>", "conditions": [12, 800, "v", 24000], "internal_node_id": "0.0-71.0", "trial": 2, "time_elapsed": 554045, "serialpos": 9, "key_press": -1, "wordID": 4, "type": "PRES_VIS", "trial_index": 98}, "uniqueid": "MTK2285:39GHHAVOMGYSHY4ZE7WCQ3PEN874J9", "dateTime": 1516918244367}, {"current_trial": 99, "trialdata": {"rt": -1, "trial_type": "single-stim", "word": "garlic", "stimulus": "<p id=\"stim\">GARLIC</p>", "conditions": [12, 800, "v", 24000], "internal_node_id": "0.0-72.0", "trial": 2, "time_elapsed": 555717, "serialpos": 10, "key_press": -1, "wordID": 623, "type": "PRES_VIS", "trial_index": 99}, "uniqueid": "MTK2285:39GHHAVOMGYSHY4ZE7WCQ3PEN874J9", "dateTime": 1516918246038}, {"current_trial": 100, "trialdata": {"rt": -1, "trial_type": "single-stim", "word": "dashboard", "stimulus": "<p id=\"stim\">DASHBOARD</p>", "conditions": [12, 800, "v", 24000], "internal_node_id": "0.0-73.0", "trial": 2, "time_elapsed": 557590, "serialpos": 11, "key_press": -1, "wordID": 440, "type": "PRES_VIS", "trial_index": 100}, "uniqueid": "MTK2285:39GHHAVOMGYSHY4ZE7WCQ3PEN874J9", "dateTime": 1516918247911}, {"current_trial": 101, "trialdata": {"rt": -1, "trial_type": "single-stim", "stimulus": "", "internal_node_id": "0.0-74.0-0.0", "time_elapsed": 559938, "key_press": -1, "type": "PRE_RECALL_DELAY", "trial_index": 101}, "uniqueid": "MTK2285:39GHHAVOMGYSHY4ZE7WCQ3PEN874J9", "dateTime": 1516918250259}, {"current_trial": 102, "trialdata": {"rt": -1000, "trial_type": "single-audio", "stimulus": "/static/audio/400Hz.wav", "internal_node_id": "0.0-75.0", "time_elapsed": 560439, "key_press": -1, "type": "PRE_RECALL_ALERT", "trial_index": 102}, "uniqueid": "MTK2285:39GHHAVOMGYSHY4ZE7WCQ3PEN874J9", "dateTime": 1516918250760}, {"current_trial": 103, "trialdata": {"rt": [3309, 5742, 9083, 13314, 15715, 18204, 27573], "recwords": ["lava", "igloo", "scalpel", "actor", "actress", "dashboard", "slime"], "key_times": [2645, 2724, 2932, 3147, 3309, 3816, 4180, 4626, 4952, 5145, 5742, 6722, 7080, 7151, 7352, 7516, 7662, 7820, 7996, 8319, 8512, 8787, 9083, 9448, 9562, 9781, 10180, 10349, 10507, 12033, 12454, 12736, 12928, 13062, 13314, 13579, 13661, 13944, 14245, 14407, 14480, 14694, 14878, 15116, 15300, 15463, 15715, 15919, 16246, 16319, 16459, 16846, 16983, 17204, 17365, 17581, 18204, 26876, 26957, 27124, 27292, 27382, 27573], "trial_type": "free-recall", "conditions": [12, 800, "v", 24000], "internal_node_id": "0.0-76.0-0.0", "key_presses": [76, 65, 86, 65, 13, 73, 71, 76, 79, 79, 13, 67, 8, 83, 67, 65, 76, 80, 65, 8, 69, 76, 13, 76, 65, 86, 8, 8, 8, 65, 67, 84, 79, 82, 13, 65, 65, 67, 8, 8, 67, 84, 82, 69, 83, 83, 13, 68, 65, 83, 72, 66, 79, 65, 82, 68, 13, 83, 76, 73, 77, 69, 13], "trial": 2, "time_elapsed": 620442, "type": "FREE_RECALL", "trial_index": 103}, "uniqueid": "MTK2285:39GHHAVOMGYSHY4ZE7WCQ3PEN874J9", "dateTime": 1516918310767}, {"current_trial": 104, "trialdata": {"rt": 1455, "trial_type": "text", "internal_node_id": "0.0-77.0", "time_elapsed": 623901, "key_press": 32, "type": "INSTRUCTIONS", "trial_index": 104}, "uniqueid": "MTK2285:39GHHAVOMGYSHY4ZE7WCQ3PEN874J9", "dateTime": 1516918314223}, {"current_trial": 105, "trialdata": {"rt": [3100, 5911, 8341, 10842, 13944, 16953, 19281, 22740], "trial_type": "math-distractor", "key_times": [2604, 3100, 5469, 5683, 5911, 7854, 8151, 8341, 10277, 10540, 10842, 13476, 13682, 13944, 16515, 16721, 16953, 18787, 18980, 19281, 22403, 22570, 22740], "responses": ["6", "11", "16", "10", "15", "21", "15", "11"], "num2": [2, 5, 2, 6, 9, 6, 1, 2, 1], "num3": [1, 4, 8, 2, 2, 6, 7, 6, 2], "conditions": [24, 800, "v", 24000], "internal_node_id": "0.0-78.0", "key_presses": [54, 13, 49, 49, 13, 49, 54, 13, 49, 48, 13, 49, 53, 13, 50, 49, 13, 49, 53, 13, 49, 49, 13], "trial": 3, "time_elapsed": 649905, "type": "DISTRACTOR", "trial_index": 105, "num1": [3, 2, 6, 2, 4, 9, 7, 3, 7]}, "uniqueid": "MTK2285:39GHHAVOMGYSHY4ZE7WCQ3PEN874J9", "dateTime": 1516918340226}, {"current_trial": 106, "trialdata": {"rt": -1, "trial_type": "single-stim", "stimulus": "<p id=\"stim\">10</p>", "internal_node_id": "0.0-79.0-0.0", "time_elapsed": 652968, "key_press": -1, "trial_index": 106}, "uniqueid": "MTK2285:39GHHAVOMGYSHY4ZE7WCQ3PEN874J9", "dateTime": 1516918343289}, {"current_trial": 107, "trialdata": {"rt": -1, "trial_type": "single-stim", "stimulus": "<p id=\"stim\">9</p>", "internal_node_id": "0.0-79.0-1.0", "time_elapsed": 653969, "key_press": -1, "trial_index": 107}, "uniqueid": "MTK2285:39GHHAVOMGYSHY4ZE7WCQ3PEN874J9", "dateTime": 1516918344290}, {"current_trial": 108, "trialdata": {"rt": -1, "trial_type": "single-stim", "stimulus": "<p id=\"stim\">8</p>", "internal_node_id": "0.0-79.0-2.0", "time_elapsed": 654970, "key_press": -1, "trial_index": 108}, "uniqueid": "MTK2285:39GHHAVOMGYSHY4ZE7WCQ3PEN874J9", "dateTime": 1516918345291}, {"current_trial": 109, "trialdata": {"rt": -1, "trial_type": "single-stim", "stimulus": "<p id=\"stim\">7</p>", "internal_node_id": "0.0-79.0-3.0", "time_elapsed": 655971, "key_press": -1, "trial_index": 109}, "uniqueid": "MTK2285:39GHHAVOMGYSHY4ZE7WCQ3PEN874J9", "dateTime": 1516918346292}, {"current_trial": 110, "trialdata": {"rt": -1, "trial_type": "single-stim", "stimulus": "<p id=\"stim\">6</p>", "internal_node_id": "0.0-79.0-4.0", "time_elapsed": 656972, "key_press": -1, "trial_index": 110}, "uniqueid": "MTK2285:39GHHAVOMGYSHY4ZE7WCQ3PEN874J9", "dateTime": 1516918347293}, {"current_trial": 111, "trialdata": {"rt": -1, "trial_type": "single-stim", "stimulus": "<p id=\"stim\">5</p>", "internal_node_id": "0.0-79.0-5.0", "time_elapsed": 657973, "key_press": -1, "trial_index": 111}, "uniqueid": "MTK2285:39GHHAVOMGYSHY4ZE7WCQ3PEN874J9", "dateTime": 1516918348295}, {"current_trial": 112, "trialdata": {"rt": -1, "trial_type": "single-stim", "stimulus": "<p id=\"stim\">4</p>", "internal_node_id": "0.0-79.0-6.0", "time_elapsed": 658975, "key_press": -1, "trial_index": 112}, "uniqueid": "MTK2285:39GHHAVOMGYSHY4ZE7WCQ3PEN874J9", "dateTime": 1516918349296}, {"current_trial": 113, "trialdata": {"rt": -1, "trial_type": "single-stim", "stimulus": "<p id=\"stim\">3</p>", "internal_node_id": "0.0-79.0-7.0", "time_elapsed": 659976, "key_press": -1, "trial_index": 113}, "uniqueid": "MTK2285:39GHHAVOMGYSHY4ZE7WCQ3PEN874J9", "dateTime": 1516918350297}, {"current_trial": 114, "trialdata": {"rt": -1, "trial_type": "single-stim", "stimulus": "<p id=\"stim\">2</p>", "internal_node_id": "0.0-79.0-8.0", "time_elapsed": 660977, "key_press": -1, "trial_index": 114}, "uniqueid": "MTK2285:39GHHAVOMGYSHY4ZE7WCQ3PEN874J9", "dateTime": 1516918351298}, {"current_trial": 115, "trialdata": {"rt": -1, "trial_type": "single-stim", "stimulus": "<p id=\"stim\">1</p>", "internal_node_id": "0.0-79.0-9.0", "time_elapsed": 661978, "key_press": -1, "trial_index": 115}, "uniqueid": "MTK2285:39GHHAVOMGYSHY4ZE7WCQ3PEN874J9", "dateTime": 1516918352299}, {"current_trial": 116, "trialdata": {"rt": -1, "trial_type": "single-stim", "stimulus": "<p id=\"stim\">+</p>", "internal_node_id": "0.0-80.0-0.0", "time_elapsed": 663479, "key_press": -1, "type": "FIXATION", "trial_index": 116}, "uniqueid": "MTK2285:39GHHAVOMGYSHY4ZE7WCQ3PEN874J9", "dateTime": 1516918353800}, {"current_trial": 117, "trialdata": {"rt": -1, "trial_type": "single-stim", "word": "chipmunk", "stimulus": "<p id=\"stim\">CHIPMUNK</p>", "conditions": [24, 800, "v", 24000], "internal_node_id": "0.0-81.0", "trial": 3, "time_elapsed": 664280, "serialpos": 0, "key_press": -1, "wordID": 303, "type": "PRES_VIS", "trial_index": 117}, "uniqueid": "MTK2285:39GHHAVOMGYSHY4ZE7WCQ3PEN874J9", "dateTime": 1516918354602}, {"current_trial": 118, "trialdata": {"rt": -1, "trial_type": "single-stim", "word": "elbow", "stimulus": "<p id=\"stim\">ELBOW</p>", "conditions": [24, 800, "v", 24000], "internal_node_id": "0.0-82.0", "trial": 3, "time_elapsed": 666217, "serialpos": 1, "key_press": -1, "wordID": 519, "type": "PRES_VIS", "trial_index": 118}, "uniqueid": "MTK2285:39GHHAVOMGYSHY4ZE7WCQ3PEN874J9", "dateTime": 1516918356538}, {"current_trial": 119, "trialdata": {"rt": -1, "trial_type": "single-stim", "word": "match", "stimulus": "<p id=\"stim\">MATCH</p>", "conditions": [24, 800, "v", 24000], "internal_node_id": "0.0-83.0", "trial": 3, "time_elapsed": 668170, "serialpos": 2, "key_press": -1, "wordID": 877, "type": "PRES_VIS", "trial_index": 119}, "uniqueid": "MTK2285:39GHHAVOMGYSHY4ZE7WCQ3PEN874J9", "dateTime": 1516918358491}, {"current_trial": 120, "trialdata": {"rt": -1, "trial_type": "single-stim", "word": "country", "stimulus": "<p id=\"stim\">COUNTRY</p>", "conditions": [24, 800, "v", 24000], "internal_node_id": "0.0-84.0", "trial": 3, "time_elapsed": 670166, "serialpos": 3, "key_press": -1, "wordID": 387, "type": "PRES_VIS", "trial_index": 120}, "uniqueid": "MTK2285:39GHHAVOMGYSHY4ZE7WCQ3PEN874J9", "dateTime": 1516918360488}, {"current_trial": 121, "trialdata": {"rt": -1, "trial_type": "single-stim", "word": "world", "stimulus": "<p id=\"stim\">WORLD</p>", "conditions": [24, 800, "v", 24000], "internal_node_id": "0.0-85.0", "trial": 3, "time_elapsed": 671829, "serialpos": 4, "key_press": -1, "wordID": 1621, "type": "PRES_VIS", "trial_index": 121}, "uniqueid": "MTK2285:39GHHAVOMGYSHY4ZE7WCQ3PEN874J9", "dateTime": 1516918362150}, {"current_trial": 122, "trialdata": {"rt": -1, "trial_type": "single-stim", "word": "beaver", "stimulus": "<p id=\"stim\">BEAVER</p>", "conditions": [24, 800, "v", 24000], "internal_node_id": "0.0-86.0", "trial": 3, "time_elapsed": 673602, "serialpos": 5, "key_press": -1, "wordID": 108, "type": "PRES_VIS", "trial_index": 122}, "uniqueid": "MTK2285:39GHHAVOMGYSHY4ZE7WCQ3PEN874J9", "dateTime": 1516918363923}, {"current_trial": 123, "trialdata": {"rt": -1, "trial_type": "single-stim", "word": "bubble", "stimulus": "<p id=\"stim\">BUBBLE</p>", "conditions": [24, 800, "v", 24000], "internal_node_id": "0.0-87.0", "trial": 3, "time_elapsed": 675570, "serialpos": 6, "key_press": -1, "wordID": 182, "type": "PRES_VIS", "trial_index": 123}, "uniqueid": "MTK2285:39GHHAVOMGYSHY4ZE7WCQ3PEN874J9", "dateTime": 1516918365892}, {"current_trial": 124, "trialdata": {"rt": -1, "trial_type": "single-stim", "word": "milk", "stimulus": "<p id=\"stim\">MILK</p>", "conditions": [24, 800, "v", 24000], "internal_node_id": "0.0-88.0", "trial": 3, "time_elapsed": 677277, "serialpos": 7, "key_press": -1, "wordID": 894, "type": "PRES_VIS", "trial_index": 124}, "uniqueid": "MTK2285:39GHHAVOMGYSHY4ZE7WCQ3PEN874J9", "dateTime": 1516918367598}, {"current_trial": 125, "trialdata": {"rt": -1, "trial_type": "single-stim", "word": "wrench", "stimulus": "<p id=\"stim\">WRENCH</p>", "conditions": [24, 800, "v", 24000], "internal_node_id": "0.0-89.0", "trial": 3, "time_elapsed": 679119, "serialpos": 8, "key_press": -1, "wordID": 1624, "type": "PRES_VIS", "trial_index": 125}, "uniqueid": "MTK2285:39GHHAVOMGYSHY4ZE7WCQ3PEN874J9", "dateTime": 1516918369440}, {"current_trial": 126, "trialdata": {"rt": -1, "trial_type": "single-stim", "word": "backbone", "stimulus": "<p id=\"stim\">BACKBONE</p>", "conditions": [24, 800, "v", 24000], "internal_node_id": "0.0-90.0", "trial": 3, "time_elapsed": 680890, "serialpos": 9, "key_press": -1, "wordID": 65, "type": "PRES_VIS", "trial_index": 126}, "uniqueid": "MTK2285:39GHHAVOMGYSHY4ZE7WCQ3PEN874J9", "dateTime": 1516918371211}, {"current_trial": 127, "trialdata": {"rt": -1, "trial_type": "single-stim", "word": "swamp", "stimulus": "<p id=\"stim\">SWAMP</p>", "conditions": [24, 800, "v", 24000], "internal_node_id": "0.0-91.0", "trial": 3, "time_elapsed": 682842, "serialpos": 10, "key_press": -1, "wordID": 1415, "type": "PRES_VIS", "trial_index": 127}, "uniqueid": "MTK2285:39GHHAVOMGYSHY4ZE7WCQ3PEN874J9", "dateTime": 1516918373164}, {"current_trial": 128, "trialdata": {"rt": -1, "trial_type": "single-stim", "word": "fruit", "stimulus": "<p id=\"stim\">FRUIT</p>", "conditions": [24, 800, "v", 24000], "internal_node_id": "0.0-92.0", "trial": 3, "time_elapsed": 684540, "serialpos": 11, "key_press": -1, "wordID": 609, "type": "PRES_VIS", "trial_index": 128}, "uniqueid": "MTK2285:39GHHAVOMGYSHY4ZE7WCQ3PEN874J9", "dateTime": 1516918374861}, {"current_trial": 129, "trialdata": {"rt": -1, "trial_type": "single-stim", "word": "brandy", "stimulus": "<p id=\"stim\">BRANDY</p>", "conditions": [24, 800, "v", 24000], "internal_node_id": "0.0-93.0", "trial": 3, "time_elapsed": 686410, "serialpos": 12, "key_press": -1, "wordID": 168, "type": "PRES_VIS", "trial_index": 129}, "uniqueid": "MTK2285:39GHHAVOMGYSHY4ZE7WCQ3PEN874J9", "dateTime": 1516918376731}, {"current_trial": 130, "trialdata": {"rt": -1, "trial_type": "single-stim", "word": "lunch", "stimulus": "<p id=\"stim\">LUNCH</p>", "conditions": [24, 800, "v", 24000], "internal_node_id": "0.0-94.0", "trial": 3, "time_elapsed": 688315, "serialpos": 13, "key_press": -1, "wordID": 848, "type": "PRES_VIS", "trial_index": 130}, "uniqueid": "MTK2285:39GHHAVOMGYSHY4ZE7WCQ3PEN874J9", "dateTime": 1516918378639}, {"current_trial": 131, "trialdata": {"rt": -1, "trial_type": "single-stim", "word": "washer", "stimulus": "<p id=\"stim\">WASHER</p>", "conditions": [24, 800, "v", 24000], "internal_node_id": "0.0-95.0", "trial": 3, "time_elapsed": 690088, "serialpos": 14, "key_press": -1, "wordID": 1591, "type": "PRES_VIS", "trial_index": 131}, "uniqueid": "MTK2285:39GHHAVOMGYSHY4ZE7WCQ3PEN874J9", "dateTime": 1516918380409}, {"current_trial": 132, "trialdata": {"rt": -1, "trial_type": "single-stim", "word": "leader", "stimulus": "<p id=\"stim\">LEADER</p>", "conditions": [24, 800, "v", 24000], "internal_node_id": "0.0-96.0", "trial": 3, "time_elapsed": 691848, "serialpos": 15, "key_press": -1, "wordID": 806, "type": "PRES_VIS", "trial_index": 132}, "uniqueid": "MTK2285:39GHHAVOMGYSHY4ZE7WCQ3PEN874J9", "dateTime": 1516918382169}, {"current_trial": 133, "trialdata": {"rt": -1, "trial_type": "single-stim", "word": "shirt", "stimulus": "<p id=\"stim\">SHIRT</p>", "conditions": [24, 800, "v", 24000], "internal_node_id": "0.0-97.0", "trial": 3, "time_elapsed": 693560, "serialpos": 16, "key_press": -1, "wordID": 1286, "type": "PRES_VIS", "trial_index": 133}, "uniqueid": "MTK2285:39GHHAVOMGYSHY4ZE7WCQ3PEN874J9", "dateTime": 1516918383881}, {"current_trial": 134, "trialdata": {"rt": -1, "trial_type": "single-stim", "word": "blade", "stimulus": "<p id=\"stim\">BLADE</p>", "conditions": [24, 800, "v", 24000], "internal_node_id": "0.0-98.0", "trial": 3, "time_elapsed": 695417, "serialpos": 17, "key_press": -1, "wordID": 133, "type": "PRES_VIS", "trial_index": 134}, "uniqueid": "MTK2285:39GHHAVOMGYSHY4ZE7WCQ3PEN874J9", "dateTime": 1516918385738}, {"current_trial": 135, "trialdata": {"rt": -1, "trial_type": "single-stim", "word": "kidney", "stimulus": "<p id=\"stim\">KIDNEY</p>", "conditions": [24, 800, "v", 24000], "internal_node_id": "0.0-99.0", "trial": 3, "time_elapsed": 697271, "serialpos": 18, "key_press": -1, "wordID": 775, "type": "PRES_VIS", "trial_index": 135}, "uniqueid": "MTK2285:39GHHAVOMGYSHY4ZE7WCQ3PEN874J9", "dateTime": 1516918387592}, {"current_trial": 136, "trialdata": {"rt": -1, "trial_type": "single-stim", "word": "cabbage", "stimulus": "<p id=\"stim\">CABBAGE</p>", "conditions": [24, 800, "v", 24000], "internal_node_id": "0.0-100.0", "trial": 3, "time_elapsed": 699000, "serialpos": 19, "key_press": -1, "wordID": 209, "type": "PRES_VIS", "trial_index": 136}, "uniqueid": "MTK2285:39GHHAVOMGYSHY4ZE7WCQ3PEN874J9", "dateTime": 1516918389321}, {"current_trial": 137, "trialdata": {"rt": -1, "trial_type": "single-stim", "word": "lettuce", "stimulus": "<p id=\"stim\">LETTUCE</p>", "conditions": [24, 800, "v", 24000], "internal_node_id": "0.0-101.0", "trial": 3, "time_elapsed": 700685, "serialpos": 20, "key_press": -1, "wordID": 813, "type": "PRES_VIS", "trial_index": 137}, "uniqueid": "MTK2285:39GHHAVOMGYSHY4ZE7WCQ3PEN874J9", "dateTime": 1516918391006}, {"current_trial": 138, "trialdata": {"rt": -1, "trial_type": "single-stim", "word": "mister", "stimulus": "<p id=\"stim\">MISTER</p>", "conditions": [24, 800, "v", 24000], "internal_node_id": "0.0-102.0", "trial": 3, "time_elapsed": 702614, "serialpos": 21, "key_press": -1, "wordID": 900, "type": "PRES_VIS", "trial_index": 138}, "uniqueid": "MTK2285:39GHHAVOMGYSHY4ZE7WCQ3PEN874J9", "dateTime": 1516918392935}, {"current_trial": 139, "trialdata": {"rt": -1, "trial_type": "single-stim", "word": "egypt", "stimulus": "<p id=\"stim\">EGYPT</p>", "conditions": [24, 800, "v", 24000], "internal_node_id": "0.0-103.0", "trial": 3, "time_elapsed": 704420, "serialpos": 22, "key_press": -1, "wordID": 518, "type": "PRES_VIS", "trial_index": 139}, "uniqueid": "MTK2285:39GHHAVOMGYSHY4ZE7WCQ3PEN874J9", "dateTime": 1516918394741}, {"current_trial": 140, "trialdata": {"rt": -1, "trial_type": "single-stim", "word": "scotch", "stimulus": "<p id=\"stim\">SCOTCH</p>", "conditions": [24, 800, "v", 24000], "internal_node_id": "0.0-104.0", "trial": 3, "time_elapsed": 706096, "serialpos": 23, "key_press": -1, "wordID": 1250, "type": "PRES_VIS", "trial_index": 140}, "uniqueid": "MTK2285:39GHHAVOMGYSHY4ZE7WCQ3PEN874J9", "dateTime": 1516918396417}, {"current_trial": 141, "trialdata": {"rt": -1, "trial_type": "single-stim", "stimulus": "", "internal_node_id": "0.0-105.0-0.0", "time_elapsed": 708467, "key_press": -1, "type": "PRE_RECALL_DELAY", "trial_index": 141}, "uniqueid": "MTK2285:39GHHAVOMGYSHY4ZE7WCQ3PEN874J9", "dateTime": 1516918398788}, {"current_trial": 142, "trialdata": {"rt": -1000, "trial_type": "single-audio", "stimulus": "/static/audio/400Hz.wav", "internal_node_id": "0.0-106.0", "time_elapsed": 708968, "key_press": -1, "type": "PRE_RECALL_ALERT", "trial_index": 142}, "uniqueid": "MTK2285:39GHHAVOMGYSHY4ZE7WCQ3PEN874J9", "dateTime": 1516918399289}, {"current_trial": 143, "trialdata": {"rt": [3896, 5280, 7891, 9290, 12355, 14720, 16286, 17528, 35615, 45618], "recwords": ["chipmunk", "elbo", "country", "world", "scotch", "milk", "wrench", "washer", "sink", "mister"], "key_times": [824, 910, 1078, 1350, 1818, 2329, 2650, 3023, 3259, 3445, 3896, 4264, 4404, 4749, 4892, 5280, 6476, 6838, 6950, 7134, 7211, 7406, 7608, 7891, 8302, 8493, 8591, 8785, 8895, 9290, 10313, 10552, 10682, 10819, 11125, 11213, 12355, 13792, 13930, 14261, 14490, 14720, 15215, 15393, 15472, 15782, 15956, 16039, 16286, 16441, 16661, 16856, 16933, 17080, 17211, 17528, 34978, 35050, 35190, 35350, 35615, 44853, 45031, 45101, 45232, 45390, 45499, 45618], "trial_type": "free-recall", "conditions": [24, 800, "v", 24000], "internal_node_id": "0.0-107.0-0.0", "key_presses": [67, 72, 73, 77, 8, 80, 77, 85, 78, 75, 13, 69, 76, 66, 79, 13, 67, 79, 85, 78, 84, 82, 89, 13, 87, 79, 82, 76, 68, 13, 83, 67, 79, 84, 67, 72, 13, 77, 73, 76, 75, 13, 87, 82, 69, 78, 67, 72, 13, 87, 65, 83, 72, 69, 82, 13, 83, 73, 78, 75, 13, 77, 73, 83, 84, 69, 82, 13], "trial": 3, "time_elapsed": 768971, "type": "FREE_RECALL", "trial_index": 143}, "uniqueid": "MTK2285:39GHHAVOMGYSHY4ZE7WCQ3PEN874J9", "dateTime": 1516918459296}, {"current_trial": 144, "trialdata": {"rt": 1306, "trial_type": "text", "internal_node_id": "0.0-108.0", "time_elapsed": 772282, "key_press": 32, "type": "INSTRUCTIONS", "trial_index": 144}, "uniqueid": "MTK2285:39GHHAVOMGYSHY4ZE7WCQ3PEN874J9", "dateTime": 1516918462603}, {"current_trial": 145, "trialdata": {"rt": [3378, 5413, 8744, 11238], "trial_type": "math-distractor", "key_times": [2801, 3241, 3378, 4912, 5107, 5413, 8338, 8541, 8744, 10862, 11032, 11238], "responses": ["16", "13", "19", "11"], "num2": [3, 9, 2, 1, 3], "num3": [5, 2, 9, 8, 4], "conditions": [12, 1600, "v", 12000], "internal_node_id": "0.0-109.0", "key_presses": [49, 54, 13, 49, 51, 13, 49, 57, 13, 49, 49, 13], "trial": 4, "time_elapsed": 786285, "type": "DISTRACTOR", "trial_index": 145, "num1": [8, 2, 8, 2, 8]}, "uniqueid": "MTK2285:39GHHAVOMGYSHY4ZE7WCQ3PEN874J9", "dateTime": 1516918476606}, {"current_trial": 146, "trialdata": {"rt": -1, "trial_type": "single-stim", "stimulus": "<p id=\"stim\">10</p>", "internal_node_id": "0.0-110.0-0.0", "time_elapsed": 789286, "key_press": -1, "trial_index": 146}, "uniqueid": "MTK2285:39GHHAVOMGYSHY4ZE7WCQ3PEN874J9", "dateTime": 1516918479607}, {"current_trial": 147, "trialdata": {"rt": -1, "trial_type": "single-stim", "stimulus": "<p id=\"stim\">9</p>", "internal_node_id": "0.0-110.0-1.0", "time_elapsed": 790287, "key_press": -1, "trial_index": 147}, "uniqueid": "MTK2285:39GHHAVOMGYSHY4ZE7WCQ3PEN874J9", "dateTime": 1516918480608}, {"current_trial": 148, "trialdata": {"rt": -1, "trial_type": "single-stim", "stimulus": "<p id=\"stim\">8</p>", "internal_node_id": "0.0-110.0-2.0", "time_elapsed": 791288, "key_press": -1, "trial_index": 148}, "uniqueid": "MTK2285:39GHHAVOMGYSHY4ZE7WCQ3PEN874J9", "dateTime": 1516918481609}, {"current_trial": 149, "trialdata": {"rt": -1, "trial_type": "single-stim", "stimulus": "<p id=\"stim\">7</p>", "internal_node_id": "0.0-110.0-3.0", "time_elapsed": 792289, "key_press": -1, "trial_index": 149}, "uniqueid": "MTK2285:39GHHAVOMGYSHY4ZE7WCQ3PEN874J9", "dateTime": 1516918482610}, {"current_trial": 150, "trialdata": {"rt": -1, "trial_type": "single-stim", "stimulus": "<p id=\"stim\">6</p>", "internal_node_id": "0.0-110.0-4.0", "time_elapsed": 793290, "key_press": -1, "trial_index": 150}, "uniqueid": "MTK2285:39GHHAVOMGYSHY4ZE7WCQ3PEN874J9", "dateTime": 1516918483611}, {"current_trial": 151, "trialdata": {"rt": -1, "trial_type": "single-stim", "stimulus": "<p id=\"stim\">5</p>", "internal_node_id": "0.0-110.0-5.0", "time_elapsed": 794291, "key_press": -1, "trial_index": 151}, "uniqueid": "MTK2285:39GHHAVOMGYSHY4ZE7WCQ3PEN874J9", "dateTime": 1516918484612}, {"current_trial": 152, "trialdata": {"rt": -1, "trial_type": "single-stim", "stimulus": "<p id=\"stim\">4</p>", "internal_node_id": "0.0-110.0-6.0", "time_elapsed": 795292, "key_press": -1, "trial_index": 152}, "uniqueid": "MTK2285:39GHHAVOMGYSHY4ZE7WCQ3PEN874J9", "dateTime": 1516918485613}, {"current_trial": 153, "trialdata": {"rt": -1, "trial_type": "single-stim", "stimulus": "<p id=\"stim\">3</p>", "internal_node_id": "0.0-110.0-7.0", "time_elapsed": 796293, "key_press": -1, "trial_index": 153}, "uniqueid": "MTK2285:39GHHAVOMGYSHY4ZE7WCQ3PEN874J9", "dateTime": 1516918486614}, {"current_trial": 154, "trialdata": {"rt": -1, "trial_type": "single-stim", "stimulus": "<p id=\"stim\">2</p>", "internal_node_id": "0.0-110.0-8.0", "time_elapsed": 797294, "key_press": -1, "trial_index": 154}, "uniqueid": "MTK2285:39GHHAVOMGYSHY4ZE7WCQ3PEN874J9", "dateTime": 1516918487615}, {"current_trial": 155, "trialdata": {"rt": -1, "trial_type": "single-stim", "stimulus": "<p id=\"stim\">1</p>", "internal_node_id": "0.0-110.0-9.0", "time_elapsed": 798295, "key_press": -1, "trial_index": 155}, "uniqueid": "MTK2285:39GHHAVOMGYSHY4ZE7WCQ3PEN874J9", "dateTime": 1516918488616}, {"current_trial": 156, "trialdata": {"rt": -1, "trial_type": "single-stim", "stimulus": "<p id=\"stim\">+</p>", "internal_node_id": "0.0-111.0-0.0", "time_elapsed": 799796, "key_press": -1, "type": "FIXATION", "trial_index": 156}, "uniqueid": "MTK2285:39GHHAVOMGYSHY4ZE7WCQ3PEN874J9", "dateTime": 1516918490117}, {"current_trial": 157, "trialdata": {"rt": -1, "trial_type": "single-stim", "word": "penguin", "stimulus": "<p id=\"stim\">PENGUIN</p>", "conditions": [12, 1600, "v", 12000], "internal_node_id": "0.0-112.0", "trial": 4, "time_elapsed": 801397, "serialpos": 0, "key_press": -1, "wordID": 1043, "type": "PRES_VIS", "trial_index": 157}, "uniqueid": "MTK2285:39GHHAVOMGYSHY4ZE7WCQ3PEN874J9", "dateTime": 1516918491718}, {"current_trial": 158, "trialdata": {"rt": -1, "trial_type": "single-stim", "word": "turtle", "stimulus": "<p id=\"stim\">TURTLE</p>", "conditions": [12, 1600, "v", 12000], "internal_node_id": "0.0-113.0", "trial": 4, "time_elapsed": 803828, "serialpos": 1, "key_press": -1, "wordID": 1521, "type": "PRES_VIS", "trial_index": 158}, "uniqueid": "MTK2285:39GHHAVOMGYSHY4ZE7WCQ3PEN874J9", "dateTime": 1516918494149}, {"current_trial": 159, "trialdata": {"rt": -1, "trial_type": "single-stim", "word": "bank", "stimulus": "<p id=\"stim\">BANK</p>", "conditions": [12, 1600, "v", 12000], "internal_node_id": "0.0-114.0", "trial": 4, "time_elapsed": 806352, "serialpos": 2, "key_press": -1, "wordID": 82, "type": "PRES_VIS", "trial_index": 159}, "uniqueid": "MTK2285:39GHHAVOMGYSHY4ZE7WCQ3PEN874J9", "dateTime": 1516918496673}, {"current_trial": 160, "trialdata": {"rt": -1, "trial_type": "single-stim", "word": "monster", "stimulus": "<p id=\"stim\">MONSTER</p>", "conditions": [12, 1600, "v", 12000], "internal_node_id": "0.0-115.0", "trial": 4, "time_elapsed": 808880, "serialpos": 3, "key_press": -1, "wordID": 911, "type": "PRES_VIS", "trial_index": 160}, "uniqueid": "MTK2285:39GHHAVOMGYSHY4ZE7WCQ3PEN874J9", "dateTime": 1516918499202}, {"current_trial": 161, "trialdata": {"rt": -1, "trial_type": "single-stim", "word": "daisy", "stimulus": "<p id=\"stim\">DAISY</p>", "conditions": [12, 1600, "v", 12000], "internal_node_id": "0.0-116.0", "trial": 4, "time_elapsed": 811409, "serialpos": 4, "key_press": -1, "wordID": 434, "type": "PRES_VIS", "trial_index": 161}, "uniqueid": "MTK2285:39GHHAVOMGYSHY4ZE7WCQ3PEN874J9", "dateTime": 1516918501730}, {"current_trial": 162, "trialdata": {"rt": -1, "trial_type": "single-stim", "word": "radish", "stimulus": "<p id=\"stim\">RADISH</p>", "conditions": [12, 1600, "v", 12000], "internal_node_id": "0.0-117.0", "trial": 4, "time_elapsed": 813965, "serialpos": 5, "key_press": -1, "wordID": 1157, "type": "PRES_VIS", "trial_index": 162}, "uniqueid": "MTK2285:39GHHAVOMGYSHY4ZE7WCQ3PEN874J9", "dateTime": 1516918504286}, {"current_trial": 163, "trialdata": {"rt": -1, "trial_type": "single-stim", "word": "wagon", "stimulus": "<p id=\"stim\">WAGON</p>", "conditions": [12, 1600, "v", 12000], "internal_node_id": "0.0-118.0", "trial": 4, "time_elapsed": 816652, "serialpos": 6, "key_press": -1, "wordID": 1577, "type": "PRES_VIS", "trial_index": 163}, "uniqueid": "MTK2285:39GHHAVOMGYSHY4ZE7WCQ3PEN874J9", "dateTime": 1516918506974}, {"current_trial": 164, "trialdata": {"rt": -1, "trial_type": "single-stim", "word": "plaster", "stimulus": "<p id=\"stim\">PLASTER</p>", "conditions": [12, 1600, "v", 12000], "internal_node_id": "0.0-119.0", "trial": 4, "time_elapsed": 819434, "serialpos": 7, "key_press": -1, "wordID": 1084, "type": "PRES_VIS", "trial_index": 164}, "uniqueid": "MTK2285:39GHHAVOMGYSHY4ZE7WCQ3PEN874J9", "dateTime": 1516918509755}, {"current_trial": 165, "trialdata": {"rt": -1, "trial_type": "single-stim", "word": "snake", "stimulus": "<p id=\"stim\">SNAKE</p>", "conditions": [12, 1600, "v", 12000], "internal_node_id": "0.0-120.0", "trial": 4, "time_elapsed": 821908, "serialpos": 8, "key_press": -1, "wordID": 1332, "type": "PRES_VIS", "trial_index": 165}, "uniqueid": "MTK2285:39GHHAVOMGYSHY4ZE7WCQ3PEN874J9", "dateTime": 1516918512229}, {"current_trial": 166, "trialdata": {"rt": -1, "trial_type": "single-stim", "word": "snack", "stimulus": "<p id=\"stim\">SNACK</p>", "conditions": [12, 1600, "v", 12000], "internal_node_id": "0.0-121.0", "trial": 4, "time_elapsed": 824449, "serialpos": 9, "key_press": -1, "wordID": 1330, "type": "PRES_VIS", "trial_index": 166}, "uniqueid": "MTK2285:39GHHAVOMGYSHY4ZE7WCQ3PEN874J9", "dateTime": 1516918514770}, {"current_trial": 167, "trialdata": {"rt": -1, "trial_type": "single-stim", "word": "witness", "stimulus": "<p id=\"stim\">WITNESS</p>", "conditions": [12, 1600, "v", 12000], "internal_node_id": "0.0-122.0", "trial": 4, "time_elapsed": 826874, "serialpos": 10, "key_press": -1, "wordID": 1617, "type": "PRES_VIS", "trial_index": 167}, "uniqueid": "MTK2285:39GHHAVOMGYSHY4ZE7WCQ3PEN874J9", "dateTime": 1516918517195}, {"current_trial": 168, "trialdata": {"rt": -1, "trial_type": "single-stim", "word": "banker", "stimulus": "<p id=\"stim\">BANKER</p>", "conditions": [12, 1600, "v", 12000], "internal_node_id": "0.0-123.0", "trial": 4, "time_elapsed": 829354, "serialpos": 11, "key_press": -1, "wordID": 83, "type": "PRES_VIS", "trial_index": 168}, "uniqueid": "MTK2285:39GHHAVOMGYSHY4ZE7WCQ3PEN874J9", "dateTime": 1516918519675}, {"current_trial": 169, "trialdata": {"rt": -1, "trial_type": "single-stim", "stimulus": "", "internal_node_id": "0.0-124.0-0.0", "time_elapsed": 831751, "key_press": -1, "type": "PRE_RECALL_DELAY", "trial_index": 169}, "uniqueid": "MTK2285:39GHHAVOMGYSHY4ZE7WCQ3PEN874J9", "dateTime": 1516918522072}, {"current_trial": 170, "trialdata": {"rt": -1000, "trial_type": "single-audio", "stimulus": "/static/audio/400Hz.wav", "internal_node_id": "0.0-125.0", "time_elapsed": 832252, "key_press": -1, "type": "PRE_RECALL_ALERT", "trial_index": 170}, "uniqueid": "MTK2285:39GHHAVOMGYSHY4ZE7WCQ3PEN874J9", "dateTime": 1516918522573}, {"current_trial": 171, "trialdata": {"rt": [1694, 2627, 4178, 5502, 7314, 10106, 23105, 36110, 38668, 49899], "recwords": ["banker", "bank", "witness", "turtle", "penguin", "monster", "snack", "daisy", "plaster", "turtle"], "key_times": [793, 921, 1050, 1197, 1341, 1491, 1694, 1931, 2119, 2240, 2398, 2627, 2964, 3198, 3372, 3499, 3666, 3856, 4011, 4178, 4425, 4630, 4731, 5063, 5211, 5370, 5502, 6034, 6198, 6343, 6481, 6710, 6935, 7054, 7314, 7572, 7790, 7872, 8031, 8219, 8369, 8769, 8961, 9119, 9402, 9550, 9714, 9812, 10106, 21562, 21708, 21805, 22097, 22264, 23105, 35222, 35378, 35537, 35656, 35906, 36110, 36852, 37014, 37099, 37388, 37539, 37765, 37904, 38066, 38209, 38368, 38493, 38668, 47384, 47611, 47724, 47961, 48009, 48820, 49009, 49093, 49239, 49389, 49899], "trial_type": "free-recall", "conditions": [12, 1600, "v", 12000], "internal_node_id": "0.0-126.0-0.0", "key_presses": [66, 65, 78, 75, 69, 82, 13, 66, 65, 78, 75, 13, 87, 73, 84, 78, 69, 83, 83, 13, 84, 85, 82, 84, 76, 69, 13, 80, 69, 78, 71, 85, 73, 78, 13, 77, 79, 78, 84, 69, 82, 8, 8, 8, 83, 84, 69, 82, 13, 83, 78, 65, 67, 75, 13, 68, 65, 73, 83, 89, 13, 80, 65, 76, 8, 8, 76, 65, 83, 84, 69, 82, 13, 84, 85, 82, 76, 84, 8, 8, 84, 76, 69, 13], "trial": 4, "time_elapsed": 892255, "type": "FREE_RECALL", "trial_index": 171}, "uniqueid": "MTK2285:39GHHAVOMGYSHY4ZE7WCQ3PEN874J9", "dateTime": 1516918582579}, {"current_trial": 172, "trialdata": {"rt": 1466, "trial_type": "text", "internal_node_id": "0.0-127.0", "time_elapsed": 895725, "key_press": 32, "type": "INSTRUCTIONS", "trial_index": 172}, "uniqueid": "MTK2285:39GHHAVOMGYSHY4ZE7WCQ3PEN874J9", "dateTime": 1516918586047}, {"current_trial": 173, "trialdata": {"rt": [2702, 6797, 8952, 11917], "trial_type": "math-distractor", "key_times": [2096, 2339, 2702, 6134, 6601, 6797, 8403, 8541, 8952, 11486, 11697, 11917], "responses": ["17", "23", "14", "21"], "num2": [2, 7, 4, 7, 2], "num3": [8, 7, 2, 5, 1], "conditions": [12, 800, "v", 12000], "internal_node_id": "0.0-128.0", "key_presses": [49, 55, 13, 50, 51, 13, 49, 52, 13, 50, 49, 13], "trial": 5, "time_elapsed": 909728, "type": "DISTRACTOR", "trial_index": 173, "num1": [7, 9, 8, 9, 5]}, "uniqueid": "MTK2285:39GHHAVOMGYSHY4ZE7WCQ3PEN874J9", "dateTime": 1516918600049}, {"current_trial": 174, "trialdata": {"rt": -1, "trial_type": "single-stim", "stimulus": "<p id=\"stim\">10</p>", "internal_node_id": "0.0-129.0-0.0", "time_elapsed": 912729, "key_press": -1, "trial_index": 174}, "uniqueid": "MTK2285:39GHHAVOMGYSHY4ZE7WCQ3PEN874J9", "dateTime": 1516918603050}, {"current_trial": 175, "trialdata": {"rt": -1, "trial_type": "single-stim", "stimulus": "<p id=\"stim\">9</p>", "internal_node_id": "0.0-129.0-1.0", "time_elapsed": 913730, "key_press": -1, "trial_index": 175}, "uniqueid": "MTK2285:39GHHAVOMGYSHY4ZE7WCQ3PEN874J9", "dateTime": 1516918604051}, {"current_trial": 176, "trialdata": {"rt": -1, "trial_type": "single-stim", "stimulus": "<p id=\"stim\">8</p>", "internal_node_id": "0.0-129.0-2.0", "time_elapsed": 914731, "key_press": -1, "trial_index": 176}, "uniqueid": "MTK2285:39GHHAVOMGYSHY4ZE7WCQ3PEN874J9", "dateTime": 1516918605052}, {"current_trial": 177, "trialdata": {"rt": -1, "trial_type": "single-stim", "stimulus": "<p id=\"stim\">7</p>", "internal_node_id": "0.0-129.0-3.0", "time_elapsed": 915734, "key_press": -1, "trial_index": 177}, "uniqueid": "MTK2285:39GHHAVOMGYSHY4ZE7WCQ3PEN874J9", "dateTime": 1516918606055}, {"current_trial": 178, "trialdata": {"rt": -1, "trial_type": "single-stim", "stimulus": "<p id=\"stim\">6</p>", "internal_node_id": "0.0-129.0-4.0", "time_elapsed": 916735, "key_press": -1, "trial_index": 178}, "uniqueid": "MTK2285:39GHHAVOMGYSHY4ZE7WCQ3PEN874J9", "dateTime": 1516918607056}, {"current_trial": 179, "trialdata": {"rt": -1, "trial_type": "single-stim", "stimulus": "<p id=\"stim\">5</p>", "internal_node_id": "0.0-129.0-5.0", "time_elapsed": 917736, "key_press": -1, "trial_index": 179}, "uniqueid": "MTK2285:39GHHAVOMGYSHY4ZE7WCQ3PEN874J9", "dateTime": 1516918608057}, {"current_trial": 180, "trialdata": {"rt": -1, "trial_type": "single-stim", "stimulus": "<p id=\"stim\">4</p>", "internal_node_id": "0.0-129.0-6.0", "time_elapsed": 918737, "key_press": -1, "trial_index": 180}, "uniqueid": "MTK2285:39GHHAVOMGYSHY4ZE7WCQ3PEN874J9", "dateTime": 1516918609058}, {"current_trial": 181, "trialdata": {"rt": -1, "trial_type": "single-stim", "stimulus": "<p id=\"stim\">3</p>", "internal_node_id": "0.0-129.0-7.0", "time_elapsed": 919738, "key_press": -1, "trial_index": 181}, "uniqueid": "MTK2285:39GHHAVOMGYSHY4ZE7WCQ3PEN874J9", "dateTime": 1516918610059}, {"current_trial": 182, "trialdata": {"rt": -1, "trial_type": "single-stim", "stimulus": "<p id=\"stim\">2</p>", "internal_node_id": "0.0-129.0-8.0", "time_elapsed": 920739, "key_press": -1, "trial_index": 182}, "uniqueid": "MTK2285:39GHHAVOMGYSHY4ZE7WCQ3PEN874J9", "dateTime": 1516918611060}, {"current_trial": 183, "trialdata": {"rt": -1, "trial_type": "single-stim", "stimulus": "<p id=\"stim\">1</p>", "internal_node_id": "0.0-129.0-9.0", "time_elapsed": 921740, "key_press": -1, "trial_index": 183}, "uniqueid": "MTK2285:39GHHAVOMGYSHY4ZE7WCQ3PEN874J9", "dateTime": 1516918612061}, {"current_trial": 184, "trialdata": {"rt": -1, "trial_type": "single-stim", "stimulus": "<p id=\"stim\">+</p>", "internal_node_id": "0.0-130.0-0.0", "time_elapsed": 923241, "key_press": -1, "type": "FIXATION", "trial_index": 184}, "uniqueid": "MTK2285:39GHHAVOMGYSHY4ZE7WCQ3PEN874J9", "dateTime": 1516918613562}, {"current_trial": 185, "trialdata": {"rt": -1, "trial_type": "single-stim", "word": "panther", "stimulus": "<p id=\"stim\">PANTHER</p>", "conditions": [12, 800, "v", 12000], "internal_node_id": "0.0-131.0", "trial": 5, "time_elapsed": 924045, "serialpos": 0, "key_press": -1, "wordID": 1008, "type": "PRES_VIS", "trial_index": 185}, "uniqueid": "MTK2285:39GHHAVOMGYSHY4ZE7WCQ3PEN874J9", "dateTime": 1516918614366}, {"current_trial": 186, "trialdata": {"rt": -1, "trial_type": "single-stim", "word": "salt", "stimulus": "<p id=\"stim\">SALT</p>", "conditions": [12, 800, "v", 12000], "internal_node_id": "0.0-132.0", "trial": 5, "time_elapsed": 925799, "serialpos": 1, "key_press": -1, "wordID": 1228, "type": "PRES_VIS", "trial_index": 186}, "uniqueid": "MTK2285:39GHHAVOMGYSHY4ZE7WCQ3PEN874J9", "dateTime": 1516918616121}, {"current_trial": 187, "trialdata": {"rt": -1, "trial_type": "single-stim", "word": "shoulder", "stimulus": "<p id=\"stim\">SHOULDER</p>", "conditions": [12, 800, "v", 12000], "internal_node_id": "0.0-133.0", "trial": 5, "time_elapsed": 927546, "serialpos": 2, "key_press": -1, "wordID": 1293, "type": "PRES_VIS", "trial_index": 187}, "uniqueid": "MTK2285:39GHHAVOMGYSHY4ZE7WCQ3PEN874J9", "dateTime": 1516918617870}, {"current_trial": 188, "trialdata": {"rt": -1, "trial_type": "single-stim", "word": "leg", "stimulus": "<p id=\"stim\">LEG</p>", "conditions": [12, 800, "v", 12000], "internal_node_id": "0.0-134.0", "trial": 5, "time_elapsed": 929318, "serialpos": 3, "key_press": -1, "wordID": 808, "type": "PRES_VIS", "trial_index": 188}, "uniqueid": "MTK2285:39GHHAVOMGYSHY4ZE7WCQ3PEN874J9", "dateTime": 1516918619640}, {"current_trial": 189, "trialdata": {"rt": -1, "trial_type": "single-stim", "word": "cowboy", "stimulus": "<p id=\"stim\">COWBOY</p>", "conditions": [12, 800, "v", 12000], "internal_node_id": "0.0-135.0", "trial": 5, "time_elapsed": 931319, "serialpos": 4, "key_press": -1, "wordID": 394, "type": "PRES_VIS", "trial_index": 189}, "uniqueid": "MTK2285:39GHHAVOMGYSHY4ZE7WCQ3PEN874J9", "dateTime": 1516918621640}, {"current_trial": 190, "trialdata": {"rt": -1, "trial_type": "single-stim", "word": "scarf", "stimulus": "<p id=\"stim\">SCARF</p>", "conditions": [12, 800, "v", 12000], "internal_node_id": "0.0-136.0", "trial": 5, "time_elapsed": 932978, "serialpos": 5, "key_press": -1, "wordID": 1245, "type": "PRES_VIS", "trial_index": 190}, "uniqueid": "MTK2285:39GHHAVOMGYSHY4ZE7WCQ3PEN874J9", "dateTime": 1516918623299}, {"current_trial": 191, "trialdata": {"rt": -1, "trial_type": "single-stim", "word": "rifle", "stimulus": "<p id=\"stim\">RIFLE</p>", "conditions": [12, 800, "v", 12000], "internal_node_id": "0.0-137.0", "trial": 5, "time_elapsed": 934796, "serialpos": 6, "key_press": -1, "wordID": 1191, "type": "PRES_VIS", "trial_index": 191}, "uniqueid": "MTK2285:39GHHAVOMGYSHY4ZE7WCQ3PEN874J9", "dateTime": 1516918625118}, {"current_trial": 192, "trialdata": {"rt": -1, "trial_type": "single-stim", "word": "pistol", "stimulus": "<p id=\"stim\">PISTOL</p>", "conditions": [12, 800, "v", 12000], "internal_node_id": "0.0-138.0", "trial": 5, "time_elapsed": 936577, "serialpos": 7, "key_press": -1, "wordID": 1074, "type": "PRES_VIS", "trial_index": 192}, "uniqueid": "MTK2285:39GHHAVOMGYSHY4ZE7WCQ3PEN874J9", "dateTime": 1516918626898}, {"current_trial": 193, "trialdata": {"rt": -1, "trial_type": "single-stim", "word": "blouse", "stimulus": "<p id=\"stim\">BLOUSE</p>", "conditions": [12, 800, "v", 12000], "internal_node_id": "0.0-139.0", "trial": 5, "time_elapsed": 938244, "serialpos": 8, "key_press": -1, "wordID": 138, "type": "PRES_VIS", "trial_index": 193}, "uniqueid": "MTK2285:39GHHAVOMGYSHY4ZE7WCQ3PEN874J9", "dateTime": 1516918628565}, {"current_trial": 194, "trialdata": {"rt": -1, "trial_type": "single-stim", "word": "pebble", "stimulus": "<p id=\"stim\">PEBBLE</p>", "conditions": [12, 800, "v", 12000], "internal_node_id": "0.0-140.0", "trial": 5, "time_elapsed": 940005, "serialpos": 9, "key_press": -1, "wordID": 1034, "type": "PRES_VIS", "trial_index": 194}, "uniqueid": "MTK2285:39GHHAVOMGYSHY4ZE7WCQ3PEN874J9", "dateTime": 1516918630326}, {"current_trial": 195, "trialdata": {"rt": -1, "trial_type": "single-stim", "word": "omelet", "stimulus": "<p id=\"stim\">OMELET</p>", "conditions": [12, 800, "v", 12000], "internal_node_id": "0.0-141.0", "trial": 5, "time_elapsed": 941820, "serialpos": 10, "key_press": -1, "wordID": 975, "type": "PRES_VIS", "trial_index": 195}, "uniqueid": "MTK2285:39GHHAVOMGYSHY4ZE7WCQ3PEN874J9", "dateTime": 1516918632141}, {"current_trial": 196, "trialdata": {"rt": -1, "trial_type": "single-stim", "word": "glass", "stimulus": "<p id=\"stim\">GLASS</p>", "conditions": [12, 800, "v", 12000], "internal_node_id": "0.0-142.0", "trial": 5, "time_elapsed": 943636, "serialpos": 11, "key_press": -1, "wordID": 638, "type": "PRES_VIS", "trial_index": 196}, "uniqueid": "MTK2285:39GHHAVOMGYSHY4ZE7WCQ3PEN874J9", "dateTime": 1516918633957}, {"current_trial": 197, "trialdata": {"rt": -1, "trial_type": "single-stim", "stimulus": "", "internal_node_id": "0.0-143.0-0.0", "time_elapsed": 946103, "key_press": -1, "type": "PRE_RECALL_DELAY", "trial_index": 197}, "uniqueid": "MTK2285:39GHHAVOMGYSHY4ZE7WCQ3PEN874J9", "dateTime": 1516918636425}, {"current_trial": 198, "trialdata": {"rt": -1000, "trial_type": "single-audio", "stimulus": "/static/audio/400Hz.wav", "internal_node_id": "0.0-144.0", "time_elapsed": 946605, "key_press": -1, "type": "PRE_RECALL_ALERT", "trial_index": 198}, "uniqueid": "MTK2285:39GHHAVOMGYSHY4ZE7WCQ3PEN874J9", "dateTime": 1516918636926}, {"current_trial": 199, "trialdata": {"rt": [3436, 6051, 7361, 9020, 10753, 12348, 14159], "recwords": ["panther", "blouse", "rifle", "pistol", "leg", "salt", "shoulder"], "key_times": [1418, 1631, 1863, 1932, 2242, 2415, 2637, 2753, 2926, 3091, 3209, 3436, 4254, 4560, 4768, 4887, 5086, 5249, 5417, 5569, 6051, 6282, 6438, 6913, 7012, 7133, 7361, 7653, 7848, 7978, 8112, 8236, 8491, 9020, 10236, 10319, 10513, 10753, 11607, 11792, 11901, 12199, 12348, 12582, 12934, 13069, 13215, 13439, 13565, 13758, 13876, 14159], "trial_type": "free-recall", "conditions": [12, 800, "v", 12000], "internal_node_id": "0.0-145.0-0.0", "key_presses": [80, 65, 84, 72, 8, 8, 78, 84, 72, 69, 82, 13, 80, 8, 66, 76, 79, 85, 83, 69, 13, 82, 73, 70, 76, 69, 13, 80, 73, 83, 84, 79, 76, 13, 76, 69, 71, 13, 83, 65, 76, 84, 13, 83, 72, 79, 85, 76, 68, 69, 82, 13], "trial": 5, "time_elapsed": 1006608, "type": "FREE_RECALL", "trial_index": 199}, "uniqueid": "MTK2285:39GHHAVOMGYSHY4ZE7WCQ3PEN874J9", "dateTime": 1516918696934}, {"current_trial": 200, "trialdata": {"rt": 1075, "trial_type": "text", "internal_node_id": "0.0-146.0", "time_elapsed": 1009688, "key_press": 32, "type": "INSTRUCTIONS", "trial_index": 200}, "uniqueid": "MTK2285:39GHHAVOMGYSHY4ZE7WCQ3PEN874J9", "dateTime": 1516918700009}, {"current_trial": 201, "trialdata": {"rt": [6272, 8154, 10101, 14951, 16937, 21159], "trial_type": "math-distractor", "key_times": [5197, 5678, 5925, 6272, 7771, 7945, 8154, 9738, 9893, 10101, 14358, 14639, 14951, 16597, 16736, 16937, 20786, 21159, 23731], "responses": ["9", "13", "13", "17", "14", "9"], "num2": [3, 1, 9, 5, 6, 4, 5], "num3": [2, 3, 3, 3, 2, 3, 4], "conditions": [12, 800, "v", 24000], "internal_node_id": "0.0-147.0", "key_presses": [56, 8, 57, 13, 49, 51, 13, 49, 51, 13, 49, 55, 13, 49, 52, 13, 57, 13, 49], "trial": 6, "time_elapsed": 1035691, "type": "DISTRACTOR", "trial_index": 201, "num1": [4, 9, 1, 9, 6, 2, 9]}, "uniqueid": "MTK2285:39GHHAVOMGYSHY4ZE7WCQ3PEN874J9", "dateTime": 1516918726012}, {"current_trial": 202, "trialdata": {"rt": -1, "trial_type": "single-stim", "stimulus": "<p id=\"stim\">10</p>", "internal_node_id": "0.0-148.0-0.0", "time_elapsed": 1038692, "key_press": -1, "trial_index": 202}, "uniqueid": "MTK2285:39GHHAVOMGYSHY4ZE7WCQ3PEN874J9", "dateTime": 1516918729013}, {"current_trial": 203, "trialdata": {"rt": -1, "trial_type": "single-stim", "stimulus": "<p id=\"stim\">9</p>", "internal_node_id": "0.0-148.0-1.0", "time_elapsed": 1039693, "key_press": -1, "trial_index": 203}, "uniqueid": "MTK2285:39GHHAVOMGYSHY4ZE7WCQ3PEN874J9", "dateTime": 1516918730015}, {"current_trial": 204, "trialdata": {"rt": -1, "trial_type": "single-stim", "stimulus": "<p id=\"stim\">8</p>", "internal_node_id": "0.0-148.0-2.0", "time_elapsed": 1040695, "key_press": -1, "trial_index": 204}, "uniqueid": "MTK2285:39GHHAVOMGYSHY4ZE7WCQ3PEN874J9", "dateTime": 1516918731016}, {"current_trial": 205, "trialdata": {"rt": -1, "trial_type": "single-stim", "stimulus": "<p id=\"stim\">7</p>", "internal_node_id": "0.0-148.0-3.0", "time_elapsed": 1041695, "key_press": -1, "trial_index": 205}, "uniqueid": "MTK2285:39GHHAVOMGYSHY4ZE7WCQ3PEN874J9", "dateTime": 1516918732016}, {"current_trial": 206, "trialdata": {"rt": -1, "trial_type": "single-stim", "stimulus": "<p id=\"stim\">6</p>", "internal_node_id": "0.0-148.0-4.0", "time_elapsed": 1042696, "key_press": -1, "trial_index": 206}, "uniqueid": "MTK2285:39GHHAVOMGYSHY4ZE7WCQ3PEN874J9", "dateTime": 1516918733017}, {"current_trial": 207, "trialdata": {"rt": -1, "trial_type": "single-stim", "stimulus": "<p id=\"stim\">5</p>", "internal_node_id": "0.0-148.0-5.0", "time_elapsed": 1043697, "key_press": -1, "trial_index": 207}, "uniqueid": "MTK2285:39GHHAVOMGYSHY4ZE7WCQ3PEN874J9", "dateTime": 1516918734018}, {"current_trial": 208, "trialdata": {"rt": -1, "trial_type": "single-stim", "stimulus": "<p id=\"stim\">4</p>", "internal_node_id": "0.0-148.0-6.0", "time_elapsed": 1044698, "key_press": -1, "trial_index": 208}, "uniqueid": "MTK2285:39GHHAVOMGYSHY4ZE7WCQ3PEN874J9", "dateTime": 1516918735020}, {"current_trial": 209, "trialdata": {"rt": -1, "trial_type": "single-stim", "stimulus": "<p id=\"stim\">3</p>", "internal_node_id": "0.0-148.0-7.0", "time_elapsed": 1045699, "key_press": -1, "trial_index": 209}, "uniqueid": "MTK2285:39GHHAVOMGYSHY4ZE7WCQ3PEN874J9", "dateTime": 1516918736020}, {"current_trial": 210, "trialdata": {"rt": -1, "trial_type": "single-stim", "stimulus": "<p id=\"stim\">2</p>", "internal_node_id": "0.0-148.0-8.0", "time_elapsed": 1046700, "key_press": -1, "trial_index": 210}, "uniqueid": "MTK2285:39GHHAVOMGYSHY4ZE7WCQ3PEN874J9", "dateTime": 1516918737022}, {"current_trial": 211, "trialdata": {"rt": -1, "trial_type": "single-stim", "stimulus": "<p id=\"stim\">1</p>", "internal_node_id": "0.0-148.0-9.0", "time_elapsed": 1047701, "key_press": -1, "trial_index": 211}, "uniqueid": "MTK2285:39GHHAVOMGYSHY4ZE7WCQ3PEN874J9", "dateTime": 1516918738022}, {"current_trial": 212, "trialdata": {"rt": -1, "trial_type": "single-stim", "stimulus": "<p id=\"stim\">+</p>", "internal_node_id": "0.0-149.0-0.0", "time_elapsed": 1049202, "key_press": -1, "type": "FIXATION", "trial_index": 212}, "uniqueid": "MTK2285:39GHHAVOMGYSHY4ZE7WCQ3PEN874J9", "dateTime": 1516918739524}, {"current_trial": 213, "trialdata": {"rt": -1, "trial_type": "single-stim", "word": "pecan", "stimulus": "<p id=\"stim\">PECAN</p>", "conditions": [12, 800, "v", 24000], "internal_node_id": "0.0-150.0", "trial": 6, "time_elapsed": 1050004, "serialpos": 0, "key_press": -1, "wordID": 1035, "type": "PRES_VIS", "trial_index": 213}, "uniqueid": "MTK2285:39GHHAVOMGYSHY4ZE7WCQ3PEN874J9", "dateTime": 1516918740325}, {"current_trial": 214, "trialdata": {"rt": -1, "trial_type": "single-stim", "word": "army", "stimulus": "<p id=\"stim\">ARMY</p>", "conditions": [12, 800, "v", 24000], "internal_node_id": "0.0-151.0", "trial": 6, "time_elapsed": 1051906, "serialpos": 1, "key_press": -1, "wordID": 38, "type": "PRES_VIS", "trial_index": 214}, "uniqueid": "MTK2285:39GHHAVOMGYSHY4ZE7WCQ3PEN874J9", "dateTime": 1516918742227}, {"current_trial": 215, "trialdata": {"rt": -1, "trial_type": "single-stim", "word": "truck", "stimulus": "<p id=\"stim\">TRUCK</p>", "conditions": [12, 800, "v", 24000], "internal_node_id": "0.0-152.0", "trial": 6, "time_elapsed": 1053771, "serialpos": 2, "key_press": -1, "wordID": 1511, "type": "PRES_VIS", "trial_index": 215}, "uniqueid": "MTK2285:39GHHAVOMGYSHY4ZE7WCQ3PEN874J9", "dateTime": 1516918744092}, {"current_trial": 216, "trialdata": {"rt": -1, "trial_type": "single-stim", "word": "driver", "stimulus": "<p id=\"stim\">DRIVER</p>", "conditions": [12, 800, "v", 24000], "internal_node_id": "0.0-153.0", "trial": 6, "time_elapsed": 1055382, "serialpos": 3, "key_press": -1, "wordID": 498, "type": "PRES_VIS", "trial_index": 216}, "uniqueid": "MTK2285:39GHHAVOMGYSHY4ZE7WCQ3PEN874J9", "dateTime": 1516918745703}, {"current_trial": 217, "trialdata": {"rt": -1, "trial_type": "single-stim", "word": "queen", "stimulus": "<p id=\"stim\">QUEEN</p>", "conditions": [12, 800, "v", 24000], "internal_node_id": "0.0-154.0", "trial": 6, "time_elapsed": 1057051, "serialpos": 4, "key_press": -1, "wordID": 1148, "type": "PRES_VIS", "trial_index": 217}, "uniqueid": "MTK2285:39GHHAVOMGYSHY4ZE7WCQ3PEN874J9", "dateTime": 1516918747372}, {"current_trial": 218, "trialdata": {"rt": -1, "trial_type": "single-stim", "word": "peanut", "stimulus": "<p id=\"stim\">PEANUT</p>", "conditions": [12, 800, "v", 24000], "internal_node_id": "0.0-155.0", "trial": 6, "time_elapsed": 1058729, "serialpos": 5, "key_press": -1, "wordID": 1031, "type": "PRES_VIS", "trial_index": 218}, "uniqueid": "MTK2285:39GHHAVOMGYSHY4ZE7WCQ3PEN874J9", "dateTime": 1516918749050}, {"current_trial": 219, "trialdata": {"rt": -1, "trial_type": "single-stim", "word": "crown", "stimulus": "<p id=\"stim\">CROWN</p>", "conditions": [12, 800, "v", 24000], "internal_node_id": "0.0-156.0", "trial": 6, "time_elapsed": 1060457, "serialpos": 6, "key_press": -1, "wordID": 414, "type": "PRES_VIS", "trial_index": 219}, "uniqueid": "MTK2285:39GHHAVOMGYSHY4ZE7WCQ3PEN874J9", "dateTime": 1516918750778}, {"current_trial": 220, "trialdata": {"rt": -1, "trial_type": "single-stim", "word": "relish", "stimulus": "<p id=\"stim\">RELISH</p>", "conditions": [12, 800, "v", 24000], "internal_node_id": "0.0-157.0", "trial": 6, "time_elapsed": 1062147, "serialpos": 7, "key_press": -1, "wordID": 1182, "type": "PRES_VIS", "trial_index": 220}, "uniqueid": "MTK2285:39GHHAVOMGYSHY4ZE7WCQ3PEN874J9", "dateTime": 1516918752469}, {"current_trial": 221, "trialdata": {"rt": -1, "trial_type": "single-stim", "word": "lady", "stimulus": "<p id=\"stim\">LADY</p>", "conditions": [12, 800, "v", 24000], "internal_node_id": "0.0-158.0", "trial": 6, "time_elapsed": 1064085, "serialpos": 8, "key_press": -1, "wordID": 793, "type": "PRES_VIS", "trial_index": 221}, "uniqueid": "MTK2285:39GHHAVOMGYSHY4ZE7WCQ3PEN874J9", "dateTime": 1516918754406}, {"current_trial": 222, "trialdata": {"rt": -1, "trial_type": "single-stim", "word": "orchid", "stimulus": "<p id=\"stim\">ORCHID</p>", "conditions": [12, 800, "v", 24000], "internal_node_id": "0.0-159.0", "trial": 6, "time_elapsed": 1065773, "serialpos": 9, "key_press": -1, "wordID": 981, "type": "PRES_VIS", "trial_index": 222}, "uniqueid": "MTK2285:39GHHAVOMGYSHY4ZE7WCQ3PEN874J9", "dateTime": 1516918756094}, {"current_trial": 223, "trialdata": {"rt": -1, "trial_type": "single-stim", "word": "turnip", "stimulus": "<p id=\"stim\">TURNIP</p>", "conditions": [12, 800, "v", 24000], "internal_node_id": "0.0-160.0", "trial": 6, "time_elapsed": 1067452, "serialpos": 10, "key_press": -1, "wordID": 1520, "type": "PRES_VIS", "trial_index": 223}, "uniqueid": "MTK2285:39GHHAVOMGYSHY4ZE7WCQ3PEN874J9", "dateTime": 1516918757773}, {"current_trial": 224, "trialdata": {"rt": -1, "trial_type": "single-stim", "word": "girl", "stimulus": "<p id=\"stim\">GIRL</p>", "conditions": [12, 800, "v", 24000], "internal_node_id": "0.0-161.0", "trial": 6, "time_elapsed": 1069380, "serialpos": 11, "key_press": -1, "wordID": 636, "type": "PRES_VIS", "trial_index": 224}, "uniqueid": "MTK2285:39GHHAVOMGYSHY4ZE7WCQ3PEN874J9", "dateTime": 1516918759701}, {"current_trial": 225, "trialdata": {"rt": -1, "trial_type": "single-stim", "stimulus": "", "internal_node_id": "0.0-162.0-0.0", "time_elapsed": 1071784, "key_press": -1, "type": "PRE_RECALL_DELAY", "trial_index": 225}, "uniqueid": "MTK2285:39GHHAVOMGYSHY4ZE7WCQ3PEN874J9", "dateTime": 1516918762105}, {"current_trial": 226, "trialdata": {"rt": -1000, "trial_type": "single-audio", "stimulus": "/static/audio/400Hz.wav", "internal_node_id": "0.0-163.0", "time_elapsed": 1072285, "key_press": -1, "type": "PRE_RECALL_ALERT", "trial_index": 226}, "uniqueid": "MTK2285:39GHHAVOMGYSHY4ZE7WCQ3PEN874J9", "dateTime": 1516918762606}, {"current_trial": 227, "trialdata": {"rt": [2473, 3938, 5347, 7236, 8506, 10799, 13236, 16210, 18454, 21343], "recwords": ["pecan", "truck", "driver", "lady", "queen", "orchid", "girl", "army", "peanut", "relish"], "key_times": [1609, 1714, 1943, 2156, 2227, 2473, 3062, 3220, 3380, 3564, 3679, 3938, 4267, 4457, 4573, 4759, 4980, 5106, 5347, 6299, 6422, 6670, 6950, 7236, 7577, 7710, 7896, 8088, 8216, 8506, 9341, 9558, 9834, 9941, 10294, 10497, 10799, 11872, 12007, 12159, 12404, 13236, 15494, 15665, 15773, 15959, 16210, 17321, 17436, 17591, 17678, 17889, 17972, 18454, 20317, 20408, 20583, 20767, 20911, 21059, 21343], "trial_type": "free-recall", "conditions": [12, 800, "v", 24000], "internal_node_id": "0.0-164.0-0.0", "key_presses": [80, 69, 67, 65, 78, 13, 84, 82, 85, 67, 75, 13, 68, 82, 73, 86, 69, 82, 13, 76, 65, 68, 89, 13, 81, 85, 69, 69, 78, 32, 79, 82, 67, 72, 73, 68, 13, 71, 73, 82, 76, 13, 65, 82, 77, 89, 13, 80, 69, 65, 78, 85, 84, 13, 82, 69, 76, 73, 83, 72, 13], "trial": 6, "time_elapsed": 1132288, "type": "FREE_RECALL", "trial_index": 227}, "uniqueid": "MTK2285:39GHHAVOMGYSHY4ZE7WCQ3PEN874J9", "dateTime": 1516918822614}, {"current_trial": 228, "trialdata": {"rt": 1684, "trial_type": "text", "internal_node_id": "0.0-165.0", "time_elapsed": 1135978, "key_press": 32, "type": "INSTRUCTIONS", "trial_index": 228}, "uniqueid": "MTK2285:39GHHAVOMGYSHY4ZE7WCQ3PEN874J9", "dateTime": 1516918826299}, {"current_trial": 229, "trialdata": {"rt": [3356, 9043, 11790, 13581, 15697, 18702, 21179, 23946], "trial_type": "math-distractor", "key_times": [2636, 2876, 3356, 8429, 8668, 9043, 11081, 11316, 11790, 13124, 13322, 13581, 15207, 15478, 15697, 17742, 18231, 18702, 20695, 20910, 21179, 23569, 23946], "responses": ["10", "24", "15", "13", "14", "19", "21", "9"], "num2": [6, 6, 2, 3, 8, 8, 7, 6, 4], "num3": [2, 9, 6, 3, 4, 8, 8, 1, 7], "conditions": [12, 1600, "v", 24000], "internal_node_id": "0.0-166.0", "key_presses": [49, 48, 13, 50, 52, 13, 49, 53, 13, 49, 51, 13, 49, 52, 13, 49, 57, 13, 50, 49, 13, 57, 13], "trial": 7, "time_elapsed": 1161981, "type": "DISTRACTOR", "trial_index": 229, "num1": [2, 9, 7, 7, 2, 3, 6, 2, 5]}, "uniqueid": "MTK2285:39GHHAVOMGYSHY4ZE7WCQ3PEN874J9", "dateTime": 1516918852303}, {"current_trial": 230, "trialdata": {"rt": -1, "trial_type": "single-stim", "stimulus": "<p id=\"stim\">10</p>", "internal_node_id": "0.0-167.0-0.0", "time_elapsed": 1164983, "key_press": -1, "trial_index": 230}, "uniqueid": "MTK2285:39GHHAVOMGYSHY4ZE7WCQ3PEN874J9", "dateTime": 1516918855304}, {"current_trial": 231, "trialdata": {"rt": -1, "trial_type": "single-stim", "stimulus": "<p id=\"stim\">9</p>", "internal_node_id": "0.0-167.0-1.0", "time_elapsed": 1165984, "key_press": -1, "trial_index": 231}, "uniqueid": "MTK2285:39GHHAVOMGYSHY4ZE7WCQ3PEN874J9", "dateTime": 1516918856305}, {"current_trial": 232, "trialdata": {"rt": -1, "trial_type": "single-stim", "stimulus": "<p id=\"stim\">8</p>", "internal_node_id": "0.0-167.0-2.0", "time_elapsed": 1166985, "key_press": -1, "trial_index": 232}, "uniqueid": "MTK2285:39GHHAVOMGYSHY4ZE7WCQ3PEN874J9", "dateTime": 1516918857306}, {"current_trial": 233, "trialdata": {"rt": -1, "trial_type": "single-stim", "stimulus": "<p id=\"stim\">7</p>", "internal_node_id": "0.0-167.0-3.0", "time_elapsed": 1167985, "key_press": -1, "trial_index": 233}, "uniqueid": "MTK2285:39GHHAVOMGYSHY4ZE7WCQ3PEN874J9", "dateTime": 1516918858307}, {"current_trial": 234, "trialdata": {"rt": -1, "trial_type": "single-stim", "stimulus": "<p id=\"stim\">6</p>", "internal_node_id": "0.0-167.0-4.0", "time_elapsed": 1168986, "key_press": -1, "trial_index": 234}, "uniqueid": "MTK2285:39GHHAVOMGYSHY4ZE7WCQ3PEN874J9", "dateTime": 1516918859308}, {"current_trial": 235, "trialdata": {"rt": -1, "trial_type": "single-stim", "stimulus": "<p id=\"stim\">5</p>", "internal_node_id": "0.0-167.0-5.0", "time_elapsed": 1169987, "key_press": -1, "trial_index": 235}, "uniqueid": "MTK2285:39GHHAVOMGYSHY4ZE7WCQ3PEN874J9", "dateTime": 1516918860309}, {"current_trial": 236, "trialdata": {"rt": -1, "trial_type": "single-stim", "stimulus": "<p id=\"stim\">4</p>", "internal_node_id": "0.0-167.0-6.0", "time_elapsed": 1170988, "key_press": -1, "trial_index": 236}, "uniqueid": "MTK2285:39GHHAVOMGYSHY4ZE7WCQ3PEN874J9", "dateTime": 1516918861310}, {"current_trial": 237, "trialdata": {"rt": -1, "trial_type": "single-stim", "stimulus": "<p id=\"stim\">3</p>", "internal_node_id": "0.0-167.0-7.0", "time_elapsed": 1171989, "key_press": -1, "trial_index": 237}, "uniqueid": "MTK2285:39GHHAVOMGYSHY4ZE7WCQ3PEN874J9", "dateTime": 1516918862311}, {"current_trial": 238, "trialdata": {"rt": -1, "trial_type": "single-stim", "stimulus": "<p id=\"stim\">2</p>", "internal_node_id": "0.0-167.0-8.0", "time_elapsed": 1172997, "key_press": -1, "trial_index": 238}, "uniqueid": "MTK2285:39GHHAVOMGYSHY4ZE7WCQ3PEN874J9", "dateTime": 1516918863318}, {"current_trial": 239, "trialdata": {"rt": -1, "trial_type": "single-stim", "stimulus": "<p id=\"stim\">1</p>", "internal_node_id": "0.0-167.0-9.0", "time_elapsed": 1173998, "key_press": -1, "trial_index": 239}, "uniqueid": "MTK2285:39GHHAVOMGYSHY4ZE7WCQ3PEN874J9", "dateTime": 1516918864319}, {"current_trial": 240, "trialdata": {"rt": -1, "trial_type": "single-stim", "stimulus": "<p id=\"stim\">+</p>", "internal_node_id": "0.0-168.0-0.0", "time_elapsed": 1175499, "key_press": -1, "type": "FIXATION", "trial_index": 240}, "uniqueid": "MTK2285:39GHHAVOMGYSHY4ZE7WCQ3PEN874J9", "dateTime": 1516918865820}, {"current_trial": 241, "trialdata": {"rt": -1, "trial_type": "single-stim", "word": "zebra", "stimulus": "<p id=\"stim\">ZEBRA</p>", "conditions": [12, 1600, "v", 24000], "internal_node_id": "0.0-169.0", "trial": 7, "time_elapsed": 1177100, "serialpos": 0, "key_press": -1, "wordID": 1634, "type": "PRES_VIS", "trial_index": 241}, "uniqueid": "MTK2285:39GHHAVOMGYSHY4ZE7WCQ3PEN874J9", "dateTime": 1516918867422}, {"current_trial": 242, "trialdata": {"rt": -1, "trial_type": "single-stim", "word": "donkey", "stimulus": "<p id=\"stim\">DONKEY</p>", "conditions": [12, 1600, "v", 24000], "internal_node_id": "0.0-170.0", "trial": 7, "time_elapsed": 1179899, "serialpos": 1, "key_press": -1, "wordID": 483, "type": "PRES_VIS", "trial_index": 242}, "uniqueid": "MTK2285:39GHHAVOMGYSHY4ZE7WCQ3PEN874J9", "dateTime": 1516918870220}, {"current_trial": 243, "trialdata": {"rt": -1, "trial_type": "single-stim", "word": "student", "stimulus": "<p id=\"stim\">STUDENT</p>", "conditions": [12, 1600, "v", 24000], "internal_node_id": "0.0-171.0", "trial": 7, "time_elapsed": 1182693, "serialpos": 2, "key_press": -1, "wordID": 1394, "type": "PRES_VIS", "trial_index": 243}, "uniqueid": "MTK2285:39GHHAVOMGYSHY4ZE7WCQ3PEN874J9", "dateTime": 1516918873015}, {"current_trial": 244, "trialdata": {"rt": -1, "trial_type": "single-stim", "word": "fragrance", "stimulus": "<p id=\"stim\">FRAGRANCE</p>", "conditions": [12, 1600, "v", 24000], "internal_node_id": "0.0-172.0", "trial": 7, "time_elapsed": 1185416, "serialpos": 3, "key_press": -1, "wordID": 598, "type": "PRES_VIS", "trial_index": 244}, "uniqueid": "MTK2285:39GHHAVOMGYSHY4ZE7WCQ3PEN874J9", "dateTime": 1516918875737}, {"current_trial": 245, "trialdata": {"rt": -1, "trial_type": "single-stim", "word": "office", "stimulus": "<p id=\"stim\">OFFICE</p>", "conditions": [12, 1600, "v", 24000], "internal_node_id": "0.0-173.0", "trial": 7, "time_elapsed": 1188132, "serialpos": 4, "key_press": -1, "wordID": 971, "type": "PRES_VIS", "trial_index": 245}, "uniqueid": "MTK2285:39GHHAVOMGYSHY4ZE7WCQ3PEN874J9", "dateTime": 1516918878453}, {"current_trial": 246, "trialdata": {"rt": -1, "trial_type": "single-stim", "word": "dorm", "stimulus": "<p id=\"stim\">DORM</p>", "conditions": [12, 1600, "v", 24000], "internal_node_id": "0.0-174.0", "trial": 7, "time_elapsed": 1190887, "serialpos": 5, "key_press": -1, "wordID": 487, "type": "PRES_VIS", "trial_index": 246}, "uniqueid": "MTK2285:39GHHAVOMGYSHY4ZE7WCQ3PEN874J9", "dateTime": 1516918881208}, {"current_trial": 247, "trialdata": {"rt": -1, "trial_type": "single-stim", "word": "couch", "stimulus": "<p id=\"stim\">COUCH</p>", "conditions": [12, 1600, "v", 24000], "internal_node_id": "0.0-175.0", "trial": 7, "time_elapsed": 1193362, "serialpos": 6, "key_press": -1, "wordID": 385, "type": "PRES_VIS", "trial_index": 247}, "uniqueid": "MTK2285:39GHHAVOMGYSHY4ZE7WCQ3PEN874J9", "dateTime": 1516918883683}, {"current_trial": 248, "trialdata": {"rt": -1, "trial_type": "single-stim", "word": "mattress", "stimulus": "<p id=\"stim\">MATTRESS</p>", "conditions": [12, 1600, "v", 24000], "internal_node_id": "0.0-176.0", "trial": 7, "time_elapsed": 1195804, "serialpos": 7, "key_press": -1, "wordID": 878, "type": "PRES_VIS", "trial_index": 248}, "uniqueid": "MTK2285:39GHHAVOMGYSHY4ZE7WCQ3PEN874J9", "dateTime": 1516918886125}, {"current_trial": 249, "trialdata": {"rt": -1, "trial_type": "single-stim", "word": "shrub", "stimulus": "<p id=\"stim\">SHRUB</p>", "conditions": [12, 1600, "v", 24000], "internal_node_id": "0.0-177.0", "trial": 7, "time_elapsed": 1198424, "serialpos": 8, "key_press": -1, "wordID": 1298, "type": "PRES_VIS", "trial_index": 249}, "uniqueid": "MTK2285:39GHHAVOMGYSHY4ZE7WCQ3PEN874J9", "dateTime": 1516918888745}, {"current_trial": 250, "trialdata": {"rt": -1, "trial_type": "single-stim", "word": "nightgown", "stimulus": "<p id=\"stim\">NIGHTGOWN</p>", "conditions": [12, 1600, "v", 24000], "internal_node_id": "0.0-178.0", "trial": 7, "time_elapsed": 1200865, "serialpos": 9, "key_press": -1, "wordID": 952, "type": "PRES_VIS", "