{"assignmentId": "3RJSC4XJ1113BB7D645GDQGWOUL05Q", "workerId": "MTK2230", "questiondata": {"origin": "United States", "strat-rehearsal": "73", "marital": "Married/Domestic Partnership", "education": "Bachelor's degree", "ethnicity": "Not Hispanic", "color_depth": 24, "distracted": "No", "wrote-notes": "Yes", "strat-other": "I used a category method with visualization to help remember words. I would write down the first letter of every word to help me remember them. ", "screen_width": 1366, "avail_screen_width": 1366, "avail_screen_height": 768, "strat-image": "72", "language": "English", "gender": "Female", "age": "27", "gender_other": "", "race": ["White"], "strat-categorize": "96", "pixel_depth": 24, "strat-spatial": "4", "strat-story": "68", "race_other": "", "screen_height": 768}, "bonus": 0, "hitId": "3M7OI89LVYVH1N4DX133BD0DAMG6CE", "counterbalance": 2905, "useragent": "Mozilla/5.0 (Windows NT 6.1; Win64; x64) AppleWebKit/537.36 (KHTML, like Gecko) Chrome/63.0.3239.132 Safari/537.36", "eventdata": [{"eventtype": "initialized", "interval": 0, "value": null, "timestamp": 1516899179078}, {"eventtype": "window_resize", "interval": 0, "value": [1366, 722], "timestamp": 1516899179078}, {"eventtype": "focus", "interval": 18982, "value": "off", "timestamp": 1516899198060}, {"eventtype": "focus", "interval": 9179, "value": "on", "timestamp": 1516899207239}, {"eventtype": "focus", "interval": 7225, "value": "off", "timestamp": 1516899214464}, {"eventtype": "focus", "interval": 3398, "value": "on", "timestamp": 1516899217862}, {"eventtype": "focus", "interval": 1982, "value": "off", "timestamp": 1516899219844}, {"eventtype": "focus", "interval": 2438, "value": "on", "timestamp": 1516899222282}, {"eventtype": "window_resize", "interval": 39097, "value": [1366, 718], "timestamp": 1516899261379}, {"eventtype": "focus", "interval": 63503, "value": "off", "timestamp": 1516899324882}, {"eventtype": "focus", "interval": 29603, "value": "on", "timestamp": 1516899354485}, {"eventtype": "focus", "interval": 48891, "value": "off", "timestamp": 1516899403376}, {"eventtype": "focus", "interval": 3878, "value": "on", "timestamp": 1516899407254}, {"eventtype": "focus", "interval": 912462, "value": "off", "timestamp": 1516900319716}, {"eventtype": "focus", "interval": 17781, "value": "on", "timestamp": 1516900337497}, {"eventtype": "window_resize", "interval": 870147, "value": [1366, 722], "timestamp": 1516901207644}, {"eventtype": "window_resize", "interval": 3672, "value": [1366, 718], "timestamp": 1516901211316}, {"eventtype": "focus", "interval": 9881, "value": "off", "timestamp": 1516901221197}, {"eventtype": "focus", "interval": 47, "value": "on", "timestamp": 1516901221244}, {"eventtype": "focus", "interval": 810210, "value": "off", "timestamp": 1516902031454}, {"eventtype": "focus", "interval": 31568, "value": "on", "timestamp": 1516902063022}], "data": [{"current_trial": 0, "trialdata": {"rt": 2037, "trial_type": "text", "internal_node_id": "0.0-0.0", "time_elapsed": 2040, "key_press": 32, "type": "INSTRUCTIONS", "trial_index": 0}, "uniqueid": "MTK2230:3RJSC4XJ1113BB7D645GDQGWOUL05Q", "dateTime": 1516899193744}, {"current_trial": 1, "trialdata": {"rt": 15934, "trial_type": "text", "internal_node_id": "0.0-1.0", "time_elapsed": 17978, "key_press": 32, "type": "INSTRUCTIONS", "trial_index": 1}, "uniqueid": "MTK2230:3RJSC4XJ1113BB7D645GDQGWOUL05Q", "dateTime": 1516899209681}, {"current_trial": 2, "trialdata": {"rt": [17477], "trial_type": "audio-test", "responses": ["ocean"], "internal_node_id": "0.0-2.0", "time_elapsed": 35465, "type": "AUDIO_TEST", "trial_index": 2}, "uniqueid": "MTK2230:3RJSC4XJ1113BB7D645GDQGWOUL05Q", "dateTime": 1516899227168}, {"current_trial": 3, "trialdata": {"rt": [7200], "trial_type": "audio-test", "responses": ["crystal"], "internal_node_id": "0.0-3.0", "time_elapsed": 42674, "type": "AUDIO_TEST", "trial_index": 3}, "uniqueid": "MTK2230:3RJSC4XJ1113BB7D645GDQGWOUL05Q", "dateTime": 1516899234377}, {"current_trial": 4, "trialdata": {"rt": [5189], "trial_type": "audio-test", "responses": ["spice"], "internal_node_id": "0.0-4.0", "time_elapsed": 47872, "type": "AUDIO_TEST", "trial_index": 4}, "uniqueid": "MTK2230:3RJSC4XJ1113BB7D645GDQGWOUL05Q", "dateTime": 1516899239575}, {"current_trial": 5, "trialdata": {"rt": 16960, "trial_type": "survey-text", "responses": "{\"Q0\":\"11\",\"Q1\":\"5\",\"Q2\":\"5\"}", "internal_node_id": "0.0-5.0", "time_elapsed": 65588, "type": "SLEEP_SURVEY", "trial_index": 5}, "uniqueid": "MTK2230:3RJSC4XJ1113BB7D645GDQGWOUL05Q", "dateTime": 1516899257291}, {"current_trial": 6, "trialdata": {"rt": 7225, "trial_type": "text", "internal_node_id": "0.0-6.0", "time_elapsed": 73816, "key_press": 32, "type": "INSTRUCTIONS", "trial_index": 6}, "uniqueid": "MTK2230:3RJSC4XJ1113BB7D645GDQGWOUL05Q", "dateTime": 1516899265519}, {"current_trial": 7, "trialdata": {"rt": 2363, "trial_type": "text", "internal_node_id": "0.0-7.0", "time_elapsed": 76681, "key_press": 32, "type": "INSTRUCTIONS", "trial_index": 7}, "uniqueid": "MTK2230:3RJSC4XJ1113BB7D645GDQGWOUL05Q", "dateTime": 1516899268384}, {"current_trial": 8, "trialdata": {"rt": 10569, "trial_type": "text", "internal_node_id": "0.0-8.0", "time_elapsed": 87752, "key_press": 32, "type": "INSTRUCTIONS", "trial_index": 8}, "uniqueid": "MTK2230:3RJSC4XJ1113BB7D645GDQGWOUL05Q", "dateTime": 1516899279455}, {"current_trial": 9, "trialdata": {"rt": [5043, 15520], "trial_type": "math-distractor", "key_times": [2665, 2685, 5043, 11565, 13854, 15520], "responses": ["12", "18"], "num2": [8, 7, 6], "num3": [3, 2, 6], "conditions": [18, 1200, "a", 18000], "internal_node_id": "0.0-9.0", "key_presses": [97, 98, 13, 97, 104, 13], "trial": 0, "time_elapsed": 106763, "type": "DISTRACTOR", "trial_index": 9, "num1": [1, 9, 5]}, "uniqueid": "MTK2230:3RJSC4XJ1113BB7D645GDQGWOUL05Q", "dateTime": 1516899298467}, {"current_trial": 10, "trialdata": {"rt": -1, "trial_type": "single-stim", "stimulus": "<p id=\"stim\">10</p>", "internal_node_id": "0.0-10.0-0.0", "time_elapsed": 109768, "key_press": -1, "trial_index": 10}, "uniqueid": "MTK2230:3RJSC4XJ1113BB7D645GDQGWOUL05Q", "dateTime": 1516899301471}, {"current_trial": 11, "trialdata": {"rt": -1, "trial_type": "single-stim", "stimulus": "<p id=\"stim\">9</p>", "internal_node_id": "0.0-10.0-1.0", "time_elapsed": 110772, "key_press": -1, "trial_index": 11}, "uniqueid": "MTK2230:3RJSC4XJ1113BB7D645GDQGWOUL05Q", "dateTime": 1516899302475}, {"current_trial": 12, "trialdata": {"rt": -1, "trial_type": "single-stim", "stimulus": "<p id=\"stim\">8</p>", "internal_node_id": "0.0-10.0-2.0", "time_elapsed": 111773, "key_press": -1, "trial_index": 12}, "uniqueid": "MTK2230:3RJSC4XJ1113BB7D645GDQGWOUL05Q", "dateTime": 1516899303477}, {"current_trial": 13, "trialdata": {"rt": -1, "trial_type": "single-stim", "stimulus": "<p id=\"stim\">7</p>", "internal_node_id": "0.0-10.0-3.0", "time_elapsed": 112776, "key_press": -1, "trial_index": 13}, "uniqueid": "MTK2230:3RJSC4XJ1113BB7D645GDQGWOUL05Q", "dateTime": 1516899304479}, {"current_trial": 14, "trialdata": {"rt": -1, "trial_type": "single-stim", "stimulus": "<p id=\"stim\">6</p>", "internal_node_id": "0.0-10.0-4.0", "time_elapsed": 113778, "key_press": -1, "trial_index": 14}, "uniqueid": "MTK2230:3RJSC4XJ1113BB7D645GDQGWOUL05Q", "dateTime": 1516899305481}, {"current_trial": 15, "trialdata": {"rt": -1, "trial_type": "single-stim", "stimulus": "<p id=\"stim\">5</p>", "internal_node_id": "0.0-10.0-5.0", "time_elapsed": 114780, "key_press": -1, "trial_index": 15}, "uniqueid": "MTK2230:3RJSC4XJ1113BB7D645GDQGWOUL05Q", "dateTime": 1516899306483}, {"current_trial": 16, "trialdata": {"rt": -1, "trial_type": "single-stim", "stimulus": "<p id=\"stim\">4</p>", "internal_node_id": "0.0-10.0-6.0", "time_elapsed": 115782, "key_press": -1, "trial_index": 16}, "uniqueid": "MTK2230:3RJSC4XJ1113BB7D645GDQGWOUL05Q", "dateTime": 1516899307485}, {"current_trial": 17, "trialdata": {"rt": -1, "trial_type": "single-stim", "stimulus": "<p id=\"stim\">3</p>", "internal_node_id": "0.0-10.0-7.0", "time_elapsed": 116784, "key_press": -1, "trial_index": 17}, "uniqueid": "MTK2230:3RJSC4XJ1113BB7D645GDQGWOUL05Q", "dateTime": 1516899308487}, {"current_trial": 18, "trialdata": {"rt": -1, "trial_type": "single-stim", "stimulus": "<p id=\"stim\">2</p>", "internal_node_id": "0.0-10.0-8.0", "time_elapsed": 117786, "key_press": -1, "trial_index": 18}, "uniqueid": "MTK2230:3RJSC4XJ1113BB7D645GDQGWOUL05Q", "dateTime": 1516899309489}, {"current_trial": 19, "trialdata": {"rt": -1, "trial_type": "single-stim", "stimulus": "<p id=\"stim\">1</p>", "internal_node_id": "0.0-10.0-9.0", "time_elapsed": 118788, "key_press": -1, "trial_index": 19}, "uniqueid": "MTK2230:3RJSC4XJ1113BB7D645GDQGWOUL05Q", "dateTime": 1516899310491}, {"current_trial": 20, "trialdata": {"rt": -1, "trial_type": "single-stim", "stimulus": "<p id=\"stim\">+</p>", "internal_node_id": "0.0-11.0-0.0", "time_elapsed": 120290, "key_press": -1, "type": "FIXATION", "trial_index": 20}, "uniqueid": "MTK2230:3RJSC4XJ1113BB7D645GDQGWOUL05Q", "dateTime": 1516899311993}, {"current_trial": 21, "trialdata": {"rt": -1000, "trial_type": "single-audio", "word": "casket", "stimulus": "/static/audio/wordpool/CASKET.wav", "conditions": [18, 1200, "a", 18000], "internal_node_id": "0.0-12.0", "trial": 0, "time_elapsed": 122502, "serialpos": 0, "key_press": -1, "wordID": 254, "type": "PRES_AUD", "trial_index": 21}, "uniqueid": "MTK2230:3RJSC4XJ1113BB7D645GDQGWOUL05Q", "dateTime": 1516899314205}, {"current_trial": 22, "trialdata": {"rt": -1000, "trial_type": "single-audio", "word": "eyelash", "stimulus": "/static/audio/wordpool/EYELASH.wav", "conditions": [18, 1200, "a", 18000], "internal_node_id": "0.0-13.0", "trial": 0, "time_elapsed": 124784, "serialpos": 1, "key_press": -1, "wordID": 545, "type": "PRES_AUD", "trial_index": 22}, "uniqueid": "MTK2230:3RJSC4XJ1113BB7D645GDQGWOUL05Q", "dateTime": 1516899316487}, {"current_trial": 23, "trialdata": {"rt": -1000, "trial_type": "single-audio", "word": "drawing", "stimulus": "/static/audio/wordpool/DRAWING.wav", "conditions": [18, 1200, "a", 18000], "internal_node_id": "0.0-14.0", "trial": 0, "time_elapsed": 126987, "serialpos": 2, "key_press": -1, "wordID": 493, "type": "PRES_AUD", "trial_index": 23}, "uniqueid": "MTK2230:3RJSC4XJ1113BB7D645GDQGWOUL05Q", "dateTime": 1516899318690}, {"current_trial": 24, "trialdata": {"rt": -1000, "trial_type": "single-audio", "word": "receipt", "stimulus": "/static/audio/wordpool/RECEIPT.wav", "conditions": [18, 1200, "a", 18000], "internal_node_id": "0.0-15.0", "trial": 0, "time_elapsed": 129100, "serialpos": 3, "key_press": -1, "wordID": 1172, "type": "PRES_AUD", "trial_index": 24}, "uniqueid": "MTK2230:3RJSC4XJ1113BB7D645GDQGWOUL05Q", "dateTime": 1516899320803}, {"current_trial": 25, "trialdata": {"rt": -1000, "trial_type": "single-audio", "word": "cook", "stimulus": "/static/audio/wordpool/COOK.wav", "conditions": [18, 1200, "a", 18000], "internal_node_id": "0.0-16.0", "trial": 0, "time_elapsed": 131403, "serialpos": 4, "key_press": -1, "wordID": 371, "type": "PRES_AUD", "trial_index": 25}, "uniqueid": "MTK2230:3RJSC4XJ1113BB7D645GDQGWOUL05Q", "dateTime": 1516899323106}, {"current_trial": 26, "trialdata": {"rt": -1000, "trial_type": "single-audio", "word": "peach", "stimulus": "/static/audio/wordpool/PEACH.wav", "conditions": [18, 1200, "a", 18000], "internal_node_id": "0.0-17.0", "trial": 0, "time_elapsed": 133632, "serialpos": 5, "key_press": -1, "wordID": 1030, "type": "PRES_AUD", "trial_index": 26}, "uniqueid": "MTK2230:3RJSC4XJ1113BB7D645GDQGWOUL05Q", "dateTime": 1516899325335}, {"current_trial": 27, "trialdata": {"rt": -1000, "trial_type": "single-audio", "word": "necklace", "stimulus": "/static/audio/wordpool/NECKLACE.wav", "conditions": [18, 1200, "a", 18000], "internal_node_id": "0.0-18.0", "trial": 0, "time_elapsed": 135876, "serialpos": 6, "key_press": -1, "wordID": 939, "type": "PRES_AUD", "trial_index": 27}, "uniqueid": "MTK2230:3RJSC4XJ1113BB7D645GDQGWOUL05Q", "dateTime": 1516899327579}, {"current_trial": 28, "trialdata": {"rt": -1000, "trial_type": "single-audio", "word": "champagne", "stimulus": "/static/audio/wordpool/CHAMPAGNE.wav", "conditions": [18, 1200, "a", 18000], "internal_node_id": "0.0-19.0", "trial": 0, "time_elapsed": 138014, "serialpos": 7, "key_press": -1, "wordID": 277, "type": "PRES_AUD", "trial_index": 28}, "uniqueid": "MTK2230:3RJSC4XJ1113BB7D645GDQGWOUL05Q", "dateTime": 1516899329717}, {"current_trial": 29, "trialdata": {"rt": -1000, "trial_type": "single-audio", "word": "custard", "stimulus": "/static/audio/wordpool/CUSTARD.wav", "conditions": [18, 1200, "a", 18000], "internal_node_id": "0.0-20.0", "trial": 0, "time_elapsed": 140086, "serialpos": 8, "key_press": -1, "wordID": 428, "type": "PRES_AUD", "trial_index": 29}, "uniqueid": "MTK2230:3RJSC4XJ1113BB7D645GDQGWOUL05Q", "dateTime": 1516899331789}, {"current_trial": 30, "trialdata": {"rt": -1000, "trial_type": "single-audio", "word": "swamp", "stimulus": "/static/audio/wordpool/SWAMP.wav", "conditions": [18, 1200, "a", 18000], "internal_node_id": "0.0-21.0", "trial": 0, "time_elapsed": 142186, "serialpos": 9, "key_press": -1, "wordID": 1415, "type": "PRES_AUD", "trial_index": 30}, "uniqueid": "MTK2230:3RJSC4XJ1113BB7D645GDQGWOUL05Q", "dateTime": 1516899333889}, {"current_trial": 31, "trialdata": {"rt": -1000, "trial_type": "single-audio", "word": "canyon", "stimulus": "/static/audio/wordpool/CANYON.wav", "conditions": [18, 1200, "a", 18000], "internal_node_id": "0.0-22.0", "trial": 0, "time_elapsed": 144529, "serialpos": 10, "key_press": -1, "wordID": 234, "type": "PRES_AUD", "trial_index": 31}, "uniqueid": "MTK2230:3RJSC4XJ1113BB7D645GDQGWOUL05Q", "dateTime": 1516899336232}, {"current_trial": 32, "trialdata": {"rt": -1000, "trial_type": "single-audio", "word": "sketch", "stimulus": "/static/audio/wordpool/SKETCH.wav", "conditions": [18, 1200, "a", 18000], "internal_node_id": "0.0-23.0", "trial": 0, "time_elapsed": 146882, "serialpos": 11, "key_press": -1, "wordID": 1314, "type": "PRES_AUD", "trial_index": 32}, "uniqueid": "MTK2230:3RJSC4XJ1113BB7D645GDQGWOUL05Q", "dateTime": 1516899338586}, {"current_trial": 33, "trialdata": {"rt": -1000, "trial_type": "single-audio", "word": "muffin", "stimulus": "/static/audio/wordpool/MUFFIN.wav", "conditions": [18, 1200, "a", 18000], "internal_node_id": "0.0-24.0", "trial": 0, "time_elapsed": 148941, "serialpos": 12, "key_press": -1, "wordID": 928, "type": "PRES_AUD", "trial_index": 33}, "uniqueid": "MTK2230:3RJSC4XJ1113BB7D645GDQGWOUL05Q", "dateTime": 1516899340645}, {"current_trial": 34, "trialdata": {"rt": -1000, "trial_type": "single-audio", "word": "umpire", "stimulus": "/static/audio/wordpool/UMPIRE.wav", "conditions": [18, 1200, "a", 18000], "internal_node_id": "0.0-25.0", "trial": 0, "time_elapsed": 151043, "serialpos": 13, "key_press": -1, "wordID": 1534, "type": "PRES_AUD", "trial_index": 34}, "uniqueid": "MTK2230:3RJSC4XJ1113BB7D645GDQGWOUL05Q", "dateTime": 1516899342746}, {"current_trial": 35, "trialdata": {"rt": -1000, "trial_type": "single-audio", "word": "chapel", "stimulus": "/static/audio/wordpool/CHAPEL.wav", "conditions": [18, 1200, "a", 18000], "internal_node_id": "0.0-26.0", "trial": 0, "time_elapsed": 153181, "serialpos": 14, "key_press": -1, "wordID": 279, "type": "PRES_AUD", "trial_index": 35}, "uniqueid": "MTK2230:3RJSC4XJ1113BB7D645GDQGWOUL05Q", "dateTime": 1516899344884}, {"current_trial": 36, "trialdata": {"rt": -1000, "trial_type": "single-audio", "word": "scribble", "stimulus": "/static/audio/wordpool/SCRIBBLE.wav", "conditions": [18, 1200, "a", 18000], "internal_node_id": "0.0-27.0", "trial": 0, "time_elapsed": 155250, "serialpos": 15, "key_press": -1, "wordID": 1255, "type": "PRES_AUD", "trial_index": 36}, "uniqueid": "MTK2230:3RJSC4XJ1113BB7D645GDQGWOUL05Q", "dateTime": 1516899346953}, {"current_trial": 37, "trialdata": {"rt": -1000, "trial_type": "single-audio", "word": "gift", "stimulus": "/static/audio/wordpool/GIFT.wav", "conditions": [18, 1200, "a", 18000], "internal_node_id": "0.0-28.0", "trial": 0, "time_elapsed": 157563, "serialpos": 16, "key_press": -1, "wordID": 634, "type": "PRES_AUD", "trial_index": 37}, "uniqueid": "MTK2230:3RJSC4XJ1113BB7D645GDQGWOUL05Q", "dateTime": 1516899349266}, {"current_trial": 38, "trialdata": {"rt": -1000, "trial_type": "single-audio", "word": "forehead", "stimulus": "/static/audio/wordpool/FOREHEAD.wav", "conditions": [18, 1200, "a", 18000], "internal_node_id": "0.0-29.0", "trial": 0, "time_elapsed": 159898, "serialpos": 17, "key_press": -1, "wordID": 591, "type": "PRES_AUD", "trial_index": 38}, "uniqueid": "MTK2230:3RJSC4XJ1113BB7D645GDQGWOUL05Q", "dateTime": 1516899351601}, {"current_trial": 39, "trialdata": {"rt": -1, "trial_type": "single-stim", "stimulus": "", "internal_node_id": "0.0-30.0-0.0", "time_elapsed": 161279, "key_press": -1, "type": "PRE_RECALL_DELAY", "trial_index": 39}, "uniqueid": "MTK2230:3RJSC4XJ1113BB7D645GDQGWOUL05Q", "dateTime": 1516899352982}, {"current_trial": 40, "trialdata": {"rt": -1000, "trial_type": "single-audio", "stimulus": "/static/audio/400Hz.wav", "internal_node_id": "0.0-31.0", "time_elapsed": 161781, "key_press": -1, "type": "PRE_RECALL_ALERT", "trial_index": 40}, "uniqueid": "MTK2230:3RJSC4XJ1113BB7D645GDQGWOUL05Q", "dateTime": 1516899353484}, {"current_trial": 41, "trialdata": {"rt": [4695, 6230, 9270, 12088, 14540, 21091, 37919, 43166], "recwords": ["forehead", "eyelash", "chapel", "umpire", "hook", "", "", "eyelash"], "key_times": [1927, 2002, 2109, 2598, 2944, 4073, 4256, 4522, 4695, 5152, 5468, 5550, 5722, 5854, 5976, 6057, 6230, 8315, 8509, 8650, 8752, 8925, 9067, 9270, 11353, 11570, 11691, 11833, 11904, 11996, 12088, 13949, 14163, 14285, 14366, 14540, 21091, 37919, 42149, 42230, 42331, 42505, 42626, 42923, 42998, 43166], "trial_type": "free-recall", "conditions": [18, 1200, "a", 18000], "internal_node_id": "0.0-32.0-0.0", "key_presses": [70, 79, 82, 69, 72, 69, 65, 68, 13, 69, 89, 69, 76, 65, 83, 72, 13, 67, 72, 65, 80, 69, 76, 13, 85, 77, 80, 73, 82, 69, 13, 72, 79, 79, 75, 13, 13, 13, 69, 89, 69, 76, 65, 83, 72, 13], "trial": 0, "time_elapsed": 221787, "type": "FREE_RECALL", "trial_index": 41}, "uniqueid": "MTK2230:3RJSC4XJ1113BB7D645GDQGWOUL05Q", "dateTime": 1516899413494}, {"current_trial": 42, "trialdata": {"rt": 1099, "trial_type": "text", "internal_node_id": "0.0-33.0", "time_elapsed": 224891, "key_press": 32, "type": "INSTRUCTIONS", "trial_index": 42}, "uniqueid": "MTK2230:3RJSC4XJ1113BB7D645GDQGWOUL05Q", "dateTime": 1516899416595}, {"current_trial": 43, "trialdata": {"rt": [3701, 7344, 11827, 13549, 16631], "trial_type": "math-distractor", "key_times": [3347, 3428, 3701, 7009, 7081, 7344, 10650, 10945, 11827, 13327, 13549, 16328, 16440, 16631], "responses": ["21", "23", "19", "1", "21"], "num2": [8, 7, 9, 1, 8, 3], "num3": [9, 8, 6, 8, 5, 4], "conditions": [18, 1200, "a", 18000], "internal_node_id": "0.0-34.0", "key_presses": [98, 97, 13, 98, 99, 13, 97, 105, 13, 97, 13, 98, 97, 13], "trial": 1, "time_elapsed": 244899, "type": "DISTRACTOR", "trial_index": 43, "num1": [4, 8, 4, 2, 8, 4]}, "uniqueid": "MTK2230:3RJSC4XJ1113BB7D645GDQGWOUL05Q", "dateTime": 1516899436602}, {"current_trial": 44, "trialdata": {"rt": -1, "trial_type": "single-stim", "stimulus": "<p id=\"stim\">10</p>", "internal_node_id": "0.0-35.0-0.0", "time_elapsed": 247901, "key_press": -1, "trial_index": 44}, "uniqueid": "MTK2230:3RJSC4XJ1113BB7D645GDQGWOUL05Q", "dateTime": 1516899439604}, {"current_trial": 45, "trialdata": {"rt": -1, "trial_type": "single-stim", "stimulus": "<p id=\"stim\">9</p>", "internal_node_id": "0.0-35.0-1.0", "time_elapsed": 248902, "key_press": -1, "trial_index": 45}, "uniqueid": "MTK2230:3RJSC4XJ1113BB7D645GDQGWOUL05Q", "dateTime": 1516899440605}, {"current_trial": 46, "trialdata": {"rt": -1, "trial_type": "single-stim", "stimulus": "<p id=\"stim\">8</p>", "internal_node_id": "0.0-35.0-2.0", "time_elapsed": 249904, "key_press": -1, "trial_index": 46}, "uniqueid": "MTK2230:3RJSC4XJ1113BB7D645GDQGWOUL05Q", "dateTime": 1516899441607}, {"current_trial": 47, "trialdata": {"rt": -1, "trial_type": "single-stim", "stimulus": "<p id=\"stim\">7</p>", "internal_node_id": "0.0-35.0-3.0", "time_elapsed": 250906, "key_press": -1, "trial_index": 47}, "uniqueid": "MTK2230:3RJSC4XJ1113BB7D645GDQGWOUL05Q", "dateTime": 1516899442609}, {"current_trial": 48, "trialdata": {"rt": -1, "trial_type": "single-stim", "stimulus": "<p id=\"stim\">6</p>", "internal_node_id": "0.0-35.0-4.0", "time_elapsed": 251908, "key_press": -1, "trial_index": 48}, "uniqueid": "MTK2230:3RJSC4XJ1113BB7D645GDQGWOUL05Q", "dateTime": 1516899443612}, {"current_trial": 49, "trialdata": {"rt": -1, "trial_type": "single-stim", "stimulus": "<p id=\"stim\">5</p>", "internal_node_id": "0.0-35.0-5.0", "time_elapsed": 252910, "key_press": -1, "trial_index": 49}, "uniqueid": "MTK2230:3RJSC4XJ1113BB7D645GDQGWOUL05Q", "dateTime": 1516899444613}, {"current_trial": 50, "trialdata": {"rt": -1, "trial_type": "single-stim", "stimulus": "<p id=\"stim\">4</p>", "internal_node_id": "0.0-35.0-6.0", "time_elapsed": 253912, "key_press": -1, "trial_index": 50}, "uniqueid": "MTK2230:3RJSC4XJ1113BB7D645GDQGWOUL05Q", "dateTime": 1516899445615}, {"current_trial": 51, "trialdata": {"rt": -1, "trial_type": "single-stim", "stimulus": "<p id=\"stim\">3</p>", "internal_node_id": "0.0-35.0-7.0", "time_elapsed": 254914, "key_press": -1, "trial_index": 51}, "uniqueid": "MTK2230:3RJSC4XJ1113BB7D645GDQGWOUL05Q", "dateTime": 1516899446617}, {"current_trial": 52, "trialdata": {"rt": -1, "trial_type": "single-stim", "stimulus": "<p id=\"stim\">2</p>", "internal_node_id": "0.0-35.0-8.0", "time_elapsed": 255916, "key_press": -1, "trial_index": 52}, "uniqueid": "MTK2230:3RJSC4XJ1113BB7D645GDQGWOUL05Q", "dateTime": 1516899447620}, {"current_trial": 53, "trialdata": {"rt": -1, "trial_type": "single-stim", "stimulus": "<p id=\"stim\">1</p>", "internal_node_id": "0.0-35.0-9.0", "time_elapsed": 256920, "key_press": -1, "trial_index": 53}, "uniqueid": "MTK2230:3RJSC4XJ1113BB7D645GDQGWOUL05Q", "dateTime": 1516899448623}, {"current_trial": 54, "trialdata": {"rt": -1, "trial_type": "single-stim", "stimulus": "<p id=\"stim\">+</p>", "internal_node_id": "0.0-36.0-0.0", "time_elapsed": 258421, "key_press": -1, "type": "FIXATION", "trial_index": 54}, "uniqueid": "MTK2230:3RJSC4XJ1113BB7D645GDQGWOUL05Q", "dateTime": 1516899450125}, {"current_trial": 55, "trialdata": {"rt": -1000, "trial_type": "single-audio", "word": "agent", "stimulus": "/static/audio/wordpool/AGENT.wav", "conditions": [18, 1200, "a", 18000], "internal_node_id": "0.0-37.0", "trial": 1, "time_elapsed": 260731, "serialpos": 0, "key_press": -1, "wordID": 9, "type": "PRES_AUD", "trial_index": 55}, "uniqueid": "MTK2230:3RJSC4XJ1113BB7D645GDQGWOUL05Q", "dateTime": 1516899452434}, {"current_trial": 56, "trialdata": {"rt": -1000, "trial_type": "single-audio", "word": "cobra", "stimulus": "/static/audio/wordpool/COBRA.wav", "conditions": [18, 1200, "a", 18000], "internal_node_id": "0.0-38.0", "trial": 1, "time_elapsed": 263108, "serialpos": 1, "key_press": -1, "wordID": 335, "type": "PRES_AUD", "trial_index": 56}, "uniqueid": "MTK2230:3RJSC4XJ1113BB7D645GDQGWOUL05Q", "dateTime": 1516899454811}, {"current_trial": 57, "trialdata": {"rt": -1000, "trial_type": "single-audio", "word": "tablet", "stimulus": "/static/audio/wordpool/TABLET.wav", "conditions": [18, 1200, "a", 18000], "internal_node_id": "0.0-39.0", "trial": 1, "time_elapsed": 265219, "serialpos": 2, "key_press": -1, "wordID": 1426, "type": "PRES_AUD", "trial_index": 57}, "uniqueid": "MTK2230:3RJSC4XJ1113BB7D645GDQGWOUL05Q", "dateTime": 1516899456922}, {"current_trial": 58, "trialdata": {"rt": -1000, "trial_type": "single-audio", "word": "office", "stimulus": "/static/audio/wordpool/OFFICE.wav", "conditions": [18, 1200, "a", 18000], "internal_node_id": "0.0-40.0", "trial": 1, "time_elapsed": 267432, "serialpos": 3, "key_press": -1, "wordID": 971, "type": "PRES_AUD", "trial_index": 58}, "uniqueid": "MTK2230:3RJSC4XJ1113BB7D645GDQGWOUL05Q", "dateTime": 1516899459135}, {"current_trial": 59, "trialdata": {"rt": -1000, "trial_type": "single-audio", "word": "nurse", "stimulus": "/static/audio/wordpool/NURSE.wav", "conditions": [18, 1200, "a", 18000], "internal_node_id": "0.0-41.0", "trial": 1, "time_elapsed": 269727, "serialpos": 4, "key_press": -1, "wordID": 962, "type": "PRES_AUD", "trial_index": 59}, "uniqueid": "MTK2230:3RJSC4XJ1113BB7D645GDQGWOUL05Q", "dateTime": 1516899461431}, {"current_trial": 60, "trialdata": {"rt": -1000, "trial_type": "single-audio", "word": "eagle", "stimulus": "/static/audio/wordpool/EAGLE.wav", "conditions": [18, 1200, "a", 18000], "internal_node_id": "0.0-42.0", "trial": 1, "time_elapsed": 272115, "serialpos": 5, "key_press": -1, "wordID": 511, "type": "PRES_AUD", "trial_index": 60}, "uniqueid": "MTK2230:3RJSC4XJ1113BB7D645GDQGWOUL05Q", "dateTime": 1516899463819}, {"current_trial": 61, "trialdata": {"rt": -1000, "trial_type": "single-audio", "word": "forest", "stimulus": "/static/audio/wordpool/FOREST.wav", "conditions": [18, 1200, "a", 18000], "internal_node_id": "0.0-43.0", "trial": 1, "time_elapsed": 274252, "serialpos": 6, "key_press": -1, "wordID": 592, "type": "PRES_AUD", "trial_index": 61}, "uniqueid": "MTK2230:3RJSC4XJ1113BB7D645GDQGWOUL05Q", "dateTime": 1516899465955}, {"current_trial": 62, "trialdata": {"rt": -1000, "trial_type": "single-audio", "word": "antler", "stimulus": "/static/audio/wordpool/ANTLER.wav", "conditions": [18, 1200, "a", 18000], "internal_node_id": "0.0-44.0", "trial": 1, "time_elapsed": 276425, "serialpos": 7, "key_press": -1, "wordID": 28, "type": "PRES_AUD", "trial_index": 62}, "uniqueid": "MTK2230:3RJSC4XJ1113BB7D645GDQGWOUL05Q", "dateTime": 1516899468128}, {"current_trial": 63, "trialdata": {"rt": -1000, "trial_type": "single-audio", "word": "racket", "stimulus": "/static/audio/wordpool/RACKET.wav", "conditions": [18, 1200, "a", 18000], "internal_node_id": "0.0-45.0", "trial": 1, "time_elapsed": 278778, "serialpos": 8, "key_press": -1, "wordID": 1154, "type": "PRES_AUD", "trial_index": 63}, "uniqueid": "MTK2230:3RJSC4XJ1113BB7D645GDQGWOUL05Q", "dateTime": 1516899470481}, {"current_trial": 64, "trialdata": {"rt": -1000, "trial_type": "single-audio", "word": "barley", "stimulus": "/static/audio/wordpool/BARLEY.wav", "conditions": [18, 1200, "a", 18000], "internal_node_id": "0.0-46.0", "trial": 1, "time_elapsed": 281047, "serialpos": 9, "key_press": -1, "wordID": 87, "type": "PRES_AUD", "trial_index": 64}, "uniqueid": "MTK2230:3RJSC4XJ1113BB7D645GDQGWOUL05Q", "dateTime": 1516899472750}, {"current_trial": 65, "trialdata": {"rt": -1000, "trial_type": "single-audio", "word": "fireman", "stimulus": "/static/audio/wordpool/FIREMAN.wav", "conditions": [18, 1200, "a", 18000], "internal_node_id": "0.0-47.0", "trial": 1, "time_elapsed": 283241, "serialpos": 10, "key_press": -1, "wordID": 568, "type": "PRES_AUD", "trial_index": 65}, "uniqueid": "MTK2230:3RJSC4XJ1113BB7D645GDQGWOUL05Q", "dateTime": 1516899474944}, {"current_trial": 66, "trialdata": {"rt": -1000, "trial_type": "single-audio", "word": "treat", "stimulus": "/static/audio/wordpool/TREAT.wav", "conditions": [18, 1200, "a", 18000], "internal_node_id": "0.0-48.0", "trial": 1, "time_elapsed": 285547, "serialpos": 11, "key_press": -1, "wordID": 1500, "type": "PRES_AUD", "trial_index": 66}, "uniqueid": "MTK2230:3RJSC4XJ1113BB7D645GDQGWOUL05Q", "dateTime": 1516899477250}, {"current_trial": 67, "trialdata": {"rt": -1000, "trial_type": "single-audio", "word": "motel", "stimulus": "/static/audio/wordpool/MOTEL.wav", "conditions": [18, 1200, "a", 18000], "internal_node_id": "0.0-49.0", "trial": 1, "time_elapsed": 287764, "serialpos": 12, "key_press": -1, "wordID": 918, "type": "PRES_AUD", "trial_index": 67}, "uniqueid": "MTK2230:3RJSC4XJ1113BB7D645GDQGWOUL05Q", "dateTime": 1516899479468}, {"current_trial": 68, "trialdata": {"rt": -1000, "trial_type": "single-audio", "word": "possum", "stimulus": "/static/audio/wordpool/POSSUM.wav", "conditions": [18, 1200, "a", 18000], "internal_node_id": "0.0-50.0", "trial": 1, "time_elapsed": 289794, "serialpos": 13, "key_press": -1, "wordID": 1111, "type": "PRES_AUD", "trial_index": 68}, "uniqueid": "MTK2230:3RJSC4XJ1113BB7D645GDQGWOUL05Q", "dateTime": 1516899481501}, {"current_trial": 69, "trialdata": {"rt": -1000, "trial_type": "single-audio", "word": "woman", "stimulus": "/static/audio/wordpool/WOMAN.wav", "conditions": [18, 1200, "a", 18000], "internal_node_id": "0.0-51.0", "trial": 1, "time_elapsed": 292180, "serialpos": 14, "key_press": -1, "wordID": 1619, "type": "PRES_AUD", "trial_index": 69}, "uniqueid": "MTK2230:3RJSC4XJ1113BB7D645GDQGWOUL05Q", "dateTime": 1516899483883}, {"current_trial": 70, "trialdata": {"rt": -1000, "trial_type": "single-audio", "word": "swimmer", "stimulus": "/static/audio/wordpool/SWIMMER.wav", "conditions": [18, 1200, "a", 18000], "internal_node_id": "0.0-52.0", "trial": 1, "time_elapsed": 294378, "serialpos": 15, "key_press": -1, "wordID": 1419, "type": "PRES_AUD", "trial_index": 70}, "uniqueid": "MTK2230:3RJSC4XJ1113BB7D645GDQGWOUL05Q", "dateTime": 1516899486081}, {"current_trial": 71, "trialdata": {"rt": -1000, "trial_type": "single-audio", "word": "tribe", "stimulus": "/static/audio/wordpool/TRIBE.wav", "conditions": [18, 1200, "a", 18000], "internal_node_id": "0.0-53.0", "trial": 1, "time_elapsed": 296462, "serialpos": 16, "key_press": -1, "wordID": 1504, "type": "PRES_AUD", "trial_index": 71}, "uniqueid": "MTK2230:3RJSC4XJ1113BB7D645GDQGWOUL05Q", "dateTime": 1516899488165}, {"current_trial": 72, "trialdata": {"rt": -1000, "trial_type": "single-audio", "word": "queen", "stimulus": "/static/audio/wordpool/QUEEN.wav", "conditions": [18, 1200, "a", 18000], "internal_node_id": "0.0-54.0", "trial": 1, "time_elapsed": 298654, "serialpos": 17, "key_press": -1, "wordID": 1148, "type": "PRES_AUD", "trial_index": 72}, "uniqueid": "MTK2230:3RJSC4XJ1113BB7D645GDQGWOUL05Q", "dateTime": 1516899490357}, {"current_trial": 73, "trialdata": {"rt": -1, "trial_type": "single-stim", "stimulus": "", "internal_node_id": "0.0-55.0-0.0", "time_elapsed": 299916, "key_press": -1, "type": "PRE_RECALL_DELAY", "trial_index": 73}, "uniqueid": "MTK2230:3RJSC4XJ1113BB7D645GDQGWOUL05Q", "dateTime": 1516899491619}, {"current_trial": 74, "trialdata": {"rt": -1000, "trial_type": "single-audio", "stimulus": "/static/audio/400Hz.wav", "internal_node_id": "0.0-56.0", "time_elapsed": 300418, "key_press": -1, "type": "PRE_RECALL_ALERT", "trial_index": 74}, "uniqueid": "MTK2230:3RJSC4XJ1113BB7D645GDQGWOUL05Q", "dateTime": 1516899492121}, {"current_trial": 75, "trialdata": {"rt": [2434, 4948, 6322, 7431, 8703, 10421, 12597, 14419, 16810, 18591, 20331, 22123, 25023], "recwords": ["gent", "cobra", "office", "eagle", "forest", "antler", "barley", "fireman", "treat", "motel", "possum", "woman", "swimmer"], "key_times": [2016, 2150, 2265, 2322, 2434, 3697, 3879, 4428, 4500, 4674, 4948, 5629, 5814, 5925, 6027, 6108, 6190, 6322, 6729, 6922, 7095, 7197, 7278, 7431, 7828, 7990, 8092, 8173, 8407, 8569, 8703, 9425, 9557, 9710, 9964, 10076, 10177, 10421, 11296, 11438, 11611, 11744, 11937, 12179, 12597, 13483, 13578, 13687, 13768, 13891, 13982, 14094, 14419, 15345, 15416, 15609, 15926, 16333, 16444, 16590, 16810, 17961, 18087, 18153, 18306, 18382, 18591, 19293, 19476, 19669, 19812, 19888, 20128, 20331, 21267, 21352, 21440, 21592, 21694, 22123, 23840, 24026, 24111, 24391, 24524, 24645, 24838, 25023], "trial_type": "free-recall", "conditions": [18, 1200, "a", 18000], "internal_node_id": "0.0-57.0-0.0", "key_presses": [71, 69, 78, 84, 13, 67, 79, 66, 82, 65, 13, 79, 70, 70, 73, 67, 69, 13, 69, 65, 71, 76, 69, 13, 70, 79, 82, 69, 83, 84, 13, 65, 78, 84, 76, 69, 82, 13, 66, 65, 82, 76, 69, 89, 13, 70, 73, 82, 69, 77, 65, 78, 13, 84, 82, 69, 84, 8, 65, 84, 13, 77, 79, 84, 69, 76, 13, 80, 79, 83, 83, 85, 77, 13, 87, 79, 77, 65, 78, 13, 83, 87, 73, 77, 77, 69, 82, 13], "trial": 1, "time_elapsed": 360423, "type": "FREE_RECALL", "trial_index": 75}, "uniqueid": "MTK2230:3RJSC4XJ1113BB7D645GDQGWOUL05Q", "dateTime": 1516899552130}, {"current_trial": 76, "trialdata": {"rt": 2244, "trial_type": "text", "internal_node_id": "0.0-58.0", "time_elapsed": 364673, "key_press": 32, "type": "INSTRUCTIONS", "trial_index": 76}, "uniqueid": "MTK2230:3RJSC4XJ1113BB7D645GDQGWOUL05Q", "dateTime": 1516899556376}, {"current_trial": 77, "trialdata": {"rt": [2326, 4371, 7290, 9007, 10596, 13028, 14991, 17198, 19416, 21177], "trial_type": "math-distractor", "key_times": [1979, 1984, 2326, 4005, 4167, 4371, 6600, 6894, 7290, 8705, 8786, 9007, 10027, 10190, 10596, 12744, 12815, 13028, 14647, 14748, 14991, 16914, 16985, 17198, 19163, 19204, 19416, 20771, 20933, 21177], "responses": ["15", "19", "17", "16", "17", "15", "18", "16", "15", "17"], "num2": [2, 4, 6, 7, 8, 3, 8, 5, 4, 8, 3], "num3": [4, 7, 2, 2, 7, 7, 5, 4, 6, 1, 9], "conditions": [24, 800, "a", 24000], "internal_node_id": "0.0-59.0", "key_presses": [97, 101, 13, 97, 105, 13, 97, 103, 13, 97, 102, 13, 97, 103, 13, 97, 101, 13, 97, 104, 13, 97, 102, 13, 97, 101, 13, 97, 103, 13], "trial": 2, "time_elapsed": 389678, "type": "DISTRACTOR", "trial_index": 77, "num1": [9, 8, 9, 7, 2, 5, 5, 7, 5, 8, 9]}, "uniqueid": "MTK2230:3RJSC4XJ1113BB7D645GDQGWOUL05Q", "dateTime": 1516899581381}, {"current_trial": 78, "trialdata": {"rt": -1, "trial_type": "single-stim", "stimulus": "<p id=\"stim\">10</p>", "internal_node_id": "0.0-60.0-0.0", "time_elapsed": 392681, "key_press": -1, "trial_index": 78}, "uniqueid": "MTK2230:3RJSC4XJ1113BB7D645GDQGWOUL05Q", "dateTime": 1516899584384}, {"current_trial": 79, "trialdata": {"rt": -1, "trial_type": "single-stim", "stimulus": "<p id=\"stim\">9</p>", "internal_node_id": "0.0-60.0-1.0", "time_elapsed": 393683, "key_press": -1, "trial_index": 79}, "uniqueid": "MTK2230:3RJSC4XJ1113BB7D645GDQGWOUL05Q", "dateTime": 1516899585386}, {"current_trial": 80, "trialdata": {"rt": -1, "trial_type": "single-stim", "stimulus": "<p id=\"stim\">8</p>", "internal_node_id": "0.0-60.0-2.0", "time_elapsed": 394685, "key_press": -1, "trial_index": 80}, "uniqueid": "MTK2230:3RJSC4XJ1113BB7D645GDQGWOUL05Q", "dateTime": 1516899586388}, {"current_trial": 81, "trialdata": {"rt": -1, "trial_type": "single-stim", "stimulus": "<p id=\"stim\">7</p>", "internal_node_id": "0.0-60.0-3.0", "time_elapsed": 395687, "key_press": -1, "trial_index": 81}, "uniqueid": "MTK2230:3RJSC4XJ1113BB7D645GDQGWOUL05Q", "dateTime": 1516899587390}, {"current_trial": 82, "trialdata": {"rt": -1, "trial_type": "single-stim", "stimulus": "<p id=\"stim\">6</p>", "internal_node_id": "0.0-60.0-4.0", "time_elapsed": 396689, "key_press": -1, "trial_index": 82}, "uniqueid": "MTK2230:3RJSC4XJ1113BB7D645GDQGWOUL05Q", "dateTime": 1516899588392}, {"current_trial": 83, "trialdata": {"rt": -1, "trial_type": "single-stim", "stimulus": "<p id=\"stim\">5</p>", "internal_node_id": "0.0-60.0-5.0", "time_elapsed": 397691, "key_press": -1, "trial_index": 83}, "uniqueid": "MTK2230:3RJSC4XJ1113BB7D645GDQGWOUL05Q", "dateTime": 1516899589394}, {"current_trial": 84, "trialdata": {"rt": -1, "trial_type": "single-stim", "stimulus": "<p id=\"stim\">4</p>", "internal_node_id": "0.0-60.0-6.0", "time_elapsed": 398693, "key_press": -1, "trial_index": 84}, "uniqueid": "MTK2230:3RJSC4XJ1113BB7D645GDQGWOUL05Q", "dateTime": 1516899590396}, {"current_trial": 85, "trialdata": {"rt": -1, "trial_type": "single-stim", "stimulus": "<p id=\"stim\">3</p>", "internal_node_id": "0.0-60.0-7.0", "time_elapsed": 399695, "key_press": -1, "trial_index": 85}, "uniqueid": "MTK2230:3RJSC4XJ1113BB7D645GDQGWOUL05Q", "dateTime": 1516899591398}, {"current_trial": 86, "trialdata": {"rt": -1, "trial_type": "single-stim", "stimulus": "<p id=\"stim\">2</p>", "internal_node_id": "0.0-60.0-8.0", "time_elapsed": 400697, "key_press": -1, "trial_index": 86}, "uniqueid": "MTK2230:3RJSC4XJ1113BB7D645GDQGWOUL05Q", "dateTime": 1516899592400}, {"current_trial": 87, "trialdata": {"rt": -1, "trial_type": "single-stim", "stimulus": "<p id=\"stim\">1</p>", "internal_node_id": "0.0-60.0-9.0", "time_elapsed": 401699, "key_press": -1, "trial_index": 87}, "uniqueid": "MTK2230:3RJSC4XJ1113BB7D645GDQGWOUL05Q", "dateTime": 1516899593402}, {"current_trial": 88, "trialdata": {"rt": -1, "trial_type": "single-stim", "stimulus": "<p id=\"stim\">+</p>", "internal_node_id": "0.0-61.0-0.0", "time_elapsed": 403201, "key_press": -1, "type": "FIXATION", "trial_index": 88}, "uniqueid": "MTK2230:3RJSC4XJ1113BB7D645GDQGWOUL05Q", "dateTime": 1516899594904}, {"current_trial": 89, "trialdata": {"rt": -1000, "trial_type": "single-audio", "word": "camel", "stimulus": "/static/audio/wordpool/CAMEL.wav", "conditions": [24, 800, "a", 24000], "internal_node_id": "0.0-62.0", "trial": 2, "time_elapsed": 405092, "serialpos": 0, "key_press": -1, "wordID": 222, "type": "PRES_AUD", "trial_index": 89}, "uniqueid": "MTK2230:3RJSC4XJ1113BB7D645GDQGWOUL05Q", "dateTime": 1516899596795}, {"current_trial": 90, "trialdata": {"rt": -1000, "trial_type": "single-audio", "word": "lumber", "stimulus": "/static/audio/wordpool/LUMBER.wav", "conditions": [24, 800, "a", 24000], "internal_node_id": "0.0-63.0", "trial": 2, "time_elapsed": 406764, "serialpos": 1, "key_press": -1, "wordID": 847, "type": "PRES_AUD", "trial_index": 90}, "uniqueid": "MTK2230:3RJSC4XJ1113BB7D645GDQGWOUL05Q", "dateTime": 1516899598467}, {"current_trial": 91, "trialdata": {"rt": -1000, "trial_type": "single-audio", "word": "missile", "stimulus": "/static/audio/wordpool/MISSILE.wav", "conditions": [24, 800, "a", 24000], "internal_node_id": "0.0-64.0", "trial": 2, "time_elapsed": 408625, "serialpos": 2, "key_press": -1, "wordID": 899, "type": "PRES_AUD", "trial_index": 91}, "uniqueid": "MTK2230:3RJSC4XJ1113BB7D645GDQGWOUL05Q", "dateTime": 1516899600329}, {"current_trial": 92, "trialdata": {"rt": -1000, "trial_type": "single-audio", "word": "pilot", "stimulus": "/static/audio/wordpool/PILOT.wav", "conditions": [24, 800, "a", 24000], "internal_node_id": "0.0-65.0", "trial": 2, "time_elapsed": 410436, "serialpos": 3, "key_press": -1, "wordID": 1069, "type": "PRES_AUD", "trial_index": 92}, "uniqueid": "MTK2230:3RJSC4XJ1113BB7D645GDQGWOUL05Q", "dateTime": 1516899602140}, {"current_trial": 93, "trialdata": {"rt": -1000, "trial_type": "single-audio", "word": "donkey", "stimulus": "/static/audio/wordpool/DONKEY.wav", "conditions": [24, 800, "a", 24000], "internal_node_id": "0.0-66.0", "trial": 2, "time_elapsed": 412043, "serialpos": 4, "key_press": -1, "wordID": 483, "type": "PRES_AUD", "trial_index": 93}, "uniqueid": "MTK2230:3RJSC4XJ1113BB7D645GDQGWOUL05Q", "dateTime": 1516899603747}, {"current_trial": 94, "trialdata": {"rt": -1000, "trial_type": "single-audio", "word": "nomad", "stimulus": "/static/audio/wordpool/NOMAD.wav", "conditions": [24, 800, "a", 24000], "internal_node_id": "0.0-67.0", "trial": 2, "time_elapsed": 413652, "serialpos": 5, "key_press": -1, "wordID": 954, "type": "PRES_AUD", "trial_index": 94}, "uniqueid": "MTK2230:3RJSC4XJ1113BB7D645GDQGWOUL05Q", "dateTime": 1516899605355}, {"current_trial": 95, "trialdata": {"rt": -1000, "trial_type": "single-audio", "word": "turkey", "stimulus": "/static/audio/wordpool/TURKEY.wav", "conditions": [24, 800, "a", 24000], "internal_node_id": "0.0-68.0", "trial": 2, "time_elapsed": 415345, "serialpos": 6, "key_press": -1, "wordID": 1519, "type": "PRES_AUD", "trial_index": 95}, "uniqueid": "MTK2230:3RJSC4XJ1113BB7D645GDQGWOUL05Q", "dateTime": 1516899607048}, {"current_trial": 96, "trialdata": {"rt": -1000, "trial_type": "single-audio", "word": "quail", "stimulus": "/static/audio/wordpool/QUAIL.wav", "conditions": [24, 800, "a", 24000], "internal_node_id": "0.0-69.0", "trial": 2, "time_elapsed": 417210, "serialpos": 7, "key_press": -1, "wordID": 1146, "type": "PRES_AUD", "trial_index": 96}, "uniqueid": "MTK2230:3RJSC4XJ1113BB7D645GDQGWOUL05Q", "dateTime": 1516899608914}, {"current_trial": 97, "trialdata": {"rt": -1000, "trial_type": "single-audio", "word": "package", "stimulus": "/static/audio/wordpool/PACKAGE.wav", "conditions": [24, 800, "a", 24000], "internal_node_id": "0.0-70.0", "trial": 2, "time_elapsed": 418845, "serialpos": 8, "key_press": -1, "wordID": 996, "type": "PRES_AUD", "trial_index": 97}, "uniqueid": "MTK2230:3RJSC4XJ1113BB7D645GDQGWOUL05Q", "dateTime": 1516899610548}, {"current_trial": 98, "trialdata": {"rt": -1000, "trial_type": "single-audio", "word": "palace", "stimulus": "/static/audio/wordpool/PALACE.wav", "conditions": [24, 800, "a", 24000], "internal_node_id": "0.0-71.0", "trial": 2, "time_elapsed": 420536, "serialpos": 9, "key_press": -1, "wordID": 1005, "type": "PRES_AUD", "trial_index": 98}, "uniqueid": "MTK2230:3RJSC4XJ1113BB7D645GDQGWOUL05Q", "dateTime": 1516899612239}, {"current_trial": 99, "trialdata": {"rt": -1000, "trial_type": "single-audio", "word": "shirt", "stimulus": "/static/audio/wordpool/SHIRT.wav", "conditions": [24, 800, "a", 24000], "internal_node_id": "0.0-72.0", "trial": 2, "time_elapsed": 422324, "serialpos": 10, "key_press": -1, "wordID": 1286, "type": "PRES_AUD", "trial_index": 99}, "uniqueid": "MTK2230:3RJSC4XJ1113BB7D645GDQGWOUL05Q", "dateTime": 1516899614027}, {"current_trial": 100, "trialdata": {"rt": -1000, "trial_type": "single-audio", "word": "contract", "stimulus": "/static/audio/wordpool/CONTRACT.wav", "conditions": [24, 800, "a", 24000], "internal_node_id": "0.0-73.0", "trial": 2, "time_elapsed": 424122, "serialpos": 11, "key_press": -1, "wordID": 367, "type": "PRES_AUD", "trial_index": 100}, "uniqueid": "MTK2230:3RJSC4XJ1113BB7D645GDQGWOUL05Q", "dateTime": 1516899615825}, {"current_trial": 101, "trialdata": {"rt": -1000, "trial_type": "single-audio", "word": "creature", "stimulus": "/static/audio/wordpool/CREATURE.wav", "conditions": [24, 800, "a", 24000], "internal_node_id": "0.0-74.0", "trial": 2, "time_elapsed": 426122, "serialpos": 12, "key_press": -1, "wordID": 402, "type": "PRES_AUD", "trial_index": 101}, "uniqueid": "MTK2230:3RJSC4XJ1113BB7D645GDQGWOUL05Q", "dateTime": 1516899617825}, {"current_trial": 102, "trialdata": {"rt": -1000, "trial_type": "single-audio", "word": "trombone", "stimulus": "/static/audio/wordpool/TROMBONE.wav", "conditions": [24, 800, "a", 24000], "internal_node_id": "0.0-75.0", "trial": 2, "time_elapsed": 427784, "serialpos": 13, "key_press": -1, "wordID": 1507, "type": "PRES_AUD", "trial_index": 102}, "uniqueid": "MTK2230:3RJSC4XJ1113BB7D645GDQGWOUL05Q", "dateTime": 1516899619487}, {"current_trial": 103, "trialdata": {"rt": -1000, "trial_type": "single-audio", "word": "island", "stimulus": "/static/audio/wordpool/ISLAND.wav", "conditions": [24, 800, "a", 24000], "internal_node_id": "0.0-76.0", "trial": 2, "time_elapsed": 429591, "serialpos": 14, "key_press": -1, "wordID": 744, "type": "PRES_AUD", "trial_index": 103}, "uniqueid": "MTK2230:3RJSC4XJ1113BB7D645GDQGWOUL05Q", "dateTime": 1516899621294}, {"current_trial": 104, "trialdata": {"rt": -1000, "trial_type": "single-audio", "word": "flesh", "stimulus": "/static/audio/wordpool/FLESH.wav", "conditions": [24, 800, "a", 24000], "internal_node_id": "0.0-77.0", "trial": 2, "time_elapsed": 431297, "serialpos": 15, "key_press": -1, "wordID": 578, "type": "PRES_AUD", "trial_index": 104}, "uniqueid": "MTK2230:3RJSC4XJ1113BB7D645GDQGWOUL05Q", "dateTime": 1516899623000}, {"current_trial": 105, "trialdata": {"rt": -1000, "trial_type": "single-audio", "word": "penguin", "stimulus": "/static/audio/wordpool/PENGUIN.wav", "conditions": [24, 800, "a", 24000], "internal_node_id": "0.0-78.0", "trial": 2, "time_elapsed": 433046, "serialpos": 16, "key_press": -1, "wordID": 1043, "type": "PRES_AUD", "trial_index": 105}, "uniqueid": "MTK2230:3RJSC4XJ1113BB7D645GDQGWOUL05Q", "dateTime": 1516899624749}, {"current_trial": 106, "trialdata": {"rt": -1000, "trial_type": "single-audio", "word": "ankle", "stimulus": "/static/audio/wordpool/ANKLE.wav", "conditions": [24, 800, "a", 24000], "internal_node_id": "0.0-79.0", "trial": 2, "time_elapsed": 434877, "serialpos": 17, "key_press": -1, "wordID": 23, "type": "PRES_AUD", "trial_index": 106}, "uniqueid": "MTK2230:3RJSC4XJ1113BB7D645GDQGWOUL05Q", "dateTime": 1516899626580}, {"current_trial": 107, "trialdata": {"rt": -1000, "trial_type": "single-audio", "word": "elbow", "stimulus": "/static/audio/wordpool/ELBOW.wav", "conditions": [24, 800, "a", 24000], "internal_node_id": "0.0-80.0", "trial": 2, "time_elapsed": 436660, "serialpos": 18, "key_press": -1, "wordID": 519, "type": "PRES_AUD", "trial_index": 107}, "uniqueid": "MTK2230:3RJSC4XJ1113BB7D645GDQGWOUL05Q", "dateTime": 1516899628363}, {"current_trial": 108, "trialdata": {"rt": -1000, "trial_type": "single-audio", "word": "fiddle", "stimulus": "/static/audio/wordpool/FIDDLE.wav", "conditions": [24, 800, "a", 24000], "internal_node_id": "0.0-81.0", "trial": 2, "time_elapsed": 438405, "serialpos": 19, "key_press": -1, "wordID": 560, "type": "PRES_AUD", "trial_index": 108}, "uniqueid": "MTK2230:3RJSC4XJ1113BB7D645GDQGWOUL05Q", "dateTime": 1516899630108}, {"current_trial": 109, "trialdata": {"rt": -1000, "trial_type": "single-audio", "word": "sponge", "stimulus": "/static/audio/wordpool/SPONGE.wav", "conditions": [24, 800, "a", 24000], "internal_node_id": "0.0-82.0", "trial": 2, "time_elapsed": 440139, "serialpos": 20, "key_press": -1, "wordID": 1354, "type": "PRES_AUD", "trial_index": 109}, "uniqueid": "MTK2230:3RJSC4XJ1113BB7D645GDQGWOUL05Q", "dateTime": 1516899631843}, {"current_trial": 110, "trialdata": {"rt": -1000, "trial_type": "single-audio", "word": "hiker", "stimulus": "/static/audio/wordpool/HIKER.wav", "conditions": [24, 800, "a", 24000], "internal_node_id": "0.0-83.0", "trial": 2, "time_elapsed": 442140, "serialpos": 21, "key_press": -1, "wordID": 707, "type": "PRES_AUD", "trial_index": 110}, "uniqueid": "MTK2230:3RJSC4XJ1113BB7D645GDQGWOUL05Q", "dateTime": 1516899633844}, {"current_trial": 111, "trialdata": {"rt": -1000, "trial_type": "single-audio", "word": "compass", "stimulus": "/static/audio/wordpool/COMPASS.wav", "conditions": [24, 800, "a", 24000], "internal_node_id": "0.0-84.0", "trial": 2, "time_elapsed": 443986, "serialpos": 22, "key_press": -1, "wordID": 357, "type": "PRES_AUD", "trial_index": 111}, "uniqueid": "MTK2230:3RJSC4XJ1113BB7D645GDQGWOUL05Q", "dateTime": 1516899635689}, {"current_trial": 112, "trialdata": {"rt": -1000, "trial_type": "single-audio", "word": "church", "stimulus": "/static/audio/wordpool/CHURCH.wav", "conditions": [24, 800, "a", 24000], "internal_node_id": "0.0-85.0", "trial": 2, "time_elapsed": 445625, "serialpos": 23, "key_press": -1, "wordID": 306, "type": "PRES_AUD", "trial_index": 112}, "uniqueid": "MTK2230:3RJSC4XJ1113BB7D645GDQGWOUL05Q", "dateTime": 1516899637328}, {"current_trial": 113, "trialdata": {"rt": -1, "trial_type": "single-stim", "stimulus": "", "internal_node_id": "0.0-86.0-0.0", "time_elapsed": 446969, "key_press": -1, "type": "PRE_RECALL_DELAY", "trial_index": 113}, "uniqueid": "MTK2230:3RJSC4XJ1113BB7D645GDQGWOUL05Q", "dateTime": 1516899638672}, {"current_trial": 114, "trialdata": {"rt": -1000, "trial_type": "single-audio", "stimulus": "/static/audio/400Hz.wav", "internal_node_id": "0.0-87.0", "time_elapsed": 447471, "key_press": -1, "type": "PRE_RECALL_ALERT", "trial_index": 114}, "uniqueid": "MTK2230:3RJSC4XJ1113BB7D645GDQGWOUL05Q", "dateTime": 1516899639174}, {"current_trial": 115, "trialdata": {"rt": [2858, 4554, 6692, 7984, 10172, 12312, 15262, 17796, 20016, 22528, 24847, 26771, 28613, 30648, 32633, 35003, 37172, 38951, 40925], "recwords": ["camel", "lumber", "missile", "pilot", "donkey", "noamd", "turkey", "package", "shirt", "contract", "trombone", "island", "flesh", "penguin", "ankle", "elbow", "fiddle", "sponge", "church"], "key_times": [1754, 1910, 2005, 2112, 2195, 2858, 3293, 3496, 3742, 3944, 4076, 4240, 4554, 4911, 5124, 5185, 5328, 5561, 5715, 5878, 6692, 7129, 7322, 7525, 7709, 7802, 7984, 8869, 9052, 9214, 9287, 9836, 9887, 10172, 11617, 11735, 11934, 12026, 12118, 12312, 13991, 14106, 14590, 14753, 14856, 14978, 15262, 16747, 16881, 17053, 17175, 17287, 17450, 17602, 17796, 19190, 19507, 19648, 19760, 19914, 20016, 21064, 21216, 21327, 21358, 21754, 21978, 22172, 22375, 22528, 23718, 23789, 23912, 24004, 24217, 24308, 24492, 24624, 24847, 26100, 26191, 26323, 26394, 26507, 26578, 26771, 27962, 28058, 28165, 28338, 28389, 28613, 29712, 29823, 29925, 30037, 30140, 30190, 30434, 30648, 32070, 32149, 32347, 32408, 32439, 32633, 34322, 34454, 34647, 34759, 34871, 35003, 36407, 36493, 36753, 36875, 36966, 37049, 37172, 38331, 38412, 38534, 38625, 38687, 38829, 38951, 40265, 40356, 40457, 40508, 40650, 40722, 40925], "trial_type": "free-recall", "conditions": [24, 800, "a", 24000], "internal_node_id": "0.0-88.0-0.0", "key_presses": [67, 65, 77, 69, 76, 13, 76, 85, 77, 66, 69, 82, 13, 77, 73, 83, 83, 73, 76, 69, 13, 80, 73, 76, 79, 84, 13, 68, 79, 78, 75, 69, 89, 13, 78, 79, 65, 77, 68, 13, 84, 85, 82, 75, 69, 89, 13, 80, 65, 67, 75, 65, 71, 69, 13, 83, 72, 73, 82, 84, 13, 67, 79, 78, 84, 82, 65, 67, 84, 13, 84, 82, 79, 77, 66, 79, 78, 69, 13, 73, 83, 76, 65, 78, 68, 13, 70, 76, 69, 83, 72, 13, 80, 69, 78, 71, 85, 73, 78, 13, 65, 78, 75, 76, 69, 13, 69, 76, 66, 79, 87, 13, 70, 73, 68, 68, 76, 69, 13, 83, 80, 79, 78, 71, 69, 13, 67, 72, 85, 82, 67, 72, 13], "trial": 2, "time_elapsed": 507477, "type": "FREE_RECALL", "trial_index": 115}, "uniqueid": "MTK2230:3RJSC4XJ1113BB7D645GDQGWOUL05Q", "dateTime": 1516899699184}, {"current_trial": 116, "trialdata": {"rt": 2012, "trial_type": "text", "internal_node_id": "0.0-89.0", "time_elapsed": 511495, "key_press": 32, "type": "INSTRUCTIONS", "trial_index": 116}, "uniqueid": "MTK2230:3RJSC4XJ1113BB7D645GDQGWOUL05Q", "dateTime": 1516899703198}, {"current_trial": 117, "trialdata": {"rt": [4031, 5505, 7398, 8904, 11477], "trial_type": "math-distractor", "key_times": [3563, 3799, 4031, 5111, 5283, 5505, 7155, 7287, 7398, 8516, 8651, 8904, 11153, 11259, 11477], "responses": ["19", "17", "11", "18", "15"], "num2": [9, 7, 6, 4, 8, 2], "num3": [9, 7, 4, 8, 4, 5], "conditions": [24, 1600, "a", 12000], "internal_node_id": "0.0-90.0", "key_presses": [97, 105, 13, 97, 103, 13, 97, 97, 13, 97, 104, 13, 97, 101, 13], "trial": 3, "time_elapsed": 525499, "type": "DISTRACTOR", "trial_index": 117, "num1": [4, 3, 1, 7, 3, 5]}, "uniqueid": "MTK2230:3RJSC4XJ1113BB7D645GDQGWOUL05Q", "dateTime": 1516899717202}, {"current_trial": 118, "trialdata": {"rt": -1, "trial_type": "single-stim", "stimulus": "<p id=\"stim\">10</p>", "internal_node_id": "0.0-91.0-0.0", "time_elapsed": 528503, "key_press": -1, "trial_index": 118}, "uniqueid": "MTK2230:3RJSC4XJ1113BB7D645GDQGWOUL05Q", "dateTime": 1516899720207}, {"current_trial": 119, "trialdata": {"rt": -1, "trial_type": "single-stim", "stimulus": "<p id=\"stim\">9</p>", "internal_node_id": "0.0-91.0-1.0", "time_elapsed": 529505, "key_press": -1, "trial_index": 119}, "uniqueid": "MTK2230:3RJSC4XJ1113BB7D645GDQGWOUL05Q", "dateTime": 1516899721209}, {"current_trial": 120, "trialdata": {"rt": -1, "trial_type": "single-stim", "stimulus": "<p id=\"stim\">8</p>", "internal_node_id": "0.0-91.0-2.0", "time_elapsed": 530508, "key_press": -1, "trial_index": 120}, "uniqueid": "MTK2230:3RJSC4XJ1113BB7D645GDQGWOUL05Q", "dateTime": 1516899722211}, {"current_trial": 121, "trialdata": {"rt": -1, "trial_type": "single-stim", "stimulus": "<p id=\"stim\">7</p>", "internal_node_id": "0.0-91.0-3.0", "time_elapsed": 531509, "key_press": -1, "trial_index": 121}, "uniqueid": "MTK2230:3RJSC4XJ1113BB7D645GDQGWOUL05Q", "dateTime": 1516899723213}, {"current_trial": 122, "trialdata": {"rt": -1, "trial_type": "single-stim", "stimulus": "<p id=\"stim\">6</p>", "internal_node_id": "0.0-91.0-4.0", "time_elapsed": 532512, "key_press": -1, "trial_index": 122}, "uniqueid": "MTK2230:3RJSC4XJ1113BB7D645GDQGWOUL05Q", "dateTime": 1516899724215}, {"current_trial": 123, "trialdata": {"rt": -1, "trial_type": "single-stim", "stimulus": "<p id=\"stim\">5</p>", "internal_node_id": "0.0-91.0-5.0", "time_elapsed": 533514, "key_press": -1, "trial_index": 123}, "uniqueid": "MTK2230:3RJSC4XJ1113BB7D645GDQGWOUL05Q", "dateTime": 1516899725217}, {"current_trial": 124, "trialdata": {"rt": -1, "trial_type": "single-stim", "stimulus": "<p id=\"stim\">4</p>", "internal_node_id": "0.0-91.0-6.0", "time_elapsed": 534516, "key_press": -1, "trial_index": 124}, "uniqueid": "MTK2230:3RJSC4XJ1113BB7D645GDQGWOUL05Q", "dateTime": 1516899726219}, {"current_trial": 125, "trialdata": {"rt": -1, "trial_type": "single-stim", "stimulus": "<p id=\"stim\">3</p>", "internal_node_id": "0.0-91.0-7.0", "time_elapsed": 535518, "key_press": -1, "trial_index": 125}, "uniqueid": "MTK2230:3RJSC4XJ1113BB7D645GDQGWOUL05Q", "dateTime": 1516899727221}, {"current_trial": 126, "trialdata": {"rt": -1, "trial_type": "single-stim", "stimulus": "<p id=\"stim\">2</p>", "internal_node_id": "0.0-91.0-8.0", "time_elapsed": 536520, "key_press": -1, "trial_index": 126}, "uniqueid": "MTK2230:3RJSC4XJ1113BB7D645GDQGWOUL05Q", "dateTime": 1516899728223}, {"current_trial": 127, "trialdata": {"rt": -1, "trial_type": "single-stim", "stimulus": "<p id=\"stim\">1</p>", "internal_node_id": "0.0-91.0-9.0", "time_elapsed": 537522, "key_press": -1, "trial_index": 127}, "uniqueid": "MTK2230:3RJSC4XJ1113BB7D645GDQGWOUL05Q", "dateTime": 1516899729225}, {"current_trial": 128, "trialdata": {"rt": -1, "trial_type": "single-stim", "stimulus": "<p id=\"stim\">+</p>", "internal_node_id": "0.0-92.0-0.0", "time_elapsed": 539024, "key_press": -1, "type": "FIXATION", "trial_index": 128}, "uniqueid": "MTK2230:3RJSC4XJ1113BB7D645GDQGWOUL05Q", "dateTime": 1516899730727}, {"current_trial": 129, "trialdata": {"rt": -1000, "trial_type": "single-audio", "word": "blender", "stimulus": "/static/audio/wordpool/BLENDER.wav", "conditions": [24, 1600, "a", 12000], "internal_node_id": "0.0-93.0", "trial": 3, "time_elapsed": 541433, "serialpos": 0, "key_press": -1, "wordID": 135, "type": "PRES_AUD", "trial_index": 129}, "uniqueid": "MTK2230:3RJSC4XJ1113BB7D645GDQGWOUL05Q", "dateTime": 1516899733136}, {"current_trial": 130, "trialdata": {"rt": -1000, "trial_type": "single-audio", "word": "stamp", "stimulus": "/static/audio/wordpool/STAMP.wav", "conditions": [24, 1600, "a", 12000], "internal_node_id": "0.0-94.0", "trial": 3, "time_elapsed": 543997, "serialpos": 1, "key_press": -1, "wordID": 1369, "type": "PRES_AUD", "trial_index": 130}, "uniqueid": "MTK2230:3RJSC4XJ1113BB7D645GDQGWOUL05Q", "dateTime": 1516899735700}, {"current_trial": 131, "trialdata": {"rt": -1000, "trial_type": "single-audio", "word": "cyclone", "stimulus": "/static/audio/wordpool/CYCLONE.wav", "conditions": [24, 1600, "a", 12000], "internal_node_id": "0.0-95.0", "trial": 3, "time_elapsed": 546440, "serialpos": 2, "key_press": -1, "wordID": 430, "type": "PRES_AUD", "trial_index": 131}, "uniqueid": "MTK2230:3RJSC4XJ1113BB7D645GDQGWOUL05Q", "dateTime": 1516899738143}, {"current_trial": 132, "trialdata": {"rt": -1000, "trial_type": "single-audio", "word": "rooster", "stimulus": "/static/audio/wordpool/ROOSTER.wav", "conditions": [24, 1600, "a", 12000], "internal_node_id": "0.0-96.0", "trial": 3, "time_elapsed": 548885, "serialpos": 3, "key_press": -1, "wordID": 1208, "type": "PRES_AUD", "trial_index": 132}, "uniqueid": "MTK2230:3RJSC4XJ1113BB7D645GDQGWOUL05Q", "dateTime": 1516899740588}, {"current_trial": 133, "trialdata": {"rt": -1000, "trial_type": "single-audio", "word": "viking", "stimulus": "/static/audio/wordpool/VIKING.wav", "conditions": [24, 1600, "a", 12000], "internal_node_id": "0.0-97.0", "trial": 3, "time_elapsed": 551303, "serialpos": 4, "key_press": -1, "wordID": 1564, "type": "PRES_AUD", "trial_index": 133}, "uniqueid": "MTK2230:3RJSC4XJ1113BB7D645GDQGWOUL05Q", "dateTime": 1516899743006}, {"current_trial": 134, "trialdata": {"rt": -1000, "trial_type": "single-audio", "word": "lace", "stimulus": "/static/audio/wordpool/LACE.wav", "conditions": [24, 1600, "a", 12000], "internal_node_id": "0.0-98.0", "trial": 3, "time_elapsed": 553873, "serialpos": 5, "key_press": -1, "wordID": 791, "type": "PRES_AUD", "trial_index": 134}, "uniqueid": "MTK2230:3RJSC4XJ1113BB7D645GDQGWOUL05Q", "dateTime": 1516899745576}, {"current_trial": 135, "trialdata": {"rt": -1000, "trial_type": "single-audio", "word": "silk", "stimulus": "/static/audio/wordpool/SILK.wav", "conditions": [24, 1600, "a", 12000], "internal_node_id": "0.0-99.0", "trial": 3, "time_elapsed": 556393, "serialpos": 6, "key_press": -1, "wordID": 1306, "type": "PRES_AUD", "trial_index": 135}, "uniqueid": "MTK2230:3RJSC4XJ1113BB7D645GDQGWOUL05Q", "dateTime": 1516899748096}, {"current_trial": 136, "trialdata": {"rt": -1000, "trial_type": "single-audio", "word": "rabbit", "stimulus": "/static/audio/wordpool/RABBIT.wav", "conditions": [24, 1600, "a", 12000], "internal_node_id": "0.0-100.0", "trial": 3, "time_elapsed": 558961, "serialpos": 7, "key_press": -1, "wordID": 1151, "type": "PRES_AUD", "trial_index": 136}, "uniqueid": "MTK2230:3RJSC4XJ1113BB7D645GDQGWOUL05Q", "dateTime": 1516899750664}, {"current_trial": 137, "trialdata": {"rt": -1000, "trial_type": "single-audio", "word": "money", "stimulus": "/static/audio/wordpool/MONEY.wav", "conditions": [24, 1600, "a", 12000], "internal_node_id": "0.0-101.0", "trial": 3, "time_elapsed": 561424, "serialpos": 8, "key_press": -1, "wordID": 907, "type": "PRES_AUD", "trial_index": 137}, "uniqueid": "MTK2230:3RJSC4XJ1113BB7D645GDQGWOUL05Q", "dateTime": 1516899753127}, {"current_trial": 138, "trialdata": {"rt": -1000, "trial_type": "single-audio", "word": "radish", "stimulus": "/static/audio/wordpool/RADISH.wav", "conditions": [24, 1600, "a", 12000], "internal_node_id": "0.0-102.0", "trial": 3, "time_elapsed": 563879, "serialpos": 9, "key_press": -1, "wordID": 1157, "type": "PRES_AUD", "trial_index": 138}, "uniqueid": "MTK2230:3RJSC4XJ1113BB7D645GDQGWOUL05Q", "dateTime": 1516899755582}, {"current_trial": 139, "trialdata": {"rt": -1000, "trial_type": "single-audio", "word": "turtle", "stimulus": "/static/audio/wordpool/TURTLE.wav", "conditions": [24, 1600, "a", 12000], "internal_node_id": "0.0-103.0", "trial": 3, "time_elapsed": 566317, "serialpos": 10, "key_press": -1, "wordID": 1521, "type": "PRES_AUD", "trial_index": 139}, "uniqueid": "MTK2230:3RJSC4XJ1113BB7D645GDQGWOUL05Q", "dateTime": 1516899758021}, {"current_trial": 140, "trialdata": {"rt": -1000, "trial_type": "single-audio", "word": "blade", "stimulus": "/static/audio/wordpool/BLADE.wav", "conditions": [24, 1600, "a", 12000], "internal_node_id": "0.0-104.0", "trial": 3, "time_elapsed": 568848, "serialpos": 11, "key_press": -1, "wordID": 133, "type": "PRES_AUD", "trial_index": 140}, "uniqueid": "MTK2230:3RJSC4XJ1113BB7D645GDQGWOUL05Q", "dateTime": 1516899760552}, {"current_trial": 141, "trialdata": {"rt": -1000, "trial_type": "single-audio", "word": "omelet", "stimulus": "/static/audio/wordpool/OMELET.wav", "conditions": [24, 1600, "a", 12000], "internal_node_id": "0.0-105.0", "trial": 3, "time_elapsed": 571338, "serialpos": 12, "key_press": -1, "wordID": 975, "type": "PRES_AUD", "trial_index": 141}, "uniqueid": "MTK2230:3RJSC4XJ1113BB7D645GDQGWOUL05Q", "dateTime": 1516899763041}, {"current_trial": 142, "trialdata": {"rt": -1000, "trial_type": "single-audio", "word": "twister", "stimulus": "/static/audio/wordpool/TWISTER.wav", "conditions": [24, 1600, "a", 12000], "internal_node_id": "0.0-106.0", "trial": 3, "time_elapsed": 573946, "serialpos": 13, "key_press": -1, "wordID": 1529, "type": "PRES_AUD", "trial_index": 142}, "uniqueid": "MTK2230:3RJSC4XJ1113BB7D645GDQGWOUL05Q", "dateTime": 1516899765649}, {"current_trial": 143, "trialdata": {"rt": -1000, "trial_type": "single-audio", "word": "virus", "stimulus": "/static/audio/wordpool/VIRUS.wav", "conditions": [24, 1600, "a", 12000], "internal_node_id": "0.0-107.0", "trial": 3, "time_elapsed": 576685, "serialpos": 14, "key_press": -1, "wordID": 1571, "type": "PRES_AUD", "trial_index": 143}, "uniqueid": "MTK2230:3RJSC4XJ1113BB7D645GDQGWOUL05Q", "dateTime": 1516899768388}, {"current_trial": 144, "trialdata": {"rt": -1000, "trial_type": "single-audio", "word": "guard", "stimulus": "/static/audio/wordpool/GUARD.wav", "conditions": [24, 1600, "a", 12000], "internal_node_id": "0.0-108.0", "trial": 3, "time_elapsed": 579121, "serialpos": 15, "key_press": -1, "wordID": 666, "type": "PRES_AUD", "trial_index": 144}, "uniqueid": "MTK2230:3RJSC4XJ1113BB7D645GDQGWOUL05Q", "dateTime": 1516899770824}, {"current_trial": 145, "trialdata": {"rt": -1000, "trial_type": "single-audio", "word": "wasp", "stimulus": "/static/audio/wordpool/WASP.wav", "conditions": [24, 1600, "a", 12000], "internal_node_id": "0.0-109.0", "trial": 3, "time_elapsed": 581774, "serialpos": 16, "key_press": -1, "wordID": 1592, "type": "PRES_AUD", "trial_index": 145}, "uniqueid": "MTK2230:3RJSC4XJ1113BB7D645GDQGWOUL05Q", "dateTime": 1516899773477}, {"current_trial": 146, "trialdata": {"rt": -1000, "trial_type": "single-audio", "word": "robin", "stimulus": "/static/audio/wordpool/ROBIN.wav", "conditions": [24, 1600, "a", 12000], "internal_node_id": "0.0-110.0", "trial": 3, "time_elapsed": 584210, "serialpos": 17, "key_press": -1, "wordID": 1198, "type": "PRES_AUD", "trial_index": 146}, "uniqueid": "MTK2230:3RJSC4XJ1113BB7D645GDQGWOUL05Q", "dateTime": 1516899775913}, {"current_trial": 147, "trialdata": {"rt": -1000, "trial_type": "single-audio", "word": "sibling", "stimulus": "/static/audio/wordpool/SIBLING.wav", "conditions": [24, 1600, "a", 12000], "internal_node_id": "0.0-111.0", "trial": 3, "time_elapsed": 586620, "serialpos": 18, "key_press": -1, "wordID": 1300, "type": "PRES_AUD", "trial_index": 147}, "uniqueid": "MTK2230:3RJSC4XJ1113BB7D645GDQGWOUL05Q", "dateTime": 1516899778323}, {"current_trial": 148, "trialdata": {"rt": -1000, "trial_type": "single-audio", "word": "beaver", "stimulus": "/static/audio/wordpool/BEAVER.wav", "conditions": [24, 1600, "a", 12000], "internal_node_id": "0.0-112.0", "trial": 3, "time_elapsed": 589358, "serialpos": 19, "key_press": -1, "wordID": 108, "type": "PRES_AUD", "trial_index": 148}, "uniqueid": "MTK2230:3RJSC4XJ1113BB7D645GDQGWOUL05Q", "dateTime": 1516899781061}, {"current_trial": 149, "trialdata": {"rt": -1000, "trial_type": "single-audio", "word": "chauffeur", "stimulus": "/static/audio/wordpool/CHAUFFEUR.wav", "conditions": [24, 1600, "a", 12000], "internal_node_id": "0.0-113.0", "trial": 3, "time_elapsed": 591915, "serialpos": 20, "key_press": -1, "wordID": 282, "type": "PRES_AUD", "trial_index": 149}, "uniqueid": "MTK2230:3RJSC4XJ1113BB7D645GDQGWOUL05Q", "dateTime": 1516899783619}, {"current_trial": 150, "trialdata": {"rt": -1000, "trial_type": "single-audio", "word": "farmer", "stimulus": "/static/audio/wordpool/FARMER.wav", "conditions": [24, 1600, "a", 12000], "internal_node_id": "0.0-114.0", "trial": 3, "time_elapsed": 594683, "serialpos": 21, "key_press": -1, "wordID": 552, "type": "PRES_AUD", "trial_index": 150}, "uniqueid": "MTK2230:3RJSC4XJ1113BB7D645GDQGWOUL05Q", "dateTime": 1516899786386}, {"current_trial": 151, "trialdata": {"rt": -1000, "trial_type": "single-audio", "word": "sister", "stimulus": "/static/audio/wordpool/SISTER.wav", "conditions": [24, 1600, "a", 12000], "internal_node_id": "0.0-115.0", "trial": 3, "time_elapsed": 597358, "serialpos": 22, "key_press": -1, "wordID": 1311, "type": "PRES_AUD", "trial_index": 151}, "uniqueid": "MTK2230:3RJSC4XJ1113BB7D645GDQGWOUL05Q", "dateTime": 1516899789062}, {"current_trial": 152, "trialdata": {"rt": -1000, "trial_type": "single-audio", "word": "banquet", "stimulus": "/static/audio/wordpool/BANQUET.wav", "conditions": [24, 1600, "a", 12000], "internal_node_id": "0.0-116.0", "trial": 3, "time_elapsed": 599918, "serialpos": 23, "key_press": -1, "wordID": 85, "type": "PRES_AUD", "trial_index": 152}, "uniqueid": "MTK2230:3RJSC4XJ1113BB7D645GDQGWOUL05Q", "dateTime": 1516899791621}, {"current_trial": 153, "trialdata": {"rt": -1, "trial_type": "single-stim", "stimulus": "", "internal_node_id": "0.0-117.0-0.0", "time_elapsed": 601125, "key_press": -1, "type": "PRE_RECALL_DELAY", "trial_index": 153}, "uniqueid": "MTK2230:3RJSC4XJ1113BB7D645GDQGWOUL05Q", "dateTime": 1516899792828}, {"current_trial": 154, "trialdata": {"rt": -1000, "trial_type": "single-audio", "stimulus": "/static/audio/400Hz.wav", "internal_node_id": "0.0-118.0", "time_elapsed": 601627, "key_press": -1, "type": "PRE_RECALL_ALERT", "trial_index": 154}, "uniqueid": "MTK2230:3RJSC4XJ1113BB7D645GDQGWOUL05Q", "dateTime": 1516899793330}, {"current_trial": 155, "trialdata": {"rt": [2555, 3960, 6330, 8578, 9433, 11224, 12546, 13798, 15660, 18031, 19821, 25194, 27809, 29579, 31380, 32946, 34503, 37005, 38156, 40027, 52484], "recwords": ["blender", "stamp", "cyclone", "biking", "lace", "silk", "rabbit", "money", "radish", "turtle", "blade", "twister", "virus", "guard", "wasp", "robini", "sibling", "beaver", "farmer", "sist", "banuet"], "key_times": [1850, 1914, 2036, 2168, 2210, 2331, 2427, 2555, 3308, 3470, 3634, 3700, 3756, 3960, 4744, 4906, 4997, 5139, 5526, 5812, 6015, 6096, 6187, 6330, 7591, 7766, 7938, 8232, 8284, 8406, 8578, 8844, 8955, 9138, 9239, 9433, 10674, 10756, 10879, 11011, 11224, 11794, 11975, 12069, 12190, 12323, 12404, 12546, 13197, 13308, 13421, 13483, 13686, 13798, 14898, 15050, 15161, 15263, 15344, 15420, 15660, 16932, 17044, 17298, 17542, 17765, 17899, 18031, 19282, 19383, 19506, 19587, 19729, 19821, 20992, 21357, 21571, 21876, 22007, 22121, 22263, 22497, 23006, 23047, 23088, 23128, 23169, 23209, 23250, 23290, 23331, 23371, 23412, 24065, 24319, 24410, 24573, 24746, 24939, 25012, 25194, 26862, 26985, 27290, 27432, 27555, 27809, 28866, 29040, 29142, 29325, 29477, 29579, 30779, 30952, 31044, 31191, 31380, 31989, 32233, 32367, 32509, 32653, 32656, 32946, 33710, 33892, 33974, 34096, 34219, 34300, 34371, 34503, 35591, 36100, 36314, 36517, 36680, 36751, 37005, 37341, 37524, 37728, 37870, 37961, 38032, 38156, 38654, 39529, 39640, 39814, 40027, 41360, 42681, 43731, 43793, 44148, 44302, 44821, 44953, 45115, 51527, 51669, 51764, 52025, 52218, 52371, 52484, 52786], "trial_type": "free-recall", "conditions": [24, 1600, "a", 12000], "internal_node_id": "0.0-119.0-0.0", "key_presses": [66, 76, 69, 78, 68, 69, 82, 13, 83, 84, 65, 77, 80, 13, 67, 89, 67, 76, 69, 8, 79, 78, 69, 13, 66, 73, 75, 73, 78, 71, 13, 76, 65, 67, 69, 13, 83, 73, 76, 75, 13, 82, 65, 66, 66, 73, 84, 13, 77, 79, 78, 69, 89, 13, 82, 65, 68, 73, 83, 72, 13, 84, 85, 82, 84, 76, 69, 13, 66, 76, 65, 68, 69, 13, 79, 77, 69, 76, 76, 69, 84, 8, 8, 8, 8, 8, 8, 8, 8, 8, 8, 8, 8, 84, 87, 73, 83, 84, 69, 82, 13, 86, 73, 82, 85, 83, 13, 71, 85, 65, 82, 68, 13, 87, 65, 83, 80, 13, 82, 79, 66, 73, 78, 73, 13, 83, 73, 66, 76, 73, 78, 71, 13, 66, 69, 65, 86, 69, 82, 13, 70, 65, 82, 77, 69, 82, 13, 83, 73, 83, 84, 13, 66, 65, 78, 81, 8, 8, 8, 8, 8, 66, 65, 78, 85, 69, 84, 32, 8], "trial": 3, "time_elapsed": 661633, "type": "FREE_RECALL", "trial_index": 155}, "uniqueid": "MTK2230:3RJSC4XJ1113BB7D645GDQGWOUL05Q", "dateTime": 1516899853341}, {"current_trial": 156, "trialdata": {"rt": 3865, "trial_type": "text", "internal_node_id": "0.0-120.0", "time_elapsed": 667505, "key_press": 32, "type": "INSTRUCTIONS", "trial_index": 156}, "uniqueid": "MTK2230:3RJSC4XJ1113BB7D645GDQGWOUL05Q", "dateTime": 1516899859208}, {"current_trial": 157, "trialdata": {"rt": [1844, 5690, 7950, 11857], "trial_type": "math-distractor", "key_times": [1580, 1630, 1844, 3758, 5061, 5336, 5529, 5690, 7157, 7747, 7950, 9924, 9956, 10068, 10821, 10943, 11085, 11197, 11614, 11685, 11857], "responses": ["16", "14", "17", "23"], "num2": [6, 4, 8, 8, 3], "num3": [8, 1, 8, 8, 7], "conditions": [12, 800, "a", 12000], "internal_node_id": "0.0-121.0", "key_presses": [97, 102, 13, 100, 8, 97, 100, 13, 97, 103, 13, 99, 98, 99, 8, 8, 8, 8, 98, 99, 13], "trial": 4, "time_elapsed": 681510, "type": "DISTRACTOR", "trial_index": 157, "num1": [2, 9, 3, 7, 9]}, "uniqueid": "MTK2230:3RJSC4XJ1113BB7D645GDQGWOUL05Q", "dateTime": 1516899873213}, {"current_trial": 158, "trialdata": {"rt": -1, "trial_type": "single-stim", "stimulus": "<p id=\"stim\">10</p>", "internal_node_id": "0.0-122.0-0.0", "time_elapsed": 684512, "key_press": -1, "trial_index": 158}, "uniqueid": "MTK2230:3RJSC4XJ1113BB7D645GDQGWOUL05Q", "dateTime": 1516899876215}, {"current_trial": 159, "trialdata": {"rt": -1, "trial_type": "single-stim", "stimulus": "<p id=\"stim\">9</p>", "internal_node_id": "0.0-122.0-1.0", "time_elapsed": 685514, "key_press": -1, "trial_index": 159}, "uniqueid": "MTK2230:3RJSC4XJ1113BB7D645GDQGWOUL05Q", "dateTime": 1516899877217}, {"current_trial": 160, "trialdata": {"rt": -1, "trial_type": "single-stim", "stimulus": "<p id=\"stim\">8</p>", "internal_node_id": "0.0-122.0-2.0", "time_elapsed": 686516, "key_press": -1, "trial_index": 160}, "uniqueid": "MTK2230:3RJSC4XJ1113BB7D645GDQGWOUL05Q", "dateTime": 1516899878219}, {"current_trial": 161, "trialdata": {"rt": -1, "trial_type": "single-stim", "stimulus": "<p id=\"stim\">7</p>", "internal_node_id": "0.0-122.0-3.0", "time_elapsed": 687518, "key_press": -1, "trial_index": 161}, "uniqueid": "MTK2230:3RJSC4XJ1113BB7D645GDQGWOUL05Q", "dateTime": 1516899879221}, {"current_trial": 162, "trialdata": {"rt": -1, "trial_type": "single-stim", "stimulus": "<p id=\"stim\">6</p>", "internal_node_id": "0.0-122.0-4.0", "time_elapsed": 688520, "key_press": -1, "trial_index": 162}, "uniqueid": "MTK2230:3RJSC4XJ1113BB7D645GDQGWOUL05Q", "dateTime": 1516899880223}, {"current_trial": 163, "trialdata": {"rt": -1, "trial_type": "single-stim", "stimulus": "<p id=\"stim\">5</p>", "internal_node_id": "0.0-122.0-5.0", "time_elapsed": 689522, "key_press": -1, "trial_index": 163}, "uniqueid": "MTK2230:3RJSC4XJ1113BB7D645GDQGWOUL05Q", "dateTime": 1516899881225}, {"current_trial": 164, "trialdata": {"rt": -1, "trial_type": "single-stim", "stimulus": "<p id=\"stim\">4</p>", "internal_node_id": "0.0-122.0-6.0", "time_elapsed": 690524, "key_press": -1, "trial_index": 164}, "uniqueid": "MTK2230:3RJSC4XJ1113BB7D645GDQGWOUL05Q", "dateTime": 1516899882227}, {"current_trial": 165, "trialdata": {"rt": -1, "trial_type": "single-stim", "stimulus": "<p id=\"stim\">3</p>", "internal_node_id": "0.0-122.0-7.0", "time_elapsed": 691526, "key_press": -1, "trial_index": 165}, "uniqueid": "MTK2230:3RJSC4XJ1113BB7D645GDQGWOUL05Q", "dateTime": 1516899883229}, {"current_trial": 166, "trialdata": {"rt": -1, "trial_type": "single-stim", "stimulus": "<p id=\"stim\">2</p>", "internal_node_id": "0.0-122.0-8.0", "time_elapsed": 692528, "key_press": -1, "trial_index": 166}, "uniqueid": "MTK2230:3RJSC4XJ1113BB7D645GDQGWOUL05Q", "dateTime": 1516899884231}, {"current_trial": 167, "trialdata": {"rt": -1, "trial_type": "single-stim", "stimulus": "<p id=\"stim\">1</p>", "internal_node_id": "0.0-122.0-9.0", "time_elapsed": 693530, "key_press": -1, "trial_index": 167}, "uniqueid": "MTK2230:3RJSC4XJ1113BB7D645GDQGWOUL05Q", "dateTime": 1516899885234}, {"current_trial": 168, "trialdata": {"rt": -1, "trial_type": "single-stim", "stimulus": "<p id=\"stim\">+</p>", "internal_node_id": "0.0-123.0-0.0", "time_elapsed": 695032, "key_press": -1, "type": "FIXATION", "trial_index": 168}, "uniqueid": "MTK2230:3RJSC4XJ1113BB7D645GDQGWOUL05Q", "dateTime": 1516899886736}, {"current_trial": 169, "trialdata": {"rt": -1000, "trial_type": "single-audio", "word": "bison", "stimulus": "/static/audio/wordpool/BISON.wav", "conditions": [12, 800, "a", 12000], "internal_node_id": "0.0-124.0", "trial": 4, "time_elapsed": 696937, "serialpos": 0, "key_press": -1, "wordID": 130, "type": "PRES_AUD", "trial_index": 169}, "uniqueid": "MTK2230:3RJSC4XJ1113BB7D645GDQGWOUL05Q", "dateTime": 1516899888640}, {"current_trial": 170, "trialdata": {"rt": -1000, "trial_type": "single-audio", "word": "notebook", "stimulus": "/static/audio/wordpool/NOTEBOOK.wav", "conditions": [12, 800, "a", 12000], "internal_node_id": "0.0-125.0", "trial": 4, "time_elapsed": 698741, "serialpos": 1, "key_press": -1, "wordID": 958, "type": "PRES_AUD", "trial_index": 170}, "uniqueid": "MTK2230:3RJSC4XJ1113BB7D645GDQGWOUL05Q", "dateTime": 1516899890444}, {"current_trial": 171, "trialdata": {"rt": -1000, "trial_type": "single-audio", "word": "breast", "stimulus": "/static/audio/wordpool/BREAST.wav", "conditions": [12, 800, "a", 12000], "internal_node_id": "0.0-126.0", "trial": 4, "time_elapsed": 700479, "serialpos": 2, "key_press": -1, "wordID": 170, "type": "PRES_AUD", "trial_index": 171}, "uniqueid": "MTK2230:3RJSC4XJ1113BB7D645GDQGWOUL05Q", "dateTime": 1516899892182}, {"current_trial": 172, "trialdata": {"rt": -1000, "trial_type": "single-audio", "word": "husband", "stimulus": "/static/audio/wordpool/HUSBAND.wav", "conditions": [12, 800, "a", 12000], "internal_node_id": "0.0-127.0", "trial": 4, "time_elapsed": 702109, "serialpos": 3, "key_press": -1, "wordID": 727, "type": "PRES_AUD", "trial_index": 172}, "uniqueid": "MTK2230:3RJSC4XJ1113BB7D645GDQGWOUL05Q", "dateTime": 1516899893813}, {"current_trial": 173, "trialdata": {"rt": -1000, "trial_type": "single-audio", "word": "picture", "stimulus": "/static/audio/wordpool/PICTURE.wav", "conditions": [12, 800, "a", 12000], "internal_node_id": "0.0-128.0", "trial": 4, "time_elapsed": 704093, "serialpos": 4, "key_press": -1, "wordID": 1060, "type": "PRES_AUD", "trial_index": 173}, "uniqueid": "MTK2230:3RJSC4XJ1113BB7D645GDQGWOUL05Q", "dateTime": 1516899895797}, {"current_trial": 174, "trialdata": {"rt": -1000, "trial_type": "single-audio", "word": "dorm", "stimulus": "/static/audio/wordpool/DORM.wav", "conditions": [12, 800, "a", 12000], "internal_node_id": "0.0-129.0", "trial": 4, "time_elapsed": 705824, "serialpos": 5, "key_press": -1, "wordID": 487, "type": "PRES_AUD", "trial_index": 174}, "uniqueid": "MTK2230:3RJSC4XJ1113BB7D645GDQGWOUL05Q", "dateTime": 1516899897528}, {"current_trial": 175, "trialdata": {"rt": -1000, "trial_type": "single-audio", "word": "bug", "stimulus": "/static/audio/wordpool/BUG.wav", "conditions": [12, 800, "a", 12000], "internal_node_id": "0.0-130.0", "trial": 4, "time_elapsed": 707513, "serialpos": 6, "key_press": -1, "wordID": 186, "type": "PRES_AUD", "trial_index": 175}, "uniqueid": "MTK2230:3RJSC4XJ1113BB7D645GDQGWOUL05Q", "dateTime": 1516899899216}, {"current_trial": 176, "trialdata": {"rt": -1000, "trial_type": "single-audio", "word": "spouse", "stimulus": "/static/audio/wordpool/SPOUSE.wav", "conditions": [12, 800, "a", 12000], "internal_node_id": "0.0-131.0", "trial": 4, "time_elapsed": 709324, "serialpos": 7, "key_press": -1, "wordID": 1357, "type": "PRES_AUD", "trial_index": 176}, "uniqueid": "MTK2230:3RJSC4XJ1113BB7D645GDQGWOUL05Q", "dateTime": 1516899901027}, {"current_trial": 177, "trialdata": {"rt": -1000, "trial_type": "single-audio", "word": "pastry", "stimulus": "/static/audio/wordpool/PASTRY.wav", "conditions": [12, 800, "a", 12000], "internal_node_id": "0.0-132.0", "trial": 4, "time_elapsed": 711015, "serialpos": 8, "key_press": -1, "wordID": 1021, "type": "PRES_AUD", "trial_index": 177}, "uniqueid": "MTK2230:3RJSC4XJ1113BB7D645GDQGWOUL05Q", "dateTime": 1516899902718}, {"current_trial": 178, "trialdata": {"rt": -1000, "trial_type": "single-audio", "word": "shoulder", "stimulus": "/static/audio/wordpool/SHOULDER.wav", "conditions": [12, 800, "a", 12000], "internal_node_id": "0.0-133.0", "trial": 4, "time_elapsed": 712959, "serialpos": 9, "key_press": -1, "wordID": 1293, "type": "PRES_AUD", "trial_index": 178}, "uniqueid": "MTK2230:3RJSC4XJ1113BB7D645GDQGWOUL05Q", "dateTime": 1516899904662}, {"current_trial": 179, "trialdata": {"rt": -1000, "trial_type": "single-audio", "word": "crab", "stimulus": "/static/audio/wordpool/CRAB.wav", "conditions": [12, 800, "a", 12000], "internal_node_id": "0.0-134.0", "trial": 4, "time_elapsed": 714575, "serialpos": 10, "key_press": -1, "wordID": 396, "type": "PRES_AUD", "trial_index": 179}, "uniqueid": "MTK2230:3RJSC4XJ1113BB7D645GDQGWOUL05Q", "dateTime": 1516899906278}, {"current_trial": 180, "trialdata": {"rt": -1000, "trial_type": "single-audio", "word": "cod", "stimulus": "/static/audio/wordpool/COD.wav", "conditions": [12, 800, "a", 12000], "internal_node_id": "0.0-135.0", "trial": 4, "time_elapsed": 716306, "serialpos": 11, "key_press": -1, "wordID": 339, "type": "PRES_AUD", "trial_index": 180}, "uniqueid": "MTK2230:3RJSC4XJ1113BB7D645GDQGWOUL05Q", "dateTime": 1516899908009}, {"current_trial": 181, "trialdata": {"rt": -1, "trial_type": "single-stim", "stimulus": "", "internal_node_id": "0.0-136.0-0.0", "time_elapsed": 717560, "key_press": -1, "type": "PRE_RECALL_DELAY", "trial_index": 181}, "uniqueid": "MTK2230:3RJSC4XJ1113BB7D645GDQGWOUL05Q", "dateTime": 1516899909263}, {"current_trial": 182, "trialdata": {"rt": -1000, "trial_type": "single-audio", "stimulus": "/static/audio/400Hz.wav", "internal_node_id": "0.0-137.0", "time_elapsed": 718062, "key_press": -1, "type": "PRE_RECALL_ALERT", "trial_index": 182}, "uniqueid": "MTK2230:3RJSC4XJ1113BB7D645GDQGWOUL05Q", "dateTime": 1516899909768}, {"current_trial": 183, "trialdata": {"rt": [3153, 5148, 6664, 8434, 11730, 13186, 16034, 18042, 20565, 21348], "recwords": ["bison", "notebook", "breast", "husband", "dorm", "bug", "spouse", "pastry", "shoulder", "cod"], "key_times": [1991, 2379, 2501, 2623, 2735, 3153, 3886, 3968, 4059, 4191, 4276, 4496, 4608, 4679, 5148, 5758, 5860, 5973, 6186, 6308, 6512, 6664, 7671, 7793, 7884, 7987, 8109, 8211, 8302, 8434, 10073, 10591, 10672, 11526, 11730, 12359, 12533, 13064, 13186, 13480, 13633, 14467, 15077, 15301, 15484, 15606, 15799, 16034, 16868, 17000, 17092, 17400, 17492, 17655, 18042, 19223, 19355, 19511, 19557, 19772, 19853, 20045, 20159, 20565, 21012, 21124, 21196, 21348], "trial_type": "free-recall", "conditions": [12, 800, "a", 12000], "internal_node_id": "0.0-138.0-0.0", "key_presses": [66, 73, 83, 79, 78, 13, 78, 79, 84, 69, 66, 79, 79, 75, 13, 66, 82, 69, 65, 83, 84, 13, 72, 85, 83, 66, 65, 78, 68, 13, 68, 79, 82, 77, 13, 66, 85, 71, 13, 83, 79, 8, 80, 79, 85, 83, 69, 13, 80, 65, 83, 84, 82, 89, 13, 83, 72, 79, 85, 76, 68, 69, 82, 13, 67, 79, 68, 13], "trial": 4, "time_elapsed": 778071, "type": "FREE_RECALL", "trial_index": 183}, "uniqueid": "MTK2230:3RJSC4XJ1113BB7D645GDQGWOUL05Q", "dateTime": 1516899969780}, {"current_trial": 184, "trialdata": {"rt": 1247, "trial_type": "text", "internal_node_id": "0.0-139.0", "time_elapsed": 781325, "key_press": 32, "type": "INSTRUCTIONS", "trial_index": 184}, "uniqueid": "MTK2230:3RJSC4XJ1113BB7D645GDQGWOUL05Q", "dateTime": 1516899973028}, {"current_trial": 185, "trialdata": {"rt": [1772, 3868, 5302, 7021, 8558, 10520, 14042, 16057, 18261, 20308, 22587, 23788], "trial_type": "math-distractor", "key_times": [1498, 1570, 1772, 3482, 3655, 3868, 5059, 5192, 5302, 6718, 6799, 7021, 8191, 8325, 8558, 10247, 10298, 10520, 13626, 13800, 14042, 15804, 15925, 16057, 17970, 18031, 18261, 20025, 20086, 20308, 21867, 22355, 22587, 23504, 23555, 23788], "responses": ["15", "16", "11", "16", "19", "15", "13", "22", "15", "16", "17", "15"], "num2": [2, 7, 4, 6, 7, 6, 4, 8, 4, 7, 8, 4, 3], "num3": [8, 7, 6, 9, 9, 7, 5, 8, 9, 1, 1, 5, 7], "conditions": [12, 800, "a", 24000], "internal_node_id": "0.0-140.0", "key_presses": [97, 101, 13, 97, 102, 13, 97, 97, 13, 97, 102, 13, 97, 105, 13, 97, 101, 13, 97, 99, 13, 98, 98, 13, 97, 101, 13, 97, 102, 13, 97, 103, 13, 97, 101, 13], "trial": 5, "time_elapsed": 807330, "type": "DISTRACTOR", "trial_index": 185, "num1": [5, 2, 1, 1, 3, 2, 4, 6, 2, 8, 8, 6, 6]}, "uniqueid": "MTK2230:3RJSC4XJ1113BB7D645GDQGWOUL05Q", "dateTime": 1516899999033}, {"current_trial": 186, "trialdata": {"rt": -1, "trial_type": "single-stim", "stimulus": "<p id=\"stim\">10</p>", "internal_node_id": "0.0-141.0-0.0", "time_elapsed": 810332, "key_press": -1, "trial_index": 186}, "uniqueid": "MTK2230:3RJSC4XJ1113BB7D645GDQGWOUL05Q", "dateTime": 1516900002035}, {"current_trial": 187, "trialdata": {"rt": -1, "trial_type": "single-stim", "stimulus": "<p id=\"stim\">9</p>", "internal_node_id": "0.0-141.0-1.0", "time_elapsed": 811334, "key_press": -1, "trial_index": 187}, "uniqueid": "MTK2230:3RJSC4XJ1113BB7D645GDQGWOUL05Q", "dateTime": 1516900003037}, {"current_trial": 188, "trialdata": {"rt": -1, "trial_type": "single-stim", "stimulus": "<p id=\"stim\">8</p>", "internal_node_id": "0.0-141.0-2.0", "time_elapsed": 812336, "key_press": -1, "trial_index": 188}, "uniqueid": "MTK2230:3RJSC4XJ1113BB7D645GDQGWOUL05Q", "dateTime": 1516900004040}, {"current_trial": 189, "trialdata": {"rt": -1, "trial_type": "single-stim", "stimulus": "<p id=\"stim\">7</p>", "internal_node_id": "0.0-141.0-3.0", "time_elapsed": 813338, "key_press": -1, "trial_index": 189}, "uniqueid": "MTK2230:3RJSC4XJ1113BB7D645GDQGWOUL05Q", "dateTime": 1516900005042}, {"current_trial": 190, "trialdata": {"rt": -1, "trial_type": "single-stim", "stimulus": "<p id=\"stim\">6</p>", "internal_node_id": "0.0-141.0-4.0", "time_elapsed": 814341, "key_press": -1, "trial_index": 190}, "uniqueid": "MTK2230:3RJSC4XJ1113BB7D645GDQGWOUL05Q", "dateTime": 1516900006044}, {"current_trial": 191, "trialdata": {"rt": -1, "trial_type": "single-stim", "stimulus": "<p id=\"stim\">5</p>", "internal_node_id": "0.0-141.0-5.0", "time_elapsed": 815342, "key_press": -1, "trial_index": 191}, "uniqueid": "MTK2230:3RJSC4XJ1113BB7D645GDQGWOUL05Q", "dateTime": 1516900007046}, {"current_trial": 192, "trialdata": {"rt": -1, "trial_type": "single-stim", "stimulus": "<p id=\"stim\">4</p>", "internal_node_id": "0.0-141.0-6.0", "time_elapsed": 816345, "key_press": -1, "trial_index": 192}, "uniqueid": "MTK2230:3RJSC4XJ1113BB7D645GDQGWOUL05Q", "dateTime": 1516900008048}, {"current_trial": 193, "trialdata": {"rt": -1, "trial_type": "single-stim", "stimulus": "<p id=\"stim\">3</p>", "internal_node_id": "0.0-141.0-7.0", "time_elapsed": 817346, "key_press": -1, "trial_index": 193}, "uniqueid": "MTK2230:3RJSC4XJ1113BB7D645GDQGWOUL05Q", "dateTime": 1516900009050}, {"current_trial": 194, "trialdata": {"rt": -1, "trial_type": "single-stim", "stimulus": "<p id=\"stim\">2</p>", "internal_node_id": "0.0-141.0-8.0", "time_elapsed": 818349, "key_press": -1, "trial_index": 194}, "uniqueid": "MTK2230:3RJSC4XJ1113BB7D645GDQGWOUL05Q", "dateTime": 1516900010052}, {"current_trial": 195, "trialdata": {"rt": -1, "trial_type": "single-stim", "stimulus": "<p id=\"stim\">1</p>", "internal_node_id": "0.0-141.0-9.0", "time_elapsed": 819351, "key_press": -1, "trial_index": 195}, "uniqueid": "MTK2230:3RJSC4XJ1113BB7D645GDQGWOUL05Q", "dateTime": 1516900011054}, {"current_trial": 196, "trialdata": {"rt": -1, "trial_type": "single-stim", "stimulus": "<p id=\"stim\">+</p>", "internal_node_id": "0.0-142.0-0.0", "time_elapsed": 820853, "key_press": -1, "type": "FIXATION", "trial_index": 196}, "uniqueid": "MTK2230:3RJSC4XJ1113BB7D645GDQGWOUL05Q", "dateTime": 1516900012556}, {"current_trial": 197, "trialdata": {"rt": -1000, "trial_type": "single-audio", "word": "foot", "stimulus": "/static/audio/wordpool/FOOT.wav", "conditions": [12, 800, "a", 24000], "internal_node_id": "0.0-143.0", "trial": 5, "time_elapsed": 822684, "serialpos": 0, "key_press": -1, "wordID": 589, "type": "PRES_AUD", "trial_index": 197}, "uniqueid": "MTK2230:3RJSC4XJ1113BB7D645GDQGWOUL05Q", "dateTime": 1516900014388}, {"current_trial": 198, "trialdata": {"rt": -1000, "trial_type": "single-audio", "word": "picnic", "stimulus": "/static/audio/wordpool/PICNIC.wav", "conditions": [12, 800, "a", 24000], "internal_node_id": "0.0-144.0", "trial": 5, "time_elapsed": 824544, "serialpos": 1, "key_press": -1, "wordID": 1059, "type": "PRES_AUD", "trial_index": 198}, "uniqueid": "MTK2230:3RJSC4XJ1113BB7D645GDQGWOUL05Q", "dateTime": 1516900016248}, {"current_trial": 199, "trialdata": {"rt": -1000, "trial_type": "single-audio", "word": "glove", "stimulus": "/static/audio/wordpool/GLOVE.wav", "conditions": [12, 800, "a", 24000], "internal_node_id": "0.0-145.0", "trial": 5, "time_elapsed": 826219, "serialpos": 2, "key_press": -1, "wordID": 641, "type": "PRES_AUD", "trial_index": 199}, "uniqueid": "MTK2230:3RJSC4XJ1113BB7D645GDQGWOUL05Q", "dateTime": 1516900017922}, {"current_trial": 200, "trialdata": {"rt": -1000, "trial_type": "single-audio", "word": "tart", "stimulus": "/static/audio/wordpool/TART.wav", "conditions": [12, 800, "a", 24000], "internal_node_id": "0.0-146.0", "trial": 5, "time_elapsed": 828207, "serialpos": 3, "key_press": -1, "wordID": 1435, "type": "PRES_AUD", "trial_index": 200}, "uniqueid": "MTK2230:3RJSC4XJ1113BB7D645GDQGWOUL05Q", "dateTime": 1516900019911}, {"current_trial": 201, "trialdata": {"rt": -1000, "trial_type": "single-audio", "word": "supper", "stimulus": "/static/audio/wordpool/SUPPER.wav", "conditions": [12, 800, "a", 24000], "internal_node_id": "0.0-147.0", "trial": 5, "time_elapsed": 829935, "serialpos": 4, "key_press": -1, "wordID": 1410, "type": "PRES_AUD", "trial_index": 201}, "uniqueid": "MTK2230:3RJSC4XJ1113BB7D645GDQGWOUL05Q", "dateTime": 1516900021639}, {"current_trial": 202, "trialdata": {"rt": -1000, "trial_type": "single-audio", "word": "termite", "stimulus": "/static/audio/wordpool/TERMITE.wav", "conditions": [12, 800, "a", 24000], "internal_node_id": "0.0-148.0", "trial": 5, "time_elapsed": 831724, "serialpos": 5, "key_press": -1, "wordID": 1450, "type": "PRES_AUD", "trial_index": 202}, "uniqueid": "MTK2230:3RJSC4XJ1113BB7D645GDQGWOUL05Q", "dateTime": 1516900023427}, {"current_trial": 203, "trialdata": {"rt": -1000, "trial_type": "single-audio", "word": "princess", "stimulus": "/static/audio/wordpool/PRINCESS.wav", "conditions": [12, 800, "a", 24000], "internal_node_id": "0.0-149.0", "trial": 5, "time_elapsed": 833671, "serialpos": 6, "key_press": -1, "wordID": 1124, "type": "PRES_AUD", "trial_index": 203}, "uniqueid": "MTK2230:3RJSC4XJ1113BB7D645GDQGWOUL05Q", "dateTime": 1516900025374}, {"current_trial": 204, "trialdata": {"rt": -1000, "trial_type": "single-audio", "word": "lover", "stimulus": "/static/audio/wordpool/LOVER.wav", "conditions": [12, 800, "a", 24000], "internal_node_id": "0.0-150.0", "trial": 5, "time_elapsed": 835637, "serialpos": 7, "key_press": -1, "wordID": 845, "type": "PRES_AUD", "trial_index": 204}, "uniqueid": "MTK2230:3RJSC4XJ1113BB7D645GDQGWOUL05Q", "dateTime": 1516900027340}, {"current_trial": 205, "trialdata": {"rt": -1000, "trial_type": "single-audio", "word": "pliers", "stimulus": "/static/audio/wordpool/PLIERS.wav", "conditions": [12, 800, "a", 24000], "internal_node_id": "0.0-151.0", "trial": 5, "time_elapsed": 837463, "serialpos": 8, "key_press": -1, "wordID": 1088, "type": "PRES_AUD", "trial_index": 205}, "uniqueid": "MTK2230:3RJSC4XJ1113BB7D645GDQGWOUL05Q", "dateTime": 1516900029166}, {"current_trial": 206, "trialdata": {"rt": -1000, "trial_type": "single-audio", "word": "snake", "stimulus": "/static/audio/wordpool/SNAKE.wav", "conditions": [12, 800, "a", 24000], "internal_node_id": "0.0-152.0", "trial": 5, "time_elapsed": 839241, "serialpos": 9, "key_press": -1, "wordID": 1332, "type": "PRES_AUD", "trial_index": 206}, "uniqueid": "MTK2230:3RJSC4XJ1113BB7D645GDQGWOUL05Q", "dateTime": 1516900030944}, {"current_trial": 207, "trialdata": {"rt": -1000, "trial_type": "single-audio", "word": "denim", "stimulus": "/static/audio/wordpool/DENIM.wav", "conditions": [12, 800, "a", 24000], "internal_node_id": "0.0-153.0", "trial": 5, "time_elapsed": 840922, "serialpos": 10, "key_press": -1, "wordID": 445, "type": "PRES_AUD", "trial_index": 207}, "uniqueid": "MTK2230:3RJSC4XJ1113BB7D645GDQGWOUL05Q", "dateTime": 1516900032625}, {"current_trial": 208, "trialdata": {"rt": -1000, "trial_type": "single-audio", "word": "dress", "stimulus": "/static/audio/wordpool/DRESS.wav", "conditions": [12, 800, "a", 24000], "internal_node_id": "0.0-154.0", "trial": 5, "time_elapsed": 842595, "serialpos": 11, "key_press": -1, "wordID": 494, "type": "PRES_AUD", "trial_index": 208}, "uniqueid": "MTK2230:3RJSC4XJ1113BB7D645GDQGWOUL05Q", "dateTime": 1516900034298}, {"current_trial": 209, "trialdata": {"rt": -1, "trial_type": "single-stim", "stimulus": "", "internal_node_id": "0.0-155.0-0.0", "time_elapsed": 843806, "key_press": -1, "type": "PRE_RECALL_DELAY", "trial_index": 209}, "uniqueid": "MTK2230:3RJSC4XJ1113BB7D645GDQGWOUL05Q", "dateTime": 1516900035509}, {"current_trial": 210, "trialdata": {"rt": -1000, "trial_type": "single-audio", "stimulus": "/static/audio/400Hz.wav", "internal_node_id": "0.0-156.0", "time_elapsed": 844307, "key_press": -1, "type": "PRE_RECALL_ALERT", "trial_index": 210}, "uniqueid": "MTK2230:3RJSC4XJ1113BB7D645GDQGWOUL05Q", "dateTime": 1516900036010}, {"current_trial": 211, "trialdata": {"rt": [3376, 5779, 6949, 8650, 10937, 12872, 16127, 18538, 21642, 23096, 26008, 27147], "recwords": ["foot", "picnic", "glove", "chart", "supper", "termite", "princess", "lover", "plyers", "snake", "denim", "dress"], "key_times": [1615, 2461, 2583, 3081, 3376, 3853, 4038, 4445, 4730, 4846, 4987, 5779, 6227, 6312, 6481, 6564, 6756, 6949, 7356, 7462, 7601, 7815, 8079, 8650, 8893, 9046, 9330, 9473, 9555, 9636, 10937, 11213, 11406, 11488, 11590, 11832, 11894, 12556, 12872, 13583, 14296, 14642, 14737, 14865, 15028, 15099, 15293, 15485, 15608, 16127, 17348, 17593, 17675, 17938, 18044, 18538, 19821, 19892, 20034, 20268, 20329, 21387, 21642, 21935, 22002, 22150, 22246, 22608, 23096, 24246, 24389, 24521, 24653, 24879, 26008, 26455, 26598, 26700, 26914, 27036, 27147], "trial_type": "free-recall", "conditions": [12, 800, "a", 24000], "internal_node_id": "0.0-157.0-0.0", "key_presses": [70, 79, 79, 84, 13, 80, 73, 67, 78, 73, 67, 13, 71, 76, 79, 86, 69, 13, 67, 72, 65, 82, 84, 13, 83, 85, 80, 80, 69, 82, 13, 84, 69, 82, 77, 73, 84, 69, 13, 83, 8, 80, 82, 73, 78, 67, 69, 83, 83, 13, 76, 79, 86, 69, 82, 13, 80, 76, 89, 69, 82, 83, 13, 83, 78, 65, 75, 69, 13, 68, 69, 78, 73, 77, 13, 68, 82, 69, 83, 83, 13], "trial": 5, "time_elapsed": 904312, "type": "FREE_RECALL", "trial_index": 211}, "uniqueid": "MTK2230:3RJSC4XJ1113BB7D645GDQGWOUL05Q", "dateTime": 1516900096021}, {"current_trial": 212, "trialdata": {"rt": 994, "trial_type": "text", "internal_node_id": "0.0-158.0", "time_elapsed": 907314, "key_press": 32, "type": "INSTRUCTIONS", "trial_index": 212}, "uniqueid": "MTK2230:3RJSC4XJ1113BB7D645GDQGWOUL05Q", "dateTime": 1516900099017}, {"current_trial": 213, "trialdata": {"rt": [2895, 8503, 11526], "trial_type": "math-distractor", "key_times": [2773, 2895, 8023, 8239, 8503, 10213, 10334, 10935, 11312, 11526], "responses": ["5", "24", "16"], "num2": [1, 9, 6, 7], "num3": [1, 7, 1, 1], "conditions": [12, 1600, "a", 12000], "internal_node_id": "0.0-159.0", "key_presses": [101, 13, 98, 100, 13, 97, 101, 8, 102, 13], "trial": 6, "time_elapsed": 921318, "type": "DISTRACTOR", "trial_index": 213, "num1": [3, 8, 9, 2]}, "uniqueid": "MTK2230:3RJSC4XJ1113BB7D645GDQGWOUL05Q", "dateTime": 1516900113021}, {"current_trial": 214, "trialdata": {"rt": -1, "trial_type": "single-stim", "stimulus": "<p id=\"stim\">10</p>", "internal_node_id": "0.0-160.0-0.0", "time_elapsed": 924320, "key_press": -1, "trial_index": 214}, "uniqueid": "MTK2230:3RJSC4XJ1113BB7D645GDQGWOUL05Q", "dateTime": 1516900116023}, {"current_trial": 215, "trialdata": {"rt": -1, "trial_type": "single-stim", "stimulus": "<p id=\"stim\">9</p>", "internal_node_id": "0.0-160.0-1.0", "time_elapsed": 925321, "key_press": -1, "trial_index": 215}, "uniqueid": "MTK2230:3RJSC4XJ1113BB7D645GDQGWOUL05Q", "dateTime": 1516900117024}, {"current_trial": 216, "trialdata": {"rt": -1, "trial_type": "single-stim", "stimulus": "<p id=\"stim\">8</p>", "internal_node_id": "0.0-160.0-2.0", "time_elapsed": 926323, "key_press": -1, "trial_index": 216}, "uniqueid": "MTK2230:3RJSC4XJ1113BB7D645GDQGWOUL05Q", "dateTime": 1516900118026}, {"current_trial": 217, "trialdata": {"rt": -1, "trial_type": "single-stim", "stimulus": "<p id=\"stim\">7</p>", "internal_node_id": "0.0-160.0-3.0", "time_elapsed": 927324, "key_press": -1, "trial_index": 217}, "uniqueid": "MTK2230:3RJSC4XJ1113BB7D645GDQGWOUL05Q", "dateTime": 1516900119027}, {"current_trial": 218, "trialdata": {"rt": -1, "trial_type": "single-stim", "stimulus": "<p id=\"stim\">6</p>", "internal_node_id": "0.0-160.0-4.0", "time_elapsed": 928325, "key_press": -1, "trial_index": 218}, "uniqueid": "MTK2230:3RJSC4XJ1113BB7D645GDQGWOUL05Q", "dateTime": 1516900120028}, {"current_trial": 219, "trialdata": {"rt": -1, "trial_type": "single-stim", "stimulus": "<p id=\"stim\">5</p>", "internal_node_id": "0.0-160.0-5.0", "time_elapsed": 929327, "key_press": -1, "trial_index": 219}, "uniqueid": "MTK2230:3RJSC4XJ1113BB7D645GDQGWOUL05Q", "dateTime": 1516900121030}, {"current_trial": 220, "trialdata": {"rt": -1, "trial_type": "single-stim", "stimulus": "<p id=\"stim\">4</p>", "internal_node_id": "0.0-160.0-6.0", "time_elapsed": 930329, "key_press": -1, "trial_index": 220}, "uniqueid": "MTK2230:3RJSC4XJ1113BB7D645GDQGWOUL05Q", "dateTime": 1516900122033}, {"current_trial": 221, "trialdata": {"rt": -1, "trial_type": "single-stim", "stimulus": "<p id=\"stim\">3</p>", "internal_node_id": "0.0-160.0-7.0", "time_elapsed": 931331, "key_press": -1, "trial_index": 221}, "uniqueid": "MTK2230:3RJSC4XJ1113BB7D645GDQGWOUL05Q", "dateTime": 1516900123035}, {"current_trial": 222, "trialdata": {"rt": -1, "trial_type": "single-stim", "stimulus": "<p id=\"stim\">2</p>", "internal_node_id": "0.0-160.0-8.0", "time_elapsed": 932333, "key_press": -1, "trial_index": 222}, "uniqueid": "MTK2230:3RJSC4XJ1113BB7D645GDQGWOUL05Q", "dateTime": 1516900124037}, {"current_trial": 223, "trialdata": {"rt": -1, "trial_type": "single-stim", "stimulus": "<p id=\"stim\">1</p>", "internal_node_id": "0.0-160.0-9.0", "time_elapsed": 933336, "key_press": -1, "trial_index": 223}, "uniqueid": "MTK2230:3RJSC4XJ1113BB7D645GDQGWOUL05Q", "dateTime": 1516900125039}, {"current_trial": 224, "trialdata": {"rt": -1, "trial_type": "single-stim", "stimulus": "<p id=\"stim\">+</p>", "internal_node_id": "0.0-161.0-0.0", "time_elapsed": 934837, "key_press": -1, "type": "FIXATION", "trial_index": 224}, "uniqueid": "MTK2230:3RJSC4XJ1113BB7D645GDQGWOUL05Q", "dateTime": 1516900126541}, {"current_trial": 225, "trialdata": {"rt": -1000, "trial_type": "single-audio", "word": "patrol", "stimulus": "/static/audio/wordpool/PATROL.wav", "conditions": [12, 1600, "a", 12000], "internal_node_id": "0.0-162.0", "trial": 6, "time_elapsed": 937605, "serialpos": 0, "key_press": -1, "wordID": 1026, "type": "PRES_AUD", "trial_index": 225}, "uniqueid": "MTK2230:3RJSC4XJ1113BB7D645GDQGWOUL05Q", "dateTime": 1516900129309}, {"current_trial": 226, "trialdata": {"rt": -1000, "trial_type": "single-audio", "word": "goblin", "stimulus": "/static/audio/wordpool/GOBLIN.wav", "conditions": [12, 1600, "a", 12000], "internal_node_id": "0.0-163.0", "trial": 6, "time_elapsed": 940340, "serialpos": 1, "key_press": -1, "wordID": 644, "type": "PRES_AUD", "trial_index": 226}, "uniqueid": "MTK2230:3RJSC4XJ1113BB7D645GDQGWOUL05Q", "dateTime": 1516900132044}, {"current_trial": 227, "trialdata": {"rt": -1000, "trial_type": "single-audio", "word": "fragrance", "stimulus": "/static/audio/wordpool/FRAGRANCE.wav", "conditions": [12, 1600, "a", 12000], "internal_node_id": "0.0-164.0", "trial": 6, "time_elapsed": 943132, "serialpos": 2, "key_press": -1, "wordID": 598, "type": "PRES_AUD", "trial_index": 227}, "uniqueid": "MTK2230:3RJSC4XJ1113BB7D645GDQGWOUL05Q", "dateTime": 1516900134836}, {"current_trial": 228, "trialdata": {"rt": -1000, "trial_type": "single-audio", "word": "panther", "stimulus": "/static/audio/wordpool/PANTHER.wav", "conditions": [12, 1600, "a", 12000], "internal_node_id": "0.0-165.0", "trial": 6, "time_elapsed": 945639, "serialpos": 3, "key_press": -1, "wordID": 1008, "type": "PRES_AUD", "trial_index": 228}, "uniqueid": "MTK2230:3RJSC4XJ1113BB7D645GDQGWOUL05Q", "dateTime": 1516900137342}, {"current_trial": 229, "trialdata": {"rt": -1000, "trial_type": "single-audio", "word": "backbone", "stimulus": "/static/audio/wordpool/BACKBONE.wav", "conditions": [12, 1600, "a", 12000], "internal_node_id": "0.0-166.0", "trial": 6, "time_elapsed": 948229, "serialpos": 4, "key_press": -1, "wordID": 65, "type": "PRES_AUD", "trial_index": 229}, "uniqueid": "MTK2230:3RJSC4XJ1113BB7D645GDQGWOUL05Q", "dateTime": 1516900139932}, {"current_trial": 230, "trialdata": {"rt": -1000, "trial_type": "single-audio", "word": "perfume", "stimulus": "/static/audio/wordpool/PERFUME.wav", "conditions": [12, 1600, "a", 12000], "internal_node_id": "0.0-167.0", "trial": 6, "time_elapsed": 950665, "serialpos": 5, "key_press": -1, "wordID": 1048, "type": "PRES_AUD", "trial_index": 230}, "uniqueid": "MTK2230:3RJSC4XJ1113BB7D645GDQGWOUL05Q", "dateTime": 1516900142368}, {"current_trial": 231, "trialdata": {"rt": -1000, "trial_type": "single-audio", "word": "knapsack", "stimulus": "/static/audio/wordpool/KNAPSACK.wav", "conditions": [12, 1600, "a", 12000], "internal_node_id": "0.0-168.0", "trial": 6, "time_elapsed": 953449, "serialpos": 6, "key_press": -1, "wordID": 782, "type": "PRES_AUD", "trial_index": 231}, "uniqueid": "MTK2230:3RJSC4XJ1113BB7D645GDQGWOUL05Q", "dateTime": 1516900145153}, {"current_trial": 232, "trialdata": {"rt": -1000, "trial_type": "single-audio", "word": "powder", "stimulus": "/static/audio/wordpool/POWDER.wav", "conditions": [12, 1600, "a", 12000], "internal_node_id": "0.0-169.0", "trial": 6, "time_elapsed": 956236, "serialpos": 7, "key_press": -1, "wordID": 1116, "type": "PRES_AUD", "trial_index": 232}, "uniqueid": "MTK2230:3RJSC4XJ1113BB7D645GDQGWOUL05Q", "dateTime": 1516900147939}, {"current_trial": 233, "trialdata": {"rt": -1000, "trial_type": "single-audio", "word": "actor", "stimulus": "/static/audio/wordpool/ACTOR.wav", "conditions": [12, 1600, "a", 12000], "internal_node_id": "0.0-170.0", "trial": 6, "time_elapsed": 958648, "serialpos": 8, "key_press": -1, "wordID": 4, "type": "PRES_AUD", "trial_index": 233}, "uniqueid": "MTK2230:3RJSC4XJ1113BB7D645GDQGWOUL05Q", "dateTime": 1516900150351}, {"current_trial": 234, "trialdata": {"rt": -1000, "trial_type": "single-audio", "word": "film", "stimulus": "/static/audio/wordpool/FILM.wav", "conditions": [12, 1600, "a", 12000], "internal_node_id": "0.0-171.0", "trial": 6, "time_elapsed": 961277, "serialpos": 9, "key_press": -1, "wordID": 564, "type": "PRES_AUD", "trial_index": 234}, "uniqueid": "MTK2230:3RJSC4XJ1113BB7D645GDQGWOUL05Q", "dateTime": 1516900152980}, {"current_trial": 235, "trialdata": {"rt": -1000, "trial_type": "single-audio", "word": "driver", "stimulus": "/static/audio/wordpool/DRIVER.wav", "conditions": [12, 1600, "a", 12000], "internal_node_id": "0.0-172.0", "trial": 6, "time_elapsed": 963831, "serialpos": 10, "key_press": -1, "wordID": 498, "type": "PRES_AUD", "trial_index": 235}, "uniqueid": "MTK2230:3RJSC4XJ1113BB7D645GDQGWOUL05Q", "dateTime": 1516900155534}, {"current_trial": 236, "trialdata": {"rt": -1000, "trial_type": "single-audio", "word": "belly", "stimulus": "/static/audio/wordpool/BELLY.wav", "conditions": [12, 1600, "a", 12000], "internal_node_id": "0.0-173.0", "trial": 6, "time_elapsed": 966445, "serialpos": 11, "key_press": -1, "wordID": 118, "type": "PRES_AUD", "trial_index": 236}, "uniqueid": "MTK2230:3RJSC4XJ1113BB7D645GDQGWOUL05Q", "dateTime": 1516900158148}, {"current_trial": 237, "trialdata": {"rt": -1, "trial_type": "single-stim", "stimulus": "", "internal_node_id": "0.0-174.0-0.0", "time_elapsed": 967821, "key_press": -1, "type": "PRE_RECALL_DELAY", "trial_index": 237}, "uniqueid": "MTK2230:3RJSC4XJ1113BB7D645GDQGWOUL05Q", "dateTime": 1516900159524}, {"current_trial": 238, "trialdata": {"rt": -1000, "trial_type": "single-audio", "stimulus": "/static/audio/400Hz.wav", "internal_node_id": "0.0-175.0", "time_elapsed": 968323, "key_press": -1, "type": "PRE_RECALL_ALERT", "trial_index": 238}, "uniqueid": "MTK2230:3RJSC4XJ1113BB7D645GDQGWOUL05Q", "dateTime": 1516900160026}, {"current_trial": 239, "trialdata": {"rt": [2746, 8434, 9910, 12219, 14784, 18071, 21175, 23852, 26101, 28321], "recwords": ["patrol", "fragrance", "panther", "backbone", "perfume", "napsack", "powder", "actor", "film", "belly"], "key_times": [1482, 1544, 1779, 1850, 2155, 2339, 2746, 5940, 6010, 6662, 6988, 7058, 7232, 7344, 7967, 8067, 8148, 8275, 8434, 8963, 9104, 9227, 9340, 9451, 9573, 9675, 9910, 11119, 11221, 11