{"assignmentId": "3UJ1CZ6IZIW3CKRPF6O0NWMFKGKS5A", "workerId": "MTK2563", "questiondata": {"origin": "United States", "strat-rehearsal": "80", "marital": "Single", "education": "Master's degree", "ethnicity": "Not Hispanic", "color_depth": 24, "distracted": "No", "wrote-notes": "Yes", "strat-other": "I tried to visualize a connection between words. Preacher cooking somthing on the grill. Clearly, this was not very successful.", "screen_width": 1366, "avail_screen_width": 1366, "avail_screen_height": 728, "strat-image": "67", "language": "English", "gender": "Female", "age": "58", "gender_other": "", "race": ["American Indian/Alaskan Native", "Black", "White"], "strat-categorize": "79", "pixel_depth": 24, "strat-spatial": "0", "strat-story": "0", "race_other": "", "screen_height": 768}, "bonus": 0, "hitId": "3HXK2V1N4KM60Y1HCLNJBR4GSRZG2A", "counterbalance": 2241, "useragent": "Mozilla/5.0 (Windows NT 10.0; Win64; x64) AppleWebKit/537.36 (KHTML, like Gecko) Chrome/64.0.3282.167 Safari/537.36", "eventdata": [{"eventtype": "initialized", "interval": 0, "value": null, "timestamp": 1519067436103}, {"eventtype": "window_resize", "interval": 0, "value": [1366, 721], "timestamp": 1519067436103}, {"eventtype": "focus", "interval": 16146, "value": "off", "timestamp": 1519067452249}, {"eventtype": "focus", "interval": 1669, "value": "on", "timestamp": 1519067453918}, {"eventtype": "focus", "interval": 1496, "value": "off", "timestamp": 1519067455414}, {"eventtype": "focus", "interval": 8548, "value": "on", "timestamp": 1519067463962}, {"eventtype": "focus", "interval": 25904, "value": "off", "timestamp": 1519067489866}, {"eventtype": "focus", "interval": 5790, "value": "on", "timestamp": 1519067495656}, {"eventtype": "focus", "interval": 3927, "value": "off", "timestamp": 1519067499583}, {"eventtype": "focus", "interval": 3541, "value": "on", "timestamp": 1519067503124}, {"eventtype": "focus", "interval": 1, "value": "on", "timestamp": 1519067503125}, {"eventtype": "focus", "interval": 110676, "value": "off", "timestamp": 1519067613801}, {"eventtype": "focus", "interval": 3220, "value": "on", "timestamp": 1519067617021}, {"eventtype": "focus", "interval": 925103, "value": "off", "timestamp": 1519068542124}, {"eventtype": "focus", "interval": 6019, "value": "on", "timestamp": 1519068548143}, {"eventtype": "focus", "interval": 251423, "value": "off", "timestamp": 1519068799566}, {"eventtype": "focus", "interval": 5179, "value": "on", "timestamp": 1519068804745}, {"eventtype": "focus", "interval": 19896, "value": "off", "timestamp": 1519068824641}, {"eventtype": "focus", "interval": 12074, "value": "on", "timestamp": 1519068836715}, {"eventtype": "focus", "interval": 1147067, "value": "off", "timestamp": 1519069983782}, {"eventtype": "focus", "interval": 7011, "value": "on", "timestamp": 1519069990793}, {"eventtype": "focus", "interval": 297941, "value": "off", "timestamp": 1519070288734}, {"eventtype": "focus", "interval": 3252, "value": "on", "timestamp": 1519070291986}], "data": [{"current_trial": 0, "trialdata": {"rt": 2094, "trial_type": "text", "internal_node_id": "0.0-0.0", "time_elapsed": 2097, "key_press": 74, "type": "INSTRUCTIONS", "trial_index": 0}, "uniqueid": "MTK2563:3UJ1CZ6IZIW3CKRPF6O0NWMFKGKS5A", "dateTime": 1519067467361}, {"current_trial": 1, "trialdata": {"rt": 13273, "trial_type": "text", "internal_node_id": "0.0-1.0", "time_elapsed": 15372, "key_press": 86, "type": "INSTRUCTIONS", "trial_index": 1}, "uniqueid": "MTK2563:3UJ1CZ6IZIW3CKRPF6O0NWMFKGKS5A", "dateTime": 1519067480636}, {"current_trial": 2, "trialdata": {"rt": [34369], "trial_type": "audio-test", "responses": ["ocean"], "internal_node_id": "0.0-2.0", "time_elapsed": 49761, "type": "AUDIO_TEST", "trial_index": 2}, "uniqueid": "MTK2563:3UJ1CZ6IZIW3CKRPF6O0NWMFKGKS5A", "dateTime": 1519067515024}, {"current_trial": 3, "trialdata": {"rt": [9316], "trial_type": "audio-test", "responses": ["crystal"], "internal_node_id": "0.0-3.0", "time_elapsed": 59086, "type": "AUDIO_TEST", "trial_index": 3}, "uniqueid": "MTK2563:3UJ1CZ6IZIW3CKRPF6O0NWMFKGKS5A", "dateTime": 1519067524349}, {"current_trial": 4, "trialdata": {"rt": [5514], "trial_type": "audio-test", "responses": ["spice"], "internal_node_id": "0.0-4.0", "time_elapsed": 64609, "type": "AUDIO_TEST", "trial_index": 4}, "uniqueid": "MTK2563:3UJ1CZ6IZIW3CKRPF6O0NWMFKGKS5A", "dateTime": 1519067529873}, {"current_trial": 5, "trialdata": {"rt": 25625, "trial_type": "survey-text", "responses": "{\"Q0\":\"1 AM\",\"Q1\":\"5:30 AM\",\"Q2\":\"4\\n4\"}", "internal_node_id": "0.0-5.0", "time_elapsed": 90991, "type": "SLEEP_SURVEY", "trial_index": 5}, "uniqueid": "MTK2563:3UJ1CZ6IZIW3CKRPF6O0NWMFKGKS5A", "dateTime": 1519067556254}, {"current_trial": 6, "trialdata": {"rt": 2911, "trial_type": "text", "internal_node_id": "0.0-6.0", "time_elapsed": 94906, "key_press": 17, "type": "INSTRUCTIONS", "trial_index": 6}, "uniqueid": "MTK2563:3UJ1CZ6IZIW3CKRPF6O0NWMFKGKS5A", "dateTime": 1519067560169}, {"current_trial": 7, "trialdata": {"rt": 5669, "trial_type": "text", "internal_node_id": "0.0-7.0", "time_elapsed": 101077, "key_press": 72, "type": "INSTRUCTIONS", "trial_index": 7}, "uniqueid": "MTK2563:3UJ1CZ6IZIW3CKRPF6O0NWMFKGKS5A", "dateTime": 1519067566340}, {"current_trial": 8, "trialdata": {"rt": 8365, "trial_type": "text", "internal_node_id": "0.0-8.0", "time_elapsed": 109942, "key_press": 71, "type": "INSTRUCTIONS", "trial_index": 8}, "uniqueid": "MTK2563:3UJ1CZ6IZIW3CKRPF6O0NWMFKGKS5A", "dateTime": 1519067575205}, {"current_trial": 9, "trialdata": {"rt": [3095, 5232, 7577, 9868, 11504, 14020, 16224], "trial_type": "math-distractor", "key_times": [2492, 2628, 3095, 4946, 5232, 6835, 7112, 7577, 9437, 9646, 9868, 11275, 11504, 13645, 13794, 14020, 15743, 15959, 16224], "responses": ["15", "9", "18", "17", "8", "21", "18"], "num2": [8, 6, 7, 9, 1, 7, 9, 8], "num3": [6, 2, 4, 1, 1, 9, 7, 1], "conditions": [18, 1200, "a", 18000], "internal_node_id": "0.0-9.0", "key_presses": [97, 101, 13, 105, 13, 97, 104, 13, 97, 103, 13, 104, 13, 98, 97, 13, 97, 104, 13], "trial": 0, "time_elapsed": 128979, "type": "DISTRACTOR", "trial_index": 9, "num1": [1, 1, 7, 7, 6, 5, 2, 1]}, "uniqueid": "MTK2563:3UJ1CZ6IZIW3CKRPF6O0NWMFKGKS5A", "dateTime": 1519067594242}, {"current_trial": 10, "trialdata": {"rt": -1, "trial_type": "single-stim", "stimulus": "<p id=\"stim\">10</p>", "internal_node_id": "0.0-10.0-0.0", "time_elapsed": 131985, "key_press": -1, "trial_index": 10}, "uniqueid": "MTK2563:3UJ1CZ6IZIW3CKRPF6O0NWMFKGKS5A", "dateTime": 1519067597248}, {"current_trial": 11, "trialdata": {"rt": -1, "trial_type": "single-stim", "stimulus": "<p id=\"stim\">9</p>", "internal_node_id": "0.0-10.0-1.0", "time_elapsed": 132986, "key_press": -1, "trial_index": 11}, "uniqueid": "MTK2563:3UJ1CZ6IZIW3CKRPF6O0NWMFKGKS5A", "dateTime": 1519067598249}, {"current_trial": 12, "trialdata": {"rt": -1, "trial_type": "single-stim", "stimulus": "<p id=\"stim\">8</p>", "internal_node_id": "0.0-10.0-2.0", "time_elapsed": 133987, "key_press": -1, "trial_index": 12}, "uniqueid": "MTK2563:3UJ1CZ6IZIW3CKRPF6O0NWMFKGKS5A", "dateTime": 1519067599250}, {"current_trial": 13, "trialdata": {"rt": -1, "trial_type": "single-stim", "stimulus": "<p id=\"stim\">7</p>", "internal_node_id": "0.0-10.0-3.0", "time_elapsed": 134990, "key_press": -1, "trial_index": 13}, "uniqueid": "MTK2563:3UJ1CZ6IZIW3CKRPF6O0NWMFKGKS5A", "dateTime": 1519067600253}, {"current_trial": 14, "trialdata": {"rt": -1, "trial_type": "single-stim", "stimulus": "<p id=\"stim\">6</p>", "internal_node_id": "0.0-10.0-4.0", "time_elapsed": 135992, "key_press": -1, "trial_index": 14}, "uniqueid": "MTK2563:3UJ1CZ6IZIW3CKRPF6O0NWMFKGKS5A", "dateTime": 1519067601255}, {"current_trial": 15, "trialdata": {"rt": -1, "trial_type": "single-stim", "stimulus": "<p id=\"stim\">5</p>", "internal_node_id": "0.0-10.0-5.0", "time_elapsed": 136993, "key_press": -1, "trial_index": 15}, "uniqueid": "MTK2563:3UJ1CZ6IZIW3CKRPF6O0NWMFKGKS5A", "dateTime": 1519067602256}, {"current_trial": 16, "trialdata": {"rt": -1, "trial_type": "single-stim", "stimulus": "<p id=\"stim\">4</p>", "internal_node_id": "0.0-10.0-6.0", "time_elapsed": 137995, "key_press": -1, "trial_index": 16}, "uniqueid": "MTK2563:3UJ1CZ6IZIW3CKRPF6O0NWMFKGKS5A", "dateTime": 1519067603258}, {"current_trial": 17, "trialdata": {"rt": -1, "trial_type": "single-stim", "stimulus": "<p id=\"stim\">3</p>", "internal_node_id": "0.0-10.0-7.0", "time_elapsed": 138998, "key_press": -1, "trial_index": 17}, "uniqueid": "MTK2563:3UJ1CZ6IZIW3CKRPF6O0NWMFKGKS5A", "dateTime": 1519067604261}, {"current_trial": 18, "trialdata": {"rt": -1, "trial_type": "single-stim", "stimulus": "<p id=\"stim\">2</p>", "internal_node_id": "0.0-10.0-8.0", "time_elapsed": 139999, "key_press": -1, "trial_index": 18}, "uniqueid": "MTK2563:3UJ1CZ6IZIW3CKRPF6O0NWMFKGKS5A", "dateTime": 1519067605264}, {"current_trial": 19, "trialdata": {"rt": -1, "trial_type": "single-stim", "stimulus": "<p id=\"stim\">1</p>", "internal_node_id": "0.0-10.0-9.0", "time_elapsed": 141001, "key_press": -1, "trial_index": 19}, "uniqueid": "MTK2563:3UJ1CZ6IZIW3CKRPF6O0NWMFKGKS5A", "dateTime": 1519067606264}, {"current_trial": 20, "trialdata": {"rt": -1, "trial_type": "single-stim", "stimulus": "<p id=\"stim\">+</p>", "internal_node_id": "0.0-11.0-0.0", "time_elapsed": 142505, "key_press": -1, "type": "FIXATION", "trial_index": 20}, "uniqueid": "MTK2563:3UJ1CZ6IZIW3CKRPF6O0NWMFKGKS5A", "dateTime": 1519067607768}, {"current_trial": 21, "trialdata": {"rt": -1000, "trial_type": "single-audio", "word": "bacon", "stimulus": "/static/audio/wordpool/BACON.wav", "conditions": [18, 1200, "a", 18000], "internal_node_id": "0.0-12.0", "trial": 0, "time_elapsed": 144815, "serialpos": 0, "key_press": -1, "wordID": 66, "type": "PRES_AUD", "trial_index": 21}, "uniqueid": "MTK2563:3UJ1CZ6IZIW3CKRPF6O0NWMFKGKS5A", "dateTime": 1519067610078}, {"current_trial": 22, "trialdata": {"rt": -1000, "trial_type": "single-audio", "word": "skillet", "stimulus": "/static/audio/wordpool/SKILLET.wav", "conditions": [18, 1200, "a", 18000], "internal_node_id": "0.0-13.0", "trial": 0, "time_elapsed": 146923, "serialpos": 1, "key_press": -1, "wordID": 1316, "type": "PRES_AUD", "trial_index": 22}, "uniqueid": "MTK2563:3UJ1CZ6IZIW3CKRPF6O0NWMFKGKS5A", "dateTime": 1519067612186}, {"current_trial": 23, "trialdata": {"rt": -1000, "trial_type": "single-audio", "word": "tribe", "stimulus": "/static/audio/wordpool/TRIBE.wav", "conditions": [18, 1200, "a", 18000], "internal_node_id": "0.0-14.0", "trial": 0, "time_elapsed": 149263, "serialpos": 2, "key_press": -1, "wordID": 1504, "type": "PRES_AUD", "trial_index": 23}, "uniqueid": "MTK2563:3UJ1CZ6IZIW3CKRPF6O0NWMFKGKS5A", "dateTime": 1519067614527}, {"current_trial": 24, "trialdata": {"rt": -1000, "trial_type": "single-audio", "word": "eyelash", "stimulus": "/static/audio/wordpool/EYELASH.wav", "conditions": [18, 1200, "a", 18000], "internal_node_id": "0.0-15.0", "trial": 0, "time_elapsed": 151336, "serialpos": 3, "key_press": -1, "wordID": 545, "type": "PRES_AUD", "trial_index": 24}, "uniqueid": "MTK2563:3UJ1CZ6IZIW3CKRPF6O0NWMFKGKS5A", "dateTime": 1519067616599}, {"current_trial": 25, "trialdata": {"rt": -1000, "trial_type": "single-audio", "word": "shoulder", "stimulus": "/static/audio/wordpool/SHOULDER.wav", "conditions": [18, 1200, "a", 18000], "internal_node_id": "0.0-16.0", "trial": 0, "time_elapsed": 153643, "serialpos": 4, "key_press": -1, "wordID": 1293, "type": "PRES_AUD", "trial_index": 25}, "uniqueid": "MTK2563:3UJ1CZ6IZIW3CKRPF6O0NWMFKGKS5A", "dateTime": 1519067618906}, {"current_trial": 26, "trialdata": {"rt": -1000, "trial_type": "single-audio", "word": "ulcer", "stimulus": "/static/audio/wordpool/ULCER.wav", "conditions": [18, 1200, "a", 18000], "internal_node_id": "0.0-17.0", "trial": 0, "time_elapsed": 155744, "serialpos": 5, "key_press": -1, "wordID": 1532, "type": "PRES_AUD", "trial_index": 26}, "uniqueid": "MTK2563:3UJ1CZ6IZIW3CKRPF6O0NWMFKGKS5A", "dateTime": 1519067621007}, {"current_trial": 27, "trialdata": {"rt": -1000, "trial_type": "single-audio", "word": "pocket", "stimulus": "/static/audio/wordpool/POCKET.wav", "conditions": [18, 1200, "a", 18000], "internal_node_id": "0.0-18.0", "trial": 0, "time_elapsed": 157849, "serialpos": 6, "key_press": -1, "wordID": 1092, "type": "PRES_AUD", "trial_index": 27}, "uniqueid": "MTK2563:3UJ1CZ6IZIW3CKRPF6O0NWMFKGKS5A", "dateTime": 1519067623113}, {"current_trial": 28, "trialdata": {"rt": -1000, "trial_type": "single-audio", "word": "neutron", "stimulus": "/static/audio/wordpool/NEUTRON.wav", "conditions": [18, 1200, "a", 18000], "internal_node_id": "0.0-19.0", "trial": 0, "time_elapsed": 159994, "serialpos": 7, "key_press": -1, "wordID": 946, "type": "PRES_AUD", "trial_index": 28}, "uniqueid": "MTK2563:3UJ1CZ6IZIW3CKRPF6O0NWMFKGKS5A", "dateTime": 1519067625258}, {"current_trial": 29, "trialdata": {"rt": -1000, "trial_type": "single-audio", "word": "elbow", "stimulus": "/static/audio/wordpool/ELBOW.wav", "conditions": [18, 1200, "a", 18000], "internal_node_id": "0.0-20.0", "trial": 0, "time_elapsed": 162305, "serialpos": 8, "key_press": -1, "wordID": 519, "type": "PRES_AUD", "trial_index": 29}, "uniqueid": "MTK2563:3UJ1CZ6IZIW3CKRPF6O0NWMFKGKS5A", "dateTime": 1519067627568}, {"current_trial": 30, "trialdata": {"rt": -1000, "trial_type": "single-audio", "word": "venus", "stimulus": "/static/audio/wordpool/VENUS.wav", "conditions": [18, 1200, "a", 18000], "internal_node_id": "0.0-21.0", "trial": 0, "time_elapsed": 164379, "serialpos": 9, "key_press": -1, "wordID": 1556, "type": "PRES_AUD", "trial_index": 30}, "uniqueid": "MTK2563:3UJ1CZ6IZIW3CKRPF6O0NWMFKGKS5A", "dateTime": 1519067629642}, {"current_trial": 31, "trialdata": {"rt": -1000, "trial_type": "single-audio", "word": "barley", "stimulus": "/static/audio/wordpool/BARLEY.wav", "conditions": [18, 1200, "a", 18000], "internal_node_id": "0.0-22.0", "trial": 0, "time_elapsed": 166632, "serialpos": 10, "key_press": -1, "wordID": 87, "type": "PRES_AUD", "trial_index": 31}, "uniqueid": "MTK2563:3UJ1CZ6IZIW3CKRPF6O0NWMFKGKS5A", "dateTime": 1519067631895}, {"current_trial": 32, "trialdata": {"rt": -1000, "trial_type": "single-audio", "word": "primate", "stimulus": "/static/audio/wordpool/PRIMATE.wav", "conditions": [18, 1200, "a", 18000], "internal_node_id": "0.0-23.0", "trial": 0, "time_elapsed": 168662, "serialpos": 11, "key_press": -1, "wordID": 1122, "type": "PRES_AUD", "trial_index": 32}, "uniqueid": "MTK2563:3UJ1CZ6IZIW3CKRPF6O0NWMFKGKS5A", "dateTime": 1519067633925}, {"current_trial": 33, "trialdata": {"rt": -1000, "trial_type": "single-audio", "word": "spider", "stimulus": "/static/audio/wordpool/SPIDER.wav", "conditions": [18, 1200, "a", 18000], "internal_node_id": "0.0-24.0", "trial": 0, "time_elapsed": 170752, "serialpos": 12, "key_press": -1, "wordID": 1350, "type": "PRES_AUD", "trial_index": 33}, "uniqueid": "MTK2563:3UJ1CZ6IZIW3CKRPF6O0NWMFKGKS5A", "dateTime": 1519067636015}, {"current_trial": 34, "trialdata": {"rt": -1000, "trial_type": "single-audio", "word": "scalpel", "stimulus": "/static/audio/wordpool/SCALPEL.wav", "conditions": [18, 1200, "a", 18000], "internal_node_id": "0.0-25.0", "trial": 0, "time_elapsed": 172944, "serialpos": 13, "key_press": -1, "wordID": 1242, "type": "PRES_AUD", "trial_index": 34}, "uniqueid": "MTK2563:3UJ1CZ6IZIW3CKRPF6O0NWMFKGKS5A", "dateTime": 1519067638207}, {"current_trial": 35, "trialdata": {"rt": -1000, "trial_type": "single-audio", "word": "salmon", "stimulus": "/static/audio/wordpool/SALMON.wav", "conditions": [18, 1200, "a", 18000], "internal_node_id": "0.0-26.0", "trial": 0, "time_elapsed": 175292, "serialpos": 14, "key_press": -1, "wordID": 1226, "type": "PRES_AUD", "trial_index": 35}, "uniqueid": "MTK2563:3UJ1CZ6IZIW3CKRPF6O0NWMFKGKS5A", "dateTime": 1519067640555}, {"current_trial": 36, "trialdata": {"rt": -1000, "trial_type": "single-audio", "word": "cashew", "stimulus": "/static/audio/wordpool/CASHEW.wav", "conditions": [18, 1200, "a", 18000], "internal_node_id": "0.0-27.0", "trial": 0, "time_elapsed": 177456, "serialpos": 15, "key_press": -1, "wordID": 252, "type": "PRES_AUD", "trial_index": 36}, "uniqueid": "MTK2563:3UJ1CZ6IZIW3CKRPF6O0NWMFKGKS5A", "dateTime": 1519067642719}, {"current_trial": 37, "trialdata": {"rt": -1000, "trial_type": "single-audio", "word": "highway", "stimulus": "/static/audio/wordpool/HIGHWAY.wav", "conditions": [18, 1200, "a", 18000], "internal_node_id": "0.0-28.0", "trial": 0, "time_elapsed": 179620, "serialpos": 16, "key_press": -1, "wordID": 706, "type": "PRES_AUD", "trial_index": 37}, "uniqueid": "MTK2563:3UJ1CZ6IZIW3CKRPF6O0NWMFKGKS5A", "dateTime": 1519067644883}, {"current_trial": 38, "trialdata": {"rt": -1000, "trial_type": "single-audio", "word": "summit", "stimulus": "/static/audio/wordpool/SUMMIT.wav", "conditions": [18, 1200, "a", 18000], "internal_node_id": "0.0-29.0", "trial": 0, "time_elapsed": 181894, "serialpos": 17, "key_press": -1, "wordID": 1404, "type": "PRES_AUD", "trial_index": 38}, "uniqueid": "MTK2563:3UJ1CZ6IZIW3CKRPF6O0NWMFKGKS5A", "dateTime": 1519067647157}, {"current_trial": 39, "trialdata": {"rt": -1, "trial_type": "single-stim", "stimulus": "", "internal_node_id": "0.0-30.0-0.0", "time_elapsed": 183260, "key_press": -1, "type": "PRE_RECALL_DELAY", "trial_index": 39}, "uniqueid": "MTK2563:3UJ1CZ6IZIW3CKRPF6O0NWMFKGKS5A", "dateTime": 1519067648523}, {"current_trial": 40, "trialdata": {"rt": -1000, "trial_type": "single-audio", "stimulus": "/static/audio/400Hz.wav", "internal_node_id": "0.0-31.0", "time_elapsed": 183763, "key_press": -1, "type": "PRE_RECALL_ALERT", "trial_index": 40}, "uniqueid": "MTK2563:3UJ1CZ6IZIW3CKRPF6O0NWMFKGKS5A", "dateTime": 1519067649026}, {"current_trial": 41, "trialdata": {"rt": [10016, 12869, 15145, 17052, 18979, 20918, 24006, 26661, 39917, 54757], "recwords": ["skillet", "bacon", "neutron", "elbow", "spider", "summit", "cashew", "primate", "", "bacon"], "key_times": [5380, 5493, 5715, 6014, 7381, 7598, 7767, 7907, 8035, 8711, 8969, 9128, 9325, 9455, 9527, 9690, 10016, 11548, 11655, 12041, 12290, 12588, 12869, 13164, 13356, 13920, 14113, 14402, 14508, 14911, 15145, 15418, 15552, 16121, 16466, 16875, 17052, 17225, 17403, 17616, 18543, 18739, 18800, 18979, 19181, 19453, 19695, 19826, 20062, 20716, 20918, 21361, 21529, 21663, 21898, 23017, 23214, 24006, 24801, 25180, 25435, 25723, 25839, 26078, 26263, 26661, 39917, 53626, 53723, 54027, 54307, 54535, 54757], "trial_type": "free-recall", "conditions": [18, 1200, "a", 18000], "internal_node_id": "0.0-32.0-0.0", "key_presses": [66, 65, 67, 79, 8, 8, 8, 8, 8, 83, 75, 73, 76, 76, 69, 84, 13, 66, 65, 67, 79, 78, 13, 78, 69, 85, 84, 82, 79, 78, 13, 69, 76, 66, 79, 87, 13, 83, 80, 73, 68, 69, 82, 13, 83, 85, 77, 77, 73, 84, 13, 67, 65, 83, 72, 69, 87, 13, 80, 82, 73, 77, 65, 84, 69, 13, 13, 66, 65, 67, 79, 78, 13], "trial": 0, "time_elapsed": 243768, "type": "FREE_RECALL", "trial_index": 41}, "uniqueid": "MTK2563:3UJ1CZ6IZIW3CKRPF6O0NWMFKGKS5A", "dateTime": 1519067709033}, {"current_trial": 42, "trialdata": {"rt": 1084, "trial_type": "text", "internal_node_id": "0.0-33.0", "time_elapsed": 246855, "key_press": 70, "type": "INSTRUCTIONS", "trial_index": 42}, "uniqueid": "MTK2563:3UJ1CZ6IZIW3CKRPF6O0NWMFKGKS5A", "dateTime": 1519067712118}, {"current_trial": 43, "trialdata": {"rt": [2478, 4684, 7091, 9192, 11373, 13429, 15554], "trial_type": "math-distractor", "key_times": [1930, 2184, 2478, 4005, 4360, 4684, 6759, 6886, 7091, 8591, 8867, 9192, 10962, 11132, 11373, 12811, 13113, 13429, 15200, 15554], "responses": ["13", "16", "22", "17", "21", "13", "7"], "num2": [1, 2, 8, 2, 4, 9, 3, 5], "num3": [3, 8, 6, 8, 9, 1, 2, 3], "conditions": [18, 1200, "a", 18000], "internal_node_id": "0.0-34.0", "key_presses": [97, 99, 13, 97, 102, 13, 98, 98, 13, 97, 103, 13, 98, 97, 13, 97, 99, 13, 103, 13], "trial": 1, "time_elapsed": 266862, "type": "DISTRACTOR", "trial_index": 43, "num1": [9, 6, 8, 7, 8, 3, 2, 9]}, "uniqueid": "MTK2563:3UJ1CZ6IZIW3CKRPF6O0NWMFKGKS5A", "dateTime": 1519067732125}, {"current_trial": 44, "trialdata": {"rt": -1, "trial_type": "single-stim", "stimulus": "<p id=\"stim\">10</p>", "internal_node_id": "0.0-35.0-0.0", "time_elapsed": 269863, "key_press": -1, "trial_index": 44}, "uniqueid": "MTK2563:3UJ1CZ6IZIW3CKRPF6O0NWMFKGKS5A", "dateTime": 1519067735126}, {"current_trial": 45, "trialdata": {"rt": -1, "trial_type": "single-stim", "stimulus": "<p id=\"stim\">9</p>", "internal_node_id": "0.0-35.0-1.0", "time_elapsed": 270866, "key_press": -1, "trial_index": 45}, "uniqueid": "MTK2563:3UJ1CZ6IZIW3CKRPF6O0NWMFKGKS5A", "dateTime": 1519067736129}, {"current_trial": 46, "trialdata": {"rt": -1, "trial_type": "single-stim", "stimulus": "<p id=\"stim\">8</p>", "internal_node_id": "0.0-35.0-2.0", "time_elapsed": 271868, "key_press": -1, "trial_index": 46}, "uniqueid": "MTK2563:3UJ1CZ6IZIW3CKRPF6O0NWMFKGKS5A", "dateTime": 1519067737131}, {"current_trial": 47, "trialdata": {"rt": -1, "trial_type": "single-stim", "stimulus": "<p id=\"stim\">7</p>", "internal_node_id": "0.0-35.0-3.0", "time_elapsed": 272869, "key_press": -1, "trial_index": 47}, "uniqueid": "MTK2563:3UJ1CZ6IZIW3CKRPF6O0NWMFKGKS5A", "dateTime": 1519067738132}, {"current_trial": 48, "trialdata": {"rt": -1, "trial_type": "single-stim", "stimulus": "<p id=\"stim\">6</p>", "internal_node_id": "0.0-35.0-4.0", "time_elapsed": 273871, "key_press": -1, "trial_index": 48}, "uniqueid": "MTK2563:3UJ1CZ6IZIW3CKRPF6O0NWMFKGKS5A", "dateTime": 1519067739134}, {"current_trial": 49, "trialdata": {"rt": -1, "trial_type": "single-stim", "stimulus": "<p id=\"stim\">5</p>", "internal_node_id": "0.0-35.0-5.0", "time_elapsed": 274873, "key_press": -1, "trial_index": 49}, "uniqueid": "MTK2563:3UJ1CZ6IZIW3CKRPF6O0NWMFKGKS5A", "dateTime": 1519067740136}, {"current_trial": 50, "trialdata": {"rt": -1, "trial_type": "single-stim", "stimulus": "<p id=\"stim\">4</p>", "internal_node_id": "0.0-35.0-6.0", "time_elapsed": 275875, "key_press": -1, "trial_index": 50}, "uniqueid": "MTK2563:3UJ1CZ6IZIW3CKRPF6O0NWMFKGKS5A", "dateTime": 1519067741138}, {"current_trial": 51, "trialdata": {"rt": -1, "trial_type": "single-stim", "stimulus": "<p id=\"stim\">3</p>", "internal_node_id": "0.0-35.0-7.0", "time_elapsed": 276876, "key_press": -1, "trial_index": 51}, "uniqueid": "MTK2563:3UJ1CZ6IZIW3CKRPF6O0NWMFKGKS5A", "dateTime": 1519067742139}, {"current_trial": 52, "trialdata": {"rt": -1, "trial_type": "single-stim", "stimulus": "<p id=\"stim\">2</p>", "internal_node_id": "0.0-35.0-8.0", "time_elapsed": 277878, "key_press": -1, "trial_index": 52}, "uniqueid": "MTK2563:3UJ1CZ6IZIW3CKRPF6O0NWMFKGKS5A", "dateTime": 1519067743141}, {"current_trial": 53, "trialdata": {"rt": -1, "trial_type": "single-stim", "stimulus": "<p id=\"stim\">1</p>", "internal_node_id": "0.0-35.0-9.0", "time_elapsed": 278880, "key_press": -1, "trial_index": 53}, "uniqueid": "MTK2563:3UJ1CZ6IZIW3CKRPF6O0NWMFKGKS5A", "dateTime": 1519067744143}, {"current_trial": 54, "trialdata": {"rt": -1, "trial_type": "single-stim", "stimulus": "<p id=\"stim\">+</p>", "internal_node_id": "0.0-36.0-0.0", "time_elapsed": 280382, "key_press": -1, "type": "FIXATION", "trial_index": 54}, "uniqueid": "MTK2563:3UJ1CZ6IZIW3CKRPF6O0NWMFKGKS5A", "dateTime": 1519067745645}, {"current_trial": 55, "trialdata": {"rt": -1000, "trial_type": "single-audio", "word": "fox", "stimulus": "/static/audio/wordpool/FOX.wav", "conditions": [18, 1200, "a", 18000], "internal_node_id": "0.0-37.0", "trial": 1, "time_elapsed": 282494, "serialpos": 0, "key_press": -1, "wordID": 597, "type": "PRES_AUD", "trial_index": 55}, "uniqueid": "MTK2563:3UJ1CZ6IZIW3CKRPF6O0NWMFKGKS5A", "dateTime": 1519067747757}, {"current_trial": 56, "trialdata": {"rt": -1000, "trial_type": "single-audio", "word": "suitcase", "stimulus": "/static/audio/wordpool/SUITCASE.wav", "conditions": [18, 1200, "a", 18000], "internal_node_id": "0.0-38.0", "trial": 1, "time_elapsed": 284728, "serialpos": 1, "key_press": -1, "wordID": 1402, "type": "PRES_AUD", "trial_index": 56}, "uniqueid": "MTK2563:3UJ1CZ6IZIW3CKRPF6O0NWMFKGKS5A", "dateTime": 1519067749993}, {"current_trial": 57, "trialdata": {"rt": -1000, "trial_type": "single-audio", "word": "clam", "stimulus": "/static/audio/wordpool/CLAM.wav", "conditions": [18, 1200, "a", 18000], "internal_node_id": "0.0-39.0", "trial": 1, "time_elapsed": 286939, "serialpos": 2, "key_press": -1, "wordID": 314, "type": "PRES_AUD", "trial_index": 57}, "uniqueid": "MTK2563:3UJ1CZ6IZIW3CKRPF6O0NWMFKGKS5A", "dateTime": 1519067752202}, {"current_trial": 58, "trialdata": {"rt": -1000, "trial_type": "single-audio", "word": "staple", "stimulus": "/static/audio/wordpool/STAPLE.wav", "conditions": [18, 1200, "a", 18000], "internal_node_id": "0.0-40.0", "trial": 1, "time_elapsed": 289262, "serialpos": 3, "key_press": -1, "wordID": 1370, "type": "PRES_AUD", "trial_index": 58}, "uniqueid": "MTK2563:3UJ1CZ6IZIW3CKRPF6O0NWMFKGKS5A", "dateTime": 1519067754525}, {"current_trial": 59, "trialdata": {"rt": -1000, "trial_type": "single-audio", "word": "virus", "stimulus": "/static/audio/wordpool/VIRUS.wav", "conditions": [18, 1200, "a", 18000], "internal_node_id": "0.0-41.0", "trial": 1, "time_elapsed": 291473, "serialpos": 4, "key_press": -1, "wordID": 1571, "type": "PRES_AUD", "trial_index": 59}, "uniqueid": "MTK2563:3UJ1CZ6IZIW3CKRPF6O0NWMFKGKS5A", "dateTime": 1519067756736}, {"current_trial": 60, "trialdata": {"rt": -1000, "trial_type": "single-audio", "word": "thread", "stimulus": "/static/audio/wordpool/THREAD.wav", "conditions": [18, 1200, "a", 18000], "internal_node_id": "0.0-42.0", "trial": 1, "time_elapsed": 293835, "serialpos": 5, "key_press": -1, "wordID": 1459, "type": "PRES_AUD", "trial_index": 60}, "uniqueid": "MTK2563:3UJ1CZ6IZIW3CKRPF6O0NWMFKGKS5A", "dateTime": 1519067759098}, {"current_trial": 61, "trialdata": {"rt": -1000, "trial_type": "single-audio", "word": "whiskers", "stimulus": "/static/audio/wordpool/WHISKERS.wav", "conditions": [18, 1200, "a", 18000], "internal_node_id": "0.0-43.0", "trial": 1, "time_elapsed": 296076, "serialpos": 6, "key_press": -1, "wordID": 1604, "type": "PRES_AUD", "trial_index": 61}, "uniqueid": "MTK2563:3UJ1CZ6IZIW3CKRPF6O0NWMFKGKS5A", "dateTime": 1519067761340}, {"current_trial": 62, "trialdata": {"rt": -1000, "trial_type": "single-audio", "word": "money", "stimulus": "/static/audio/wordpool/MONEY.wav", "conditions": [18, 1200, "a", 18000], "internal_node_id": "0.0-44.0", "trial": 1, "time_elapsed": 298327, "serialpos": 7, "key_press": -1, "wordID": 907, "type": "PRES_AUD", "trial_index": 62}, "uniqueid": "MTK2563:3UJ1CZ6IZIW3CKRPF6O0NWMFKGKS5A", "dateTime": 1519067763590}, {"current_trial": 63, "trialdata": {"rt": -1000, "trial_type": "single-audio", "word": "drill", "stimulus": "/static/audio/wordpool/DRILL.wav", "conditions": [18, 1200, "a", 18000], "internal_node_id": "0.0-45.0", "trial": 1, "time_elapsed": 300604, "serialpos": 8, "key_press": -1, "wordID": 496, "type": "PRES_AUD", "trial_index": 63}, "uniqueid": "MTK2563:3UJ1CZ6IZIW3CKRPF6O0NWMFKGKS5A", "dateTime": 1519067765867}, {"current_trial": 64, "trialdata": {"rt": -1000, "trial_type": "single-audio", "word": "leg", "stimulus": "/static/audio/wordpool/LEG.wav", "conditions": [18, 1200, "a", 18000], "internal_node_id": "0.0-46.0", "trial": 1, "time_elapsed": 302840, "serialpos": 9, "key_press": -1, "wordID": 808, "type": "PRES_AUD", "trial_index": 64}, "uniqueid": "MTK2563:3UJ1CZ6IZIW3CKRPF6O0NWMFKGKS5A", "dateTime": 1519067768103}, {"current_trial": 65, "trialdata": {"rt": -1000, "trial_type": "single-audio", "word": "clock", "stimulus": "/static/audio/wordpool/CLOCK.wav", "conditions": [18, 1200, "a", 18000], "internal_node_id": "0.0-47.0", "trial": 1, "time_elapsed": 305032, "serialpos": 10, "key_press": -1, "wordID": 324, "type": "PRES_AUD", "trial_index": 65}, "uniqueid": "MTK2563:3UJ1CZ6IZIW3CKRPF6O0NWMFKGKS5A", "dateTime": 1519067770295}, {"current_trial": 66, "trialdata": {"rt": -1000, "trial_type": "single-audio", "word": "diner", "stimulus": "/static/audio/wordpool/DINER.wav", "conditions": [18, 1200, "a", 18000], "internal_node_id": "0.0-48.0", "trial": 1, "time_elapsed": 307047, "serialpos": 11, "key_press": -1, "wordID": 466, "type": "PRES_AUD", "trial_index": 66}, "uniqueid": "MTK2563:3UJ1CZ6IZIW3CKRPF6O0NWMFKGKS5A", "dateTime": 1519067772310}, {"current_trial": 67, "trialdata": {"rt": -1000, "trial_type": "single-audio", "word": "jello", "stimulus": "/static/audio/wordpool/JELLO.wav", "conditions": [18, 1200, "a", 18000], "internal_node_id": "0.0-49.0", "trial": 1, "time_elapsed": 309174, "serialpos": 12, "key_press": -1, "wordID": 753, "type": "PRES_AUD", "trial_index": 67}, "uniqueid": "MTK2563:3UJ1CZ6IZIW3CKRPF6O0NWMFKGKS5A", "dateTime": 1519067774439}, {"current_trial": 68, "trialdata": {"rt": -1000, "trial_type": "single-audio", "word": "flag", "stimulus": "/static/audio/wordpool/FLAG.wav", "conditions": [18, 1200, "a", 18000], "internal_node_id": "0.0-50.0", "trial": 1, "time_elapsed": 311413, "serialpos": 13, "key_press": -1, "wordID": 572, "type": "PRES_AUD", "trial_index": 68}, "uniqueid": "MTK2563:3UJ1CZ6IZIW3CKRPF6O0NWMFKGKS5A", "dateTime": 1519067776679}, {"current_trial": 69, "trialdata": {"rt": -1000, "trial_type": "single-audio", "word": "office", "stimulus": "/static/audio/wordpool/OFFICE.wav", "conditions": [18, 1200, "a", 18000], "internal_node_id": "0.0-51.0", "trial": 1, "time_elapsed": 313688, "serialpos": 14, "key_press": -1, "wordID": 971, "type": "PRES_AUD", "trial_index": 69}, "uniqueid": "MTK2563:3UJ1CZ6IZIW3CKRPF6O0NWMFKGKS5A", "dateTime": 1519067778951}, {"current_trial": 70, "trialdata": {"rt": -1000, "trial_type": "single-audio", "word": "hatchet", "stimulus": "/static/audio/wordpool/HATCHET.wav", "conditions": [18, 1200, "a", 18000], "internal_node_id": "0.0-52.0", "trial": 1, "time_elapsed": 315952, "serialpos": 15, "key_press": -1, "wordID": 690, "type": "PRES_AUD", "trial_index": 70}, "uniqueid": "MTK2563:3UJ1CZ6IZIW3CKRPF6O0NWMFKGKS5A", "dateTime": 1519067781215}, {"current_trial": 71, "trialdata": {"rt": -1000, "trial_type": "single-audio", "word": "fireplace", "stimulus": "/static/audio/wordpool/FIREPLACE.wav", "conditions": [18, 1200, "a", 18000], "internal_node_id": "0.0-53.0", "trial": 1, "time_elapsed": 318116, "serialpos": 16, "key_press": -1, "wordID": 569, "type": "PRES_AUD", "trial_index": 71}, "uniqueid": "MTK2563:3UJ1CZ6IZIW3CKRPF6O0NWMFKGKS5A", "dateTime": 1519067783380}, {"current_trial": 72, "trialdata": {"rt": -1000, "trial_type": "single-audio", "word": "basement", "stimulus": "/static/audio/wordpool/BASEMENT.wav", "conditions": [18, 1200, "a", 18000], "internal_node_id": "0.0-54.0", "trial": 1, "time_elapsed": 320429, "serialpos": 17, "key_press": -1, "wordID": 93, "type": "PRES_AUD", "trial_index": 72}, "uniqueid": "MTK2563:3UJ1CZ6IZIW3CKRPF6O0NWMFKGKS5A", "dateTime": 1519067785692}, {"current_trial": 73, "trialdata": {"rt": -1, "trial_type": "single-stim", "stimulus": "", "internal_node_id": "0.0-55.0-0.0", "time_elapsed": 321770, "key_press": -1, "type": "PRE_RECALL_DELAY", "trial_index": 73}, "uniqueid": "MTK2563:3UJ1CZ6IZIW3CKRPF6O0NWMFKGKS5A", "dateTime": 1519067787033}, {"current_trial": 74, "trialdata": {"rt": -1000, "trial_type": "single-audio", "stimulus": "/static/audio/400Hz.wav", "internal_node_id": "0.0-56.0", "time_elapsed": 322270, "key_press": -1, "type": "PRE_RECALL_ALERT", "trial_index": 74}, "uniqueid": "MTK2563:3UJ1CZ6IZIW3CKRPF6O0NWMFKGKS5A", "dateTime": 1519067787533}, {"current_trial": 75, "trialdata": {"rt": [2410, 4889, 7457, 9940, 15084, 16921, 24275, 34081, 40030], "recwords": ["fox", "basement", "suitcase", "hatchet", "thread", "virus", "staple", "fox", "basement"], "key_times": [1420, 1782, 2156, 2410, 2879, 2990, 3138, 3359, 3942, 4077, 4194, 4569, 4889, 5205, 5510, 5621, 5917, 6324, 6557, 6767, 6999, 7457, 8016, 8111, 8314, 8595, 8716, 8850, 9125, 9940, 13781, 13947, 14166, 14294, 14652, 14845, 15084, 15343, 15654, 15923, 16242, 16568, 16921, 22839, 23056, 23258, 23521, 23744, 23964, 24275, 33553, 33774, 33924, 34081, 38392, 38515, 38813, 38997, 39298, 39446, 39556, 39709, 40030], "trial_type": "free-recall", "conditions": [18, 1200, "a", 18000], "internal_node_id": "0.0-57.0-0.0", "key_presses": [70, 79, 88, 13, 66, 65, 83, 69, 77, 69, 78, 84, 13, 83, 85, 73, 84, 67, 65, 83, 69, 13, 72, 65, 84, 67, 72, 69, 84, 13, 84, 72, 82, 69, 65, 68, 13, 86, 73, 82, 85, 83, 13, 83, 84, 65, 80, 76, 69, 13, 70, 79, 88, 13, 66, 65, 83, 69, 77, 69, 78, 84, 13], "trial": 1, "time_elapsed": 382275, "type": "FREE_RECALL", "trial_index": 75}, "uniqueid": "MTK2563:3UJ1CZ6IZIW3CKRPF6O0NWMFKGKS5A", "dateTime": 1519067847540}, {"current_trial": 76, "trialdata": {"rt": 600, "trial_type": "text", "internal_node_id": "0.0-58.0", "time_elapsed": 384879, "key_press": 75, "type": "INSTRUCTIONS", "trial_index": 76}, "uniqueid": "MTK2563:3UJ1CZ6IZIW3CKRPF6O0NWMFKGKS5A", "dateTime": 1519067850142}, {"current_trial": 77, "trialdata": {"rt": [2384, 4311, 6923, 9073, 11198, 12875, 15304, 17398, 19491, 23925], "trial_type": "math-distractor", "key_times": [1926, 2110, 2384, 3751, 4022, 4311, 6512, 6673, 6923, 8698, 8872, 9073, 10709, 10930, 11198, 12447, 12628, 12875, 14856, 15042, 15304, 16971, 17143, 17398, 19011, 19229, 19491, 21909, 22105, 23196, 23737, 23925], "responses": ["10", "15", "20", "23", "16", "15", "24", "14", "18", "22"], "num2": [5, 7, 7, 6, 2, 1, 6, 5, 4, 7, 7], "num3": [1, 1, 5, 9, 5, 5, 9, 5, 9, 9, 8], "conditions": [24, 1600, "a", 24000], "internal_node_id": "0.0-59.0", "key_presses": [97, 96, 13, 97, 101, 13, 98, 96, 13, 98, 99, 13, 97, 102, 13, 97, 101, 13, 98, 100, 13, 97, 100, 13, 97, 104, 13, 98, 97, 8, 98, 13], "trial": 2, "time_elapsed": 409883, "type": "DISTRACTOR", "trial_index": 77, "num1": [4, 7, 8, 8, 9, 9, 9, 7, 5, 6, 4]}, "uniqueid": "MTK2563:3UJ1CZ6IZIW3CKRPF6O0NWMFKGKS5A", "dateTime": 1519067875147}, {"current_trial": 78, "trialdata": {"rt": -1, "trial_type": "single-stim", "stimulus": "<p id=\"stim\">10</p>", "internal_node_id": "0.0-60.0-0.0", "time_elapsed": 412885, "key_press": -1, "trial_index": 78}, "uniqueid": "MTK2563:3UJ1CZ6IZIW3CKRPF6O0NWMFKGKS5A", "dateTime": 1519067878149}, {"current_trial": 79, "trialdata": {"rt": -1, "trial_type": "single-stim", "stimulus": "<p id=\"stim\">9</p>", "internal_node_id": "0.0-60.0-1.0", "time_elapsed": 413888, "key_press": -1, "trial_index": 79}, "uniqueid": "MTK2563:3UJ1CZ6IZIW3CKRPF6O0NWMFKGKS5A", "dateTime": 1519067879151}, {"current_trial": 80, "trialdata": {"rt": -1, "trial_type": "single-stim", "stimulus": "<p id=\"stim\">8</p>", "internal_node_id": "0.0-60.0-2.0", "time_elapsed": 414889, "key_press": -1, "trial_index": 80}, "uniqueid": "MTK2563:3UJ1CZ6IZIW3CKRPF6O0NWMFKGKS5A", "dateTime": 1519067880153}, {"current_trial": 81, "trialdata": {"rt": -1, "trial_type": "single-stim", "stimulus": "<p id=\"stim\">7</p>", "internal_node_id": "0.0-60.0-3.0", "time_elapsed": 415891, "key_press": -1, "trial_index": 81}, "uniqueid": "MTK2563:3UJ1CZ6IZIW3CKRPF6O0NWMFKGKS5A", "dateTime": 1519067881154}, {"current_trial": 82, "trialdata": {"rt": -1, "trial_type": "single-stim", "stimulus": "<p id=\"stim\">6</p>", "internal_node_id": "0.0-60.0-4.0", "time_elapsed": 416892, "key_press": -1, "trial_index": 82}, "uniqueid": "MTK2563:3UJ1CZ6IZIW3CKRPF6O0NWMFKGKS5A", "dateTime": 1519067882155}, {"current_trial": 83, "trialdata": {"rt": -1, "trial_type": "single-stim", "stimulus": "<p id=\"stim\">5</p>", "internal_node_id": "0.0-60.0-5.0", "time_elapsed": 417894, "key_press": -1, "trial_index": 83}, "uniqueid": "MTK2563:3UJ1CZ6IZIW3CKRPF6O0NWMFKGKS5A", "dateTime": 1519067883157}, {"current_trial": 84, "trialdata": {"rt": -1, "trial_type": "single-stim", "stimulus": "<p id=\"stim\">4</p>", "internal_node_id": "0.0-60.0-6.0", "time_elapsed": 418895, "key_press": -1, "trial_index": 84}, "uniqueid": "MTK2563:3UJ1CZ6IZIW3CKRPF6O0NWMFKGKS5A", "dateTime": 1519067884158}, {"current_trial": 85, "trialdata": {"rt": -1, "trial_type": "single-stim", "stimulus": "<p id=\"stim\">3</p>", "internal_node_id": "0.0-60.0-7.0", "time_elapsed": 419897, "key_press": -1, "trial_index": 85}, "uniqueid": "MTK2563:3UJ1CZ6IZIW3CKRPF6O0NWMFKGKS5A", "dateTime": 1519067885163}, {"current_trial": 86, "trialdata": {"rt": -1, "trial_type": "single-stim", "stimulus": "<p id=\"stim\">2</p>", "internal_node_id": "0.0-60.0-8.0", "time_elapsed": 420901, "key_press": -1, "trial_index": 86}, "uniqueid": "MTK2563:3UJ1CZ6IZIW3CKRPF6O0NWMFKGKS5A", "dateTime": 1519067886164}, {"current_trial": 87, "trialdata": {"rt": -1, "trial_type": "single-stim", "stimulus": "<p id=\"stim\">1</p>", "internal_node_id": "0.0-60.0-9.0", "time_elapsed": 421901, "key_press": -1, "trial_index": 87}, "uniqueid": "MTK2563:3UJ1CZ6IZIW3CKRPF6O0NWMFKGKS5A", "dateTime": 1519067887166}, {"current_trial": 88, "trialdata": {"rt": -1, "trial_type": "single-stim", "stimulus": "<p id=\"stim\">+</p>", "internal_node_id": "0.0-61.0-0.0", "time_elapsed": 423404, "key_press": -1, "type": "FIXATION", "trial_index": 88}, "uniqueid": "MTK2563:3UJ1CZ6IZIW3CKRPF6O0NWMFKGKS5A", "dateTime": 1519067888667}, {"current_trial": 89, "trialdata": {"rt": -1000, "trial_type": "single-audio", "word": "lover", "stimulus": "/static/audio/wordpool/LOVER.wav", "conditions": [24, 1600, "a", 24000], "internal_node_id": "0.0-62.0", "trial": 2, "time_elapsed": 426054, "serialpos": 0, "key_press": -1, "wordID": 845, "type": "PRES_AUD", "trial_index": 89}, "uniqueid": "MTK2563:3UJ1CZ6IZIW3CKRPF6O0NWMFKGKS5A", "dateTime": 1519067891319}, {"current_trial": 90, "trialdata": {"rt": -1000, "trial_type": "single-audio", "word": "crab", "stimulus": "/static/audio/wordpool/CRAB.wav", "conditions": [24, 1600, "a", 24000], "internal_node_id": "0.0-63.0", "trial": 2, "time_elapsed": 428723, "serialpos": 1, "key_press": -1, "wordID": 396, "type": "PRES_AUD", "trial_index": 90}, "uniqueid": "MTK2563:3UJ1CZ6IZIW3CKRPF6O0NWMFKGKS5A", "dateTime": 1519067893986}, {"current_trial": 91, "trialdata": {"rt": -1000, "trial_type": "single-audio", "word": "hook", "stimulus": "/static/audio/wordpool/HOOK.wav", "conditions": [24, 1600, "a", 24000], "internal_node_id": "0.0-64.0", "trial": 2, "time_elapsed": 431367, "serialpos": 2, "key_press": -1, "wordID": 714, "type": "PRES_AUD", "trial_index": 91}, "uniqueid": "MTK2563:3UJ1CZ6IZIW3CKRPF6O0NWMFKGKS5A", "dateTime": 1519067896630}, {"current_trial": 92, "trialdata": {"rt": -1000, "trial_type": "single-audio", "word": "hiker", "stimulus": "/static/audio/wordpool/HIKER.wav", "conditions": [24, 1600, "a", 24000], "internal_node_id": "0.0-65.0", "trial": 2, "time_elapsed": 433972, "serialpos": 3, "key_press": -1, "wordID": 707, "type": "PRES_AUD", "trial_index": 92}, "uniqueid": "MTK2563:3UJ1CZ6IZIW3CKRPF6O0NWMFKGKS5A", "dateTime": 1519067899235}, {"current_trial": 93, "trialdata": {"rt": -1000, "trial_type": "single-audio", "word": "climber", "stimulus": "/static/audio/wordpool/CLIMBER.wav", "conditions": [24, 1600, "a", 24000], "internal_node_id": "0.0-66.0", "trial": 2, "time_elapsed": 436662, "serialpos": 4, "key_press": -1, "wordID": 322, "type": "PRES_AUD", "trial_index": 93}, "uniqueid": "MTK2563:3UJ1CZ6IZIW3CKRPF6O0NWMFKGKS5A", "dateTime": 1519067901925}, {"current_trial": 94, "trialdata": {"rt": -1000, "trial_type": "single-audio", "word": "queen", "stimulus": "/static/audio/wordpool/QUEEN.wav", "conditions": [24, 1600, "a", 24000], "internal_node_id": "0.0-67.0", "trial": 2, "time_elapsed": 439136, "serialpos": 5, "key_press": -1, "wordID": 1148, "type": "PRES_AUD", "trial_index": 94}, "uniqueid": "MTK2563:3UJ1CZ6IZIW3CKRPF6O0NWMFKGKS5A", "dateTime": 1519067904399}, {"current_trial": 95, "trialdata": {"rt": -1000, "trial_type": "single-audio", "word": "concert", "stimulus": "/static/audio/wordpool/CONCERT.wav", "conditions": [24, 1600, "a", 24000], "internal_node_id": "0.0-68.0", "trial": 2, "time_elapsed": 441865, "serialpos": 6, "key_press": -1, "wordID": 359, "type": "PRES_AUD", "trial_index": 95}, "uniqueid": "MTK2563:3UJ1CZ6IZIW3CKRPF6O0NWMFKGKS5A", "dateTime": 1519067907128}, {"current_trial": 96, "trialdata": {"rt": -1000, "trial_type": "single-audio", "word": "sketch", "stimulus": "/static/audio/wordpool/SKETCH.wav", "conditions": [24, 1600, "a", 24000], "internal_node_id": "0.0-69.0", "trial": 2, "time_elapsed": 444541, "serialpos": 7, "key_press": -1, "wordID": 1314, "type": "PRES_AUD", "trial_index": 96}, "uniqueid": "MTK2563:3UJ1CZ6IZIW3CKRPF6O0NWMFKGKS5A", "dateTime": 1519067909804}, {"current_trial": 97, "trialdata": {"rt": -1000, "trial_type": "single-audio", "word": "racket", "stimulus": "/static/audio/wordpool/RACKET.wav", "conditions": [24, 1600, "a", 24000], "internal_node_id": "0.0-70.0", "trial": 2, "time_elapsed": 447093, "serialpos": 8, "key_press": -1, "wordID": 1154, "type": "PRES_AUD", "trial_index": 97}, "uniqueid": "MTK2563:3UJ1CZ6IZIW3CKRPF6O0NWMFKGKS5A", "dateTime": 1519067912356}, {"current_trial": 98, "trialdata": {"rt": -1000, "trial_type": "single-audio", "word": "marine", "stimulus": "/static/audio/wordpool/MARINE.wav", "conditions": [24, 1600, "a", 24000], "internal_node_id": "0.0-71.0", "trial": 2, "time_elapsed": 449733, "serialpos": 9, "key_press": -1, "wordID": 868, "type": "PRES_AUD", "trial_index": 98}, "uniqueid": "MTK2563:3UJ1CZ6IZIW3CKRPF6O0NWMFKGKS5A", "dateTime": 1519067914996}, {"current_trial": 99, "trialdata": {"rt": -1000, "trial_type": "single-audio", "word": "fleet", "stimulus": "/static/audio/wordpool/FLEET.wav", "conditions": [24, 1600, "a", 24000], "internal_node_id": "0.0-72.0", "trial": 2, "time_elapsed": 452446, "serialpos": 10, "key_press": -1, "wordID": 577, "type": "PRES_AUD", "trial_index": 99}, "uniqueid": "MTK2563:3UJ1CZ6IZIW3CKRPF6O0NWMFKGKS5A", "dateTime": 1519067917709}, {"current_trial": 100, "trialdata": {"rt": -1000, "trial_type": "single-audio", "word": "seafood", "stimulus": "/static/audio/wordpool/SEAFOOD.wav", "conditions": [24, 1600, "a", 24000], "internal_node_id": "0.0-73.0", "trial": 2, "time_elapsed": 455164, "serialpos": 11, "key_press": -1, "wordID": 1259, "type": "PRES_AUD", "trial_index": 100}, "uniqueid": "MTK2563:3UJ1CZ6IZIW3CKRPF6O0NWMFKGKS5A", "dateTime": 1519067920427}, {"current_trial": 101, "trialdata": {"rt": -1000, "trial_type": "single-audio", "word": "temple", "stimulus": "/static/audio/wordpool/TEMPLE.wav", "conditions": [24, 1600, "a", 24000], "internal_node_id": "0.0-74.0", "trial": 2, "time_elapsed": 457705, "serialpos": 12, "key_press": -1, "wordID": 1447, "type": "PRES_AUD", "trial_index": 101}, "uniqueid": "MTK2563:3UJ1CZ6IZIW3CKRPF6O0NWMFKGKS5A", "dateTime": 1519067922968}, {"current_trial": 102, "trialdata": {"rt": -1000, "trial_type": "single-audio", "word": "bureau", "stimulus": "/static/audio/wordpool/BUREAU.wav", "conditions": [24, 1600, "a", 24000], "internal_node_id": "0.0-75.0", "trial": 2, "time_elapsed": 460111, "serialpos": 13, "key_press": -1, "wordID": 198, "type": "PRES_AUD", "trial_index": 102}, "uniqueid": "MTK2563:3UJ1CZ6IZIW3CKRPF6O0NWMFKGKS5A", "dateTime": 1519067925374}, {"current_trial": 103, "trialdata": {"rt": -1000, "trial_type": "single-audio", "word": "plaid", "stimulus": "/static/audio/wordpool/PLAID.wav", "conditions": [24, 1600, "a", 24000], "internal_node_id": "0.0-76.0", "trial": 2, "time_elapsed": 462679, "serialpos": 14, "key_press": -1, "wordID": 1079, "type": "PRES_AUD", "trial_index": 103}, "uniqueid": "MTK2563:3UJ1CZ6IZIW3CKRPF6O0NWMFKGKS5A", "dateTime": 1519067927942}, {"current_trial": 104, "trialdata": {"rt": -1000, "trial_type": "single-audio", "word": "quail", "stimulus": "/static/audio/wordpool/QUAIL.wav", "conditions": [24, 1600, "a", 24000], "internal_node_id": "0.0-77.0", "trial": 2, "time_elapsed": 465151, "serialpos": 15, "key_press": -1, "wordID": 1146, "type": "PRES_AUD", "trial_index": 104}, "uniqueid": "MTK2563:3UJ1CZ6IZIW3CKRPF6O0NWMFKGKS5A", "dateTime": 1519067930414}, {"current_trial": 105, "trialdata": {"rt": -1000, "trial_type": "single-audio", "word": "dentist", "stimulus": "/static/audio/wordpool/DENTIST.wav", "conditions": [24, 1600, "a", 24000], "internal_node_id": "0.0-78.0", "trial": 2, "time_elapsed": 467652, "serialpos": 16, "key_press": -1, "wordID": 446, "type": "PRES_AUD", "trial_index": 105}, "uniqueid": "MTK2563:3UJ1CZ6IZIW3CKRPF6O0NWMFKGKS5A", "dateTime": 1519067932915}, {"current_trial": 106, "trialdata": {"rt": -1000, "trial_type": "single-audio", "word": "mildew", "stimulus": "/static/audio/wordpool/MILDEW.wav", "conditions": [24, 1600, "a", 24000], "internal_node_id": "0.0-79.0", "trial": 2, "time_elapsed": 470365, "serialpos": 17, "key_press": -1, "wordID": 892, "type": "PRES_AUD", "trial_index": 106}, "uniqueid": "MTK2563:3UJ1CZ6IZIW3CKRPF6O0NWMFKGKS5A", "dateTime": 1519067935628}, {"current_trial": 107, "trialdata": {"rt": -1000, "trial_type": "single-audio", "word": "author", "stimulus": "/static/audio/wordpool/AUTHOR.wav", "conditions": [24, 1600, "a", 24000], "internal_node_id": "0.0-80.0", "trial": 2, "time_elapsed": 472962, "serialpos": 18, "key_press": -1, "wordID": 60, "type": "PRES_AUD", "trial_index": 107}, "uniqueid": "MTK2563:3UJ1CZ6IZIW3CKRPF6O0NWMFKGKS5A", "dateTime": 1519067938225}, {"current_trial": 108, "trialdata": {"rt": -1000, "trial_type": "single-audio", "word": "teacher", "stimulus": "/static/audio/wordpool/TEACHER.wav", "conditions": [24, 1600, "a", 24000], "internal_node_id": "0.0-81.0", "trial": 2, "time_elapsed": 475667, "serialpos": 19, "key_press": -1, "wordID": 1439, "type": "PRES_AUD", "trial_index": 108}, "uniqueid": "MTK2563:3UJ1CZ6IZIW3CKRPF6O0NWMFKGKS5A", "dateTime": 1519067940930}, {"current_trial": 109, "trialdata": {"rt": -1000, "trial_type": "single-audio", "word": "fungus", "stimulus": "/static/audio/wordpool/FUNGUS.wav", "conditions": [24, 1600, "a", 24000], "internal_node_id": "0.0-82.0", "trial": 2, "time_elapsed": 478115, "serialpos": 20, "key_press": -1, "wordID": 613, "type": "PRES_AUD", "trial_index": 109}, "uniqueid": "MTK2563:3UJ1CZ6IZIW3CKRPF6O0NWMFKGKS5A", "dateTime": 1519067943380}, {"current_trial": 110, "trialdata": {"rt": -1000, "trial_type": "single-audio", "word": "orchid", "stimulus": "/static/audio/wordpool/ORCHID.wav", "conditions": [24, 1600, "a", 24000], "internal_node_id": "0.0-83.0", "trial": 2, "time_elapsed": 480570, "serialpos": 21, "key_press": -1, "wordID": 981, "type": "PRES_AUD", "trial_index": 110}, "uniqueid": "MTK2563:3UJ1CZ6IZIW3CKRPF6O0NWMFKGKS5A", "dateTime": 1519067945833}, {"current_trial": 111, "trialdata": {"rt": -1000, "trial_type": "single-audio", "word": "tortoise", "stimulus": "/static/audio/wordpool/TORTOISE.wav", "conditions": [24, 1600, "a", 24000], "internal_node_id": "0.0-84.0", "trial": 2, "time_elapsed": 483023, "serialpos": 22, "key_press": -1, "wordID": 1485, "type": "PRES_AUD", "trial_index": 111}, "uniqueid": "MTK2563:3UJ1CZ6IZIW3CKRPF6O0NWMFKGKS5A", "dateTime": 1519067948286}, {"current_trial": 112, "trialdata": {"rt": -1000, "trial_type": "single-audio", "word": "lizard", "stimulus": "/static/audio/wordpool/LIZARD.wav", "conditions": [24, 1600, "a", 24000], "internal_node_id": "0.0-85.0", "trial": 2, "time_elapsed": 485726, "serialpos": 23, "key_press": -1, "wordID": 833, "type": "PRES_AUD", "trial_index": 112}, "uniqueid": "MTK2563:3UJ1CZ6IZIW3CKRPF6O0NWMFKGKS5A", "dateTime": 1519067950989}, {"current_trial": 113, "trialdata": {"rt": -1, "trial_type": "single-stim", "stimulus": "", "internal_node_id": "0.0-86.0-0.0", "time_elapsed": 487022, "key_press": -1, "type": "PRE_RECALL_DELAY", "trial_index": 113}, "uniqueid": "MTK2563:3UJ1CZ6IZIW3CKRPF6O0NWMFKGKS5A", "dateTime": 1519067952286}, {"current_trial": 114, "trialdata": {"rt": -1000, "trial_type": "single-audio", "stimulus": "/static/audio/400Hz.wav", "internal_node_id": "0.0-87.0", "time_elapsed": 487524, "key_press": -1, "type": "PRE_RECALL_ALERT", "trial_index": 114}, "uniqueid": "MTK2563:3UJ1CZ6IZIW3CKRPF6O0NWMFKGKS5A", "dateTime": 1519067952788}, {"current_trial": 115, "trialdata": {"rt": [4143, 5617, 8289, 10171, 12687, 14706, 20557, 24205, 40140, 46343, 52116, 54249], "recwords": ["marine", "fleet", "seafood", "crab", "tortoise", "lizard", "fungus", "lover", "lizard", "flag", "teacher", "author"], "key_times": [1895, 1985, 2192, 2476, 2710, 2889, 4143, 4472, 4617, 4911, 5069, 5274, 5617, 6063, 6233, 6454, 6687, 7004, 7134, 7441, 8289, 8800, 9042, 9259, 9852, 10171, 10571, 10854, 11003, 11363, 11857, 12037, 12214, 12404, 12687, 12985, 13246, 13573, 13986, 14250, 14452, 14706, 17857, 18170, 18389, 18843, 18966, 19555, 20557, 23245, 23443, 23626, 23782, 23898, 24205, 38228, 38424, 38917, 39189, 39603, 39816, 40140, 44642, 45068, 45196, 45344, 45486, 45622, 45844, 46343, 50838, 51084, 51297, 51492, 51686, 51822, 51888, 52116, 52893, 53129, 53336, 53460, 53709, 53905, 54249], "trial_type": "free-recall", "conditions": [24, 1600, "a", 24000], "internal_node_id": "0.0-88.0-0.0", "key_presses": [77, 65, 82, 73, 78, 69, 13, 70, 76, 69, 69, 84, 13, 83, 69, 65, 70, 79, 79, 68, 13, 67, 82, 65, 66, 13, 84, 79, 82, 84, 79, 73, 83, 69, 13, 76, 73, 90, 65, 82, 68, 13, 70, 85, 78, 71, 85, 83, 13, 76, 79, 86, 69, 82, 13, 76, 73, 90, 65, 82, 68, 13, 71, 8, 8, 70, 76, 65, 71, 13, 84, 69, 65, 67, 72, 69, 82, 13, 65, 85, 84, 72, 79, 82, 13], "trial": 2, "time_elapsed": 547527, "type": "FREE_RECALL", "trial_index": 115}, "uniqueid": "MTK2563:3UJ1CZ6IZIW3CKRPF6O0NWMFKGKS5A", "dateTime": 1519068012795}, {"current_trial": 116, "trialdata": {"rt": 1105, "trial_type": "text", "internal_node_id": "0.0-89.0", "time_elapsed": 550637, "key_press": 70, "type": "INSTRUCTIONS", "trial_index": 116}, "uniqueid": "MTK2563:3UJ1CZ6IZIW3CKRPF6O0NWMFKGKS5A", "dateTime": 1519068015900}, {"current_trial": 117, "trialdata": {"rt": [2061, 3433, 6042, 7850, 9925, 11846, 13962, 17308, 18962, 21731, 23775], "trial_type": "math-distractor", "key_times": [1713, 2061, 3199, 3433, 5690, 5819, 6042, 7514, 7658, 7850, 9147, 9600, 9925, 11214, 11510, 11846, 13515, 13721, 13962, 16844, 17020, 17308, 18684, 18962, 21254, 21478, 21731, 23275, 23450, 23775], "responses": ["9", "6", "11", "22", "16", "18", "12", "12", "9", "16", "15"], "num2": [2, 2, 6, 8, 8, 8, 4, 5, 4, 1, 6, 3], "num3": [6, 2, 3, 8, 1, 6, 7, 6, 4, 7, 4, 4], "conditions": [12, 1600, "a", 24000], "internal_node_id": "0.0-90.0", "key_presses": [105, 13, 102, 13, 97, 97, 13, 98, 98, 13, 97, 102, 13, 97, 104, 13, 97, 98, 13, 97, 98, 13, 105, 13, 97, 102, 13, 97, 101, 13], "trial": 3, "time_elapsed": 576640, "type": "DISTRACTOR", "trial_index": 117, "num1": [1, 2, 2, 6, 7, 4, 1, 1, 1, 8, 3, 9]}, "uniqueid": "MTK2563:3UJ1CZ6IZIW3CKRPF6O0NWMFKGKS5A", "dateTime": 1519068041904}, {"current_trial": 118, "trialdata": {"rt": -1, "trial_type": "single-stim", "stimulus": "<p id=\"stim\">10</p>", "internal_node_id": "0.0-91.0-0.0", "time_elapsed": 579643, "key_press": -1, "trial_index": 118}, "uniqueid": "MTK2563:3UJ1CZ6IZIW3CKRPF6O0NWMFKGKS5A", "dateTime": 1519068044906}, {"current_trial": 119, "trialdata": {"rt": -1, "trial_type": "single-stim", "stimulus": "<p id=\"stim\">9</p>", "internal_node_id": "0.0-91.0-1.0", "time_elapsed": 580644, "key_press": -1, "trial_index": 119}, "uniqueid": "MTK2563:3UJ1CZ6IZIW3CKRPF6O0NWMFKGKS5A", "dateTime": 1519068045907}, {"current_trial": 120, "trialdata": {"rt": -1, "trial_type": "single-stim", "stimulus": "<p id=\"stim\">8</p>", "internal_node_id": "0.0-91.0-2.0", "time_elapsed": 581645, "key_press": -1, "trial_index": 120}, "uniqueid": "MTK2563:3UJ1CZ6IZIW3CKRPF6O0NWMFKGKS5A", "dateTime": 1519068046909}, {"current_trial": 121, "trialdata": {"rt": -1, "trial_type": "single-stim", "stimulus": "<p id=\"stim\">7</p>", "internal_node_id": "0.0-91.0-3.0", "time_elapsed": 582647, "key_press": -1, "trial_index": 121}, "uniqueid": "MTK2563:3UJ1CZ6IZIW3CKRPF6O0NWMFKGKS5A", "dateTime": 1519068047911}, {"current_trial": 122, "trialdata": {"rt": -1, "trial_type": "single-stim", "stimulus": "<p id=\"stim\">6</p>", "internal_node_id": "0.0-91.0-4.0", "time_elapsed": 583649, "key_press": -1, "trial_index": 122}, "uniqueid": "MTK2563:3UJ1CZ6IZIW3CKRPF6O0NWMFKGKS5A", "dateTime": 1519068048912}, {"current_trial": 123, "trialdata": {"rt": -1, "trial_type": "single-stim", "stimulus": "<p id=\"stim\">5</p>", "internal_node_id": "0.0-91.0-5.0", "time_elapsed": 584651, "key_press": -1, "trial_index": 123}, "uniqueid": "MTK2563:3UJ1CZ6IZIW3CKRPF6O0NWMFKGKS5A", "dateTime": 1519068049914}, {"current_trial": 124, "trialdata": {"rt": -1, "trial_type": "single-stim", "stimulus": "<p id=\"stim\">4</p>", "internal_node_id": "0.0-91.0-6.0", "time_elapsed": 585652, "key_press": -1, "trial_index": 124}, "uniqueid": "MTK2563:3UJ1CZ6IZIW3CKRPF6O0NWMFKGKS5A", "dateTime": 1519068050915}, {"current_trial": 125, "trialdata": {"rt": -1, "trial_type": "single-stim", "stimulus": "<p id=\"stim\">3</p>", "internal_node_id": "0.0-91.0-7.0", "time_elapsed": 586653, "key_press": -1, "trial_index": 125}, "uniqueid": "MTK2563:3UJ1CZ6IZIW3CKRPF6O0NWMFKGKS5A", "dateTime": 1519068051919}, {"current_trial": 126, "trialdata": {"rt": -1, "trial_type": "single-stim", "stimulus": "<p id=\"stim\">2</p>", "internal_node_id": "0.0-91.0-8.0", "time_elapsed": 587657, "key_press": -1, "trial_index": 126}, "uniqueid": "MTK2563:3UJ1CZ6IZIW3CKRPF6O0NWMFKGKS5A", "dateTime": 1519068052920}, {"current_trial": 127, "trialdata": {"rt": -1, "trial_type": "single-stim", "stimulus": "<p id=\"stim\">1</p>", "internal_node_id": "0.0-91.0-9.0", "time_elapsed": 588658, "key_press": -1, "trial_index": 127}, "uniqueid": "MTK2563:3UJ1CZ6IZIW3CKRPF6O0NWMFKGKS5A", "dateTime": 1519068053921}, {"current_trial": 128, "trialdata": {"rt": -1, "trial_type": "single-stim", "stimulus": "<p id=\"stim\">+</p>", "internal_node_id": "0.0-92.0-0.0", "time_elapsed": 590160, "key_press": -1, "type": "FIXATION", "trial_index": 128}, "uniqueid": "MTK2563:3UJ1CZ6IZIW3CKRPF6O0NWMFKGKS5A", "dateTime": 1519068055423}, {"current_trial": 129, "trialdata": {"rt": -1000, "trial_type": "single-audio", "word": "valley", "stimulus": "/static/audio/wordpool/VALLEY.wav", "conditions": [12, 1600, "a", 24000], "internal_node_id": "0.0-93.0", "trial": 3, "time_elapsed": 592800, "serialpos": 0, "key_press": -1, "wordID": 1544, "type": "PRES_AUD", "trial_index": 129}, "uniqueid": "MTK2563:3UJ1CZ6IZIW3CKRPF6O0NWMFKGKS5A", "dateTime": 1519068058063}, {"current_trial": 130, "trialdata": {"rt": -1000, "trial_type": "single-audio", "word": "tunnel", "stimulus": "/static/audio/wordpool/TUNNEL.wav", "conditions": [12, 1600, "a", 24000], "internal_node_id": "0.0-94.0", "trial": 3, "time_elapsed": 595252, "serialpos": 1, "key_press": -1, "wordID": 1518, "type": "PRES_AUD", "trial_index": 130}, "uniqueid": "MTK2563:3UJ1CZ6IZIW3CKRPF6O0NWMFKGKS5A", "dateTime": 1519068060515}, {"current_trial": 131, "trialdata": {"rt": -1000, "trial_type": "single-audio", "word": "lava", "stimulus": "/static/audio/wordpool/LAVA.wav", "conditions": [12, 1600, "a", 24000], "internal_node_id": "0.0-95.0", "trial": 3, "time_elapsed": 597941, "serialpos": 2, "key_press": -1, "wordID": 803, "type": "PRES_AUD", "trial_index": 131}, "uniqueid": "MTK2563:3UJ1CZ6IZIW3CKRPF6O0NWMFKGKS5A", "dateTime": 1519068063204}, {"current_trial": 132, "trialdata": {"rt": -1000, "trial_type": "single-audio", "word": "milk", "stimulus": "/static/audio/wordpool/MILK.wav", "conditions": [12, 1600, "a", 24000], "internal_node_id": "0.0-96.0", "trial": 3, "time_elapsed": 600704, "serialpos": 3, "key_press": -1, "wordID": 894, "type": "PRES_AUD", "trial_index": 132}, "uniqueid": "MTK2563:3UJ1CZ6IZIW3CKRPF6O0NWMFKGKS5A", "dateTime": 1519068065967}, {"current_trial": 133, "trialdata": {"rt": -1000, "trial_type": "single-audio", "word": "ghetto", "stimulus": "/static/audio/wordpool/GHETTO.wav", "conditions": [12, 1600, "a", 24000], "internal_node_id": "0.0-97.0", "trial": 3, "time_elapsed": 603174, "serialpos": 4, "key_press": -1, "wordID": 632, "type": "PRES_AUD", "trial_index": 133}, "uniqueid": "MTK2563:3UJ1CZ6IZIW3CKRPF6O0NWMFKGKS5A", "dateTime": 1519068068437}, {"current_trial": 134, "trialdata": {"rt": -1000, "trial_type": "single-audio", "word": "body", "stimulus": "/static/audio/wordpool/BODY.wav", "conditions": [12, 1600, "a", 24000], "internal_node_id": "0.0-98.0", "trial": 3, "time_elapsed": 605744, "serialpos": 5, "key_press": -1, "wordID": 144, "type": "PRES_AUD", "trial_index": 134}, "uniqueid": "MTK2563:3UJ1CZ6IZIW3CKRPF6O0NWMFKGKS5A", "dateTime": 1519068071008}, {"current_trial": 135, "trialdata": {"rt": -1000, "trial_type": "single-audio", "word": "record", "stimulus": "/static/audio/wordpool/RECORD.wav", "conditions": [12, 1600, "a", 24000], "internal_node_id": "0.0-99.0", "trial": 3, "time_elapsed": 608435, "serialpos": 6, "key_press": -1, "wordID": 1175, "type": "PRES_AUD", "trial_index": 135}, "uniqueid": "MTK2563:3UJ1CZ6IZIW3CKRPF6O0NWMFKGKS5A", "dateTime": 1519068073698}, {"current_trial": 136, "trialdata": {"rt": -1000, "trial_type": "single-audio", "word": "turkey", "stimulus": "/static/audio/wordpool/TURKEY.wav", "conditions": [12, 1600, "a", 24000], "internal_node_id": "0.0-100.0", "trial": 3, "time_elapsed": 610893, "serialpos": 7, "key_press": -1, "wordID": 1519, "type": "PRES_AUD", "trial_index": 136}, "uniqueid": "MTK2563:3UJ1CZ6IZIW3CKRPF6O0NWMFKGKS5A", "dateTime": 1519068076158}, {"current_trial": 137, "trialdata": {"rt": -1000, "trial_type": "single-audio", "word": "pork", "stimulus": "/static/audio/wordpool/PORK.wav", "conditions": [12, 1600, "a", 24000], "internal_node_id": "0.0-101.0", "trial": 3, "time_elapsed": 613321, "serialpos": 8, "key_press": -1, "wordID": 1107, "type": "PRES_AUD", "trial_index": 137}, "uniqueid": "MTK2563:3UJ1CZ6IZIW3CKRPF6O0NWMFKGKS5A", "dateTime": 1519068078584}, {"current_trial": 138, "trialdata": {"rt": -1000, "trial_type": "single-audio", "word": "sausage", "stimulus": "/static/audio/wordpool/SAUSAGE.wav", "conditions": [12, 1600, "a", 24000], "internal_node_id": "0.0-102.0", "trial": 3, "time_elapsed": 615959, "serialpos": 9, "key_press": -1, "wordID": 1237, "type": "PRES_AUD", "trial_index": 138}, "uniqueid": "MTK2563:3UJ1CZ6IZIW3CKRPF6O0NWMFKGKS5A", "dateTime": 1519068081222}, {"current_trial": 139, "trialdata": {"rt": -1000, "trial_type": "single-audio", "word": "crater", "stimulus": "/static/audio/wordpool/CRATER.wav", "conditions": [12, 1600, "a", 24000], "internal_node_id": "0.0-103.0", "trial": 3, "time_elapsed": 618443, "serialpos": 10, "key_press": -1, "wordID": 399, "type": "PRES_AUD", "trial_index": 139}, "uniqueid": "MTK2563:3UJ1CZ6IZIW3CKRPF6O0NWMFKGKS5A", "dateTime": 1519068083706}, {"current_trial": 140, "trialdata": {"rt": -1000, "trial_type": "single-audio", "word": "cattle", "stimulus": "/static/audio/wordpool/CATTLE.wav", "conditions": [12, 1600, "a", 24000], "internal_node_id": "0.0-104.0", "trial": 3, "time_elapsed": 621169, "serialpos": 11, "key_press": -1, "wordID": 260, "type": "PRES_AUD", "trial_index": 140}, "uniqueid": "MTK2563:3UJ1CZ6IZIW3CKRPF6O0NWMFKGKS5A", "dateTime": 1519068086432}, {"current_trial": 141, "trialdata": {"rt": -1, "trial_type": "single-stim", "stimulus": "", "internal_node_id": "0.0-105.0-0.0", "time_elapsed": 622471, "key_press": -1, "type": "PRE_RECALL_DELAY", "trial_index": 141}, "uniqueid": "MTK2563:3UJ1CZ6IZIW3CKRPF6O0NWMFKGKS5A", "dateTime": 1519068087735}, {"current_trial": 142, "trialdata": {"rt": -1000, "trial_type": "single-audio", "stimulus": "/static/audio/400Hz.wav", "internal_node_id": "0.0-106.0", "time_elapsed": 622973, "key_press": -1, "type": "PRE_RECALL_ALERT", "trial_index": 142}, "uniqueid": "MTK2563:3UJ1CZ6IZIW3CKRPF6O0NWMFKGKS5A", "dateTime": 1519068088236}, {"current_trial": 143, "trialdata": {"rt": [3761, 7717, 9985, 11462, 12902, 14916], "recwords": ["cattle", "tricky", "sausage", "pork", "valley", "tunnel"], "key_times": [2292, 2491, 2819, 2983, 3300, 3472, 3761, 4121, 4221, 4875, 5008, 5921, 6028, 6256, 6474, 6582, 7081, 7717, 8087, 8286, 8509, 8886, 9075, 9272, 9423, 9985, 10413, 10651, 11101, 11273, 11462, 11789, 11969, 12082, 12224, 12367, 12636, 12902, 13223, 13414, 13645, 13785, 13929, 14086, 14916], "trial_type": "free-recall", "conditions": [12, 1600, "a", 24000], "internal_node_id": "0.0-107.0-0.0", "key_presses": [67, 65, 84, 84, 76, 69, 13, 84, 82, 8, 8, 84, 82, 73, 67, 75, 89, 13, 83, 65, 85, 83, 65, 71, 69, 13, 80, 79, 82, 75, 13, 86, 65, 76, 76, 69, 89, 13, 84, 85, 78, 78, 69, 76, 13], "trial": 3, "time_elapsed": 682981, "type": "FREE_RECALL", "trial_index": 143}, "uniqueid": "MTK2563:3UJ1CZ6IZIW3CKRPF6O0NWMFKGKS5A", "dateTime": 1519068148249}, {"current_trial": 144, "trialdata": {"rt": 454, "trial_type": "text", "internal_node_id": "0.0-108.0", "time_elapsed": 685440, "key_press": 70, "type": "INSTRUCTIONS", "trial_index": 144}, "uniqueid": "MTK2563:3UJ1CZ6IZIW3CKRPF6O0NWMFKGKS5A", "dateTime": 1519068150703}, {"current_trial": 145, "trialdata": {"rt": [3799, 7681, 10523], "trial_type": "math-distractor", "key_times": [3019, 3178, 3799, 5518, 6797, 7288, 7409, 7681, 10171, 10317, 10523], "responses": ["26", "15", "25"], "num2": [9, 4, 8, 9], "num3": [9, 5, 8, 9], "conditions": [24, 1600, "a", 12000], "internal_node_id": "0.0-109.0", "key_presses": [98, 102, 13, 98, 8, 97, 101, 13, 98, 101, 13], "trial": 4, "time_elapsed": 699444, "type": "DISTRACTOR", "trial_index": 145, "num1": [8, 6, 9, 1]}, "uniqueid": "MTK2563:3UJ1CZ6IZIW3CKRPF6O0NWMFKGKS5A", "dateTime": 1519068164707}, {"current_trial": 146, "trialdata": {"rt": -1, "trial_type": "single-stim", "stimulus": "<p id=\"stim\">10</p>", "internal_node_id": "0.0-110.0-0.0", "time_elapsed": 702446, "key_press": -1, "trial_index": 146}, "uniqueid": "MTK2563:3UJ1CZ6IZIW3CKRPF6O0NWMFKGKS5A", "dateTime": 1519068167709}, {"current_trial": 147, "trialdata": {"rt": -1, "trial_type": "single-stim", "stimulus": "<p id=\"stim\">9</p>", "internal_node_id": "0.0-110.0-1.0", "time_elapsed": 703448, "key_press": -1, "trial_index": 147}, "uniqueid": "MTK2563:3UJ1CZ6IZIW3CKRPF6O0NWMFKGKS5A", "dateTime": 1519068168711}, {"current_trial": 148, "trialdata": {"rt": -1, "trial_type": "single-stim", "stimulus": "<p id=\"stim\">8</p>", "internal_node_id": "0.0-110.0-2.0", "time_elapsed": 704449, "key_press": -1, "trial_index": 148}, "uniqueid": "MTK2563:3UJ1CZ6IZIW3CKRPF6O0NWMFKGKS5A", "dateTime": 1519068169712}, {"current_trial": 149, "trialdata": {"rt": -1, "trial_type": "single-stim", "stimulus": "<p id=\"stim\">7</p>", "internal_node_id": "0.0-110.0-3.0", "time_elapsed": 705452, "key_press": -1, "trial_index": 149}, "uniqueid": "MTK2563:3UJ1CZ6IZIW3CKRPF6O0NWMFKGKS5A", "dateTime": 1519068170715}, {"current_trial": 150, "trialdata": {"rt": -1, "trial_type": "single-stim", "stimulus": "<p id=\"stim\">6</p>", "internal_node_id": "0.0-110.0-4.0", "time_elapsed": 706453, "key_press": -1, "trial_index": 150}, "uniqueid": "MTK2563:3UJ1CZ6IZIW3CKRPF6O0NWMFKGKS5A", "dateTime": 1519068171716}, {"current_trial": 151, "trialdata": {"rt": -1, "trial_type": "single-stim", "stimulus": "<p id=\"stim\">5</p>", "internal_node_id": "0.0-110.0-5.0", "time_elapsed": 707455, "key_press": -1, "trial_index": 151}, "uniqueid": "MTK2563:3UJ1CZ6IZIW3CKRPF6O0NWMFKGKS5A", "dateTime": 1519068172718}, {"current_trial": 152, "trialdata": {"rt": -1, "trial_type": "single-stim", "stimulus": "<p id=\"stim\">4</p>", "internal_node_id": "0.0-110.0-6.0", "time_elapsed": 708456, "key_press": -1, "trial_index": 152}, "uniqueid": "MTK2563:3UJ1CZ6IZIW3CKRPF6O0NWMFKGKS5A", "dateTime": 1519068173720}, {"current_trial": 153, "trialdata": {"rt": -1, "trial_type": "single-stim", "stimulus": "<p id=\"stim\">3</p>", "internal_node_id": "0.0-110.0-7.0", "time_elapsed": 709460, "key_press": -1, "trial_index": 153}, "uniqueid": "MTK2563:3UJ1CZ6IZIW3CKRPF6O0NWMFKGKS5A", "dateTime": 1519068174723}, {"current_trial": 154, "trialdata": {"rt": -1, "trial_type": "single-stim", "stimulus": "<p id=\"stim\">2</p>", "internal_node_id": "0.0-110.0-8.0", "time_elapsed": 710462, "key_press": -1, "trial_index": 154}, "uniqueid": "MTK2563:3UJ1CZ6IZIW3CKRPF6O0NWMFKGKS5A", "dateTime": 1519068175725}, {"current_trial": 155, "trialdata": {"rt": -1, "trial_type": "single-stim", "stimulus": "<p id=\"stim\">1</p>", "internal_node_id": "0.0-110.0-9.0", "time_elapsed": 711463, "key_press": -1, "trial_index": 155}, "uniqueid": "MTK2563:3UJ1CZ6IZIW3CKRPF6O0NWMFKGKS5A", "dateTime": 1519068176726}, {"current_trial": 156, "trialdata": {"rt": -1, "trial_type": "single-stim", "stimulus": "<p id=\"stim\">+</p>", "internal_node_id": "0.0-111.0-0.0", "time_elapsed": 712966, "key_press": -1, "type": "FIXATION", "trial_index": 156}, "uniqueid": "MTK2563:3UJ1CZ6IZIW3CKRPF6O0NWMFKGKS5A", "dateTime": 1519068178229}, {"current_trial": 157, "trialdata": {"rt": -1000, "trial_type": "single-audio", "word": "dolphin", "stimulus": "/static/audio/wordpool/DOLPHIN.wav", "conditions": [24, 1600, "a", 12000], "internal_node_id": "0.0-112.0", "trial": 4, "time_elapsed": 715372, "serialpos": 0, "key_press": -1, "wordID": 482, "type": "PRES_AUD", "trial_index": 157}, "uniqueid": "MTK2563:3UJ1CZ6IZIW3CKRPF6O0NWMFKGKS5A", "dateTime": 1519068180635}, {"current_trial": 158, "trialdata": {"rt": -1000, "trial_type": "single-audio", "word": "fiddle", "stimulus": "/static/audio/wordpool/FIDDLE.wav", "conditions": [24, 1600, "a", 12000], "internal_node_id": "0.0-113.0", "trial": 4, "time_elapsed": 718124, "serialpos": 1, "key_press": -1, "wordID": 560, "type": "PRES_AUD", "trial_index": 158}, "uniqueid": "MTK2563:3UJ1CZ6IZIW3CKRPF6O0NWMFKGKS5A", "dateTime": 1519068183388}, {"current_trial": 159, "trialdata": {"rt": -1000, "trial_type": "single-audio", "word": "beaker", "stimulus": "/static/audio/wordpool/BEAKER.wav", "conditions": [24, 1600, "a", 12000], "internal_node_id": "0.0-114.0", "trial": 4, "time_elapsed": 720830, "serialpos": 2, "key_press": -1, "wordID": 103, "type": "PRES_AUD", "trial_index": 159}, "uniqueid": "MTK2563:3UJ1CZ6IZIW3CKRPF6O0NWMFKGKS5A", "dateTime": 1519068186093}, {"current_trial": 160, "trialdata": {"rt": -1000, "trial_type": "single-audio", "word": "turtle", "stimulus": "/static/audio/wordpool/TURTLE.wav", "conditions": [24, 1600, "a", 12000], "internal_node_id": "0.0-115.0", "trial": 4, "time_elapsed": 723389, "serialpos": 3, "key_press": -1, "wordID": 1521, "type": "PRES_AUD", "trial_index": 160}, "uniqueid": "MTK2563:3UJ1CZ6IZIW3CKRPF6O0NWMFKGKS5A", "dateTime": 1519068188652}, {"current_trial": 161, "trialdata": {"rt": -1000, "trial_type": "single-audio", "word": "hound", "stimulus": "/static/audio/wordpool/HOUND.wav", "conditions": [24, 1600, "a", 12000], "internal_node_id": "0.0-116.0", "trial": 4, "time_elapsed": 726128, "serialpos": 4, "key_press": -1, "wordID": 723, "type": "PRES_AUD", "trial_index": 161}, "uniqueid": "MTK2563:3UJ1CZ6IZIW3CKRPF6O0NWMFKGKS5A", "dateTime": 1519068191391}, {"current_trial": 162, "trialdata": {"rt": -1000, "trial_type": "single-audio", "word": "supper", "stimulus": "/static/audio/wordpool/SUPPER.wav", "conditions": [24, 1600, "a", 12000], "internal_node_id": "0.0-117.0", "trial": 4, "time_elapsed": 728784, "serialpos": 5, "key_press": -1, "wordID": 1410, "type": "PRES_AUD", "trial_index": 162}, "uniqueid": "MTK2563:3UJ1CZ6IZIW3CKRPF6O0NWMFKGKS5A", "dateTime": 1519068194047}, {"current_trial": 163, "trialdata": {"rt": -1000, "trial_type": "single-audio", "word": "hand", "stimulus": "/static/audio/wordpool/HAND.wav", "conditions": [24, 1600, "a", 12000], "internal_node_id": "0.0-118.0", "trial": 4, "time_elapsed": 731475, "serialpos": 6, "key_press": -1, "wordID": 682, "type": "PRES_AUD", "trial_index": 163}, "uniqueid": "MTK2563:3UJ1CZ6IZIW3CKRPF6O0NWMFKGKS5A", "dateTime": 1519068196739}, {"current_trial": 164, "trialdata": {"rt": -1000, "trial_type": "single-audio", "word": "robber", "stimulus": "/static/audio/wordpool/ROBBER.wav", "conditions": [24, 1600, "a", 12000], "internal_node_id": "0.0-119.0", "trial": 4, "time_elapsed": 733962, "serialpos": 7, "key_press": -1, "wordID": 1196, "type": "PRES_AUD", "trial_index": 164}, "uniqueid": "MTK2563:3UJ1CZ6IZIW3CKRPF6O0NWMFKGKS5A", "dateTime": 1519068199226}, {"current_trial": 165, "trialdata": {"rt": -1000, "trial_type": "single-audio", "word": "thief", "stimulus": "/static/audio/wordpool/THIEF.wav", "conditions": [24, 1600, "a", 12000], "internal_node_id": "0.0-120.0", "trial": 4, "time_elapsed": 736493, "serialpos": 8, "key_press": -1, "wordID": 1455, "type": "PRES_AUD", "trial_index": 165}, "uniqueid": "MTK2563:3UJ1CZ6IZIW3CKRPF6O0NWMFKGKS5A", "dateTime": 1519068201756}, {"current_trial": 166, "trialdata": {"rt": -1000, "trial_type": "single-audio", "word": "chapel", "stimulus": "/static/audio/wordpool/CHAPEL.wav", "conditions": [24, 1600, "a", 12000], "internal_node_id": "0.0-121.0", "trial": 4, "time_elapsed": 739168, "serialpos": 9, "key_press": -1, "wordID": 279, "type": "PRES_AUD", "trial_index": 166}, "uniqueid": "MTK2563:3UJ1CZ6IZIW3CKRPF6O0NWMFKGKS5A", "dateTime": 1519068204431}, {"current_trial": 167, "trialdata": {"rt": -1000, "trial_type": "single-audio", "word": "doughnut", "stimulus": "/static/audio/wordpool/DOUGHNUT.wav", "conditions": [24, 1600, "a", 12000], "internal_node_id": "0.0-122.0", "trial": 4, "time_elapsed": 741754, "serialpos": 10, "key_press": -1, "wordID": 489, "type": "PRES_AUD", "trial_index": 167}, "uniqueid": "MTK2563:3UJ1CZ6IZIW3CKRPF6O0NWMFKGKS5A", "dateTime": 1519068207017}, {"current_trial": 168, "trialdata": {"rt": -1000, "trial_type": "single-audio", "word": "sponge", "stimulus": "/static/audio/wordpool/SPONGE.wav", "conditions": [24, 1600, "a", 12000], "internal_node_id": "0.0-123.0", "trial": 4, "time_elapsed": 744179, "serialpos": 11, "key_press": -1, "wordID": 1354, "type": "PRES_AUD", "trial_index": 168}, "uniqueid": "MTK2563:3UJ1CZ6IZIW3CKRPF6O0NWMFKGKS5A", "dateTime": 1519068209442}, {"current_trial": 169, "trialdata": {"rt": -1000, "trial_type": "single-audio", "word": "gallon", "stimulus": "/static/audio/wordpool/GALLON.wav", "conditions": [24, 1600, "a", 12000], "internal_node_id": "0.0-124.0", "trial": 4, "time_elapsed": 746603, "serialpos": 12, "key_press": -1, "wordID": 617, "type": "PRES_AUD", "trial_index": 169}, "uniqueid": "MTK2563:3UJ1CZ6IZIW3CKRPF6O0NWMFKGKS5A", "dateTime": 1519068211866}, {"current_trial": 170, "trialdata": {"rt": -1000, "trial_type": "single-audio", "word": "brook", "stimulus": "/static/audio/wordpool/BROOK.wav", "conditions": [24, 1600, "a", 12000], "internal_node_id": "0.0-125.0", "trial": 4, "time_elapsed": 749132, "serialpos": 13, "key_press": -1, "wordID": 176, "type": "PRES_AUD", "trial_index": 170}, "uniqueid": "MTK2563:3UJ1CZ6IZIW3CKRPF6O0NWMFKGKS5A", "dateTime": 1519068214396}, {"current_trial": 171, "trialdata": {"rt": -1000, "trial_type": "single-audio", "word": "plaster", "stimulus": "/static/audio/wordpool/PLASTER.wav", "conditions": [24, 1600, "a", 12000], "internal_node_id": "0.0-126.0", "trial": 4, "time_elapsed": 751779, "serialpos": 14, "key_press": -1, "wordID": 1084, "type": "PRES_AUD", "trial_index": 171}, "uniqueid": "MTK2563:3UJ1CZ6IZIW3CKRPF6O0NWMFKGKS5A", "dateTime": 1519068217042}, {"current_trial": 172, "trialdata": {"rt": -1000, "trial_type": "single-audio", "word": "perfume", "stimulus": "/static/audio/wordpool/PERFUME.wav", "conditions": [24, 1600, "a", 12000], "internal_node_id": "0.0-127.0", "trial": 4, "time_elapsed": 754327, "serialpos": 15, "key_press": -1, "wordID": 1048, "type": "PRES_AUD", "trial_index": 172}, "uniqueid": "MTK2563:3UJ1CZ6IZIW3CKRPF6O0NWMFKGKS5A", "dateTime": 1519068219590}, {"current_trial": 173, "trialdata": {"rt": -1000, "trial_type": "single-audio", "word": "custard", "stimulus": "/static/audio/wordpool/CUSTARD.wav", "conditions": [24, 1600, "a", 12000], "internal_node_id": "0.0-128.0", "trial": 4, "time_elapsed": 756776, "serialpos": 16, "key_press": -1, "wordID": 428, "type": "PRES_AUD", "trial_index": 173}, "uniqueid": "MTK2563:3UJ1CZ6IZIW3CKRPF6O0NWMFKGKS5A", "dateTime": 1519068222039}, {"current_trial": 174, "trialdata": {"rt": -1000, "trial_type": "single-audio", "word": "baby", "stimulus": "/static/audio/wordpool/BABY.wav", "conditions": [24, 1600, "a", 12000], "internal_node_id": "0.0-129.0", "trial": 4, "time_elapsed": 759554, "serialpos": 17, "key_press": -1, "wordID": 63, "type": "PRES_AUD", "trial_index": 174}, "uniqueid": "MTK2563:3UJ1CZ6IZIW3CKRPF6O0NWMFKGKS5A", "dateTime": 1519068224817}, {"current_trial": 175, "trialdata": {"rt": -1000, "trial_type": "single-audio", "word": "crib", "stimulus": "/static/audio/wordpool/CRIB.wav", "conditions": [24, 1600, "a", 12000], "internal_node_id": "0.0-130.0", "trial": 4, "time_elapsed": 762070, "serialpos": 18, "key_press": -1, "wordID": 406, "type": "PRES_AUD", "trial_index": 175}, "uniqueid": "MTK2563:3UJ1CZ6IZIW3CKRPF6O0NWMFKGKS5A", "dateTime": 1519068227334}, {"current_trial": 176, "trialdata": {"rt": -1000, "trial_type": "single-audio", "word": "lettuce", "stimulus": "/static/audio/wordpool/LETTUCE.wav", "conditions": [24, 1600, "a", 12000], "internal_node_id": "0.0-131.0", "trial": 4, "time_elapsed": 764750, "serialpos": 19, "key_press": -1, "wordID": 813, "type": "PRES_AUD", "trial_index": 176}, "uniqueid": "MTK2563:3UJ1CZ6IZIW3CKRPF6O0NWMFKGKS5A", "dateTime": 1519068230013}, {"current_trial": 177, "trialdata": {"rt": -1000, "trial_type": "single-audio", "word": "omelet", "stimulus": "/static/audio/wordpool/OMELET.wav", "conditions": [24, 1600, "a", 12000], "internal_node_id": "0.0-132.0", "trial": 4, "time_elapsed": 767301, "serialpos": 20, "key_press": -1, "wordID": 975, "type": "PRES_AUD", "trial_index": 177}, "uniqueid": "MTK2563:3UJ1CZ6IZIW3CKRPF6O0NWMFKGKS5A", "dateTime": 1519068232564}, {"current_trial": 178, "trialdata": {"rt": -1000, "trial_type": "single-audio", "word": "coin", "stimulus": "/static/audio/wordpool/COIN.wav", "conditions": [24, 1600, "a", 12000], "internal_node_id": "0.0-133.0", "trial": 4, "time_elapsed": 770022, "serialpos": 21, "key_press": -1, "wordID": 342, "type": "PRES_AUD", "trial_index": 178}, "uniqueid": "MTK2563:3UJ1CZ6IZIW3CKRPF6O0NWMFKGKS5A", "dateTime": 1519068235285}, {"current_trial": 179, "trialdata": {"rt": -1000, "trial_type": "single-audio", "word": "slope", "stimulus": "/static/audio/wordpool/SLOPE.wav", "conditions": [24, 1600, "a", 12000], "internal_node_id": "0.0-134.0", "trial": 4, "time_elapsed": 772652, "serialpos": 22, "key_press": -1, "wordID": 1327, "type": "PRES_AUD", "trial_index": 179}, "uniqueid": "MTK2563:3UJ1CZ6IZIW3CKRPF6O0NWMFKGKS5A", "dateTime": 1519068237915}, {"current_trial": 180, "trialdata": {"rt": -1000, "trial_type": "single-audio", "word": "oyster", "stimulus": "/static/audio/wordpool/OYSTER.wav", "conditions": [24, 1600, "a", 12000], "internal_node_id": "0.0-135.0", "trial": 4, "time_elapsed": 775214, "serialpos": 23, "key_press": -1, "wordID": 994, "type": "PRES_AUD", "trial_index": 180}, "uniqueid": "MTK2563:3UJ1CZ6IZIW3CKRPF6O0NWMFKGKS5A", "dateTime": 1519068240477}, {"current_trial": 181, "trialdata": {"rt": -1, "trial_type": "single-stim", "stimulus": "", "internal_node_id": "0.0-136.0-0.0", "time_elapsed": 776567, "key_press": -1, "type": "PRE_RECALL_DELAY", "trial_index": 181}, "uniqueid": "MTK2563:3UJ1CZ6IZIW3CKRPF6O0NWMFKGKS5A", "dateTime": 1519068241830}, {"current_trial": 182, "trialdata": {"rt": -1000, "trial_type": "single-audio", "stimulus": "/static/audio/400Hz.wav", "internal_node_id": "0.0-137.0", "time_elapsed": 777068, "key_press": -1, "type": "PRE_RECALL_ALERT", "trial_index": 182}, "uniqueid": "MTK2563:3UJ1CZ6IZIW3CKRPF6O0NWMFKGKS5A", "dateTime": 1519068242331}, {"current_trial": 183, "trialdata": {"rt": [4428, 7316, 10735, 12038, 14272, 30843], "recwords": ["oyster", "turtle", "robber", "thief", "chapel", "fiddle"], "key_times": [1331, 1800, 2385, 2797, 3062, 3141, 4428, 5207, 5534, 5681, 6050, 6278, 6548, 7316, 9618, 9869, 10323, 10439, 10518, 10598, 10735, 10940, 11078, 11350, 11621, 11792, 12038, 12337, 12485, 12653, 12907, 13144, 13420, 14272, 28823, 29209, 29600, 29726, 29920, 30105, 30843], "trial_type": "free-recall", "conditions": [24, 1600, "a", 12000], "internal_node_id": "0.0-138.0-0.0", "key_presses": [79, 89, 83, 84, 69, 82, 13, 84, 85, 82, 84, 76, 69, 13, 82, 79, 66, 66, 69, 82, 13, 84, 72, 73, 69, 70, 13, 67, 72, 65, 80, 69, 76, 13, 70, 73, 68, 68, 76, 69, 13], "trial": 4, "time_elapsed": 837070, "type": "FREE_RECALL", "trial_index": 183}, "uniqueid": "MTK2563:3UJ1CZ6IZIW3CKRPF6O0NWMFKGKS5A", "dateTime": 1519068302338}, {"current_trial": 184, "trialdata": {"rt": 922, "trial_type": "text", "internal_node_id": "0.0-139.0", "time_elapsed": 839998, "key_press": 82, "type": "INSTRUCTIONS", "trial_index": 184}, "uniqueid": "MTK2563:3UJ1CZ6IZIW3CKRPF6O0NWMFKGKS5A", "dateTime": 1519068305261}, {"current_trial": 185, "trialdata": {"rt": [2527, 5339, 7172, 9449, 11633], "trial_type": "math-distractor", "key_times": [2101, 2292, 2527, 4876, 5084, 5339, 6804, 6972, 7172, 8986, 9202, 9449, 11246, 11417, 11633], "responses": ["20", "20", "10", "18", "14"], "num2": [6, 9, 4, 7, 7, 2], "num3": [5, 2, 1, 3, 6, 2], "conditions": [12, 1600, "a", 12000], "internal_node_id": "0.0-140.0", "key_presses": [98, 96, 13, 98, 96, 13, 97, 96, 13, 97, 104, 13, 97, 100, 13], "trial": 5, "time_elapsed": 854001, "type": "DISTRACTOR", "trial_index": 185, "num1": [9, 9, 5, 8, 1, 2]}, "uniqueid": "MTK2563:3UJ1CZ6IZIW3CKRPF6O0NWMFKGKS5A", "dateTime": 1519068319264}, {"current_trial": 186, "trialdata": {"rt": -1, "trial_type": "single-stim", "stimulus": "<p id=\"stim\">10</p>", "internal_node_id": "0.0-141.0-0.0", "time_elapsed": 857003, "key_press": -1, "trial_index": 186}, "uniqueid": "MTK2563:3UJ1CZ6IZIW3CKRPF6O0NWMFKGKS5A", "dateTime": 1519068322266}, {"current_trial": 187, "trialdata": {"rt": -1, "trial_type": "single-stim", "stimulus": "<p id=\"stim\">9</p>", "internal_node_id": "0.0-141.0-1.0", "time_elapsed": 858004, "key_press": -1, "trial_index": 187}, "uniqueid": "MTK2563:3UJ1CZ6IZIW3CKRPF6O0NWMFKGKS5A", "dateTime": 1519068323267}, {"current_trial": 188, "trialdata": {"rt": -1, "trial_type": "single-stim", "stimulus": "<p id=\"stim\">8</p>", "internal_node_id": "0.0-141.0-2.0", "time_elapsed": 859006, "key_press": -1, "trial_index": 188}, "uniqueid": "MTK2563:3UJ1CZ6IZIW3CKRPF6O0NWMFKGKS5A", "dateTime": 1519068324269}, {"current_trial": 189, "trialdata": {"rt": -1, "trial_type": "single-stim", "stimulus": "<p id=\"stim\">7</p>", "internal_node_id": "0.0-141.0-3.0", "time_elapsed": 860008, "key_press": -1, "trial_index": 189}, "uniqueid": "MTK2563:3UJ1CZ6IZIW3CKRPF6O0NWMFKGKS5A", "dateTime": 1519068325272}, {"current_trial": 190, "trialdata": {"rt": -1, "trial_type": "single-stim", "stimulus": "<p id=\"stim\">6</p>", "internal_node_id": "0.0-141.0-4.0", "time_elapsed": 861012, "key_press": -1, "trial_index": 190}, "uniqueid": "MTK2563:3UJ1CZ6IZIW3CKRPF6O0NWMFKGKS5A", "dateTime": 1519068326275}, {"current_trial": 191, "trialdata": {"rt": -1, "trial_type": "single-stim", "stimulus": "<p id=\"stim\">5</p>", "internal_node_id": "0.0-141.0-5.0", "time_elapsed": 862014, "key_press": -1, "trial_index": 191}, "uniqueid": "MTK2563:3UJ1CZ6IZIW3CKRPF6O0NWMFKGKS5A", "dateTime": 1519068327277}, {"current_trial": 192, "trialdata": {"rt": -1, "trial_type": "single-stim", "stimulus": "<p id=\"stim\">4</p>", "internal_node_id": "0.0-141.0-6.0", "time_elapsed": 863015, "key_press": -1, "trial_index": 192}, "uniqueid": "MTK2563:3UJ1CZ6IZIW3CKRPF6O0NWMFKGKS5A", "dateTime": 1519068328282}, {"current_trial": 193, "trialdata": {"rt": -1, "trial_type": "single-stim", "stimulus": "<p id=\"stim\">3</p>", "internal_node_id": "0.0-141.0-7.0", "time_elapsed": 864019, "key_press": -1, "trial_index": 193}, "uniqueid": "MTK2563:3UJ1CZ6IZIW3CKRPF6O0NWMFKGKS5A", "dateTime": 1519068329284}, {"current_trial": 194, "trialdata": {"rt": -1, "trial_type": "single-stim", "stimulus": "<p id=\"stim\">2</p>", "internal_node_id": "0.0-141.0-8.0", "time_elapsed": 865023, "key_press": -1, "trial_index": 194}, "uniqueid": "MTK2563:3UJ1CZ6IZIW3CKRPF6O0NWMFKGKS5A", "dateTime": 1519068330286}, {"current_trial": 195, "trialdata": {"rt": -1, "trial_type": "single-stim", "stimulus": "<p id=\"stim\">1</p>", "internal_node_id": "0.0-141.0-9.0", "time_elapsed": 866025, "key_press": -1, "trial_index": 195}, "uniqueid": "MTK2563:3UJ1CZ6IZIW3CKRPF6O0NWMFKGKS5A", "dateTime": 1519068331288}, {"current_trial": 196, "trialdata": {"rt": -1, "trial_type": "single-stim", "stimulus": "<p id=\"stim\">+</p>", "internal_node_id": "0.0-142.0-0.0", "time_elapsed": 867527, "key_press": -1, "type": "FIXATION", "trial_index": 196}, "uniqueid": "MTK2563:3UJ1CZ6IZIW3CKRPF6O0NWMFKGKS5A", "dateTime": 1519068332790}, {"current_trial": 197, "trialdata": {"rt": -1000, "trial_type": "single-audio", "word": "scissors", "stimulus": "/static/audio/wordpool/SCISSORS.wav", "conditions": [12, 1600, "a", 12000], "internal_node_id": "0.0-143.0", "trial": 5, "time_elapsed": 870164, "serialpos": 0, "key_press": -1, "wordID": 1249, "type": "PRES_AUD", "trial_index": 197}, "uniqueid": "MTK2563:3UJ1CZ6IZIW3CKRPF6O0NWMFKGKS5A", "dateTime": 1519068335427}, {"current_trial": 198, "trialdata": {"rt": -1000, "trial_type": "single-audio", "word": "flower", "stimulus": "/static/audio/wordpool/FLOWER.wav", "conditions": [12, 1600, "a", 12000], "internal_node_id": "0.0-144.0", "trial": 5, "time_elapsed": 872692, "serialpos": 1, "key_press": -1, "wordID": 583, "type": "PRES_AUD", "trial_index": 198}, "uniqueid": "MTK2563:3UJ1CZ6IZIW3CKRPF6O0NWMFKGKS5A", "dateTime": 1519068337955}, {"current_trial": 199, "trialdata": {"rt": -1000, "trial_type": "single-audio", "word": "mister", "stimulus": "/static/audio/wordpool/MISTER.wav", "conditions": [12, 1600, "a", 12000], "internal_node_id": "0.0-145.0", "trial": 5, "time_elapsed": 875115, "serialpos": 2, "key_press": -1, "wordID": 900, "type": "PRES_AUD", "trial_index": 199}, "uniqueid": "MTK2563:3UJ1CZ6IZIW3CKRPF6O0NWMFKGKS5A", "dateTime": 1519068340378}, {"current_trial": 200, "trialdata": {"rt": -1000, "trial_type": "single-audio", "word": "hostess", "stimulus": "/static/audio/wordpool/HOSTESS.wav", "conditions": [12, 1600, "a", 12000], "internal_node_id": "0.0-146.0", "trial": 5, "time_elapsed": 877572, "serialpos": 3, "key_press": -1, "wordID": 722, "type": "PRES_AUD", "trial_index": 200}, "uniqueid": "MTK2563:3UJ1CZ6IZIW3CKRPF6O0NWMFKGKS5A", "dateTime": 1519068342835}, {"current_trial": 201, "trialdata": {"rt": -1000, "trial_type": "single-audio", "word": "razor", "stimulus": "/static/audio/wordpool/RAZOR.wav", "conditions": [12, 1600, "a", 12000], "internal_node_id": "0.0-147.0", "trial": 5, "time_elapsed": 880291, "serialpos": 4, "key_press": -1, "wordID": 1170, "type": "PRES_AUD", "trial_index": 201}, "uniqueid": "MTK2563:3UJ1CZ6IZIW3CKRPF6O0NWMFKGKS5A", "dateTime": 1519068345554}, {"current_trial": 202, "trialdata": {"rt": -1000, "trial_type": "single-audio", "word": "denim", "stimulus": "/static/audio/wordpool/DENIM.wav", "conditions": [12, 1600, "a", 12000], "internal_node_id": "0.0-148.0", "trial": 5, "time_elapsed": 882732, "serialpos": 5, "key_press": -1, "wordID": 445, "type": "PRES_AUD", "trial_index": 202}, "uniqueid": "MTK2563:3UJ1CZ6IZIW3CKRPF6O0NWMFKGKS5A", "dateTime": 1519068347995}, {"current_trial": 203, "trialdata": {"rt": -1000, "trial_type": "single-audio", "word": "shortcake", "stimulus": "/static/audio/wordpool/SHORTCAKE.wav", "conditions": [12, 1600, "a", 12000], "internal_node_id": "0.0-149.0", "trial": 5, "time_elapsed": 885349, "serialpos": 6, "key_press": -1, "wordID": 1291, "type": "PRES_AUD", "trial_index": 203}, "uniqueid": "MTK2563:3UJ1CZ6IZIW3CKRPF6O0NWMFKGKS5A", "dateTime": 1519068350613}, {"current_trial": 204, "trialdata": {"rt": -1000, "trial_type": "single-audio", "word": "flute", "stimulus": "/static/audio/wordpool/FLUTE.wav", "conditions": [12, 1600, "a", 12000], "internal_node_id": "0.0-150.0", "trial": 5, "time_elapsed": 887889, "serialpos": 7, "key_press": -1, "wordID": 584, "type": "PRES_AUD", "trial_index": 204}, "uniqueid": "MTK2563:3UJ1CZ6IZIW3CKRPF6O0NWMFKGKS5A", "dateTime": 1519068353153}, {"current_trial": 205, "trialdata": {"rt": -1000, "trial_type": "single-audio", "word": "trombone", "stimulus": "/static/audio/wordpool/TROMBONE.wav", "conditions": [12, 1600, "a", 12000], "internal_node_id": "0.0-151.0", "trial": 5, "time_elapsed": 890565, "serialpos": 8, "key_press": -1, "wordID": 1507, "type": "PRES_AUD", "trial_index": 205}, "uniqueid": "MTK2563:3UJ1CZ6IZIW3CKRPF6O0NWMFKGKS5A", "dateTime": 1519068355828}, {"current_trial": 206, "trialdata": {"rt": -1000, "trial_type": "single-audio", "word": "label", "stimulus": "/static/audio/wordpool/LABEL.wav", "conditions": [12, 1600, "a", 12000], "internal_node_id": "0.0-152.0", "trial": 5, "time_elapsed": 893037, "serialpos": 9, "key_press": -1, "wordID": 789, "type": "PRES_AUD", "trial_index": 206}, "uniqueid": "MTK2563:3UJ1CZ6IZIW3CKRPF6O0NWMFKGKS5A", "dateTime": 1519068358300}, {"current_trial": 207, "trialdata": {"rt": -1000, "trial_type": "single-audio", "word": "box", "stimulus": "/static/audio/wordpool/BOX.wav", "conditions": [12, 1600, "a", 12000], "internal_node_id": "0.0-153.0", "trial": 5, "time_elapsed": 895446, "serialpos": 10, "key_press": -1, "wordID": 158, "type": "PRES_AUD", "trial_index": 207}, "uniqueid": "MTK2563:3UJ1CZ6IZIW3CKRPF6O0NWMFKGKS5A", "dateTime": 1519068360709}, {"current_trial": 208, "trialdata": {"rt": -1000, "trial_type": "single-audio", "word": "college", "stimulus": "/static/audio/wordpool/COLLEGE.wav", "conditions": [12, 1600, "a", 12000], "internal_node_id": "0.0-154.0", "trial": 5, "time_elapsed": 898227, "serialpos": 11, "key_press": -1, "wordID": 345, "type": "PRES_AUD", "trial_index": 208}, "uniqueid": "MTK2563:3UJ1CZ6IZIW3CKRPF6O0NWMFKGKS5A", "dateTime": 1519068363490}, {"current_trial": 209, "trialdata": {"rt": -1, "trial_type": "single-stim", "stimulus": "", "internal_node_id": "0.0-155.0-0.0", "time_elapsed": 899605, "key_press": -1, "type": "PRE_RECALL_DELAY", "trial_index": 209}, "uniqueid": "MTK2563:3UJ1CZ6IZIW3CKRPF6O0NWMFKGKS5A", "dateTime": 1519068364869}, {"current_trial": 210, "trialdata": {"rt": -1000, "trial_type": "single-audio", "stimulus": "/static/audio/400Hz.wav", "internal_node_id": "0.0-156.0", "time_elapsed": 900106, "key_press": -1, "type": "PRE_RECALL_ALERT", "trial_index": 210}, "uniqueid": "MTK2563:3UJ1CZ6IZIW3CKRPF6O0NWMFKGKS5A", "dateTime": 1519068365370}, {"current_trial": 211, "trialdata": {"rt": [4108, 6000, 8579, 10794, 13284, 14422, 16231, 24147, 26121, 28248], "recwords": ["scissor", "flower", "trombone", "flute", "label", "box", "college", "mister", "hostess", "shortcake"], "key_times": [1345, 1497, 2237, 2587, 2733, 2978, 3115, 4108, 4533, 4774, 4960, 5432, 5503, 5710, 6000, 6236, 6465, 6878, 7126, 7743, 7869, 8074, 8333, 8579, 8807, 9009, 9290, 9637, 9836, 10794, 12290, 12447, 12697, 12876, 13008, 13284, 13587, 13786, 14193, 14422, 14632, 14786, 14969, 15102, 15223, 15557, 15799, 16231, 23019, 23242, 23450, 23742, 23953, 24036, 24147, 24509, 24768, 25008, 25234, 25431, 25845, 25961, 26121, 26352, 26618, 26861, 26991, 27186, 27493, 27701, 27954, 28062, 28248], "trial_type": "free-recall", "conditions": [12, 1600, "a", 12000], "internal_node_id": "0.0-157.0-0.0", "key_presses": [83, 67, 73, 83, 83, 79, 82, 13, 70, 76, 79, 87, 69, 82, 13, 84, 82, 79, 77, 66, 79, 78, 69, 13, 70, 76, 85, 84, 69, 13, 76, 65, 66, 69, 76, 13, 66, 79, 88, 13, 67, 79, 76, 76, 69, 71, 69, 13, 77, 73, 83, 84, 69, 82, 13, 72, 79, 83, 84, 69, 83, 83, 13, 83, 72, 79, 82, 84, 67, 65, 75, 69, 13], "trial": 5, "time_elapsed": 960111, "type": "FREE_RECALL", "trial_index": 211}, "uniqueid": "MTK2563:3UJ1CZ6IZIW3CKRPF6O0NWMFKGKS5A", "dateTime": 1519068425379}, {"current_trial": 212, "trialdata": {"rt": 561, "trial_type": "text", "internal_node_id": "0.0-158.0", "time_elapsed": 962678, "key_press": 74, "type": "INSTRUCTIONS", "trial_index": 212}, "uniqueid": "MTK2563:3UJ1CZ6IZIW3CKRPF6O0NWMFKGKS5A", "dateTime": 1519068427941}, {"current_trial": 213, "trialdata": {"rt": [2248, 4257, 7018, 9791, 12372, 14025, 15435, 17487, 19960, 21819], "trial_type": "math-distractor", "key_times": [1898, 2062, 2248, 3747, 3989, 4257, 6610, 6748, 7018, 9192, 9478, 9791, 11875, 12124, 12372, 13571, 13793, 14025, 15183, 15435, 16977, 17244, 17487, 19531, 19716, 19960, 21355, 21576, 21819, 23999], "responses": ["10", "16", "11", "17", "17", "15", "9", "16", "14", "13"], "num2": [7, 4, 2, 7, 3, 2, 1, 7, 5, 1, 6], "num3": [1, 4, 7, 8, 9, 5, 1, 3, 7, 9, 9], "conditions": [12, 1600, "a", 24000], "internal_node_id": "0.0-159.0", "key_presses": [97, 96, 13, 97, 102, 13, 97, 97, 13, 97, 103, 13, 97, 103, 13, 97, 101, 13, 105, 13, 97, 102, 13, 97, 100, 13, 97, 99, 13, 97], "trial": 6, "time_elapsed": 988686, "type": "DISTRACTOR", "trial_index": 213, "num1": [2, 8, 2, 2, 5, 8, 7, 6, 2, 3, 2]}, "uniqueid": "MTK2563:3UJ1CZ6IZIW3CKRPF6O0NWMFKGKS5A", "dateTime": 1519068453949}, {"current_trial": 214, "trialdata": {"rt": -1, "trial_type": "single-stim", "stimulus": "<p id=\"stim\">10</p>", "internal_node_id": "0.0-160.0-0.0", "time_elapsed": 991688, "key_press": -1, "trial_index": 214}, "uniqueid": "MTK2563:3UJ1CZ6IZIW3CKRPF6O0NWMFKGKS5A", "dateTime": 1519068456951}, {"current_trial": 215, "trialdata": {"rt": -1, "trial_type": "single-stim", "stimulus": "<p id=\"stim\">9</p>", "internal_node_id": "0.0-160.0-1.0", "time_elapsed": 992691, "key_press": -1, "trial_index": 215}, "uniqueid": "MTK2563:3UJ1CZ6IZIW3CKRPF6O0NWMFKGKS5A", "dateTime": 1519068457954}, {"current_trial": 216, "trialdata": {"rt": -1, "trial_type": "single-stim", "stimulus": "<p id=\"stim\">8</p>", "internal_node_id": "0.0-160.0-2.0", "time_elapsed": 993692, "key_press": -1, "trial_index": 216}, "uniqueid": "MTK2563:3UJ1CZ6IZIW3CKRPF6O0NWMFKGKS5A", "dateTime": 1519068458955}, {"current_trial": 217, "trialdata": {"rt": -1, "trial_type": "single-stim", "stimulus": "<p id=\"stim\">7</p>", "internal_node_id": "0.0-160.0-3.0", "time_elapsed": 994693, "key_press": -1, "trial_index": 217}, "uniqueid": "MTK2563:3UJ1CZ6IZIW3CKRPF6O0NWMFKGKS5A", "dateTime": 1519068459956}, {"current_trial": 218, "trialdata": {"rt": -1, "trial_type": "single-stim", "stimulus": "<p id=\"stim\">6</p>", "internal_node_id": "0.0-160.0-4.0", "time_elapsed": 995696, "key_press": -1, "trial_index": 218}, "uniqueid": "MTK2563:3UJ1CZ6IZIW3CKRPF6O0NWMFKGKS5A", "dateTime": 1519068460959}, {"current_trial": 219, "trialdata": {"rt": -1, "trial_type": "single-stim", "stimulus": "<p id=\"stim\">5</p>", "internal_node_id": "0.0-160.0-5.0", "time_elapsed": 996696, "key_press": -1, "trial_index": 219}, "uniqueid": "MTK2563:3UJ1CZ6IZIW3CKRPF6O0NWMFKGKS5A", "dateTime": 1519068461959}, {"current_trial": 220, "trialdata": {"rt": -1, "trial_type": "single-stim", "stimulus": "<p id=\"stim\">4</p>", "internal_node_id": "0.0-160.0-6.0", "time_elapsed": 997697, "key_press": -1, "trial_index": 220}, "uniqueid": "MTK2563:3UJ1CZ6IZIW3CKRPF6O0NWMFKGKS5A", "dateTime": 1519068462960}, {"current_trial": 221, "trialdata": {"rt": -1, "trial_type": "single-stim", "stimulus": "<p id=\"stim\">3</p>", "internal_node_id": "0.0-160.0-7.0", "time_elapsed": 998699, "key_press": -1, "trial_index": 221}, "uniqueid": "MTK2563:3UJ1CZ6IZIW3CKRPF6O0NWMFKGKS5A", "dateTime": 1519068463963}, {"current_trial": 222, "trialdata": {"rt": -1, "trial_type": "single-stim", "stimulus": "<p id=\"stim\">2</p>", "internal_node_id": "0.0-160.0-8.0", "time_elapsed": 999702, "key_press": -1, "trial_index": 222}, "uniqueid": "MTK2563:3UJ1CZ6IZIW3CKRPF6O0NWMFKGKS5A", "dateTime": 1519068464965}, {"current_trial": 223, "trialdata": {"rt": -1, "trial_type": "single-stim", "stimulus": "<p id=\"stim\">1</p>", "internal_node_id": "0.0-160.0-9.0", "time_elapsed": 1000704, "key_press": -1, "trial_index": 223}, "uniqueid": "MTK2563:3UJ1CZ6IZIW3CKRPF6O0NWMFKGKS5A", "dateTime": 1519068465968}, {"current_trial": 224, "trialdata": {"rt": -1, "trial_type": "single-stim", "stimulus": "<p id=\"stim\">+</p>", "internal_node_id": "0.0-161.0-0.0", "time_elapsed": 1002207, "key_press": -1, "type": "FIXATION", "trial_index": 224}, "uniqueid": "MTK2563:3UJ1CZ6IZIW3CKRPF6O0NWMFKGKS5A", "dateTime": 1519068467470}, {"current_trial": 225, "trialdata": {"rt": -1000, "trial_type": "single-audio", "word": "swimmer", "stimulus": "/static/audio/wordpool/SWIMMER.wav", "conditions": [12, 1600, "a", 24000], "internal_node_id": "0.0-162.0", "trial": 6, "time_elapsed": 1004645, "serialpos": 0, "key_press": -1, "wordID": 1419, "type": "PRES_AUD", "trial_index": 225}, "uniqueid": "MTK2563:3UJ1CZ6IZIW3CKRPF6O0NWMFKGKS5A", "dateTime": 1519068469908}, {"current_trial": 226, "trialdata": {"rt": -1000, "trial_type": "single-audio", "word": "sword", "stimulus": "/static/audio/wordpool/SWORD.wav", "conditions": [12, 1600, "a", 24000], "internal_node_id": "0.0-163.0", "trial": 6, "time_elapsed": 1007122, "serialpos": 1, "key_press": -1, "wordID": 1422, "type": "PRES_AUD", "trial_index": 226}, "uniqueid": "MTK2563:3UJ1CZ6IZIW3CKRPF6O0NWMFKGKS5A", "dateTime": 1519068472385}, {"current_trial": 227, "trialdata": {"rt": -1000, "trial_type": "single-audio", "word": "cocoon", "stimulus": "/static/audio/wordpool/COCOON.wav", "conditions": [12, 1600, "a", 24000], "internal_node_id": "0.0-164.0", "trial": 6, "time_elapsed": 1009553, "serialpos": 2, "key_press": -1, "wordID": 338, "type": "PRES_AUD", "trial_index": 227}, "uniqueid": "MTK2563:3UJ1CZ6IZIW3CKRPF6O0NWMFKGKS5A", "dateTime": 1519068474816}, {"current_trial": 228, "trialdata": {"rt": -1000, "trial_type": "single-audio", "word": "mailbox", "stimulus": "/static/audio/wordpool/MAILBOX.wav", "conditions": [12, 1600, "a", 24000], "internal_node_id": "0.0-165.0", "trial": 6, "time_elapsed": 1012128, "serialpos": 3, "key_press": -1, "wordID": 856, "type": "PRES_AUD", "trial_index": 228}, "uniqueid": "MTK2563:3UJ1CZ6IZIW3CKRPF6O0NWMFKGKS5A", "dateTime": 1519068477391}, {"current_trial": 229, "trialdata": {"rt": -1000, "trial_type": "single-audio", "word": "orange", "stimulus": "/static/audio/wordpool/ORANGE.wav", "conditions": [12, 1600, "a", 24000], "internal_node_id": "0.0-166.0", "trial": 6, "time_elapsed": 1014893, "serialpos": 4, "key_press": -1, "wordID": 979, "type": "PRES_AUD", "trial_index": 229}, "uniqueid": "MTK2563:3UJ1CZ6IZIW3CKRPF6O0NWMFKGKS5A", "dateTime": 1519068480156}, {"current_trial": 230, "trialdata": {"rt": -1000, "trial_type": "single-audio", "word": "diver", "stimulus": "/static/audio/wordpool/DIVER.wav", "conditions": [12, 1600, "a", 24000], "internal_node_id": "0.0-167.0", "trial": 6, "time_elapsed": 1017521, "serialpos": 5, "key_press": -1, "wordID": 475, "type": "PRES_AUD", "trial_index": 230}, "uniqueid": "MTK2563:3UJ1CZ6IZIW3CKRPF6O0NWMFKGKS5A", "dateTime": 1519068482784}, {"current_trial": 231, "trialdata": {"rt": -1000, "trial_type": "single-audio", "word": "cloud", "stimulus": "/static/audio/wordpool/CLOUD.wav", "conditions": [12, 1600, "a", 24000], "internal_node_id": "0.0-168.0", "trial": 6, "time_elapsed": 1019986, "serialpos": 6, "key_press": -1, "wordID": 327, "type": "PRES_AUD", "trial_index": 231}, "uniqueid": "MTK2563:3UJ1CZ6IZIW3CKRPF6O0NWMFKGKS5A", "dateTime": 1519068485249}, {"current_trial": 232, "trialdata": {"rt": -1000, "trial_type": "single-audio", "word": "ointment", "stimulus": "/static/audio/wordpool/OINTMENT.wav", "conditions": [12, 1600, "a", 24000], "internal_node_id": "0.0-169.0", "trial": 6, "time_elapsed": 1022445, "serialpos": 7, "key_press": -1, "wordID": 973, "type": "PRES_AUD", "trial_index": 232}, "uniqueid": "MTK2563:3UJ1CZ6IZIW3CKRPF6O0NWMFKGKS5A", "dateTime": 1519068487708}, {"current_trial": 233, "trialdata": {"rt": -1000, "trial_type": "single-audio", "word": "dragon", "stimulus": "/static/audio/wordpool/DRAGON.wav", "conditions": [12, 1600, "a", 24000], "internal_node_id": "0.0-170.0", "trial": 6, "time_elapsed": 1025113, "serialpos": 8, "key_press": -1, "wordID": 491, "type": "PRES_AUD", "trial_index": 233}, "uniqueid": "MTK2563:3UJ1CZ6IZIW3CKRPF6O0NWMFKGKS5A", "dateTime": 1519068490376}, {"current_trial": 234, "trialdata": {"rt": -1000, "trial_type": "single-audio", "word": "creature", "stimulus": "/static/audio/wordpool/CREATURE.wav", "conditions": [12, 1600, "a", 24000], "internal_node_id": "0.0-171.0", "trial": 6, "time_elapsed": 1027712, "serialpos": 9, "key_press": -1, "wordID": 402, "type": "PRES_AUD", "trial_index": 234}, "uniqueid": "MTK2563:3UJ1CZ6IZIW3CKRPF6O0NWMFKGKS5A", "dateTime": 1519068492975}, {"current_trial": 235, "trialdata": {"rt": -1000, "trial_type": "single-audio", "word": "swamp", "stimulus": "/static/audio/wordpool/SWAMP.wav", "conditions": [12, 1600, "a", 24000], "internal_node_id": "0.0-172.0", "trial": 6, "time_elapsed": 1030466, "serialpos": 10, "key_press": -1, "wordID": 1415, "type": "PRES_AUD", "trial_index": 235}, "uniqueid": "MTK2563:3UJ1CZ6IZIW3CKRPF6O0NWMFKGKS5A", "dateTime": 1519068495729}, {"current_trial": 236, "trialdata": {"rt": -1000, "trial_type": "single-audio", "word": "lily", "stimulus": "/static/audio/wordpool/LILY.wav", "conditions": [12, 1600, "a", 24000], "internal_node_id": "0.0-173.0", "trial": 6, "time_elapsed": 1033126, "serialpos": 11, "key_press": -1, "wordID": 820, "type": "PRES_AUD", "trial_index": 236}, "uniqueid": "MTK2563:3UJ1CZ6IZIW3CKRPF6O0NWMFKGKS5A", "dateTime": 1519068498389}, {"current_trial": 237, "trialdata": {"rt": -1, "trial_type": "single-stim", "stimulus": "", "internal_node_id": "0.0-174.0-0.0", "time_elapsed": 1034521, "key_press": -1, "type": "PRE_RECALL_DELAY", "trial_index": 237}, "uniqueid": "MTK2563:3UJ1CZ6IZIW3CKRPF6O0NWMFKGKS5A", "dateTime": 1519068499784}, {"current_trial": 238, "trialdata": {"rt": -1000, "trial_type": "single-audio", "stimulus": "/static/audio/400Hz.wav", "internal_node_id": "0.0-175.0", "time_elapsed": 1035022, "key_press": -1, "type": "PRE_RECALL_ALERT", "trial_index": 238}, "uniqueid": "MTK2563:3UJ1CZ6IZIW3CKRPF6O0NWMFKGKS5A", "dateTime": 1519068500285}, {"current_trial": 239, "trialdata": {"rt": [3265, 4909, 6663, 8933, 11481, 13197, 15456, 27657], "recwords": ["swimmer", "sword", "swamp", "lily", "ointment", "dragon", "creature", "orange"], "key_times": [1179, 1717, 2031, 2284, 2419, 2517, 2585, 3265, 3564, 3746, 4183, 4344, 4644, 4909, 5256, 5516, 5783, 6093, 6367, 6663, 7790, 7986, 8191, 8663, 8933, 9291, 9464, 9652, 9870, 10703, 10830, 10948, 11111, 11481, 11952, 12160, 12389, 12596, 12773, 12977, 13197, 13523, 13758, 13864, 14075, 14359, 14793, 15025, 15131, 15456, 26317, 26550, 26750, 26882, 27273, 27427, 27657], "trial_type": "free-recall", "conditions": [12, 1600, "a", 24000], "internal_node_id": "0.0-176.0-0.0", "key_presses": [83, 87, 73, 77, 77, 69, 82, 13, 83, 87, 79, 82, 68, 13, 83, 87, 65, 77, 80, 13, 76, 73, 76, 89, 13, 79, 73, 78, 84, 77, 69, 78, 84, 13, 68, 82, 65, 71, 79, 78, 13, 67, 82, 69, 65, 84, 85, 82, 69, 13, 79, 82, 65, 78, 71, 69, 13], "trial": 6, "time_elapsed": 1095027, "type": "FREE_RECALL", "trial_index": 239}, "uniqueid": "MTK2563:3UJ1CZ6IZIW3CKRPF6O0NWMFKGKS5A", "dateTime": 1519068560296}, {"current_trial": 240, "trialdata": {"rt": 4340, "trial_type": "text", "internal_node_id": "0.0-177.0", "time_elapsed": 1101373, "key_press": 72, "type": "INSTRUCTIONS", "trial_index": 240}, "uniqueid": "MTK2563:3UJ1CZ6IZIW3CKRPF6O0NWMFKGKS5A", "dateTime": 1519068566637}, {"current_trial": 241, "trialdata": {"rt": [6489, 8839, 10878], "trial_type": "math-distractor", "key_times": [5672, 5986, 6489, 8432, 8637, 8839, 10464, 10644, 10878], "responses": ["23", "10", "23"], "num2": [9, 4, 9, 1], "num3": [7, 5, 9, 7], "conditions": [24, 800, "a", 12000], "internal_node_id": "0.0-178.0", "key_presses": [98, 99, 13, 97, 96, 13, 98, 99, 13], "trial": 7, "time_elapsed": 1115376, "type": "DISTRACTOR", "trial_index": 241, "num1": [8, 1, 5, 7]}, "uniqueid": "MTK2563:3UJ1CZ6IZIW3CKRPF6O0NWMFKGKS5A", "dateTime": 1519068580639}, {"current_trial": 242, "trialdata": {"rt": -1, "trial_type": "single-stim", "stimulus": "<p id=\"stim\">10</p>", "internal_node_id": "0.0-179.0-0.0", "time_elapsed": 1118377, "key_press": -1, "trial_index": 242}, "uniqueid": "MTK2563:3UJ1CZ6IZIW3CKRPF6O0NWMFKGKS5A", "dateTime": 1519068583640}, {"current_trial": 243, "trialdata": {"rt": -1, "trial_type": "single-stim", "stimulus": "<p id=\"stim\">9</p>", "internal_node_id": "0.0-179.0-1.0", "time_elapsed": 1119