{"assignmentId": "3A1COHJ8NK2X9TWB2AJ4V2P4CZB8HL", "workerId": "MTK2512", "questiondata": {"origin": "United States", "strat-rehearsal": "27", "marital": "Single", "education": "Bachelor's degree", "ethnicity": "Not Hispanic", "color_depth": 24, "distracted": "No", "wrote-notes": "No", "strat-other": "", "screen_width": 1920, "avail_screen_width": 1920, "avail_screen_height": 1040, "strat-image": "10", "language": "English", "gender": "Male", "age": "33", "gender_other": "", "race": ["White"], "strat-categorize": "62", "pixel_depth": 24, "strat-spatial": "6", "strat-story": "62", "race_other": "", "screen_height": 1080}, "bonus": 0, "hitId": "35U0MRQMUJE3P2GHOEK2I5ATG22OVE", "counterbalance": 2059, "useragent": "Mozilla/5.0 (Windows NT 10.0; Win64; x64) AppleWebKit/537.36 (KHTML, like Gecko) Chrome/64.0.3282.119 Safari/537.36", "eventdata": [{"eventtype": "initialized", "interval": 0, "value": null, "timestamp": 1517947398794}, {"eventtype": "window_resize", "interval": 0, "value": [1920, 1033], "timestamp": 1517947398794}, {"eventtype": "window_resize", "interval": 48470, "value": [1920, 984], "timestamp": 1517947447264}, {"eventtype": "focus", "interval": 2588, "value": "off", "timestamp": 1517947449852}, {"eventtype": "focus", "interval": 19177, "value": "on", "timestamp": 1517947469029}, {"eventtype": "focus", "interval": 9553, "value": "off", "timestamp": 1517947478582}, {"eventtype": "focus", "interval": 4892, "value": "on", "timestamp": 1517947483474}, {"eventtype": "focus", "interval": 70090, "value": "off", "timestamp": 1517947553564}, {"eventtype": "focus", "interval": 29472, "value": "on", "timestamp": 1517947583036}, {"eventtype": "focus", "interval": 166443, "value": "off", "timestamp": 1517947749479}, {"eventtype": "focus", "interval": 20761, "value": "on", "timestamp": 1517947770240}], "data": [{"current_trial": 0, "trialdata": {"rt": 3410, "trial_type": "text", "internal_node_id": "0.0-0.0", "time_elapsed": 3411, "key_press": 13, "type": "INSTRUCTIONS", "trial_index": 0}, "uniqueid": "MTK2512:3A1COHJ8NK2X9TWB2AJ4V2P4CZB8HL", "dateTime": 1517947403007}, {"current_trial": 1, "trialdata": {"rt": 32297, "trial_type": "text", "internal_node_id": "0.0-1.0", "time_elapsed": 35709, "key_press": 13, "type": "INSTRUCTIONS", "trial_index": 1}, "uniqueid": "MTK2512:3A1COHJ8NK2X9TWB2AJ4V2P4CZB8HL", "dateTime": 1517947435305}, {"current_trial": 2, "trialdata": {"rt": [54645], "trial_type": "audio-test", "responses": ["ocean"], "internal_node_id": "0.0-2.0", "time_elapsed": 90360, "type": "AUDIO_TEST", "trial_index": 2}, "uniqueid": "MTK2512:3A1COHJ8NK2X9TWB2AJ4V2P4CZB8HL", "dateTime": 1517947489956}, {"current_trial": 3, "trialdata": {"rt": [12721], "trial_type": "audio-test", "responses": ["crystal"], "internal_node_id": "0.0-3.0", "time_elapsed": 103082, "type": "AUDIO_TEST", "trial_index": 3}, "uniqueid": "MTK2512:3A1COHJ8NK2X9TWB2AJ4V2P4CZB8HL", "dateTime": 1517947502678}, {"current_trial": 4, "trialdata": {"rt": [8552], "trial_type": "audio-test", "responses": ["spice"], "internal_node_id": "0.0-4.0", "time_elapsed": 111637, "type": "AUDIO_TEST", "trial_index": 4}, "uniqueid": "MTK2512:3A1COHJ8NK2X9TWB2AJ4V2P4CZB8HL", "dateTime": 1517947511233}, {"current_trial": 5, "trialdata": {"rt": 34990, "trial_type": "survey-text", "responses": "{\"Q0\":\"2300\",\"Q1\":\"830\",\"Q2\":\"5\"}", "internal_node_id": "0.0-5.0", "time_elapsed": 147378, "type": "SLEEP_SURVEY", "trial_index": 5}, "uniqueid": "MTK2512:3A1COHJ8NK2X9TWB2AJ4V2P4CZB8HL", "dateTime": 1517947546974}, {"current_trial": 6, "trialdata": {"rt": 691988, "trial_type": "text", "internal_node_id": "0.0-6.0", "time_elapsed": 840366, "key_press": 13, "type": "INSTRUCTIONS", "trial_index": 6}, "uniqueid": "MTK2512:3A1COHJ8NK2X9TWB2AJ4V2P4CZB8HL", "dateTime": 1517948239962}, {"current_trial": 7, "trialdata": {"rt": 18604, "trial_type": "text", "internal_node_id": "0.0-7.0", "time_elapsed": 859470, "key_press": 13, "type": "INSTRUCTIONS", "trial_index": 7}, "uniqueid": "MTK2512:3A1COHJ8NK2X9TWB2AJ4V2P4CZB8HL", "dateTime": 1517948259066}, {"current_trial": 8, "trialdata": {"rt": 11796, "trial_type": "text", "internal_node_id": "0.0-8.0", "time_elapsed": 871767, "key_press": 13, "type": "INSTRUCTIONS", "trial_index": 8}, "uniqueid": "MTK2512:3A1COHJ8NK2X9TWB2AJ4V2P4CZB8HL", "dateTime": 1517948271363}, {"current_trial": 9, "trialdata": {"rt": [5948, 16534], "trial_type": "math-distractor", "key_times": [4612, 4923, 5948, 12057, 14010, 16534], "responses": ["11", "19"], "num2": [3, 3, 5], "num3": [1, 9, 9], "conditions": [18, 1200, "v", 18000], "internal_node_id": "0.0-9.0", "key_presses": [49, 49, 13, 49, 57, 13], "trial": 0, "time_elapsed": 890772, "type": "DISTRACTOR", "trial_index": 9, "num1": [7, 7, 1]}, "uniqueid": "MTK2512:3A1COHJ8NK2X9TWB2AJ4V2P4CZB8HL", "dateTime": 1517948290368}, {"current_trial": 10, "trialdata": {"rt": -1, "trial_type": "single-stim", "stimulus": "<p id=\"stim\">10</p>", "internal_node_id": "0.0-10.0-0.0", "time_elapsed": 893775, "key_press": -1, "trial_index": 10}, "uniqueid": "MTK2512:3A1COHJ8NK2X9TWB2AJ4V2P4CZB8HL", "dateTime": 1517948293371}, {"current_trial": 11, "trialdata": {"rt": -1, "trial_type": "single-stim", "stimulus": "<p id=\"stim\">9</p>", "internal_node_id": "0.0-10.0-1.0", "time_elapsed": 894775, "key_press": -1, "trial_index": 11}, "uniqueid": "MTK2512:3A1COHJ8NK2X9TWB2AJ4V2P4CZB8HL", "dateTime": 1517948294371}, {"current_trial": 12, "trialdata": {"rt": -1, "trial_type": "single-stim", "stimulus": "<p id=\"stim\">8</p>", "internal_node_id": "0.0-10.0-2.0", "time_elapsed": 895776, "key_press": -1, "trial_index": 12}, "uniqueid": "MTK2512:3A1COHJ8NK2X9TWB2AJ4V2P4CZB8HL", "dateTime": 1517948295372}, {"current_trial": 13, "trialdata": {"rt": -1, "trial_type": "single-stim", "stimulus": "<p id=\"stim\">7</p>", "internal_node_id": "0.0-10.0-3.0", "time_elapsed": 896778, "key_press": -1, "trial_index": 13}, "uniqueid": "MTK2512:3A1COHJ8NK2X9TWB2AJ4V2P4CZB8HL", "dateTime": 1517948296374}, {"current_trial": 14, "trialdata": {"rt": -1, "trial_type": "single-stim", "stimulus": "<p id=\"stim\">6</p>", "internal_node_id": "0.0-10.0-4.0", "time_elapsed": 897778, "key_press": -1, "trial_index": 14}, "uniqueid": "MTK2512:3A1COHJ8NK2X9TWB2AJ4V2P4CZB8HL", "dateTime": 1517948297374}, {"current_trial": 15, "trialdata": {"rt": -1, "trial_type": "single-stim", "stimulus": "<p id=\"stim\">5</p>", "internal_node_id": "0.0-10.0-5.0", "time_elapsed": 898779, "key_press": -1, "trial_index": 15}, "uniqueid": "MTK2512:3A1COHJ8NK2X9TWB2AJ4V2P4CZB8HL", "dateTime": 1517948298375}, {"current_trial": 16, "trialdata": {"rt": -1, "trial_type": "single-stim", "stimulus": "<p id=\"stim\">4</p>", "internal_node_id": "0.0-10.0-6.0", "time_elapsed": 899780, "key_press": -1, "trial_index": 16}, "uniqueid": "MTK2512:3A1COHJ8NK2X9TWB2AJ4V2P4CZB8HL", "dateTime": 1517948299376}, {"current_trial": 17, "trialdata": {"rt": -1, "trial_type": "single-stim", "stimulus": "<p id=\"stim\">3</p>", "internal_node_id": "0.0-10.0-7.0", "time_elapsed": 900781, "key_press": -1, "trial_index": 17}, "uniqueid": "MTK2512:3A1COHJ8NK2X9TWB2AJ4V2P4CZB8HL", "dateTime": 1517948300377}, {"current_trial": 18, "trialdata": {"rt": -1, "trial_type": "single-stim", "stimulus": "<p id=\"stim\">2</p>", "internal_node_id": "0.0-10.0-8.0", "time_elapsed": 901782, "key_press": -1, "trial_index": 18}, "uniqueid": "MTK2512:3A1COHJ8NK2X9TWB2AJ4V2P4CZB8HL", "dateTime": 1517948301379}, {"current_trial": 19, "trialdata": {"rt": -1, "trial_type": "single-stim", "stimulus": "<p id=\"stim\">1</p>", "internal_node_id": "0.0-10.0-9.0", "time_elapsed": 902784, "key_press": -1, "trial_index": 19}, "uniqueid": "MTK2512:3A1COHJ8NK2X9TWB2AJ4V2P4CZB8HL", "dateTime": 1517948302380}, {"current_trial": 20, "trialdata": {"rt": -1, "trial_type": "single-stim", "stimulus": "<p id=\"stim\">+</p>", "internal_node_id": "0.0-11.0-0.0", "time_elapsed": 904284, "key_press": -1, "type": "FIXATION", "trial_index": 20}, "uniqueid": "MTK2512:3A1COHJ8NK2X9TWB2AJ4V2P4CZB8HL", "dateTime": 1517948303880}, {"current_trial": 21, "trialdata": {"rt": -1, "trial_type": "single-stim", "word": "viking", "stimulus": "<p id=\"stim\">VIKING</p>", "conditions": [18, 1200, "v", 18000], "internal_node_id": "0.0-12.0", "trial": 0, "time_elapsed": 905486, "serialpos": 0, "key_press": -1, "wordID": 1564, "type": "PRES_VIS", "trial_index": 21}, "uniqueid": "MTK2512:3A1COHJ8NK2X9TWB2AJ4V2P4CZB8HL", "dateTime": 1517948305082}, {"current_trial": 22, "trialdata": {"rt": -1, "trial_type": "single-stim", "word": "bacon", "stimulus": "<p id=\"stim\">BACON</p>", "conditions": [18, 1200, "v", 18000], "internal_node_id": "0.0-13.0", "trial": 0, "time_elapsed": 907558, "serialpos": 1, "key_press": -1, "wordID": 66, "type": "PRES_VIS", "trial_index": 22}, "uniqueid": "MTK2512:3A1COHJ8NK2X9TWB2AJ4V2P4CZB8HL", "dateTime": 1517948307154}, {"current_trial": 23, "trialdata": {"rt": -1, "trial_type": "single-stim", "word": "raft", "stimulus": "<p id=\"stim\">RAFT</p>", "conditions": [18, 1200, "v", 18000], "internal_node_id": "0.0-14.0", "trial": 0, "time_elapsed": 909753, "serialpos": 2, "key_press": -1, "wordID": 1158, "type": "PRES_VIS", "trial_index": 23}, "uniqueid": "MTK2512:3A1COHJ8NK2X9TWB2AJ4V2P4CZB8HL", "dateTime": 1517948309349}, {"current_trial": 24, "trialdata": {"rt": -1, "trial_type": "single-stim", "word": "tourist", "stimulus": "<p id=\"stim\">TOURIST</p>", "conditions": [18, 1200, "v", 18000], "internal_node_id": "0.0-15.0", "trial": 0, "time_elapsed": 911910, "serialpos": 3, "key_press": -1, "wordID": 1487, "type": "PRES_VIS", "trial_index": 24}, "uniqueid": "MTK2512:3A1COHJ8NK2X9TWB2AJ4V2P4CZB8HL", "dateTime": 1517948311506}, {"current_trial": 25, "trialdata": {"rt": -1, "trial_type": "single-stim", "word": "human", "stimulus": "<p id=\"stim\">HUMAN</p>", "conditions": [18, 1200, "v", 18000], "internal_node_id": "0.0-16.0", "trial": 0, "time_elapsed": 914248, "serialpos": 4, "key_press": -1, "wordID": 725, "type": "PRES_VIS", "trial_index": 25}, "uniqueid": "MTK2512:3A1COHJ8NK2X9TWB2AJ4V2P4CZB8HL", "dateTime": 1517948313844}, {"current_trial": 26, "trialdata": {"rt": -1, "trial_type": "single-stim", "word": "nurse", "stimulus": "<p id=\"stim\">NURSE</p>", "conditions": [18, 1200, "v", 18000], "internal_node_id": "0.0-17.0", "trial": 0, "time_elapsed": 916294, "serialpos": 5, "key_press": -1, "wordID": 962, "type": "PRES_VIS", "trial_index": 26}, "uniqueid": "MTK2512:3A1COHJ8NK2X9TWB2AJ4V2P4CZB8HL", "dateTime": 1517948315890}, {"current_trial": 27, "trialdata": {"rt": -1, "trial_type": "single-stim", "word": "coffee", "stimulus": "<p id=\"stim\">COFFEE</p>", "conditions": [18, 1200, "v", 18000], "internal_node_id": "0.0-18.0", "trial": 0, "time_elapsed": 918602, "serialpos": 6, "key_press": -1, "wordID": 340, "type": "PRES_VIS", "trial_index": 27}, "uniqueid": "MTK2512:3A1COHJ8NK2X9TWB2AJ4V2P4CZB8HL", "dateTime": 1517948318198}, {"current_trial": 28, "trialdata": {"rt": -1, "trial_type": "single-stim", "word": "citrus", "stimulus": "<p id=\"stim\">CITRUS</p>", "conditions": [18, 1200, "v", 18000], "internal_node_id": "0.0-19.0", "trial": 0, "time_elapsed": 920613, "serialpos": 7, "key_press": -1, "wordID": 312, "type": "PRES_VIS", "trial_index": 28}, "uniqueid": "MTK2512:3A1COHJ8NK2X9TWB2AJ4V2P4CZB8HL", "dateTime": 1517948320209}, {"current_trial": 29, "trialdata": {"rt": -1, "trial_type": "single-stim", "word": "waitress", "stimulus": "<p id=\"stim\">WAITRESS</p>", "conditions": [18, 1200, "v", 18000], "internal_node_id": "0.0-20.0", "trial": 0, "time_elapsed": 922829, "serialpos": 8, "key_press": -1, "wordID": 1580, "type": "PRES_VIS", "trial_index": 29}, "uniqueid": "MTK2512:3A1COHJ8NK2X9TWB2AJ4V2P4CZB8HL", "dateTime": 1517948322425}, {"current_trial": 30, "trialdata": {"rt": -1, "trial_type": "single-stim", "word": "spider", "stimulus": "<p id=\"stim\">SPIDER</p>", "conditions": [18, 1200, "v", 18000], "internal_node_id": "0.0-21.0", "trial": 0, "time_elapsed": 924848, "serialpos": 9, "key_press": -1, "wordID": 1350, "type": "PRES_VIS", "trial_index": 30}, "uniqueid": "MTK2512:3A1COHJ8NK2X9TWB2AJ4V2P4CZB8HL", "dateTime": 1517948324444}, {"current_trial": 31, "trialdata": {"rt": -1, "trial_type": "single-stim", "word": "survey", "stimulus": "<p id=\"stim\">SURVEY</p>", "conditions": [18, 1200, "v", 18000], "internal_node_id": "0.0-22.0", "trial": 0, "time_elapsed": 926989, "serialpos": 10, "key_press": -1, "wordID": 1413, "type": "PRES_VIS", "trial_index": 31}, "uniqueid": "MTK2512:3A1COHJ8NK2X9TWB2AJ4V2P4CZB8HL", "dateTime": 1517948326586}, {"current_trial": 32, "trialdata": {"rt": -1, "trial_type": "single-stim", "word": "drawing", "stimulus": "<p id=\"stim\">DRAWING</p>", "conditions": [18, 1200, "v", 18000], "internal_node_id": "0.0-23.0", "trial": 0, "time_elapsed": 929140, "serialpos": 11, "key_press": -1, "wordID": 493, "type": "PRES_VIS", "trial_index": 32}, "uniqueid": "MTK2512:3A1COHJ8NK2X9TWB2AJ4V2P4CZB8HL", "dateTime": 1517948328736}, {"current_trial": 33, "trialdata": {"rt": -1, "trial_type": "single-stim", "word": "plate", "stimulus": "<p id=\"stim\">PLATE</p>", "conditions": [18, 1200, "v", 18000], "internal_node_id": "0.0-24.0", "trial": 0, "time_elapsed": 931479, "serialpos": 12, "key_press": -1, "wordID": 1085, "type": "PRES_VIS", "trial_index": 33}, "uniqueid": "MTK2512:3A1COHJ8NK2X9TWB2AJ4V2P4CZB8HL", "dateTime": 1517948331075}, {"current_trial": 34, "trialdata": {"rt": -1, "trial_type": "single-stim", "word": "daisy", "stimulus": "<p id=\"stim\">DAISY</p>", "conditions": [18, 1200, "v", 18000], "internal_node_id": "0.0-25.0", "trial": 0, "time_elapsed": 933737, "serialpos": 13, "key_press": -1, "wordID": 434, "type": "PRES_VIS", "trial_index": 34}, "uniqueid": "MTK2512:3A1COHJ8NK2X9TWB2AJ4V2P4CZB8HL", "dateTime": 1517948333333}, {"current_trial": 35, "trialdata": {"rt": -1, "trial_type": "single-stim", "word": "sibling", "stimulus": "<p id=\"stim\">SIBLING</p>", "conditions": [18, 1200, "v", 18000], "internal_node_id": "0.0-26.0", "trial": 0, "time_elapsed": 936051, "serialpos": 14, "key_press": -1, "wordID": 1300, "type": "PRES_VIS", "trial_index": 35}, "uniqueid": "MTK2512:3A1COHJ8NK2X9TWB2AJ4V2P4CZB8HL", "dateTime": 1517948335647}, {"current_trial": 36, "trialdata": {"rt": -1, "trial_type": "single-stim", "word": "teacher", "stimulus": "<p id=\"stim\">TEACHER</p>", "conditions": [18, 1200, "v", 18000], "internal_node_id": "0.0-27.0", "trial": 0, "time_elapsed": 938420, "serialpos": 15, "key_press": -1, "wordID": 1439, "type": "PRES_VIS", "trial_index": 36}, "uniqueid": "MTK2512:3A1COHJ8NK2X9TWB2AJ4V2P4CZB8HL", "dateTime": 1517948338016}, {"current_trial": 37, "trialdata": {"rt": -1, "trial_type": "single-stim", "word": "slug", "stimulus": "<p id=\"stim\">SLUG</p>", "conditions": [18, 1200, "v", 18000], "internal_node_id": "0.0-28.0", "trial": 0, "time_elapsed": 940790, "serialpos": 16, "key_press": -1, "wordID": 1328, "type": "PRES_VIS", "trial_index": 37}, "uniqueid": "MTK2512:3A1COHJ8NK2X9TWB2AJ4V2P4CZB8HL", "dateTime": 1517948340386}, {"current_trial": 38, "trialdata": {"rt": -1, "trial_type": "single-stim", "word": "liver", "stimulus": "<p id=\"stim\">LIVER</p>", "conditions": [18, 1200, "v", 18000], "internal_node_id": "0.0-29.0", "trial": 0, "time_elapsed": 942984, "serialpos": 17, "key_press": -1, "wordID": 832, "type": "PRES_VIS", "trial_index": 38}, "uniqueid": "MTK2512:3A1COHJ8NK2X9TWB2AJ4V2P4CZB8HL", "dateTime": 1517948342580}, {"current_trial": 39, "trialdata": {"rt": -1, "trial_type": "single-stim", "stimulus": "", "internal_node_id": "0.0-30.0-0.0", "time_elapsed": 945218, "key_press": -1, "type": "PRE_RECALL_DELAY", "trial_index": 39}, "uniqueid": "MTK2512:3A1COHJ8NK2X9TWB2AJ4V2P4CZB8HL", "dateTime": 1517948344814}, {"current_trial": 40, "trialdata": {"rt": -1000, "trial_type": "single-audio", "stimulus": "/static/audio/400Hz.wav", "internal_node_id": "0.0-31.0", "time_elapsed": 945722, "key_press": -1, "type": "PRE_RECALL_ALERT", "trial_index": 40}, "uniqueid": "MTK2512:3A1COHJ8NK2X9TWB2AJ4V2P4CZB8HL", "dateTime": 1517948345319}, {"current_trial": 41, "trialdata": {"rt": [8278, 11488, 14015, 17511, 21523, 28141], "recwords": ["vikings", "bacon", "raft", "tourist", "humans", ""], "key_times": [4859, 5619, 5870, 6107, 6377, 6707, 7095, 8278, 9286, 9766, 10085, 10689, 10983, 11488, 12258, 12618, 12954, 13357, 14015, 14595, 15108, 15423, 15817, 16236, 16669, 16944, 17511, 18189, 18371, 18643, 19310, 19835, 20305, 21523, 28141], "trial_type": "free-recall", "conditions": [18, 1200, "v", 18000], "internal_node_id": "0.0-32.0-0.0", "key_presses": [86, 73, 75, 73, 78, 71, 83, 13, 66, 65, 67, 79, 78, 13, 82, 65, 70, 84, 13, 84, 79, 85, 82, 73, 83, 84, 13, 72, 85, 77, 65, 78, 83, 13, 13], "trial": 0, "time_elapsed": 1005723, "type": "FREE_RECALL", "trial_index": 41}, "uniqueid": "MTK2512:3A1COHJ8NK2X9TWB2AJ4V2P4CZB8HL", "dateTime": 1517948405321}, {"current_trial": 42, "trialdata": {"rt": 15552, "trial_type": "text", "internal_node_id": "0.0-33.0", "time_elapsed": 1023278, "key_press": 13, "type": "INSTRUCTIONS", "trial_index": 42}, "uniqueid": "MTK2512:3A1COHJ8NK2X9TWB2AJ4V2P4CZB8HL", "dateTime": 1517948422874}, {"current_trial": 43, "trialdata": {"rt": [17887], "trial_type": "math-distractor", "key_times": [13989, 15832, 16622, 17161, 17887], "responses": ["25"], "num2": [9, 1], "num3": [7, 1], "conditions": [18, 1200, "v", 18000], "internal_node_id": "0.0-34.0", "key_presses": [53, 8, 50, 53, 13], "trial": 1, "time_elapsed": 1043281, "type": "DISTRACTOR", "trial_index": 43, "num1": [9, 4]}, "uniqueid": "MTK2512:3A1COHJ8NK2X9TWB2AJ4V2P4CZB8HL", "dateTime": 1517948442877}, {"current_trial": 44, "trialdata": {"rt": -1, "trial_type": "single-stim", "stimulus": "<p id=\"stim\">10</p>", "internal_node_id": "0.0-35.0-0.0", "time_elapsed": 1046282, "key_press": -1, "trial_index": 44}, "uniqueid": "MTK2512:3A1COHJ8NK2X9TWB2AJ4V2P4CZB8HL", "dateTime": 1517948445878}, {"current_trial": 45, "trialdata": {"rt": -1, "trial_type": "single-stim", "stimulus": "<p id=\"stim\">9</p>", "internal_node_id": "0.0-35.0-1.0", "time_elapsed": 1047284, "key_press": -1, "trial_index": 45}, "uniqueid": "MTK2512:3A1COHJ8NK2X9TWB2AJ4V2P4CZB8HL", "dateTime": 1517948446880}, {"current_trial": 46, "trialdata": {"rt": -1, "trial_type": "single-stim", "stimulus": "<p id=\"stim\">8</p>", "internal_node_id": "0.0-35.0-2.0", "time_elapsed": 1048285, "key_press": -1, "trial_index": 46}, "uniqueid": "MTK2512:3A1COHJ8NK2X9TWB2AJ4V2P4CZB8HL", "dateTime": 1517948447882}, {"current_trial": 47, "trialdata": {"rt": -1, "trial_type": "single-stim", "stimulus": "<p id=\"stim\">7</p>", "internal_node_id": "0.0-35.0-3.0", "time_elapsed": 1049285, "key_press": -1, "trial_index": 47}, "uniqueid": "MTK2512:3A1COHJ8NK2X9TWB2AJ4V2P4CZB8HL", "dateTime": 1517948448881}, {"current_trial": 48, "trialdata": {"rt": -1, "trial_type": "single-stim", "stimulus": "<p id=\"stim\">6</p>", "internal_node_id": "0.0-35.0-4.0", "time_elapsed": 1050286, "key_press": -1, "trial_index": 48}, "uniqueid": "MTK2512:3A1COHJ8NK2X9TWB2AJ4V2P4CZB8HL", "dateTime": 1517948449882}, {"current_trial": 49, "trialdata": {"rt": -1, "trial_type": "single-stim", "stimulus": "<p id=\"stim\">5</p>", "internal_node_id": "0.0-35.0-5.0", "time_elapsed": 1051287, "key_press": -1, "trial_index": 49}, "uniqueid": "MTK2512:3A1COHJ8NK2X9TWB2AJ4V2P4CZB8HL", "dateTime": 1517948450883}, {"current_trial": 50, "trialdata": {"rt": -1, "trial_type": "single-stim", "stimulus": "<p id=\"stim\">4</p>", "internal_node_id": "0.0-35.0-6.0", "time_elapsed": 1052288, "key_press": -1, "trial_index": 50}, "uniqueid": "MTK2512:3A1COHJ8NK2X9TWB2AJ4V2P4CZB8HL", "dateTime": 1517948451884}, {"current_trial": 51, "trialdata": {"rt": -1, "trial_type": "single-stim", "stimulus": "<p id=\"stim\">3</p>", "internal_node_id": "0.0-35.0-7.0", "time_elapsed": 1053289, "key_press": -1, "trial_index": 51}, "uniqueid": "MTK2512:3A1COHJ8NK2X9TWB2AJ4V2P4CZB8HL", "dateTime": 1517948452885}, {"current_trial": 52, "trialdata": {"rt": -1, "trial_type": "single-stim", "stimulus": "<p id=\"stim\">2</p>", "internal_node_id": "0.0-35.0-8.0", "time_elapsed": 1054291, "key_press": -1, "trial_index": 52}, "uniqueid": "MTK2512:3A1COHJ8NK2X9TWB2AJ4V2P4CZB8HL", "dateTime": 1517948453887}, {"current_trial": 53, "trialdata": {"rt": -1, "trial_type": "single-stim", "stimulus": "<p id=\"stim\">1</p>", "internal_node_id": "0.0-35.0-9.0", "time_elapsed": 1055292, "key_press": -1, "trial_index": 53}, "uniqueid": "MTK2512:3A1COHJ8NK2X9TWB2AJ4V2P4CZB8HL", "dateTime": 1517948454888}, {"current_trial": 54, "trialdata": {"rt": -1, "trial_type": "single-stim", "stimulus": "<p id=\"stim\">+</p>", "internal_node_id": "0.0-36.0-0.0", "time_elapsed": 1056793, "key_press": -1, "type": "FIXATION", "trial_index": 54}, "uniqueid": "MTK2512:3A1COHJ8NK2X9TWB2AJ4V2P4CZB8HL", "dateTime": 1517948456389}, {"current_trial": 55, "trialdata": {"rt": -1, "trial_type": "single-stim", "word": "trombone", "stimulus": "<p id=\"stim\">TROMBONE</p>", "conditions": [18, 1200, "v", 18000], "internal_node_id": "0.0-37.0", "trial": 1, "time_elapsed": 1057995, "serialpos": 0, "key_press": -1, "wordID": 1507, "type": "PRES_VIS", "trial_index": 55}, "uniqueid": "MTK2512:3A1COHJ8NK2X9TWB2AJ4V2P4CZB8HL", "dateTime": 1517948457591}, {"current_trial": 56, "trialdata": {"rt": -1, "trial_type": "single-stim", "word": "pudding", "stimulus": "<p id=\"stim\">PUDDING</p>", "conditions": [18, 1200, "v", 18000], "internal_node_id": "0.0-38.0", "trial": 1, "time_elapsed": 1060160, "serialpos": 1, "key_press": -1, "wordID": 1138, "type": "PRES_VIS", "trial_index": 56}, "uniqueid": "MTK2512:3A1COHJ8NK2X9TWB2AJ4V2P4CZB8HL", "dateTime": 1517948459756}, {"current_trial": 57, "trialdata": {"rt": -1, "trial_type": "single-stim", "word": "snake", "stimulus": "<p id=\"stim\">SNAKE</p>", "conditions": [18, 1200, "v", 18000], "internal_node_id": "0.0-39.0", "trial": 1, "time_elapsed": 1062554, "serialpos": 2, "key_press": -1, "wordID": 1332, "type": "PRES_VIS", "trial_index": 57}, "uniqueid": "MTK2512:3A1COHJ8NK2X9TWB2AJ4V2P4CZB8HL", "dateTime": 1517948462150}, {"current_trial": 58, "trialdata": {"rt": -1, "trial_type": "single-stim", "word": "beaker", "stimulus": "<p id=\"stim\">BEAKER</p>", "conditions": [18, 1200, "v", 18000], "internal_node_id": "0.0-40.0", "trial": 1, "time_elapsed": 1064563, "serialpos": 3, "key_press": -1, "wordID": 103, "type": "PRES_VIS", "trial_index": 58}, "uniqueid": "MTK2512:3A1COHJ8NK2X9TWB2AJ4V2P4CZB8HL", "dateTime": 1517948464159}, {"current_trial": 59, "trialdata": {"rt": -1, "trial_type": "single-stim", "word": "cyclone", "stimulus": "<p id=\"stim\">CYCLONE</p>", "conditions": [18, 1200, "v", 18000], "internal_node_id": "0.0-41.0", "trial": 1, "time_elapsed": 1066737, "serialpos": 4, "key_press": -1, "wordID": 430, "type": "PRES_VIS", "trial_index": 59}, "uniqueid": "MTK2512:3A1COHJ8NK2X9TWB2AJ4V2P4CZB8HL", "dateTime": 1517948466333}, {"current_trial": 60, "trialdata": {"rt": -1, "trial_type": "single-stim", "word": "iceberg", "stimulus": "<p id=\"stim\">ICEBERG</p>", "conditions": [18, 1200, "v", 18000], "internal_node_id": "0.0-42.0", "trial": 1, "time_elapsed": 1069120, "serialpos": 5, "key_press": -1, "wordID": 730, "type": "PRES_VIS", "trial_index": 60}, "uniqueid": "MTK2512:3A1COHJ8NK2X9TWB2AJ4V2P4CZB8HL", "dateTime": 1517948468716}, {"current_trial": 61, "trialdata": {"rt": -1, "trial_type": "single-stim", "word": "marsh", "stimulus": "<p id=\"stim\">MARSH</p>", "conditions": [18, 1200, "v", 18000], "internal_node_id": "0.0-43.0", "trial": 1, "time_elapsed": 1071283, "serialpos": 6, "key_press": -1, "wordID": 873, "type": "PRES_VIS", "trial_index": 61}, "uniqueid": "MTK2512:3A1COHJ8NK2X9TWB2AJ4V2P4CZB8HL", "dateTime": 1517948470879}, {"current_trial": 62, "trialdata": {"rt": -1, "trial_type": "single-stim", "word": "nightgown", "stimulus": "<p id=\"stim\">NIGHTGOWN</p>", "conditions": [18, 1200, "v", 18000], "internal_node_id": "0.0-44.0", "trial": 1, "time_elapsed": 1073561, "serialpos": 7, "key_press": -1, "wordID": 952, "type": "PRES_VIS", "trial_index": 62}, "uniqueid": "MTK2512:3A1COHJ8NK2X9TWB2AJ4V2P4CZB8HL", "dateTime": 1517948473157}, {"current_trial": 63, "trialdata": {"rt": -1, "trial_type": "single-stim", "word": "sausage", "stimulus": "<p id=\"stim\">SAUSAGE</p>", "conditions": [18, 1200, "v", 18000], "internal_node_id": "0.0-45.0", "trial": 1, "time_elapsed": 1075843, "serialpos": 8, "key_press": -1, "wordID": 1237, "type": "PRES_VIS", "trial_index": 63}, "uniqueid": "MTK2512:3A1COHJ8NK2X9TWB2AJ4V2P4CZB8HL", "dateTime": 1517948475439}, {"current_trial": 64, "trialdata": {"rt": -1, "trial_type": "single-stim", "word": "cottage", "stimulus": "<p id=\"stim\">COTTAGE</p>", "conditions": [18, 1200, "v", 18000], "internal_node_id": "0.0-46.0", "trial": 1, "time_elapsed": 1077984, "serialpos": 9, "key_press": -1, "wordID": 383, "type": "PRES_VIS", "trial_index": 64}, "uniqueid": "MTK2512:3A1COHJ8NK2X9TWB2AJ4V2P4CZB8HL", "dateTime": 1517948477581}, {"current_trial": 65, "trialdata": {"rt": -1, "trial_type": "single-stim", "word": "pilot", "stimulus": "<p id=\"stim\">PILOT</p>", "conditions": [18, 1200, "v", 18000], "internal_node_id": "0.0-47.0", "trial": 1, "time_elapsed": 1080100, "serialpos": 10, "key_press": -1, "wordID": 1069, "type": "PRES_VIS", "trial_index": 65}, "uniqueid": "MTK2512:3A1COHJ8NK2X9TWB2AJ4V2P4CZB8HL", "dateTime": 1517948479696}, {"current_trial": 66, "trialdata": {"rt": -1, "trial_type": "single-stim", "word": "banquet", "stimulus": "<p id=\"stim\">BANQUET</p>", "conditions": [18, 1200, "v", 18000], "internal_node_id": "0.0-48.0", "trial": 1, "time_elapsed": 1082313, "serialpos": 11, "key_press": -1, "wordID": 85, "type": "PRES_VIS", "trial_index": 66}, "uniqueid": "MTK2512:3A1COHJ8NK2X9TWB2AJ4V2P4CZB8HL", "dateTime": 1517948481910}, {"current_trial": 67, "trialdata": {"rt": -1, "trial_type": "single-stim", "word": "twig", "stimulus": "<p id=\"stim\">TWIG</p>", "conditions": [18, 1200, "v", 18000], "internal_node_id": "0.0-49.0", "trial": 1, "time_elapsed": 1084376, "serialpos": 12, "key_press": -1, "wordID": 1526, "type": "PRES_VIS", "trial_index": 67}, "uniqueid": "MTK2512:3A1COHJ8NK2X9TWB2AJ4V2P4CZB8HL", "dateTime": 1517948483972}, {"current_trial": 68, "trialdata": {"rt": -1, "trial_type": "single-stim", "word": "patient", "stimulus": "<p id=\"stim\">PATIENT</p>", "conditions": [18, 1200, "v", 18000], "internal_node_id": "0.0-50.0", "trial": 1, "time_elapsed": 1086410, "serialpos": 13, "key_press": -1, "wordID": 1023, "type": "PRES_VIS", "trial_index": 68}, "uniqueid": "MTK2512:3A1COHJ8NK2X9TWB2AJ4V2P4CZB8HL", "dateTime": 1517948486007}, {"current_trial": 69, "trialdata": {"rt": -1, "trial_type": "single-stim", "word": "napkin", "stimulus": "<p id=\"stim\">NAPKIN</p>", "conditions": [18, 1200, "v", 18000], "internal_node_id": "0.0-51.0", "trial": 1, "time_elapsed": 1088507, "serialpos": 14, "key_press": -1, "wordID": 936, "type": "PRES_VIS", "trial_index": 69}, "uniqueid": "MTK2512:3A1COHJ8NK2X9TWB2AJ4V2P4CZB8HL", "dateTime": 1517948488103}, {"current_trial": 70, "trialdata": {"rt": -1, "trial_type": "single-stim", "word": "typist", "stimulus": "<p id=\"stim\">TYPIST</p>", "conditions": [18, 1200, "v", 18000], "internal_node_id": "0.0-52.0", "trial": 1, "time_elapsed": 1090665, "serialpos": 15, "key_press": -1, "wordID": 1531, "type": "PRES_VIS", "trial_index": 70}, "uniqueid": "MTK2512:3A1COHJ8NK2X9TWB2AJ4V2P4CZB8HL", "dateTime": 1517948490261}, {"current_trial": 71, "trialdata": {"rt": -1, "trial_type": "single-stim", "word": "stream", "stimulus": "<p id=\"stim\">STREAM</p>", "conditions": [18, 1200, "v", 18000], "internal_node_id": "0.0-53.0", "trial": 1, "time_elapsed": 1092694, "serialpos": 16, "key_press": -1, "wordID": 1391, "type": "PRES_VIS", "trial_index": 71}, "uniqueid": "MTK2512:3A1COHJ8NK2X9TWB2AJ4V2P4CZB8HL", "dateTime": 1517948492290}, {"current_trial": 72, "trialdata": {"rt": -1, "trial_type": "single-stim", "word": "box", "stimulus": "<p id=\"stim\">BOX</p>", "conditions": [18, 1200, "v", 18000], "internal_node_id": "0.0-54.0", "trial": 1, "time_elapsed": 1094824, "serialpos": 17, "key_press": -1, "wordID": 158, "type": "PRES_VIS", "trial_index": 72}, "uniqueid": "MTK2512:3A1COHJ8NK2X9TWB2AJ4V2P4CZB8HL", "dateTime": 1517948494420}, {"current_trial": 73, "trialdata": {"rt": -1, "trial_type": "single-stim", "stimulus": "", "internal_node_id": "0.0-55.0-0.0", "time_elapsed": 1097129, "key_press": -1, "type": "PRE_RECALL_DELAY", "trial_index": 73}, "uniqueid": "MTK2512:3A1COHJ8NK2X9TWB2AJ4V2P4CZB8HL", "dateTime": 1517948496725}, {"current_trial": 74, "trialdata": {"rt": -1000, "trial_type": "single-audio", "stimulus": "/static/audio/400Hz.wav", "internal_node_id": "0.0-56.0", "time_elapsed": 1097630, "key_press": -1, "type": "PRE_RECALL_ALERT", "trial_index": 74}, "uniqueid": "MTK2512:3A1COHJ8NK2X9TWB2AJ4V2P4CZB8HL", "dateTime": 1517948497226}, {"current_trial": 75, "trialdata": {"rt": [6807, 11765, 17221, 20602, 23494, 28613, 31614, 35872], "recwords": ["trombone", "snake", "cyclone", "stream", "box", "pilot", "twig", "patient"], "key_times": [2809, 3071, 3672, 3905, 4243, 4667, 4949, 5373, 6807, 8694, 9156, 9666, 10225, 10665, 11765, 14187, 14567, 14847, 15275, 15510, 15759, 16218, 17221, 18057, 18458, 18693, 18944, 19214, 19779, 20602, 21103, 21809, 22370, 23494, 26295, 26574, 26875, 27089, 27477, 28613, 29421, 29822, 30411, 30774, 31614, 31934, 32740, 33206, 33626, 34090, 34511, 34905, 35872], "trial_type": "free-recall", "conditions": [18, 1200, "v", 18000], "internal_node_id": "0.0-57.0-0.0", "key_presses": [84, 82, 79, 77, 66, 79, 78, 69, 13, 83, 78, 65, 75, 69, 13, 67, 89, 67, 76, 79, 78, 69, 13, 83, 84, 82, 69, 65, 77, 13, 66, 79, 88, 13, 80, 73, 76, 79, 84, 13, 84, 87, 73, 71, 13, 80, 65, 84, 73, 69, 78, 84, 13], "trial": 1, "time_elapsed": 1157631, "type": "FREE_RECALL", "trial_index": 75}, "uniqueid": "MTK2512:3A1COHJ8NK2X9TWB2AJ4V2P4CZB8HL", "dateTime": 1517948557228}, {"current_trial": 76, "trialdata": {"rt": 4765, "trial_type": "text", "internal_node_id": "0.0-58.0", "time_elapsed": 1164398, "key_press": 13, "type": "INSTRUCTIONS", "trial_index": 76}, "uniqueid": "MTK2512:3A1COHJ8NK2X9TWB2AJ4V2P4CZB8HL", "dateTime": 1517948563994}, {"current_trial": 77, "trialdata": {"rt": [], "trial_type": "math-distractor", "key_times": [], "responses": [], "num2": [8], "num3": [4], "conditions": [12, 800, "v", 12000], "internal_node_id": "0.0-59.0", "key_presses": [], "trial": 2, "time_elapsed": 1177399, "type": "DISTRACTOR", "trial_index": 77, "num1": [7]}, "uniqueid": "MTK2512:3A1COHJ8NK2X9TWB2AJ4V2P4CZB8HL", "dateTime": 1517948576995}, {"current_trial": 78, "trialdata": {"rt": -1, "trial_type": "single-stim", "stimulus": "<p id=\"stim\">10</p>", "internal_node_id": "0.0-60.0-0.0", "time_elapsed": 1180401, "key_press": -1, "trial_index": 78}, "uniqueid": "MTK2512:3A1COHJ8NK2X9TWB2AJ4V2P4CZB8HL", "dateTime": 1517948579997}, {"current_trial": 79, "trialdata": {"rt": -1, "trial_type": "single-stim", "stimulus": "<p id=\"stim\">9</p>", "internal_node_id": "0.0-60.0-1.0", "time_elapsed": 1181402, "key_press": -1, "trial_index": 79}, "uniqueid": "MTK2512:3A1COHJ8NK2X9TWB2AJ4V2P4CZB8HL", "dateTime": 1517948580998}, {"current_trial": 80, "trialdata": {"rt": -1, "trial_type": "single-stim", "stimulus": "<p id=\"stim\">8</p>", "internal_node_id": "0.0-60.0-2.0", "time_elapsed": 1182403, "key_press": -1, "trial_index": 80}, "uniqueid": "MTK2512:3A1COHJ8NK2X9TWB2AJ4V2P4CZB8HL", "dateTime": 1517948581999}, {"current_trial": 81, "trialdata": {"rt": -1, "trial_type": "single-stim", "stimulus": "<p id=\"stim\">7</p>", "internal_node_id": "0.0-60.0-3.0", "time_elapsed": 1183405, "key_press": -1, "trial_index": 81}, "uniqueid": "MTK2512:3A1COHJ8NK2X9TWB2AJ4V2P4CZB8HL", "dateTime": 1517948583001}, {"current_trial": 82, "trialdata": {"rt": -1, "trial_type": "single-stim", "stimulus": "<p id=\"stim\">6</p>", "internal_node_id": "0.0-60.0-4.0", "time_elapsed": 1184406, "key_press": -1, "trial_index": 82}, "uniqueid": "MTK2512:3A1COHJ8NK2X9TWB2AJ4V2P4CZB8HL", "dateTime": 1517948584002}, {"current_trial": 83, "trialdata": {"rt": -1, "trial_type": "single-stim", "stimulus": "<p id=\"stim\">5</p>", "internal_node_id": "0.0-60.0-5.0", "time_elapsed": 1185406, "key_press": -1, "trial_index": 83}, "uniqueid": "MTK2512:3A1COHJ8NK2X9TWB2AJ4V2P4CZB8HL", "dateTime": 1517948585002}, {"current_trial": 84, "trialdata": {"rt": -1, "trial_type": "single-stim", "stimulus": "<p id=\"stim\">4</p>", "internal_node_id": "0.0-60.0-6.0", "time_elapsed": 1186408, "key_press": -1, "trial_index": 84}, "uniqueid": "MTK2512:3A1COHJ8NK2X9TWB2AJ4V2P4CZB8HL", "dateTime": 1517948586004}, {"current_trial": 85, "trialdata": {"rt": -1, "trial_type": "single-stim", "stimulus": "<p id=\"stim\">3</p>", "internal_node_id": "0.0-60.0-7.0", "time_elapsed": 1187409, "key_press": -1, "trial_index": 85}, "uniqueid": "MTK2512:3A1COHJ8NK2X9TWB2AJ4V2P4CZB8HL", "dateTime": 1517948587005}, {"current_trial": 86, "trialdata": {"rt": -1, "trial_type": "single-stim", "stimulus": "<p id=\"stim\">2</p>", "internal_node_id": "0.0-60.0-8.0", "time_elapsed": 1188411, "key_press": -1, "trial_index": 86}, "uniqueid": "MTK2512:3A1COHJ8NK2X9TWB2AJ4V2P4CZB8HL", "dateTime": 1517948588007}, {"current_trial": 87, "trialdata": {"rt": -1, "trial_type": "single-stim", "stimulus": "<p id=\"stim\">1</p>", "internal_node_id": "0.0-60.0-9.0", "time_elapsed": 1189411, "key_press": -1, "trial_index": 87}, "uniqueid": "MTK2512:3A1COHJ8NK2X9TWB2AJ4V2P4CZB8HL", "dateTime": 1517948589008}, {"current_trial": 88, "trialdata": {"rt": -1, "trial_type": "single-stim", "stimulus": "<p id=\"stim\">+</p>", "internal_node_id": "0.0-61.0-0.0", "time_elapsed": 1190912, "key_press": -1, "type": "FIXATION", "trial_index": 88}, "uniqueid": "MTK2512:3A1COHJ8NK2X9TWB2AJ4V2P4CZB8HL", "dateTime": 1517948590509}, {"current_trial": 89, "trialdata": {"rt": -1, "trial_type": "single-stim", "word": "shelter", "stimulus": "<p id=\"stim\">SHELTER</p>", "conditions": [12, 800, "v", 12000], "internal_node_id": "0.0-62.0", "trial": 2, "time_elapsed": 1191713, "serialpos": 0, "key_press": -1, "wordID": 1281, "type": "PRES_VIS", "trial_index": 89}, "uniqueid": "MTK2512:3A1COHJ8NK2X9TWB2AJ4V2P4CZB8HL", "dateTime": 1517948591309}, {"current_trial": 90, "trialdata": {"rt": -1, "trial_type": "single-stim", "word": "sidewalk", "stimulus": "<p id=\"stim\">SIDEWALK</p>", "conditions": [12, 800, "v", 12000], "internal_node_id": "0.0-63.0", "trial": 2, "time_elapsed": 1193485, "serialpos": 1, "key_press": -1, "wordID": 1302, "type": "PRES_VIS", "trial_index": 90}, "uniqueid": "MTK2512:3A1COHJ8NK2X9TWB2AJ4V2P4CZB8HL", "dateTime": 1517948593081}, {"current_trial": 91, "trialdata": {"rt": -1, "trial_type": "single-stim", "word": "headband", "stimulus": "<p id=\"stim\">HEADBAND</p>", "conditions": [12, 800, "v", 12000], "internal_node_id": "0.0-64.0", "trial": 2, "time_elapsed": 1195092, "serialpos": 2, "key_press": -1, "wordID": 695, "type": "PRES_VIS", "trial_index": 91}, "uniqueid": "MTK2512:3A1COHJ8NK2X9TWB2AJ4V2P4CZB8HL", "dateTime": 1517948594688}, {"current_trial": 92, "trialdata": {"rt": -1, "trial_type": "single-stim", "word": "skirt", "stimulus": "<p id=\"stim\">SKIRT</p>", "conditions": [12, 800, "v", 12000], "internal_node_id": "0.0-65.0", "trial": 2, "time_elapsed": 1196953, "serialpos": 3, "key_press": -1, "wordID": 1318, "type": "PRES_VIS", "trial_index": 92}, "uniqueid": "MTK2512:3A1COHJ8NK2X9TWB2AJ4V2P4CZB8HL", "dateTime": 1517948596549}, {"current_trial": 93, "trialdata": {"rt": -1, "trial_type": "single-stim", "word": "orchid", "stimulus": "<p id=\"stim\">ORCHID</p>", "conditions": [12, 800, "v", 12000], "internal_node_id": "0.0-66.0", "trial": 2, "time_elapsed": 1198558, "serialpos": 4, "key_press": -1, "wordID": 981, "type": "PRES_VIS", "trial_index": 93}, "uniqueid": "MTK2512:3A1COHJ8NK2X9TWB2AJ4V2P4CZB8HL", "dateTime": 1517948598154}, {"current_trial": 94, "trialdata": {"rt": -1, "trial_type": "single-stim", "word": "garden", "stimulus": "<p id=\"stim\">GARDEN</p>", "conditions": [12, 800, "v", 12000], "internal_node_id": "0.0-67.0", "trial": 2, "time_elapsed": 1200180, "serialpos": 5, "key_press": -1, "wordID": 622, "type": "PRES_VIS", "trial_index": 94}, "uniqueid": "MTK2512:3A1COHJ8NK2X9TWB2AJ4V2P4CZB8HL", "dateTime": 1517948599776}, {"current_trial": 95, "trialdata": {"rt": -1, "trial_type": "single-stim", "word": "chapel", "stimulus": "<p id=\"stim\">CHAPEL</p>", "conditions": [12, 800, "v", 12000], "internal_node_id": "0.0-68.0", "trial": 2, "time_elapsed": 1201803, "serialpos": 6, "key_press": -1, "wordID": 279, "type": "PRES_VIS", "trial_index": 95}, "uniqueid": "MTK2512:3A1COHJ8NK2X9TWB2AJ4V2P4CZB8HL", "dateTime": 1517948601399}, {"current_trial": 96, "trialdata": {"rt": -1, "trial_type": "single-stim", "word": "blouse", "stimulus": "<p id=\"stim\">BLOUSE</p>", "conditions": [12, 800, "v", 12000], "internal_node_id": "0.0-69.0", "trial": 2, "time_elapsed": 1203435, "serialpos": 7, "key_press": -1, "wordID": 138, "type": "PRES_VIS", "trial_index": 96}, "uniqueid": "MTK2512:3A1COHJ8NK2X9TWB2AJ4V2P4CZB8HL", "dateTime": 1517948603031}, {"current_trial": 97, "trialdata": {"rt": -1, "trial_type": "single-stim", "word": "football", "stimulus": "<p id=\"stim\">FOOTBALL</p>", "conditions": [12, 800, "v", 12000], "internal_node_id": "0.0-70.0", "trial": 2, "time_elapsed": 1205432, "serialpos": 8, "key_press": -1, "wordID": 590, "type": "PRES_VIS", "trial_index": 97}, "uniqueid": "MTK2512:3A1COHJ8NK2X9TWB2AJ4V2P4CZB8HL", "dateTime": 1517948605028}, {"current_trial": 98, "trialdata": {"rt": -1, "trial_type": "single-stim", "word": "playground", "stimulus": "<p id=\"stim\">PLAYGROUND</p>", "conditions": [12, 800, "v", 12000], "internal_node_id": "0.0-71.0", "trial": 2, "time_elapsed": 1207250, "serialpos": 9, "key_press": -1, "wordID": 1086, "type": "PRES_VIS", "trial_index": 98}, "uniqueid": "MTK2512:3A1COHJ8NK2X9TWB2AJ4V2P4CZB8HL", "dateTime": 1517948606846}, {"current_trial": 99, "trialdata": {"rt": -1, "trial_type": "single-stim", "word": "clothes", "stimulus": "<p id=\"stim\">CLOTHES</p>", "conditions": [12, 800, "v", 12000], "internal_node_id": "0.0-72.0", "trial": 2, "time_elapsed": 1208985, "serialpos": 10, "key_press": -1, "wordID": 326, "type": "PRES_VIS", "trial_index": 99}, "uniqueid": "MTK2512:3A1COHJ8NK2X9TWB2AJ4V2P4CZB8HL", "dateTime": 1517948608581}, {"current_trial": 100, "trialdata": {"rt": -1, "trial_type": "single-stim", "word": "flashlight", "stimulus": "<p id=\"stim\">FLASHLIGHT</p>", "conditions": [12, 800, "v", 12000], "internal_node_id": "0.0-73.0", "trial": 2, "time_elapsed": 1210603, "serialpos": 11, "key_press": -1, "wordID": 574, "type": "PRES_VIS", "trial_index": 100}, "uniqueid": "MTK2512:3A1COHJ8NK2X9TWB2AJ4V2P4CZB8HL", "dateTime": 1517948610199}, {"current_trial": 101, "trialdata": {"rt": -1, "trial_type": "single-stim", "stimulus": "", "internal_node_id": "0.0-74.0-0.0", "time_elapsed": 1212881, "key_press": -1, "type": "PRE_RECALL_DELAY", "trial_index": 101}, "uniqueid": "MTK2512:3A1COHJ8NK2X9TWB2AJ4V2P4CZB8HL", "dateTime": 1517948612477}, {"current_trial": 102, "trialdata": {"rt": -1000, "trial_type": "single-audio", "stimulus": "/static/audio/400Hz.wav", "internal_node_id": "0.0-75.0", "time_elapsed": 1213386, "key_press": -1, "type": "PRE_RECALL_ALERT", "trial_index": 102}, "uniqueid": "MTK2512:3A1COHJ8NK2X9TWB2AJ4V2P4CZB8HL", "dateTime": 1517948612982}, {"current_trial": 103, "trialdata": {"rt": [5973, 11151, 17576, 24379, 29624, 34122], "recwords": ["shelter", "sidewalk", "skirt", "football", "close", "flashlight"], "key_times": [2119, 2820, 3216, 3807, 4489, 4820, 5075, 5973, 7322, 7897, 8349, 8610, 8882, 9134, 9789, 10007, 11151, 12126, 12622, 13951, 14147, 14905, 15461, 15754, 16265, 16490, 17576, 21002, 21465, 21705, 22104, 22675, 23195, 23825, 24063, 24379, 25814, 26848, 27132, 28621, 28870, 29624, 30144, 30603, 31184, 31383, 31847, 32266, 32562, 32856, 33110, 33396, 34122], "trial_type": "free-recall", "conditions": [12, 800, "v", 12000], "internal_node_id": "0.0-76.0-0.0", "key_presses": [83, 72, 69, 76, 84, 69, 82, 13, 83, 73, 68, 69, 87, 65, 76, 75, 13, 72, 69, 8, 8, 83, 75, 73, 82, 84, 13, 70, 79, 79, 84, 66, 65, 76, 76, 13, 67, 76, 79, 83, 69, 13, 70, 76, 65, 83, 72, 76, 73, 71, 72, 84, 13], "trial": 2, "time_elapsed": 1273389, "type": "FREE_RECALL", "trial_index": 103}, "uniqueid": "MTK2512:3A1COHJ8NK2X9TWB2AJ4V2P4CZB8HL", "dateTime": 1517948672986}, {"current_trial": 104, "trialdata": {"rt": 2418, "trial_type": "text", "internal_node_id": "0.0-77.0", "time_elapsed": 1277808, "key_press": 13, "type": "INSTRUCTIONS", "trial_index": 104}, "uniqueid": "MTK2512:3A1COHJ8NK2X9TWB2AJ4V2P4CZB8HL", "dateTime": 1517948677404}, {"current_trial": 105, "trialdata": {"rt": [6880], "trial_type": "math-distractor", "key_times": [5410, 6045, 6880], "responses": ["13"], "num2": [5, 1], "num3": [1, 8], "conditions": [24, 800, "v", 12000], "internal_node_id": "0.0-78.0", "key_presses": [49, 51, 13], "trial": 3, "time_elapsed": 1291811, "type": "DISTRACTOR", "trial_index": 105, "num1": [7, 7]}, "uniqueid": "MTK2512:3A1COHJ8NK2X9TWB2AJ4V2P4CZB8HL", "dateTime": 1517948691407}, {"current_trial": 106, "trialdata": {"rt": -1, "trial_type": "single-stim", "stimulus": "<p id=\"stim\">10</p>", "internal_node_id": "0.0-79.0-0.0", "time_elapsed": 1294813, "key_press": -1, "trial_index": 106}, "uniqueid": "MTK2512:3A1COHJ8NK2X9TWB2AJ4V2P4CZB8HL", "dateTime": 1517948694409}, {"current_trial": 107, "trialdata": {"rt": -1, "trial_type": "single-stim", "stimulus": "<p id=\"stim\">9</p>", "internal_node_id": "0.0-79.0-1.0", "time_elapsed": 1295815, "key_press": -1, "trial_index": 107}, "uniqueid": "MTK2512:3A1COHJ8NK2X9TWB2AJ4V2P4CZB8HL", "dateTime": 1517948695411}, {"current_trial": 108, "trialdata": {"rt": -1, "trial_type": "single-stim", "stimulus": "<p id=\"stim\">8</p>", "internal_node_id": "0.0-79.0-2.0", "time_elapsed": 1296815, "key_press": -1, "trial_index": 108}, "uniqueid": "MTK2512:3A1COHJ8NK2X9TWB2AJ4V2P4CZB8HL", "dateTime": 1517948696411}, {"current_trial": 109, "trialdata": {"rt": -1, "trial_type": "single-stim", "stimulus": "<p id=\"stim\">7</p>", "internal_node_id": "0.0-79.0-3.0", "time_elapsed": 1297816, "key_press": -1, "trial_index": 109}, "uniqueid": "MTK2512:3A1COHJ8NK2X9TWB2AJ4V2P4CZB8HL", "dateTime": 1517948697412}, {"current_trial": 110, "trialdata": {"rt": -1, "trial_type": "single-stim", "stimulus": "<p id=\"stim\">6</p>", "internal_node_id": "0.0-79.0-4.0", "time_elapsed": 1298818, "key_press": -1, "trial_index": 110}, "uniqueid": "MTK2512:3A1COHJ8NK2X9TWB2AJ4V2P4CZB8HL", "dateTime": 1517948698414}, {"current_trial": 111, "trialdata": {"rt": -1, "trial_type": "single-stim", "stimulus": "<p id=\"stim\">5</p>", "internal_node_id": "0.0-79.0-5.0", "time_elapsed": 1299820, "key_press": -1, "trial_index": 111}, "uniqueid": "MTK2512:3A1COHJ8NK2X9TWB2AJ4V2P4CZB8HL", "dateTime": 1517948699416}, {"current_trial": 112, "trialdata": {"rt": -1, "trial_type": "single-stim", "stimulus": "<p id=\"stim\">4</p>", "internal_node_id": "0.0-79.0-6.0", "time_elapsed": 1300822, "key_press": -1, "trial_index": 112}, "uniqueid": "MTK2512:3A1COHJ8NK2X9TWB2AJ4V2P4CZB8HL", "dateTime": 1517948700418}, {"current_trial": 113, "trialdata": {"rt": -1, "trial_type": "single-stim", "stimulus": "<p id=\"stim\">3</p>", "internal_node_id": "0.0-79.0-7.0", "time_elapsed": 1301824, "key_press": -1, "trial_index": 113}, "uniqueid": "MTK2512:3A1COHJ8NK2X9TWB2AJ4V2P4CZB8HL", "dateTime": 1517948701420}, {"current_trial": 114, "trialdata": {"rt": -1, "trial_type": "single-stim", "stimulus": "<p id=\"stim\">2</p>", "internal_node_id": "0.0-79.0-8.0", "time_elapsed": 1302824, "key_press": -1, "trial_index": 114}, "uniqueid": "MTK2512:3A1COHJ8NK2X9TWB2AJ4V2P4CZB8HL", "dateTime": 1517948702420}, {"current_trial": 115, "trialdata": {"rt": -1, "trial_type": "single-stim", "stimulus": "<p id=\"stim\">1</p>", "internal_node_id": "0.0-79.0-9.0", "time_elapsed": 1303825, "key_press": -1, "trial_index": 115}, "uniqueid": "MTK2512:3A1COHJ8NK2X9TWB2AJ4V2P4CZB8HL", "dateTime": 1517948703421}, {"current_trial": 116, "trialdata": {"rt": -1, "trial_type": "single-stim", "stimulus": "<p id=\"stim\">+</p>", "internal_node_id": "0.0-80.0-0.0", "time_elapsed": 1305327, "key_press": -1, "type": "FIXATION", "trial_index": 116}, "uniqueid": "MTK2512:3A1COHJ8NK2X9TWB2AJ4V2P4CZB8HL", "dateTime": 1517948704923}, {"current_trial": 117, "trialdata": {"rt": -1, "trial_type": "single-stim", "word": "college", "stimulus": "<p id=\"stim\">COLLEGE</p>", "conditions": [24, 800, "v", 12000], "internal_node_id": "0.0-81.0", "trial": 3, "time_elapsed": 1306129, "serialpos": 0, "key_press": -1, "wordID": 345, "type": "PRES_VIS", "trial_index": 117}, "uniqueid": "MTK2512:3A1COHJ8NK2X9TWB2AJ4V2P4CZB8HL", "dateTime": 1517948705725}, {"current_trial": 118, "trialdata": {"rt": -1, "trial_type": "single-stim", "word": "rooster", "stimulus": "<p id=\"stim\">ROOSTER</p>", "conditions": [24, 800, "v", 12000], "internal_node_id": "0.0-82.0", "trial": 3, "time_elapsed": 1307905, "serialpos": 1, "key_press": -1, "wordID": 1208, "type": "PRES_VIS", "trial_index": 118}, "uniqueid": "MTK2512:3A1COHJ8NK2X9TWB2AJ4V2P4CZB8HL", "dateTime": 1517948707501}, {"current_trial": 119, "trialdata": {"rt": -1, "trial_type": "single-stim", "word": "brook", "stimulus": "<p id=\"stim\">BROOK</p>", "conditions": [24, 800, "v", 12000], "internal_node_id": "0.0-83.0", "trial": 3, "time_elapsed": 1309836, "serialpos": 2, "key_press": -1, "wordID": 176, "type": "PRES_VIS", "trial_index": 119}, "uniqueid": "MTK2512:3A1COHJ8NK2X9TWB2AJ4V2P4CZB8HL", "dateTime": 1517948709432}, {"current_trial": 120, "trialdata": {"rt": -1, "trial_type": "single-stim", "word": "lodge", "stimulus": "<p id=\"stim\">LODGE</p>", "conditions": [24, 800, "v", 12000], "internal_node_id": "0.0-84.0", "trial": 3, "time_elapsed": 1311564, "serialpos": 3, "key_press": -1, "wordID": 838, "type": "PRES_VIS", "trial_index": 120}, "uniqueid": "MTK2512:3A1COHJ8NK2X9TWB2AJ4V2P4CZB8HL", "dateTime": 1517948711160}, {"current_trial": 121, "trialdata": {"rt": -1, "trial_type": "single-stim", "word": "panther", "stimulus": "<p id=\"stim\">PANTHER</p>", "conditions": [24, 800, "v", 12000], "internal_node_id": "0.0-85.0", "trial": 3, "time_elapsed": 1313405, "serialpos": 4, "key_press": -1, "wordID": 1008, "type": "PRES_VIS", "trial_index": 121}, "uniqueid": "MTK2512:3A1COHJ8NK2X9TWB2AJ4V2P4CZB8HL", "dateTime": 1517948713001}, {"current_trial": 122, "trialdata": {"rt": -1, "trial_type": "single-stim", "word": "turtle", "stimulus": "<p id=\"stim\">TURTLE</p>", "conditions": [24, 800, "v", 12000], "internal_node_id": "0.0-86.0", "trial": 3, "time_elapsed": 1315363, "serialpos": 5, "key_press": -1, "wordID": 1521, "type": "PRES_VIS", "trial_index": 122}, "uniqueid": "MTK2512:3A1COHJ8NK2X9TWB2AJ4V2P4CZB8HL", "dateTime": 1517948714959}, {"current_trial": 123, "trialdata": {"rt": -1, "trial_type": "single-stim", "word": "lake", "stimulus": "<p id=\"stim\">LAKE</p>", "conditions": [24, 800, "v", 12000], "internal_node_id": "0.0-87.0", "trial": 3, "time_elapsed": 1317113, "serialpos": 6, "key_press": -1, "wordID": 795, "type": "PRES_VIS", "trial_index": 123}, "uniqueid": "MTK2512:3A1COHJ8NK2X9TWB2AJ4V2P4CZB8HL", "dateTime": 1517948716709}, {"current_trial": 124, "trialdata": {"rt": -1, "trial_type": "single-stim", "word": "notebook", "stimulus": "<p id=\"stim\">NOTEBOOK</p>", "conditions": [24, 800, "v", 12000], "internal_node_id": "0.0-88.0", "trial": 3, "time_elapsed": 1318946, "serialpos": 7, "key_press": -1, "wordID": 958, "type": "PRES_VIS", "trial_index": 124}, "uniqueid": "MTK2512:3A1COHJ8NK2X9TWB2AJ4V2P4CZB8HL", "dateTime": 1517948718542}, {"current_trial": 125, "trialdata": {"rt": -1, "trial_type": "single-stim", "word": "salmon", "stimulus": "<p id=\"stim\">SALMON</p>", "conditions": [24, 800, "v", 12000], "internal_node_id": "0.0-89.0", "trial": 3, "time_elapsed": 1320910, "serialpos": 8, "key_press": -1, "wordID": 1226, "type": "PRES_VIS", "trial_index": 125}, "uniqueid": "MTK2512:3A1COHJ8NK2X9TWB2AJ4V2P4CZB8HL", "dateTime": 1517948720506}, {"current_trial": 126, "trialdata": {"rt": -1, "trial_type": "single-stim", "word": "coin", "stimulus": "<p id=\"stim\">COIN</p>", "conditions": [24, 800, "v", 12000], "internal_node_id": "0.0-90.0", "trial": 3, "time_elapsed": 1322609, "serialpos": 9, "key_press": -1, "wordID": 342, "type": "PRES_VIS", "trial_index": 126}, "uniqueid": "MTK2512:3A1COHJ8NK2X9TWB2AJ4V2P4CZB8HL", "dateTime": 1517948722205}, {"current_trial": 127, "trialdata": {"rt": -1, "trial_type": "single-stim", "word": "river", "stimulus": "<p id=\"stim\">RIVER</p>", "conditions": [24, 800, "v", 12000], "internal_node_id": "0.0-91.0", "trial": 3, "time_elapsed": 1324453, "serialpos": 10, "key_press": -1, "wordID": 1193, "type": "PRES_VIS", "trial_index": 127}, "uniqueid": "MTK2512:3A1COHJ8NK2X9TWB2AJ4V2P4CZB8HL", "dateTime": 1517948724049}, {"current_trial": 128, "trialdata": {"rt": -1, "trial_type": "single-stim", "word": "child", "stimulus": "<p id=\"stim\">CHILD</p>", "conditions": [24, 800, "v", 12000], "internal_node_id": "0.0-92.0", "trial": 3, "time_elapsed": 1326405, "serialpos": 11, "key_press": -1, "wordID": 298, "type": "PRES_VIS", "trial_index": 128}, "uniqueid": "MTK2512:3A1COHJ8NK2X9TWB2AJ4V2P4CZB8HL", "dateTime": 1517948726001}, {"current_trial": 129, "trialdata": {"rt": -1, "trial_type": "single-stim", "word": "london", "stimulus": "<p id=\"stim\">LONDON</p>", "conditions": [24, 800, "v", 12000], "internal_node_id": "0.0-93.0", "trial": 3, "time_elapsed": 1328196, "serialpos": 12, "key_press": -1, "wordID": 842, "type": "PRES_VIS", "trial_index": 129}, "uniqueid": "MTK2512:3A1COHJ8NK2X9TWB2AJ4V2P4CZB8HL", "dateTime": 1517948727792}, {"current_trial": 130, "trialdata": {"rt": -1, "trial_type": "single-stim", "word": "puppy", "stimulus": "<p id=\"stim\">PUPPY</p>", "conditions": [24, 800, "v", 12000], "internal_node_id": "0.0-94.0", "trial": 3, "time_elapsed": 1330183, "serialpos": 13, "key_press": -1, "wordID": 1143, "type": "PRES_VIS", "trial_index": 130}, "uniqueid": "MTK2512:3A1COHJ8NK2X9TWB2AJ4V2P4CZB8HL", "dateTime": 1517948729779}, {"current_trial": 131, "trialdata": {"rt": -1, "trial_type": "single-stim", "word": "dentist", "stimulus": "<p id=\"stim\">DENTIST</p>", "conditions": [24, 800, "v", 12000], "internal_node_id": "0.0-95.0", "trial": 3, "time_elapsed": 1331976, "serialpos": 14, "key_press": -1, "wordID": 446, "type": "PRES_VIS", "trial_index": 131}, "uniqueid": "MTK2512:3A1COHJ8NK2X9TWB2AJ4V2P4CZB8HL", "dateTime": 1517948731572}, {"current_trial": 132, "trialdata": {"rt": -1, "trial_type": "single-stim", "word": "antler", "stimulus": "<p id=\"stim\">ANTLER</p>", "conditions": [24, 800, "v", 12000], "internal_node_id": "0.0-96.0", "trial": 3, "time_elapsed": 1333760, "serialpos": 15, "key_press": -1, "wordID": 28, "type": "PRES_VIS", "trial_index": 132}, "uniqueid": "MTK2512:3A1COHJ8NK2X9TWB2AJ4V2P4CZB8HL", "dateTime": 1517948733356}, {"current_trial": 133, "trialdata": {"rt": -1, "trial_type": "single-stim", "word": "sticker", "stimulus": "<p id=\"stim\">STICKER</p>", "conditions": [24, 800, "v", 12000], "internal_node_id": "0.0-97.0", "trial": 3, "time_elapsed": 1335667, "serialpos": 16, "key_press": -1, "wordID": 1381, "type": "PRES_VIS", "trial_index": 133}, "uniqueid": "MTK2512:3A1COHJ8NK2X9TWB2AJ4V2P4CZB8HL", "dateTime": 1517948735263}, {"current_trial": 134, "trialdata": {"rt": -1, "trial_type": "single-stim", "word": "turkey", "stimulus": "<p id=\"stim\">TURKEY</p>", "conditions": [24, 800, "v", 12000], "internal_node_id": "0.0-98.0", "trial": 3, "time_elapsed": 1337603, "serialpos": 17, "key_press": -1, "wordID": 1519, "type": "PRES_VIS", "trial_index": 134}, "uniqueid": "MTK2512:3A1COHJ8NK2X9TWB2AJ4V2P4CZB8HL", "dateTime": 1517948737199}, {"current_trial": 135, "trialdata": {"rt": -1, "trial_type": "single-stim", "word": "lipstick", "stimulus": "<p id=\"stim\">LIPSTICK</p>", "conditions": [24, 800, "v", 12000], "internal_node_id": "0.0-99.0", "trial": 3, "time_elapsed": 1339213, "serialpos": 18, "key_press": -1, "wordID": 828, "type": "PRES_VIS", "trial_index": 135}, "uniqueid": "MTK2512:3A1COHJ8NK2X9TWB2AJ4V2P4CZB8HL", "dateTime": 1517948738809}, {"current_trial": 136, "trialdata": {"rt": -1, "trial_type": "single-stim", "word": "fiddle", "stimulus": "<p id=\"stim\">FIDDLE</p>", "conditions": [24, 800, "v", 12000], "internal_node_id": "0.0-100.0", "trial": 3, "time_elapsed": 1341182, "serialpos": 19, "key_press": -1, "wordID": 560, "type": "PRES_VIS", "trial_index": 136}, "uniqueid": "MTK2512:3A1COHJ8NK2X9TWB2AJ4V2P4CZB8HL", "dateTime": 1517948740778}, {"current_trial": 137, "trialdata": {"rt": -1, "trial_type": "single-stim", "word": "milk", "stimulus": "<p id=\"stim\">MILK</p>", "conditions": [24, 800, "v", 12000], "internal_node_id": "0.0-101.0", "trial": 3, "time_elapsed": 1343154, "serialpos": 20, "key_press": -1, "wordID": 894, "type": "PRES_VIS", "trial_index": 137}, "uniqueid": "MTK2512:3A1COHJ8NK2X9TWB2AJ4V2P4CZB8HL", "dateTime": 1517948742750}, {"current_trial": 138, "trialdata": {"rt": -1, "trial_type": "single-stim", "word": "honey", "stimulus": "<p id=\"stim\">HONEY</p>", "conditions": [24, 800, "v", 12000], "internal_node_id": "0.0-102.0", "trial": 3, "time_elapsed": 1345007, "serialpos": 21, "key_press": -1, "wordID": 712, "type": "PRES_VIS", "trial_index": 138}, "uniqueid": "MTK2512:3A1COHJ8NK2X9TWB2AJ4V2P4CZB8HL", "dateTime": 1517948744603}, {"current_trial": 139, "trialdata": {"rt": -1, "trial_type": "single-stim", "word": "france", "stimulus": "<p id=\"stim\">FRANCE</p>", "conditions": [24, 800, "v", 12000], "internal_node_id": "0.0-103.0", "trial": 3, "time_elapsed": 1346729, "serialpos": 22, "key_press": -1, "wordID": 600, "type": "PRES_VIS", "trial_index": 139}, "uniqueid": "MTK2512:3A1COHJ8NK2X9TWB2AJ4V2P4CZB8HL", "dateTime": 1517948746325}, {"current_trial": 140, "trialdata": {"rt": -1, "trial_type": "single-stim", "word": "balloon", "stimulus": "<p id=\"stim\">BALLOON</p>", "conditions": [24, 800, "v", 12000], "internal_node_id": "0.0-104.0", "trial": 3, "time_elapsed": 1348469, "serialpos": 23, "key_press": -1, "wordID": 74, "type": "PRES_VIS", "trial_index": 140}, "uniqueid": "MTK2512:3A1COHJ8NK2X9TWB2AJ4V2P4CZB8HL", "dateTime": 1517948748065}, {"current_trial": 141, "trialdata": {"rt": -1, "trial_type": "single-stim", "stimulus": "", "internal_node_id": "0.0-105.0-0.0", "time_elapsed": 1350642, "key_press": -1, "type": "PRE_RECALL_DELAY", "trial_index": 141}, "uniqueid": "MTK2512:3A1COHJ8NK2X9TWB2AJ4V2P4CZB8HL", "dateTime": 1517948750238}, {"current_trial": 142, "trialdata": {"rt": -1000, "trial_type": "single-audio", "stimulus": "/static/audio/400Hz.wav", "internal_node_id": "0.0-106.0", "time_elapsed": 1351148, "key_press": -1, "type": "PRE_RECALL_ALERT", "trial_index": 142}, "uniqueid": "MTK2512:3A1COHJ8NK2X9TWB2AJ4V2P4CZB8HL", "dateTime": 1517948750744}, {"current_trial": 143, "trialdata": {"rt": [5274, 8986, 12993, 17757, 29286, 38656, 45704], "recwords": ["honey", "france", "balloon", "puppy", "college", "dentist", "notebook"], "key_times": [2807, 3295, 3641, 4129, 4518, 5274, 6141, 6439, 6786, 7313, 7695, 8019, 8986, 9427, 9940, 10804, 11023, 11236, 11486, 11917, 12993, 15212, 15617, 16031, 16250, 16756, 17757, 24892, 25647, 25912, 26134, 26682, 27035, 27397, 29286, 35518, 35777, 36243, 36557, 36905, 37426, 37804, 38656, 42626, 42977, 43445, 43841, 44267, 44665, 44895, 45134, 45704], "trial_type": "free-recall", "conditions": [24, 800, "v", 12000], "internal_node_id": "0.0-107.0-0.0", "key_presses": [72, 79, 78, 69, 89, 13, 70, 82, 65, 78, 67, 69, 13, 66, 65, 76, 76, 79, 79, 78, 13, 80, 85, 80, 80, 89, 13, 67, 79, 76, 76, 69, 71, 69, 13, 68, 69, 78, 84, 73, 83, 84, 13, 78, 79, 84, 69, 66, 79, 79, 75, 13], "trial": 3, "time_elapsed": 1411151, "type": "FREE_RECALL", "trial_index": 143}, "uniqueid": "MTK2512:3A1COHJ8NK2X9TWB2AJ4V2P4CZB8HL", "dateTime": 1517948810748}, {"current_trial": 144, "trialdata": {"rt": 7024, "trial_type": "text", "internal_node_id": "0.0-108.0", "time_elapsed": 1420177, "key_press": 13, "type": "INSTRUCTIONS", "trial_index": 144}, "uniqueid": "MTK2512:3A1COHJ8NK2X9TWB2AJ4V2P4CZB8HL", "dateTime": 1517948819773}, {"current_trial": 145, "trialdata": {"rt": [4078, 10543, 13644, 17073], "trial_type": "math-distractor", "key_times": [2100, 2776, 4078, 9190, 9832, 10543, 12535, 12980, 13644, 16544, 17073], "responses": ["18", "15", "13", "8"], "num2": [5, 6, 3, 2, 9], "num3": [5, 7, 1, 2, 7], "conditions": [12, 1600, "v", 24000], "internal_node_id": "0.0-109.0", "key_presses": [49, 56, 13, 49, 53, 13, 49, 51, 13, 56, 13], "trial": 4, "time_elapsed": 1446180, "type": "DISTRACTOR", "trial_index": 145, "num1": [8, 2, 9, 4, 6]}, "uniqueid": "MTK2512:3A1COHJ8NK2X9TWB2AJ4V2P4CZB8HL", "dateTime": 1517948845776}, {"current_trial": 146, "trialdata": {"rt": -1, "trial_type": "single-stim", "stimulus": "<p id=\"stim\">10</p>", "internal_node_id": "0.0-110.0-0.0", "time_elapsed": 1449182, "key_press": -1, "trial_index": 146}, "uniqueid": "MTK2512:3A1COHJ8NK2X9TWB2AJ4V2P4CZB8HL", "dateTime": 1517948848778}, {"current_trial": 147, "trialdata": {"rt": -1, "trial_type": "single-stim", "stimulus": "<p id=\"stim\">9</p>", "internal_node_id": "0.0-110.0-1.0", "time_elapsed": 1450183, "key_press": -1, "trial_index": 147}, "uniqueid": "MTK2512:3A1COHJ8NK2X9TWB2AJ4V2P4CZB8HL", "dateTime": 1517948849779}, {"current_trial": 148, "trialdata": {"rt": -1, "trial_type": "single-stim", "stimulus": "<p id=\"stim\">8</p>", "internal_node_id": "0.0-110.0-2.0", "time_elapsed": 1451184, "key_press": -1, "trial_index": 148}, "uniqueid": "MTK2512:3A1COHJ8NK2X9TWB2AJ4V2P4CZB8HL", "dateTime": 1517948850780}, {"current_trial": 149, "trialdata": {"rt": -1, "trial_type": "single-stim", "stimulus": "<p id=\"stim\">7</p>", "internal_node_id": "0.0-110.0-3.0", "time_elapsed": 1452184, "key_press": -1, "trial_index": 149}, "uniqueid": "MTK2512:3A1COHJ8NK2X9TWB2AJ4V2P4CZB8HL", "dateTime": 1517948851780}, {"current_trial": 150, "trialdata": {"rt": -1, "trial_type": "single-stim", "stimulus": "<p id=\"stim\">6</p>", "internal_node_id": "0.0-110.0-4.0", "time_elapsed": 1453185, "key_press": -1, "trial_index": 150}, "uniqueid": "MTK2512:3A1COHJ8NK2X9TWB2AJ4V2P4CZB8HL", "dateTime": 1517948852781}, {"current_trial": 151, "trialdata": {"rt": -1, "trial_type": "single-stim", "stimulus": "<p id=\"stim\">5</p>", "internal_node_id": "0.0-110.0-5.0", "time_elapsed": 1454187, "key_press": -1, "trial_index": 151}, "uniqueid": "MTK2512:3A1COHJ8NK2X9TWB2AJ4V2P4CZB8HL", "dateTime": 1517948853783}, {"current_trial": 152, "trialdata": {"rt": -1, "trial_type": "single-stim", "stimulus": "<p id=\"stim\">4</p>", "internal_node_id": "0.0-110.0-6.0", "time_elapsed": 1455187, "key_press": -1, "trial_index": 152}, "uniqueid": "MTK2512:3A1COHJ8NK2X9TWB2AJ4V2P4CZB8HL", "dateTime": 1517948854783}, {"current_trial": 153, "trialdata": {"rt": -1, "trial_type": "single-stim", "stimulus": "<p id=\"stim\">3</p>", "internal_node_id": "0.0-110.0-7.0", "time_elapsed": 1456188, "key_press": -1, "trial_index": 153}, "uniqueid": "MTK2512:3A1COHJ8NK2X9TWB2AJ4V2P4CZB8HL", "dateTime": 1517948855784}, {"current_trial": 154, "trialdata": {"rt": -1, "trial_type": "single-stim", "stimulus": "<p id=\"stim\">2</p>", "internal_node_id": "0.0-110.0-8.0", "time_elapsed": 1457191, "key_press": -1, "trial_index": 154}, "uniqueid": "MTK2512:3A1COHJ8NK2X9TWB2AJ4V2P4CZB8HL", "dateTime": 1517948856787}, {"current_trial": 155, "trialdata": {"rt": -1, "trial_type": "single-stim", "stimulus": "<p id=\"stim\">1</p>", "internal_node_id": "0.0-110.0-9.0", "time_elapsed": 1458192, "key_press": -1, "trial_index": 155}, "uniqueid": "MTK2512:3A1COHJ8NK2X9TWB2AJ4V2P4CZB8HL", "dateTime": 1517948857788}, {"current_trial": 156, "trialdata": {"rt": -1, "trial_type": "single-stim", "stimulus": "<p id=\"stim\">+</p>", "internal_node_id": "0.0-111.0-0.0", "time_elapsed": 1459693, "key_press": -1, "type": "FIXATION", "trial_index": 156}, "uniqueid": "MTK2512:3A1COHJ8NK2X9TWB2AJ4V2P4CZB8HL", "dateTime": 1517948859289}, {"current_trial": 157, "trialdata": {"rt": -1, "trial_type": "single-stim", "word": "sponge", "stimulus": "<p id=\"stim\">SPONGE</p>", "conditions": [12, 1600, "v", 24000], "internal_node_id": "0.0-112.0", "trial": 4, "time_elapsed": 1461294, "serialpos": 0, "key_press": -1, "wordID": 1354, "type": "PRES_VIS", "trial_index": 157}, "uniqueid": "MTK2512:3A1COHJ8NK2X9TWB2AJ4V2P4CZB8HL", "dateTime": 1517948860890}, {"current_trial": 158, "trialdata": {"rt": -1, "trial_type": "single-stim", "word": "ankle", "stimulus": "<p id=\"stim\">ANKLE</p>", "conditions": [12, 1600, "v", 24000], "internal_node_id": "0.0-113.0", "trial": 4, "time_elapsed": 1463712, "serialpos": 1, "key_press": -1, "wordID": 23, "type": "PRES_VIS", "trial_index": 158}, "uniqueid": "MTK2512:3A1COHJ8NK2X9TWB2AJ4V2P4CZB8HL", "dateTime": 1517948863308}, {"current_trial": 159, "trialdata": {"rt": -1, "trial_type": "single-stim", "word": "expert", "stimulus": "<p id=\"stim\">EXPERT</p>", "conditions": [12, 1600, "v", 24000], "internal_node_id": "0.0-114.0", "trial": 4, "time_elapsed": 1466485, "serialpos": 2, "key_press": -1, "wordID": 542, "type": "PRES_VIS", "trial_index": 159}, "uniqueid": "MTK2512:3A1COHJ8NK2X9TWB2AJ4V2P4CZB8HL", "dateTime": 1517948866081}, {"current_trial": 160, "trialdata": {"rt": -1, "trial_type": "single-stim", "word": "apron", "stimulus": "<p id=\"stim\">APRON</p>", "conditions": [12, 1600, "v", 24000], "internal_node_id": "0.0-115.0", "trial": 4, "time_elapsed": 1469011, "serialpos": 3, "key_press": -1, "wordID": 34, "type": "PRES_VIS", "trial_index": 160}, "uniqueid": "MTK2512:3A1COHJ8NK2X9TWB2AJ4V2P4CZB8HL", "dateTime": 1517948868607}, {"current_trial": 161, "trialdata": {"rt": -1, "trial_type": "single-stim", "word": "mammal", "stimulus": "<p id=\"stim\">MAMMAL</p>", "conditions": [12, 1600, "v", 24000], "internal_node_id": "0.0-116.0", "trial": 4, "time_elapsed": 1471523, "serialpos": 4, "key_press": -1, "wordID": 860, "type": "PRES_VIS", "trial_index": 161}, "uniqueid": "MTK2512:3A1COHJ8NK2X9TWB2AJ4V2P4CZB8HL", "dateTime": 1517948871119}, {"current_trial": 162, "trialdata": {"rt": -1, "trial_type": "single-stim", "word": "suspect", "stimulus": "<p id=\"stim\">SUSPECT</p>", "conditions": [12, 1600, "v", 24000], "internal_node_id": "0.0-117.0", "trial": 4, "time_elapsed": 1474183, "serialpos": 5, "key_press": -1, "wordID": 1414, "type": "PRES_VIS", "trial_index": 162}, "uniqueid": "MTK2512:3A1COHJ8NK2X9TWB2AJ4V2P4CZB8HL", "dateTime": 1517948873779}, {"current_trial": 163, "trialdata": {"rt": -1, "trial_type": "single-stim", "word": "robber", "stimulus": "<p id=\"stim\">ROBBER</p>", "conditions": [12, 1600, "v", 24000], "internal_node_id": "0.0-118.0", "trial": 4, "time_elapsed": 1476859, "serialpos": 6, "key_press": -1, "wordID": 1196, "type": "PRES_VIS", "trial_index": 163}, "uniqueid": "MTK2512:3A1COHJ8NK2X9TWB2AJ4V2P4CZB8HL", "dateTime": 1517948876455}, {"current_trial": 164, "trialdata": {"rt": -1, "trial_type": "single-stim", "word": "pecan", "stimulus": "<p id=\"stim\">PECAN</p>", "conditions": [12, 1600, "v", 24000], "internal_node_id": "0.0-119.0", "trial": 4, "time_elapsed": 1479407, "serialpos": 7, "key_press": -1, "wordID": 1035, "type": "PRES_VIS", "trial_index": 164}, "uniqueid": "MTK2512:3A1COHJ8NK2X9TWB2AJ4V2P4CZB8HL", "dateTime": 1517948879003}, {"current_trial": 165, "trialdata": {"rt": -1, "trial_type": "single-stim", "word": "crater", "stimulus": "<p id=\"stim\">CRATER</p>", "conditions": [12, 1600, "v", 24000], "internal_node_id": "0.0-120.0", "trial": 4, "time_elapsed": 1482156, "serialpos": 8, "key_press": -1, "wordID": 399, "type": "PRES_VIS", "trial_index": 165}, "uniqueid": "MTK2512:3A1COHJ8NK2X9TWB2AJ4V2P4CZB8HL", "dateTime": 1517948881752}, {"current_trial": 166, "trialdata": {"rt": -1, "trial_type": "single-stim", "word": "shelf", "stimulus": "<p id=\"stim\">SHELF</p>", "conditions": [12, 1600, "v", 24000], "internal_node_id": "0.0-121.0", "trial": 4, "time_elapsed": 1484800, "serialpos": 9, "key_press": -1, "wordID": 1279, "type": "PRES_VIS", "trial_index": 166}, "uniqueid": "MTK2512:3A1COHJ8NK2X9TWB2AJ4V2P4CZB8HL", "dateTime": 1517948884396}, {"current_trial": 167, "trialdata": {"rt": -1, "trial_type": "single-stim", "word": "kitchen", "stimulus": "<p id=\"stim\">KITCHEN</p>", "conditions": [12, 1600, "v", 24000], "internal_node_id": "0.0-122.0", "trial": 4, "time_elapsed": 1487342, "serialpos": 10, "key_press": -1, "wordID": 777, "type": "PRES_VIS", "trial_index": 167}, "uniqueid": "MTK2512:3A1COHJ8NK2X9TWB2AJ4V2P4CZB8HL", "dateTime": 1517948886938}, {"current_trial": 168, "trialdata": {"rt": -1, "trial_type": "single-stim", "word": "peanut", "stimulus": "<p id=\"stim\">PEANUT</p>", "conditions": [12, 1600, "v", 24000], "internal_node_id": "0.0-123.0", "trial": 4, "time_elapsed": 1489937, "serialpos": 11, "key_press": -1, "wordID": 1031, "type": "PRES_VIS", "trial_index": 168}, "uniqueid": "MTK2512:3A1COHJ8NK2X9TWB2AJ4V2P4CZB8HL", "dateTime": 1517948889533}, {"current_trial": 169, "trialdata": {"rt": -1, "trial_type": "single-stim", "stimulus": "", "internal_node_id": "0.0-124.0-0.0", "time_elapsed": 1492309, "key_press": -1, "type": "PRE_RECALL_DELAY", "trial_index": 169}, "uniqueid": "MTK2512:3A1COHJ8NK2X9TWB2AJ4V2P4CZB8HL", "dateTime": 1517948891905}, {"current_trial": 170, "trialdata": {"rt": -1000, "trial_type": "single-audio", "stimulus": "/static/audio/400Hz.wav", "internal_node_id": "0.0-125.0", "time_elapsed": 1492811, "key_press": -1, "type": "PRE_RECALL_ALERT", "trial_index": 170}, "uniqueid": "MTK2512:3A1COHJ8NK2X9TWB2AJ4V2P4CZB8HL", "dateTime": 1517948892407}, {"current_trial": 171, "trialdata": {"rt": [6092, 11314, 14996, 19216, 24015, 37955], "recwords": ["sponge", "ankle", "peanut", "kitchen", "pecan", "crater"], "key_times": [2837, 3583, 3810, 4132, 4435, 4769, 6092, 7001, 7526, 7989, 8568, 9110, 11314, 11776, 12338, 12588, 13114, 13534, 13864, 14996, 16657, 16859, 17216, 17472, 17786, 18203, 18655, 19216, 20918, 21530, 21832, 22198, 22740, 24015, 35175, 35585, 35988, 36460, 36788, 36989, 37955], "trial_type": "free-recall", "conditions": [12, 1600, "v", 24000], "internal_node_id": "0.0-126.0-0.0", "key_presses": [83, 80, 79, 78, 71, 69, 13, 65, 78, 75, 76, 69, 13, 80, 69, 65, 78, 85, 84, 13, 75, 73, 84, 67, 72, 69, 78, 13, 80, 69, 67, 65, 78, 13, 67, 82, 65, 84, 69, 82, 13], "trial": 4, "time_elapsed": 1552814, "type": "FREE_RECALL", "trial_index": 171}, "uniqueid": "MTK2512:3A1COHJ8NK2X9TWB2AJ4V2P4CZB8HL", "dateTime": 1517948952411}, {"current_trial": 172, "trialdata": {"rt": 3857, "trial_type": "text", "internal_node_id": "0.0-127.0", "time_elapsed": 1558673, "key_press": 13, "type": "INSTRUCTIONS", "trial_index": 172}, "uniqueid": "MTK2512:3A1COHJ8NK2X9TWB2AJ4V2P4CZB8HL", "dateTime": 1517948958269}, {"current_trial": 173, "trialdata": {"rt": [3543, 7609], "trial_type": "math-distractor", "key_times": [2358, 2731, 3543, 6057, 6823, 7609], "responses": ["11", "16"], "num2": [2, 7, 1], "num3": [1, 6, 7], "conditions": [24, 1600, "v", 12000], "internal_node_id": "0.0-128.0", "key_presses": [49, 49, 13, 49, 54, 13], "trial": 5, "time_elapsed": 1572676, "type": "DISTRACTOR", "trial_index": 173, "num1": [8, 3, 7]}, "uniqueid": "MTK2512:3A1COHJ8NK2X9TWB2AJ4V2P4CZB8HL", "dateTime": 1517948972272}, {"current_trial": 174, "trialdata": {"rt": -1, "trial_type": "single-stim", "stimulus": "<p id=\"stim\">10</p>", "internal_node_id": "0.0-129.0-0.0", "time_elapsed": 1575678, "key_press": -1, "trial_index": 174}, "uniqueid": "MTK2512:3A1COHJ8NK2X9TWB2AJ4V2P4CZB8HL", "dateTime": 1517948975274}, {"current_trial": 175, "trialdata": {"rt": -1, "trial_type": "single-stim", "stimulus": "<p id=\"stim\">9</p>", "internal_node_id": "0.0-129.0-1.0", "time_elapsed": 1576679, "key_press": -1, "trial_index": 175}, "uniqueid": "MTK2512:3A1COHJ8NK2X9TWB2AJ4V2P4CZB8HL", "dateTime": 1517948976275}, {"current_trial": 176, "trialdata": {"rt": -1, "trial_type": "single-stim", "stimulus": "<p id=\"stim\">8</p>", "internal_node_id": "0.0-129.0-2.0", "time_elapsed": 1577679, "key_press": -1, "trial_index": 176}, "uniqueid": "MTK2512:3A1COHJ8NK2X9TWB2AJ4V2P4CZB8HL", "dateTime": 1517948977275}, {"current_trial": 177, "trialdata": {"rt": -1, "trial_type": "single-stim", "stimulus": "<p id=\"stim\">7</p>", "internal_node_id": "0.0-129.0-3.0", "time_elapsed": 1578680, "key_press": -1, "trial_index": 177}, "uniqueid": "MTK2512:3A1COHJ8NK2X9TWB2AJ4V2P4CZB8HL", "dateTime": 1517948978276}, {"current_trial": 178, "trialdata": {"rt": -1, "trial_type": "single-stim", "stimulus": "<p id=\"stim\">6</p>", "internal_node_id": "0.0-129.0-4.0", "time_elapsed": 1579680, "key_press": -1, "trial_index": 178}, "uniqueid": "MTK2512:3A1COHJ8NK2X9TWB2AJ4V2P4CZB8HL", "dateTime": 1517948979276}, {"current_trial": 179, "trialdata": {"rt": -1, "trial_type": "single-stim", "stimulus": "<p id=\"stim\">5</p>", "internal_node_id": "0.0-129.0-5.0", "time_elapsed": 1580682, "key_press": -1, "trial_index": 179}, "uniqueid": "MTK2512:3A1COHJ8NK2X9TWB2AJ4V2P4CZB8HL", "dateTime": 1517948980278}, {"current_trial": 180, "trialdata": {"rt": -1, "trial_type": "single-stim", "stimulus": "<p id=\"stim\">4</p>", "internal_node_id": "0.0-129.0-6.0", "time_elapsed": 1581683, "key_press": -1, "trial_index": 180}, "uniqueid": "MTK2512:3A1COHJ8NK2X9TWB2AJ4V2P4CZB8HL", "dateTime": 1517948981279}, {"current_trial": 181, "trialdata": {"rt": -1, "trial_type": "single-stim", "stimulus": "<p id=\"stim\">3</p>", "internal_node_id": "0.0-129.0-7.0", "time_elapsed": 1582685, "key_press": -1, "trial_index": 181}, "uniqueid": "MTK2512:3A1COHJ8NK2X9TWB2AJ4V2P4CZB8HL", "dateTime": 1517948982281}, {"current_trial": 182, "trialdata": {"rt": -1, "trial_type": "single-stim", "stimulus": "<p id=\"stim\">2</p>", "internal_node_id": "0.0-129.0-8.0", "time_elapsed": 1583686, "key_press": -1, "trial_index": 182}, "uniqueid": "MTK2512:3A1COHJ8NK2X9TWB2AJ4V2P4CZB8HL", "dateTime": 1517948983282}, {"current_trial": 183, "trialdata": {"rt": -1, "trial_type": "single-stim", "stimulus": "<p id=\"stim\">1</p>", "internal_node_id": "0.0-129.0-9.0", "time_elapsed": 1584687, "key_press": -1, "trial_index": 183}, "uniqueid": "MTK2512:3A1COHJ8NK2X9TWB2AJ4V2P4CZB8HL", "dateTime": 1517948984283}, {"current_trial": 184, "trialdata": {"rt": -1, "trial_type": "single-stim", "stimulus": "<p id=\"stim\">+</p>", "internal_node_id": "0.0-130.0-0.0", "time_elapsed": 1586187, "key_press": -1, "type": "FIXATION", "trial_index": 184}, "uniqueid": "MTK2512:3A1COHJ8NK2X9TWB2AJ4V2P4CZB8HL", "dateTime": 1517948985783}, {"current_trial": 185, "trialdata": {"rt": -1, "trial_type": "single-stim", "word": "frame", "stimulus": "<p id=\"stim\">FRAME</p>", "conditions": [24, 1600, "v", 12000], "internal_node_id": "0.0-131.0", "trial": 5, "time_elapsed": 1587788, "serialpos": 0, "key_press": -1, "wordID": 599, "type": "PRES_VIS", "trial_index": 185}, "uniqueid": "MTK2512:3A1COHJ8NK2X9TWB2AJ4V2P4CZB8HL", "dateTime": 1517948987384}, {"current_trial": 186, "trialdata": {"rt": -1, "trial_type": "single-stim", "word": "tribe", "stimulus": "<p id=\"stim\">TRIBE</p>", "conditions": [24, 1600, "v", 12000], "internal_node_id": "0.0-132.0", "trial": 5, "time_elapsed": 1590370, "serialpos": 1, "key_press": -1, "wordID": 1504, "type": "PRES_VIS", "trial_index": 186}, "uniqueid": "MTK2512:3A1COHJ8NK2X9TWB2AJ4V2P4CZB8HL", "dateTime": 1517948989967}, {"current_trial": 187, "trialdata": {"rt": -1, "trial_type": "single-stim", "word": "picnic", "stimulus": "<p id=\"stim\">PICNIC</p>", "conditions": [24, 1600, "v", 12000], "internal_node_id": "0.0-133.0", "trial": 5, "time_elapsed": 1592847, "serialpos": 2, "key_press": -1, "wordID": 1059, "type": "PRES_VIS", "trial_index": 187}, "uniqueid": "MTK2512:3A1COHJ8NK2X9TWB2AJ4V2P4CZB8HL", "dateTime": 1517948992443}, {"current_trial": 188, "trialdata": {"rt": -1, "trial_type": "single-stim", "word": "picture", "stimulus": "<p id=\"stim\">PICTURE</p>", "conditions": [24, 1600, "v", 12000], "internal_node_id": "0.0-134.0", "trial": 5, "time_elapsed": 1595461, "serialpos": 3, "key_press": -1, "wordID": 1060, "type": "PRES_VIS", "trial_index": 188}, "uniqueid": "MTK2512:3A1COHJ8NK2X9TWB2AJ4V2P4CZB8HL", "dateTime": 1517948995057}, {"current_trial": 189, "trialdata": {"rt": -1, "trial_type": "single-stim", "word": "island", "stimulus": "<p id=\"stim\">ISLAND</p>", "conditions": [24, 1600, "v", 12000], "internal_node_id": "0.0-135.0", "trial": 5, "time_elapsed": 1598197, "serialpos": 4, "key_press": -1, "wordID": 744, "type": "PRES_VIS", "trial_index": 189}, "uniqueid": "MTK2512:3A1COHJ8NK2X9TWB2AJ4V2P4CZB8HL", "dateTime": 1517948997793}, {"current_trial": 190, "trialdata": {"rt": -1, "trial_type": "single-stim", "word": "bureau", "stimulus": "<p id=\"stim\">BUREAU</p>", "conditions": [24, 1600, "v", 12000], "internal_node_id": "0.0-136.0", "trial": 5, "time_elapsed": 1600679, "serialpos": 5, "key_press": -1, "wordID": 198, "type": "PRES_VIS", "trial_index": 190}, "uniqueid": "MTK2512:3A1COHJ8NK2X9TWB2AJ4V2P4CZB8HL", "dateTime": 1517949000275}, {"current_trial": 191, "trialdata": {"rt": -1, "trial_type": "single-stim", "word": "office", "stimulus": "<p id=\"stim\">OFFICE</p>", "conditions": [24, 1600, "v", 12000], "internal_node_id": "0.0-137.0", "trial": 5, "time_elapsed": 1603150, "serialpos": 6, "key_press": -1, "wordID": 971, "type": "PRES_VIS", "trial_index": 191}, "uniqueid": "MTK2512:3A1COHJ8NK2X9TWB2AJ4V2P4CZB8HL", "dateTime": 1517949002746}, {"current_trial": 192, "trialdata": {"rt": -1, "trial_type": "single-stim", "word": "table", "stimulus": "<p id=\"stim\">TABLE</p>", "conditions": [24, 1600, "v", 12000], "internal_node_id": "0.0-138.0", "trial": 5, "time_elapsed": 1605791, "serialpos": 7, "key_press": -1, "wordID": 1425, "type": "PRES_VIS", "trial_index": 192}, "uniqueid": "MTK2512:3A1COHJ8NK2X9TWB2AJ4V2P4CZB8HL", "dateTime": 1517949005387}, {"current_trial": 193, "trialdata": {"rt": -1, "trial_type": "single-stim", "word": "portrait", "stimulus": "<p id=\"stim\">PORTRAIT</p>", "conditions": [24, 1600, "v", 12000], "internal_node_id": "0.0-139.0", "trial": 5, "time_elapsed": 1608400, "serialpos": 8, "key_press": -1, "wordID": 1110, "type": "PRES_VIS", "trial_index": 193}, "uniqueid": "MTK2512:3A1COHJ8NK2X9TWB2AJ4V2P4CZB8HL", "dateTime": 1517949007996}, {"current_trial": 194, "trialdata": {"rt": -1, "trial_type": "single-stim", "word": "flute", "stimulus": "<p id=\"stim\">FLUTE</p>", "conditions": [24, 1600, "v", 12000], "internal_node_id": "0.0-140.0", "trial": 5, "time_elapsed": 1610802, "serialpos": 9, "key_press": -1, "wordID": 584, "type": "PRES_VIS", "trial_index": 194}, "uniqueid": "MTK2512:3A1COHJ8NK2X9TWB2AJ4V2P4CZB8HL", "dateTime": 1517949010398}, {"current_trial": 195, "trialdata": {"rt": -1, "trial_type": "single-stim", "word": "tuba", "stimulus": "<p id=\"stim\">TUBA</p>", "conditions": [24, 1600, "v", 12000], "internal_node_id": "0.0-141.0", "trial": 5, "time_elapsed": 1613481, "serialpos": 10, "key_press": -1, "wordID": 1514, "type": "PRES_VIS", "trial_index": 195}, "uniqueid": "MTK2512:3A1COHJ8NK2X9TWB2AJ4V2P4CZB8HL", "dateTime": 1517949013077}, {"current_trial": 196, "trialdata": {"rt": -1, "trial_type": "single-stim", "word": "puddle", "stimulus": "<p id=\"stim\">PUDDLE</p>", "conditions": [24, 1600, "v", 12000], "internal_node_id": "0.0-142.0", "trial": 5, "time_elapsed": 1616151, "serialpos": 11, "key_press": -1, "wordID": 1139, "type": "PRES_VIS", "trial_index": 196}, "uniqueid": "MTK2512:3A1COHJ8NK2X9TWB2AJ4V2P4CZB8HL", "dateTime": 1517949015747}, {"current_trial": 197, "trialdata": {"rt": -1, "trial_type": "single-stim", "word": "buggy", "stimulus": "<p id=\"stim\">BUGGY</p>", "conditions": [24, 1600, "v", 12000], "internal_node_id": "0.0-143.0", "trial": 5, "time_elapsed": 1618642, "serialpos": 12, "key_press": -1, "wordID": 187, "type": "PRES_VIS", "trial_index": 197}, "uniqueid": "MTK2512:3A1COHJ8NK2X9TWB2AJ4V2P4CZB8HL", "dateTime": 1517949018238}, {"current_trial": 198, "trialdata": {"rt": -1, "trial_type": "single-stim", "word": "soda", "stimulus": "<p id=\"stim\">SODA</p>", "conditions": [24, 1600, "v", 12000], "internal_node_id": "0.0-144.0", "trial": 5, "time_elapsed": 1621176, "serialpos": 13, "key_press": -1, "wordID": 1340, "type": "PRES_VIS", "trial_index": 198}, "uniqueid": "MTK2512:3A1COHJ8NK2X9TWB2AJ4V2P4CZB8HL", "dateTime": 1517949020772}, {"current_trial": 199, "trialdata": {"rt": -1, "trial_type": "single-stim", "word": "airplane", "stimulus": "<p id=\"stim\">AIRPLANE</p>", "conditions": [24, 1600, "v", 12000], "internal_node_id": "0.0-145.0", "trial": 5, "time_elapsed": 1623729, "serialpos": 14, "key_press": -1, "wordID": 11, "type": "PRES_VIS", "trial_index": 199}, "uniqueid": "MTK2512:3A1COHJ8NK2X9TWB2AJ4V2P4CZB8HL", "dateTime": 1517949023325}, {"current_trial": 200, "trialdata": {"rt": -1, "trial_type": "single-stim", "word": "scotch", "stimulus": "<p id=\"stim\">SCOTCH</p>", "conditions": [24, 1600, "v", 12000], "internal_node_id": "0.0-146.0", "trial": 5, "time_elapsed": 1626210, "serialpos": 15, "key_press": -1, "wordID": 1250, "type": "PRES_VIS", "trial_index": 200}, "uniqueid": "MTK2512:3A1COHJ8NK2X9TWB2AJ4V2P4CZB8HL", "dateTime": 1517949025806}, {"current_trial": 201, "trialdata": {"rt": -1, "trial_type": "single-stim", "word": "fungus", "stimulus": "<p id=\"stim\">FUNGUS</p>", "conditions": [24, 1600, "v", 12000], "internal_node_id": "0.0-147.0", "trial": 5, "time_elapsed": 1628640, "serialpos": 16, "key_press": -1, "wordID": 613, "type": "PRES_VIS", "trial_index": 201}, "uniqueid": "MTK2512:3A1COHJ8NK2X9TWB2AJ4V2P4CZB8HL", "dateTime": 1517949028236}, {"current_trial": 202, "trialdata": {"rt": -1, "trial_type": "single-stim", "word": "lace", "stimulus": "<p id=\"stim\">LACE</p>", "conditions": [24, 1600, "v", 12000], "internal_node_id": "0.0-148.0", "trial": 5, "time_elapsed": 1631405, "serialpos": 17, "key_press": -1, "wordID": 791, "type": "PRES_VIS", "trial_index": 202}, "uniqueid": "MTK2512:3A1COHJ8NK2X9TWB2AJ4V2P4CZB8HL", "dateTime": 1517949031001}, {"current_trial": 203, "trialdata": {"rt": -1, "trial_type": "single-stim", "word": "dress", "stimulus": "<p id=\"stim\">DRESS</p>", "conditions": [24, 1600, "v", 12000], "internal_node_id": "0.0-149.0", "trial": 5, "time_elapsed": 1634194, "serialpos": 18, "key_press": -1, "wordID": 494, "type": "PRES_VIS", "trial_index": 203}, "uniqueid": "MTK2512:3A1COHJ8NK2X9TWB2AJ4V2P4CZB8HL", "dateTime": 1517949033790}, {"current_trial": 204, "trialdata": {"rt": -1, "trial_type": "single-stim", "word": "wasp", "stimulus": "<p id=\"stim\">WASP</p>", "conditions": [24, 1600, "v", 12000], "internal_node_id": "0.0-150.0", "trial": 5, "time_elapsed": 1636691, "serialpos": 19, "key_press": -1, "wordID": 1592, "type": "PRES_VIS", "trial_index": 204}, "uniqueid": "MTK2512:3A1COHJ8NK2X9TWB2AJ4V2P4CZB8HL", "dateTime": 1517949036287}, {"current_trial": 205, "trialdata": {"rt": -1, "trial_type": "single-stim", "word": "gallon", "stimulus": "<p id=\"stim\">GALLON</p>", "conditions": [24, 1600, "v", 12000], "internal_node_id": "0.0-151.0", "trial": 5, "time_elapsed": 1639391, "serialpos": 20, "key_press": -1, "wordID": 617, "type": "PRES_VIS", "trial_index": 205}, "uniqueid": "MTK2512:3A1COHJ8NK2X9TWB2AJ4V2P4CZB8HL", "dateTime": 1517949038987}, {"current_trial": 206, "trialdata": {"rt": -1, "trial_type": "single-stim", "word": "goblin", "stimulus": "<p id=\"stim\">GOBLIN</p>", "conditions": [24, 1600, "v", 12000], "internal_node_id": "0.0-152.0", "trial": 5, "time_elapsed": 1642112, "serialpos": 21, "key_press": -1, "wordID": 644, "type": "PRES_VIS", "trial_index": 206}, "uniqueid": "MTK2512:3A1COHJ8NK2X9TWB2AJ4V2P4CZB8HL", "dateTime": 1517949041708}, {"current_trial": 207, "trialdata": {"rt": -1, "trial_type": "single-stim", "word": "mattress", "stimulus": "<p id=\"stim\">MATTRESS</p>", "conditions": [24, 1600, "v", 12000], "internal_node_id": "0.0-153.0", "trial": 5, "time_elapsed": 1644746, "serialpos": 22, "key_press": -1, "wordID": 878, "type": "PRES_VIS", "trial_index": 207}, "uniqueid": "MTK2512:3A1COHJ8NK2X9TWB2AJ4V2P4CZB8HL", "dateTime": 1517949044342}, {"current_trial": 208, "trialdata": {"rt": -1, "trial_type": "single-stim", "word": "blender", "stimulus": "<p id=\"stim\">BLENDER</p>", "conditions": [24, 1600, "v", 12000], "internal_node_id": "0.0-154.0", "trial": 5, "time_elapsed": 1647169, "serialpos": 23, "key_press": -1, "wordID": 135, "type": "PRES_VIS", "trial_index": 208}, "uniqueid": "MTK2512:3A1COHJ8NK2X9TWB2AJ4V2P4CZB8HL", "dateTime": 1517949046765}, {"current_trial": 209, "trialdata": {"rt": -1, "trial_type": "single-stim", "stimulus": "", "internal_node_id": "0.0-155.0-0.0", "time_elapsed": 1649312, "key_press": -1, "type": "PRE_RECALL_DELAY", "trial_index": 209}, "uniqueid": "MTK2512:3A1COHJ8NK2X9TWB2AJ4V2P4CZB8HL", "dateTime": 1517949048908}, {"current_trial": 210, "trialdata": {"rt": -1000, "trial_type": "single-audio", "stimulus": "/static/audio/400Hz.wav", "internal_node_id": "0.0-156.0", "time_elapsed": 1649818, "key_press": -1, "type": "PRE_RECALL_ALERT", "trial_index": 210}, "uniqueid": "MTK2512:3A1COHJ8NK2X9TWB2AJ4V2P4CZB8HL", "dateTime": 1517949049414}, {"current_trial": 211, "trialdata": {"rt": [8864, 14058, 18577, 22721, 29988, 36346, 40517], "recwords": ["blender", "mattress", "goblin", "gallon", "flute", "soda", "tuba"], "key_times": [3913, 4408, 5189, 5831, 6384, 6668, 7003, 8864, 9708, 10480, 11228, 11469, 11770, 12097, 12738, 13024, 14058, 14708, 15427, 16197, 16881, 17228, 17576, 18577, 19373, 19914, 20613, 20830, 21158, 21541, 22721, 26914, 27598, 28056, 28626, 29052, 29988, 33429, 34130, 34857, 35285, 36346, 37361, 37735, 38042, 38753, 40517], "trial_type": "free-recall", "conditions": [24, 1600, "v", 12000], "internal_node_id": "0.0-157.0-0.0", "key_presses": [66, 76, 69, 78, 68, 69, 82, 13, 77, 65, 84, 84, 82, 69, 83, 83, 13, 71, 79, 66, 76, 73, 78, 13, 71, 65, 76, 76, 79, 78, 13, 70, 76, 85, 84, 69, 13, 83, 79, 68, 65, 13, 84, 85, 66, 65, 13], "trial": 5, "time_elapsed": 1709820, "type": "FREE_RECALL", "trial_index": 211}, "uniqueid": "MTK2512:3A1COHJ8NK2X9TWB2AJ4V2P4CZB8HL", "dateTime": 1517949109418}, {"current_trial": 212, "trialdata": {"rt": 2356, "trial_type": "text", "internal_node_id": "0.0-158.0", "time_elapsed": 1714179, "key_press": 13, "type": "INSTRUCTIONS", "trial_index": 212}, "uniqueid": "MTK2512:3A1COHJ8NK2X9TWB2AJ4V2P4CZB8HL", "dateTime": 1517949113775}, {"current_trial": 213, "trialdata": {"rt": [6621, 9825, 12454, 16392, 19442], "trial_type": "math-distractor", "key_times": [5303, 5956, 6621, 8755, 9101, 9825, 11373, 11688, 12454, 15436, 15750, 16392, 18386, 19149, 19442], "responses": ["17", "11", "12", "12", "10"], "num2": [6, 5, 5, 7, 1, 8], "num3": [8, 5, 2, 4, 4, 9], "conditions": [12, 1600, "v", 24000], "internal_node_id": "0.0-159.0", "key_presses": [49, 55, 13, 49, 49, 13, 49, 50, 13, 49, 50, 13, 49, 48, 13], "trial": 6, "time_elapsed": 1740181, "type": "DISTRACTOR", "trial_index": 213, "num1": [3, 1, 5, 1, 5, 4]}, "uniqueid": "MTK2512:3A1COHJ8NK2X9TWB2AJ4V2P4CZB8HL", "dateTime": 1517949139777}, {"current_trial": 214, "trialdata": {"rt": -1, "trial_type": "single-stim", "stimulus": "<p id=\"stim\">10</p>", "internal_node_id": "0.0-160.0-0.0", "time_elapsed": 1743182, "key_press": -1, "trial_index": 214}, "uniqueid": "MTK2512:3A1COHJ8NK2X9TWB2AJ4V2P4CZB8HL", "dateTime": 1517949142778}, {"current_trial": 215, "trialdata": {"rt": -1, "trial_type": "single-stim", "stimulus": "<p id=\"stim\">9</p>", "internal_node_id": "0.0-160.0-1.0", "time_elapsed": 1744184, "key_press": -1, "trial_index": 215}, "uniqueid": "MTK2512:3A1COHJ8NK2X9TWB2AJ4V2P4CZB8HL", "dateTime": 1517949143780}, {"current_trial": 216, "trialdata": {"rt": -1, "trial_type": "single-stim", "stimulus": "<p id=\"stim\">8</p>", "internal_node_id": "0.0-160.0-2.0", "time_elapsed": 1745185, "key_press": -1, "trial_index": 216}, "uniqueid": "MTK2512:3A1COHJ8NK2X9TWB2AJ4V2P4CZB8HL", "dateTime": 1517949144782}, {"current_trial": 217, "trialdata": {"rt": -1, "trial_type": "single-stim", "stimulus": "<p id=\"stim\">7</p>", "internal_node_id": "0.0-160.0-3.0", "time_elapsed": 1746186, "key_press": -1, "trial_index": 217}, "uniqueid": "MTK2512:3A1COHJ8NK2X9TWB2AJ4V2P4CZB8HL", "dateTime": 1517949145782}, {"current_trial": 218, "trialdata": {"rt": -1, "trial_type": "single-stim", "stimulus": "<p id=\"stim\">6</p>", "internal_node_id": "0.0-160.0-4.0", "time_elapsed": 1747187, "key_press": -1, "trial_index": 218}, "uniqueid": "MTK2512:3A1COHJ8NK2X9TWB2AJ4V2P4CZB8HL", "dateTime": 1517949146783}, {"current_trial": 219, "trialdata": {"rt": -1, "trial_type": "single-stim", "stimulus": "<p id=\"stim\">5</p>", "internal_node_id": "0.0-160.0-5.0", "time_elapsed": 1748188, "key_press": -1, "trial_index": 219}, "uniqueid": "MTK2512:3A1COHJ8NK2X9TWB2AJ4V2P4CZB8HL", "dateTime": 1517949147784}, {"current_trial": 220, "trialdata": {"rt": -1, "trial_type": "single-stim", "stimulus": "<p id=\"stim\">4</p>", "internal_node_id": "0.0-160.0-6.0", "time_elapsed": 1749189, "key_press": -1, "trial_index": 220}, "uniqueid": "MTK2512:3A1COHJ8NK2X9TWB2AJ4V2P4CZB8HL", "dateTime": 1517949148785}, {"current_trial": 221, "trialdata": {"rt": -1, "trial_type": "single-stim", "stimulus": "<p id=\"stim\">3</p>", "internal_node_id": "0.0-160.0-7.0", "time_elapsed": 1750190, "key_press": -1, "trial_index": 221}, "uniqueid": "MTK2512:3A1COHJ8NK2X9TWB2AJ4V2P4CZB8HL", "dateTime": 1517949149786}, {"current_trial": 222, "trialdata": {"rt": -1, "trial_type": "single-stim", "stimulus": "<p id=\"stim\">2</p>", "internal_node_id": "0.0-160.0-8.0", "time_elapsed": 1751192, "key_press": -1, "trial_index": 222}, "uniqueid": "MTK2512:3A1COHJ8NK2X9TWB2AJ4V2P4CZB8HL", "dateTime": 1517949150788}, {"current_trial": 223, "trialdata": {"rt": -1, "trial_type": "single-stim", "stimulus": "<p id=\"stim\">1</p>", "internal_node_id": "0.0-160.0-9.0", "time_elapsed": 1752193, "key_press": -1, "trial_index": 223}, "uniqueid": "MTK2512:3A1COHJ8NK2X9TWB2AJ4V2P4CZB8HL", "dateTime": 1517949151789}, {"current_trial": 224, "trialdata": {"rt": -1, "trial_type": "single-stim", "stimulus": "<p id=\"stim\">+</p>", "internal_node_id": "0.0-161.0-0.0", "time_elapsed": 1753693, "key_press": -1, "type": "FIXATION", "trial_index": 224}, "uniqueid": "MTK2512:3A1COHJ8NK2X9TWB2AJ4V2P4CZB8HL", "dateTime": 1517949153289}, {"current_trial": 225, "trialdata": {"rt": -1, "trial_type": "single-stim", "word": "postage", "stimulus": "<p id=\"stim\">POSTAGE</p>", "conditions": [12, 1600, "v", 24000], "internal_node_id": "0.0-162.0", "trial": 6, "time_elapsed": 1755296, "serialpos": 0, "key_press": -1, "wordID": 1112, "type": "PRES_VIS", "trial_index": 225}, "uniqueid": "MTK2512:3A1COHJ8NK2X9TWB2AJ4V2P4CZB8HL", "dateTime": 1517949154892}, {"current_trial": 226, "trialdata": {"rt": -1, "trial_type": "single-stim", "word": "wife", "stimulus": "<p id=\"stim\">WIFE</p>", "conditions": [12, 1600, "v", 24000], "internal_node_id": "0.0-163.0", "trial": 6, "time_elapsed": 1757930, "serialpos": 1, "key_press": -1, "wordID": 1608, "type": "PRES_VIS", "trial_index": 226}, "uniqueid": "MTK2512:3A1COHJ8NK2X9TWB2AJ4V2P4CZB8HL", "dateTime": 1517949157526}, {"current_trial": 227, "trialdata": {"rt": -1, "trial_type": "single-stim", "word": "mustard", "stimulus": "<p id=\"stim\">MUSTARD</p>", "conditions": [12, 1600, "v", 24000], "internal_node_id": "0.0-164.0", "trial": 6, "time_elapsed": 1760684, "serialpos": 2, "key_press": -1, "wordID": 934, "type": "PRES_VIS", "trial_index": 227}, "uniqueid": "MTK2512:3A1COHJ8NK2X9TWB2AJ4V2P4CZB8HL", "dateTime": 1517949160280}, {"current_trial": 228, "trialdata": {"rt": -1, "trial_type": "single-stim", "word": "guard", "stimulus": "<p id=\"stim\">GUARD</p>", "conditions": [12, 1600, "v", 24000], "internal_node_id": "0.0-165.0", "trial": 6, "time_elapsed": 1763482, "serialpos": 3, "key_press": -1, "wordID": 666, "type": "PRES_VIS", "trial_index": 228}, "uniqueid": "MTK2512:3A1COHJ8NK2X9TWB2AJ4V2P4CZB8HL", "dateTime": 1517949163078}, {"current_trial": 229, "trialdata": {"rt": -1, "trial_type": "single-stim", "word": "fox", "stimulus": "<p id=\"stim\">FOX</p>", "conditions": [12, 1600, "v", 24000], "internal_node_id": "0.0-166.0", "trial": 6, "time_elapsed": 1765947, "serialpos": 4, "key_press": -1, "wordID": 597, "type": "PRES_VIS", "trial_index": 229}, "uniqueid": "MTK2512:3A1COHJ8NK2X9TWB2AJ4V2P4CZB8HL", "dateTime": 1517949165543}, {"current_trial": 230, "trialdata": {"rt": -1, "trial_type": "single-stim", "word": "cook", "stimulus": "<p id=\"stim\">COOK</p>", "conditions": [12, 1600, "v", 24000], "internal_node_id": "0.0-167.0", "trial": 6, "time_elapsed": 1768367, "serialpos": 5, "key_press": -1, "wordID": 371, "type": "PRES_VIS", "trial_index": 230}, "uniqueid": "MTK2512:3A1COHJ8NK2X9TWB2AJ4V2P4CZB8HL", "dateTime": 1517949167963}, {"current_trial": 231, "trialdata": {"rt": -1, "trial_type": "single-stim", "word": "radish", "stimulus": "<p id=\"stim\">RADISH</p>", "conditions": [12, 1600, "v", 24000], "internal_node_id": "0.0-168.0", "trial": 6, "time_elapsed": 1770945, "serialpos": 6, "key_press": -1, "wordID": 1157, "type": "PRES_VIS", "trial_index": 231}, "uniqueid": "MTK2512:3A1COHJ8NK2X9TWB2AJ4V2P4CZB8HL", "dateTime": 1517949170541}, {"current_trial": 232, "trialdata": {"rt": -1, "trial_type": "single-stim", "word": "wrist", "stimulus": "<p id=\"stim\">WRIST</p>", "conditions": [12, 1600, "v", 24000], "internal_node_id": "0.0-169.0", "trial": 6, "time_elapsed": 1773695, "serialpos": 7, "key_press": -1, "wordID": 1625, "type": "PRES_VIS", "trial_index": 232}, "uniqueid": "MTK2512:3A1COHJ8NK2X9TWB2AJ4V2P4CZB8HL", "dateTime": 1517949173291}, {"current_trial": 233, "trialdata": {"rt": -1, "trial_type": "single-stim", "word": "finger", "stimulus": "<p id=\"stim\">FINGER</p>", "conditions": [12, 1600, "v", 24000], "internal_node_id": "0.0-170.0", "trial": 6, "time_elapsed": 1776489, "serialpos": 8, "key_press": -1, "wordID": 566, "type": "PRES_VIS", "trial_index": 233}, "uniqueid": "MTK2512:3A1COHJ8NK2X9TWB2AJ4V2P4CZB8HL", "dateTime": 1517949176085}, {"current_trial": 234, "trialdata": {"rt": -1, "trial_type": "single-stim", "word": "taxi", "stimulus": "<p id=\"stim\">TAXI</p>", "conditions": [12, 1600, "v", 24000], "internal_node_id": "0.0-171.0", "trial": 6, "time_elapsed": 1779048, "serialpos": 9, "key_press": -1, "wordID": 1437, "type": "PRES_VIS", "trial_index": 234}, "uniqueid": "MTK2512:3A1COHJ8NK2X9TWB2AJ4V2P4CZB8HL", "dateTime": 1517949178644}, {"current_trial": 235, "trialdata": {"rt": -1, "trial_type": "single-stim", "word": "motor", "stimulus": "<p id=\"stim\">MOTOR</p>", "conditions": [12, 1600, "v", 24000], "internal_node_id": "0.0-172.0", "trial": 6, "time_elapsed": 1781806, "serialpos": 10, "key_press": -1, "wordID": 921, "type": "PRES_VIS", "trial_index": 235}, "uniqueid": "MTK2512:3A1COHJ8NK2X9TWB2AJ4V2P4CZB8HL", "dateTime": 1517949181402}, {"current_trial": 236, "trialdata": {"rt": -1, "trial_type": "single-stim", "word": "cousin", "stimulus": "<p id=\"stim\">COUSIN</p>", "conditions": [12, 1600, "v", 24000], "internal_node_id": "0.0-173.0", "trial": 6, "time_elapsed": 1784492, "serialpos": 11, "key_press": -1, "wordID": 391, "type": "PRES_VIS", "trial_index": 236}, "uniqueid": "MTK2512:3A1COHJ8NK2X9TWB2AJ4V2P4CZB8HL", "dateTime": 1517949184088}, {"current_trial": 237, "trialdata": {"rt": -1, "trial_type": "single-stim", "stimulus": "", "internal_node_id": "0.0-174.0-0.0", "time_elapsed": 1786662, "key_press": -1, "type": "PRE_RECALL_DELAY", "trial_index": 237}, "uniqueid": "MTK2512:3A1COHJ8NK2X9TWB2AJ4V2P4CZB8HL", "dateTime": 1517949186258}, {"current_trial": 238, "trialdata": {"rt": -1000, "trial_type": "single-audio", "stimulus": "/static/audio/400Hz.wav", "internal_node_id": "0.0-175.0", "time_elapsed": 1787164, "key_press": -1, "type": "PRE_RECALL_ALERT", "trial_index": 238}, "uniqueid": "MTK2512:3A1COHJ8NK2X9TWB2AJ4V2P4CZB8HL", "dateTime": 1517949186760}, {"current_trial": 239, "trialdata": {"rt": [8058, 15800, 23877, 33397, 53410], "recwords": ["postage", "radish", "cook", "motor", "fox"], "key_times": [2735, 3003, 3776, 4227, 4849, 5434, 5909, 8058, 11306, 12958, 13229, 13890, 14484, 14986, 15800, 21174, 22277, 22502, 22805, 23877, 30308, 30829, 31394, 31838, 32513, 33397, 51089, 51820, 52554, 53410], "trial_type": "free-recall", "conditions": [12, 1600, "v", 24000], "internal_node_id": "0.0-176.0-0.0", "key_presses": [80, 79, 83, 84, 65, 71, 69, 13, 82, 65, 68, 73, 83, 72, 13, 67, 79, 79, 75, 13, 77, 79, 84, 79, 82, 13, 70, 79, 88, 13], "trial": 6, "time_elapsed": 1847167, "type": "FREE_RECALL", "trial_index": 239}, "uniqueid": "MTK2512:3A1COHJ8NK2X9TWB2AJ4V2P4CZB8HL", "dateTime": 1517949246764}, {"current_trial": 240, "trialdata": {"rt": 47286, "trial_type": "text", "internal_node_id": "0.0-177.0", "time_elapsed": 1896456, "key_press": 13, "type": "INSTRUCTIONS", "trial_index": 240}, "uniqueid": "MTK2512:3A1COHJ8NK2X9TWB2AJ4V2P4CZB8HL", "dateTime": 1517949296052}, {"current_trial": 241, "trialdata": {"rt": [4878, 10444, 13951, 16974, 23055], "trial_type": "math-distractor", "key_times": [3752, 4038, 4878, 7700, 9681, 10444, 13332, 13951, 16502, 16974, 21298, 21934, 23055], "responses": ["12", "11", "5", "9", "18"], "num2": [6, 5, 3, 2, 4, 4], "num3": [1, 3, 1, 5, 7, 5], "conditions": [24, 1600, "v", 24000], "internal_node_id": "0.0-178.0", "key_presses": [49, 50, 13, 49, 49, 13, 53, 13, 57, 13, 49, 56, 13], "trial": 7, "time_elapsed": 1922458, "type": "DISTRACTOR", "trial_index": 241, "num1": [5, 3, 1, 2, 8, 9]}, "uniqueid": "MTK2512:3A1COHJ8NK2X9TWB2AJ4V2P4CZB8HL", "dateTime": 1517949322055}, {"current_trial": 242, "trialdata": {"rt": -1, "trial_type": "single-stim", "stimulus": "<p id=\"stim\">10</p>", "internal_node_id": "0.0-179.0-0.0", "time_elapsed": 1925460, "key_press": -1, "trial_index": 242}, "uniqueid": "MTK2512:3A1COHJ8NK2X9TWB2AJ4V2P4CZB8HL", "dateTime": 1517949325056}, {"current_trial": 243, "trialdata": {"rt": -1, "trial_type": "single-stim", "stimulus": "<p id=\"stim\">9</p>", "internal_node_id": "0.0-179.0-1.0", "time_elapsed": 1926461, "key_press": -1, "trial_index": 243}, "uniqueid": "MTK2512:3A1COHJ8NK2X9TWB2AJ4V2P4CZB8HL", "dateTime": 1517949326057}, {"current_trial": 244, "trialdata": {"rt": -1, "trial_type": "single-stim", "stimulus": "<p id=\"stim\">8</p>", "internal_node_id": "0.0-179.0-2.0", "time_elapsed": 1927462, "key_press": -1, "trial_index": 244}, "uniqueid": "MTK2512:3A1COHJ8NK2X9TWB2AJ4V2P4CZB8HL", "dateTime": 1517949327058}, {"current_trial": 245, "trialdata": {"rt": -1, "trial_type": "single-stim", "stimulus": "<p id=\"stim\">7</p>", "internal_node_id": "0.0-179.0-3.0", "time_elapsed": 1928463, "key_press": -1, "trial_index": 245}, "uniqueid": "MTK2512:3A1COHJ8NK2X9TWB2AJ4V2P4CZB8HL", "dateTime": 1517949328059}, {"current_trial": 246, "trialdata": {"rt": -1, "trial_type": "single-stim", "stimulus": "<p id=\"stim\">6</p>", "internal_node_id": "0.0-179.0-4.0", "time_elapsed": 1929463, "key_press": -1, "trial_index": 246}, "uniqueid": "MTK2512:3A1COHJ8NK2X9TWB2AJ4V2P4CZB8HL", "dateTime": 1517949329059}, {"current_trial": 247, "trialdata": {"rt": -1, "trial_type": "single-stim", "stimulus": "<p id=\"stim\">5</p>", "internal_node_id": "0.0-179.0-5.0", "time_elapsed": 1930464, "key_press": -1, "trial_index": 247}, "uniqueid": "MTK2512:3A1COHJ8NK2X9TWB2AJ4V2P4CZB8HL", "dateTime": 1517949330060}, {"current_trial": 248, "trialdata": {"rt": -1, "trial_type": "single-stim", "stimulus": "<p id=\"stim\">4</p>", "internal_node_id": "0.0-179.0-6.0", "time_elapsed": 1931465, "key_press": -1, "trial_index": 248}, "uniqueid": "MTK2512:3A1COHJ8NK2X9TWB2AJ4V2P4CZB8HL", "dateTime": 1517949331061}, {"current_trial": 249, "trialdata": {"rt": -1, "trial_type": "single-stim", "stimulus": "<p id=\"stim\">3</p>", "internal_node_id": "0.0-179.0-7.0", "time_elapsed": 1932466, "key_press": -1, "trial_index": 249}, "uniqueid": "MTK2512:3A1COHJ8NK2X9TWB2AJ4V2P4CZB8HL", "dateTime": 1517949332062}, {"current_trial": 250, "trialdata": {"rt": -1, "trial_type": "single-stim", "stimulus": "<p id=\"stim\">2</p>", "internal_node_id": "0.0-179.0-8.0", "time_elapsed": 1933467, "key_press": -1, "trial_index": 250}, "uniqueid": "MTK2512:3A1COHJ8NK2X9TWB2AJ4V2P4CZB8HL", "dateTime": 1517949333063}, {"current_trial": 251, "trialdata": {"rt": -1, "trial_type": "single-stim", "stimulus": "<p id=\"stim\">1</p>", "internal_node_id": "0.0-179.0-9.0", "time_elapsed": 1934469, "key_press": -1, "trial_index": 251}, "uniqueid": "MTK2512:3A1COHJ8NK2X9TWB2AJ4V2P4CZB8HL", "dateTime": 1517949334065}, {"current_trial": 252, "trialdata": {"rt": -1, "trial_type": "single-stim", "stimulus": "<p id=\"stim\">+</p>", "internal_node_id": "0.0-180.0-0.0", "time_elapsed": 1935970, "key_press": -1, "type": "FIXATION", "trial_index": 252}, "uniqueid": "MTK2512:3A1COHJ8NK2X9TWB2AJ4V2P4CZB8HL", "dateTime": 1517949335566}, {"current_trial": 253, "trialdata": {"rt": -1, "trial_type": "single-stim", "word": "penguin", "stimulus": "<p id=\"stim\">PENGUIN</p>", "conditions": [24, 1600, "v", 24000], "internal_node_id": "0.0-181.0", "trial": 7, "time_elapsed": 1937571, "serialpos": 0, "key_press": -1, "wordID": 1043, "type": "PRES_VIS", "trial_index": 253}, "uniqueid": "MTK2512:3A1COHJ8NK2X9TWB2AJ4V2P4CZB8HL", "dateTime": 1517949337167}, {"current_trial": 254, "trialdata": {"rt": -1, "trial_type": "single-stim", "word": "journal", "stimulus": "<p id=\"stim\">JOURNAL</p>", "conditions": [24, 1600, "v", 24000], "internal_node_id": "0.0-182.0", "trial": 7, "time_elapsed": 1940204, "serialpos": 1, "key_press": -1, "wordID": 759, "type": "PRES_VIS", "trial_index": 254}, "uniqueid": "MTK2512:3A1COHJ8NK2X9TWB2AJ4V2P4CZB8HL", "dateTime": 1517949339800}, {"current_trial": 255, "trialdata": {"rt": -1, "trial_type": "single-stim", "word": "report", "stimulus": "<p id=\"stim\">REPORT</p>", "conditions": [24, 1600, "v", 24000], "internal_node_id": "0.0-183.0", "trial": 7, "time_elapsed": 1942875, "serialpos": 2, "key_press": -1, "wordID": 1183, "type": "PRES_VIS", "trial_index": 255}, "uniqueid": "MTK2512:3A1COHJ8NK2X9TWB2AJ4V2P4CZB8HL", "dateTime": 1517949342471}, {"current_trial": 256, "trialdata": {"rt": -1, "trial_type": "single-stim", "word": "parrot", "stimulus": "<p id=\"stim\">PARROT</p>", "conditions": [24, 1600, "v", 24000], "internal_node_id": "0.0-184.0", "trial": 7, "time_elapsed": 1945637, "serialpos": 3, "key_press": -1, "wordID": 1014, "type": "PRES_VIS", "trial_index": 256}, "uniqueid": "MTK2512:3A1COHJ8NK2X9TWB2AJ4V2P4CZB8HL", "dateTime": 1517949345233}, {"current_trial": 257, "trialdata": {"rt": -1, "trial_type": "single-stim", "word": "label", "stimulus": "<p id=\"stim\">LABEL</p>", "conditions": [24, 1600, "v", 24000], "internal_node_id": "0.0-185.0", "trial": 7, "time_elapsed": 1948113, "serialpos": 4, "key_press": -1, "wordID": 789, "type": "PRES_VIS", "trial_index": 257}, "uniqueid": "MTK2512:3A1COHJ8NK2X9TWB2AJ4V2P4CZB8HL", "dateTime": 1517949347710}, {"current_trial": 258, "trialdata": {"rt": -1, "trial_type": "single-stim", "word": "lava", "stimulus": "<p id=\"stim\">LAVA</p>", "conditions": [24, 1600, "v", 24000], "internal_node_id": "0.0-186.0", "trial": 7, "time_elapsed": 1950537, "serialpos": 5, "key_press": -1, "wordID": 803, "type": "PRES_VIS", "trial_index": 258}, "uniqueid": "MTK2512:3A1COHJ8NK2X9TWB2AJ4V2P4CZB8HL", "dateTime": 1517949350133}, {"current_trial": 259, "trialdata": {"rt": -1, "trial_type": "single-stim", "word": "baby", "stimulus": "<p id=\"stim\">BABY</p>", "conditions": [24, 1600, "v", 24000], "internal_node_id": "0.0-187.0", "trial": 7, "time_elapsed": 1953077, "serialpos": 6, "key_press": -1, "wordID": 63, "type": "PRES_VIS", "trial_index": 259}, "uniqueid": "MTK2512:3A1COHJ8NK2X9TWB2AJ4V2P4CZB8HL", "dateTime": 1517949352673}, {"current_trial": 260, "trialdata": {"rt": -1, "trial_type": "single-stim", "word": "sphinx", "stimulus": "<p id=\"stim\">SPHINX</p>", "conditions": [24, 1600, "v", 24000], "internal_node_id": "0.0-188.0", "trial": 7, "time_e