{"assignmentId": "30IQTZXKALDCDURNCAOB597GGG90XN", "workerId": "MTK2083", "questiondata": {"origin": "United States", "strat-rehearsal": "21", "marital": "Single", "education": "Bachelor's degree", "ethnicity": "Not Hispanic", "color_depth": 24, "distracted": "No", "wrote-notes": "No", "strat-other": "n/a", "screen_width": 1280, "avail_screen_width": 1280, "avail_screen_height": 773, "strat-image": "100", "language": "english", "gender": "Male", "age": "26", "gender_other": "", "race": ["White"], "strat-categorize": "19", "pixel_depth": 24, "strat-spatial": "100", "strat-story": "88", "race_other": "", "screen_height": 800}, "bonus": 0, "hitId": "3N7PQ0KLI5WX1219AQB0UYOWL3QE30", "counterbalance": 1448, "useragent": "Mozilla/5.0 (Macintosh; Intel Mac OS X 10_10_2) AppleWebKit/537.36 (KHTML, like Gecko) Chrome/63.0.3239.108 Safari/537.36", "eventdata": [{"eventtype": "initialized", "interval": 0, "value": null, "timestamp": 1516729020230}, {"eventtype": "window_resize", "interval": 1, "value": [1280, 722], "timestamp": 1516729020231}, {"eventtype": "focus", "interval": 1120301, "value": "off", "timestamp": 1516730140532}, {"eventtype": "focus", "interval": 4560, "value": "on", "timestamp": 1516730145092}, {"eventtype": "focus", "interval": 595010, "value": "off", "timestamp": 1516730740102}, {"eventtype": "focus", "interval": 6937, "value": "on", "timestamp": 1516730747039}, {"eventtype": "focus", "interval": 751990, "value": "off", "timestamp": 1516731499029}, {"eventtype": "focus", "interval": 2364, "value": "on", "timestamp": 1516731501393}, {"eventtype": "focus", "interval": 22708, "value": "off", "timestamp": 1516731524101}, {"eventtype": "focus", "interval": 2345, "value": "on", "timestamp": 1516731526446}, {"eventtype": "focus", "interval": 47945, "value": "off", "timestamp": 1516731574391}, {"eventtype": "focus", "interval": 17058, "value": "on", "timestamp": 1516731591449}], "data": [{"current_trial": 0, "trialdata": {"rt": 1899, "trial_type": "text", "internal_node_id": "0.0-0.0", "time_elapsed": 1904, "key_press": 13, "type": "INSTRUCTIONS", "trial_index": 0}, "uniqueid": "MTK2083:30IQTZXKALDCDURNCAOB597GGG90XN", "dateTime": 1516729022814}, {"current_trial": 1, "trialdata": {"rt": 21904, "trial_type": "text", "internal_node_id": "0.0-1.0", "time_elapsed": 23811, "key_press": 13, "type": "INSTRUCTIONS", "trial_index": 1}, "uniqueid": "MTK2083:30IQTZXKALDCDURNCAOB597GGG90XN", "dateTime": 1516729044720}, {"current_trial": 2, "trialdata": {"rt": [8031], "trial_type": "audio-test", "responses": ["ocean"], "internal_node_id": "0.0-2.0", "time_elapsed": 31909, "type": "AUDIO_TEST", "trial_index": 2}, "uniqueid": "MTK2083:30IQTZXKALDCDURNCAOB597GGG90XN", "dateTime": 1516729052818}, {"current_trial": 3, "trialdata": {"rt": [9333], "trial_type": "audio-test", "responses": ["crystal"], "internal_node_id": "0.0-3.0", "time_elapsed": 41252, "type": "AUDIO_TEST", "trial_index": 3}, "uniqueid": "MTK2083:30IQTZXKALDCDURNCAOB597GGG90XN", "dateTime": 1516729062162}, {"current_trial": 4, "trialdata": {"rt": [6464], "trial_type": "audio-test", "responses": ["spice"], "internal_node_id": "0.0-4.0", "time_elapsed": 47723, "type": "AUDIO_TEST", "trial_index": 4}, "uniqueid": "MTK2083:30IQTZXKALDCDURNCAOB597GGG90XN", "dateTime": 1516729068633}, {"current_trial": 5, "trialdata": {"rt": 30238, "trial_type": "survey-text", "responses": "{\"Q0\":\"1030pm\",\"Q1\":\"720am\",\"Q2\":\"4\"}", "internal_node_id": "0.0-5.0", "time_elapsed": 78718, "type": "SLEEP_SURVEY", "trial_index": 5}, "uniqueid": "MTK2083:30IQTZXKALDCDURNCAOB597GGG90XN", "dateTime": 1516729099627}, {"current_trial": 6, "trialdata": {"rt": 29522, "trial_type": "text", "internal_node_id": "0.0-6.0", "time_elapsed": 109241, "key_press": 13, "type": "INSTRUCTIONS", "trial_index": 6}, "uniqueid": "MTK2083:30IQTZXKALDCDURNCAOB597GGG90XN", "dateTime": 1516729130151}, {"current_trial": 7, "trialdata": {"rt": 17865, "trial_type": "text", "internal_node_id": "0.0-7.0", "time_elapsed": 127608, "key_press": 13, "type": "INSTRUCTIONS", "trial_index": 7}, "uniqueid": "MTK2083:30IQTZXKALDCDURNCAOB597GGG90XN", "dateTime": 1516729148518}, {"current_trial": 8, "trialdata": {"rt": 67247, "trial_type": "text", "internal_node_id": "0.0-8.0", "time_elapsed": 195359, "key_press": 13, "type": "INSTRUCTIONS", "trial_index": 8}, "uniqueid": "MTK2083:30IQTZXKALDCDURNCAOB597GGG90XN", "dateTime": 1516729216268}, {"current_trial": 9, "trialdata": {"rt": [4047, 9258, 12376, 14433, 16504], "trial_type": "math-distractor", "key_times": [3856, 4047, 8521, 8649, 9258, 11680, 12128, 12376, 13936, 14104, 14433, 15984, 16393, 16504], "responses": ["8", "12", "17", "10", "16"], "num2": [1, 3, 4, 3, 9, 6], "num3": [5, 5, 5, 2, 5, 5], "conditions": [18, 1200, "v", 18000], "internal_node_id": "0.0-9.0", "key_presses": [56, 13, 49, 50, 13, 49, 55, 13, 49, 48, 13, 49, 54, 13], "trial": 0, "time_elapsed": 214375, "type": "DISTRACTOR", "trial_index": 9, "num1": [2, 4, 8, 5, 2, 8]}, "uniqueid": "MTK2083:30IQTZXKALDCDURNCAOB597GGG90XN", "dateTime": 1516729235284}, {"current_trial": 10, "trialdata": {"rt": -1, "trial_type": "single-stim", "stimulus": "<p id=\"stim\">10</p>", "internal_node_id": "0.0-10.0-0.0", "time_elapsed": 217378, "key_press": -1, "trial_index": 10}, "uniqueid": "MTK2083:30IQTZXKALDCDURNCAOB597GGG90XN", "dateTime": 1516729238287}, {"current_trial": 11, "trialdata": {"rt": -1, "trial_type": "single-stim", "stimulus": "<p id=\"stim\">9</p>", "internal_node_id": "0.0-10.0-1.0", "time_elapsed": 218384, "key_press": -1, "trial_index": 11}, "uniqueid": "MTK2083:30IQTZXKALDCDURNCAOB597GGG90XN", "dateTime": 1516729239293}, {"current_trial": 12, "trialdata": {"rt": -1, "trial_type": "single-stim", "stimulus": "<p id=\"stim\">8</p>", "internal_node_id": "0.0-10.0-2.0", "time_elapsed": 219388, "key_press": -1, "trial_index": 12}, "uniqueid": "MTK2083:30IQTZXKALDCDURNCAOB597GGG90XN", "dateTime": 1516729240297}, {"current_trial": 13, "trialdata": {"rt": -1, "trial_type": "single-stim", "stimulus": "<p id=\"stim\">7</p>", "internal_node_id": "0.0-10.0-3.0", "time_elapsed": 220392, "key_press": -1, "trial_index": 13}, "uniqueid": "MTK2083:30IQTZXKALDCDURNCAOB597GGG90XN", "dateTime": 1516729241301}, {"current_trial": 14, "trialdata": {"rt": -1, "trial_type": "single-stim", "stimulus": "<p id=\"stim\">6</p>", "internal_node_id": "0.0-10.0-4.0", "time_elapsed": 221396, "key_press": -1, "trial_index": 14}, "uniqueid": "MTK2083:30IQTZXKALDCDURNCAOB597GGG90XN", "dateTime": 1516729242305}, {"current_trial": 15, "trialdata": {"rt": -1, "trial_type": "single-stim", "stimulus": "<p id=\"stim\">5</p>", "internal_node_id": "0.0-10.0-5.0", "time_elapsed": 222401, "key_press": -1, "trial_index": 15}, "uniqueid": "MTK2083:30IQTZXKALDCDURNCAOB597GGG90XN", "dateTime": 1516729243310}, {"current_trial": 16, "trialdata": {"rt": -1, "trial_type": "single-stim", "stimulus": "<p id=\"stim\">4</p>", "internal_node_id": "0.0-10.0-6.0", "time_elapsed": 223405, "key_press": -1, "trial_index": 16}, "uniqueid": "MTK2083:30IQTZXKALDCDURNCAOB597GGG90XN", "dateTime": 1516729244314}, {"current_trial": 17, "trialdata": {"rt": -1, "trial_type": "single-stim", "stimulus": "<p id=\"stim\">3</p>", "internal_node_id": "0.0-10.0-7.0", "time_elapsed": 224409, "key_press": -1, "trial_index": 17}, "uniqueid": "MTK2083:30IQTZXKALDCDURNCAOB597GGG90XN", "dateTime": 1516729245318}, {"current_trial": 18, "trialdata": {"rt": -1, "trial_type": "single-stim", "stimulus": "<p id=\"stim\">2</p>", "internal_node_id": "0.0-10.0-8.0", "time_elapsed": 225414, "key_press": -1, "trial_index": 18}, "uniqueid": "MTK2083:30IQTZXKALDCDURNCAOB597GGG90XN", "dateTime": 1516729246323}, {"current_trial": 19, "trialdata": {"rt": -1, "trial_type": "single-stim", "stimulus": "<p id=\"stim\">1</p>", "internal_node_id": "0.0-10.0-9.0", "time_elapsed": 226417, "key_press": -1, "trial_index": 19}, "uniqueid": "MTK2083:30IQTZXKALDCDURNCAOB597GGG90XN", "dateTime": 1516729247327}, {"current_trial": 20, "trialdata": {"rt": -1, "trial_type": "single-stim", "stimulus": "<p id=\"stim\">+</p>", "internal_node_id": "0.0-11.0-0.0", "time_elapsed": 227922, "key_press": -1, "type": "FIXATION", "trial_index": 20}, "uniqueid": "MTK2083:30IQTZXKALDCDURNCAOB597GGG90XN", "dateTime": 1516729248831}, {"current_trial": 21, "trialdata": {"rt": -1, "trial_type": "single-stim", "word": "parrot", "stimulus": "<p id=\"stim\">PARROT</p>", "conditions": [18, 1200, "v", 18000], "internal_node_id": "0.0-12.0", "trial": 0, "time_elapsed": 229127, "serialpos": 0, "key_press": -1, "wordID": 1014, "type": "PRES_VIS", "trial_index": 21}, "uniqueid": "MTK2083:30IQTZXKALDCDURNCAOB597GGG90XN", "dateTime": 1516729250037}, {"current_trial": 22, "trialdata": {"rt": -1, "trial_type": "single-stim", "word": "zebra", "stimulus": "<p id=\"stim\">ZEBRA</p>", "conditions": [18, 1200, "v", 18000], "internal_node_id": "0.0-13.0", "trial": 0, "time_elapsed": 231286, "serialpos": 1, "key_press": -1, "wordID": 1634, "type": "PRES_VIS", "trial_index": 22}, "uniqueid": "MTK2083:30IQTZXKALDCDURNCAOB597GGG90XN", "dateTime": 1516729252195}, {"current_trial": 23, "trialdata": {"rt": -1, "trial_type": "single-stim", "word": "sausage", "stimulus": "<p id=\"stim\">SAUSAGE</p>", "conditions": [18, 1200, "v", 18000], "internal_node_id": "0.0-14.0", "trial": 0, "time_elapsed": 233665, "serialpos": 2, "key_press": -1, "wordID": 1237, "type": "PRES_VIS", "trial_index": 23}, "uniqueid": "MTK2083:30IQTZXKALDCDURNCAOB597GGG90XN", "dateTime": 1516729254574}, {"current_trial": 24, "trialdata": {"rt": -1, "trial_type": "single-stim", "word": "nurse", "stimulus": "<p id=\"stim\">NURSE</p>", "conditions": [18, 1200, "v", 18000], "internal_node_id": "0.0-15.0", "trial": 0, "time_elapsed": 235762, "serialpos": 3, "key_press": -1, "wordID": 962, "type": "PRES_VIS", "trial_index": 24}, "uniqueid": "MTK2083:30IQTZXKALDCDURNCAOB597GGG90XN", "dateTime": 1516729256671}, {"current_trial": 25, "trialdata": {"rt": -1, "trial_type": "single-stim", "word": "braces", "stimulus": "<p id=\"stim\">BRACES</p>", "conditions": [18, 1200, "v", 18000], "internal_node_id": "0.0-16.0", "trial": 0, "time_elapsed": 237782, "serialpos": 4, "key_press": -1, "wordID": 163, "type": "PRES_VIS", "trial_index": 25}, "uniqueid": "MTK2083:30IQTZXKALDCDURNCAOB597GGG90XN", "dateTime": 1516729258691}, {"current_trial": 26, "trialdata": {"rt": -1, "trial_type": "single-stim", "word": "servant", "stimulus": "<p id=\"stim\">SERVANT</p>", "conditions": [18, 1200, "v", 18000], "internal_node_id": "0.0-17.0", "trial": 0, "time_elapsed": 239889, "serialpos": 5, "key_press": -1, "wordID": 1270, "type": "PRES_VIS", "trial_index": 26}, "uniqueid": "MTK2083:30IQTZXKALDCDURNCAOB597GGG90XN", "dateTime": 1516729260798}, {"current_trial": 27, "trialdata": {"rt": -1, "trial_type": "single-stim", "word": "cottage", "stimulus": "<p id=\"stim\">COTTAGE</p>", "conditions": [18, 1200, "v", 18000], "internal_node_id": "0.0-18.0", "trial": 0, "time_elapsed": 242035, "serialpos": 6, "key_press": -1, "wordID": 383, "type": "PRES_VIS", "trial_index": 27}, "uniqueid": "MTK2083:30IQTZXKALDCDURNCAOB597GGG90XN", "dateTime": 1516729262944}, {"current_trial": 28, "trialdata": {"rt": -1, "trial_type": "single-stim", "word": "guitar", "stimulus": "<p id=\"stim\">GUITAR</p>", "conditions": [18, 1200, "v", 18000], "internal_node_id": "0.0-19.0", "trial": 0, "time_elapsed": 244344, "serialpos": 7, "key_press": -1, "wordID": 669, "type": "PRES_VIS", "trial_index": 28}, "uniqueid": "MTK2083:30IQTZXKALDCDURNCAOB597GGG90XN", "dateTime": 1516729265254}, {"current_trial": 29, "trialdata": {"rt": -1, "trial_type": "single-stim", "word": "cod", "stimulus": "<p id=\"stim\">COD</p>", "conditions": [18, 1200, "v", 18000], "internal_node_id": "0.0-20.0", "trial": 0, "time_elapsed": 246411, "serialpos": 8, "key_press": -1, "wordID": 339, "type": "PRES_VIS", "trial_index": 29}, "uniqueid": "MTK2083:30IQTZXKALDCDURNCAOB597GGG90XN", "dateTime": 1516729267320}, {"current_trial": 30, "trialdata": {"rt": -1, "trial_type": "single-stim", "word": "custard", "stimulus": "<p id=\"stim\">CUSTARD</p>", "conditions": [18, 1200, "v", 18000], "internal_node_id": "0.0-21.0", "trial": 0, "time_elapsed": 248660, "serialpos": 9, "key_press": -1, "wordID": 428, "type": "PRES_VIS", "trial_index": 30}, "uniqueid": "MTK2083:30IQTZXKALDCDURNCAOB597GGG90XN", "dateTime": 1516729269570}, {"current_trial": 31, "trialdata": {"rt": -1, "trial_type": "single-stim", "word": "shrub", "stimulus": "<p id=\"stim\">SHRUB</p>", "conditions": [18, 1200, "v", 18000], "internal_node_id": "0.0-22.0", "trial": 0, "time_elapsed": 251009, "serialpos": 10, "key_press": -1, "wordID": 1298, "type": "PRES_VIS", "trial_index": 31}, "uniqueid": "MTK2083:30IQTZXKALDCDURNCAOB597GGG90XN", "dateTime": 1516729271918}, {"current_trial": 32, "trialdata": {"rt": -1, "trial_type": "single-stim", "word": "mars", "stimulus": "<p id=\"stim\">MARS</p>", "conditions": [18, 1200, "v", 18000], "internal_node_id": "0.0-23.0", "trial": 0, "time_elapsed": 253149, "serialpos": 11, "key_press": -1, "wordID": 872, "type": "PRES_VIS", "trial_index": 32}, "uniqueid": "MTK2083:30IQTZXKALDCDURNCAOB597GGG90XN", "dateTime": 1516729274058}, {"current_trial": 33, "trialdata": {"rt": -1, "trial_type": "single-stim", "word": "dust", "stimulus": "<p id=\"stim\">DUST</p>", "conditions": [18, 1200, "v", 18000], "internal_node_id": "0.0-24.0", "trial": 0, "time_elapsed": 255532, "serialpos": 12, "key_press": -1, "wordID": 507, "type": "PRES_VIS", "trial_index": 33}, "uniqueid": "MTK2083:30IQTZXKALDCDURNCAOB597GGG90XN", "dateTime": 1516729276441}, {"current_trial": 34, "trialdata": {"rt": -1, "trial_type": "single-stim", "word": "sibling", "stimulus": "<p id=\"stim\">SIBLING</p>", "conditions": [18, 1200, "v", 18000], "internal_node_id": "0.0-25.0", "trial": 0, "time_elapsed": 257607, "serialpos": 13, "key_press": -1, "wordID": 1300, "type": "PRES_VIS", "trial_index": 34}, "uniqueid": "MTK2083:30IQTZXKALDCDURNCAOB597GGG90XN", "dateTime": 1516729278516}, {"current_trial": 35, "trialdata": {"rt": -1, "trial_type": "single-stim", "word": "chipmunk", "stimulus": "<p id=\"stim\">CHIPMUNK</p>", "conditions": [18, 1200, "v", 18000], "internal_node_id": "0.0-26.0", "trial": 0, "time_elapsed": 259713, "serialpos": 14, "key_press": -1, "wordID": 303, "type": "PRES_VIS", "trial_index": 35}, "uniqueid": "MTK2083:30IQTZXKALDCDURNCAOB597GGG90XN", "dateTime": 1516729280622}, {"current_trial": 36, "trialdata": {"rt": -1, "trial_type": "single-stim", "word": "tortoise", "stimulus": "<p id=\"stim\">TORTOISE</p>", "conditions": [18, 1200, "v", 18000], "internal_node_id": "0.0-27.0", "trial": 0, "time_elapsed": 262058, "serialpos": 15, "key_press": -1, "wordID": 1485, "type": "PRES_VIS", "trial_index": 36}, "uniqueid": "MTK2083:30IQTZXKALDCDURNCAOB597GGG90XN", "dateTime": 1516729282967}, {"current_trial": 37, "trialdata": {"rt": -1, "trial_type": "single-stim", "word": "coffee", "stimulus": "<p id=\"stim\">COFFEE</p>", "conditions": [18, 1200, "v", 18000], "internal_node_id": "0.0-28.0", "trial": 0, "time_elapsed": 264232, "serialpos": 16, "key_press": -1, "wordID": 340, "type": "PRES_VIS", "trial_index": 37}, "uniqueid": "MTK2083:30IQTZXKALDCDURNCAOB597GGG90XN", "dateTime": 1516729285141}, {"current_trial": 38, "trialdata": {"rt": -1, "trial_type": "single-stim", "word": "jury", "stimulus": "<p id=\"stim\">JURY</p>", "conditions": [18, 1200, "v", 18000], "internal_node_id": "0.0-29.0", "trial": 0, "time_elapsed": 266333, "serialpos": 17, "key_press": -1, "wordID": 765, "type": "PRES_VIS", "trial_index": 38}, "uniqueid": "MTK2083:30IQTZXKALDCDURNCAOB597GGG90XN", "dateTime": 1516729287242}, {"current_trial": 39, "trialdata": {"rt": -1, "trial_type": "single-stim", "stimulus": "", "internal_node_id": "0.0-30.0-0.0", "time_elapsed": 269115, "key_press": -1, "type": "PRE_RECALL_DELAY", "trial_index": 39}, "uniqueid": "MTK2083:30IQTZXKALDCDURNCAOB597GGG90XN", "dateTime": 1516729290040}, {"current_trial": 40, "trialdata": {"rt": -1000, "trial_type": "single-audio", "stimulus": "/static/audio/400Hz.wav", "internal_node_id": "0.0-31.0", "time_elapsed": 270202, "key_press": -1, "type": "PRE_RECALL_ALERT", "trial_index": 40}, "uniqueid": "MTK2083:30IQTZXKALDCDURNCAOB597GGG90XN", "dateTime": 1516729291111}, {"current_trial": 41, "trialdata": {"rt": [9089, 12505, 16137, 19440, 21120, 27405, 41184], "recwords": ["parrot", "cottage", "jury", "coffee", "cod", "jury", "zebra"], "key_times": [4420, 4515, 5161, 5337, 5865, 5993, 6737, 6929, 7633, 7857, 9089, 9993, 10065, 10505, 10705, 11081, 11417, 11657, 11816, 12505, 13745, 13968, 14184, 14521, 15088, 16137, 16889, 17478, 17479, 17897, 18297, 18457, 18817, 18993, 19440, 20241, 20417, 20827, 21120, 26217, 26453, 26709, 27061, 27405, 39185, 39360, 39672, 39944, 40136, 40712, 41008, 41184], "trial_type": "free-recall", "conditions": [18, 1200, "v", 18000], "internal_node_id": "0.0-32.0-0.0", "key_presses": [67, 79, 8, 8, 80, 65, 82, 82, 79, 84, 13, 67, 79, 84, 84, 65, 71, 69, 16, 13, 74, 85, 82, 89, 16, 13, 67, 79, 70, 69, 8, 70, 69, 69, 13, 67, 79, 68, 13, 74, 85, 82, 89, 13, 90, 69, 86, 8, 66, 82, 65, 13], "trial": 0, "time_elapsed": 330560, "type": "FREE_RECALL", "trial_index": 41}, "uniqueid": "MTK2083:30IQTZXKALDCDURNCAOB597GGG90XN", "dateTime": 1516729351756}, {"current_trial": 42, "trialdata": {"rt": 2048, "trial_type": "text", "internal_node_id": "0.0-33.0", "time_elapsed": 334899, "key_press": 13, "type": "INSTRUCTIONS", "trial_index": 42}, "uniqueid": "MTK2083:30IQTZXKALDCDURNCAOB597GGG90XN", "dateTime": 1516729355808}, {"current_trial": 43, "trialdata": {"rt": [2765, 6435, 8379, 12878, 14974, 17102], "trial_type": "math-distractor", "key_times": [2365, 2629, 2765, 6123, 6227, 6435, 8189, 8379, 12350, 12687, 12878, 14758, 14974, 16526, 16814, 17102], "responses": ["12", "22", "6", "15", "8", "19"], "num2": [6, 5, 1, 7, 1, 6, 7], "num3": [1, 9, 3, 6, 4, 6, 6], "conditions": [18, 1200, "v", 18000], "internal_node_id": "0.0-34.0", "key_presses": [49, 50, 13, 50, 50, 13, 54, 13, 49, 53, 13, 56, 13, 49, 57, 13], "trial": 1, "time_elapsed": 354941, "type": "DISTRACTOR", "trial_index": 43, "num1": [5, 8, 2, 2, 3, 7, 5]}, "uniqueid": "MTK2083:30IQTZXKALDCDURNCAOB597GGG90XN", "dateTime": 1516729375850}, {"current_trial": 44, "trialdata": {"rt": -1, "trial_type": "single-stim", "stimulus": "<p id=\"stim\">10</p>", "internal_node_id": "0.0-35.0-0.0", "time_elapsed": 357946, "key_press": -1, "trial_index": 44}, "uniqueid": "MTK2083:30IQTZXKALDCDURNCAOB597GGG90XN", "dateTime": 1516729378856}, {"current_trial": 45, "trialdata": {"rt": -1, "trial_type": "single-stim", "stimulus": "<p id=\"stim\">9</p>", "internal_node_id": "0.0-35.0-1.0", "time_elapsed": 358951, "key_press": -1, "trial_index": 45}, "uniqueid": "MTK2083:30IQTZXKALDCDURNCAOB597GGG90XN", "dateTime": 1516729379860}, {"current_trial": 46, "trialdata": {"rt": -1, "trial_type": "single-stim", "stimulus": "<p id=\"stim\">8</p>", "internal_node_id": "0.0-35.0-2.0", "time_elapsed": 359954, "key_press": -1, "trial_index": 46}, "uniqueid": "MTK2083:30IQTZXKALDCDURNCAOB597GGG90XN", "dateTime": 1516729380864}, {"current_trial": 47, "trialdata": {"rt": -1, "trial_type": "single-stim", "stimulus": "<p id=\"stim\">7</p>", "internal_node_id": "0.0-35.0-3.0", "time_elapsed": 360959, "key_press": -1, "trial_index": 47}, "uniqueid": "MTK2083:30IQTZXKALDCDURNCAOB597GGG90XN", "dateTime": 1516729381868}, {"current_trial": 48, "trialdata": {"rt": -1, "trial_type": "single-stim", "stimulus": "<p id=\"stim\">6</p>", "internal_node_id": "0.0-35.0-4.0", "time_elapsed": 361963, "key_press": -1, "trial_index": 48}, "uniqueid": "MTK2083:30IQTZXKALDCDURNCAOB597GGG90XN", "dateTime": 1516729382872}, {"current_trial": 49, "trialdata": {"rt": -1, "trial_type": "single-stim", "stimulus": "<p id=\"stim\">5</p>", "internal_node_id": "0.0-35.0-5.0", "time_elapsed": 362967, "key_press": -1, "trial_index": 49}, "uniqueid": "MTK2083:30IQTZXKALDCDURNCAOB597GGG90XN", "dateTime": 1516729383876}, {"current_trial": 50, "trialdata": {"rt": -1, "trial_type": "single-stim", "stimulus": "<p id=\"stim\">4</p>", "internal_node_id": "0.0-35.0-6.0", "time_elapsed": 363971, "key_press": -1, "trial_index": 50}, "uniqueid": "MTK2083:30IQTZXKALDCDURNCAOB597GGG90XN", "dateTime": 1516729384880}, {"current_trial": 51, "trialdata": {"rt": -1, "trial_type": "single-stim", "stimulus": "<p id=\"stim\">3</p>", "internal_node_id": "0.0-35.0-7.0", "time_elapsed": 364975, "key_press": -1, "trial_index": 51}, "uniqueid": "MTK2083:30IQTZXKALDCDURNCAOB597GGG90XN", "dateTime": 1516729385884}, {"current_trial": 52, "trialdata": {"rt": -1, "trial_type": "single-stim", "stimulus": "<p id=\"stim\">2</p>", "internal_node_id": "0.0-35.0-8.0", "time_elapsed": 365979, "key_press": -1, "trial_index": 52}, "uniqueid": "MTK2083:30IQTZXKALDCDURNCAOB597GGG90XN", "dateTime": 1516729386888}, {"current_trial": 53, "trialdata": {"rt": -1, "trial_type": "single-stim", "stimulus": "<p id=\"stim\">1</p>", "internal_node_id": "0.0-35.0-9.0", "time_elapsed": 366983, "key_press": -1, "trial_index": 53}, "uniqueid": "MTK2083:30IQTZXKALDCDURNCAOB597GGG90XN", "dateTime": 1516729387892}, {"current_trial": 54, "trialdata": {"rt": -1, "trial_type": "single-stim", "stimulus": "<p id=\"stim\">+</p>", "internal_node_id": "0.0-36.0-0.0", "time_elapsed": 368487, "key_press": -1, "type": "FIXATION", "trial_index": 54}, "uniqueid": "MTK2083:30IQTZXKALDCDURNCAOB597GGG90XN", "dateTime": 1516729389396}, {"current_trial": 55, "trialdata": {"rt": -1, "trial_type": "single-stim", "word": "dime", "stimulus": "<p id=\"stim\">DIME</p>", "conditions": [18, 1200, "v", 18000], "internal_node_id": "0.0-37.0", "trial": 1, "time_elapsed": 369688, "serialpos": 0, "key_press": -1, "wordID": 465, "type": "PRES_VIS", "trial_index": 55}, "uniqueid": "MTK2083:30IQTZXKALDCDURNCAOB597GGG90XN", "dateTime": 1516729390597}, {"current_trial": 56, "trialdata": {"rt": -1, "trial_type": "single-stim", "word": "leopard", "stimulus": "<p id=\"stim\">LEOPARD</p>", "conditions": [18, 1200, "v", 18000], "internal_node_id": "0.0-38.0", "trial": 1, "time_elapsed": 371969, "serialpos": 1, "key_press": -1, "wordID": 811, "type": "PRES_VIS", "trial_index": 56}, "uniqueid": "MTK2083:30IQTZXKALDCDURNCAOB597GGG90XN", "dateTime": 1516729392878}, {"current_trial": 57, "trialdata": {"rt": -1, "trial_type": "single-stim", "word": "hawk", "stimulus": "<p id=\"stim\">HAWK</p>", "conditions": [18, 1200, "v", 18000], "internal_node_id": "0.0-39.0", "trial": 1, "time_elapsed": 374025, "serialpos": 2, "key_press": -1, "wordID": 691, "type": "PRES_VIS", "trial_index": 57}, "uniqueid": "MTK2083:30IQTZXKALDCDURNCAOB597GGG90XN", "dateTime": 1516729394934}, {"current_trial": 58, "trialdata": {"rt": -1, "trial_type": "single-stim", "word": "typist", "stimulus": "<p id=\"stim\">TYPIST</p>", "conditions": [18, 1200, "v", 18000], "internal_node_id": "0.0-40.0", "trial": 1, "time_elapsed": 376136, "serialpos": 3, "key_press": -1, "wordID": 1531, "type": "PRES_VIS", "trial_index": 58}, "uniqueid": "MTK2083:30IQTZXKALDCDURNCAOB597GGG90XN", "dateTime": 1516729397045}, {"current_trial": 59, "trialdata": {"rt": -1, "trial_type": "single-stim", "word": "report", "stimulus": "<p id=\"stim\">REPORT</p>", "conditions": [18, 1200, "v", 18000], "internal_node_id": "0.0-41.0", "trial": 1, "time_elapsed": 378330, "serialpos": 4, "key_press": -1, "wordID": 1183, "type": "PRES_VIS", "trial_index": 59}, "uniqueid": "MTK2083:30IQTZXKALDCDURNCAOB597GGG90XN", "dateTime": 1516729399239}, {"current_trial": 60, "trialdata": {"rt": -1, "trial_type": "single-stim", "word": "dress", "stimulus": "<p id=\"stim\">DRESS</p>", "conditions": [18, 1200, "v", 18000], "internal_node_id": "0.0-42.0", "trial": 1, "time_elapsed": 380714, "serialpos": 5, "key_press": -1, "wordID": 494, "type": "PRES_VIS", "trial_index": 60}, "uniqueid": "MTK2083:30IQTZXKALDCDURNCAOB597GGG90XN", "dateTime": 1516729401623}, {"current_trial": 61, "trialdata": {"rt": -1, "trial_type": "single-stim", "word": "stallion", "stimulus": "<p id=\"stim\">STALLION</p>", "conditions": [18, 1200, "v", 18000], "internal_node_id": "0.0-43.0", "trial": 1, "time_elapsed": 383095, "serialpos": 6, "key_press": -1, "wordID": 1368, "type": "PRES_VIS", "trial_index": 61}, "uniqueid": "MTK2083:30IQTZXKALDCDURNCAOB597GGG90XN", "dateTime": 1516729404004}, {"current_trial": 62, "trialdata": {"rt": -1, "trial_type": "single-stim", "word": "comet", "stimulus": "<p id=\"stim\">COMET</p>", "conditions": [18, 1200, "v", 18000], "internal_node_id": "0.0-44.0", "trial": 1, "time_elapsed": 385201, "serialpos": 7, "key_press": -1, "wordID": 352, "type": "PRES_VIS", "trial_index": 62}, "uniqueid": "MTK2083:30IQTZXKALDCDURNCAOB597GGG90XN", "dateTime": 1516729406110}, {"current_trial": 63, "trialdata": {"rt": -1, "trial_type": "single-stim", "word": "lapel", "stimulus": "<p id=\"stim\">LAPEL</p>", "conditions": [18, 1200, "v", 18000], "internal_node_id": "0.0-45.0", "trial": 1, "time_elapsed": 387307, "serialpos": 8, "key_press": -1, "wordID": 799, "type": "PRES_VIS", "trial_index": 63}, "uniqueid": "MTK2083:30IQTZXKALDCDURNCAOB597GGG90XN", "dateTime": 1516729408216}, {"current_trial": 64, "trialdata": {"rt": -1, "trial_type": "single-stim", "word": "staple", "stimulus": "<p id=\"stim\">STAPLE</p>", "conditions": [18, 1200, "v", 18000], "internal_node_id": "0.0-46.0", "trial": 1, "time_elapsed": 389415, "serialpos": 9, "key_press": -1, "wordID": 1370, "type": "PRES_VIS", "trial_index": 64}, "uniqueid": "MTK2083:30IQTZXKALDCDURNCAOB597GGG90XN", "dateTime": 1516729410325}, {"current_trial": 65, "trialdata": {"rt": -1, "trial_type": "single-stim", "word": "pizza", "stimulus": "<p id=\"stim\">PIZZA</p>", "conditions": [18, 1200, "v", 18000], "internal_node_id": "0.0-47.0", "trial": 1, "time_elapsed": 391447, "serialpos": 10, "key_press": -1, "wordID": 1078, "type": "PRES_VIS", "trial_index": 65}, "uniqueid": "MTK2083:30IQTZXKALDCDURNCAOB597GGG90XN", "dateTime": 1516729412357}, {"current_trial": 66, "trialdata": {"rt": -1, "trial_type": "single-stim", "word": "box", "stimulus": "<p id=\"stim\">BOX</p>", "conditions": [18, 1200, "v", 18000], "internal_node_id": "0.0-48.0", "trial": 1, "time_elapsed": 393513, "serialpos": 11, "key_press": -1, "wordID": 158, "type": "PRES_VIS", "trial_index": 66}, "uniqueid": "MTK2083:30IQTZXKALDCDURNCAOB597GGG90XN", "dateTime": 1516729414422}, {"current_trial": 67, "trialdata": {"rt": -1, "trial_type": "single-stim", "word": "banquet", "stimulus": "<p id=\"stim\">BANQUET</p>", "conditions": [18, 1200, "v", 18000], "internal_node_id": "0.0-49.0", "trial": 1, "time_elapsed": 395858, "serialpos": 12, "key_press": -1, "wordID": 85, "type": "PRES_VIS", "trial_index": 67}, "uniqueid": "MTK2083:30IQTZXKALDCDURNCAOB597GGG90XN", "dateTime": 1516729416767}, {"current_trial": 68, "trialdata": {"rt": -1, "trial_type": "single-stim", "word": "bacon", "stimulus": "<p id=\"stim\">BACON</p>", "conditions": [18, 1200, "v", 18000], "internal_node_id": "0.0-50.0", "trial": 1, "time_elapsed": 398046, "serialpos": 13, "key_press": -1, "wordID": 66, "type": "PRES_VIS", "trial_index": 68}, "uniqueid": "MTK2083:30IQTZXKALDCDURNCAOB597GGG90XN", "dateTime": 1516729418957}, {"current_trial": 69, "trialdata": {"rt": -1, "trial_type": "single-stim", "word": "mummy", "stimulus": "<p id=\"stim\">MUMMY</p>", "conditions": [18, 1200, "v", 18000], "internal_node_id": "0.0-51.0", "trial": 1, "time_elapsed": 400146, "serialpos": 14, "key_press": -1, "wordID": 931, "type": "PRES_VIS", "trial_index": 69}, "uniqueid": "MTK2083:30IQTZXKALDCDURNCAOB597GGG90XN", "dateTime": 1516729421056}, {"current_trial": 70, "trialdata": {"rt": -1, "trial_type": "single-stim", "word": "hiker", "stimulus": "<p id=\"stim\">HIKER</p>", "conditions": [18, 1200, "v", 18000], "internal_node_id": "0.0-52.0", "trial": 1, "time_elapsed": 402543, "serialpos": 15, "key_press": -1, "wordID": 707, "type": "PRES_VIS", "trial_index": 70}, "uniqueid": "MTK2083:30IQTZXKALDCDURNCAOB597GGG90XN", "dateTime": 1516729423453}, {"current_trial": 71, "trialdata": {"rt": -1, "trial_type": "single-stim", "word": "catcher", "stimulus": "<p id=\"stim\">CATCHER</p>", "conditions": [18, 1200, "v", 18000], "internal_node_id": "0.0-53.0", "trial": 1, "time_elapsed": 404737, "serialpos": 16, "key_press": -1, "wordID": 257, "type": "PRES_VIS", "trial_index": 71}, "uniqueid": "MTK2083:30IQTZXKALDCDURNCAOB597GGG90XN", "dateTime": 1516729425647}, {"current_trial": 72, "trialdata": {"rt": -1, "trial_type": "single-stim", "word": "marrow", "stimulus": "<p id=\"stim\">MARROW</p>", "conditions": [18, 1200, "v", 18000], "internal_node_id": "0.0-54.0", "trial": 1, "time_elapsed": 406937, "serialpos": 17, "key_press": -1, "wordID": 871, "type": "PRES_VIS", "trial_index": 72}, "uniqueid": "MTK2083:30IQTZXKALDCDURNCAOB597GGG90XN", "dateTime": 1516729427846}, {"current_trial": 73, "trialdata": {"rt": -1, "trial_type": "single-stim", "stimulus": "", "internal_node_id": "0.0-55.0-0.0", "time_elapsed": 409148, "key_press": -1, "type": "PRE_RECALL_DELAY", "trial_index": 73}, "uniqueid": "MTK2083:30IQTZXKALDCDURNCAOB597GGG90XN", "dateTime": 1516729430057}, {"current_trial": 74, "trialdata": {"rt": -1000, "trial_type": "single-audio", "stimulus": "/static/audio/400Hz.wav", "internal_node_id": "0.0-56.0", "time_elapsed": 409680, "key_press": -1, "type": "PRE_RECALL_ALERT", "trial_index": 74}, "uniqueid": "MTK2083:30IQTZXKALDCDURNCAOB597GGG90XN", "dateTime": 1516729430589}, {"current_trial": 75, "trialdata": {"rt": [3346, 5162, 7466, 8761, 11522, 13762, 16081, 17529, 40491, 43289], "recwords": ["marrow", "hiker", "catcher", "dime", "leapord", "hawk", "typist", "mummy", "staple", "laple"], "key_times": [1715, 1810, 2066, 2210, 2346, 2554, 3346, 4410, 4562, 4738, 4882, 5002, 5162, 5986, 6177, 6466, 6697, 6834, 7002, 7067, 7466, 8098, 8218, 8370, 8489, 8761, 9362, 9498, 10338, 10538, 10730, 10889, 11098, 11522, 12539, 12665, 12978, 13369, 13762, 14689, 15001, 15170, 15393, 15594, 15865, 16081, 16578, 16833, 17033, 17185, 17345, 17529, 34290, 34545, 34833, 34961, 35193, 35329, 35777, 35929, 36161, 36289, 36441, 37090, 37846, 38225, 38997, 39218, 39553, 39894, 39961, 40127, 40426, 40491, 41217, 41424, 41580, 41870, 41912, 43289], "trial_type": "free-recall", "conditions": [18, 1200, "v", 18000], "internal_node_id": "0.0-57.0-0.0", "key_presses": [77, 65, 82, 82, 79, 87, 13, 72, 73, 75, 69, 82, 13, 67, 65, 84, 67, 72, 69, 82, 13, 68, 73, 77, 69, 13, 76, 69, 65, 80, 79, 82, 68, 13, 72, 65, 87, 75, 13, 84, 89, 80, 73, 83, 84, 13, 77, 85, 77, 77, 89, 13, 83, 84, 83, 80, 76, 69, 220, 8, 8, 8, 8, 8, 8, 8, 83, 84, 65, 80, 76, 69, 16, 13, 76, 65, 80, 76, 69, 13], "trial": 1, "time_elapsed": 469686, "type": "FREE_RECALL", "trial_index": 75}, "uniqueid": "MTK2083:30IQTZXKALDCDURNCAOB597GGG90XN", "dateTime": 1516729490598}, {"current_trial": 76, "trialdata": {"rt": 2553, "trial_type": "text", "internal_node_id": "0.0-58.0", "time_elapsed": 474247, "key_press": 13, "type": "INSTRUCTIONS", "trial_index": 76}, "uniqueid": "MTK2083:30IQTZXKALDCDURNCAOB597GGG90XN", "dateTime": 1516729495156}, {"current_trial": 77, "trialdata": {"rt": [3032, 5521, 7896, 10240, 12648, 14847, 17103, 21479, 23423], "trial_type": "math-distractor", "key_times": [2272, 2448, 3032, 4792, 5016, 5521, 7256, 7616, 7896, 9610, 9768, 10240, 11952, 12120, 12648, 14136, 14351, 14847, 16391, 16528, 17103, 20049, 21263, 21479, 22896, 23016, 23423], "responses": ["10", "19", "14", "11", "11", "21", "12", "17", "21"], "num2": [3, 7, 8, 3, 1, 9, 9, 3, 9, 8], "num3": [6, 8, 5, 3, 7, 3, 2, 9, 3, 2], "conditions": [12, 1600, "v", 24000], "internal_node_id": "0.0-59.0", "key_presses": [49, 48, 13, 49, 57, 13, 49, 52, 13, 49, 49, 13, 49, 49, 13, 50, 49, 13, 49, 50, 13, 49, 55, 13, 50, 49, 13], "trial": 2, "time_elapsed": 499257, "type": "DISTRACTOR", "trial_index": 77, "num1": [1, 4, 1, 5, 3, 9, 1, 5, 9, 1]}, "uniqueid": "MTK2083:30IQTZXKALDCDURNCAOB597GGG90XN", "dateTime": 1516729520166}, {"current_trial": 78, "trialdata": {"rt": -1, "trial_type": "single-stim", "stimulus": "<p id=\"stim\">10</p>", "internal_node_id": "0.0-60.0-0.0", "time_elapsed": 502262, "key_press": -1, "trial_index": 78}, "uniqueid": "MTK2083:30IQTZXKALDCDURNCAOB597GGG90XN", "dateTime": 1516729523172}, {"current_trial": 79, "trialdata": {"rt": -1, "trial_type": "single-stim", "stimulus": "<p id=\"stim\">9</p>", "internal_node_id": "0.0-60.0-1.0", "time_elapsed": 503266, "key_press": -1, "trial_index": 79}, "uniqueid": "MTK2083:30IQTZXKALDCDURNCAOB597GGG90XN", "dateTime": 1516729524176}, {"current_trial": 80, "trialdata": {"rt": -1, "trial_type": "single-stim", "stimulus": "<p id=\"stim\">8</p>", "internal_node_id": "0.0-60.0-2.0", "time_elapsed": 504271, "key_press": -1, "trial_index": 80}, "uniqueid": "MTK2083:30IQTZXKALDCDURNCAOB597GGG90XN", "dateTime": 1516729525180}, {"current_trial": 81, "trialdata": {"rt": -1, "trial_type": "single-stim", "stimulus": "<p id=\"stim\">7</p>", "internal_node_id": "0.0-60.0-3.0", "time_elapsed": 505277, "key_press": -1, "trial_index": 81}, "uniqueid": "MTK2083:30IQTZXKALDCDURNCAOB597GGG90XN", "dateTime": 1516729526186}, {"current_trial": 82, "trialdata": {"rt": -1, "trial_type": "single-stim", "stimulus": "<p id=\"stim\">6</p>", "internal_node_id": "0.0-60.0-4.0", "time_elapsed": 506283, "key_press": -1, "trial_index": 82}, "uniqueid": "MTK2083:30IQTZXKALDCDURNCAOB597GGG90XN", "dateTime": 1516729527192}, {"current_trial": 83, "trialdata": {"rt": -1, "trial_type": "single-stim", "stimulus": "<p id=\"stim\">5</p>", "internal_node_id": "0.0-60.0-5.0", "time_elapsed": 507289, "key_press": -1, "trial_index": 83}, "uniqueid": "MTK2083:30IQTZXKALDCDURNCAOB597GGG90XN", "dateTime": 1516729528198}, {"current_trial": 84, "trialdata": {"rt": -1, "trial_type": "single-stim", "stimulus": "<p id=\"stim\">4</p>", "internal_node_id": "0.0-60.0-6.0", "time_elapsed": 508294, "key_press": -1, "trial_index": 84}, "uniqueid": "MTK2083:30IQTZXKALDCDURNCAOB597GGG90XN", "dateTime": 1516729529203}, {"current_trial": 85, "trialdata": {"rt": -1, "trial_type": "single-stim", "stimulus": "<p id=\"stim\">3</p>", "internal_node_id": "0.0-60.0-7.0", "time_elapsed": 509297, "key_press": -1, "trial_index": 85}, "uniqueid": "MTK2083:30IQTZXKALDCDURNCAOB597GGG90XN", "dateTime": 1516729530206}, {"current_trial": 86, "trialdata": {"rt": -1, "trial_type": "single-stim", "stimulus": "<p id=\"stim\">2</p>", "internal_node_id": "0.0-60.0-8.0", "time_elapsed": 510301, "key_press": -1, "trial_index": 86}, "uniqueid": "MTK2083:30IQTZXKALDCDURNCAOB597GGG90XN", "dateTime": 1516729531210}, {"current_trial": 87, "trialdata": {"rt": -1, "trial_type": "single-stim", "stimulus": "<p id=\"stim\">1</p>", "internal_node_id": "0.0-60.0-9.0", "time_elapsed": 511305, "key_press": -1, "trial_index": 87}, "uniqueid": "MTK2083:30IQTZXKALDCDURNCAOB597GGG90XN", "dateTime": 1516729532214}, {"current_trial": 88, "trialdata": {"rt": -1, "trial_type": "single-stim", "stimulus": "<p id=\"stim\">+</p>", "internal_node_id": "0.0-61.0-0.0", "time_elapsed": 512808, "key_press": -1, "type": "FIXATION", "trial_index": 88}, "uniqueid": "MTK2083:30IQTZXKALDCDURNCAOB597GGG90XN", "dateTime": 1516729533717}, {"current_trial": 89, "trialdata": {"rt": -1, "trial_type": "single-stim", "word": "bug", "stimulus": "<p id=\"stim\">BUG</p>", "conditions": [12, 1600, "v", 24000], "internal_node_id": "0.0-62.0", "trial": 2, "time_elapsed": 514414, "serialpos": 0, "key_press": -1, "wordID": 186, "type": "PRES_VIS", "trial_index": 89}, "uniqueid": "MTK2083:30IQTZXKALDCDURNCAOB597GGG90XN", "dateTime": 1516729535323}, {"current_trial": 90, "trialdata": {"rt": -1, "trial_type": "single-stim", "word": "buggy", "stimulus": "<p id=\"stim\">BUGGY</p>", "conditions": [12, 1600, "v", 24000], "internal_node_id": "0.0-63.0", "trial": 2, "time_elapsed": 517103, "serialpos": 1, "key_press": -1, "wordID": 187, "type": "PRES_VIS", "trial_index": 90}, "uniqueid": "MTK2083:30IQTZXKALDCDURNCAOB597GGG90XN", "dateTime": 1516729538012}, {"current_trial": 91, "trialdata": {"rt": -1, "trial_type": "single-stim", "word": "chemist", "stimulus": "<p id=\"stim\">CHEMIST</p>", "conditions": [12, 1600, "v", 24000], "internal_node_id": "0.0-64.0", "trial": 2, "time_elapsed": 519750, "serialpos": 2, "key_press": -1, "wordID": 291, "type": "PRES_VIS", "trial_index": 91}, "uniqueid": "MTK2083:30IQTZXKALDCDURNCAOB597GGG90XN", "dateTime": 1516729540659}, {"current_trial": 92, "trialdata": {"rt": -1, "trial_type": "single-stim", "word": "ketchup", "stimulus": "<p id=\"stim\">KETCHUP</p>", "conditions": [12, 1600, "v", 24000], "internal_node_id": "0.0-65.0", "trial": 2, "time_elapsed": 522382, "serialpos": 3, "key_press": -1, "wordID": 770, "type": "PRES_VIS", "trial_index": 92}, "uniqueid": "MTK2083:30IQTZXKALDCDURNCAOB597GGG90XN", "dateTime": 1516729543291}, {"current_trial": 93, "trialdata": {"rt": -1, "trial_type": "single-stim", "word": "casket", "stimulus": "<p id=\"stim\">CASKET</p>", "conditions": [12, 1600, "v", 24000], "internal_node_id": "0.0-66.0", "trial": 2, "time_elapsed": 525008, "serialpos": 4, "key_press": -1, "wordID": 254, "type": "PRES_VIS", "trial_index": 93}, "uniqueid": "MTK2083:30IQTZXKALDCDURNCAOB597GGG90XN", "dateTime": 1516729545917}, {"current_trial": 94, "trialdata": {"rt": -1, "trial_type": "single-stim", "word": "virus", "stimulus": "<p id=\"stim\">VIRUS</p>", "conditions": [12, 1600, "v", 24000], "internal_node_id": "0.0-67.0", "trial": 2, "time_elapsed": 527416, "serialpos": 5, "key_press": -1, "wordID": 1571, "type": "PRES_VIS", "trial_index": 94}, "uniqueid": "MTK2083:30IQTZXKALDCDURNCAOB597GGG90XN", "dateTime": 1516729548325}, {"current_trial": 95, "trialdata": {"rt": -1, "trial_type": "single-stim", "word": "canyon", "stimulus": "<p id=\"stim\">CANYON</p>", "conditions": [12, 1600, "v", 24000], "internal_node_id": "0.0-68.0", "trial": 2, "time_elapsed": 530191, "serialpos": 6, "key_press": -1, "wordID": 234, "type": "PRES_VIS", "trial_index": 95}, "uniqueid": "MTK2083:30IQTZXKALDCDURNCAOB597GGG90XN", "dateTime": 1516729551100}, {"current_trial": 96, "trialdata": {"rt": -1, "trial_type": "single-stim", "word": "sheriff", "stimulus": "<p id=\"stim\">SHERIFF</p>", "conditions": [12, 1600, "v", 24000], "internal_node_id": "0.0-69.0", "trial": 2, "time_elapsed": 532831, "serialpos": 7, "key_press": -1, "wordID": 1283, "type": "PRES_VIS", "trial_index": 96}, "uniqueid": "MTK2083:30IQTZXKALDCDURNCAOB597GGG90XN", "dateTime": 1516729553740}, {"current_trial": 97, "trialdata": {"rt": -1, "trial_type": "single-stim", "word": "frame", "stimulus": "<p id=\"stim\">FRAME</p>", "conditions": [12, 1600, "v", 24000], "internal_node_id": "0.0-70.0", "trial": 2, "time_elapsed": 535304, "serialpos": 8, "key_press": -1, "wordID": 599, "type": "PRES_VIS", "trial_index": 97}, "uniqueid": "MTK2083:30IQTZXKALDCDURNCAOB597GGG90XN", "dateTime": 1516729556213}, {"current_trial": 98, "trialdata": {"rt": -1, "trial_type": "single-stim", "word": "spouse", "stimulus": "<p id=\"stim\">SPOUSE</p>", "conditions": [12, 1600, "v", 24000], "internal_node_id": "0.0-71.0", "trial": 2, "time_elapsed": 537759, "serialpos": 9, "key_press": -1, "wordID": 1357, "type": "PRES_VIS", "trial_index": 98}, "uniqueid": "MTK2083:30IQTZXKALDCDURNCAOB597GGG90XN", "dateTime": 1516729558668}, {"current_trial": 99, "trialdata": {"rt": -1, "trial_type": "single-stim", "word": "flower", "stimulus": "<p id=\"stim\">FLOWER</p>", "conditions": [12, 1600, "v", 24000], "internal_node_id": "0.0-72.0", "trial": 2, "time_elapsed": 540295, "serialpos": 10, "key_press": -1, "wordID": 583, "type": "PRES_VIS", "trial_index": 99}, "uniqueid": "MTK2083:30IQTZXKALDCDURNCAOB597GGG90XN", "dateTime": 1516729561204}, {"current_trial": 100, "trialdata": {"rt": -1, "trial_type": "single-stim", "word": "orchid", "stimulus": "<p id=\"stim\">ORCHID</p>", "conditions": [12, 1600, "v", 24000], "internal_node_id": "0.0-73.0", "trial": 2, "time_elapsed": 542797, "serialpos": 11, "key_press": -1, "wordID": 981, "type": "PRES_VIS", "trial_index": 100}, "uniqueid": "MTK2083:30IQTZXKALDCDURNCAOB597GGG90XN", "dateTime": 1516729563706}, {"current_trial": 101, "trialdata": {"rt": -1, "trial_type": "single-stim", "stimulus": "", "internal_node_id": "0.0-74.0-0.0", "time_elapsed": 545170, "key_press": -1, "type": "PRE_RECALL_DELAY", "trial_index": 101}, "uniqueid": "MTK2083:30IQTZXKALDCDURNCAOB597GGG90XN", "dateTime": 1516729566079}, {"current_trial": 102, "trialdata": {"rt": -1000, "trial_type": "single-audio", "stimulus": "/static/audio/400Hz.wav", "internal_node_id": "0.0-75.0", "time_elapsed": 545673, "key_press": -1, "type": "PRE_RECALL_ALERT", "trial_index": 102}, "uniqueid": "MTK2083:30IQTZXKALDCDURNCAOB597GGG90XN", "dateTime": 1516729566582}, {"current_trial": 103, "trialdata": {"rt": [2815, 5199, 7366, 9503, 12439, 15071, 18086, 22320], "recwords": ["bug", "buggy", "chemist", "frame", "spouse", "flower", "orchard", "sherriff"], "key_times": [2040, 2279, 2503, 2815, 3608, 3759, 4167, 4311, 4623, 5199, 5584, 5783, 5951, 6111, 6703, 6783, 7096, 7366, 7999, 8159, 8599, 8847, 8967, 9503, 10079, 10263, 10727, 11367, 11735, 12152, 12439, 13759, 13879, 14087, 14391, 14542, 14743, 15071, 15919, 16078, 16326, 16759, 16886, 17126, 17318, 18086, 19830, 20063, 20207, 20430, 20583, 20742, 20967, 21278, 22320], "trial_type": "free-recall", "conditions": [12, 1600, "v", 24000], "internal_node_id": "0.0-76.0-0.0", "key_presses": [66, 85, 71, 13, 66, 85, 71, 71, 89, 13, 67, 72, 69, 77, 73, 83, 84, 13, 70, 82, 65, 77, 69, 13, 83, 80, 79, 85, 83, 69, 32, 70, 76, 79, 87, 69, 82, 13, 79, 82, 67, 72, 65, 82, 68, 13, 83, 72, 69, 82, 82, 73, 70, 70, 13], "trial": 2, "time_elapsed": 605677, "type": "FREE_RECALL", "trial_index": 103}, "uniqueid": "MTK2083:30IQTZXKALDCDURNCAOB597GGG90XN", "dateTime": 1516729626590}, {"current_trial": 104, "trialdata": {"rt": 2286, "trial_type": "text", "internal_node_id": "0.0-77.0", "time_elapsed": 609972, "key_press": 13, "type": "INSTRUCTIONS", "trial_index": 104}, "uniqueid": "MTK2083:30IQTZXKALDCDURNCAOB597GGG90XN", "dateTime": 1516729630881}, {"current_trial": 105, "trialdata": {"rt": [2163, 4379, 6995, 10043], "trial_type": "math-distractor", "key_times": [1507, 1699, 2163, 3971, 4091, 4379, 6491, 6995, 8948, 9308, 10043], "responses": ["10", "12", "9", "15"], "num2": [4, 3, 5, 8, 1], "num3": [4, 8, 2, 4, 9], "conditions": [24, 1600, "v", 12000], "internal_node_id": "0.0-78.0", "key_presses": [49, 48, 13, 49, 50, 13, 57, 13, 49, 53, 13], "trial": 3, "time_elapsed": 623977, "type": "DISTRACTOR", "trial_index": 105, "num1": [2, 1, 2, 3, 5]}, "uniqueid": "MTK2083:30IQTZXKALDCDURNCAOB597GGG90XN", "dateTime": 1516729644886}, {"current_trial": 106, "trialdata": {"rt": -1, "trial_type": "single-stim", "stimulus": "<p id=\"stim\">10</p>", "internal_node_id": "0.0-79.0-0.0", "time_elapsed": 626982, "key_press": -1, "trial_index": 106}, "uniqueid": "MTK2083:30IQTZXKALDCDURNCAOB597GGG90XN", "dateTime": 1516729647892}, {"current_trial": 107, "trialdata": {"rt": -1, "trial_type": "single-stim", "stimulus": "<p id=\"stim\">9</p>", "internal_node_id": "0.0-79.0-1.0", "time_elapsed": 627986, "key_press": -1, "trial_index": 107}, "uniqueid": "MTK2083:30IQTZXKALDCDURNCAOB597GGG90XN", "dateTime": 1516729648896}, {"current_trial": 108, "trialdata": {"rt": -1, "trial_type": "single-stim", "stimulus": "<p id=\"stim\">8</p>", "internal_node_id": "0.0-79.0-2.0", "time_elapsed": 628991, "key_press": -1, "trial_index": 108}, "uniqueid": "MTK2083:30IQTZXKALDCDURNCAOB597GGG90XN", "dateTime": 1516729649900}, {"current_trial": 109, "trialdata": {"rt": -1, "trial_type": "single-stim", "stimulus": "<p id=\"stim\">7</p>", "internal_node_id": "0.0-79.0-3.0", "time_elapsed": 629995, "key_press": -1, "trial_index": 109}, "uniqueid": "MTK2083:30IQTZXKALDCDURNCAOB597GGG90XN", "dateTime": 1516729650904}, {"current_trial": 110, "trialdata": {"rt": -1, "trial_type": "single-stim", "stimulus": "<p id=\"stim\">6</p>", "internal_node_id": "0.0-79.0-4.0", "time_elapsed": 630999, "key_press": -1, "trial_index": 110}, "uniqueid": "MTK2083:30IQTZXKALDCDURNCAOB597GGG90XN", "dateTime": 1516729651908}, {"current_trial": 111, "trialdata": {"rt": -1, "trial_type": "single-stim", "stimulus": "<p id=\"stim\">5</p>", "internal_node_id": "0.0-79.0-5.0", "time_elapsed": 632005, "key_press": -1, "trial_index": 111}, "uniqueid": "MTK2083:30IQTZXKALDCDURNCAOB597GGG90XN", "dateTime": 1516729652914}, {"current_trial": 112, "trialdata": {"rt": -1, "trial_type": "single-stim", "stimulus": "<p id=\"stim\">4</p>", "internal_node_id": "0.0-79.0-6.0", "time_elapsed": 633008, "key_press": -1, "trial_index": 112}, "uniqueid": "MTK2083:30IQTZXKALDCDURNCAOB597GGG90XN", "dateTime": 1516729653917}, {"current_trial": 113, "trialdata": {"rt": -1, "trial_type": "single-stim", "stimulus": "<p id=\"stim\">3</p>", "internal_node_id": "0.0-79.0-7.0", "time_elapsed": 634014, "key_press": -1, "trial_index": 113}, "uniqueid": "MTK2083:30IQTZXKALDCDURNCAOB597GGG90XN", "dateTime": 1516729654923}, {"current_trial": 114, "trialdata": {"rt": -1, "trial_type": "single-stim", "stimulus": "<p id=\"stim\">2</p>", "internal_node_id": "0.0-79.0-8.0", "time_elapsed": 635020, "key_press": -1, "trial_index": 114}, "uniqueid": "MTK2083:30IQTZXKALDCDURNCAOB597GGG90XN", "dateTime": 1516729655929}, {"current_trial": 115, "trialdata": {"rt": -1, "trial_type": "single-stim", "stimulus": "<p id=\"stim\">1</p>", "internal_node_id": "0.0-79.0-9.0", "time_elapsed": 636025, "key_press": -1, "trial_index": 115}, "uniqueid": "MTK2083:30IQTZXKALDCDURNCAOB597GGG90XN", "dateTime": 1516729656934}, {"current_trial": 116, "trialdata": {"rt": -1, "trial_type": "single-stim", "stimulus": "<p id=\"stim\">+</p>", "internal_node_id": "0.0-80.0-0.0", "time_elapsed": 637528, "key_press": -1, "type": "FIXATION", "trial_index": 116}, "uniqueid": "MTK2083:30IQTZXKALDCDURNCAOB597GGG90XN", "dateTime": 1516729658437}, {"current_trial": 117, "trialdata": {"rt": -1, "trial_type": "single-stim", "word": "snake", "stimulus": "<p id=\"stim\">SNAKE</p>", "conditions": [24, 1600, "v", 12000], "internal_node_id": "0.0-81.0", "trial": 3, "time_elapsed": 639133, "serialpos": 0, "key_press": -1, "wordID": 1332, "type": "PRES_VIS", "trial_index": 117}, "uniqueid": "MTK2083:30IQTZXKALDCDURNCAOB597GGG90XN", "dateTime": 1516729660043}, {"current_trial": 118, "trialdata": {"rt": -1, "trial_type": "single-stim", "word": "table", "stimulus": "<p id=\"stim\">TABLE</p>", "conditions": [24, 1600, "v", 12000], "internal_node_id": "0.0-82.0", "trial": 3, "time_elapsed": 641614, "serialpos": 1, "key_press": -1, "wordID": 1425, "type": "PRES_VIS", "trial_index": 118}, "uniqueid": "MTK2083:30IQTZXKALDCDURNCAOB597GGG90XN", "dateTime": 1516729662523}, {"current_trial": 119, "trialdata": {"rt": -1, "trial_type": "single-stim", "word": "lightning", "stimulus": "<p id=\"stim\">LIGHTNING</p>", "conditions": [24, 1600, "v", 12000], "internal_node_id": "0.0-83.0", "trial": 3, "time_elapsed": 644208, "serialpos": 2, "key_press": -1, "wordID": 819, "type": "PRES_VIS", "trial_index": 119}, "uniqueid": "MTK2083:30IQTZXKALDCDURNCAOB597GGG90XN", "dateTime": 1516729665117}, {"current_trial": 120, "trialdata": {"rt": -1, "trial_type": "single-stim", "word": "fireman", "stimulus": "<p id=\"stim\">FIREMAN</p>", "conditions": [24, 1600, "v", 12000], "internal_node_id": "0.0-84.0", "trial": 3, "time_elapsed": 646692, "serialpos": 3, "key_press": -1, "wordID": 568, "type": "PRES_VIS", "trial_index": 120}, "uniqueid": "MTK2083:30IQTZXKALDCDURNCAOB597GGG90XN", "dateTime": 1516729667601}, {"current_trial": 121, "trialdata": {"rt": -1, "trial_type": "single-stim", "word": "teacher", "stimulus": "<p id=\"stim\">TEACHER</p>", "conditions": [24, 1600, "v", 12000], "internal_node_id": "0.0-85.0", "trial": 3, "time_elapsed": 649206, "serialpos": 4, "key_press": -1, "wordID": 1439, "type": "PRES_VIS", "trial_index": 121}, "uniqueid": "MTK2083:30IQTZXKALDCDURNCAOB597GGG90XN", "dateTime": 1516729670115}, {"current_trial": 122, "trialdata": {"rt": -1, "trial_type": "single-stim", "word": "dresser", "stimulus": "<p id=\"stim\">DRESSER</p>", "conditions": [24, 1600, "v", 12000], "internal_node_id": "0.0-86.0", "trial": 3, "time_elapsed": 651869, "serialpos": 5, "key_press": -1, "wordID": 495, "type": "PRES_VIS", "trial_index": 122}, "uniqueid": "MTK2083:30IQTZXKALDCDURNCAOB597GGG90XN", "dateTime": 1516729672779}, {"current_trial": 123, "trialdata": {"rt": -1, "trial_type": "single-stim", "word": "cupboard", "stimulus": "<p id=\"stim\">CUPBOARD</p>", "conditions": [24, 1600, "v", 12000], "internal_node_id": "0.0-87.0", "trial": 3, "time_elapsed": 654562, "serialpos": 6, "key_press": -1, "wordID": 424, "type": "PRES_VIS", "trial_index": 123}, "uniqueid": "MTK2083:30IQTZXKALDCDURNCAOB597GGG90XN", "dateTime": 1516729675471}, {"current_trial": 124, "trialdata": {"rt": -1, "trial_type": "single-stim", "word": "sandwich", "stimulus": "<p id=\"stim\">SANDWICH</p>", "conditions": [24, 1600, "v", 12000], "internal_node_id": "0.0-88.0", "trial": 3, "time_elapsed": 657332, "serialpos": 7, "key_press": -1, "wordID": 1231, "type": "PRES_VIS", "trial_index": 124}, "uniqueid": "MTK2083:30IQTZXKALDCDURNCAOB597GGG90XN", "dateTime": 1516729678241}, {"current_trial": 125, "trialdata": {"rt": -1, "trial_type": "single-stim", "word": "cobra", "stimulus": "<p id=\"stim\">COBRA</p>", "conditions": [24, 1600, "v", 12000], "internal_node_id": "0.0-89.0", "trial": 3, "time_elapsed": 659949, "serialpos": 8, "key_press": -1, "wordID": 335, "type": "PRES_VIS", "trial_index": 125}, "uniqueid": "MTK2083:30IQTZXKALDCDURNCAOB597GGG90XN", "dateTime": 1516729680858}, {"current_trial": 126, "trialdata": {"rt": -1, "trial_type": "single-stim", "word": "hostess", "stimulus": "<p id=\"stim\">HOSTESS</p>", "conditions": [24, 1600, "v", 12000], "internal_node_id": "0.0-90.0", "trial": 3, "time_elapsed": 662705, "serialpos": 9, "key_press": -1, "wordID": 722, "type": "PRES_VIS", "trial_index": 126}, "uniqueid": "MTK2083:30IQTZXKALDCDURNCAOB597GGG90XN", "dateTime": 1516729683615}, {"current_trial": 127, "trialdata": {"rt": -1, "trial_type": "single-stim", "word": "tunnel", "stimulus": "<p id=\"stim\">TUNNEL</p>", "conditions": [24, 1600, "v", 12000], "internal_node_id": "0.0-91.0", "trial": 3, "time_elapsed": 665207, "serialpos": 10, "key_press": -1, "wordID": 1518, "type": "PRES_VIS", "trial_index": 127}, "uniqueid": "MTK2083:30IQTZXKALDCDURNCAOB597GGG90XN", "dateTime": 1516729686116}, {"current_trial": 128, "trialdata": {"rt": -1, "trial_type": "single-stim", "word": "skirt", "stimulus": "<p id=\"stim\">SKIRT</p>", "conditions": [24, 1600, "v", 12000], "internal_node_id": "0.0-92.0", "trial": 3, "time_elapsed": 667667, "serialpos": 11, "key_press": -1, "wordID": 1318, "type": "PRES_VIS", "trial_index": 128}, "uniqueid": "MTK2083:30IQTZXKALDCDURNCAOB597GGG90XN", "dateTime": 1516729688577}, {"current_trial": 129, "trialdata": {"rt": -1, "trial_type": "single-stim", "word": "beaver", "stimulus": "<p id=\"stim\">BEAVER</p>", "conditions": [24, 1600, "v", 12000], "internal_node_id": "0.0-93.0", "trial": 3, "time_elapsed": 670239, "serialpos": 12, "key_press": -1, "wordID": 108, "type": "PRES_VIS", "trial_index": 129}, "uniqueid": "MTK2083:30IQTZXKALDCDURNCAOB597GGG90XN", "dateTime": 1516729691149}, {"current_trial": 130, "trialdata": {"rt": -1, "trial_type": "single-stim", "word": "soda", "stimulus": "<p id=\"stim\">SODA</p>", "conditions": [24, 1600, "v", 12000], "internal_node_id": "0.0-94.0", "trial": 3, "time_elapsed": 672873, "serialpos": 13, "key_press": -1, "wordID": 1340, "type": "PRES_VIS", "trial_index": 130}, "uniqueid": "MTK2083:30IQTZXKALDCDURNCAOB597GGG90XN", "dateTime": 1516729693782}, {"current_trial": 131, "trialdata": {"rt": -1, "trial_type": "single-stim", "word": "muffin", "stimulus": "<p id=\"stim\">MUFFIN</p>", "conditions": [24, 1600, "v", 12000], "internal_node_id": "0.0-95.0", "trial": 3, "time_elapsed": 675537, "serialpos": 14, "key_press": -1, "wordID": 928, "type": "PRES_VIS", "trial_index": 131}, "uniqueid": "MTK2083:30IQTZXKALDCDURNCAOB597GGG90XN", "dateTime": 1516729696446}, {"current_trial": 132, "trialdata": {"rt": -1, "trial_type": "single-stim", "word": "asia", "stimulus": "<p id=\"stim\">ASIA</p>", "conditions": [24, 1600, "v", 12000], "internal_node_id": "0.0-96.0", "trial": 3, "time_elapsed": 678074, "serialpos": 15, "key_press": -1, "wordID": 45, "type": "PRES_VIS", "trial_index": 132}, "uniqueid": "MTK2083:30IQTZXKALDCDURNCAOB597GGG90XN", "dateTime": 1516729698983}, {"current_trial": 133, "trialdata": {"rt": -1, "trial_type": "single-stim", "word": "japan", "stimulus": "<p id=\"stim\">JAPAN</p>", "conditions": [24, 1600, "v", 12000], "internal_node_id": "0.0-97.0", "trial": 3, "time_elapsed": 680720, "serialpos": 16, "key_press": -1, "wordID": 748, "type": "PRES_VIS", "trial_index": 133}, "uniqueid": "MTK2083:30IQTZXKALDCDURNCAOB597GGG90XN", "dateTime": 1516729701629}, {"current_trial": 134, "trialdata": {"rt": -1, "trial_type": "single-stim", "word": "whistle", "stimulus": "<p id=\"stim\">WHISTLE</p>", "conditions": [24, 1600, "v", 12000], "internal_node_id": "0.0-98.0", "trial": 3, "time_elapsed": 683280, "serialpos": 17, "key_press": -1, "wordID": 1605, "type": "PRES_VIS", "trial_index": 134}, "uniqueid": "MTK2083:30IQTZXKALDCDURNCAOB597GGG90XN", "dateTime": 1516729704189}, {"current_trial": 135, "trialdata": {"rt": -1, "trial_type": "single-stim", "word": "piston", "stimulus": "<p id=\"stim\">PISTON</p>", "conditions": [24, 1600, "v", 12000], "internal_node_id": "0.0-99.0", "trial": 3, "time_elapsed": 686060, "serialpos": 18, "key_press": -1, "wordID": 1075, "type": "PRES_VIS", "trial_index": 135}, "uniqueid": "MTK2083:30IQTZXKALDCDURNCAOB597GGG90XN", "dateTime": 1516729706969}, {"current_trial": 136, "trialdata": {"rt": -1, "trial_type": "single-stim", "word": "camel", "stimulus": "<p id=\"stim\">CAMEL</p>", "conditions": [24, 1600, "v", 12000], "internal_node_id": "0.0-100.0", "trial": 3, "time_elapsed": 688492, "serialpos": 19, "key_press": -1, "wordID": 222, "type": "PRES_VIS", "trial_index": 136}, "uniqueid": "MTK2083:30IQTZXKALDCDURNCAOB597GGG90XN", "dateTime": 1516729709401}, {"current_trial": 137, "trialdata": {"rt": -1, "trial_type": "single-stim", "word": "candy", "stimulus": "<p id=\"stim\">CANDY</p>", "conditions": [24, 1600, "v", 12000], "internal_node_id": "0.0-101.0", "trial": 3, "time_elapsed": 691019, "serialpos": 20, "key_press": -1, "wordID": 229, "type": "PRES_VIS", "trial_index": 137}, "uniqueid": "MTK2083:30IQTZXKALDCDURNCAOB597GGG90XN", "dateTime": 1516729711928}, {"current_trial": 138, "trialdata": {"rt": -1, "trial_type": "single-stim", "word": "banjo", "stimulus": "<p id=\"stim\">BANJO</p>", "conditions": [24, 1600, "v", 12000], "internal_node_id": "0.0-102.0", "trial": 3, "time_elapsed": 693693, "serialpos": 21, "key_press": -1, "wordID": 81, "type": "PRES_VIS", "trial_index": 138}, "uniqueid": "MTK2083:30IQTZXKALDCDURNCAOB597GGG90XN", "dateTime": 1516729714603}, {"current_trial": 139, "trialdata": {"rt": -1, "trial_type": "single-stim", "word": "juggler", "stimulus": "<p id=\"stim\">JUGGLER</p>", "conditions": [24, 1600, "v", 12000], "internal_node_id": "0.0-103.0", "trial": 3, "time_elapsed": 696388, "serialpos": 22, "key_press": -1, "wordID": 762, "type": "PRES_VIS", "trial_index": 139}, "uniqueid": "MTK2083:30IQTZXKALDCDURNCAOB597GGG90XN", "dateTime": 1516729717297}, {"current_trial": 140, "trialdata": {"rt": -1, "trial_type": "single-stim", "word": "cloud", "stimulus": "<p id=\"stim\">CLOUD</p>", "conditions": [24, 1600, "v", 12000], "internal_node_id": "0.0-104.0", "trial": 3, "time_elapsed": 699008, "serialpos": 23, "key_press": -1, "wordID": 327, "type": "PRES_VIS", "trial_index": 140}, "uniqueid": "MTK2083:30IQTZXKALDCDURNCAOB597GGG90XN", "dateTime": 1516729719917}, {"current_trial": 141, "trialdata": {"rt": -1, "trial_type": "single-stim", "stimulus": "", "internal_node_id": "0.0-105.0-0.0", "time_elapsed": 701434, "key_press": -1, "type": "PRE_RECALL_DELAY", "trial_index": 141}, "uniqueid": "MTK2083:30IQTZXKALDCDURNCAOB597GGG90XN", "dateTime": 1516729722343}, {"current_trial": 142, "trialdata": {"rt": -1000, "trial_type": "single-audio", "stimulus": "/static/audio/400Hz.wav", "internal_node_id": "0.0-106.0", "time_elapsed": 701936, "key_press": -1, "type": "PRE_RECALL_ALERT", "trial_index": 142}, "uniqueid": "MTK2083:30IQTZXKALDCDURNCAOB597GGG90XN", "dateTime": 1516729722845}, {"current_trial": 143, "trialdata": {"rt": [3034, 5049, 6905, 8817, 11201, 12449, 14617, 17361, 20569, 22137, 24505, 28561, 44814, 46270, 58955], "recwords": ["cloud", "juggler", "snake", "cobra", "table", "asia", "japan", "juggler", "tunnel", "skirt", "fireman", "teacher", "muffin", "soda", "lighting"], "key_times": [1579, 1690, 1865, 2162, 2385, 3034, 3833, 4009, 4258, 4385, 4537, 4705, 4913, 5049, 5650, 5857, 6017, 6161, 6313, 6905, 7617, 7777, 8153, 8281, 8641, 8817, 9585, 9945, 10065, 10441, 10873, 11201, 11577, 11738, 11913, 12025, 12449, 13145, 13265, 13497, 13666, 13969, 14617, 16025, 16249, 16369, 16521, 16681, 16817, 17041, 17361, 19161, 19337, 19545, 19705, 19841, 20113, 20569, 21321, 21449, 21625, 21721, 21922, 22137, 22737, 22929, 23009, 23209, 23401, 23681, 23865, 24505, 26585, 26881, 27193, 27449, 28025, 28105, 28369, 28561, 43520, 43719, 43934, 44078, 44199, 44430, 44814, 45359, 45678, 45798, 46030, 46270, 55645, 55843, 55987, 56171, 56243, 57163, 57347, 57475, 58955], "trial_type": "free-recall", "conditions": [24, 1600, "v", 12000], "internal_node_id": "0.0-107.0-0.0", "key_presses": [67, 76, 79, 85, 68, 13, 74, 85, 71, 71, 76, 69, 82, 13, 83, 78, 65, 75, 69, 13, 67, 79, 66, 82, 65, 13, 84, 65, 66, 76, 69, 13, 65, 83, 73, 65, 13, 74, 65, 80, 65, 78, 13, 74, 85, 71, 71, 76, 69, 82, 13, 84, 85, 78, 78, 69, 76, 13, 83, 75, 73, 82, 84, 13, 70, 73, 82, 69, 77, 65, 78, 13, 84, 69, 65, 67, 72, 69, 82, 13, 77, 85, 70, 70, 73, 78, 13, 83, 79, 68, 65, 13, 76, 73, 71, 72, 84, 73, 78, 71, 13], "trial": 3, "time_elapsed": 761943, "type": "FREE_RECALL", "trial_index": 143}, "uniqueid": "MTK2083:30IQTZXKALDCDURNCAOB597GGG90XN", "dateTime": 1516729782856}, {"current_trial": 144, "trialdata": {"rt": 1564, "trial_type": "text", "internal_node_id": "0.0-108.0", "time_elapsed": 765517, "key_press": 13, "type": "INSTRUCTIONS", "trial_index": 144}, "uniqueid": "MTK2083:30IQTZXKALDCDURNCAOB597GGG90XN", "dateTime": 1516729786426}, {"current_trial": 145, "trialdata": {"rt": [2210, 4665, 8082, 10354], "trial_type": "math-distractor", "key_times": [1555, 1874, 2210, 4266, 4474, 4665, 6531, 6865, 7169, 8082, 9593, 10010, 10354], "responses": ["14", "12", "14", "14"], "num2": [4, 8, 5, 9, 9], "num3": [2, 2, 2, 2, 7], "conditions": [12, 1600, "v", 12000], "internal_node_id": "0.0-109.0", "key_presses": [49, 52, 13, 49, 50, 13, 49, 52, 16, 13, 49, 52, 13], "trial": 4, "time_elapsed": 779524, "type": "DISTRACTOR", "trial_index": 145, "num1": [8, 2, 7, 3, 9]}, "uniqueid": "MTK2083:30IQTZXKALDCDURNCAOB597GGG90XN", "dateTime": 1516729800433}, {"current_trial": 146, "trialdata": {"rt": -1, "trial_type": "single-stim", "stimulus": "<p id=\"stim\">10</p>", "internal_node_id": "0.0-110.0-0.0", "time_elapsed": 782536, "key_press": -1, "trial_index": 146}, "uniqueid": "MTK2083:30IQTZXKALDCDURNCAOB597GGG90XN", "dateTime": 1516729803445}, {"current_trial": 147, "trialdata": {"rt": -1, "trial_type": "single-stim", "stimulus": "<p id=\"stim\">9</p>", "internal_node_id": "0.0-110.0-1.0", "time_elapsed": 783541, "key_press": -1, "trial_index": 147}, "uniqueid": "MTK2083:30IQTZXKALDCDURNCAOB597GGG90XN", "dateTime": 1516729804450}, {"current_trial": 148, "trialdata": {"rt": -1, "trial_type": "single-stim", "stimulus": "<p id=\"stim\">8</p>", "internal_node_id": "0.0-110.0-2.0", "time_elapsed": 784546, "key_press": -1, "trial_index": 148}, "uniqueid": "MTK2083:30IQTZXKALDCDURNCAOB597GGG90XN", "dateTime": 1516729805455}, {"current_trial": 149, "trialdata": {"rt": -1, "trial_type": "single-stim", "stimulus": "<p id=\"stim\">7</p>", "internal_node_id": "0.0-110.0-3.0", "time_elapsed": 785549, "key_press": -1, "trial_index": 149}, "uniqueid": "MTK2083:30IQTZXKALDCDURNCAOB597GGG90XN", "dateTime": 1516729806459}, {"current_trial": 150, "trialdata": {"rt": -1, "trial_type": "single-stim", "stimulus": "<p id=\"stim\">6</p>", "internal_node_id": "0.0-110.0-4.0", "time_elapsed": 786554, "key_press": -1, "trial_index": 150}, "uniqueid": "MTK2083:30IQTZXKALDCDURNCAOB597GGG90XN", "dateTime": 1516729807463}, {"current_trial": 151, "trialdata": {"rt": -1, "trial_type": "single-stim", "stimulus": "<p id=\"stim\">5</p>", "internal_node_id": "0.0-110.0-5.0", "time_elapsed": 787557, "key_press": -1, "trial_index": 151}, "uniqueid": "MTK2083:30IQTZXKALDCDURNCAOB597GGG90XN", "dateTime": 1516729808467}, {"current_trial": 152, "trialdata": {"rt": -1, "trial_type": "single-stim", "stimulus": "<p id=\"stim\">4</p>", "internal_node_id": "0.0-110.0-6.0", "time_elapsed": 788562, "key_press": -1, "trial_index": 152}, "uniqueid": "MTK2083:30IQTZXKALDCDURNCAOB597GGG90XN", "dateTime": 1516729809471}, {"current_trial": 153, "trialdata": {"rt": -1, "trial_type": "single-stim", "stimulus": "<p id=\"stim\">3</p>", "internal_node_id": "0.0-110.0-7.0", "time_elapsed": 789568, "key_press": -1, "trial_index": 153}, "uniqueid": "MTK2083:30IQTZXKALDCDURNCAOB597GGG90XN", "dateTime": 1516729810477}, {"current_trial": 154, "trialdata": {"rt": -1, "trial_type": "single-stim", "stimulus": "<p id=\"stim\">2</p>", "internal_node_id": "0.0-110.0-8.0", "time_elapsed": 790572, "key_press": -1, "trial_index": 154}, "uniqueid": "MTK2083:30IQTZXKALDCDURNCAOB597GGG90XN", "dateTime": 1516729811481}, {"current_trial": 155, "trialdata": {"rt": -1, "trial_type": "single-stim", "stimulus": "<p id=\"stim\">1</p>", "internal_node_id": "0.0-110.0-9.0", "time_elapsed": 791577, "key_press": -1, "trial_index": 155}, "uniqueid": "MTK2083:30IQTZXKALDCDURNCAOB597GGG90XN", "dateTime": 1516729812486}, {"current_trial": 156, "trialdata": {"rt": -1, "trial_type": "single-stim", "stimulus": "<p id=\"stim\">+</p>", "internal_node_id": "0.0-111.0-0.0", "time_elapsed": 793082, "key_press": -1, "type": "FIXATION", "trial_index": 156}, "uniqueid": "MTK2083:30IQTZXKALDCDURNCAOB597GGG90XN", "dateTime": 1516729813991}, {"current_trial": 157, "trialdata": {"rt": -1, "trial_type": "single-stim", "word": "loft", "stimulus": "<p id=\"stim\">LOFT</p>", "conditions": [12, 1600, "v", 12000], "internal_node_id": "0.0-112.0", "trial": 4, "time_elapsed": 794686, "serialpos": 0, "key_press": -1, "wordID": 839, "type": "PRES_VIS", "trial_index": 157}, "uniqueid": "MTK2083:30IQTZXKALDCDURNCAOB597GGG90XN", "dateTime": 1516729815595}, {"current_trial": 158, "trialdata": {"rt": -1, "trial_type": "single-stim", "word": "infant", "stimulus": "<p id=\"stim\">INFANT</p>", "conditions": [12, 1600, "v", 12000], "internal_node_id": "0.0-113.0", "trial": 4, "time_elapsed": 797388, "serialpos": 1, "key_press": -1, "wordID": 736, "type": "PRES_VIS", "trial_index": 158}, "uniqueid": "MTK2083:30IQTZXKALDCDURNCAOB597GGG90XN", "dateTime": 1516729818297}, {"current_trial": 159, "trialdata": {"rt": -1, "trial_type": "single-stim", "word": "diner", "stimulus": "<p id=\"stim\">DINER</p>", "conditions": [12, 1600, "v", 12000], "internal_node_id": "0.0-114.0", "trial": 4, "time_elapsed": 800192, "serialpos": 2, "key_press": -1, "wordID": 466, "type": "PRES_VIS", "trial_index": 159}, "uniqueid": "MTK2083:30IQTZXKALDCDURNCAOB597GGG90XN", "dateTime": 1516729821101}, {"current_trial": 160, "trialdata": {"rt": -1, "trial_type": "single-stim", "word": "scarecrow", "stimulus": "<p id=\"stim\">SCARECROW</p>", "conditions": [12, 1600, "v", 12000], "internal_node_id": "0.0-115.0", "trial": 4, "time_elapsed": 802917, "serialpos": 3, "key_press": -1, "wordID": 1244, "type": "PRES_VIS", "trial_index": 160}, "uniqueid": "MTK2083:30IQTZXKALDCDURNCAOB597GGG90XN", "dateTime": 1516729823826}, {"current_trial": 161, "trialdata": {"rt": -1, "trial_type": "single-stim", "word": "ghetto", "stimulus": "<p id=\"stim\">GHETTO</p>", "conditions": [12, 1600, "v", 12000], "internal_node_id": "0.0-116.0", "trial": 4, "time_elapsed": 805537, "serialpos": 4, "key_press": -1, "wordID": 632, "type": "PRES_VIS", "trial_index": 161}, "uniqueid": "MTK2083:30IQTZXKALDCDURNCAOB597GGG90XN", "dateTime": 1516729826446}, {"current_trial": 162, "trialdata": {"rt": -1, "trial_type": "single-stim", "word": "piano", "stimulus": "<p id=\"stim\">PIANO</p>", "conditions": [12, 1600, "v", 12000], "internal_node_id": "0.0-117.0", "trial": 4, "time_elapsed": 808271, "serialpos": 5, "key_press": -1, "wordID": 1056, "type": "PRES_VIS", "trial_index": 162}, "uniqueid": "MTK2083:30IQTZXKALDCDURNCAOB597GGG90XN", "dateTime": 1516729829180}, {"current_trial": 163, "trialdata": {"rt": -1, "trial_type": "single-stim", "word": "costume", "stimulus": "<p id=\"stim\">COSTUME</p>", "conditions": [12, 1600, "v", 12000], "internal_node_id": "0.0-118.0", "trial": 4, "time_elapsed": 810917, "serialpos": 6, "key_press": -1, "wordID": 382, "type": "PRES_VIS", "trial_index": 163}, "uniqueid": "MTK2083:30IQTZXKALDCDURNCAOB597GGG90XN", "dateTime": 1516729831826}, {"current_trial": 164, "trialdata": {"rt": -1, "trial_type": "single-stim", "word": "flashlight", "stimulus": "<p id=\"stim\">FLASHLIGHT</p>", "conditions": [12, 1600, "v", 12000], "internal_node_id": "0.0-119.0", "trial": 4, "time_elapsed": 813355, "serialpos": 7, "key_press": -1, "wordID": 574, "type": "PRES_VIS", "trial_index": 164}, "uniqueid": "MTK2083:30IQTZXKALDCDURNCAOB597GGG90XN", "dateTime": 1516729834264}, {"current_trial": 165, "trialdata": {"rt": -1, "trial_type": "single-stim", "word": "shark", "stimulus": "<p id=\"stim\">SHARK</p>", "conditions": [12, 1600, "v", 12000], "internal_node_id": "0.0-120.0", "trial": 4, "time_elapsed": 815868, "serialpos": 8, "key_press": -1, "wordID": 1274, "type": "PRES_VIS", "trial_index": 165}, "uniqueid": "MTK2083:30IQTZXKALDCDURNCAOB597GGG90XN", "dateTime": 1516729836777}, {"current_trial": 166, "trialdata": {"rt": -1, "trial_type": "single-stim", "word": "turtle", "stimulus": "<p id=\"stim\">TURTLE</p>", "conditions": [12, 1600, "v", 12000], "internal_node_id": "0.0-121.0", "trial": 4, "time_elapsed": 818363, "serialpos": 9, "key_press": -1, "wordID": 1521, "type": "PRES_VIS", "trial_index": 166}, "uniqueid": "MTK2083:30IQTZXKALDCDURNCAOB597GGG90XN", "dateTime": 1516729839273}, {"current_trial": 167, "trialdata": {"rt": -1, "trial_type": "single-stim", "word": "statue", "stimulus": "<p id=\"stim\">STATUE</p>", "conditions": [12, 1600, "v", 12000], "internal_node_id": "0.0-122.0", "trial": 4, "time_elapsed": 820971, "serialpos": 10, "key_press": -1, "wordID": 1373, "type": "PRES_VIS", "trial_index": 167}, "uniqueid": "MTK2083:30IQTZXKALDCDURNCAOB597GGG90XN", "dateTime": 1516729841880}, {"current_trial": 168, "trialdata": {"rt": -1, "trial_type": "single-stim", "word": "lamp", "stimulus": "<p id=\"stim\">LAMP</p>", "conditions": [12, 1600, "v", 12000], "internal_node_id": "0.0-123.0", "trial": 4, "time_elapsed": 823645, "serialpos": 11, "key_press": -1, "wordID": 797, "type": "PRES_VIS", "trial_index": 168}, "uniqueid": "MTK2083:30IQTZXKALDCDURNCAOB597GGG90XN", "dateTime": 1516729844554}, {"current_trial": 169, "trialdata": {"rt": -1, "trial_type": "single-stim", "stimulus": "", "internal_node_id": "0.0-124.0-0.0", "time_elapsed": 825798, "key_press": -1, "type": "PRE_RECALL_DELAY", "trial_index": 169}, "uniqueid": "MTK2083:30IQTZXKALDCDURNCAOB597GGG90XN", "dateTime": 1516729846707}, {"current_trial": 170, "trialdata": {"rt": -1000, "trial_type": "single-audio", "stimulus": "/static/audio/400Hz.wav", "internal_node_id": "0.0-125.0", "time_elapsed": 826300, "key_press": -1, "type": "PRE_RECALL_ALERT", "trial_index": 170}, "uniqueid": "MTK2083:30IQTZXKALDCDURNCAOB597GGG90XN", "dateTime": 1516729847209}, {"current_trial": 171, "trialdata": {"rt": [1919, 5271, 7471, 9510, 12215, 13910, 20078, 24158, 27566], "recwords": ["baby", "infant", "statue", "lamp", "diner", "shark", "scarecrow", "ghetto", "loft"], "key_times": [1056, 1127, 1279, 1711, 1919, 2375, 2623, 2927, 3559, 3703, 3846, 3967, 4327, 4527, 4678, 4879, 4943, 5135, 5271, 6183, 6439, 6703, 6983, 7143, 7303, 7471, 8583, 8695, 8815, 9127, 9510, 10783, 10919, 11096, 11207, 11415, 12215, 12783, 13014, 13079, 13351, 13503, 13910, 14463, 14718, 14919, 15214, 15686, 16790, 17198, 17351, 17518, 17950, 18263, 18646, 18830, 19326, 19510, 19750, 19854, 20078, 22576, 22678, 22806, 23070, 23238, 23622, 24158, 26766, 26935, 27062, 27310, 27566], "trial_type": "free-recall", "conditions": [12, 1600, "v", 12000], "internal_node_id": "0.0-126.0-0.0", "key_presses": [66, 65, 66, 89, 13, 83, 84, 65, 8, 8, 8, 8, 73, 78, 70, 65, 78, 84, 13, 83, 84, 65, 84, 85, 69, 32, 76, 65, 77, 80, 13, 68, 73, 78, 69, 82, 13, 83, 72, 65, 82, 75, 13, 83, 67, 82, 65, 69, 67, 8, 8, 8, 8, 65, 82, 69, 67, 82, 79, 87, 13, 71, 72, 69, 84, 84, 79, 13, 76, 79, 70, 84, 13], "trial": 4, "time_elapsed": 886306, "type": "FREE_RECALL", "trial_index": 171}, "uniqueid": "MTK2083:30IQTZXKALDCDURNCAOB597GGG90XN", "dateTime": 1516729907221}, {"current_trial": 172, "trialdata": {"rt": 1223, "trial_type": "text", "internal_node_id": "0.0-127.0", "time_elapsed": 889540, "key_press": 13, "type": "INSTRUCTIONS", "trial_index": 172}, "uniqueid": "MTK2083:30IQTZXKALDCDURNCAOB597GGG90XN", "dateTime": 1516729910449}, {"current_trial": 173, "trialdata": {"rt": [3830, 6414], "trial_type": "math-distractor", "key_times": [3223, 3582, 3830, 5351, 6150, 6414], "responses": ["16", "16"], "num2": [8, 8, 9], "num3": [2, 6, 8], "conditions": [24, 800, "v", 12000], "internal_node_id": "0.0-128.0", "key_presses": [49, 54, 13, 49, 54, 13], "trial": 5, "time_elapsed": 903546, "type": "DISTRACTOR", "trial_index": 173, "num1": [6, 2, 6]}, "uniqueid": "MTK2083:30IQTZXKALDCDURNCAOB597GGG90XN", "dateTime": 1516729924455}, {"current_trial": 174, "trialdata": {"rt": -1, "trial_type": "single-stim", "stimulus": "<p id=\"stim\">10</p>", "internal_node_id": "0.0-129.0-0.0", "time_elapsed": 906554, "key_press": -1, "trial_index": 174}, "uniqueid": "MTK2083:30IQTZXKALDCDURNCAOB597GGG90XN", "dateTime": 1516729927463}, {"current_trial": 175, "trialdata": {"rt": -1, "trial_type": "single-stim", "stimulus": "<p id=\"stim\">9</p>", "internal_node_id": "0.0-129.0-1.0", "time_elapsed": 907560, "key_press": -1, "trial_index": 175}, "uniqueid": "MTK2083:30IQTZXKALDCDURNCAOB597GGG90XN", "dateTime": 1516729928469}, {"current_trial": 176, "trialdata": {"rt": -1, "trial_type": "single-stim", "stimulus": "<p id=\"stim\">8</p>", "internal_node_id": "0.0-129.0-2.0", "time_elapsed": 908566, "key_press": -1, "trial_index": 176}, "uniqueid": "MTK2083:30IQTZXKALDCDURNCAOB597GGG90XN", "dateTime": 1516729929476}, {"current_trial": 177, "trialdata": {"rt": -1, "trial_type": "single-stim", "stimulus": "<p id=\"stim\">7</p>", "internal_node_id": "0.0-129.0-3.0", "time_elapsed": 909573, "key_press": -1, "trial_index": 177}, "uniqueid": "MTK2083:30IQTZXKALDCDURNCAOB597GGG90XN", "dateTime": 1516729930482}, {"current_trial": 178, "trialdata": {"rt": -1, "trial_type": "single-stim", "stimulus": "<p id=\"stim\">6</p>", "internal_node_id": "0.0-129.0-4.0", "time_elapsed": 910575, "key_press": -1, "trial_index": 178}, "uniqueid": "MTK2083:30IQTZXKALDCDURNCAOB597GGG90XN", "dateTime": 1516729931485}, {"current_trial": 179, "trialdata": {"rt": -1, "trial_type": "single-stim", "stimulus": "<p id=\"stim\">5</p>", "internal_node_id": "0.0-129.0-5.0", "time_elapsed": 911581, "key_press": -1, "trial_index": 179}, "uniqueid": "MTK2083:30IQTZXKALDCDURNCAOB597GGG90XN", "dateTime": 1516729932490}, {"current_trial": 180, "trialdata": {"rt": -1, "trial_type": "single-stim", "stimulus": "<p id=\"stim\">4</p>", "internal_node_id": "0.0-129.0-6.0", "time_elapsed": 912586, "key_press": -1, "trial_index": 180}, "uniqueid": "MTK2083:30IQTZXKALDCDURNCAOB597GGG90XN", "dateTime": 1516729933495}, {"current_trial": 181, "trialdata": {"rt": -1, "trial_type": "single-stim", "stimulus": "<p id=\"stim\">3</p>", "internal_node_id": "0.0-129.0-7.0", "time_elapsed": 913594, "key_press": -1, "trial_index": 181}, "uniqueid": "MTK2083:30IQTZXKALDCDURNCAOB597GGG90XN", "dateTime": 1516729934503}, {"current_trial": 182, "trialdata": {"rt": -1, "trial_type": "single-stim", "stimulus": "<p id=\"stim\">2</p>", "internal_node_id": "0.0-129.0-8.0", "time_elapsed": 914597, "key_press": -1, "trial_index": 182}, "uniqueid": "MTK2083:30IQTZXKALDCDURNCAOB597GGG90XN", "dateTime": 1516729935506}, {"current_trial": 183, "trialdata": {"rt": -1, "trial_type": "single-stim", "stimulus": "<p id=\"stim\">1</p>", "internal_node_id": "0.0-129.0-9.0", "time_elapsed": 915602, "key_press": -1, "trial_index": 183}, "uniqueid": "MTK2083:30IQTZXKALDCDURNCAOB597GGG90XN", "dateTime": 1516729936511}, {"current_trial": 184, "trialdata": {"rt": -1, "trial_type": "single-stim", "stimulus": "<p id=\"stim\">+</p>", "internal_node_id": "0.0-130.0-0.0", "time_elapsed": 917107, "key_press": -1, "type": "FIXATION", "trial_index": 184}, "uniqueid": "MTK2083:30IQTZXKALDCDURNCAOB597GGG90XN", "dateTime": 1516729938016}, {"current_trial": 185, "trialdata": {"rt": -1, "trial_type": "single-stim", "word": "onion", "stimulus": "<p id=\"stim\">ONION</p>", "conditions": [24, 800, "v", 12000], "internal_node_id": "0.0-131.0", "trial": 5, "time_elapsed": 917910, "serialpos": 0, "key_press": -1, "wordID": 976, "type": "PRES_VIS", "trial_index": 185}, "uniqueid": "MTK2083:30IQTZXKALDCDURNCAOB597GGG90XN", "dateTime": 1516729938819}, {"current_trial": 186, "trialdata": {"rt": -1, "trial_type": "single-stim", "word": "apple", "stimulus": "<p id=\"stim\">APPLE</p>", "conditions": [24, 800, "v", 12000], "internal_node_id": "0.0-132.0", "trial": 5, "time_elapsed": 919808, "serialpos": 1, "key_press": -1, "wordID": 32, "type": "PRES_VIS", "trial_index": 186}, "uniqueid": "MTK2083:30IQTZXKALDCDURNCAOB597GGG90XN", "dateTime": 1516729940717}, {"current_trial": 187, "trialdata": {"rt": -1, "trial_type": "single-stim", "word": "sunset", "stimulus": "<p id=\"stim\">SUNSET</p>", "conditions": [24, 800, "v", 12000], "internal_node_id": "0.0-133.0", "trial": 5, "time_elapsed": 921584, "serialpos": 2, "key_press": -1, "wordID": 1407, "type": "PRES_VIS", "trial_index": 187}, "uniqueid": "MTK2083:30IQTZXKALDCDURNCAOB597GGG90XN", "dateTime": 1516729942493}, {"current_trial": 188, "trialdata": {"rt": -1, "trial_type": "single-stim", "word": "donkey", "stimulus": "<p id=\"stim\">DONKEY</p>", "conditions": [24, 800, "v", 12000], "internal_node_id": "0.0-134.0", "trial": 5, "time_elapsed": 923588, "serialpos": 3, "key_press": -1, "wordID": 483, "type": "PRES_VIS", "trial_index": 188}, "uniqueid": "MTK2083:30IQTZXKALDCDURNCAOB597GGG90XN", "dateTime": 1516729944497}, {"current_trial": 189, "trialdata": {"rt": -1, "trial_type": "single-stim", "word": "breast", "stimulus": "<p id=\"stim\">BREAST</p>", "conditions": [24, 800, "v", 12000], "internal_node_id": "0.0-135.0", "trial": 5, "time_elapsed": 925322, "serialpos": 4, "key_press": -1, "wordID": 170, "type": "PRES_VIS", "trial_index": 189}, "uniqueid": "MTK2083:30IQTZXKALDCDURNCAOB597GGG90XN", "dateTime": 1516729946232}, {"current_trial": 190, "trialdata": {"rt": -1, "trial_type": "single-stim", "word": "beaker", "stimulus": "<p id=\"stim\">BEAKER</p>", "conditions": [24, 800, "v", 12000], "internal_node_id": "0.0-136.0", "trial": 5, "time_elapsed": 927034, "serialpos": 5, "key_press": -1, "wordID": 103, "type": "PRES_VIS", "trial_index": 190}, "uniqueid": "MTK2083:30IQTZXKALDCDURNCAOB597GGG90XN", "dateTime": 1516729947943}, {"current_trial": 191, "trialdata": {"rt": -1, "trial_type": "single-stim", "word": "milk", "stimulus": "<p id=\"stim\">MILK</p>", "conditions": [24, 800, "v", 12000], "internal_node_id": "0.0-137.0", "trial": 5, "time_elapsed": 928665, "serialpos": 6, "key_press": -1, "wordID": 894, "type": "PRES_VIS", "trial_index": 191}, "uniqueid": "MTK2083:30IQTZXKALDCDURNCAOB597GGG90XN", "dateTime": 1516729949574}, {"current_trial": 192, "trialdata": {"rt": -1, "trial_type": "single-stim", "word": "waiter", "stimulus": "<p id=\"stim\">WAITER</p>", "conditions": [24, 800, "v", 12000], "internal_node_id": "0.0-138.0", "trial": 5, "time_elapsed": 930360, "serialpos": 7, "key_press": -1, "wordID": 1579, "type": "PRES_VIS", "trial_index": 192}, "uniqueid": "MTK2083:30IQTZXKALDCDURNCAOB597GGG90XN", "dateTime": 1516729951269}, {"current_trial": 193, "trialdata": {"rt": -1, "trial_type": "single-stim", "word": "preacher", "stimulus": "<p id=\"stim\">PREACHER</p>", "conditions": [24, 800, "v", 12000], "internal_node_id": "0.0-139.0", "trial": 5, "time_elapsed": 932109, "serialpos": 8, "key_press": -1, "wordID": 1118, "type": "PRES_VIS", "trial_index": 193}, "uniqueid": "MTK2083:30IQTZXKALDCDURNCAOB597GGG90XN", "dateTime": 1516729953018}, {"current_trial": 194, "trialdata": {"rt": -1, "trial_type": "single-stim", "word": "cattle", "stimulus": "<p id=\"stim\">CATTLE</p>", "conditions": [24, 800, "v", 12000], "internal_node_id": "0.0-140.0", "trial": 5, "time_elapsed": 933904, "serialpos": 9, "key_press": -1, "wordID": 260, "type": "PRES_VIS", "trial_index": 194}, "uniqueid": "MTK2083:30IQTZXKALDCDURNCAOB597GGG90XN", "dateTime": 1516729954813}, {"current_trial": 195, "trialdata": {"rt": -1, "trial_type": "single-stim", "word": "tart", "stimulus": "<p id=\"stim\">TART</p>", "conditions": [24, 800, "v", 12000], "internal_node_id": "0.0-141.0", "trial": 5, "time_elapsed": 935548, "serialpos": 10, "key_press": -1, "wordID": 1435, "type": "PRES_VIS", "trial_index": 195}, "uniqueid": "MTK2083:30IQTZXKALDCDURNCAOB597GGG90XN", "dateTime": 1516729956457}, {"current_trial": 196, "trialdata": {"rt": -1, "trial_type": "single-stim", "word": "sunrise", "stimulus": "<p id=\"stim\">SUNRISE</p>", "conditions": [24, 800, "v", 12000], "internal_node_id": "0.0-142.0", "trial": 5, "time_elapsed": 937473, "serialpos": 11, "key_press": -1, "wordID": 1406, "type": "PRES_VIS", "trial_index": 196}, "uniqueid": "MTK2083:30IQTZXKALDCDURNCAOB597GGG90XN", "dateTime": 1516729958383}, {"current_trial": 197, "trialdata": {"rt": -1, "trial_type": "single-stim", "word": "handbag", "stimulus": "<p id=\"stim\">HANDBAG</p>", "conditions": [24, 800, "v", 12000], "internal_node_id": "0.0-143.0", "trial": 5, "time_elapsed": 939413, "serialpos": 12, "key_press": -1, "wordID": 683, "type": "PRES_VIS", "trial_index": 197}, "uniqueid": "MTK2083:30IQTZXKALDCDURNCAOB597GGG90XN", "dateTime": 1516729960323}, {"current_trial": 198, "trialdata": {"rt": -1, "trial_type": "single-stim", "word": "pimple", "stimulus": "<p id=\"stim\">PIMPLE</p>", "conditions": [24, 800, "v", 12000], "internal_node_id": "0.0-144.0", "trial": 5, "time_elapsed": 941398, "serialpos": 13, "key_press": -1, "wordID": 1070, "type": "PRES_VIS", "trial_index": 198}, "uniqueid": "MTK2083:30IQTZXKALDCDURNCAOB597GGG90XN", "dateTime": 1516729962308}, {"current_trial": 199, "trialdata": {"rt": -1, "trial_type": "single-stim", "word": "wasp", "stimulus": "<p id=\"stim\">WASP</p>", "conditions": [24, 800, "v", 12000], "internal_node_id": "0.0-145.0", "trial": 5, "time_elapsed": 943325, "serialpos": 14, "key_press": -1, "wordID": 1592, "type": "PRES_VIS", "trial_index": 199}, "uniqueid": "MTK2083:30IQTZXKALDCDURNCAOB597GGG90XN", "dateTime": 1516729964234}, {"current_trial": 200, "trialdata": {"rt": -1, "trial_type": "single-stim", "word": "monster", "stimulus": "<p id=\"stim\">MONSTER</p>", "conditions": [24, 800, "v", 12000], "internal_node_id": "0.0-146.0", "trial": 5, "time_elapsed": 945271, "serialpos": 15, "key_press": -1, "wordID": 911, "type": "PRES_VIS", "trial_index": 200}, "uniqueid": "MTK2083:30IQTZXKALDCDURNCAOB597GGG90XN", "dateTime": 1516729966180}, {"current_trial": 201, "trialdata": {"rt": -1, "trial_type": "single-stim", "word": "london", "stimulus": "<p id=\"stim\">LONDON</p>", "conditions": [24, 800, "v", 12000], "internal_node_id": "0.0-147.0", "trial": 5, "time_elapsed": 947127, "serialpos": 16, "key_press": -1, "wordID": 842, "type": "PRES_VIS", "trial_index": 201}, "uniqueid": "MTK2083:30IQTZXKALDCDURNCAOB597GGG90XN", "dateTime": 1516729968036}, {"current_trial": 202, "trialdata": {"rt": -1, "trial_type": "single-stim", "word": "france", "stimulus": "<p id=\"stim\">FRANCE</p>", "conditions": [24, 800, "v", 12000], "internal_node_id": "0.0-148.0", "trial": 5, "time_elapsed": 949043, "serialpos": 17, "key_press": -1, "wordID": 600, "type": "PRES_VIS", "trial_index": 202}, "uniqueid": "MTK2083:30IQTZXKALDCDURNCAOB597GGG90XN", "dateTime": 1516729969952}, {"current_trial": 203, "trialdata": {"rt": -1, "trial_type": "single-stim", "word": "pasta", "stimulus": "<p id=\"stim\">PASTA</p>", "conditions": [24, 800, "v", 12000], "internal_node_id": "0.0-149.0", "trial": 5, "time_elapsed": 950748, "serialpos": 18, "key_press": -1, "wordID": 1020, "type": "PRES_VIS", "trial_index": 203}, "uniqueid": "MTK2083:30IQTZXKALDCDURNCAOB597GGG90XN", "dateTime": 1516729971658}, {"current_trial": 204, "trialdata": {"rt": -1, "trial_type": "single-stim", "word": "briefcase", "stimulus": "<p id=\"stim\">BRIEFCASE</p>", "conditions": [24, 800, "v", 12000], "internal_node_id": "0.0-150.0", "trial": 5, "time_elapsed": 952473, "serialpos": 19, "key_press": -1, "wordID": 174, "type": "PRES_VIS", "trial_index": 204}, "uniqueid": "MTK2083:30IQTZXKALDCDURNCAOB597GGG90XN", "dateTime": 1516729973382}, {"current_trial": 205, "trialdata": {"rt": -1, "trial_type": "single-stim", "word": "harp", "stimulus": "<p id=\"stim\">HARP</p>", "conditions": [24, 800, "v", 12000], "internal_node_id": "0.0-151.0", "trial": 5, "time_elapsed": 954283, "serialpos": 20, "key_press": -1, "wordID": 688, "type": "PRES_VIS", "trial_index": 205}, "uniqueid": "MTK2083:30IQTZXKALDCDURNCAOB597GGG90XN", "dateTime": 1516729975192}, {"current_trial": 206, "trialdata": {"rt": -1, "trial_type": "single-stim", "word": "boyfriend", "stimulus": "<p id=\"stim\">BOYFRIEND</p>", "conditions": [24, 800, "v", 12000], "internal_node_id": "0.0-152.0", "trial": 5, "time_elapsed": 956279, "serialpos": 21, "key_press": -1, "wordID": 161, "type": "PRES_VIS", "trial_index": 206}, "uniqueid": "MTK2083:30IQTZXKALDCDURNCAOB597GGG90XN", "dateTime": 1516729977189}, {"current_trial": 207, "trialdata": {"rt": -1, "trial_type": "single-stim", "word": "necklace", "stimulus": "<p id=\"stim\">NECKLACE</p>", "conditions": [24, 800, "v", 12000], "internal_node_id": "0.0-153.0", "trial": 5, "time_elapsed": 958281, "serialpos": 22, "key_press": -1, "wordID": 939, "type": "PRES_VIS", "trial_index": 207}, "uniqueid": "MTK2083:30IQTZXKALDCDURNCAOB597GGG90XN", "dateTime": 1516729979190}, {"current_trial": 208, "trialdata": {"rt": -1, "trial_type": "single-stim", "word": "portrait", "stimulus": "<p id=\"stim\">PORTRAIT</p>", "conditions": [24, 800, "v", 12000], "internal_node_id": "0.0-154.0", "trial": 5, "time_elapsed": 960145, "serialpos": 23, "key_press": -1, "wordID": 1110, "type": "PRES_VIS", "trial_index": 208}, "uniqueid": "MTK2083:30IQTZXKALDCDURNCAOB597GGG90XN", "dateTime": 1516729981054}, {"current_trial": 209, "trialdata": {"rt": -1, "trial_type": "single-stim", "stimulus": "", "internal_node_id": "0.0-155.0-0.0", "time_elapsed": 962391, "key_press": -1, "type": "PRE_RECALL_DELAY", "trial_index": 209}, "uniqueid": "MTK2083:30IQTZXKALDCDURNCAOB597GGG90XN", "dateTime": 1516729983300}, {"current_trial": 210, "trialdata": {"rt": -1000, "trial_type": "single-audio", "stimulus": "/static/audio/400Hz.wav", "internal_node_id": "0.0-156.0", "time_elapsed": 962895, "key_press": -1, "type": "PRE_RECALL_ALERT", "trial_index": 210}, "uniqueid": "MTK2083:30IQTZXKALDCDURNCAOB597GGG90XN", "dateTime": 1516729983804}, {"current_trial": 211, "trialdata": {"rt": [3319, 5392, 8048, 10231, 11617, 13711, 15399, 16975, 19543, 21503, 29644, 37516, 39109], "recwords": ["necklace", "potrait", "briefcase", "sunset", "harp", "sunrise", "onion", "apple", "donkey", "pimple", "wasp", "london", "france"], "key_times": [1313, 1456, 1736, 2200, 2423, 2528, 2992, 3136, 3319, 3896, 4427, 4430, 4434, 4655, 4840, 4960, 5392, 6016, 6208, 6447, 6567, 6807, 7295, 7535, 7615, 7863, 8048, 8472, 8759, 8975, 9151, 9431, 9751, 10231, 10751, 10847, 11095, 11279, 11617, 12504, 12727, 12920, 13055, 13199, 13359, 13575, 13711, 14231, 14607, 14735, 14895, 15079, 15399, 16023, 16295, 16440, 16607, 16751, 16975, 18359, 18471, 18663, 18871, 18983, 19351, 19543, 20239, 20447, 20655, 20927, 21087, 21223, 21503, 28957, 29140, 29220, 29372, 29644, 35956, 36100, 36371, 36691, 36788, 36972, 37516, 37827, 37980, 38348, 38587, 38739, 38899, 39109], "trial_type": "free-recall", "conditions": [24, 800, "v", 12000], "internal_node_id": "0.0-157.0-0.0", "key_presses": [78, 69, 67, 75, 76, 65, 67, 69, 13, 80, 79, 84, 82, 65, 73, 84, 13, 66, 82, 73, 69, 70, 67, 65, 83, 69, 13, 83, 85, 78, 83, 69, 84, 13, 72, 65, 82, 80, 13, 83, 85, 78, 82, 73, 83, 69, 13, 79, 78, 73, 79, 78, 13, 65, 80, 80, 76, 69, 13, 68, 79, 78, 75, 69, 89, 13, 80, 73, 77, 80, 76, 69, 13, 87, 65, 83, 80, 13, 76, 79, 78, 68, 79, 78, 13, 70, 82, 65, 78, 67, 69, 13], "trial": 5, "time_elapsed": 1022898, "type": "FREE_RECALL", "trial_index": 211}, "uniqueid": "MTK2083:30IQTZXKALDCDURNCAOB597GGG90XN", "dateTime": 1516730043811}, {"current_trial": 212, "trialdata": {"rt": 4355, "trial_type": "text", "internal_node_id": "0.0-158.0", "time_elapsed": 1029262, "key_press": 13, "type": "INSTRUCTIONS", "trial_index": 212}, "uniqueid": "MTK2083:30IQTZXKALDCDURNCAOB597GGG90XN", "dateTime": 1516730050171}, {"current_trial": 213, "trialdata": {"rt": [3416, 5552, 7232, 9744], "trial_type": "math-distractor", "key_times": [2616, 3224, 3416, 5224, 5424, 5552, 6728, 7040, 7232, 9402, 9576, 9744, 11592, 11920], "responses": ["17", "11", "15", "11"], "num2": [7, 2, 7, 7, 5], "num3": [6, 4, 1, 3, 3], "conditions": [12, 800, "v", 12000], "internal_node_id": "0.0-159.0", "key_presses": [49, 55, 13, 49, 49, 13, 49, 53, 13, 49, 49, 13, 49, 54], "trial": 6, "time_elapsed": 1043271, "type": "DISTRACTOR", "trial_index": 213, "num1": [4, 5, 7, 1, 8]}, "uniqueid": "MTK2083:30IQTZXKALDCDURNCAOB597GGG90XN", "dateTime": 1516730064181}, {"current_trial": 214, "trialdata": {"rt": -1, "trial_type": "single-stim", "stimulus": "<p id=\"stim\">10</p>", "internal_node_id": "0.0-160.0-0.0", "time_elapsed": 1046282, "key_press": -1, "trial_index": 214}, "uniqueid": "MTK2083:30IQTZXKALDCDURNCAOB597GGG90XN", "dateTime": 1516730067191}, {"current_trial": 215, "trialdata": {"rt": -1, "trial_type": "single-stim", "stimulus": "<p id=\"stim\">9</p>", "internal_node_id": "0.0-160.0-1.0", "time_elapsed": 1047289, "key_press": -1, "trial_index": 215}, "uniqueid": "MTK2083:30IQTZXKALDCDURNCAOB597GGG90XN", "dateTime": 1516730068198}, {"current_trial": 216, "trialdata": {"rt": -1, "trial_type": "single-stim", "stimulus": "<p id=\"stim\">8</p>", "internal_node_id": "0.0-160.0-2.0", "time_elapsed": 1048293, "key_press": -1, "trial_index": 216}, "uniqueid": "MTK2083:30IQTZXKALDCDURNCAOB597GGG90XN", "dateTime": 1516730069202}, {"current_trial": 217, "trialdata": {"rt": -1, "trial_type": "single-stim", "stimulus": "<p id=\"stim\">7</p>", "internal_node_id": "0.0-160.0-3.0", "time_elapsed": 1049298, "key_press": -1, "trial_index": 217}, "uniqueid": "MTK2083:30IQTZXKALDCDURNCAOB597GGG90XN", "dateTime": 1516730070207}, {"current_trial": 218, "trialdata": {"rt": -1, "trial_type": "single-stim", "stimulus": "<p id=\"stim\">6</p>", "internal_node_id": "0.0-160.0-4.0", "time_elapsed": 1050304, "key_press": -1, "trial_index": 218}, "uniqueid": "MTK2083:30IQTZXKALDCDURNCAOB597GGG90XN", "dateTime": 1516730071213}, {"current_trial": 219, "trialdata": {"rt": -1, "trial_type": "single-stim", "stimulus": "<p id=\"stim\">5</p>", "internal_node_id": "0.0-160.0-5.0", "time_elapsed": 1051308, "key_press": -1, "trial_index": 219}, "uniqueid": "MTK2083:30IQTZXKALDCDURNCAOB597GGG90XN", "dateTime": 1516730072218}, {"current_trial": 220, "trialdata": {"rt": -1, "trial_type": "single-stim", "stimulus": "<p id=\"stim\">4</p>", "internal_node_id": "0.0-160.0-6.0", "time_elapsed": 1052312, "key_press": -1, "trial_index": 220}, "uniqueid": "MTK2083:30IQTZXKALDCDURNCAOB597GGG90XN", "dateTime": 1516730073221}, {"current_trial": 221, "trialdata": {"rt": -1, "trial_type": "single-stim", "stimulus": "<p id=\"stim\">3</p>", "internal_node_id": "0.0-160.0-7.0", "time_elapsed": 1053317, "key_press": -1, "trial_index": 221}, "uniqueid": "MTK2083:30IQTZXKALDCDURNCAOB597GGG90XN", "dateTime": 1516730074226}, {"current_trial": 222, "trialdata": {"rt": -1, "trial_type": "single-stim", "stimulus": "<p id=\"stim\">2</p>", "internal_node_id": "0.0-160.0-8.0", "time_elapsed": 1054320, "key_press": -1, "trial_index": 222}, "uniqueid": "MTK2083:30IQTZXKALDCDURNCAOB597GGG90XN", "dateTime": 1516730075229}, {"current_trial": 223, "trialdata": {"rt": -1, "trial_type": "single-stim", "stimulus": "<p id=\"stim\">1</p>", "internal_node_id": "0.0-160.0-9.0", "time_elapsed": 1055323, "key_press": -1, "trial_index": 223}, "uniqueid": "MTK2083:30IQTZXKALDCDURNCAOB597GGG90XN", "dateTime": 1516730076232}, {"current_trial": 224, "trialdata": {"rt": -1, "trial_type": "single-stim", "stimulus": "<p id=\"stim\">+</p>", "internal_node_id": "0.0-161.0-0.0", "time_elapsed": 1056827, "key_press": -1, "type": "FIXATION", "trial_index": 224}, "uniqueid": "MTK2083:30IQTZXKALDCDURNCAOB597GGG90XN", "dateTime": 1516730077736}, {"current_trial": 225, "trialdata": {"rt": -1, "trial_type": "single-stim", "word": "wrist", "stimulus": "<p id=\"stim\">WRIST</p>", "conditions": [12, 800, "v", 12000], "internal_node_id": "0.0-162.0", "trial": 6, "time_elapsed": 1057634, "serialpos": 0, "key_press": -1, "wordID": 1625, "type": "PRES_VIS", "trial_index": 225}, "uniqueid": "MTK2083:30IQTZXKALDCDURNCAOB597GGG90XN", "dateTime": 1516730078543}, {"current_trial": 226, "trialdata": {"rt": -1, "trial_type": "single-stim", "word": "spoon", "stimulus": "<p id=\"stim\">SPOON</p>", "conditions": [12, 800, "v", 12000], "internal_node_id": "0.0-163.0", "trial": 6, "time_elapsed": 1059582, "serialpos": 1, "key_press": -1, "wordID": 1356, "type": "PRES_VIS", "trial_index": 226}, "uniqueid": "MTK2083:30IQTZXKALDCDURNCAOB597GGG90XN", "dateTime": 1516730080491}, {"current_trial": 227, "trialdata": {"rt": -1, "trial_type": "single-stim", "word": "captive", "stimulus": "<p id=\"stim\">CAPTIVE</p>", "conditions": [12, 800, "v", 12000], "internal_node_id": "0.0-164.0", "trial": 6, "time_elapsed": 1061357, "serialpos": 2, "key_press": -1, "wordID": 239, "type": "PRES_VIS", "trial_index": 227}, "uniqueid": "MTK2083:30IQTZXKALDCDURNCAOB597GGG90XN", "dateTime": 1516730082267}, {"current_trial": 228, "trialdata": {"rt": -1, "trial_type": "single-stim", "word": "rooster", "stimulus": "<p id=\"stim\">ROOSTER</p>", "conditions": [12, 800, "v", 12000], "internal_node_id": "0.0-165.0", "trial": 6, "time_elapsed": 1063199, "serialpos": 3, "key_press": -1, "wordID": 1208, "type": "PRES_VIS", "trial_index": 228}, "uniqueid": "MTK2083:30IQTZXKALDCDURNCAOB597GGG90XN", "dateTime": 1516730084109}, {"current_trial": 229, "trialdata": {"rt": -1, "trial_type": "single-stim", "word": "curtain", "stimulus": "<p id=\"stim\">CURTAIN</p>", "conditions": [12, 800, "v", 12000], "internal_node_id": "0.0-166.0", "trial": 6, "time_elapsed": 1065098, "serialpos": 4, "key_press": -1, "wordID": 426, "type": "PRES_VIS", "trial_index": 229}, "uniqueid": "MTK2083:30IQTZXKALDCDURNCAOB597GGG90XN", "dateTime": 1516730086007}, {"current_trial": 230, "trialdata": {"rt": -1, "trial_type": "single-stim", "word": "trench", "stimulus": "<p id=\"stim\">TRENCH</p>", "conditions": [12, 800, "v", 12000], "internal_node_id": "0.0-167.0", "trial": 6, "time_elapsed": 1066807, "serialpos": 5, "key_press": -1, "wordID": 1502, "type": "PRES_VIS", "trial_index": 230}, "uniqueid": "MTK2083:30IQTZXKALDCDURNCAOB597GGG90XN", "dateTime": 1516730087716}, {"current_trial": 231, "trialdata": {"rt": -1, "trial_type": "single-stim", "word": "ulcer", "stimulus": "<p id=\"stim\">ULCER</p>", "conditions": [12, 800, "v", 12000], "internal_node_id": "0.0-168.0", "trial": 6, "time_elapsed": 1068429, "serialpos": 6, "key_press": -1, "wordID": 1532, "type": "PRES_VIS", "trial_index": 231}, "uniqueid": "MTK2083:30IQTZXKALDCDURNCAOB597GGG90XN", "dateTime": 1516730089338}, {"current_trial": 232, "trialdata": {"rt": -1, "trial_type": "single-stim", "word": "maple", "stimulus": "<p id=\"stim\">MAPLE</p>", "conditions": [12, 800, "v", 12000], "internal_node_id": "0.0-169.0", "trial": 6, "time_elapsed": 1070330, "serialpos": 7, "key_press": -1, "wordID": 865, "type": "PRES_VIS", "trial_index": 232}, "uniqueid": "MTK2083:30IQTZXKALDCDURNCAOB597GGG90XN", "dateTime": 1516730091239}, {"current_trial": 233, "trialdata": {"rt": -1, "trial_type": "single-stim", "word": "dolphin", "stimulus": "<p id=\"stim\">DOLPHIN</p>", "conditions": [12, 800, "v", 12000], "internal_node_id": "0.0-170.0", "trial": 6, "time_elapsed": 1072277, "serialpos": 8, "key_press": -1, "wordID": 482, "type": "PRES_VIS", "trial_index": 233}, "uniqueid": "MTK2083:30IQTZXKALDCDURNCAOB597GGG90XN", "dateTime": 1516730093186}, {"current_trial": 234, "trialdata": {"rt": -1, "trial_type": "single-stim", "word": "mammal", "stimulus": "<p id=\"stim\">MAMMAL</p>", "conditions": [12, 800, "v", 12000], "internal_node_id": "0.0-171.0", "trial": 6, "time_elapsed": 1074002, "serialpos": 9, "key_press": -1, "wordID": 860, "type": "PRES_VIS", "trial_index": 234}, "uniqueid": "MTK2083:30IQTZXKALDCDURNCAOB597GGG90XN", "dateTime": 1516730094911}, {"current_trial": 235, "trialdata": {"rt": -1, "trial_type": "single-stim", "word": "fox", "stimulus": "<p id=\"stim\">FOX</p>", "conditions": [12, 800, "v", 12000], "internal_node_id": "0.0-172.0", "trial": 6, "time_elapsed": 1075976, "serialpos": 10, "key_press": -1, "wordID": 597, "type": "PRES_VIS", "trial_index": 235}, "uniqueid": "MTK2083:30IQTZXKALDCDURNCAOB597GGG90XN", "dateTime": 1516730096885}, {"current_trial": 236, "trialdata": {"rt": -1, "trial_type": "single-stim", "word": "glove", "stimulus": "<p id=\"stim\">GLOVE</p>", "conditions": [12, 800, "v", 12000], "internal_node_id": "0.0-173.0", "trial": 6, "time_elapsed": 1077918, "serialpos": 11, "key_press": -1, "wordID": 641, "type": "PRES_VIS", "trial_index": 236}, "uniqueid": "MTK2083:30IQTZXKALDCDURNCAOB597GGG90XN", "dateTime": 1516730098827}, {"current_trial": 237, "trialdata": {"rt": -1, "trial_type": "single-stim", "stimulus": "", "internal_node_id": "0.0-174.0-0.0", "time_elapsed": 1080452, "key_press": -1, "type": "PRE_RECALL_DELAY", "trial_index": 237}, "uniqueid": "MTK2083:30IQTZXKALDCDURNCAOB597GGG90XN", "dateTime": 1516730101361}, {"current_trial": 238, "trialdata": {"rt": -1000, "trial_type": "single-audio", "stimulus": "/static/audio/400Hz.wav", "internal_node_id": "0.0-175.0", "time_elapsed": 1080954, "key_press": -1, "type": "PRE_RECALL_ALERT", "trial_index": 238}, "uniqueid": "MTK2083:30IQTZXKALDCDURNCAOB597GGG90XN", "dateTime": 1516730101863}, {"current_trial": 239, "trialdata": {"rt": [2529, 4418, 5953, 8346, 10557, 12401, 15681, 18369, 25385, 27257], "recwords": ["dolphin", "mammal", "fox", "glove", "wrist", "spoon", "captive", "trench", "rooster", "ulcer"], "key_times": [1067, 1185, 1378, 1586, 1906, 2050, 2201, 2529, 3034, 3169, 3306, 3474, 3930, 4073, 4418, 5082, 5258, 5505, 5953, 6634, 6737, 7353, 7665, 7841, 8001, 8210, 8346, 8858, 9121, 9561, 9706, 10025, 10557, 10858, 11083, 11297, 11481, 11817, 12401, 13042, 13617, 14105, 14313, 14545, 14858, 15097, 15681, 16362, 17041, 17273, 17625, 17793, 18097, 18369, 22827, 22833, 23185, 23385, 23753, 23985, 24193, 24401, 24689, 24977, 25193, 25385, 26065, 26425, 26609, 26760, 27009, 27257], "trial_type": "free-recall", "conditions": [12, 800, "v", 12000], "internal_node_id": "0.0-176.0-0.0", "key_presses": [68, 79, 76, 80, 72, 73, 78, 13, 77, 65, 77, 77, 65, 76, 13, 70, 79, 88, 13, 71, 71, 8, 76, 79, 86, 69, 13, 87, 82, 73, 83, 84, 13, 83, 80, 79, 79, 78, 13, 67, 65, 80, 84, 73, 86, 69, 13, 84, 82, 69, 78, 67, 72, 13, 82, 69, 8, 8, 82, 79, 79, 83, 84, 69, 82, 13, 85, 76, 67, 69, 82, 13], "trial": 6, "time_elapsed": 1140958, "type": "FREE_RECALL", "trial_index": 239}, "uniqueid": "MTK2083:30IQTZXKALDCDURNCAOB597GGG90XN", "dateTime": 1516730161872}, {"current_trial": 240, "trialdata": {"rt": 11277, "trial_type": "text", "internal_node_id": "0.0-177.0", "time_elapsed": 1154244, "key_press": 13, "type": "INSTRUCTIONS", "trial_index": 240}, "uniqueid": "MTK2083:30IQTZXKALDCDURNCAOB597GGG90XN", "dateTime": 1516730175153}, {"current_trial": 241, "trialdata": {"rt": [2536, 4296, 6088, 8122, 10504, 13192, 15592, 18497, 21681], "trial_type": "math-distractor", "key_times": [1928, 2536, 3928, 4296, 5688, 6088, 7512, 7832, 8122, 9792, 10032, 10504, 12535, 12712, 13192, 15129, 15328, 15592, 17720, 17928, 18497, 21055, 21488, 21681], "responses": ["9", "9", "9", "14", "19", "11", "12", "10", "15"], "num2": [1, 3, 7, 8, 6, 4, 1, 3, 8, 1], "num3": [5, 1, 1, 2, 6, 4, 3, 4, 8, 8], "conditions": [24, 800, "v", 24000], "internal_node_id": "0.0-178.0", "key_presses": [57, 13, 57, 13, 57, 13, 49, 52, 13, 49, 57, 13, 49, 49, 13, 49, 50, 13, 49, 48, 13, 49, 53, 13], "trial": 7, "time_elapsed": 1180254, "type": "DISTRACTOR", "trial_index": 241, "num1": [3, 5, 1, 4, 7, 3, 8, 3, 9, 8]}, "uniqueid": "MTK2083:30IQTZXKALDCDURNCAOB597GGG90XN", "dateTime": 1516730201163}, {"current_trial": 242, "trialdata": {"rt": -1, "trial_type": "single-stim", "stimulus": "<p id=\"stim\">10</p>", "internal_node_id": "0.0-179.0-0.0", "time_elapsed": 1183260, "key_press": -1, "trial_index": 242}, "uniqueid": "MTK2083:30IQTZXKALDCDURNCAOB597GGG90XN", "dateTime": 1516730204169}, {"current_trial": 243, "trialdata": {"rt": -1, "trial_type": "single-stim", "stimulus": "<p id=\"stim\">9</p>", "internal_node_id": "0.0-179.0-1.0", "time_elapsed": 1184264, "key_press": -1, "trial_index": 243}, "uniqueid": "MTK2083:30IQTZXKALDCDURNCAOB597GGG90XN", "dateTime": 1516730205173}, {"current_trial": 244, "trialdata": {"rt": -1, "trial_type": "single-stim", "stimulus": "<p id=\"stim\">8</p>", "internal_node_id": "0.0-179.0-2.0", "time_elapsed": 1185269, "key_press": -1, "trial_index": 244}, "uniqueid": "MTK2083:30IQTZXKALDCDURNCAOB597GGG90XN", "dateTime": 1516730206179}, {"current_trial": 245, "trialdata": {"rt": -1, "trial_type": "single-stim", "stimulus": "<p id=\"stim\">7</p>", "internal_node_id": "0.0-179.0-3.0", "time_elapsed": 1186272, "key_press": -1, "trial_index": 245}, "uniqueid": "MTK2083:30IQTZXKALDCDURNCAOB597GGG90XN", "dateTime": 1516730207181}, {"current_trial": 246, "trialdata": {"rt": -1, "trial_type": "single-stim", "stimulus": "<p id=\"stim\">6</p>", "internal_node_id": "0.0-179.0-4.0", "time_elapsed": 1187276, "key_press": -1, "trial_index": 246}, "uniqueid": "MTK2083:30IQTZXKALDCDURNCAOB597GGG90XN", "dateTime": 1516730208185}, {"current_trial": 247, "trialdata": {"rt": -1, "trial_type": "single-stim", "stimulus": "<p id=\"stim\">5</p>", "internal_node_id": "0.0-179.0-5.0", "time_elapsed": 1188282, "key_press": -1, "trial_index": 247}, "uniqueid": "MTK2083:30IQTZXKALDCDURNCAOB597GGG90XN", "dateTime": 1516730209192}, {"current_trial": 248, "trialdata": {"rt": -1, "trial_type": "single-stim", "stimulus": "<p id=\"stim\">4</p>", "internal_node_id": "0.0-179.0-6.0", "time_elapsed": 1189286, "key_press": -1, "trial_index": 248}, "uniqueid": "MTK2083:30IQTZXKALDCDURNCAOB597GGG90XN", "dateTime": 1516730210195}, {"current_trial": 249, "trialdata": {"rt": -1, "trial_type": "single-stim", "stimulus": "<p id=\"stim\">3</p>", "internal_node_id": "0.0-179.0-7.0", "time_elapsed": 1190291, "key_press": -1, "trial_index": 249}, "uniqueid": "MTK2083:30IQTZXKALDCDURNCAOB597GGG90XN", "dateTime": 1516730211200}, {"current_trial": 250, "trialdata": {"rt": -1, "trial_type": "single-stim", "stimulus": "<p id=\"stim\">2</p>", "internal_node_id": "0.0-179.0-8.0", "time_elapsed": 1191295, "key_press": -1, "trial_index": 250}, "uniqueid": "MTK2083:30IQTZXKALDCDURNCAOB597GGG90XN", "dateTime": 1516730212204}, {"current_trial": 251, "tria