{"assignmentId": "32RIADZISTBLG1NP115QI4G1LSPS4M", "workerId": "MTK2763", "questiondata": {"origin": "India", "strat-rehearsal": "96", "marital": "Married/Domestic Partnership", "education": "Bachelor's degree", "ethnicity": "Not Hispanic", "color_depth": 24, "distracted": "No", "wrote-notes": "No", "strat-other": "", "screen_width": 1366, "avail_screen_width": 1366, "avail_screen_height": 745, "strat-image": "94", "language": "english", "gender": "Male", "age": "32", "gender_other": "", "race": ["Asian"], "strat-categorize": "83", "pixel_depth": 24, "strat-spatial": "69", "strat-story": "91", "race_other": "", "screen_height": 768}, "bonus": 0, "hitId": "33IXYHIZB5P8GK5Q6QXVBOJ4FDQE21", "counterbalance": 526, "useragent": "Mozilla/5.0 (Macintosh; Intel Mac OS X 10_13_3) AppleWebKit/537.36 (KHTML, like Gecko) Chrome/64.0.3282.167 Safari/537.36", "eventdata": [{"eventtype": "initialized", "interval": 0, "value": null, "timestamp": 1519326560465}, {"eventtype": "window_resize", "interval": 0, "value": [1366, 642], "timestamp": 1519326560465}, {"eventtype": "focus", "interval": 11209, "value": "off", "timestamp": 1519326571674}, {"eventtype": "focus", "interval": 1086, "value": "on", "timestamp": 1519326572760}, {"eventtype": "focus", "interval": 330157, "value": "off", "timestamp": 1519326902917}, {"eventtype": "focus", "interval": 21163, "value": "on", "timestamp": 1519326924080}, {"eventtype": "focus", "interval": 2070564, "value": "off", "timestamp": 1519328994644}, {"eventtype": "focus", "interval": 10813, "value": "on", "timestamp": 1519329005457}, {"eventtype": "focus", "interval": 507704, "value": "off", "timestamp": 1519329513161}, {"eventtype": "focus", "interval": 11371, "value": "on", "timestamp": 1519329524532}, {"eventtype": "focus", "interval": 5553, "value": "off", "timestamp": 1519329530085}, {"eventtype": "focus", "interval": 13556, "value": "on", "timestamp": 1519329543641}], "data": [{"current_trial": 0, "trialdata": {"rt": 3600, "trial_type": "text", "internal_node_id": "0.0-0.0", "time_elapsed": 3603, "key_press": 76, "type": "INSTRUCTIONS", "trial_index": 0}, "uniqueid": "MTK2763:32RIADZISTBLG1NP115QI4G1LSPS4M", "dateTime": 1519326583618}, {"current_trial": 1, "trialdata": {"rt": 24112, "trial_type": "text", "internal_node_id": "0.0-1.0", "time_elapsed": 27719, "key_press": 76, "type": "INSTRUCTIONS", "trial_index": 1}, "uniqueid": "MTK2763:32RIADZISTBLG1NP115QI4G1LSPS4M", "dateTime": 1519326607732}, {"current_trial": 2, "trialdata": {"rt": [29383], "trial_type": "audio-test", "responses": ["ocean"], "internal_node_id": "0.0-2.0", "time_elapsed": 57121, "type": "AUDIO_TEST", "trial_index": 2}, "uniqueid": "MTK2763:32RIADZISTBLG1NP115QI4G1LSPS4M", "dateTime": 1519326637134}, {"current_trial": 3, "trialdata": {"rt": [10595], "trial_type": "audio-test", "responses": ["crystal"], "internal_node_id": "0.0-3.0", "time_elapsed": 67721, "type": "AUDIO_TEST", "trial_index": 3}, "uniqueid": "MTK2763:32RIADZISTBLG1NP115QI4G1LSPS4M", "dateTime": 1519326647734}, {"current_trial": 4, "trialdata": {"rt": [23844], "trial_type": "audio-test", "responses": ["spice"], "internal_node_id": "0.0-4.0", "time_elapsed": 91569, "type": "AUDIO_TEST", "trial_index": 4}, "uniqueid": "MTK2763:32RIADZISTBLG1NP115QI4G1LSPS4M", "dateTime": 1519326671582}, {"current_trial": 5, "trialdata": {"rt": 18006, "trial_type": "survey-text", "responses": "{\"Q0\":\"10 \",\"Q1\":\"6\",\"Q2\":\"5\"}", "internal_node_id": "0.0-5.0", "time_elapsed": 110328, "type": "SLEEP_SURVEY", "trial_index": 5}, "uniqueid": "MTK2763:32RIADZISTBLG1NP115QI4G1LSPS4M", "dateTime": 1519326690341}, {"current_trial": 6, "trialdata": {"rt": 31395, "trial_type": "text", "internal_node_id": "0.0-6.0", "time_elapsed": 142725, "key_press": 13, "type": "INSTRUCTIONS", "trial_index": 6}, "uniqueid": "MTK2763:32RIADZISTBLG1NP115QI4G1LSPS4M", "dateTime": 1519326722738}, {"current_trial": 7, "trialdata": {"rt": 26744, "trial_type": "text", "internal_node_id": "0.0-7.0", "time_elapsed": 169975, "key_press": 32, "type": "INSTRUCTIONS", "trial_index": 7}, "uniqueid": "MTK2763:32RIADZISTBLG1NP115QI4G1LSPS4M", "dateTime": 1519326749988}, {"current_trial": 8, "trialdata": {"rt": 5411, "trial_type": "text", "internal_node_id": "0.0-8.0", "time_elapsed": 175892, "key_press": 32, "type": "INSTRUCTIONS", "trial_index": 8}, "uniqueid": "MTK2763:32RIADZISTBLG1NP115QI4G1LSPS4M", "dateTime": 1519326755905}, {"current_trial": 9, "trialdata": {"rt": [6512, 9521, 12602], "trial_type": "math-distractor", "key_times": [5017, 5497, 6512, 8642, 8810, 9521, 11569, 12009, 12602, 17153, 17443], "responses": ["17", "11", "19"], "num2": [4, 8, 9, 8], "num3": [5, 2, 9, 8], "conditions": [18, 1200, "a", 18000], "internal_node_id": "0.0-9.0", "key_presses": [49, 55, 13, 49, 49, 13, 49, 57, 13, 50, 51], "trial": 0, "time_elapsed": 194905, "type": "DISTRACTOR", "trial_index": 9, "num1": [8, 1, 1, 7]}, "uniqueid": "MTK2763:32RIADZISTBLG1NP115QI4G1LSPS4M", "dateTime": 1519326774919}, {"current_trial": 10, "trialdata": {"rt": -1, "trial_type": "single-stim", "stimulus": "<p id=\"stim\">10</p>", "internal_node_id": "0.0-10.0-0.0", "time_elapsed": 197917, "key_press": -1, "trial_index": 10}, "uniqueid": "MTK2763:32RIADZISTBLG1NP115QI4G1LSPS4M", "dateTime": 1519326777930}, {"current_trial": 11, "trialdata": {"rt": -1, "trial_type": "single-stim", "stimulus": "<p id=\"stim\">9</p>", "internal_node_id": "0.0-10.0-1.0", "time_elapsed": 198921, "key_press": -1, "trial_index": 11}, "uniqueid": "MTK2763:32RIADZISTBLG1NP115QI4G1LSPS4M", "dateTime": 1519326778934}, {"current_trial": 12, "trialdata": {"rt": -1, "trial_type": "single-stim", "stimulus": "<p id=\"stim\">8</p>", "internal_node_id": "0.0-10.0-2.0", "time_elapsed": 199925, "key_press": -1, "trial_index": 12}, "uniqueid": "MTK2763:32RIADZISTBLG1NP115QI4G1LSPS4M", "dateTime": 1519326779939}, {"current_trial": 13, "trialdata": {"rt": -1, "trial_type": "single-stim", "stimulus": "<p id=\"stim\">7</p>", "internal_node_id": "0.0-10.0-3.0", "time_elapsed": 200929, "key_press": -1, "trial_index": 13}, "uniqueid": "MTK2763:32RIADZISTBLG1NP115QI4G1LSPS4M", "dateTime": 1519326780942}, {"current_trial": 14, "trialdata": {"rt": -1, "trial_type": "single-stim", "stimulus": "<p id=\"stim\">6</p>", "internal_node_id": "0.0-10.0-4.0", "time_elapsed": 201933, "key_press": -1, "trial_index": 14}, "uniqueid": "MTK2763:32RIADZISTBLG1NP115QI4G1LSPS4M", "dateTime": 1519326781946}, {"current_trial": 15, "trialdata": {"rt": -1, "trial_type": "single-stim", "stimulus": "<p id=\"stim\">5</p>", "internal_node_id": "0.0-10.0-5.0", "time_elapsed": 202938, "key_press": -1, "trial_index": 15}, "uniqueid": "MTK2763:32RIADZISTBLG1NP115QI4G1LSPS4M", "dateTime": 1519326782951}, {"current_trial": 16, "trialdata": {"rt": -1, "trial_type": "single-stim", "stimulus": "<p id=\"stim\">4</p>", "internal_node_id": "0.0-10.0-6.0", "time_elapsed": 203944, "key_press": -1, "trial_index": 16}, "uniqueid": "MTK2763:32RIADZISTBLG1NP115QI4G1LSPS4M", "dateTime": 1519326783957}, {"current_trial": 17, "trialdata": {"rt": -1, "trial_type": "single-stim", "stimulus": "<p id=\"stim\">3</p>", "internal_node_id": "0.0-10.0-7.0", "time_elapsed": 204951, "key_press": -1, "trial_index": 17}, "uniqueid": "MTK2763:32RIADZISTBLG1NP115QI4G1LSPS4M", "dateTime": 1519326784964}, {"current_trial": 18, "trialdata": {"rt": -1, "trial_type": "single-stim", "stimulus": "<p id=\"stim\">2</p>", "internal_node_id": "0.0-10.0-8.0", "time_elapsed": 205956, "key_press": -1, "trial_index": 18}, "uniqueid": "MTK2763:32RIADZISTBLG1NP115QI4G1LSPS4M", "dateTime": 1519326785969}, {"current_trial": 19, "trialdata": {"rt": -1, "trial_type": "single-stim", "stimulus": "<p id=\"stim\">1</p>", "internal_node_id": "0.0-10.0-9.0", "time_elapsed": 206959, "key_press": -1, "trial_index": 19}, "uniqueid": "MTK2763:32RIADZISTBLG1NP115QI4G1LSPS4M", "dateTime": 1519326786972}, {"current_trial": 20, "trialdata": {"rt": -1, "trial_type": "single-stim", "stimulus": "<p id=\"stim\">+</p>", "internal_node_id": "0.0-11.0-0.0", "time_elapsed": 208462, "key_press": -1, "type": "FIXATION", "trial_index": 20}, "uniqueid": "MTK2763:32RIADZISTBLG1NP115QI4G1LSPS4M", "dateTime": 1519326788475}, {"current_trial": 21, "trialdata": {"rt": -1000, "trial_type": "single-audio", "word": "brook", "stimulus": "/static/audio/wordpool/BROOK.wav", "conditions": [18, 1200, "a", 18000], "internal_node_id": "0.0-12.0", "trial": 0, "time_elapsed": 210642, "serialpos": 0, "key_press": -1, "wordID": 176, "type": "PRES_AUD", "trial_index": 21}, "uniqueid": "MTK2763:32RIADZISTBLG1NP115QI4G1LSPS4M", "dateTime": 1519326790655}, {"current_trial": 22, "trialdata": {"rt": -1000, "trial_type": "single-audio", "word": "pebble", "stimulus": "/static/audio/wordpool/PEBBLE.wav", "conditions": [18, 1200, "a", 18000], "internal_node_id": "0.0-13.0", "trial": 0, "time_elapsed": 212848, "serialpos": 1, "key_press": -1, "wordID": 1034, "type": "PRES_AUD", "trial_index": 22}, "uniqueid": "MTK2763:32RIADZISTBLG1NP115QI4G1LSPS4M", "dateTime": 1519326792861}, {"current_trial": 23, "trialdata": {"rt": -1000, "trial_type": "single-audio", "word": "film", "stimulus": "/static/audio/wordpool/FILM.wav", "conditions": [18, 1200, "a", 18000], "internal_node_id": "0.0-14.0", "trial": 0, "time_elapsed": 214954, "serialpos": 2, "key_press": -1, "wordID": 564, "type": "PRES_AUD", "trial_index": 23}, "uniqueid": "MTK2763:32RIADZISTBLG1NP115QI4G1LSPS4M", "dateTime": 1519326794968}, {"current_trial": 24, "trialdata": {"rt": -1000, "trial_type": "single-audio", "word": "flower", "stimulus": "/static/audio/wordpool/FLOWER.wav", "conditions": [18, 1200, "a", 18000], "internal_node_id": "0.0-15.0", "trial": 0, "time_elapsed": 217349, "serialpos": 3, "key_press": -1, "wordID": 583, "type": "PRES_AUD", "trial_index": 24}, "uniqueid": "MTK2763:32RIADZISTBLG1NP115QI4G1LSPS4M", "dateTime": 1519326797362}, {"current_trial": 25, "trialdata": {"rt": -1000, "trial_type": "single-audio", "word": "cupboard", "stimulus": "/static/audio/wordpool/CUPBOARD.wav", "conditions": [18, 1200, "a", 18000], "internal_node_id": "0.0-16.0", "trial": 0, "time_elapsed": 219709, "serialpos": 4, "key_press": -1, "wordID": 424, "type": "PRES_AUD", "trial_index": 25}, "uniqueid": "MTK2763:32RIADZISTBLG1NP115QI4G1LSPS4M", "dateTime": 1519326799723}, {"current_trial": 26, "trialdata": {"rt": -1000, "trial_type": "single-audio", "word": "permit", "stimulus": "/static/audio/wordpool/PERMIT.wav", "conditions": [18, 1200, "a", 18000], "internal_node_id": "0.0-17.0", "trial": 0, "time_elapsed": 221834, "serialpos": 5, "key_press": -1, "wordID": 1050, "type": "PRES_AUD", "trial_index": 26}, "uniqueid": "MTK2763:32RIADZISTBLG1NP115QI4G1LSPS4M", "dateTime": 1519326801847}, {"current_trial": 27, "trialdata": {"rt": -1000, "trial_type": "single-audio", "word": "supper", "stimulus": "/static/audio/wordpool/SUPPER.wav", "conditions": [18, 1200, "a", 18000], "internal_node_id": "0.0-18.0", "trial": 0, "time_elapsed": 224214, "serialpos": 6, "key_press": -1, "wordID": 1410, "type": "PRES_AUD", "trial_index": 27}, "uniqueid": "MTK2763:32RIADZISTBLG1NP115QI4G1LSPS4M", "dateTime": 1519326804227}, {"current_trial": 28, "trialdata": {"rt": -1000, "trial_type": "single-audio", "word": "novel", "stimulus": "/static/audio/wordpool/NOVEL.wav", "conditions": [18, 1200, "a", 18000], "internal_node_id": "0.0-19.0", "trial": 0, "time_elapsed": 226344, "serialpos": 7, "key_press": -1, "wordID": 959, "type": "PRES_AUD", "trial_index": 28}, "uniqueid": "MTK2763:32RIADZISTBLG1NP115QI4G1LSPS4M", "dateTime": 1519326806357}, {"current_trial": 29, "trialdata": {"rt": -1000, "trial_type": "single-audio", "word": "scalpel", "stimulus": "/static/audio/wordpool/SCALPEL.wav", "conditions": [18, 1200, "a", 18000], "internal_node_id": "0.0-20.0", "trial": 0, "time_elapsed": 228666, "serialpos": 8, "key_press": -1, "wordID": 1242, "type": "PRES_AUD", "trial_index": 29}, "uniqueid": "MTK2763:32RIADZISTBLG1NP115QI4G1LSPS4M", "dateTime": 1519326808680}, {"current_trial": 30, "trialdata": {"rt": -1000, "trial_type": "single-audio", "word": "portrait", "stimulus": "/static/audio/wordpool/PORTRAIT.wav", "conditions": [18, 1200, "a", 18000], "internal_node_id": "0.0-21.0", "trial": 0, "time_elapsed": 230889, "serialpos": 9, "key_press": -1, "wordID": 1110, "type": "PRES_AUD", "trial_index": 30}, "uniqueid": "MTK2763:32RIADZISTBLG1NP115QI4G1LSPS4M", "dateTime": 1519326810902}, {"current_trial": 31, "trialdata": {"rt": -1000, "trial_type": "single-audio", "word": "possum", "stimulus": "/static/audio/wordpool/POSSUM.wav", "conditions": [18, 1200, "a", 18000], "internal_node_id": "0.0-22.0", "trial": 0, "time_elapsed": 233229, "serialpos": 10, "key_press": -1, "wordID": 1111, "type": "PRES_AUD", "trial_index": 31}, "uniqueid": "MTK2763:32RIADZISTBLG1NP115QI4G1LSPS4M", "dateTime": 1519326813242}, {"current_trial": 32, "trialdata": {"rt": -1000, "trial_type": "single-audio", "word": "summit", "stimulus": "/static/audio/wordpool/SUMMIT.wav", "conditions": [18, 1200, "a", 18000], "internal_node_id": "0.0-23.0", "trial": 0, "time_elapsed": 235553, "serialpos": 11, "key_press": -1, "wordID": 1404, "type": "PRES_AUD", "trial_index": 32}, "uniqueid": "MTK2763:32RIADZISTBLG1NP115QI4G1LSPS4M", "dateTime": 1519326815566}, {"current_trial": 33, "trialdata": {"rt": -1000, "trial_type": "single-audio", "word": "convict", "stimulus": "/static/audio/wordpool/CONVICT.wav", "conditions": [18, 1200, "a", 18000], "internal_node_id": "0.0-24.0", "trial": 0, "time_elapsed": 237948, "serialpos": 12, "key_press": -1, "wordID": 370, "type": "PRES_AUD", "trial_index": 33}, "uniqueid": "MTK2763:32RIADZISTBLG1NP115QI4G1LSPS4M", "dateTime": 1519326817961}, {"current_trial": 34, "trialdata": {"rt": -1000, "trial_type": "single-audio", "word": "umpire", "stimulus": "/static/audio/wordpool/UMPIRE.wav", "conditions": [18, 1200, "a", 18000], "internal_node_id": "0.0-25.0", "trial": 0, "time_elapsed": 240322, "serialpos": 13, "key_press": -1, "wordID": 1534, "type": "PRES_AUD", "trial_index": 34}, "uniqueid": "MTK2763:32RIADZISTBLG1NP115QI4G1LSPS4M", "dateTime": 1519326820335}, {"current_trial": 35, "trialdata": {"rt": -1000, "trial_type": "single-audio", "word": "barley", "stimulus": "/static/audio/wordpool/BARLEY.wav", "conditions": [18, 1200, "a", 18000], "internal_node_id": "0.0-26.0", "trial": 0, "time_elapsed": 242345, "serialpos": 14, "key_press": -1, "wordID": 87, "type": "PRES_AUD", "trial_index": 35}, "uniqueid": "MTK2763:32RIADZISTBLG1NP115QI4G1LSPS4M", "dateTime": 1519326822358}, {"current_trial": 36, "trialdata": {"rt": -1000, "trial_type": "single-audio", "word": "hound", "stimulus": "/static/audio/wordpool/HOUND.wav", "conditions": [18, 1200, "a", 18000], "internal_node_id": "0.0-27.0", "trial": 0, "time_elapsed": 244408, "serialpos": 15, "key_press": -1, "wordID": 723, "type": "PRES_AUD", "trial_index": 36}, "uniqueid": "MTK2763:32RIADZISTBLG1NP115QI4G1LSPS4M", "dateTime": 1519326824422}, {"current_trial": 37, "trialdata": {"rt": -1000, "trial_type": "single-audio", "word": "victim", "stimulus": "/static/audio/wordpool/VICTIM.wav", "conditions": [18, 1200, "a", 18000], "internal_node_id": "0.0-28.0", "trial": 0, "time_elapsed": 246765, "serialpos": 16, "key_press": -1, "wordID": 1561, "type": "PRES_AUD", "trial_index": 37}, "uniqueid": "MTK2763:32RIADZISTBLG1NP115QI4G1LSPS4M", "dateTime": 1519326826779}, {"current_trial": 38, "trialdata": {"rt": -1000, "trial_type": "single-audio", "word": "shrub", "stimulus": "/static/audio/wordpool/SHRUB.wav", "conditions": [18, 1200, "a", 18000], "internal_node_id": "0.0-29.0", "trial": 0, "time_elapsed": 249053, "serialpos": 17, "key_press": -1, "wordID": 1298, "type": "PRES_AUD", "trial_index": 38}, "uniqueid": "MTK2763:32RIADZISTBLG1NP115QI4G1LSPS4M", "dateTime": 1519326829066}, {"current_trial": 39, "trialdata": {"rt": -1, "trial_type": "single-stim", "stimulus": "", "internal_node_id": "0.0-30.0-0.0", "time_elapsed": 250313, "key_press": -1, "type": "PRE_RECALL_DELAY", "trial_index": 39}, "uniqueid": "MTK2763:32RIADZISTBLG1NP115QI4G1LSPS4M", "dateTime": 1519326830327}, {"current_trial": 40, "trialdata": {"rt": -1000, "trial_type": "single-audio", "stimulus": "/static/audio/400Hz.wav", "internal_node_id": "0.0-31.0", "time_elapsed": 250815, "key_press": -1, "type": "PRE_RECALL_ALERT", "trial_index": 40}, "uniqueid": "MTK2763:32RIADZISTBLG1NP115QI4G1LSPS4M", "dateTime": 1519326830828}, {"current_trial": 41, "trialdata": {"rt": [3983, 6343, 8629, 11495, 14991, 18886, 33221, 41320, 51104], "recwords": ["umpire", "shrub", "barley", "victim", "book", "pebble", "scalpel", "hound", "run"], "key_times": [2129, 2359, 2670, 2888, 3215, 3304, 3983, 4784, 4976, 5223, 5597, 5992, 6343, 6944, 7055, 7248, 7727, 8064, 8215, 8629, 9279, 9471, 10001, 10279, 10871, 11039, 11495, 13047, 13399, 13527, 13695, 14222, 14613, 14991, 15855, 16048, 17703, 17862, 18206, 18415, 18886, 31080, 31271, 31647, 31911, 32103, 32430, 32655, 33221, 39904, 40152, 40351, 40695, 41048, 41320, 50176, 50440, 50720, 51104], "trial_type": "free-recall", "conditions": [18, 1200, "a", 18000], "internal_node_id": "0.0-32.0-0.0", "key_presses": [85, 77, 80, 73, 82, 69, 13, 83, 72, 82, 85, 66, 13, 66, 65, 82, 76, 69, 89, 13, 86, 73, 67, 84, 73, 77, 13, 66, 79, 79, 76, 8, 75, 13, 80, 69, 66, 66, 76, 69, 13, 83, 67, 65, 76, 80, 69, 76, 13, 72, 79, 85, 78, 68, 13, 82, 85, 78, 13], "trial": 0, "time_elapsed": 310822, "type": "FREE_RECALL", "trial_index": 41}, "uniqueid": "MTK2763:32RIADZISTBLG1NP115QI4G1LSPS4M", "dateTime": 1519326890838}, {"current_trial": 42, "trialdata": {"rt": 2876, "trial_type": "text", "internal_node_id": "0.0-33.0", "time_elapsed": 315704, "key_press": 13, "type": "INSTRUCTIONS", "trial_index": 42}, "uniqueid": "MTK2763:32RIADZISTBLG1NP115QI4G1LSPS4M", "dateTime": 1519326895717}, {"current_trial": 43, "trialdata": {"rt": [], "trial_type": "math-distractor", "key_times": [], "responses": [], "num2": [8], "num3": [7], "conditions": [18, 1200, "a", 18000], "internal_node_id": "0.0-34.0", "key_presses": [], "trial": 1, "time_elapsed": 336341, "type": "DISTRACTOR", "trial_index": 43, "num1": [8]}, "uniqueid": "MTK2763:32RIADZISTBLG1NP115QI4G1LSPS4M", "dateTime": 1519326916354}, {"current_trial": 44, "trialdata": {"rt": -1, "trial_type": "single-stim", "stimulus": "<p id=\"stim\">10</p>", "internal_node_id": "0.0-35.0-0.0", "time_elapsed": 340571, "key_press": -1, "trial_index": 44}, "uniqueid": "MTK2763:32RIADZISTBLG1NP115QI4G1LSPS4M", "dateTime": 1519326920584}, {"current_trial": 45, "trialdata": {"rt": -1, "trial_type": "single-stim", "stimulus": "<p id=\"stim\">9</p>", "internal_node_id": "0.0-35.0-1.0", "time_elapsed": 342359, "key_press": -1, "trial_index": 45}, "uniqueid": "MTK2763:32RIADZISTBLG1NP115QI4G1LSPS4M", "dateTime": 1519326922372}, {"current_trial": 46, "trialdata": {"rt": -1, "trial_type": "single-stim", "stimulus": "<p id=\"stim\">8</p>", "internal_node_id": "0.0-35.0-2.0", "time_elapsed": 343564, "key_press": -1, "trial_index": 46}, "uniqueid": "MTK2763:32RIADZISTBLG1NP115QI4G1LSPS4M", "dateTime": 1519326923577}, {"current_trial": 47, "trialdata": {"rt": -1, "trial_type": "single-stim", "stimulus": "<p id=\"stim\">7</p>", "internal_node_id": "0.0-35.0-3.0", "time_elapsed": 344565, "key_press": -1, "trial_index": 47}, "uniqueid": "MTK2763:32RIADZISTBLG1NP115QI4G1LSPS4M", "dateTime": 1519326924578}, {"current_trial": 48, "trialdata": {"rt": -1, "trial_type": "single-stim", "stimulus": "<p id=\"stim\">6</p>", "internal_node_id": "0.0-35.0-4.0", "time_elapsed": 345569, "key_press": -1, "trial_index": 48}, "uniqueid": "MTK2763:32RIADZISTBLG1NP115QI4G1LSPS4M", "dateTime": 1519326925582}, {"current_trial": 49, "trialdata": {"rt": -1, "trial_type": "single-stim", "stimulus": "<p id=\"stim\">5</p>", "internal_node_id": "0.0-35.0-5.0", "time_elapsed": 346572, "key_press": -1, "trial_index": 49}, "uniqueid": "MTK2763:32RIADZISTBLG1NP115QI4G1LSPS4M", "dateTime": 1519326926585}, {"current_trial": 50, "trialdata": {"rt": -1, "trial_type": "single-stim", "stimulus": "<p id=\"stim\">4</p>", "internal_node_id": "0.0-35.0-6.0", "time_elapsed": 347577, "key_press": -1, "trial_index": 50}, "uniqueid": "MTK2763:32RIADZISTBLG1NP115QI4G1LSPS4M", "dateTime": 1519326927591}, {"current_trial": 51, "trialdata": {"rt": -1, "trial_type": "single-stim", "stimulus": "<p id=\"stim\">3</p>", "internal_node_id": "0.0-35.0-7.0", "time_elapsed": 348581, "key_press": -1, "trial_index": 51}, "uniqueid": "MTK2763:32RIADZISTBLG1NP115QI4G1LSPS4M", "dateTime": 1519326928595}, {"current_trial": 52, "trialdata": {"rt": -1, "trial_type": "single-stim", "stimulus": "<p id=\"stim\">2</p>", "internal_node_id": "0.0-35.0-8.0", "time_elapsed": 349585, "key_press": -1, "trial_index": 52}, "uniqueid": "MTK2763:32RIADZISTBLG1NP115QI4G1LSPS4M", "dateTime": 1519326929598}, {"current_trial": 53, "trialdata": {"rt": -1, "trial_type": "single-stim", "stimulus": "<p id=\"stim\">1</p>", "internal_node_id": "0.0-35.0-9.0", "time_elapsed": 350589, "key_press": -1, "trial_index": 53}, "uniqueid": "MTK2763:32RIADZISTBLG1NP115QI4G1LSPS4M", "dateTime": 1519326930602}, {"current_trial": 54, "trialdata": {"rt": -1, "trial_type": "single-stim", "stimulus": "<p id=\"stim\">+</p>", "internal_node_id": "0.0-36.0-0.0", "time_elapsed": 352093, "key_press": -1, "type": "FIXATION", "trial_index": 54}, "uniqueid": "MTK2763:32RIADZISTBLG1NP115QI4G1LSPS4M", "dateTime": 1519326932106}, {"current_trial": 55, "trialdata": {"rt": -1000, "trial_type": "single-audio", "word": "perch", "stimulus": "/static/audio/wordpool/PERCH.wav", "conditions": [18, 1200, "a", 18000], "internal_node_id": "0.0-37.0", "trial": 1, "time_elapsed": 354114, "serialpos": 0, "key_press": -1, "wordID": 1047, "type": "PRES_AUD", "trial_index": 55}, "uniqueid": "MTK2763:32RIADZISTBLG1NP115QI4G1LSPS4M", "dateTime": 1519326934127}, {"current_trial": 56, "trialdata": {"rt": -1000, "trial_type": "single-audio", "word": "fireplace", "stimulus": "/static/audio/wordpool/FIREPLACE.wav", "conditions": [18, 1200, "a", 18000], "internal_node_id": "0.0-38.0", "trial": 1, "time_elapsed": 356379, "serialpos": 1, "key_press": -1, "wordID": 569, "type": "PRES_AUD", "trial_index": 56}, "uniqueid": "MTK2763:32RIADZISTBLG1NP115QI4G1LSPS4M", "dateTime": 1519326936392}, {"current_trial": 57, "trialdata": {"rt": -1000, "trial_type": "single-audio", "word": "motor", "stimulus": "/static/audio/wordpool/MOTOR.wav", "conditions": [18, 1200, "a", 18000], "internal_node_id": "0.0-39.0", "trial": 1, "time_elapsed": 358648, "serialpos": 2, "key_press": -1, "wordID": 921, "type": "PRES_AUD", "trial_index": 57}, "uniqueid": "MTK2763:32RIADZISTBLG1NP115QI4G1LSPS4M", "dateTime": 1519326938662}, {"current_trial": 58, "trialdata": {"rt": -1000, "trial_type": "single-audio", "word": "pimple", "stimulus": "/static/audio/wordpool/PIMPLE.wav", "conditions": [18, 1200, "a", 18000], "internal_node_id": "0.0-40.0", "trial": 1, "time_elapsed": 360749, "serialpos": 3, "key_press": -1, "wordID": 1070, "type": "PRES_AUD", "trial_index": 58}, "uniqueid": "MTK2763:32RIADZISTBLG1NP115QI4G1LSPS4M", "dateTime": 1519326940762}, {"current_trial": 59, "trialdata": {"rt": -1000, "trial_type": "single-audio", "word": "mister", "stimulus": "/static/audio/wordpool/MISTER.wav", "conditions": [18, 1200, "a", 18000], "internal_node_id": "0.0-41.0", "trial": 1, "time_elapsed": 362799, "serialpos": 4, "key_press": -1, "wordID": 900, "type": "PRES_AUD", "trial_index": 59}, "uniqueid": "MTK2763:32RIADZISTBLG1NP115QI4G1LSPS4M", "dateTime": 1519326942812}, {"current_trial": 60, "trialdata": {"rt": -1000, "trial_type": "single-audio", "word": "venus", "stimulus": "/static/audio/wordpool/VENUS.wav", "conditions": [18, 1200, "a", 18000], "internal_node_id": "0.0-42.0", "trial": 1, "time_elapsed": 364948, "serialpos": 5, "key_press": -1, "wordID": 1556, "type": "PRES_AUD", "trial_index": 60}, "uniqueid": "MTK2763:32RIADZISTBLG1NP115QI4G1LSPS4M", "dateTime": 1519326944961}, {"current_trial": 61, "trialdata": {"rt": -1000, "trial_type": "single-audio", "word": "airport", "stimulus": "/static/audio/wordpool/AIRPORT.wav", "conditions": [18, 1200, "a", 18000], "internal_node_id": "0.0-43.0", "trial": 1, "time_elapsed": 367205, "serialpos": 6, "key_press": -1, "wordID": 12, "type": "PRES_AUD", "trial_index": 61}, "uniqueid": "MTK2763:32RIADZISTBLG1NP115QI4G1LSPS4M", "dateTime": 1519326947218}, {"current_trial": 62, "trialdata": {"rt": -1000, "trial_type": "single-audio", "word": "spool", "stimulus": "/static/audio/wordpool/SPOOL.wav", "conditions": [18, 1200, "a", 18000], "internal_node_id": "0.0-44.0", "trial": 1, "time_elapsed": 369347, "serialpos": 7, "key_press": -1, "wordID": 1355, "type": "PRES_AUD", "trial_index": 62}, "uniqueid": "MTK2763:32RIADZISTBLG1NP115QI4G1LSPS4M", "dateTime": 1519326949360}, {"current_trial": 63, "trialdata": {"rt": -1000, "trial_type": "single-audio", "word": "journal", "stimulus": "/static/audio/wordpool/JOURNAL.wav", "conditions": [18, 1200, "a", 18000], "internal_node_id": "0.0-45.0", "trial": 1, "time_elapsed": 371367, "serialpos": 8, "key_press": -1, "wordID": 759, "type": "PRES_AUD", "trial_index": 63}, "uniqueid": "MTK2763:32RIADZISTBLG1NP115QI4G1LSPS4M", "dateTime": 1519326951381}, {"current_trial": 64, "trialdata": {"rt": -1000, "trial_type": "single-audio", "word": "loft", "stimulus": "/static/audio/wordpool/LOFT.wav", "conditions": [18, 1200, "a", 18000], "internal_node_id": "0.0-46.0", "trial": 1, "time_elapsed": 373491, "serialpos": 9, "key_press": -1, "wordID": 839, "type": "PRES_AUD", "trial_index": 64}, "uniqueid": "MTK2763:32RIADZISTBLG1NP115QI4G1LSPS4M", "dateTime": 1519326953505}, {"current_trial": 65, "trialdata": {"rt": -1000, "trial_type": "single-audio", "word": "cigar", "stimulus": "/static/audio/wordpool/CIGAR.wav", "conditions": [18, 1200, "a", 18000], "internal_node_id": "0.0-47.0", "trial": 1, "time_elapsed": 375744, "serialpos": 10, "key_press": -1, "wordID": 307, "type": "PRES_AUD", "trial_index": 65}, "uniqueid": "MTK2763:32RIADZISTBLG1NP115QI4G1LSPS4M", "dateTime": 1519326955757}, {"current_trial": 66, "trialdata": {"rt": -1000, "trial_type": "single-audio", "word": "cabbage", "stimulus": "/static/audio/wordpool/CABBAGE.wav", "conditions": [18, 1200, "a", 18000], "internal_node_id": "0.0-48.0", "trial": 1, "time_elapsed": 378130, "serialpos": 11, "key_press": -1, "wordID": 209, "type": "PRES_AUD", "trial_index": 66}, "uniqueid": "MTK2763:32RIADZISTBLG1NP115QI4G1LSPS4M", "dateTime": 1519326958143}, {"current_trial": 67, "trialdata": {"rt": -1000, "trial_type": "single-audio", "word": "whistle", "stimulus": "/static/audio/wordpool/WHISTLE.wav", "conditions": [18, 1200, "a", 18000], "internal_node_id": "0.0-49.0", "trial": 1, "time_elapsed": 380469, "serialpos": 12, "key_press": -1, "wordID": 1605, "type": "PRES_AUD", "trial_index": 67}, "uniqueid": "MTK2763:32RIADZISTBLG1NP115QI4G1LSPS4M", "dateTime": 1519326960482}, {"current_trial": 68, "trialdata": {"rt": -1000, "trial_type": "single-audio", "word": "brick", "stimulus": "/static/audio/wordpool/BRICK.wav", "conditions": [18, 1200, "a", 18000], "internal_node_id": "0.0-50.0", "trial": 1, "time_elapsed": 382774, "serialpos": 13, "key_press": -1, "wordID": 171, "type": "PRES_AUD", "trial_index": 68}, "uniqueid": "MTK2763:32RIADZISTBLG1NP115QI4G1LSPS4M", "dateTime": 1519326962790}, {"current_trial": 69, "trialdata": {"rt": -1000, "trial_type": "single-audio", "word": "laser", "stimulus": "/static/audio/wordpool/LASER.wav", "conditions": [18, 1200, "a", 18000], "internal_node_id": "0.0-51.0", "trial": 1, "time_elapsed": 385008, "serialpos": 14, "key_press": -1, "wordID": 800, "type": "PRES_AUD", "trial_index": 69}, "uniqueid": "MTK2763:32RIADZISTBLG1NP115QI4G1LSPS4M", "dateTime": 1519326965021}, {"current_trial": 70, "trialdata": {"rt": -1000, "trial_type": "single-audio", "word": "island", "stimulus": "/static/audio/wordpool/ISLAND.wav", "conditions": [18, 1200, "a", 18000], "internal_node_id": "0.0-52.0", "trial": 1, "time_elapsed": 387185, "serialpos": 15, "key_press": -1, "wordID": 744, "type": "PRES_AUD", "trial_index": 70}, "uniqueid": "MTK2763:32RIADZISTBLG1NP115QI4G1LSPS4M", "dateTime": 1519326967198}, {"current_trial": 71, "trialdata": {"rt": -1000, "trial_type": "single-audio", "word": "dolphin", "stimulus": "/static/audio/wordpool/DOLPHIN.wav", "conditions": [18, 1200, "a", 18000], "internal_node_id": "0.0-53.0", "trial": 1, "time_elapsed": 389490, "serialpos": 16, "key_press": -1, "wordID": 482, "type": "PRES_AUD", "trial_index": 71}, "uniqueid": "MTK2763:32RIADZISTBLG1NP115QI4G1LSPS4M", "dateTime": 1519326969503}, {"current_trial": 72, "trialdata": {"rt": -1000, "trial_type": "single-audio", "word": "ozone", "stimulus": "/static/audio/wordpool/OZONE.wav", "conditions": [18, 1200, "a", 18000], "internal_node_id": "0.0-54.0", "trial": 1, "time_elapsed": 391580, "serialpos": 17, "key_press": -1, "wordID": 995, "type": "PRES_AUD", "trial_index": 72}, "uniqueid": "MTK2763:32RIADZISTBLG1NP115QI4G1LSPS4M", "dateTime": 1519326971593}, {"current_trial": 73, "trialdata": {"rt": -1, "trial_type": "single-stim", "stimulus": "", "internal_node_id": "0.0-55.0-0.0", "time_elapsed": 392927, "key_press": -1, "type": "PRE_RECALL_DELAY", "trial_index": 73}, "uniqueid": "MTK2763:32RIADZISTBLG1NP115QI4G1LSPS4M", "dateTime": 1519326972940}, {"current_trial": 74, "trialdata": {"rt": -1000, "trial_type": "single-audio", "stimulus": "/static/audio/400Hz.wav", "internal_node_id": "0.0-56.0", "time_elapsed": 393429, "key_press": -1, "type": "PRE_RECALL_ALERT", "trial_index": 74}, "uniqueid": "MTK2763:32RIADZISTBLG1NP115QI4G1LSPS4M", "dateTime": 1519326973442}, {"current_trial": 75, "trialdata": {"rt": [14855, 18183, 21464, 28915, 33539, 40959, 43399, 50003, 52757, 58195], "recwords": ["ozone", "island", "dolphin", "mister", "venus", "airport", "school", "tunnel", "loft", "cigar"], "key_times": [12287, 12999, 13313, 14016, 14208, 14479, 14647, 14855, 16280, 16575, 16768, 16895, 17271, 17695, 18183, 19950, 20087, 20245, 20631, 20927, 21096, 21279, 21464, 27180, 27363, 27771, 27963, 28083, 28219, 28915, 32203, 32291, 32618, 32818, 33139, 33539, 38656, 38855, 39399, 39631, 39808, 40263, 40431, 40959, 41615, 41968, 42311, 42655, 42783, 42951, 43399, 48410, 48578, 48930, 49059, 49187, 49499, 50003, 51248, 51419, 52051, 52235, 52757, 56539, 56971, 57355, 57491, 57795, 58195, 58699, 58819, 59147, 59283, 59435, 59851, 59955], "trial_type": "free-recall", "conditions": [18, 1200, "a", 18000], "internal_node_id": "0.0-57.0-0.0", "key_presses": [65, 8, 79, 90, 79, 78, 69, 32, 73, 83, 76, 65, 78, 68, 13, 68, 79, 76, 80, 72, 73, 78, 32, 77, 73, 83, 84, 69, 82, 13, 86, 69, 78, 85, 83, 13, 65, 73, 82, 80, 79, 82, 84, 13, 83, 67, 72, 79, 79, 76, 13, 84, 85, 78, 78, 69, 76, 13, 76, 79, 70, 84, 13, 67, 73, 71, 65, 82, 13, 67, 65, 66, 66, 65, 71, 69], "trial": 1, "time_elapsed": 453435, "type": "FREE_RECALL", "trial_index": 75}, "uniqueid": "MTK2763:32RIADZISTBLG1NP115QI4G1LSPS4M", "dateTime": 1519327033450}, {"current_trial": 76, "trialdata": {"rt": 11945, "trial_type": "text", "internal_node_id": "0.0-58.0", "time_elapsed": 467388, "key_press": 13, "type": "INSTRUCTIONS", "trial_index": 76}, "uniqueid": "MTK2763:32RIADZISTBLG1NP115QI4G1LSPS4M", "dateTime": 1519327047401}, {"current_trial": 77, "trialdata": {"rt": [5036, 10796], "trial_type": "math-distractor", "key_times": [3796, 4124, 5036, 7452, 8732, 10290, 10796], "responses": ["14", "9"], "num2": [1, 6, 7], "num3": [7, 1, 9], "conditions": [12, 800, "a", 12000], "internal_node_id": "0.0-59.0", "key_presses": [49, 52, 13, 56, 8, 57, 13], "trial": 2, "time_elapsed": 480394, "type": "DISTRACTOR", "trial_index": 77, "num1": [6, 2, 9]}, "uniqueid": "MTK2763:32RIADZISTBLG1NP115QI4G1LSPS4M", "dateTime": 1519327060408}, {"current_trial": 78, "trialdata": {"rt": -1, "trial_type": "single-stim", "stimulus": "<p id=\"stim\">10</p>", "internal_node_id": "0.0-60.0-0.0", "time_elapsed": 483401, "key_press": -1, "trial_index": 78}, "uniqueid": "MTK2763:32RIADZISTBLG1NP115QI4G1LSPS4M", "dateTime": 1519327063414}, {"current_trial": 79, "trialdata": {"rt": -1, "trial_type": "single-stim", "stimulus": "<p id=\"stim\">9</p>", "internal_node_id": "0.0-60.0-1.0", "time_elapsed": 484405, "key_press": -1, "trial_index": 79}, "uniqueid": "MTK2763:32RIADZISTBLG1NP115QI4G1LSPS4M", "dateTime": 1519327064418}, {"current_trial": 80, "trialdata": {"rt": -1, "trial_type": "single-stim", "stimulus": "<p id=\"stim\">8</p>", "internal_node_id": "0.0-60.0-2.0", "time_elapsed": 485409, "key_press": -1, "trial_index": 80}, "uniqueid": "MTK2763:32RIADZISTBLG1NP115QI4G1LSPS4M", "dateTime": 1519327065422}, {"current_trial": 81, "trialdata": {"rt": -1, "trial_type": "single-stim", "stimulus": "<p id=\"stim\">7</p>", "internal_node_id": "0.0-60.0-3.0", "time_elapsed": 486413, "key_press": -1, "trial_index": 81}, "uniqueid": "MTK2763:32RIADZISTBLG1NP115QI4G1LSPS4M", "dateTime": 1519327066426}, {"current_trial": 82, "trialdata": {"rt": -1, "trial_type": "single-stim", "stimulus": "<p id=\"stim\">6</p>", "internal_node_id": "0.0-60.0-4.0", "time_elapsed": 487418, "key_press": -1, "trial_index": 82}, "uniqueid": "MTK2763:32RIADZISTBLG1NP115QI4G1LSPS4M", "dateTime": 1519327067431}, {"current_trial": 83, "trialdata": {"rt": -1, "trial_type": "single-stim", "stimulus": "<p id=\"stim\">5</p>", "internal_node_id": "0.0-60.0-5.0", "time_elapsed": 488421, "key_press": -1, "trial_index": 83}, "uniqueid": "MTK2763:32RIADZISTBLG1NP115QI4G1LSPS4M", "dateTime": 1519327068434}, {"current_trial": 84, "trialdata": {"rt": -1, "trial_type": "single-stim", "stimulus": "<p id=\"stim\">4</p>", "internal_node_id": "0.0-60.0-6.0", "time_elapsed": 489425, "key_press": -1, "trial_index": 84}, "uniqueid": "MTK2763:32RIADZISTBLG1NP115QI4G1LSPS4M", "dateTime": 1519327069438}, {"current_trial": 85, "trialdata": {"rt": -1, "trial_type": "single-stim", "stimulus": "<p id=\"stim\">3</p>", "internal_node_id": "0.0-60.0-7.0", "time_elapsed": 490430, "key_press": -1, "trial_index": 85}, "uniqueid": "MTK2763:32RIADZISTBLG1NP115QI4G1LSPS4M", "dateTime": 1519327070443}, {"current_trial": 86, "trialdata": {"rt": -1, "trial_type": "single-stim", "stimulus": "<p id=\"stim\">2</p>", "internal_node_id": "0.0-60.0-8.0", "time_elapsed": 491433, "key_press": -1, "trial_index": 86}, "uniqueid": "MTK2763:32RIADZISTBLG1NP115QI4G1LSPS4M", "dateTime": 1519327071446}, {"current_trial": 87, "trialdata": {"rt": -1, "trial_type": "single-stim", "stimulus": "<p id=\"stim\">1</p>", "internal_node_id": "0.0-60.0-9.0", "time_elapsed": 492438, "key_press": -1, "trial_index": 87}, "uniqueid": "MTK2763:32RIADZISTBLG1NP115QI4G1LSPS4M", "dateTime": 1519327072451}, {"current_trial": 88, "trialdata": {"rt": -1, "trial_type": "single-stim", "stimulus": "<p id=\"stim\">+</p>", "internal_node_id": "0.0-61.0-0.0", "time_elapsed": 493941, "key_press": -1, "type": "FIXATION", "trial_index": 88}, "uniqueid": "MTK2763:32RIADZISTBLG1NP115QI4G1LSPS4M", "dateTime": 1519327073954}, {"current_trial": 89, "trialdata": {"rt": -1000, "trial_type": "single-audio", "word": "flesh", "stimulus": "/static/audio/wordpool/FLESH.wav", "conditions": [12, 800, "a", 12000], "internal_node_id": "0.0-62.0", "trial": 2, "time_elapsed": 495553, "serialpos": 0, "key_press": -1, "wordID": 578, "type": "PRES_AUD", "trial_index": 89}, "uniqueid": "MTK2763:32RIADZISTBLG1NP115QI4G1LSPS4M", "dateTime": 1519327075566}, {"current_trial": 90, "trialdata": {"rt": -1000, "trial_type": "single-audio", "word": "rod", "stimulus": "/static/audio/wordpool/ROD.wav", "conditions": [12, 800, "a", 12000], "internal_node_id": "0.0-63.0", "trial": 2, "time_elapsed": 497369, "serialpos": 1, "key_press": -1, "wordID": 1202, "type": "PRES_AUD", "trial_index": 90}, "uniqueid": "MTK2763:32RIADZISTBLG1NP115QI4G1LSPS4M", "dateTime": 1519327077382}, {"current_trial": 91, "trialdata": {"rt": -1000, "trial_type": "single-audio", "word": "carriage", "stimulus": "/static/audio/wordpool/CARRIAGE.wav", "conditions": [12, 800, "a", 12000], "internal_node_id": "0.0-64.0", "trial": 2, "time_elapsed": 499123, "serialpos": 2, "key_press": -1, "wordID": 247, "type": "PRES_AUD", "trial_index": 91}, "uniqueid": "MTK2763:32RIADZISTBLG1NP115QI4G1LSPS4M", "dateTime": 1519327079137}, {"current_trial": 92, "trialdata": {"rt": -1000, "trial_type": "single-audio", "word": "stove", "stimulus": "/static/audio/wordpool/STOVE.wav", "conditions": [12, 800, "a", 12000], "internal_node_id": "0.0-65.0", "trial": 2, "time_elapsed": 500888, "serialpos": 3, "key_press": -1, "wordID": 1387, "type": "PRES_AUD", "trial_index": 92}, "uniqueid": "MTK2763:32RIADZISTBLG1NP115QI4G1LSPS4M", "dateTime": 1519327080901}, {"current_trial": 93, "trialdata": {"rt": -1000, "trial_type": "single-audio", "word": "actress", "stimulus": "/static/audio/wordpool/ACTRESS.wav", "conditions": [12, 800, "a", 12000], "internal_node_id": "0.0-66.0", "trial": 2, "time_elapsed": 502652, "serialpos": 4, "key_press": -1, "wordID": 5, "type": "PRES_AUD", "trial_index": 93}, "uniqueid": "MTK2763:32RIADZISTBLG1NP115QI4G1LSPS4M", "dateTime": 1519327082665}, {"current_trial": 94, "trialdata": {"rt": -1000, "trial_type": "single-audio", "word": "report", "stimulus": "/static/audio/wordpool/REPORT.wav", "conditions": [12, 800, "a", 12000], "internal_node_id": "0.0-67.0", "trial": 2, "time_elapsed": 504626, "serialpos": 5, "key_press": -1, "wordID": 1183, "type": "PRES_AUD", "trial_index": 94}, "uniqueid": "MTK2763:32RIADZISTBLG1NP115QI4G1LSPS4M", "dateTime": 1519327084639}, {"current_trial": 95, "trialdata": {"rt": -1000, "trial_type": "single-audio", "word": "survey", "stimulus": "/static/audio/wordpool/SURVEY.wav", "conditions": [12, 800, "a", 12000], "internal_node_id": "0.0-68.0", "trial": 2, "time_elapsed": 506507, "serialpos": 6, "key_press": -1, "wordID": 1413, "type": "PRES_AUD", "trial_index": 95}, "uniqueid": "MTK2763:32RIADZISTBLG1NP115QI4G1LSPS4M", "dateTime": 1519327086520}, {"current_trial": 96, "trialdata": {"rt": -1000, "trial_type": "single-audio", "word": "bank", "stimulus": "/static/audio/wordpool/BANK.wav", "conditions": [12, 800, "a", 12000], "internal_node_id": "0.0-69.0", "trial": 2, "time_elapsed": 508375, "serialpos": 7, "key_press": -1, "wordID": 82, "type": "PRES_AUD", "trial_index": 96}, "uniqueid": "MTK2763:32RIADZISTBLG1NP115QI4G1LSPS4M", "dateTime": 1519327088389}, {"current_trial": 97, "trialdata": {"rt": -1000, "trial_type": "single-audio", "word": "neutron", "stimulus": "/static/audio/wordpool/NEUTRON.wav", "conditions": [12, 800, "a", 12000], "internal_node_id": "0.0-70.0", "trial": 2, "time_elapsed": 510030, "serialpos": 8, "key_press": -1, "wordID": 946, "type": "PRES_AUD", "trial_index": 97}, "uniqueid": "MTK2763:32RIADZISTBLG1NP115QI4G1LSPS4M", "dateTime": 1519327090044}, {"current_trial": 98, "trialdata": {"rt": -1000, "trial_type": "single-audio", "word": "chipmunk", "stimulus": "/static/audio/wordpool/CHIPMUNK.wav", "conditions": [12, 800, "a", 12000], "internal_node_id": "0.0-71.0", "trial": 2, "time_elapsed": 511703, "serialpos": 9, "key_press": -1, "wordID": 303, "type": "PRES_AUD", "trial_index": 98}, "uniqueid": "MTK2763:32RIADZISTBLG1NP115QI4G1LSPS4M", "dateTime": 1519327091716}, {"current_trial": 99, "trialdata": {"rt": -1000, "trial_type": "single-audio", "word": "actor", "stimulus": "/static/audio/wordpool/ACTOR.wav", "conditions": [12, 800, "a", 12000], "internal_node_id": "0.0-72.0", "trial": 2, "time_elapsed": 513625, "serialpos": 10, "key_press": -1, "wordID": 4, "type": "PRES_AUD", "trial_index": 99}, "uniqueid": "MTK2763:32RIADZISTBLG1NP115QI4G1LSPS4M", "dateTime": 1519327093638}, {"current_trial": 100, "trialdata": {"rt": -1000, "trial_type": "single-audio", "word": "pigment", "stimulus": "/static/audio/wordpool/PIGMENT.wav", "conditions": [12, 800, "a", 12000], "internal_node_id": "0.0-73.0", "trial": 2, "time_elapsed": 515284, "serialpos": 11, "key_press": -1, "wordID": 1065, "type": "PRES_AUD", "trial_index": 100}, "uniqueid": "MTK2763:32RIADZISTBLG1NP115QI4G1LSPS4M", "dateTime": 1519327095297}, {"current_trial": 101, "trialdata": {"rt": -1, "trial_type": "single-stim", "stimulus": "", "internal_node_id": "0.0-74.0-0.0", "time_elapsed": 516526, "key_press": -1, "type": "PRE_RECALL_DELAY", "trial_index": 101}, "uniqueid": "MTK2763:32RIADZISTBLG1NP115QI4G1LSPS4M", "dateTime": 1519327096539}, {"current_trial": 102, "trialdata": {"rt": -1000, "trial_type": "single-audio", "stimulus": "/static/audio/400Hz.wav", "internal_node_id": "0.0-75.0", "time_elapsed": 517027, "key_press": -1, "type": "PRE_RECALL_ALERT", "trial_index": 102}, "uniqueid": "MTK2763:32RIADZISTBLG1NP115QI4G1LSPS4M", "dateTime": 1519327097040}, {"current_trial": 103, "trialdata": {"rt": [11800, 14919, 16938, 22938, 27713, 37701, 55984], "recwords": ["pigment", "neutron", "actor", "chipmuk", "pebble", "stars", "neutron"], "key_times": [9896, 10056, 10442, 10851, 11073, 11272, 11464, 11800, 12360, 12786, 13000, 13249, 13425, 13690, 14370, 14919, 15411, 15626, 15874, 16218, 16602, 16938, 17850, 18074, 18370, 18530, 19026, 19234, 19529, 20425, 20585, 21274, 21522, 22322, 22641, 22938, 25945, 26176, 26632, 26778, 27224, 27388, 27713, 36597, 36725, 36829, 37030, 37341, 37701, 54113, 54552, 54704, 54944, 55200, 55368, 55624, 55984], "trial_type": "free-recall", "conditions": [12, 800, "a", 12000], "internal_node_id": "0.0-76.0-0.0", "key_presses": [80, 73, 71, 77, 69, 78, 84, 13, 78, 69, 85, 84, 82, 79, 78, 13, 65, 67, 84, 79, 82, 13, 67, 72, 73, 80, 77, 79, 78, 8, 8, 85, 78, 8, 75, 13, 80, 69, 66, 66, 76, 69, 13, 83, 84, 65, 82, 83, 13, 78, 69, 85, 84, 82, 79, 78, 13], "trial": 2, "time_elapsed": 577029, "type": "FREE_RECALL", "trial_index": 103}, "uniqueid": "MTK2763:32RIADZISTBLG1NP115QI4G1LSPS4M", "dateTime": 1519327157044}, {"current_trial": 104, "trialdata": {"rt": 2085, "trial_type": "text", "internal_node_id": "0.0-77.0", "time_elapsed": 581122, "key_press": 13, "type": "INSTRUCTIONS", "trial_index": 104}, "uniqueid": "MTK2763:32RIADZISTBLG1NP115QI4G1LSPS4M", "dateTime": 1519327161135}, {"current_trial": 105, "trialdata": {"rt": [4380, 7594, 9946, 13063, 17779, 20578], "trial_type": "math-distractor", "key_times": [3349, 3988, 4380, 6875, 7234, 7594, 9258, 9552, 9946, 12386, 12673, 13063, 16852, 17355, 17779, 19907, 20180, 20578], "responses": ["14", "16", "14", "14", "19", "10"], "num2": [8, 5, 2, 4, 7, 5, 9], "num3": [1, 3, 4, 3, 9, 3, 8], "conditions": [24, 800, "a", 24000], "internal_node_id": "0.0-78.0", "key_presses": [49, 52, 13, 49, 54, 13, 49, 52, 13, 49, 52, 13, 49, 57, 13, 49, 48, 13], "trial": 3, "time_elapsed": 607124, "type": "DISTRACTOR", "trial_index": 105, "num1": [5, 8, 8, 7, 3, 2, 8]}, "uniqueid": "MTK2763:32RIADZISTBLG1NP115QI4G1LSPS4M", "dateTime": 1519327187137}, {"current_trial": 106, "trialdata": {"rt": -1, "trial_type": "single-stim", "stimulus": "<p id=\"stim\">10</p>", "internal_node_id": "0.0-79.0-0.0", "time_elapsed": 610129, "key_press": -1, "trial_index": 106}, "uniqueid": "MTK2763:32RIADZISTBLG1NP115QI4G1LSPS4M", "dateTime": 1519327190142}, {"current_trial": 107, "trialdata": {"rt": -1, "trial_type": "single-stim", "stimulus": "<p id=\"stim\">9</p>", "internal_node_id": "0.0-79.0-1.0", "time_elapsed": 611133, "key_press": -1, "trial_index": 107}, "uniqueid": "MTK2763:32RIADZISTBLG1NP115QI4G1LSPS4M", "dateTime": 1519327191146}, {"current_trial": 108, "trialdata": {"rt": -1, "trial_type": "single-stim", "stimulus": "<p id=\"stim\">8</p>", "internal_node_id": "0.0-79.0-2.0", "time_elapsed": 612137, "key_press": -1, "trial_index": 108}, "uniqueid": "MTK2763:32RIADZISTBLG1NP115QI4G1LSPS4M", "dateTime": 1519327192151}, {"current_trial": 109, "trialdata": {"rt": -1, "trial_type": "single-stim", "stimulus": "<p id=\"stim\">7</p>", "internal_node_id": "0.0-79.0-3.0", "time_elapsed": 613142, "key_press": -1, "trial_index": 109}, "uniqueid": "MTK2763:32RIADZISTBLG1NP115QI4G1LSPS4M", "dateTime": 1519327193155}, {"current_trial": 110, "trialdata": {"rt": -1, "trial_type": "single-stim", "stimulus": "<p id=\"stim\">6</p>", "internal_node_id": "0.0-79.0-4.0", "time_elapsed": 614145, "key_press": -1, "trial_index": 110}, "uniqueid": "MTK2763:32RIADZISTBLG1NP115QI4G1LSPS4M", "dateTime": 1519327194158}, {"current_trial": 111, "trialdata": {"rt": -1, "trial_type": "single-stim", "stimulus": "<p id=\"stim\">5</p>", "internal_node_id": "0.0-79.0-5.0", "time_elapsed": 615149, "key_press": -1, "trial_index": 111}, "uniqueid": "MTK2763:32RIADZISTBLG1NP115QI4G1LSPS4M", "dateTime": 1519327195162}, {"current_trial": 112, "trialdata": {"rt": -1, "trial_type": "single-stim", "stimulus": "<p id=\"stim\">4</p>", "internal_node_id": "0.0-79.0-6.0", "time_elapsed": 616153, "key_press": -1, "trial_index": 112}, "uniqueid": "MTK2763:32RIADZISTBLG1NP115QI4G1LSPS4M", "dateTime": 1519327196166}, {"current_trial": 113, "trialdata": {"rt": -1, "trial_type": "single-stim", "stimulus": "<p id=\"stim\">3</p>", "internal_node_id": "0.0-79.0-7.0", "time_elapsed": 617157, "key_press": -1, "trial_index": 113}, "uniqueid": "MTK2763:32RIADZISTBLG1NP115QI4G1LSPS4M", "dateTime": 1519327197170}, {"current_trial": 114, "trialdata": {"rt": -1, "trial_type": "single-stim", "stimulus": "<p id=\"stim\">2</p>", "internal_node_id": "0.0-79.0-8.0", "time_elapsed": 618162, "key_press": -1, "trial_index": 114}, "uniqueid": "MTK2763:32RIADZISTBLG1NP115QI4G1LSPS4M", "dateTime": 1519327198175}, {"current_trial": 115, "trialdata": {"rt": -1, "trial_type": "single-stim", "stimulus": "<p id=\"stim\">1</p>", "internal_node_id": "0.0-79.0-9.0", "time_elapsed": 619166, "key_press": -1, "trial_index": 115}, "uniqueid": "MTK2763:32RIADZISTBLG1NP115QI4G1LSPS4M", "dateTime": 1519327199179}, {"current_trial": 116, "trialdata": {"rt": -1, "trial_type": "single-stim", "stimulus": "<p id=\"stim\">+</p>", "internal_node_id": "0.0-80.0-0.0", "time_elapsed": 620669, "key_press": -1, "type": "FIXATION", "trial_index": 116}, "uniqueid": "MTK2763:32RIADZISTBLG1NP115QI4G1LSPS4M", "dateTime": 1519327200682}, {"current_trial": 117, "trialdata": {"rt": -1000, "trial_type": "single-audio", "word": "sunrise", "stimulus": "/static/audio/wordpool/SUNRISE.wav", "conditions": [24, 800, "a", 24000], "internal_node_id": "0.0-81.0", "trial": 3, "time_elapsed": 622332, "serialpos": 0, "key_press": -1, "wordID": 1406, "type": "PRES_AUD", "trial_index": 117}, "uniqueid": "MTK2763:32RIADZISTBLG1NP115QI4G1LSPS4M", "dateTime": 1519327202345}, {"current_trial": 118, "trialdata": {"rt": -1000, "trial_type": "single-audio", "word": "fox", "stimulus": "/static/audio/wordpool/FOX.wav", "conditions": [24, 800, "a", 24000], "internal_node_id": "0.0-82.0", "trial": 3, "time_elapsed": 624177, "serialpos": 1, "key_press": -1, "wordID": 597, "type": "PRES_AUD", "trial_index": 118}, "uniqueid": "MTK2763:32RIADZISTBLG1NP115QI4G1LSPS4M", "dateTime": 1519327204190}, {"current_trial": 119, "trialdata": {"rt": -1000, "trial_type": "single-audio", "word": "parrot", "stimulus": "/static/audio/wordpool/PARROT.wav", "conditions": [24, 800, "a", 24000], "internal_node_id": "0.0-83.0", "trial": 3, "time_elapsed": 625854, "serialpos": 2, "key_press": -1, "wordID": 1014, "type": "PRES_AUD", "trial_index": 119}, "uniqueid": "MTK2763:32RIADZISTBLG1NP115QI4G1LSPS4M", "dateTime": 1519327205867}, {"current_trial": 120, "trialdata": {"rt": -1000, "trial_type": "single-audio", "word": "frame", "stimulus": "/static/audio/wordpool/FRAME.wav", "conditions": [24, 800, "a", 24000], "internal_node_id": "0.0-84.0", "trial": 3, "time_elapsed": 627783, "serialpos": 3, "key_press": -1, "wordID": 599, "type": "PRES_AUD", "trial_index": 120}, "uniqueid": "MTK2763:32RIADZISTBLG1NP115QI4G1LSPS4M", "dateTime": 1519327207796}, {"current_trial": 121, "trialdata": {"rt": -1000, "trial_type": "single-audio", "word": "server", "stimulus": "/static/audio/wordpool/SERVER.wav", "conditions": [24, 800, "a", 24000], "internal_node_id": "0.0-85.0", "trial": 3, "time_elapsed": 629588, "serialpos": 4, "key_press": -1, "wordID": 1271, "type": "PRES_AUD", "trial_index": 121}, "uniqueid": "MTK2763:32RIADZISTBLG1NP115QI4G1LSPS4M", "dateTime": 1519327209601}, {"current_trial": 122, "trialdata": {"rt": -1000, "trial_type": "single-audio", "word": "rooster", "stimulus": "/static/audio/wordpool/ROOSTER.wav", "conditions": [24, 800, "a", 24000], "internal_node_id": "0.0-86.0", "trial": 3, "time_elapsed": 631533, "serialpos": 5, "key_press": -1, "wordID": 1208, "type": "PRES_AUD", "trial_index": 122}, "uniqueid": "MTK2763:32RIADZISTBLG1NP115QI4G1LSPS4M", "dateTime": 1519327211546}, {"current_trial": 123, "trialdata": {"rt": -1000, "trial_type": "single-audio", "word": "leopard", "stimulus": "/static/audio/wordpool/LEOPARD.wav", "conditions": [24, 800, "a", 24000], "internal_node_id": "0.0-87.0", "trial": 3, "time_elapsed": 633401, "serialpos": 6, "key_press": -1, "wordID": 811, "type": "PRES_AUD", "trial_index": 123}, "uniqueid": "MTK2763:32RIADZISTBLG1NP115QI4G1LSPS4M", "dateTime": 1519327213414}, {"current_trial": 124, "trialdata": {"rt": -1000, "trial_type": "single-audio", "word": "hook", "stimulus": "/static/audio/wordpool/HOOK.wav", "conditions": [24, 800, "a", 24000], "internal_node_id": "0.0-88.0", "trial": 3, "time_elapsed": 635167, "serialpos": 7, "key_press": -1, "wordID": 714, "type": "PRES_AUD", "trial_index": 124}, "uniqueid": "MTK2763:32RIADZISTBLG1NP115QI4G1LSPS4M", "dateTime": 1519327215180}, {"current_trial": 125, "trialdata": {"rt": -1000, "trial_type": "single-audio", "word": "lumber", "stimulus": "/static/audio/wordpool/LUMBER.wav", "conditions": [24, 800, "a", 24000], "internal_node_id": "0.0-89.0", "trial": 3, "time_elapsed": 636851, "serialpos": 8, "key_press": -1, "wordID": 847, "type": "PRES_AUD", "trial_index": 125}, "uniqueid": "MTK2763:32RIADZISTBLG1NP115QI4G1LSPS4M", "dateTime": 1519327216864}, {"current_trial": 126, "trialdata": {"rt": -1000, "trial_type": "single-audio", "word": "baby", "stimulus": "/static/audio/wordpool/BABY.wav", "conditions": [24, 800, "a", 24000], "internal_node_id": "0.0-90.0", "trial": 3, "time_elapsed": 638730, "serialpos": 9, "key_press": -1, "wordID": 63, "type": "PRES_AUD", "trial_index": 126}, "uniqueid": "MTK2763:32RIADZISTBLG1NP115QI4G1LSPS4M", "dateTime": 1519327218743}, {"current_trial": 127, "trialdata": {"rt": -1000, "trial_type": "single-audio", "word": "shovel", "stimulus": "/static/audio/wordpool/SHOVEL.wav", "conditions": [24, 800, "a", 24000], "internal_node_id": "0.0-91.0", "trial": 3, "time_elapsed": 640489, "serialpos": 10, "key_press": -1, "wordID": 1294, "type": "PRES_AUD", "trial_index": 127}, "uniqueid": "MTK2763:32RIADZISTBLG1NP115QI4G1LSPS4M", "dateTime": 1519327220502}, {"current_trial": 128, "trialdata": {"rt": -1000, "trial_type": "single-audio", "word": "sunset", "stimulus": "/static/audio/wordpool/SUNSET.wav", "conditions": [24, 800, "a", 24000], "internal_node_id": "0.0-92.0", "trial": 3, "time_elapsed": 642452, "serialpos": 11, "key_press": -1, "wordID": 1407, "type": "PRES_AUD", "trial_index": 128}, "uniqueid": "MTK2763:32RIADZISTBLG1NP115QI4G1LSPS4M", "dateTime": 1519327222465}, {"current_trial": 129, "trialdata": {"rt": -1000, "trial_type": "single-audio", "word": "empire", "stimulus": "/static/audio/wordpool/EMPIRE.wav", "conditions": [24, 800, "a", 24000], "internal_node_id": "0.0-93.0", "trial": 3, "time_elapsed": 644349, "serialpos": 12, "key_press": -1, "wordID": 529, "type": "PRES_AUD", "trial_index": 129}, "uniqueid": "MTK2763:32RIADZISTBLG1NP115QI4G1LSPS4M", "dateTime": 1519327224362}, {"current_trial": 130, "trialdata": {"rt": -1000, "trial_type": "single-audio", "word": "cafe", "stimulus": "/static/audio/wordpool/CAFE.wav", "conditions": [24, 800, "a", 24000], "internal_node_id": "0.0-94.0", "trial": 3, "time_elapsed": 646039, "serialpos": 13, "key_press": -1, "wordID": 215, "type": "PRES_AUD", "trial_index": 130}, "uniqueid": "MTK2763:32RIADZISTBLG1NP115QI4G1LSPS4M", "dateTime": 1519327226052}, {"current_trial": 131, "trialdata": {"rt": -1000, "trial_type": "single-audio", "word": "nurse", "stimulus": "/static/audio/wordpool/NURSE.wav", "conditions": [24, 800, "a", 24000], "internal_node_id": "0.0-95.0", "trial": 3, "time_elapsed": 647931, "serialpos": 14, "key_press": -1, "wordID": 962, "type": "PRES_AUD", "trial_index": 131}, "uniqueid": "MTK2763:32RIADZISTBLG1NP115QI4G1LSPS4M", "dateTime": 1519327227944}, {"current_trial": 132, "trialdata": {"rt": -1000, "trial_type": "single-audio", "word": "toaster", "stimulus": "/static/audio/wordpool/TOASTER.wav", "conditions": [24, 800, "a", 24000], "internal_node_id": "0.0-96.0", "trial": 3, "time_elapsed": 649608, "serialpos": 15, "key_press": -1, "wordID": 1471, "type": "PRES_AUD", "trial_index": 132}, "uniqueid": "MTK2763:32RIADZISTBLG1NP115QI4G1LSPS4M", "dateTime": 1519327229621}, {"current_trial": 133, "trialdata": {"rt": -1000, "trial_type": "single-audio", "word": "cod", "stimulus": "/static/audio/wordpool/COD.wav", "conditions": [24, 800, "a", 24000], "internal_node_id": "0.0-97.0", "trial": 3, "time_elapsed": 651240, "serialpos": 16, "key_press": -1, "wordID": 339, "type": "PRES_AUD", "trial_index": 133}, "uniqueid": "MTK2763:32RIADZISTBLG1NP115QI4G1LSPS4M", "dateTime": 1519327231253}, {"current_trial": 134, "trialdata": {"rt": -1000, "trial_type": "single-audio", "word": "banker", "stimulus": "/static/audio/wordpool/BANKER.wav", "conditions": [24, 800, "a", 24000], "internal_node_id": "0.0-98.0", "trial": 3, "time_elapsed": 652847, "serialpos": 17, "key_press": -1, "wordID": 83, "type": "PRES_AUD", "trial_index": 134}, "uniqueid": "MTK2763:32RIADZISTBLG1NP115QI4G1LSPS4M", "dateTime": 1519327232860}, {"current_trial": 135, "trialdata": {"rt": -1000, "trial_type": "single-audio", "word": "swimmer", "stimulus": "/static/audio/wordpool/SWIMMER.wav", "conditions": [24, 800, "a", 24000], "internal_node_id": "0.0-99.0", "trial": 3, "time_elapsed": 654775, "serialpos": 18, "key_press": -1, "wordID": 1419, "type": "PRES_AUD", "trial_index": 135}, "uniqueid": "MTK2763:32RIADZISTBLG1NP115QI4G1LSPS4M", "dateTime": 1519327234788}, {"current_trial": 136, "trialdata": {"rt": -1000, "trial_type": "single-audio", "word": "guitar", "stimulus": "/static/audio/wordpool/GUITAR.wav", "conditions": [24, 800, "a", 24000], "internal_node_id": "0.0-100.0", "trial": 3, "time_elapsed": 656475, "serialpos": 19, "key_press": -1, "wordID": 669, "type": "PRES_AUD", "trial_index": 136}, "uniqueid": "MTK2763:32RIADZISTBLG1NP115QI4G1LSPS4M", "dateTime": 1519327236489}, {"current_trial": 137, "trialdata": {"rt": -1000, "trial_type": "single-audio", "word": "piano", "stimulus": "/static/audio/wordpool/PIANO.wav", "conditions": [24, 800, "a", 24000], "internal_node_id": "0.0-101.0", "trial": 3, "time_elapsed": 658443, "serialpos": 20, "key_press": -1, "wordID": 1056, "type": "PRES_AUD", "trial_index": 137}, "uniqueid": "MTK2763:32RIADZISTBLG1NP115QI4G1LSPS4M", "dateTime": 1519327238456}, {"current_trial": 138, "trialdata": {"rt": -1000, "trial_type": "single-audio", "word": "marker", "stimulus": "/static/audio/wordpool/MARKER.wav", "conditions": [24, 800, "a", 24000], "internal_node_id": "0.0-102.0", "trial": 3, "time_elapsed": 660255, "serialpos": 21, "key_press": -1, "wordID": 869, "type": "PRES_AUD", "trial_index": 138}, "uniqueid": "MTK2763:32RIADZISTBLG1NP115QI4G1LSPS4M", "dateTime": 1519327240268}, {"current_trial": 139, "trialdata": {"rt": -1000, "trial_type": "single-audio", "word": "diner", "stimulus": "/static/audio/wordpool/DINER.wav", "conditions": [24, 800, "a", 24000], "internal_node_id": "0.0-103.0", "trial": 3, "time_elapsed": 662072, "serialpos": 22, "key_press": -1, "wordID": 466, "type": "PRES_AUD", "trial_index": 139}, "uniqueid": "MTK2763:32RIADZISTBLG1NP115QI4G1LSPS4M", "dateTime": 1519327242086}, {"current_trial": 140, "trialdata": {"rt": -1000, "trial_type": "single-audio", "word": "princess", "stimulus": "/static/audio/wordpool/PRINCESS.wav", "conditions": [24, 800, "a", 24000], "internal_node_id": "0.0-104.0", "trial": 3, "time_elapsed": 663703, "serialpos": 23, "key_press": -1, "wordID": 1124, "type": "PRES_AUD", "trial_index": 140}, "uniqueid": "MTK2763:32RIADZISTBLG1NP115QI4G1LSPS4M", "dateTime": 1519327243716}, {"current_trial": 141, "trialdata": {"rt": -1, "trial_type": "single-stim", "stimulus": "", "internal_node_id": "0.0-105.0-0.0", "time_elapsed": 665031, "key_press": -1, "type": "PRE_RECALL_DELAY", "trial_index": 141}, "uniqueid": "MTK2763:32RIADZISTBLG1NP115QI4G1LSPS4M", "dateTime": 1519327245045}, {"current_trial": 142, "trialdata": {"rt": -1000, "trial_type": "single-audio", "stimulus": "/static/audio/400Hz.wav", "internal_node_id": "0.0-106.0", "time_elapsed": 665535, "key_press": -1, "type": "PRE_RECALL_ALERT", "trial_index": 142}, "uniqueid": "MTK2763:32RIADZISTBLG1NP115QI4G1LSPS4M", "dateTime": 1519327245548}, {"current_trial": 143, "trialdata": {"rt": [6061, 8229, 10893, 13006, 16365, 18701, 21884, 24237, 26285, 29156, 32557, 35725, 38180, 41292, 43613, 49345, 52320, 54649, 56560], "recwords": ["sunrise", "fox", "parrot", "frame", "rooster", "hook", "plumber", "shovel", "nurse", "toaster", "princess", "diner", "banker", "swimmer", "guitar", "empire", "baby", "cafe", "nurse"], "key_times": [2807, 2996, 3292, 3725, 3885, 4157, 4870, 5166, 5380, 6061, 7406, 7525, 7990, 8229, 9038, 9173, 9557, 9677, 10109, 10709, 10893, 11773, 11917, 12277, 12566, 12741, 13006, 14507, 14750, 14886, 15131, 15349, 15517, 15621, 16365, 17798, 18069, 18188, 18365, 18701, 19302, 19469, 19765, 20013, 20557, 20661, 20829, 21884, 22548, 22733, 22949, 23397, 23541, 23877, 24237, 24901, 25093, 25421, 25803, 26005, 26285, 27413, 27813, 27957, 28229, 28461, 28565, 28765, 29156, 29821, 30036, 30284, 30540, 30948, 31052, 31453, 31653, 32557, 33701, 33852, 34077, 34260, 34436, 35725, 36332, 36500, 36749, 37122, 37413, 37540, 38180, 38773, 39101, 39388, 39620, 40349, 40541, 40925, 41292, 42021, 42309, 42476, 42804, 42956, 43252, 43613, 47513, 47848, 48200, 48417, 48935, 49072, 49345, 50785, 50961, 51185, 51425, 52320, 53721, 53873, 54192, 54288, 54649, 55296, 55472, 55793, 56153, 56353, 56560], "trial_type": "free-recall", "conditions": [24, 800, "a", 24000], "internal_node_id": "0.0-107.0-0.0", "key_presses": [83, 85, 78, 82, 73, 68, 8, 83, 69, 32, 70, 79, 88, 13, 80, 65, 82, 82, 79, 84, 13, 70, 82, 65, 77, 69, 13, 82, 79, 79, 83, 84, 69, 82, 13, 72, 79, 79, 75, 13, 80, 76, 85, 77, 66, 69, 82, 13, 83, 72, 79, 86, 69, 76, 13, 78, 85, 82, 83, 69, 13, 84, 79, 65, 83, 84, 69, 82, 13, 80, 82, 73, 78, 67, 69, 83, 83, 13, 68, 73, 78, 69, 82, 13, 66, 65, 78, 75, 69, 82, 13, 83, 87, 73, 77, 77, 69, 82, 13, 71, 85, 73, 84, 65, 82, 13, 69, 77, 80, 73, 82, 69, 13, 66, 65, 66, 89, 13, 67, 65, 70, 69, 13, 78, 85, 82, 83, 69, 13], "trial": 3, "time_elapsed": 725540, "type": "FREE_RECALL", "trial_index": 143}, "uniqueid": "MTK2763:32RIADZISTBLG1NP115QI4G1LSPS4M", "dateTime": 1519327305555}, {"current_trial": 144, "trialdata": {"rt": 1936, "trial_type": "text", "internal_node_id": "0.0-108.0", "time_elapsed": 729483, "key_press": 13, "type": "INSTRUCTIONS", "trial_index": 144}, "uniqueid": "MTK2763:32RIADZISTBLG1NP115QI4G1LSPS4M", "dateTime": 1519327309496}, {"current_trial": 145, "trialdata": {"rt": [3375, 5838, 8343, 11510], "trial_type": "math-distractor", "key_times": [2799, 3375, 5183, 5527, 5838, 7311, 7926, 8343, 11239, 11510], "responses": ["9", "11", "18", "7"], "num2": [5, 1, 8, 1, 4], "num3": [1, 8, 5, 2, 5], "conditions": [12, 1600, "a", 12000], "internal_node_id": "0.0-109.0", "key_presses": [57, 13, 49, 49, 13, 49, 56, 13, 55, 13], "trial": 4, "time_elapsed": 743490, "type": "DISTRACTOR", "trial_index": 145, "num1": [3, 1, 5, 4, 7]}, "uniqueid": "MTK2763:32RIADZISTBLG1NP115QI4G1LSPS4M", "dateTime": 1519327323505}, {"current_trial": 146, "trialdata": {"rt": -1, "trial_type": "single-stim", "stimulus": "<p id=\"stim\">10</p>", "internal_node_id": "0.0-110.0-0.0", "time_elapsed": 746502, "key_press": -1, "trial_index": 146}, "uniqueid": "MTK2763:32RIADZISTBLG1NP115QI4G1LSPS4M", "dateTime": 1519327326515}, {"current_trial": 147, "trialdata": {"rt": -1, "trial_type": "single-stim", "stimulus": "<p id=\"stim\">9</p>", "internal_node_id": "0.0-110.0-1.0", "time_elapsed": 747506, "key_press": -1, "trial_index": 147}, "uniqueid": "MTK2763:32RIADZISTBLG1NP115QI4G1LSPS4M", "dateTime": 1519327327520}, {"current_trial": 148, "trialdata": {"rt": -1, "trial_type": "single-stim", "stimulus": "<p id=\"stim\">8</p>", "internal_node_id": "0.0-110.0-2.0", "time_elapsed": 748511, "key_press": -1, "trial_index": 148}, "uniqueid": "MTK2763:32RIADZISTBLG1NP115QI4G1LSPS4M", "dateTime": 1519327328524}, {"current_trial": 149, "trialdata": {"rt": -1, "trial_type": "single-stim", "stimulus": "<p id=\"stim\">7</p>", "internal_node_id": "0.0-110.0-3.0", "time_elapsed": 749515, "key_press": -1, "trial_index": 149}, "uniqueid": "MTK2763:32RIADZISTBLG1NP115QI4G1LSPS4M", "dateTime": 1519327329528}, {"current_trial": 150, "trialdata": {"rt": -1, "trial_type": "single-stim", "stimulus": "<p id=\"stim\">6</p>", "internal_node_id": "0.0-110.0-4.0", "time_elapsed": 750519, "key_press": -1, "trial_index": 150}, "uniqueid": "MTK2763:32RIADZISTBLG1NP115QI4G1LSPS4M", "dateTime": 1519327330532}, {"current_trial": 151, "trialdata": {"rt": -1, "trial_type": "single-stim", "stimulus": "<p id=\"stim\">5</p>", "internal_node_id": "0.0-110.0-5.0", "time_elapsed": 751523, "key_press": -1, "trial_index": 151}, "uniqueid": "MTK2763:32RIADZISTBLG1NP115QI4G1LSPS4M", "dateTime": 1519327331537}, {"current_trial": 152, "trialdata": {"rt": -1, "trial_type": "single-stim", "stimulus": "<p id=\"stim\">4</p>", "internal_node_id": "0.0-110.0-6.0", "time_elapsed": 752526, "key_press": -1, "trial_index": 152}, "uniqueid": "MTK2763:32RIADZISTBLG1NP115QI4G1LSPS4M", "dateTime": 1519327332540}, {"current_trial": 153, "trialdata": {"rt": -1, "trial_type": "single-stim", "stimulus": "<p id=\"stim\">3</p>", "internal_node_id": "0.0-110.0-7.0", "time_elapsed": 753531, "key_press": -1, "trial_index": 153}, "uniqueid": "MTK2763:32RIADZISTBLG1NP115QI4G1LSPS4M", "dateTime": 1519327333544}, {"current_trial": 154, "trialdata": {"rt": -1, "trial_type": "single-stim", "stimulus": "<p id=\"stim\">2</p>", "internal_node_id": "0.0-110.0-8.0", "time_elapsed": 754535, "key_press": -1, "trial_index": 154}, "uniqueid": "MTK2763:32RIADZISTBLG1NP115QI4G1LSPS4M", "dateTime": 1519327334548}, {"current_trial": 155, "trialdata": {"rt": -1, "trial_type": "single-stim", "stimulus": "<p id=\"stim\">1</p>", "internal_node_id": "0.0-110.0-9.0", "time_elapsed": 755539, "key_press": -1, "trial_index": 155}, "uniqueid": "MTK2763:32RIADZISTBLG1NP115QI4G1LSPS4M", "dateTime": 1519327335552}, {"current_trial": 156, "trialdata": {"rt": -1, "trial_type": "single-stim", "stimulus": "<p id=\"stim\">+</p>", "internal_node_id": "0.0-111.0-0.0", "time_elapsed": 757042, "key_press": -1, "type": "FIXATION", "trial_index": 156}, "uniqueid": "MTK2763:32RIADZISTBLG1NP115QI4G1LSPS4M", "dateTime": 1519327337055}, {"current_trial": 157, "trialdata": {"rt": -1000, "trial_type": "single-audio", "word": "valve", "stimulus": "/static/audio/wordpool/VALVE.wav", "conditions": [12, 1600, "a", 12000], "internal_node_id": "0.0-112.0", "trial": 4, "time_elapsed": 759573, "serialpos": 0, "key_press": -1, "wordID": 1545, "type": "PRES_AUD", "trial_index": 157}, "uniqueid": "MTK2763:32RIADZISTBLG1NP115QI4G1LSPS4M", "dateTime": 1519327339586}, {"current_trial": 158, "trialdata": {"rt": -1000, "trial_type": "single-audio", "word": "gazelle", "stimulus": "/static/audio/wordpool/GAZELLE.wav", "conditions": [12, 1600, "a", 12000], "internal_node_id": "0.0-113.0", "trial": 4, "time_elapsed": 762376, "serialpos": 1, "key_press": -1, "wordID": 627, "type": "PRES_AUD", "trial_index": 158}, "uniqueid": "MTK2763:32RIADZISTBLG1NP115QI4G1LSPS4M", "dateTime": 1519327342389}, {"current_trial": 159, "trialdata": {"rt": -1000, "trial_type": "single-audio", "word": "bureau", "stimulus": "/static/audio/wordpool/BUREAU.wav", "conditions": [12, 1600, "a", 12000], "internal_node_id": "0.0-114.0", "trial": 4, "time_elapsed": 765087, "serialpos": 2, "key_press": -1, "wordID": 198, "type": "PRES_AUD", "trial_index": 159}, "uniqueid": "MTK2763:32RIADZISTBLG1NP115QI4G1LSPS4M", "dateTime": 1519327345101}, {"current_trial": 160, "trialdata": {"rt": -1000, "trial_type": "single-audio", "word": "chest", "stimulus": "/static/audio/wordpool/CHEST.wav", "conditions": [12, 1600, "a", 12000], "internal_node_id": "0.0-115.0", "trial": 4, "time_elapsed": 767868, "serialpos": 3, "key_press": -1, "wordID": 294, "type": "PRES_AUD", "trial_index": 160}, "uniqueid": "MTK2763:32RIADZISTBLG1NP115QI4G1LSPS4M", "dateTime": 1519327347881}, {"current_trial": 161, "trialdata": {"rt": -1000, "trial_type": "single-audio", "word": "mars", "stimulus": "/static/audio/wordpool/MARS.wav", "conditions": [12, 1600, "a", 12000], "internal_node_id": "0.0-116.0", "trial": 4, "time_elapsed": 770375, "serialpos": 4, "key_press": -1, "wordID": 872, "type": "PRES_AUD", "trial_index": 161}, "uniqueid": "MTK2763:32RIADZISTBLG1NP115QI4G1LSPS4M", "dateTime": 1519327350389}, {"current_trial": 162, "trialdata": {"rt": -1000, "trial_type": "single-audio", "word": "sidewalk", "stimulus": "/static/audio/wordpool/SIDEWALK.wav", "conditions": [12, 1600, "a", 12000], "internal_node_id": "0.0-117.0", "trial": 4, "time_elapsed": 772912, "serialpos": 5, "key_press": -1, "wordID": 1302, "type": "PRES_AUD", "trial_index": 162}, "uniqueid": "MTK2763:32RIADZISTBLG1NP115QI4G1LSPS4M", "dateTime": 1519327352926}, {"current_trial": 163, "trialdata": {"rt": -1000, "trial_type": "single-audio", "word": "plaza", "stimulus": "/static/audio/wordpool/PLAZA.wav", "conditions": [12, 1600, "a", 12000], "internal_node_id": "0.0-118.0", "trial": 4, "time_elapsed": 775466, "serialpos": 6, "key_press": -1, "wordID": 1087, "type": "PRES_AUD", "trial_index": 163}, "uniqueid": "MTK2763:32RIADZISTBLG1NP115QI4G1LSPS4M", "dateTime": 1519327355480}, {"current_trial": 164, "trialdata": {"rt": -1000, "trial_type": "single-audio", "word": "piston", "stimulus": "/static/audio/wordpool/PISTON.wav", "conditions": [12, 1600, "a", 12000], "internal_node_id": "0.0-119.0", "trial": 4, "time_elapsed": 778212, "serialpos": 7, "key_press": -1, "wordID": 1075, "type": "PRES_AUD", "trial_index": 164}, "uniqueid": "MTK2763:32RIADZISTBLG1NP115QI4G1LSPS4M", "dateTime": 1519327358225}, {"current_trial": 165, "trialdata": {"rt": -1000, "trial_type": "single-audio", "word": "comet", "stimulus": "/static/audio/wordpool/COMET.wav", "conditions": [12, 1600, "a", 12000], "internal_node_id": "0.0-120.0", "trial": 4, "time_elapsed": 780800, "serialpos": 8, "key_press": -1, "wordID": 352, "type": "PRES_AUD", "trial_index": 165}, "uniqueid": "MTK2763:32RIADZISTBLG1NP115QI4G1LSPS4M", "dateTime": 1519327360813}, {"current_trial": 166, "trialdata": {"rt": -1000, "trial_type": "single-audio", "word": "basement", "stimulus": "/static/audio/wordpool/BASEMENT.wav", "conditions": [12, 1600, "a", 12000], "internal_node_id": "0.0-121.0", "trial": 4, "time_elapsed": 783292, "serialpos": 9, "key_press": -1, "wordID": 93, "type": "PRES_AUD", "trial_index": 166}, "uniqueid": "MTK2763:32RIADZISTBLG1NP115QI4G1LSPS4M", "dateTime": 1519327363305}, {"current_trial": 167, "trialdata": {"rt": -1000, "trial_type": "single-audio", "word": "playground", "stimulus": "/static/audio/wordpool/PLAYGROUND.wav", "conditions": [12, 1600, "a", 12000], "internal_node_id": "0.0-122.0", "trial": 4, "time_elapsed": 786066, "serialpos": 10, "key_press": -1, "wordID": 1086, "type": "PRES_AUD", "trial_index": 167}, "uniqueid": "MTK2763:32RIADZISTBLG1NP115QI4G1LSPS4M", "dateTime": 1519327366079}, {"current_trial": 168, "trialdata": {"rt": -1000, "trial_type": "single-audio", "word": "iceberg", "stimulus": "/static/audio/wordpool/ICEBERG.wav", "conditions": [12, 1600, "a", 12000], "internal_node_id": "0.0-123.0", "trial": 4, "time_elapsed": 788783, "serialpos": 11, "key_press": -1, "wordID": 730, "type": "PRES_AUD", "trial_index": 168}, "uniqueid": "MTK2763:32RIADZISTBLG1NP115QI4G1LSPS4M", "dateTime": 1519327368796}, {"current_trial": 169, "trialdata": {"rt": -1, "trial_type": "single-stim", "stimulus": "", "internal_node_id": "0.0-124.0-0.0", "time_elapsed": 789996, "key_press": -1, "type": "PRE_RECALL_DELAY", "trial_index": 169}, "uniqueid": "MTK2763:32RIADZISTBLG1NP115QI4G1LSPS4M", "dateTime": 1519327370009}, {"current_trial": 170, "trialdata": {"rt": -1000, "trial_type": "single-audio", "stimulus": "/static/audio/400Hz.wav", "internal_node_id": "0.0-125.0", "time_elapsed": 790499, "key_press": -1, "type": "PRE_RECALL_ALERT", "trial_index": 170}, "uniqueid": "MTK2763:32RIADZISTBLG1NP115QI4G1LSPS4M", "dateTime": 1519327370512}, {"current_trial": 171, "trialdata": {"rt": [3493, 5717, 7797, 11948, 18228, 24428, 27908, 32468, 34843, 38283, 47484, 55890], "recwords": ["valve", "commet", "mars", "iceberg", "playground", "gazelle", "chest", "sidewalk", "plaza", "piston", "bureau", "basement"], "key_times": [1974, 2101, 2629, 3005, 3188, 3493, 4125, 4285, 4629, 4764, 4869, 5133, 5717, 6949, 7084, 7340, 7452, 7797, 10021, 10341, 10420, 10804, 10908, 11084, 11602, 11948, 12963, 13140, 13765, 14253, 15093, 15484, 15637, 15876, 16124, 16332, 17292, 18084, 18228, 21213, 21349, 21829, 22092, 23653, 23788, 23932, 24428, 26717, 26860, 27052, 27356, 27556, 27908, 29868, 30069, 30428, 30580, 31021, 31244, 31428, 31604, 32468, 33482, 33676, 33892, 34324, 34556, 34843, 36362, 36620, 37068, 37284, 37692, 37956, 38283, 45221, 45572, 45901, 46292, 46572, 46924, 47484, 53841, 53939, 54178, 54314, 54865, 55018, 55283, 55482, 55890], "trial_type": "free-recall", "conditions": [12, 1600, "a", 12000], "internal_node_id": "0.0-126.0-0.0", "key_presses": [86, 65, 76, 86, 69, 13, 67, 79, 77, 77, 69, 84, 13, 77, 65, 82, 83, 13, 73, 67, 69, 66, 69, 82, 71, 13, 80, 76, 65, 89, 71, 82, 79, 85, 78, 71, 8, 68, 13, 71, 65, 90, 69, 76, 76, 69, 13, 67, 72, 69, 83, 84, 13, 83, 73, 68, 69, 87, 65, 76, 75, 13, 80, 76, 65, 90, 65, 13, 80, 73, 83, 84, 79, 78, 13, 66, 85, 82, 69, 65, 85, 13, 66, 65, 83, 69, 77, 69, 78, 84, 13], "trial": 4, "time_elapsed": 850503, "type": "FREE_RECALL", "trial_index": 171}, "uniqueid": "MTK2763:32RIADZISTBLG1NP115QI4G1LSPS4M", "dateTime": 1519327430519}, {"current_trial": 172, "trialdata": {"rt": 2038, "trial_type": "text", "internal_node_id": "0.0-127.0", "time_elapsed": 854548, "key_press": 13, "type": "INSTRUCTIONS", "trial_index": 172}, "uniqueid": "MTK2763:32RIADZISTBLG1NP115QI4G1LSPS4M", "dateTime": 1519327434561}, {"current_trial": 173, "trialdata": {"rt": [3851, 8303, 10183], "trial_type": "math-distractor", "key_times": [2690, 3555, 3851, 7903, 8303, 9551, 9959, 10183], "responses": ["15", "8", "11"], "num2": [9, 4, 1, 9], "num3": [5, 2, 1, 6], "conditions": [24, 1600, "a", 12000], "internal_node_id": "0.0-128.0", "key_presses": [49, 53, 13, 56, 13, 49, 49, 13], "trial": 5, "time_elapsed": 868553, "type": "DISTRACTOR", "trial_index": 173, "num1": [1, 2, 9, 9]}, "uniqueid": "MTK2763:32RIADZISTBLG1NP115QI4G1LSPS4M", "dateTime": 1519327448567}, {"current_trial": 174, "trialdata": {"rt": -1, "trial_type": "single-stim", "stimulus": "<p id=\"stim\">10</p>", "internal_node_id": "0.0-129.0-0.0", "time_elapsed": 871559, "key_press": -1, "trial_index": 174}, "uniqueid": "MTK2763:32RIADZISTBLG1NP115QI4G1LSPS4M", "dateTime": 1519327451572}, {"current_trial": 175, "trialdata": {"rt": -1, "trial_type": "single-stim", "stimulus": "<p id=\"stim\">9</p>", "internal_node_id": "0.0-129.0-1.0", "time_elapsed": 872563, "key_press": -1, "trial_index": 175}, "uniqueid": "MTK2763:32RIADZISTBLG1NP115QI4G1LSPS4M", "dateTime": 1519327452577}, {"current_trial": 176, "trialdata": {"rt": -1, "trial_type": "single-stim", "stimulus": "<p id=\"stim\">8</p>", "internal_node_id": "0.0-129.0-2.0", "time_elapsed": 873568, "key_press": -1, "trial_index": 176}, "uniqueid": "MTK2763:32RIADZISTBLG1NP115QI4G1LSPS4M", "dateTime": 1519327453581}, {"current_trial": 177, "trialdata": {"rt": -1, "trial_type": "single-stim", "stimulus": "<p id=\"stim\">7</p>", "internal_node_id": "0.0-129.0-3.0", "time_elapsed": 874571, "key_press": -1, "trial_index": 177}, "uniqueid": "MTK2763:32RIADZISTBLG1NP115QI4G1LSPS4M", "dateTime": 1519327454584}, {"current_trial": 178, "trialdata": {"rt": -1, "trial_type": "single-stim", "stimulus": "<p id=\"stim\">6</p>", "internal_node_id": "0.0-129.0-4.0", "time_elapsed": 875575, "key_press": -1, "trial_index": 178}, "uniqueid": "MTK2763:32RIADZISTBLG1NP115QI4G1LSPS4M", "dateTime": 1519327455588}, {"current_trial": 179, "trialdata": {"rt": -1, "trial_type": "single-stim", "stimulus": "<p id=\"stim\">5</p>", "internal_node_id": "0.0-129.0-5.0", "time_elapsed": 876579, "key_press": -1, "trial_index": 179}, "uniqueid": "MTK2763:32RIADZISTBLG1NP115QI4G1LSPS4M", "dateTime": 1519327456592}, {"current_trial": 180, "trialdata": {"rt": -1, "trial_type": "single-stim", "stimulus": "<p id=\"stim\">4</p>", "internal_node_id": "0.0-129.0-6.0", "time_elapsed": 877584, "key_press": -1, "trial_index": 180}, "uniqueid": "MTK2763:32RIADZISTBLG1NP115QI4G1LSPS4M", "dateTime": 1519327457597}, {"current_trial": 181, "trialdata": {"rt": -1, "trial_type": "single-stim", "stimulus": "<p id=\"stim\">3</p>", "internal_node_id": "0.0-129.0-7.0", "time_elapsed": 878587, "key_press": -1, "trial_index": 181}, "uniqueid": "MTK2763:32RIADZISTBLG1NP115QI4G1LSPS4M", "dateTime": 1519327458601}, {"current_trial": 182, "trialdata": {"rt": -1, "trial_type": "single-stim", "stimulus": "<p id=\"stim\">2</p>", "internal_node_id": "0.0-129.0-8.0", "time_elapsed": 879592, "key_press": -1, "trial_index": 182}, "uniqueid": "MTK2763:32RIADZISTBLG1NP115QI4G1LSPS4M", "dateTime": 1519327459605}, {"current_trial": 183, "trialdata": {"rt": -1, "trial_type": "single-stim", "stimulus": "<p id=\"stim\">1</p>", "internal_node_id": "0.0-129.0-9.0", "time_elapsed": 880596, "key_press": -1, "trial_index": 183}, "uniqueid": "MTK2763:32RIADZISTBLG1NP115QI4G1LSPS4M", "dateTime": 1519327460609}, {"current_trial": 184, "trialdata": {"rt": -1, "trial_type": "single-stim", "stimulus": "<p id=\"stim\">+</p>", "internal_node_id": "0.0-130.0-0.0", "time_elapsed": 882099, "key_press": -1, "type": "FIXATION", "trial_index": 184}, "uniqueid": "MTK2763:32RIADZISTBLG1NP115QI4G1LSPS4M", "dateTime": 1519327462112}, {"current_trial": 185, "trialdata": {"rt": -1000, "trial_type": "single-audio", "word": "dentist", "stimulus": "/static/audio/wordpool/DENTIST.wav", "conditions": [24, 1600, "a", 12000], "internal_node_id": "0.0-131.0", "trial": 5, "time_elapsed": 884849, "serialpos": 0, "key_press": -1, "wordID": 446, "type": "PRES_AUD", "trial_index": 185}, "uniqueid": "MTK2763:32RIADZISTBLG1NP115QI4G1LSPS4M", "dateTime": 1519327464863}, {"current_trial": 186, "trialdata": {"rt": -1000, "trial_type": "single-audio", "word": "ulcer", "stimulus": "/static/audio/wordpool/ULCER.wav", "conditions": [24, 1600, "a", 12000], "internal_node_id": "0.0-132.0", "trial": 5, "time_elapsed": 887380, "serialpos": 1, "key_press": -1, "wordID": 1532, "type": "PRES_AUD", "trial_index": 186}, "uniqueid": "MTK2763:32RIADZISTBLG1NP115QI4G1LSPS4M", "dateTime": 1519327467393}, {"current_trial": 187, "trialdata": {"rt": -1000, "trial_type": "single-audio", "word": "message", "stimulus": "/static/audio/wordpool/MESSAGE.wav", "conditions": [24, 1600, "a", 12000], "internal_node_id": "0.0-133.0", "trial": 5, "time_elapsed": 890149, "serialpos": 2, "key_press": -1, "wordID": 887, "type": "PRES_AUD", "trial_index": 187}, "uniqueid": "MTK2763:32RIADZISTBLG1NP115QI4G1LSPS4M", "dateTime": 1519327470163}, {"current_trial": 188, "trialdata": {"rt": -1000, "trial_type": "single-audio", "word": "wife", "stimulus": "/static/audio/wordpool/WIFE.wav", "conditions": [24, 1600, "a", 12000], "internal_node_id": "0.0-134.0", "trial": 5, "time_elapsed": 892638, "serialpos": 3, "key_press": -1, "wordID": 1608, "type": "PRES_AUD", "trial_index": 188}, "uniqueid": "MTK2763:32RIADZISTBLG1NP115QI4G1LSPS4M", "dateTime": 1519327472651}, {"current_trial": 189, "trialdata": {"rt": -1000, "trial_type": "single-audio", "word": "hostess", "stimulus": "/static/audio/wordpool/HOSTESS.wav", "conditions": [24, 1600, "a", 12000], "internal_node_id": "0.0-135.0", "trial": 5, "time_elapsed": 895310, "serialpos": 4, "key_press": -1, "wordID": 722, "type": "PRES_AUD", "trial_index": 189}, "uniqueid": "MTK2763:32RIADZISTBLG1NP115QI4G1LSPS4M", "dateTime": 1519327475323}, {"current_trial": 190, "trialdata": {"rt": -1000, "trial_type": "single-audio", "word": "saddle", "stimulus": "/static/audio/wordpool/SADDLE.wav", "conditions": [24, 1600, "a", 12000], "internal_node_id": "0.0-136.0", "trial": 5, "time_elapsed": 897742, "serialpos": 5, "key_press": -1, "wordID": 1220, "type": "PRES_AUD", "trial_index": 190}, "uniqueid": "MTK2763:32RIADZISTBLG1NP115QI4G1LSPS4M", "dateTime": 1519327477755}, {"current_trial": 191, "trialdata": {"rt": -1000, "trial_type": "single-audio", "word": "elbow", "stimulus": "/static/audio/wordpool/ELBOW.wav", "conditions": [24, 1600, "a", 12000], "internal_node_id": "0.0-137.0", "trial": 5, "time_elapsed": 900192, "serialpos": 6, "key_press": -1, "wordID": 519, "type": "PRES_AUD", "trial_index": 191}, "uniqueid": "MTK2763:32RIADZISTBLG1NP115QI4G1LSPS4M", "dateTime": 1519327480205}, {"current_trial": 192, "trialdata": {"rt": -1000, "trial_type": "single-audio", "word": "shoulder", "stimulus": "/static/audio/wordpool/SHOULDER.wav", "conditions": [24, 1600, "a", 12000], "internal_node_id": "0.0-138.0", "trial": 5, "time_elapsed": 902785, "serialpos": 7, "key_press": -1, "wordID": 1293, "type": "PRES_AUD", "trial_index": 192}, "uniqueid": "MTK2763:32RIADZISTBLG1NP115QI4G1LSPS4M", "dateTime": 1519327482798}, {"current_trial": 193, "trialdata": {"rt": -1000, "trial_type": "single-audio", "word": "virus", "stimulus": "/static/audio/wordpool/VIRUS.wav", "conditions": [24, 1600, "a", 12000], "internal_node_id": "0.0-139.0", "trial": 5, "time_elapsed": 905328, "serialpos": 8, "key_press": -1, "wordID": 1571, "type": "PRES_AUD", "trial_index": 193}, "uniqueid": "MTK2763:32RIADZISTBLG1NP115QI4G1LSPS4M", "dateTime": 1519327485342}, {"current_trial": 194, "trialdata": {"rt": -1000, "trial_type": "single-audio", "word": "pliers", "stimulus": "/static/audio/wordpool/PLIERS.wav", "conditions": [24, 1600, "a", 12000], "internal_node_id": "0.0-140.0", "trial": 5, "time_elapsed": 907877, "serialpos": 9, "key_press": -1, "wordID": 1088, "type": "PRES_AUD", "trial_index": 194}, "uniqueid": "MTK2763:32RIADZISTBLG1NP115QI4G1LSPS4M", "dateTime": 1519327487890}, {"current_trial": 195, "trialdata": {"rt": -1000, "trial_type": "single-audio", "word": "treat", "stimulus": "/static/audio/wordpool/TREAT.wav", "conditions": [24, 1600, "a", 12000], "internal_node_id": "0.0-141.0", "trial": 5, "time_elapsed": 910327, "serialpos": 10, "key_press": -1, "wordID": 1500, "type": "PRES_AUD", "trial_index": 195}, "uniqueid": "MTK2763:32RIADZISTBLG1NP115QI4G1LSPS4M", "dateTime": 1519327490340}, {"current_trial": 196, "trialdata": {"rt": -1000, "trial_type": "single-audio", "word": "bug", "stimulus": "/static/audio/wordpool/BUG.wav", "conditions": [24, 1600, "a", 12000], "internal_node_id": "0.0-142.0", "trial": 5, "time_elapsed": 913049, "serialpos": 11, "key_press": -1, "wordID": 186, "type": "PRES_AUD", "trial_index": 196}, "uniqueid": "MTK2763:32RIADZISTBLG1NP115QI4G1LSPS4M", "dateTime": 1519327493062}, {"current_trial": 197, "trialdata": {"rt": -1000, "trial_type": "single-audio", "word": "mailman", "stimulus": "/static/audio/wordpool/MAILMAN.wav", "conditions": [24, 1600, "a", 12000], "internal_node_id": "0.0-143.0", "trial": 5, "time_elapsed": 915691, "serialpos": 12, "key_press": -1, "wordID": 857, "type": "PRES_AUD", "trial_index": 197}, "uniqueid": "MTK2763:32RIADZISTBLG1NP115QI4G1LSPS4M", "dateTime": 1519327495704}, {"current_trial": 198, "trialdata": {"rt": -1000, "trial_type": "single-audio", "word": "dragon", "stimulus": "/static/audio/wordpool/DRAGON.wav", "conditions": [24, 1600, "a", 12000], "internal_node_id": "0.0-144.0", "trial": 5, "time_elapsed": 918460, "serialpos": 13, "key_press": -1, "wordID": 491, "type": "PRES_AUD", "trial_index": 198}, "uniqueid": "MTK2763:32RIADZISTBLG1NP115QI4G1LSPS4M", "dateTime": 1519327498473}, {"current_trial": 199, "trialdata": {"rt": -1000, "trial_type": "single-audio", "word": "cookbook", "stimulus": "/static/audio/wordpool/COOKBOOK.wav", "conditions": [24, 1600, "a", 12000], "internal_node_id": "0.0-145.0", "trial": 5, "time_elapsed": 920977, "serialpos": 14, "key_press": -1, "wordID": 372, "type": "PRES_AUD", "trial_index": 199}, "uniqueid": "MTK2763:32RIADZISTBLG1NP115QI4G1LSPS4M", "dateTime": 1519327500991}, {"current_trial": 200, "trialdata": {"rt": -1000, "trial_type": "single-audio", "word": "pizza", "stimulus": "/static/audio/wordpool/PIZZA.wav", "conditions": [24, 1600, "a", 12000], "internal_node_id": "0.0-146.0", "trial": 5, "time_elapsed": 923700, "serialpos": 15, "key_press": -1, "wordID": 1078, "type": "PRES_AUD", "trial_index": 200}, "uniqueid": "MTK2763:32RIADZISTBLG1NP115QI4G1LSPS4M", "dateTime": 1519327503713}, {"current_trial": 201, "trialdata": {"rt": -1000, "trial_type": "single-audio", "word": "parsley", "stimulus": "/static/audio/wordpool/PARSLEY.wav", "conditions": [24, 1600, "a", 12000], "internal_node_id": "0.0-147.0", "trial": 5, "time_elapsed": 926198, "serialpos": 16, "key_press": -1, "wordID": 1015, "type": "PRES_AUD", "trial_index": 201}, "uniqueid": "MTK2763:32RIADZISTBLG1NP115QI4G1LSPS4M", "dateTime": 1519327506211}, {"current_trial": 202, "trialdata": {"rt": -1000, "trial_type": "single-audio", "word": "hawk", "stimulus": "/static/audio/wordpool/HAWK.wav", "conditions": [24, 1600, "a", 12000], "internal_node_id": "0.0-148.0", "trial": 5, "time_elapsed": 928641, "serialpos": 17, "key_press": -1, "wordID": 691, "type": "PRES_AUD", "trial_index": 202}, "uniqueid": "MTK2763:32RIADZISTBLG1NP115QI4G1LSPS4M", "dateTime": 1519327508654}, {"current_trial": 203, "trialdata": {"rt": -1000, "trial_type": "single-audio", "word": "lodge", "stimulus": "/static/audio/wordpool/LODGE.wav", "conditions": [24, 1600, "a", 12000], "internal_node_id": "0.0-149.0", "trial": 5, "time_elapsed": 931160, "serialpos": 18, "key_press": -1, "wordID": 838, "type": "PRES_AUD", "trial_index": 203}, "uniqueid": "MTK2763:32RIADZISTBLG1NP115QI4G1LSPS4M", "dateTime": 1519327511173}, {"current_trial": 204, "trialdata": {"rt": -1000, "trial_type": "single-audio", "word": "wrist", "stimulus": "/static/audio/wordpool/WRIST.wav", "conditions": [24, 1600, "a", 12000], "internal_node_id": "0.0-150.0", "trial": 5, "time_elapsed": 933848, "serialpos": 19, "key_press": -1, "wordID": 1625, "type": "PRES_AUD", "trial_index": 204}, "uniqueid": "MTK2763:32RIADZISTBLG1NP115QI4G1LSPS4M", "dateTime": 1519327513861}, {"current_trial": 205, "trialdata": {"rt": -1000, "trial_type": "single-audio", "word": "wagon", "stimulus": "/static/audio/wordpool/WAGON.wav", "conditions": [24, 1600, "a", 12000], "internal_node_id": "0.0-151.0", "trial": 5, "time_elapsed": 936401, "serialpos": 20, "key_press": -1, "wordID": 1577, "type": "PRES_AUD", "trial_index": 205}, "uniqueid": "MTK2763:32RIADZISTBLG1NP115QI4G1LSPS4M", "dateTime": 1519327516414}, {"current_trial": 206, "trialdata": {"rt": -1000, "trial_type": "single-audio", "word": "truck", "stimulus": "/static/audio/wordpool/TRUCK.wav", "conditions": [24, 1600, "a", 12000], "internal_node_id": "0.0-152.0", "trial": 5, "time_elapsed": 939102, "serialpos": 21, "key_press": -1, "wordID": 1511, "type": "PRES_AUD", "trial_index": 206}, "uniqueid": "MTK2763:32RIADZISTBLG1NP115QI4G1LSPS4M", "dateTime": 1519327519115}, {"current_trial": 207, "trialdata": {"rt": -1000, "trial_type": "single-audio", "word": "creature", "stimulus": "/static/audio/wordpool/CREATURE.wav", "conditions": [24, 1600, "a", 12000], "internal_node_id": "0.0-153.0", "trial": 5, "time_elapsed": 941836, "serialpos": 22, "key_press": -1, "wordID": 402, "type": "PRES_AUD", "trial_index": 207}, "uniqueid": "MTK2763:32RIADZISTBLG1NP115QI4G1LSPS4M", "dateTime": 1519327521850}, {"current_trial": 208, "trialdata": {"rt": -1000, "trial_type": "single-audio", "word": "clothes", "stimulus": "/static/audio/wordpool/CLOTHES.wav", "conditions": [24, 1600, "a", 12000], "internal_node_id": "0.0-154.0", "trial": 5, "time_elapsed": 944274, "serialpos": 23, "key_press": -1, "wordID": 326, "type": "PRES_AUD", "trial_index": 208}, "uniqueid": "MTK2763:32RIADZISTBLG1NP115QI4G1LSPS4M", "dateTime": 1519327524287}, {"current_trial": 209, "trialdata": {"rt": -1, "trial_type": "single-stim", "stimulus": "", "internal_node_id": "0.0-155.0-0.0", "time_elapsed": 945633, "key_press": -1, "type": "PRE_RECALL_DELAY", "trial_index": 209}, "uniqueid": "MTK2763:32RIADZISTBLG1NP115QI4G1LSPS4M", "dateTime": 1519327525646}, {"current_trial": 210, "trialdata": {"rt": -1000, "trial_type": "single-audio", "stimulus": "/static/audio/400Hz.wav", "internal_node_id": "0.0-156.0", "time_elapsed": 946135, "key_press": -1, "type": "PRE_RECALL_ALERT", "trial_index": 210}, "uniqueid": "MTK2763:32RIADZISTBLG1NP115QI4G1LSPS4M", "dateTime": 1519327526148}, {"current_trial": 211, "trialdata": {"rt": [4011, 6435, 8467, 10627, 15372, 16915, 20995, 24243, 26050, 29243, 31795, 35802, 37667, 40971, 43731, 47034, 50498, 52786, 57706], "recwords": ["clothes", "creature", "wagon", "truck", "dentist", "bug", "lodge", "dragon", "hawk", "mailman", "dentist", "saddle", "wife", "hostess", "shoulder", "massage", "treat", "virus", "cookbook"], "key_times": [2027, 2219, 2452, 3067, 3219, 3380, 3643, 4011, 4779, 4979, 5091, 5395, 5459, 5739, 6051, 6179, 6435, 7050, 7252, 7611, 7924, 8171, 8467, 9065, 9211, 9468, 9994, 10203, 10627, 13019, 13140, 13539, 13923, 14027, 14395, 14521, 15372, 16091, 16283, 16595, 16915, 19763, 19899, 20235, 20586, 20667, 20995, 22546, 22706, 22875, 23243, 23643, 23883, 24243, 24859, 25019, 25386, 25723, 26050, 27324, 27475, 27698, 27907, 28442, 28619, 28923, 29243, 29931, 30058, 30387, 30650, 30979, 31267, 31435, 31795, 32883, 33088, 33521, 34026, 34435, 34603, 34819, 35635, 35802, 36643, 36890, 37228, 37394, 37667, 39099, 39362, 39650, 40067, 40194, 40491, 40682, 40971, 41675, 41914, 42226, 42442, 42706, 43091, 43235, 43363, 43731, 45506, 45674, 45946, 46114, 46290, 46643, 46762, 47034, 48907, 49146, 49290, 49626, 49738, 50498, 51386, 51586, 51875, 52170, 52530, 52786, 55514, 55810, 55978, 56146, 56755, 57098, 57242, 57419, 57706, 58291, 58530, 59786, 59938], "trial_type": "free-recall", "conditions": [24, 1600, "a", 12000], "internal_node_id": "0.0-157.0-0.0", "key_presses": [67, 76, 79, 84, 72, 69, 83, 13, 67, 82, 69, 65, 84, 85, 82, 69, 13, 87, 65, 71, 79, 78, 13, 84, 82, 85, 67, 75, 13, 68, 69, 78, 84, 73, 83, 84, 13, 66, 85, 71, 13, 76, 79, 68, 71, 69, 13, 68, 82, 65, 71, 79, 78, 13, 72, 65, 87, 75, 13, 77, 65, 73, 76, 77, 65, 78, 13, 68, 69, 78, 84, 73, 83, 84, 13, 83, 65, 66, 8, 68, 68, 76, 69, 13, 87, 73, 70, 69, 13, 72, 79, 83, 84, 69, 83, 83, 13, 83, 72, 79, 85, 76, 68, 69, 82, 13, 77, 65, 83, 83, 65, 71, 69, 13, 84, 82, 69, 65, 84, 13, 86, 73, 82, 85, 83, 13, 67, 79, 79, 75, 66, 79, 79, 75, 13, 80, 73, 90, 90], "trial": 5, "time_elapsed": 1006140, "type": "FREE_RECALL", "trial_index": 211}, "uniqueid": "MTK2763:32RIADZISTBLG1NP115QI4G1LSPS4M", "dateTime": 1519327586158}, {"current_trial": 212, "trialdata": {"rt": 1328, "trial_type": "text", "internal_node_id": "0.0-158.0", "time_elapsed": 1009475, "key_press": 13, "type": "INSTRUCTIONS", "trial_index": 212}, "uniqueid": "MTK2763:32RIADZISTBLG1NP115QI4G1LSPS4M", "dateTime": 1519327589489}, {"current_trial": 213, "trialdata": {"rt": [3394, 6818, 10242, 15898, 19266], "trial_type": "math-distractor", "key_times": [2544, 3033, 3394, 5322, 5978, 6498, 6818, 9658, 9906, 10242, 15235, 15562, 15898, 18762, 19266, 23455], "responses": ["16", "5", "19", "15", "9"], "num2": [7, 2, 9, 4, 3, 4], "num3": [3, 1, 8, 9, 4, 8], "conditions": [12, 800, "a", 24000], "internal_node_id": "0.0-159.0", "key_presses": [49, 54, 13, 52, 8, 53, 13, 49, 57, 13, 49, 53, 13, 57, 13, 49], "trial": 6, "time_elapsed": 1035483, "type": "DISTRACTOR", "trial_index": 213, "num1": [6, 2, 2, 2, 2, 2]}, "uniqueid": "MTK2763:32RIADZISTBLG1NP115QI4G1LSPS4M", "dateTime": 1519327615496}, {"current_trial": 214, "trialdata": {"rt": -1, "trial_type": "single-stim", "stimulus": "<p id=\"stim\">10</p>", "internal_node_id": "0.0-160.0-0.0", "time_elapsed": 1038490, "key_press": -1, "trial_index": 214}, "uniqueid": "MTK2763:32RIADZISTBLG1NP115QI4G1LSPS4M", "dateTime": 1519327618503}, {"current_trial": 215, "trialdata": {"rt": -1, "trial_type": "single-stim", "stimulus": "<p id=\"stim\">9</p>", "internal_node_id": "0.0-160.0-1.0", "time_elapsed": 1039494, "key_press": -1, "trial_index": 215}, "uniqueid": "MTK2763:32RIADZISTBLG1NP115QI4G1LSPS4M", "dateTime": 1519327619507}, {"current_trial": 216, "trialdata": {"rt": -1, "trial_type": "single-stim", "stimulus": "<p id=\"stim\">8</p>", "internal_node_id": "0.0-160.0-2.0", "time_elapsed": 1040498, "key_press": -1, "trial_index": 216}, "uniqueid": "MTK2763:32RIADZISTBLG1NP115QI4G1LSPS4M", "dateTime": 1519327620512}, {"current_trial": 217, "trialdata": {"rt": -1, "trial_type": "single-stim", "stimulus": "<p id=\"stim\">7</p>", "internal_node_id": "0.0-160.0-3.0", "time_elapsed": 1041501, "key_press": -1, "trial_index": 217}, "uniqueid": "MTK2763:32RIADZISTBLG1NP115QI4G1LSPS4M", "dateTime": 1519327621515}, {"current_trial": 218, "trialdata": {"rt": -1, "trial_type": "single-stim", "stimulus": "<p id=\"stim\">6</p>", "internal_node_id": "0.0-160.0-4.0", "time_elapsed": 1042506, "key_press": -1, "trial_index": 218}, "uniqueid": "MTK2763:32RIADZISTBLG1NP115QI4G1LSPS4M", "dateTime": 1519327622519}, {"current_trial": 219, "trialdata": {"rt": -1, "trial_type": "single-stim", "stimulus": "<p id=\"stim\">5</p>", "internal_node_id": "0.0-160.0-5.0", "time_elapsed": 1043510, "key_press": -1, "trial_index": 219}, "uniqueid": "MTK2763:32RIADZISTBLG1NP115QI4G1LSPS4M", "dateTime": 1519327623523}, {"current_trial": 220, "trialdata": {"rt": -1, "trial_type": "single-stim", "stimulus": "<p id=\"stim\">4</p>", "internal_node_id": "0.0-160.0-6.0", "time_elapsed": 1044515, "key_press": -1, "trial_index": 220}, "uniqueid": "MTK2763:32RIADZISTBLG1NP115QI4G1LSPS4M", "dateTime": 1519327624528}, {"current_trial": 221, "trialdata": {"rt": -1, "trial_type": "single-stim", "stimulus": "<p id=\"stim\">3</p>", "internal_node_id": "0.0-160.0-7.0", "time_elapsed": 1045518, "key_press": -1, "trial_index": 221}, "uniqueid": "MTK2763:32RIADZISTBLG1NP115QI4G1LSPS4M", "dateTime": 1519327625531}, {"current_trial": 222, "trialdata": {"rt": -1, "trial_type": "single-stim", "stimulus": "<p id=\"stim\">2</p>", "internal_node_id": "0.0-160.0-8.0", "time_elapsed": 1046522, "key_press": -1, "trial_index": 222}, "uniqueid": "MTK2763:32RIADZISTBLG1NP115QI4G1LSPS4M", "dateTime": 1519327626536}, {"current_trial": 223, "trialdata": {"rt": -1, "trial_type": "single-stim", "stimulus": "<p id=\"stim\">1</p>", "internal_node_id": "0.0-160.0-9.0", "time_elapsed": 1047526, "key_press": -1, "trial_index": 223}, "uniqueid": "MTK2763:32RIADZISTBLG1NP115QI4G1LSPS4M", "dateTime": 1519327627539}, {"current_trial": 224, "trialdata": {"rt": -1, "trial_type": "single-stim", "stimulus": "<p id=\"stim\">+</p>", "internal_node_id": "0.0-161.0-0.0", "time_elapsed": 1049029, "key_press": -1, "type": "FIXATION", "trial_index": 224}, "uniqueid": "MTK2763:32RIADZISTBLG1NP115QI4G1LSPS4M", "dateTime": 1519327629042}, {"current_trial": 225, "trialdata": {"rt": -1000, "trial_type": "single-audio", "word": "statue", "stimulus": "/static/audio/wordpool/STATUE.wav", "conditions": [12, 800, "a", 24000], "internal_node_id": "0.0-162.0", "trial": 6, "time_elapsed": 1050903, "serialpos": 0, "key_press": -1, "wordID": 1373, "type": "PRES_AUD", "trial_index": 225}, "uniqueid": "MTK2763:32RIADZISTBLG1NP115QI4G1LSPS4M", "dateTime": 1519327630916}, {"current_trial": 226, "trialdata": {"rt": -1000, "trial_type": "single-audio", "word": "soda", "stimulus": "/static/audio/wordpool/SODA.wav", "conditions": [12, 800, "a", 24000], "internal_node_id": "0.0-163.0", "trial": 6, "time_elapsed": 1052574, "serialpos": 1, "key_press": -1, "wordID": 1340, "type": "PRES_AUD", "trial_index": 226}, "uniqueid": "MTK2763:32RIADZISTBLG1NP115QI4G1LSPS4M", "dateTime": 1519327632587}, {"current_trial": 227, "trialdata": {"rt": -1000, "trial_type": "single-audio", "word": "outlaw", "stimulus": "/static/audio/wordpool/OUTLAW.wav", "conditions": [12, 800, "a", 24000], "internal_node_id": "0.0-164.0", "trial": 6, "time_elapsed": 1054455, "serialpos": 2, "key_press": -1, "wordID": 988, "type": "PRES_AUD", "trial_index": 227}, "uniqueid": "MTK2763:32RIADZISTBLG1NP115QI4G1LSPS4M", "dateTime": 1519327634468}, {"current_trial": 228, "trialdata": {"rt": -1000, "trial_type": "single-audio", "word": "lover", "stimulus": "/static/audio/wordpool/LOVER.wav", "conditions": [12, 800, "a", 24000], "internal_node_id": "0.0-165.0", "trial": 6, "time_elapsed": 1056135, "serialpos": 3, "key_press": -1, "wordID": 845, "type": "PRES_AUD", "trial_index": 228}, "uniqueid": "MTK2763:32RIADZISTBLG1NP115QI4G1LSPS4M", "dateTime": 1519327636148}, {"current_trial": 229, "trialdata": {"rt": -1000, "trial_type": "single-audio", "word": "popcorn", "stimulus": "/static/audio/wordpool/POPCORN.wav", "conditions": [12, 800, "a", 24000], "internal_node_id": "0.0-166.0", "trial": 6, "time_elapsed": 1058089, "serialpos": 4, "key_press": -1, "wordID": 1103, "type": "PRES_AUD", "trial_index": 229}, "uniqueid": "MTK2763:32RIADZISTBLG1NP115QI4G1LSPS4M", "dateTime": 1519327638102}, {"current_trial": 230, "trialdata": {"rt": -1000, "trial_type": "single-audio", "word": "costume", "stimulus": "/static/audio/wordpool/COSTUME.wav", "conditions": [12, 800, "a", 24000], "internal_node_id": "0.0-167.0", "trial": 6, "time_elapsed": 1059701, "serialpos": 5, "key_press": -1, "wordID": 382, "type": "PRES_AUD", "trial_index": 230}, "uniqueid": "MTK2763:32RIADZISTBLG1NP115QI4G1LSPS4M", "dateTime": 1519327639714}, {"current_trial": 231, "trialdata": {"rt": -1000, "trial_type": "single-audio", "word": "penguin", "stimulus": "/static/audio/wordpool/PENGUIN.wav", "conditions": [12, 800, "a", 24000], "internal_node_id": "0.0-168.0", "trial": 6, "time_elapsed": 1061363, "serialpos": 6, "key_press": -1, "wordID": 1043, "type": "PRES_AUD", "trial_index": 231}, "uniqueid": "MTK2763:32RIADZISTBLG1NP115QI4G1LSPS4M", "dateTime": 1519327641376}, {"current_trial": 232, "trialdata": {"rt": -1000, "trial_type": "single-audio", "word": "hood", "stimulus": "/static/audio/wordpool/HOOD.wav", "conditions": [12, 800, "a", 24000], "internal_node_id": "0.0-169.0", "trial": 6, "time_elapsed": 1063023, "serialpos": 7, "key_press": -1, "wordID": 713, "type": "PRES_AUD", "trial_index": 232}, "uniqueid": "MTK2763:32RIADZISTBLG1NP115QI4G1LSPS4M", "dateTime": 1519327643036}, {"current_trial": 233, "trialdata": {"rt": -1000, "trial_type": "single-audio", "word": "burglar", "stimulus": "/static/audio/wordpool/BURGLAR.wav", "conditions": [12, 800, "a", 24000], "internal_node_id": "0.0-170.0", "trial": 6, "time_elapsed": 1064672, "serialpos": 8, "key_press": -1, "wordID": 199, "type": "PRES_AUD", "trial_index": 233}, "uniqueid": "MTK2763:32RIADZISTBLG1NP115QI4G1LSPS4M", "dateTime": 1519327644685}, {"current_trial": 234, "trialdata": {"rt": -1000, "trial_type": "single-audio", "word": "robber", "stimulus": "/static/audio/wordpool/ROBBER.wav", "conditions": [12, 800, "a", 24000], "internal_node_id": "0.0-171.0", "trial": 6, "time_elapsed": 1066314, "serialpos": 9, "key_press": -1, "wordID": 1196, "type": "PRES_AUD", "trial_index": 234}, "uniqueid": "MTK2763:32RIADZISTBLG1NP115QI4G1LSPS4M", "dateTime": 1519327646328}, {"current_trial": 235, "trialdata": {"rt": -1000, "trial_type": "single-audio", "word": "drink", "stimulus": "/static/audio/wordpool/DRINK.wav", "conditions": [12, 800, "a", 24000], "internal_node_id": "0.0-172.0", "trial": 6, "time_elapsed": 1068004, "serialpos": 10, "key_press": -1, "wordID": 497, "type": "PRES_AUD", "trial_index": 235}, "uniqueid": "MTK2763:32RIADZISTBLG1NP115QI4G1LSPS4M", "dateTime": 1519327648017}, {"current_trial": 236, "trialdata": {"rt": -1000, "trial_type": "single-audio", "word": "canyon", "stimulus": "/static/audio/wordpool/CANYON.wav", "conditions": [12, 800, "a", 24000], "internal_node_id": "0.0-173.0", "trial": 6, "time_elapsed": 1069612, "serialpos": 11, "key_press": -1, "wordID": 234, "type": "PRES_AUD", "trial_index": 236}, "uniqueid": "MTK2763:32RIADZISTBLG1NP115QI4G1LSPS4M", "dateTime": 1519327649625}, {"current_trial": 237, "trialdata": {"rt": -1, "trial_type": "single-stim", "stimulus": "", "internal_node_id": "0.0-174.0-0.0", "time_elapsed": 1070831, "key_press": -1, "type": "PRE_RECALL_DELAY", "trial_index": 237}, "uniqueid": "MTK2763:32RIADZISTBLG1NP115QI4G1LSPS4M", "dateTime": 1519327650844}, {"current_trial": 238, "trialdata": {"rt": -1000, "trial_type": "single-audio", "stimulus": "/static/audio/400Hz.wav", "internal_node_id": "0.0-175.0", "time_elapsed": 1071334, "key_press": -1, "type": "PRE_RECALL_ALERT", "trial_index": 238}, "uniqueid": "MTK2763:32RIADZISTBLG1NP115QI4G1LSPS4M", "dateTime": 1519327651347}, {"current_trial": 239, "trialdata": {"rt": [3672, 6912, 9687, 11352, 13527, 16599, 19607, 25983, 30575, 35041, 41073, 49273], "recwords": ["canyon", "burglar", "robber", "drink", "lover", "outlaw", "hood", "costume", "popcorn", "soda", "penguin", "statue"], "key_times": [2057, 2150, 2424, 2727, 3112, 3375, 3672, 4390, 4872, 5095, 5487, 5855, 5984, 6559, 6912, 7807, 7951, 8263, 8951, 9144, 9296, 9687, 10184, 10463, 10624, 10815, 11047, 11352, 12288, 12439, 12808, 12927, 13088, 13527, 14703, 15167, 15416, 15885, 16095, 16351, 16599, 18528, 18855, 18975, 19199, 19607, 22095, 22263, 22520, 22767, 22903, 23415, 23583, 24696, 25407, 25591, 25727, 25983, 28367, 28527, 28684, 29287, 29639, 29983, 30207, 30575, 34201, 34344, 34721, 34881, 35041, 39473, 39625, 39857, 40169, 40441, 40592, 40785, 41073, 48000, 48193, 48352, 48473, 48856, 49025, 49273], "trial_type": "free-recall", "conditions": [12, 800, "a", 24000], "internal_node_id": "0.0-176.0-0.0", "key_presses": [67, 65, 78, 89, 79, 78, 13, 66, 85, 82, 71, 76, 65, 82, 13, 82, 79, 66, 66, 69, 82, 13, 68, 82, 73, 78, 75, 13, 76, 79, 86, 69, 82, 13, 79, 85, 84, 76, 65, 87, 13, 72, 79, 79, 68, 13, 67, 79, 83, 83, 84, 8, 8, 84, 85, 77, 69, 13, 80, 79, 80, 67, 79, 82, 78, 13, 83, 79, 68, 65, 13, 80, 69, 78, 71, 85, 73, 78, 13, 83, 84, 65, 84, 85, 69, 13], "trial": 6, "time_elapsed": 1131339, "type": "FREE_RECALL", "trial_index": 239}, "uniqueid": "MTK2763:32RIADZISTBLG1NP115QI4G1LSPS4M", "dateTime": 1519327711356}, {"current_trial": 240, "trialdata": {"rt": 2128, "trial_type": "text", "internal_node_id": "0.0-177.0", "time_elapsed": 1135474, "key_press": 13, "type": "INSTRUCTIONS", "trial_index": 240}, "uniqueid": "MTK2763:32RIADZISTBLG1NP115QI4G1LSPS4M", "dateTime": 1519327715487}, {"current_trial": 241, "trialdata": {"rt": [5415, 7750, 12468, 19128, 21712], "trial_type": "math-distractor", "key_times": [3623, 3831, 4172, 5055, 5415, 6741, 7173, 7750, 11501, 12284, 12468, 18256, 18632, 19128, 21216, 21440, 21712], "responses": ["12", "14", "16", "22", "23"], "num2": [3, 4, 7, 9, 9, 3], "num3": [4, 3, 2, 5, 8, 2], "conditions": [24, 1600, "a", 24000], "internal_node_id": "0.0-178.0", "key_presses": [49, 50, 220, 8, 13, 49, 52, 13, 49, 54, 13, 50, 50, 13, 50, 51, 13], "trial": 7, "time_elapsed": 1161483, "type": "DISTRACTOR", "trial_index": 241, "num1": [5, 7, 7, 8, 8, 4]}, "uniqueid": "MTK2763:32RIADZISTBLG1NP115QI4G1LSPS4M", "dateTime": 1519327741496}, {"current_trial": 242, "trialdata": {"rt": -1, "trial_type": "single-stim", "stimulus": "<p id=\"stim\">10</p>", "internal_node_id": "0.0-179.0-0.0", "time_elapsed": 1164489, "key_press": -1, "trial_index": 242}, "uniqueid": "MTK2763:32RIADZISTBLG1NP115QI4G1LSPS4M", "dateTime": 1519327744502}, {"current_trial": 243, "trialdata":