{"assignmentId": "37TD41K0AIGOB504UGB812SPB3KSC7", "workerId": "MTK2275", "questiondata": {"origin": "United States", "strat-rehearsal": "1", "marital": "Married/Domestic Partnership", "education": "Associate degree", "ethnicity": "Not Hispanic", "color_depth": 24, "distracted": "No", "wrote-notes": "No", "strat-other": "I tried different strategies throughout the trial but the most helpful was making a story.", "screen_width": 2560, "avail_screen_width": 2560, "avail_screen_height": 1337, "strat-image": "11", "language": "english", "gender": "Female", "age": "30", "gender_other": "", "race": ["Black"], "strat-categorize": "33", "pixel_depth": 24, "strat-spatial": "90", "strat-story": "97", "race_other": "", "screen_height": 1440}, "bonus": 0, "hitId": "3D1UCPY6GGGGS1RIXNP02OSAA5438C", "counterbalance": 2516, "useragent": "Mozilla/5.0 (Macintosh; Intel Mac OS X 10_13_2) AppleWebKit/537.36 (KHTML, like Gecko) Chrome/63.0.3239.132 Safari/537.36", "eventdata": [{"eventtype": "initialized", "interval": 0, "value": null, "timestamp": 1516910437392}, {"eventtype": "window_resize", "interval": 0, "value": [2560, 1286], "timestamp": 1516910437392}], "data": [{"current_trial": 0, "trialdata": {"rt": 9300, "trial_type": "text", "internal_node_id": "0.0-0.0", "time_elapsed": 9302, "key_press": 32, "type": "INSTRUCTIONS", "trial_index": 0}, "uniqueid": "MTK2275:37TD41K0AIGOB504UGB812SPB3KSC7", "dateTime": 1516910447591}, {"current_trial": 1, "trialdata": {"rt": 31475, "trial_type": "text", "internal_node_id": "0.0-1.0", "time_elapsed": 40779, "key_press": 32, "type": "INSTRUCTIONS", "trial_index": 1}, "uniqueid": "MTK2275:37TD41K0AIGOB504UGB812SPB3KSC7", "dateTime": 1516910479067}, {"current_trial": 2, "trialdata": {"rt": [6092], "trial_type": "audio-test", "responses": ["ocean"], "internal_node_id": "0.0-2.0", "time_elapsed": 46877, "type": "AUDIO_TEST", "trial_index": 2}, "uniqueid": "MTK2275:37TD41K0AIGOB504UGB812SPB3KSC7", "dateTime": 1516910485165}, {"current_trial": 3, "trialdata": {"rt": [20506], "trial_type": "audio-test", "responses": ["crystal"], "internal_node_id": "0.0-3.0", "time_elapsed": 67386, "type": "AUDIO_TEST", "trial_index": 3}, "uniqueid": "MTK2275:37TD41K0AIGOB504UGB812SPB3KSC7", "dateTime": 1516910505674}, {"current_trial": 4, "trialdata": {"rt": [5465], "trial_type": "audio-test", "responses": ["spice"], "internal_node_id": "0.0-4.0", "time_elapsed": 72853, "type": "AUDIO_TEST", "trial_index": 4}, "uniqueid": "MTK2275:37TD41K0AIGOB504UGB812SPB3KSC7", "dateTime": 1516910511141}, {"current_trial": 5, "trialdata": {"rt": 22883, "trial_type": "survey-text", "responses": "{\"Q0\":\"10pm\",\"Q1\":\"5am\",\"Q2\":\"5\"}", "internal_node_id": "0.0-5.0", "time_elapsed": 96490, "type": "SLEEP_SURVEY", "trial_index": 5}, "uniqueid": "MTK2275:37TD41K0AIGOB504UGB812SPB3KSC7", "dateTime": 1516910534778}, {"current_trial": 6, "trialdata": {"rt": 43791, "trial_type": "text", "internal_node_id": "0.0-6.0", "time_elapsed": 141287, "key_press": 32, "type": "INSTRUCTIONS", "trial_index": 6}, "uniqueid": "MTK2275:37TD41K0AIGOB504UGB812SPB3KSC7", "dateTime": 1516910579575}, {"current_trial": 7, "trialdata": {"rt": 10658, "trial_type": "text", "internal_node_id": "0.0-7.0", "time_elapsed": 152447, "key_press": 32, "type": "INSTRUCTIONS", "trial_index": 7}, "uniqueid": "MTK2275:37TD41K0AIGOB504UGB812SPB3KSC7", "dateTime": 1516910590735}, {"current_trial": 8, "trialdata": {"rt": 7349, "trial_type": "text", "internal_node_id": "0.0-8.0", "time_elapsed": 160299, "key_press": 32, "type": "INSTRUCTIONS", "trial_index": 8}, "uniqueid": "MTK2275:37TD41K0AIGOB504UGB812SPB3KSC7", "dateTime": 1516910598587}, {"current_trial": 9, "trialdata": {"rt": [3226, 5600, 8018, 10055, 11855, 14611, 16715], "trial_type": "math-distractor", "key_times": [2417, 2461, 3226, 5331, 5420, 5600, 7321, 7625, 8018, 9762, 10055, 11372, 11630, 11855, 13880, 14262, 14611, 16535, 16715], "responses": ["16", "13", "15", "6", "14", "16", "8"], "num2": [7, 2, 9, 1, 1, 9, 2, 2], "num3": [1, 8, 3, 4, 3, 1, 4, 9], "conditions": [18, 1200, "v", 18000], "internal_node_id": "0.0-9.0", "key_presses": [49, 54, 13, 49, 51, 13, 49, 53, 13, 54, 13, 49, 52, 13, 49, 54, 13, 56, 13], "trial": 0, "time_elapsed": 179305, "type": "DISTRACTOR", "trial_index": 9, "num1": [8, 3, 3, 1, 9, 6, 2, 7]}, "uniqueid": "MTK2275:37TD41K0AIGOB504UGB812SPB3KSC7", "dateTime": 1516910617593}, {"current_trial": 10, "trialdata": {"rt": -1, "trial_type": "single-stim", "stimulus": "<p id=\"stim\">10</p>", "internal_node_id": "0.0-10.0-0.0", "time_elapsed": 182312, "key_press": -1, "trial_index": 10}, "uniqueid": "MTK2275:37TD41K0AIGOB504UGB812SPB3KSC7", "dateTime": 1516910620600}, {"current_trial": 11, "trialdata": {"rt": -1, "trial_type": "single-stim", "stimulus": "<p id=\"stim\">9</p>", "internal_node_id": "0.0-10.0-1.0", "time_elapsed": 183315, "key_press": -1, "trial_index": 11}, "uniqueid": "MTK2275:37TD41K0AIGOB504UGB812SPB3KSC7", "dateTime": 1516910621603}, {"current_trial": 12, "trialdata": {"rt": -1, "trial_type": "single-stim", "stimulus": "<p id=\"stim\">8</p>", "internal_node_id": "0.0-10.0-2.0", "time_elapsed": 184319, "key_press": -1, "trial_index": 12}, "uniqueid": "MTK2275:37TD41K0AIGOB504UGB812SPB3KSC7", "dateTime": 1516910622608}, {"current_trial": 13, "trialdata": {"rt": -1, "trial_type": "single-stim", "stimulus": "<p id=\"stim\">7</p>", "internal_node_id": "0.0-10.0-3.0", "time_elapsed": 185324, "key_press": -1, "trial_index": 13}, "uniqueid": "MTK2275:37TD41K0AIGOB504UGB812SPB3KSC7", "dateTime": 1516910623612}, {"current_trial": 14, "trialdata": {"rt": -1, "trial_type": "single-stim", "stimulus": "<p id=\"stim\">6</p>", "internal_node_id": "0.0-10.0-4.0", "time_elapsed": 186328, "key_press": -1, "trial_index": 14}, "uniqueid": "MTK2275:37TD41K0AIGOB504UGB812SPB3KSC7", "dateTime": 1516910624616}, {"current_trial": 15, "trialdata": {"rt": -1, "trial_type": "single-stim", "stimulus": "<p id=\"stim\">5</p>", "internal_node_id": "0.0-10.0-5.0", "time_elapsed": 187332, "key_press": -1, "trial_index": 15}, "uniqueid": "MTK2275:37TD41K0AIGOB504UGB812SPB3KSC7", "dateTime": 1516910625620}, {"current_trial": 16, "trialdata": {"rt": -1, "trial_type": "single-stim", "stimulus": "<p id=\"stim\">4</p>", "internal_node_id": "0.0-10.0-6.0", "time_elapsed": 188336, "key_press": -1, "trial_index": 16}, "uniqueid": "MTK2275:37TD41K0AIGOB504UGB812SPB3KSC7", "dateTime": 1516910626624}, {"current_trial": 17, "trialdata": {"rt": -1, "trial_type": "single-stim", "stimulus": "<p id=\"stim\">3</p>", "internal_node_id": "0.0-10.0-7.0", "time_elapsed": 189340, "key_press": -1, "trial_index": 17}, "uniqueid": "MTK2275:37TD41K0AIGOB504UGB812SPB3KSC7", "dateTime": 1516910627628}, {"current_trial": 18, "trialdata": {"rt": -1, "trial_type": "single-stim", "stimulus": "<p id=\"stim\">2</p>", "internal_node_id": "0.0-10.0-8.0", "time_elapsed": 190343, "key_press": -1, "trial_index": 18}, "uniqueid": "MTK2275:37TD41K0AIGOB504UGB812SPB3KSC7", "dateTime": 1516910628631}, {"current_trial": 19, "trialdata": {"rt": -1, "trial_type": "single-stim", "stimulus": "<p id=\"stim\">1</p>", "internal_node_id": "0.0-10.0-9.0", "time_elapsed": 191348, "key_press": -1, "trial_index": 19}, "uniqueid": "MTK2275:37TD41K0AIGOB504UGB812SPB3KSC7", "dateTime": 1516910629636}, {"current_trial": 20, "trialdata": {"rt": -1, "trial_type": "single-stim", "stimulus": "<p id=\"stim\">+</p>", "internal_node_id": "0.0-11.0-0.0", "time_elapsed": 192851, "key_press": -1, "type": "FIXATION", "trial_index": 20}, "uniqueid": "MTK2275:37TD41K0AIGOB504UGB812SPB3KSC7", "dateTime": 1516910631139}, {"current_trial": 21, "trialdata": {"rt": -1, "trial_type": "single-stim", "word": "parrot", "stimulus": "<p id=\"stim\">PARROT</p>", "conditions": [18, 1200, "v", 18000], "internal_node_id": "0.0-12.0", "trial": 0, "time_elapsed": 194052, "serialpos": 0, "key_press": -1, "wordID": 1014, "type": "PRES_VIS", "trial_index": 21}, "uniqueid": "MTK2275:37TD41K0AIGOB504UGB812SPB3KSC7", "dateTime": 1516910632340}, {"current_trial": 22, "trialdata": {"rt": -1, "trial_type": "single-stim", "word": "scallop", "stimulus": "<p id=\"stim\">SCALLOP</p>", "conditions": [18, 1200, "v", 18000], "internal_node_id": "0.0-13.0", "trial": 0, "time_elapsed": 196089, "serialpos": 1, "key_press": -1, "wordID": 1241, "type": "PRES_VIS", "trial_index": 22}, "uniqueid": "MTK2275:37TD41K0AIGOB504UGB812SPB3KSC7", "dateTime": 1516910634378}, {"current_trial": 23, "trialdata": {"rt": -1, "trial_type": "single-stim", "word": "notebook", "stimulus": "<p id=\"stim\">NOTEBOOK</p>", "conditions": [18, 1200, "v", 18000], "internal_node_id": "0.0-14.0", "trial": 0, "time_elapsed": 198330, "serialpos": 2, "key_press": -1, "wordID": 958, "type": "PRES_VIS", "trial_index": 23}, "uniqueid": "MTK2275:37TD41K0AIGOB504UGB812SPB3KSC7", "dateTime": 1516910636618}, {"current_trial": 24, "trialdata": {"rt": -1, "trial_type": "single-stim", "word": "trench", "stimulus": "<p id=\"stim\">TRENCH</p>", "conditions": [18, 1200, "v", 18000], "internal_node_id": "0.0-15.0", "trial": 0, "time_elapsed": 200547, "serialpos": 3, "key_press": -1, "wordID": 1502, "type": "PRES_VIS", "trial_index": 24}, "uniqueid": "MTK2275:37TD41K0AIGOB504UGB812SPB3KSC7", "dateTime": 1516910638835}, {"current_trial": 25, "trialdata": {"rt": -1, "trial_type": "single-stim", "word": "bison", "stimulus": "<p id=\"stim\">BISON</p>", "conditions": [18, 1200, "v", 18000], "internal_node_id": "0.0-16.0", "trial": 0, "time_elapsed": 202700, "serialpos": 4, "key_press": -1, "wordID": 130, "type": "PRES_VIS", "trial_index": 25}, "uniqueid": "MTK2275:37TD41K0AIGOB504UGB812SPB3KSC7", "dateTime": 1516910640988}, {"current_trial": 26, "trialdata": {"rt": -1, "trial_type": "single-stim", "word": "hand", "stimulus": "<p id=\"stim\">HAND</p>", "conditions": [18, 1200, "v", 18000], "internal_node_id": "0.0-17.0", "trial": 0, "time_elapsed": 204916, "serialpos": 5, "key_press": -1, "wordID": 682, "type": "PRES_VIS", "trial_index": 26}, "uniqueid": "MTK2275:37TD41K0AIGOB504UGB812SPB3KSC7", "dateTime": 1516910643204}, {"current_trial": 27, "trialdata": {"rt": -1, "trial_type": "single-stim", "word": "cookbook", "stimulus": "<p id=\"stim\">COOKBOOK</p>", "conditions": [18, 1200, "v", 18000], "internal_node_id": "0.0-18.0", "trial": 0, "time_elapsed": 207099, "serialpos": 6, "key_press": -1, "wordID": 372, "type": "PRES_VIS", "trial_index": 27}, "uniqueid": "MTK2275:37TD41K0AIGOB504UGB812SPB3KSC7", "dateTime": 1516910645387}, {"current_trial": 28, "trialdata": {"rt": -1, "trial_type": "single-stim", "word": "drink", "stimulus": "<p id=\"stim\">DRINK</p>", "conditions": [18, 1200, "v", 18000], "internal_node_id": "0.0-19.0", "trial": 0, "time_elapsed": 209154, "serialpos": 7, "key_press": -1, "wordID": 497, "type": "PRES_VIS", "trial_index": 28}, "uniqueid": "MTK2275:37TD41K0AIGOB504UGB812SPB3KSC7", "dateTime": 1516910647442}, {"current_trial": 29, "trialdata": {"rt": -1, "trial_type": "single-stim", "word": "balloon", "stimulus": "<p id=\"stim\">BALLOON</p>", "conditions": [18, 1200, "v", 18000], "internal_node_id": "0.0-20.0", "trial": 0, "time_elapsed": 211173, "serialpos": 8, "key_press": -1, "wordID": 74, "type": "PRES_VIS", "trial_index": 29}, "uniqueid": "MTK2275:37TD41K0AIGOB504UGB812SPB3KSC7", "dateTime": 1516910649461}, {"current_trial": 30, "trialdata": {"rt": -1, "trial_type": "single-stim", "word": "skirt", "stimulus": "<p id=\"stim\">SKIRT</p>", "conditions": [18, 1200, "v", 18000], "internal_node_id": "0.0-21.0", "trial": 0, "time_elapsed": 213303, "serialpos": 9, "key_press": -1, "wordID": 1318, "type": "PRES_VIS", "trial_index": 30}, "uniqueid": "MTK2275:37TD41K0AIGOB504UGB812SPB3KSC7", "dateTime": 1516910651591}, {"current_trial": 31, "trialdata": {"rt": -1, "trial_type": "single-stim", "word": "europe", "stimulus": "<p id=\"stim\">EUROPE</p>", "conditions": [18, 1200, "v", 18000], "internal_node_id": "0.0-22.0", "trial": 0, "time_elapsed": 215462, "serialpos": 10, "key_press": -1, "wordID": 540, "type": "PRES_VIS", "trial_index": 31}, "uniqueid": "MTK2275:37TD41K0AIGOB504UGB812SPB3KSC7", "dateTime": 1516910653750}, {"current_trial": 32, "trialdata": {"rt": -1, "trial_type": "single-stim", "word": "penguin", "stimulus": "<p id=\"stim\">PENGUIN</p>", "conditions": [18, 1200, "v", 18000], "internal_node_id": "0.0-23.0", "trial": 0, "time_elapsed": 217540, "serialpos": 11, "key_press": -1, "wordID": 1043, "type": "PRES_VIS", "trial_index": 32}, "uniqueid": "MTK2275:37TD41K0AIGOB504UGB812SPB3KSC7", "dateTime": 1516910655828}, {"current_trial": 33, "trialdata": {"rt": -1, "trial_type": "single-stim", "word": "sandwich", "stimulus": "<p id=\"stim\">SANDWICH</p>", "conditions": [18, 1200, "v", 18000], "internal_node_id": "0.0-24.0", "trial": 0, "time_elapsed": 219682, "serialpos": 12, "key_press": -1, "wordID": 1231, "type": "PRES_VIS", "trial_index": 33}, "uniqueid": "MTK2275:37TD41K0AIGOB504UGB812SPB3KSC7", "dateTime": 1516910657970}, {"current_trial": 34, "trialdata": {"rt": -1, "trial_type": "single-stim", "word": "trout", "stimulus": "<p id=\"stim\">TROUT</p>", "conditions": [18, 1200, "v", 18000], "internal_node_id": "0.0-25.0", "trial": 0, "time_elapsed": 221690, "serialpos": 13, "key_press": -1, "wordID": 1510, "type": "PRES_VIS", "trial_index": 34}, "uniqueid": "MTK2275:37TD41K0AIGOB504UGB812SPB3KSC7", "dateTime": 1516910659978}, {"current_trial": 35, "trialdata": {"rt": -1, "trial_type": "single-stim", "word": "pasta", "stimulus": "<p id=\"stim\">PASTA</p>", "conditions": [18, 1200, "v", 18000], "internal_node_id": "0.0-26.0", "trial": 0, "time_elapsed": 224046, "serialpos": 14, "key_press": -1, "wordID": 1020, "type": "PRES_VIS", "trial_index": 35}, "uniqueid": "MTK2275:37TD41K0AIGOB504UGB812SPB3KSC7", "dateTime": 1516910662334}, {"current_trial": 36, "trialdata": {"rt": -1, "trial_type": "single-stim", "word": "message", "stimulus": "<p id=\"stim\">MESSAGE</p>", "conditions": [18, 1200, "v", 18000], "internal_node_id": "0.0-27.0", "trial": 0, "time_elapsed": 226234, "serialpos": 15, "key_press": -1, "wordID": 887, "type": "PRES_VIS", "trial_index": 36}, "uniqueid": "MTK2275:37TD41K0AIGOB504UGB812SPB3KSC7", "dateTime": 1516910664522}, {"current_trial": 37, "trialdata": {"rt": -1, "trial_type": "single-stim", "word": "permit", "stimulus": "<p id=\"stim\">PERMIT</p>", "conditions": [18, 1200, "v", 18000], "internal_node_id": "0.0-28.0", "trial": 0, "time_elapsed": 228538, "serialpos": 16, "key_press": -1, "wordID": 1050, "type": "PRES_VIS", "trial_index": 37}, "uniqueid": "MTK2275:37TD41K0AIGOB504UGB812SPB3KSC7", "dateTime": 1516910666826}, {"current_trial": 38, "trialdata": {"rt": -1, "trial_type": "single-stim", "word": "mop", "stimulus": "<p id=\"stim\">MOP</p>", "conditions": [18, 1200, "v", 18000], "internal_node_id": "0.0-29.0", "trial": 0, "time_elapsed": 230605, "serialpos": 17, "key_press": -1, "wordID": 915, "type": "PRES_VIS", "trial_index": 38}, "uniqueid": "MTK2275:37TD41K0AIGOB504UGB812SPB3KSC7", "dateTime": 1516910668893}, {"current_trial": 39, "trialdata": {"rt": -1, "trial_type": "single-stim", "stimulus": "", "internal_node_id": "0.0-30.0-0.0", "time_elapsed": 233019, "key_press": -1, "type": "PRE_RECALL_DELAY", "trial_index": 39}, "uniqueid": "MTK2275:37TD41K0AIGOB504UGB812SPB3KSC7", "dateTime": 1516910671307}, {"current_trial": 40, "trialdata": {"rt": -1000, "trial_type": "single-audio", "stimulus": "/static/audio/400Hz.wav", "internal_node_id": "0.0-31.0", "time_elapsed": 233520, "key_press": -1, "type": "PRE_RECALL_ALERT", "trial_index": 40}, "uniqueid": "MTK2275:37TD41K0AIGOB504UGB812SPB3KSC7", "dateTime": 1516910671808}, {"current_trial": 41, "trialdata": {"rt": [3211, 5888, 8757, 10411, 12773, 14978, 17768, 27612, 33451, 35048, 45646], "recwords": ["balloon", "scallop", "skirt", "mop", "cookbook", "parrot", "hand", "trout", "message", "pasta", "milk"], "key_times": [1097, 1478, 1681, 1861, 2075, 2243, 2446, 3211, 4291, 4493, 4729, 4864, 5022, 5258, 5360, 5888, 7317, 7846, 8082, 8296, 8408, 8757, 9769, 9916, 10028, 10411, 11087, 11277, 11434, 11570, 11907, 12143, 12346, 12447, 12773, 13572, 13741, 14000, 14168, 14371, 14596, 14978, 17139, 17318, 17408, 17588, 17768, 26555, 26656, 26881, 26960, 27353, 27612, 29525, 29648, 29862, 30035, 30211, 30605, 31066, 31234, 31392, 31696, 32461, 32720, 32978, 33203, 33338, 33451, 34126, 34340, 34452, 34587, 34778, 35048, 44971, 45106, 45365, 45455, 45646], "trial_type": "free-recall", "conditions": [18, 1200, "v", 18000], "internal_node_id": "0.0-32.0-0.0", "key_presses": [66, 65, 76, 76, 79, 79, 78, 13, 83, 67, 65, 76, 76, 79, 80, 13, 83, 75, 73, 82, 84, 13, 77, 79, 80, 13, 67, 79, 79, 75, 66, 79, 79, 75, 13, 80, 65, 82, 82, 79, 84, 13, 72, 65, 78, 68, 13, 84, 82, 79, 85, 84, 13, 77, 69, 83, 65, 71, 69, 8, 8, 8, 65, 8, 83, 65, 71, 69, 13, 80, 65, 83, 84, 65, 13, 77, 73, 76, 75, 13], "trial": 0, "time_elapsed": 293524, "type": "FREE_RECALL", "trial_index": 41}, "uniqueid": "MTK2275:37TD41K0AIGOB504UGB812SPB3KSC7", "dateTime": 1516910731814}, {"current_trial": 42, "trialdata": {"rt": 1225, "trial_type": "text", "internal_node_id": "0.0-33.0", "time_elapsed": 296751, "key_press": 32, "type": "INSTRUCTIONS", "trial_index": 42}, "uniqueid": "MTK2275:37TD41K0AIGOB504UGB812SPB3KSC7", "dateTime": 1516910735039}, {"current_trial": 43, "trialdata": {"rt": [3554, 5287, 8403, 11958, 15715, 17527], "trial_type": "math-distractor", "key_times": [2834, 3037, 3554, 4645, 4960, 5287, 7965, 8178, 8403, 11249, 11756, 11958, 14759, 14973, 15715, 17043, 17212, 17527], "responses": ["15", "15", "18", "13", "17", "11"], "num2": [6, 8, 6, 7, 3, 3, 8], "num3": [5, 2, 3, 2, 8, 3, 8], "conditions": [18, 1200, "v", 18000], "internal_node_id": "0.0-34.0", "key_presses": [49, 53, 13, 49, 53, 13, 49, 56, 13, 49, 51, 13, 49, 55, 13, 49, 49, 13], "trial": 1, "time_elapsed": 316757, "type": "DISTRACTOR", "trial_index": 43, "num1": [4, 5, 9, 4, 6, 5, 2]}, "uniqueid": "MTK2275:37TD41K0AIGOB504UGB812SPB3KSC7", "dateTime": 1516910755045}, {"current_trial": 44, "trialdata": {"rt": -1, "trial_type": "single-stim", "stimulus": "<p id=\"stim\">10</p>", "internal_node_id": "0.0-35.0-0.0", "time_elapsed": 319762, "key_press": -1, "trial_index": 44}, "uniqueid": "MTK2275:37TD41K0AIGOB504UGB812SPB3KSC7", "dateTime": 1516910758051}, {"current_trial": 45, "trialdata": {"rt": -1, "trial_type": "single-stim", "stimulus": "<p id=\"stim\">9</p>", "internal_node_id": "0.0-35.0-1.0", "time_elapsed": 320767, "key_press": -1, "trial_index": 45}, "uniqueid": "MTK2275:37TD41K0AIGOB504UGB812SPB3KSC7", "dateTime": 1516910759055}, {"current_trial": 46, "trialdata": {"rt": -1, "trial_type": "single-stim", "stimulus": "<p id=\"stim\">8</p>", "internal_node_id": "0.0-35.0-2.0", "time_elapsed": 321771, "key_press": -1, "trial_index": 46}, "uniqueid": "MTK2275:37TD41K0AIGOB504UGB812SPB3KSC7", "dateTime": 1516910760059}, {"current_trial": 47, "trialdata": {"rt": -1, "trial_type": "single-stim", "stimulus": "<p id=\"stim\">7</p>", "internal_node_id": "0.0-35.0-3.0", "time_elapsed": 322774, "key_press": -1, "trial_index": 47}, "uniqueid": "MTK2275:37TD41K0AIGOB504UGB812SPB3KSC7", "dateTime": 1516910761062}, {"current_trial": 48, "trialdata": {"rt": -1, "trial_type": "single-stim", "stimulus": "<p id=\"stim\">6</p>", "internal_node_id": "0.0-35.0-4.0", "time_elapsed": 323779, "key_press": -1, "trial_index": 48}, "uniqueid": "MTK2275:37TD41K0AIGOB504UGB812SPB3KSC7", "dateTime": 1516910762067}, {"current_trial": 49, "trialdata": {"rt": -1, "trial_type": "single-stim", "stimulus": "<p id=\"stim\">5</p>", "internal_node_id": "0.0-35.0-5.0", "time_elapsed": 324782, "key_press": -1, "trial_index": 49}, "uniqueid": "MTK2275:37TD41K0AIGOB504UGB812SPB3KSC7", "dateTime": 1516910763070}, {"current_trial": 50, "trialdata": {"rt": -1, "trial_type": "single-stim", "stimulus": "<p id=\"stim\">4</p>", "internal_node_id": "0.0-35.0-6.0", "time_elapsed": 325787, "key_press": -1, "trial_index": 50}, "uniqueid": "MTK2275:37TD41K0AIGOB504UGB812SPB3KSC7", "dateTime": 1516910764075}, {"current_trial": 51, "trialdata": {"rt": -1, "trial_type": "single-stim", "stimulus": "<p id=\"stim\">3</p>", "internal_node_id": "0.0-35.0-7.0", "time_elapsed": 326790, "key_press": -1, "trial_index": 51}, "uniqueid": "MTK2275:37TD41K0AIGOB504UGB812SPB3KSC7", "dateTime": 1516910765079}, {"current_trial": 52, "trialdata": {"rt": -1, "trial_type": "single-stim", "stimulus": "<p id=\"stim\">2</p>", "internal_node_id": "0.0-35.0-8.0", "time_elapsed": 327795, "key_press": -1, "trial_index": 52}, "uniqueid": "MTK2275:37TD41K0AIGOB504UGB812SPB3KSC7", "dateTime": 1516910766083}, {"current_trial": 53, "trialdata": {"rt": -1, "trial_type": "single-stim", "stimulus": "<p id=\"stim\">1</p>", "internal_node_id": "0.0-35.0-9.0", "time_elapsed": 328800, "key_press": -1, "trial_index": 53}, "uniqueid": "MTK2275:37TD41K0AIGOB504UGB812SPB3KSC7", "dateTime": 1516910767088}, {"current_trial": 54, "trialdata": {"rt": -1, "trial_type": "single-stim", "stimulus": "<p id=\"stim\">+</p>", "internal_node_id": "0.0-36.0-0.0", "time_elapsed": 330302, "key_press": -1, "type": "FIXATION", "trial_index": 54}, "uniqueid": "MTK2275:37TD41K0AIGOB504UGB812SPB3KSC7", "dateTime": 1516910768590}, {"current_trial": 55, "trialdata": {"rt": -1, "trial_type": "single-stim", "word": "eyelash", "stimulus": "<p id=\"stim\">EYELASH</p>", "conditions": [18, 1200, "v", 18000], "internal_node_id": "0.0-37.0", "trial": 1, "time_elapsed": 331504, "serialpos": 0, "key_press": -1, "wordID": 545, "type": "PRES_VIS", "trial_index": 55}, "uniqueid": "MTK2275:37TD41K0AIGOB504UGB812SPB3KSC7", "dateTime": 1516910769792}, {"current_trial": 56, "trialdata": {"rt": -1, "trial_type": "single-stim", "word": "virus", "stimulus": "<p id=\"stim\">VIRUS</p>", "conditions": [18, 1200, "v", 18000], "internal_node_id": "0.0-38.0", "trial": 1, "time_elapsed": 333785, "serialpos": 1, "key_press": -1, "wordID": 1571, "type": "PRES_VIS", "trial_index": 56}, "uniqueid": "MTK2275:37TD41K0AIGOB504UGB812SPB3KSC7", "dateTime": 1516910772073}, {"current_trial": 57, "trialdata": {"rt": -1, "trial_type": "single-stim", "word": "xerox", "stimulus": "<p id=\"stim\">XEROX</p>", "conditions": [18, 1200, "v", 18000], "internal_node_id": "0.0-39.0", "trial": 1, "time_elapsed": 335793, "serialpos": 2, "key_press": -1, "wordID": 1627, "type": "PRES_VIS", "trial_index": 57}, "uniqueid": "MTK2275:37TD41K0AIGOB504UGB812SPB3KSC7", "dateTime": 1516910774081}, {"current_trial": 58, "trialdata": {"rt": -1, "trial_type": "single-stim", "word": "apple", "stimulus": "<p id=\"stim\">APPLE</p>", "conditions": [18, 1200, "v", 18000], "internal_node_id": "0.0-40.0", "trial": 1, "time_elapsed": 338056, "serialpos": 3, "key_press": -1, "wordID": 32, "type": "PRES_VIS", "trial_index": 58}, "uniqueid": "MTK2275:37TD41K0AIGOB504UGB812SPB3KSC7", "dateTime": 1516910776344}, {"current_trial": 59, "trialdata": {"rt": -1, "trial_type": "single-stim", "word": "brick", "stimulus": "<p id=\"stim\">BRICK</p>", "conditions": [18, 1200, "v", 18000], "internal_node_id": "0.0-41.0", "trial": 1, "time_elapsed": 340273, "serialpos": 4, "key_press": -1, "wordID": 171, "type": "PRES_VIS", "trial_index": 59}, "uniqueid": "MTK2275:37TD41K0AIGOB504UGB812SPB3KSC7", "dateTime": 1516910778561}, {"current_trial": 60, "trialdata": {"rt": -1, "trial_type": "single-stim", "word": "relish", "stimulus": "<p id=\"stim\">RELISH</p>", "conditions": [18, 1200, "v", 18000], "internal_node_id": "0.0-42.0", "trial": 1, "time_elapsed": 342415, "serialpos": 5, "key_press": -1, "wordID": 1182, "type": "PRES_VIS", "trial_index": 60}, "uniqueid": "MTK2275:37TD41K0AIGOB504UGB812SPB3KSC7", "dateTime": 1516910780703}, {"current_trial": 61, "trialdata": {"rt": -1, "trial_type": "single-stim", "word": "piston", "stimulus": "<p id=\"stim\">PISTON</p>", "conditions": [18, 1200, "v", 18000], "internal_node_id": "0.0-43.0", "trial": 1, "time_elapsed": 344475, "serialpos": 6, "key_press": -1, "wordID": 1075, "type": "PRES_VIS", "trial_index": 61}, "uniqueid": "MTK2275:37TD41K0AIGOB504UGB812SPB3KSC7", "dateTime": 1516910782763}, {"current_trial": 62, "trialdata": {"rt": -1, "trial_type": "single-stim", "word": "clamp", "stimulus": "<p id=\"stim\">CLAMP</p>", "conditions": [18, 1200, "v", 18000], "internal_node_id": "0.0-44.0", "trial": 1, "time_elapsed": 346837, "serialpos": 7, "key_press": -1, "wordID": 315, "type": "PRES_VIS", "trial_index": 62}, "uniqueid": "MTK2275:37TD41K0AIGOB504UGB812SPB3KSC7", "dateTime": 1516910785125}, {"current_trial": 63, "trialdata": {"rt": -1, "trial_type": "single-stim", "word": "female", "stimulus": "<p id=\"stim\">FEMALE</p>", "conditions": [18, 1200, "v", 18000], "internal_node_id": "0.0-45.0", "trial": 1, "time_elapsed": 349147, "serialpos": 8, "key_press": -1, "wordID": 558, "type": "PRES_VIS", "trial_index": 63}, "uniqueid": "MTK2275:37TD41K0AIGOB504UGB812SPB3KSC7", "dateTime": 1516910787435}, {"current_trial": 64, "trialdata": {"rt": -1, "trial_type": "single-stim", "word": "bike", "stimulus": "<p id=\"stim\">BIKE</p>", "conditions": [18, 1200, "v", 18000], "internal_node_id": "0.0-46.0", "trial": 1, "time_elapsed": 351469, "serialpos": 9, "key_press": -1, "wordID": 124, "type": "PRES_VIS", "trial_index": 64}, "uniqueid": "MTK2275:37TD41K0AIGOB504UGB812SPB3KSC7", "dateTime": 1516910789757}, {"current_trial": 65, "trialdata": {"rt": -1, "trial_type": "single-stim", "word": "chauffeur", "stimulus": "<p id=\"stim\">CHAUFFEUR</p>", "conditions": [18, 1200, "v", 18000], "internal_node_id": "0.0-47.0", "trial": 1, "time_elapsed": 353691, "serialpos": 10, "key_press": -1, "wordID": 282, "type": "PRES_VIS", "trial_index": 65}, "uniqueid": "MTK2275:37TD41K0AIGOB504UGB812SPB3KSC7", "dateTime": 1516910791980}, {"current_trial": 66, "trialdata": {"rt": -1, "trial_type": "single-stim", "word": "pizza", "stimulus": "<p id=\"stim\">PIZZA</p>", "conditions": [18, 1200, "v", 18000], "internal_node_id": "0.0-48.0", "trial": 1, "time_elapsed": 355909, "serialpos": 11, "key_press": -1, "wordID": 1078, "type": "PRES_VIS", "trial_index": 66}, "uniqueid": "MTK2275:37TD41K0AIGOB504UGB812SPB3KSC7", "dateTime": 1516910794197}, {"current_trial": 67, "trialdata": {"rt": -1, "trial_type": "single-stim", "word": "softball", "stimulus": "<p id=\"stim\">SOFTBALL</p>", "conditions": [18, 1200, "v", 18000], "internal_node_id": "0.0-49.0", "trial": 1, "time_elapsed": 357945, "serialpos": 12, "key_press": -1, "wordID": 1342, "type": "PRES_VIS", "trial_index": 67}, "uniqueid": "MTK2275:37TD41K0AIGOB504UGB812SPB3KSC7", "dateTime": 1516910796233}, {"current_trial": 68, "trialdata": {"rt": -1, "trial_type": "single-stim", "word": "cocktail", "stimulus": "<p id=\"stim\">COCKTAIL</p>", "conditions": [18, 1200, "v", 18000], "internal_node_id": "0.0-50.0", "trial": 1, "time_elapsed": 360151, "serialpos": 13, "key_press": -1, "wordID": 337, "type": "PRES_VIS", "trial_index": 68}, "uniqueid": "MTK2275:37TD41K0AIGOB504UGB812SPB3KSC7", "dateTime": 1516910798440}, {"current_trial": 69, "trialdata": {"rt": -1, "trial_type": "single-stim", "word": "forest", "stimulus": "<p id=\"stim\">FOREST</p>", "conditions": [18, 1200, "v", 18000], "internal_node_id": "0.0-51.0", "trial": 1, "time_elapsed": 362171, "serialpos": 14, "key_press": -1, "wordID": 592, "type": "PRES_VIS", "trial_index": 69}, "uniqueid": "MTK2275:37TD41K0AIGOB504UGB812SPB3KSC7", "dateTime": 1516910800459}, {"current_trial": 70, "trialdata": {"rt": -1, "trial_type": "single-stim", "word": "cloud", "stimulus": "<p id=\"stim\">CLOUD</p>", "conditions": [18, 1200, "v", 18000], "internal_node_id": "0.0-52.0", "trial": 1, "time_elapsed": 364202, "serialpos": 15, "key_press": -1, "wordID": 327, "type": "PRES_VIS", "trial_index": 70}, "uniqueid": "MTK2275:37TD41K0AIGOB504UGB812SPB3KSC7", "dateTime": 1516910802490}, {"current_trial": 71, "trialdata": {"rt": -1, "trial_type": "single-stim", "word": "tweezers", "stimulus": "<p id=\"stim\">TWEEZERS</p>", "conditions": [18, 1200, "v", 18000], "internal_node_id": "0.0-53.0", "trial": 1, "time_elapsed": 366454, "serialpos": 16, "key_press": -1, "wordID": 1525, "type": "PRES_VIS", "trial_index": 71}, "uniqueid": "MTK2275:37TD41K0AIGOB504UGB812SPB3KSC7", "dateTime": 1516910804742}, {"current_trial": 72, "trialdata": {"rt": -1, "trial_type": "single-stim", "word": "grave", "stimulus": "<p id=\"stim\">GRAVE</p>", "conditions": [18, 1200, "v", 18000], "internal_node_id": "0.0-54.0", "trial": 1, "time_elapsed": 368659, "serialpos": 17, "key_press": -1, "wordID": 657, "type": "PRES_VIS", "trial_index": 72}, "uniqueid": "MTK2275:37TD41K0AIGOB504UGB812SPB3KSC7", "dateTime": 1516910806947}, {"current_trial": 73, "trialdata": {"rt": -1, "trial_type": "single-stim", "stimulus": "", "internal_node_id": "0.0-55.0-0.0", "time_elapsed": 371039, "key_press": -1, "type": "PRE_RECALL_DELAY", "trial_index": 73}, "uniqueid": "MTK2275:37TD41K0AIGOB504UGB812SPB3KSC7", "dateTime": 1516910809327}, {"current_trial": 74, "trialdata": {"rt": -1000, "trial_type": "single-audio", "stimulus": "/static/audio/400Hz.wav", "internal_node_id": "0.0-56.0", "time_elapsed": 371541, "key_press": -1, "type": "PRE_RECALL_ALERT", "trial_index": 74}, "uniqueid": "MTK2275:37TD41K0AIGOB504UGB812SPB3KSC7", "dateTime": 1516910809829}, {"current_trial": 75, "trialdata": {"rt": [1945, 4274, 6040, 13521, 21318, 36528, 39273, 41973, 48295, 52413], "recwords": ["grave", "tweezers", "apple", "forest", "chaffuer", "eyelash", "female", "clamp", "hit", "cloud"], "key_times": [843, 1000, 1236, 1360, 1518, 1945, 2440, 2733, 2845, 3059, 3408, 3768, 3824, 4083, 4274, 4758, 4915, 5084, 5185, 5399, 6040, 12498, 12565, 12711, 12801, 13060, 13285, 13521, 15265, 15344, 15535, 15861, 16221, 16401, 16582, 17358, 19259, 19461, 19585, 20170, 20328, 20553, 20744, 20834, 21318, 35403, 35504, 35617, 35830, 35999, 36100, 36302, 36528, 38182, 38249, 38452, 38676, 38755, 38913, 39273, 40746, 40848, 41028, 41118, 41343, 41973, 47947, 48014, 48093, 48295, 51682, 51760, 51974, 52098, 52266, 52413], "trial_type": "free-recall", "conditions": [18, 1200, "v", 18000], "internal_node_id": "0.0-57.0-0.0", "key_presses": [71, 82, 65, 86, 69, 13, 84, 87, 69, 69, 90, 69, 82, 83, 13, 65, 80, 80, 76, 69, 13, 70, 79, 82, 69, 83, 84, 13, 67, 72, 65, 85, 70, 70, 85, 8, 8, 8, 8, 70, 70, 85, 69, 82, 13, 69, 89, 69, 76, 65, 83, 72, 13, 70, 69, 77, 65, 76, 69, 13, 67, 76, 65, 77, 80, 13, 72, 73, 84, 13, 67, 76, 79, 85, 68, 13], "trial": 1, "time_elapsed": 431540, "type": "FREE_RECALL", "trial_index": 75}, "uniqueid": "MTK2275:37TD41K0AIGOB504UGB812SPB3KSC7", "dateTime": 1516910869829}, {"current_trial": 76, "trialdata": {"rt": 1113, "trial_type": "text", "internal_node_id": "0.0-58.0", "time_elapsed": 434655, "key_press": 32, "type": "INSTRUCTIONS", "trial_index": 76}, "uniqueid": "MTK2275:37TD41K0AIGOB504UGB812SPB3KSC7", "dateTime": 1516910872943}, {"current_trial": 77, "trialdata": {"rt": [1962, 3301, 6744, 8656, 10648, 12335, 14979, 17769, 20233, 22516], "trial_type": "math-distractor", "key_times": [1524, 1828, 1962, 3054, 3211, 3301, 6384, 6418, 6744, 7993, 8364, 8656, 10142, 10468, 10648, 11694, 12088, 12335, 14461, 14698, 14979, 17386, 17544, 17769, 19850, 20019, 20233, 22010, 22314, 22516], "responses": ["15", "11", "17", "13", "14", "15", "18", "11", "17", "20"], "num2": [5, 5, 9, 9, 3, 2, 6, 5, 6, 8, 2], "num3": [9, 6, 4, 2, 7, 5, 9, 4, 5, 8, 5], "conditions": [24, 1600, "v", 24000], "internal_node_id": "0.0-59.0", "key_presses": [49, 53, 13, 49, 49, 13, 49, 55, 13, 49, 51, 13, 49, 52, 13, 49, 53, 13, 49, 56, 13, 49, 49, 13, 49, 55, 13, 50, 48, 13], "trial": 2, "time_elapsed": 459665, "type": "DISTRACTOR", "trial_index": 77, "num1": [1, 5, 4, 1, 4, 8, 3, 2, 6, 4, 8]}, "uniqueid": "MTK2275:37TD41K0AIGOB504UGB812SPB3KSC7", "dateTime": 1516910897953}, {"current_trial": 78, "trialdata": {"rt": -1, "trial_type": "single-stim", "stimulus": "<p id=\"stim\">10</p>", "internal_node_id": "0.0-60.0-0.0", "time_elapsed": 462671, "key_press": -1, "trial_index": 78}, "uniqueid": "MTK2275:37TD41K0AIGOB504UGB812SPB3KSC7", "dateTime": 1516910900959}, {"current_trial": 79, "trialdata": {"rt": -1, "trial_type": "single-stim", "stimulus": "<p id=\"stim\">9</p>", "internal_node_id": "0.0-60.0-1.0", "time_elapsed": 463675, "key_press": -1, "trial_index": 79}, "uniqueid": "MTK2275:37TD41K0AIGOB504UGB812SPB3KSC7", "dateTime": 1516910901964}, {"current_trial": 80, "trialdata": {"rt": -1, "trial_type": "single-stim", "stimulus": "<p id=\"stim\">8</p>", "internal_node_id": "0.0-60.0-2.0", "time_elapsed": 464679, "key_press": -1, "trial_index": 80}, "uniqueid": "MTK2275:37TD41K0AIGOB504UGB812SPB3KSC7", "dateTime": 1516910902967}, {"current_trial": 81, "trialdata": {"rt": -1, "trial_type": "single-stim", "stimulus": "<p id=\"stim\">7</p>", "internal_node_id": "0.0-60.0-3.0", "time_elapsed": 465683, "key_press": -1, "trial_index": 81}, "uniqueid": "MTK2275:37TD41K0AIGOB504UGB812SPB3KSC7", "dateTime": 1516910903971}, {"current_trial": 82, "trialdata": {"rt": -1, "trial_type": "single-stim", "stimulus": "<p id=\"stim\">6</p>", "internal_node_id": "0.0-60.0-4.0", "time_elapsed": 466687, "key_press": -1, "trial_index": 82}, "uniqueid": "MTK2275:37TD41K0AIGOB504UGB812SPB3KSC7", "dateTime": 1516910904975}, {"current_trial": 83, "trialdata": {"rt": -1, "trial_type": "single-stim", "stimulus": "<p id=\"stim\">5</p>", "internal_node_id": "0.0-60.0-5.0", "time_elapsed": 467692, "key_press": -1, "trial_index": 83}, "uniqueid": "MTK2275:37TD41K0AIGOB504UGB812SPB3KSC7", "dateTime": 1516910905980}, {"current_trial": 84, "trialdata": {"rt": -1, "trial_type": "single-stim", "stimulus": "<p id=\"stim\">4</p>", "internal_node_id": "0.0-60.0-6.0", "time_elapsed": 468695, "key_press": -1, "trial_index": 84}, "uniqueid": "MTK2275:37TD41K0AIGOB504UGB812SPB3KSC7", "dateTime": 1516910906983}, {"current_trial": 85, "trialdata": {"rt": -1, "trial_type": "single-stim", "stimulus": "<p id=\"stim\">3</p>", "internal_node_id": "0.0-60.0-7.0", "time_elapsed": 469700, "key_press": -1, "trial_index": 85}, "uniqueid": "MTK2275:37TD41K0AIGOB504UGB812SPB3KSC7", "dateTime": 1516910907988}, {"current_trial": 86, "trialdata": {"rt": -1, "trial_type": "single-stim", "stimulus": "<p id=\"stim\">2</p>", "internal_node_id": "0.0-60.0-8.0", "time_elapsed": 470703, "key_press": -1, "trial_index": 86}, "uniqueid": "MTK2275:37TD41K0AIGOB504UGB812SPB3KSC7", "dateTime": 1516910908991}, {"current_trial": 87, "trialdata": {"rt": -1, "trial_type": "single-stim", "stimulus": "<p id=\"stim\">1</p>", "internal_node_id": "0.0-60.0-9.0", "time_elapsed": 471708, "key_press": -1, "trial_index": 87}, "uniqueid": "MTK2275:37TD41K0AIGOB504UGB812SPB3KSC7", "dateTime": 1516910909996}, {"current_trial": 88, "trialdata": {"rt": -1, "trial_type": "single-stim", "stimulus": "<p id=\"stim\">+</p>", "internal_node_id": "0.0-61.0-0.0", "time_elapsed": 473211, "key_press": -1, "type": "FIXATION", "trial_index": 88}, "uniqueid": "MTK2275:37TD41K0AIGOB504UGB812SPB3KSC7", "dateTime": 1516910911499}, {"current_trial": 89, "trialdata": {"rt": -1, "trial_type": "single-stim", "word": "award", "stimulus": "<p id=\"stim\">AWARD</p>", "conditions": [24, 1600, "v", 24000], "internal_node_id": "0.0-62.0", "trial": 2, "time_elapsed": 474813, "serialpos": 0, "key_press": -1, "wordID": 62, "type": "PRES_VIS", "trial_index": 89}, "uniqueid": "MTK2275:37TD41K0AIGOB504UGB812SPB3KSC7", "dateTime": 1516910913101}, {"current_trial": 90, "trialdata": {"rt": -1, "trial_type": "single-stim", "word": "braces", "stimulus": "<p id=\"stim\">BRACES</p>", "conditions": [24, 1600, "v", 24000], "internal_node_id": "0.0-63.0", "trial": 2, "time_elapsed": 477454, "serialpos": 1, "key_press": -1, "wordID": 163, "type": "PRES_VIS", "trial_index": 90}, "uniqueid": "MTK2275:37TD41K0AIGOB504UGB812SPB3KSC7", "dateTime": 1516910915742}, {"current_trial": 91, "trialdata": {"rt": -1, "trial_type": "single-stim", "word": "flashlight", "stimulus": "<p id=\"stim\">FLASHLIGHT</p>", "conditions": [24, 1600, "v", 24000], "internal_node_id": "0.0-64.0", "trial": 2, "time_elapsed": 480117, "serialpos": 2, "key_press": -1, "wordID": 574, "type": "PRES_VIS", "trial_index": 91}, "uniqueid": "MTK2275:37TD41K0AIGOB504UGB812SPB3KSC7", "dateTime": 1516910918406}, {"current_trial": 92, "trialdata": {"rt": -1, "trial_type": "single-stim", "word": "hostess", "stimulus": "<p id=\"stim\">HOSTESS</p>", "conditions": [24, 1600, "v", 24000], "internal_node_id": "0.0-65.0", "trial": 2, "time_elapsed": 482619, "serialpos": 3, "key_press": -1, "wordID": 722, "type": "PRES_VIS", "trial_index": 92}, "uniqueid": "MTK2275:37TD41K0AIGOB504UGB812SPB3KSC7", "dateTime": 1516910920907}, {"current_trial": 93, "trialdata": {"rt": -1, "trial_type": "single-stim", "word": "briefcase", "stimulus": "<p id=\"stim\">BRIEFCASE</p>", "conditions": [24, 1600, "v", 24000], "internal_node_id": "0.0-66.0", "trial": 2, "time_elapsed": 485393, "serialpos": 4, "key_press": -1, "wordID": 174, "type": "PRES_VIS", "trial_index": 93}, "uniqueid": "MTK2275:37TD41K0AIGOB504UGB812SPB3KSC7", "dateTime": 1516910923681}, {"current_trial": 94, "trialdata": {"rt": -1, "trial_type": "single-stim", "word": "suitcase", "stimulus": "<p id=\"stim\">SUITCASE</p>", "conditions": [24, 1600, "v", 24000], "internal_node_id": "0.0-67.0", "trial": 2, "time_elapsed": 487970, "serialpos": 5, "key_press": -1, "wordID": 1402, "type": "PRES_VIS", "trial_index": 94}, "uniqueid": "MTK2275:37TD41K0AIGOB504UGB812SPB3KSC7", "dateTime": 1516910926258}, {"current_trial": 95, "trialdata": {"rt": -1, "trial_type": "single-stim", "word": "uncle", "stimulus": "<p id=\"stim\">UNCLE</p>", "conditions": [24, 1600, "v", 24000], "internal_node_id": "0.0-68.0", "trial": 2, "time_elapsed": 490640, "serialpos": 6, "key_press": -1, "wordID": 1535, "type": "PRES_VIS", "trial_index": 95}, "uniqueid": "MTK2275:37TD41K0AIGOB504UGB812SPB3KSC7", "dateTime": 1516910928928}, {"current_trial": 96, "trialdata": {"rt": -1, "trial_type": "single-stim", "word": "donor", "stimulus": "<p id=\"stim\">DONOR</p>", "conditions": [24, 1600, "v", 24000], "internal_node_id": "0.0-69.0", "trial": 2, "time_elapsed": 493334, "serialpos": 7, "key_press": -1, "wordID": 484, "type": "PRES_VIS", "trial_index": 96}, "uniqueid": "MTK2275:37TD41K0AIGOB504UGB812SPB3KSC7", "dateTime": 1516910931622}, {"current_trial": 97, "trialdata": {"rt": -1, "trial_type": "single-stim", "word": "partner", "stimulus": "<p id=\"stim\">PARTNER</p>", "conditions": [24, 1600, "v", 24000], "internal_node_id": "0.0-70.0", "trial": 2, "time_elapsed": 495776, "serialpos": 8, "key_press": -1, "wordID": 1016, "type": "PRES_VIS", "trial_index": 97}, "uniqueid": "MTK2275:37TD41K0AIGOB504UGB812SPB3KSC7", "dateTime": 1516910934064}, {"current_trial": 98, "trialdata": {"rt": -1, "trial_type": "single-stim", "word": "waitress", "stimulus": "<p id=\"stim\">WAITRESS</p>", "conditions": [24, 1600, "v", 24000], "internal_node_id": "0.0-71.0", "trial": 2, "time_elapsed": 498399, "serialpos": 9, "key_press": -1, "wordID": 1580, "type": "PRES_VIS", "trial_index": 98}, "uniqueid": "MTK2275:37TD41K0AIGOB504UGB812SPB3KSC7", "dateTime": 1516910936687}, {"current_trial": 99, "trialdata": {"rt": -1, "trial_type": "single-stim", "word": "butcher", "stimulus": "<p id=\"stim\">BUTCHER</p>", "conditions": [24, 1600, "v", 24000], "internal_node_id": "0.0-72.0", "trial": 2, "time_elapsed": 500918, "serialpos": 10, "key_press": -1, "wordID": 202, "type": "PRES_VIS", "trial_index": 99}, "uniqueid": "MTK2275:37TD41K0AIGOB504UGB812SPB3KSC7", "dateTime": 1516910939206}, {"current_trial": 100, "trialdata": {"rt": -1, "trial_type": "single-stim", "word": "tile", "stimulus": "<p id=\"stim\">TILE</p>", "conditions": [24, 1600, "v", 24000], "internal_node_id": "0.0-73.0", "trial": 2, "time_elapsed": 503541, "serialpos": 11, "key_press": -1, "wordID": 1467, "type": "PRES_VIS", "trial_index": 100}, "uniqueid": "MTK2275:37TD41K0AIGOB504UGB812SPB3KSC7", "dateTime": 1516910941829}, {"current_trial": 101, "trialdata": {"rt": -1, "trial_type": "single-stim", "word": "garbage", "stimulus": "<p id=\"stim\">GARBAGE</p>", "conditions": [24, 1600, "v", 24000], "internal_node_id": "0.0-74.0", "trial": 2, "time_elapsed": 506031, "serialpos": 12, "key_press": -1, "wordID": 621, "type": "PRES_VIS", "trial_index": 101}, "uniqueid": "MTK2275:37TD41K0AIGOB504UGB812SPB3KSC7", "dateTime": 1516910944319}, {"current_trial": 102, "trialdata": {"rt": -1, "trial_type": "single-stim", "word": "friend", "stimulus": "<p id=\"stim\">FRIEND</p>", "conditions": [24, 1600, "v", 24000], "internal_node_id": "0.0-75.0", "trial": 2, "time_elapsed": 508492, "serialpos": 13, "key_press": -1, "wordID": 605, "type": "PRES_VIS", "trial_index": 102}, "uniqueid": "MTK2275:37TD41K0AIGOB504UGB812SPB3KSC7", "dateTime": 1516910946780}, {"current_trial": 103, "trialdata": {"rt": -1, "trial_type": "single-stim", "word": "donkey", "stimulus": "<p id=\"stim\">DONKEY</p>", "conditions": [24, 1600, "v", 24000], "internal_node_id": "0.0-76.0", "trial": 2, "time_elapsed": 511005, "serialpos": 14, "key_press": -1, "wordID": 483, "type": "PRES_VIS", "trial_index": 103}, "uniqueid": "MTK2275:37TD41K0AIGOB504UGB812SPB3KSC7", "dateTime": 1516910949293}, {"current_trial": 104, "trialdata": {"rt": -1, "trial_type": "single-stim", "word": "carrot", "stimulus": "<p id=\"stim\">CARROT</p>", "conditions": [24, 1600, "v", 24000], "internal_node_id": "0.0-77.0", "trial": 2, "time_elapsed": 513454, "serialpos": 15, "key_press": -1, "wordID": 248, "type": "PRES_VIS", "trial_index": 104}, "uniqueid": "MTK2275:37TD41K0AIGOB504UGB812SPB3KSC7", "dateTime": 1516910951742}, {"current_trial": 105, "trialdata": {"rt": -1, "trial_type": "single-stim", "word": "bacon", "stimulus": "<p id=\"stim\">BACON</p>", "conditions": [24, 1600, "v", 24000], "internal_node_id": "0.0-78.0", "trial": 2, "time_elapsed": 516234, "serialpos": 16, "key_press": -1, "wordID": 66, "type": "PRES_VIS", "trial_index": 105}, "uniqueid": "MTK2275:37TD41K0AIGOB504UGB812SPB3KSC7", "dateTime": 1516910954522}, {"current_trial": 106, "trialdata": {"rt": -1, "trial_type": "single-stim", "word": "mustard", "stimulus": "<p id=\"stim\">MUSTARD</p>", "conditions": [24, 1600, "v", 24000], "internal_node_id": "0.0-79.0", "trial": 2, "time_elapsed": 518939, "serialpos": 17, "key_press": -1, "wordID": 934, "type": "PRES_VIS", "trial_index": 106}, "uniqueid": "MTK2275:37TD41K0AIGOB504UGB812SPB3KSC7", "dateTime": 1516910957227}, {"current_trial": 107, "trialdata": {"rt": -1, "trial_type": "single-stim", "word": "scalpel", "stimulus": "<p id=\"stim\">SCALPEL</p>", "conditions": [24, 1600, "v", 24000], "internal_node_id": "0.0-80.0", "trial": 2, "time_elapsed": 521376, "serialpos": 18, "key_press": -1, "wordID": 1242, "type": "PRES_VIS", "trial_index": 107}, "uniqueid": "MTK2275:37TD41K0AIGOB504UGB812SPB3KSC7", "dateTime": 1516910959664}, {"current_trial": 108, "trialdata": {"rt": -1, "trial_type": "single-stim", "word": "razor", "stimulus": "<p id=\"stim\">RAZOR</p>", "conditions": [24, 1600, "v", 24000], "internal_node_id": "0.0-81.0", "trial": 2, "time_elapsed": 523802, "serialpos": 19, "key_press": -1, "wordID": 1170, "type": "PRES_VIS", "trial_index": 108}, "uniqueid": "MTK2275:37TD41K0AIGOB504UGB812SPB3KSC7", "dateTime": 1516910962090}, {"current_trial": 109, "trialdata": {"rt": -1, "trial_type": "single-stim", "word": "spool", "stimulus": "<p id=\"stim\">SPOOL</p>", "conditions": [24, 1600, "v", 24000], "internal_node_id": "0.0-82.0", "trial": 2, "time_elapsed": 526222, "serialpos": 20, "key_press": -1, "wordID": 1355, "type": "PRES_VIS", "trial_index": 109}, "uniqueid": "MTK2275:37TD41K0AIGOB504UGB812SPB3KSC7", "dateTime": 1516910964510}, {"current_trial": 110, "trialdata": {"rt": -1, "trial_type": "single-stim", "word": "scissors", "stimulus": "<p id=\"stim\">SCISSORS</p>", "conditions": [24, 1600, "v", 24000], "internal_node_id": "0.0-83.0", "trial": 2, "time_elapsed": 528857, "serialpos": 21, "key_press": -1, "wordID": 1249, "type": "PRES_VIS", "trial_index": 110}, "uniqueid": "MTK2275:37TD41K0AIGOB504UGB812SPB3KSC7", "dateTime": 1516910967145}, {"current_trial": 111, "trialdata": {"rt": -1, "trial_type": "single-stim", "word": "package", "stimulus": "<p id=\"stim\">PACKAGE</p>", "conditions": [24, 1600, "v", 24000], "internal_node_id": "0.0-84.0", "trial": 2, "time_elapsed": 531446, "serialpos": 22, "key_press": -1, "wordID": 996, "type": "PRES_VIS", "trial_index": 111}, "uniqueid": "MTK2275:37TD41K0AIGOB504UGB812SPB3KSC7", "dateTime": 1516910969734}, {"current_trial": 112, "trialdata": {"rt": -1, "trial_type": "single-stim", "word": "sausage", "stimulus": "<p id=\"stim\">SAUSAGE</p>", "conditions": [24, 1600, "v", 24000], "internal_node_id": "0.0-85.0", "trial": 2, "time_elapsed": 533895, "serialpos": 23, "key_press": -1, "wordID": 1237, "type": "PRES_VIS", "trial_index": 112}, "uniqueid": "MTK2275:37TD41K0AIGOB504UGB812SPB3KSC7", "dateTime": 1516910972183}, {"current_trial": 113, "trialdata": {"rt": -1, "trial_type": "single-stim", "stimulus": "", "internal_node_id": "0.0-86.0-0.0", "time_elapsed": 536176, "key_press": -1, "type": "PRE_RECALL_DELAY", "trial_index": 113}, "uniqueid": "MTK2275:37TD41K0AIGOB504UGB812SPB3KSC7", "dateTime": 1516910974464}, {"current_trial": 114, "trialdata": {"rt": -1000, "trial_type": "single-audio", "stimulus": "/static/audio/400Hz.wav", "internal_node_id": "0.0-87.0", "time_elapsed": 536677, "key_press": -1, "type": "PRE_RECALL_ALERT", "trial_index": 114}, "uniqueid": "MTK2275:37TD41K0AIGOB504UGB812SPB3KSC7", "dateTime": 1516910974965}, {"current_trial": 115, "trialdata": {"rt": [2196, 4367, 8383, 9891, 12726, 14976, 18767, 24055, 27160], "recwords": ["sausage", "bacon", "garbage", "tile", "package", "waitress", "partner", "spool", "server"], "key_times": [678, 801, 891, 1150, 1544, 1769, 1892, 2196, 2770, 2882, 3186, 3400, 3512, 4367, 7123, 7214, 7517, 7675, 7855, 8057, 8192, 8383, 9070, 9171, 9396, 9542, 9891, 10994, 11140, 11376, 11466, 11668, 12085, 12366, 12726, 13345, 13559, 13671, 13885, 14177, 14279, 14582, 14729, 14976, 15550, 16912, 17226, 17361, 17699, 17811, 18036, 18160, 18295, 18767, 23133, 23245, 23369, 23560, 23762, 24055, 25225, 25427, 25517, 25664, 25843, 25934, 27160], "trial_type": "free-recall", "conditions": [24, 1600, "v", 24000], "internal_node_id": "0.0-88.0-0.0", "key_presses": [83, 65, 85, 83, 65, 71, 69, 13, 66, 65, 67, 79, 78, 13, 71, 65, 82, 66, 65, 71, 69, 13, 84, 73, 76, 69, 13, 80, 65, 67, 75, 65, 71, 69, 13, 87, 65, 73, 84, 82, 69, 83, 83, 13, 83, 8, 80, 65, 82, 84, 78, 69, 82, 13, 83, 80, 79, 79, 76, 13, 83, 69, 82, 86, 69, 82, 13], "trial": 2, "time_elapsed": 596676, "type": "FREE_RECALL", "trial_index": 115}, "uniqueid": "MTK2275:37TD41K0AIGOB504UGB812SPB3KSC7", "dateTime": 1516911034965}, {"current_trial": 116, "trialdata": {"rt": 5743, "trial_type": "text", "internal_node_id": "0.0-89.0", "time_elapsed": 604425, "key_press": 13, "type": "INSTRUCTIONS", "trial_index": 116}, "uniqueid": "MTK2275:37TD41K0AIGOB504UGB812SPB3KSC7", "dateTime": 1516911042713}, {"current_trial": 117, "trialdata": {"rt": [4396, 6860, 8828, 11393], "trial_type": "math-distractor", "key_times": [3991, 4149, 4396, 6568, 6657, 6860, 8379, 8558, 8828, 11056, 11225, 11393], "responses": ["11", "20", "18", "24"], "num2": [4, 5, 8, 5, 6], "num3": [4, 9, 5, 9, 4], "conditions": [12, 1600, "v", 12000], "internal_node_id": "0.0-90.0", "key_presses": [49, 49, 13, 50, 48, 13, 49, 56, 13, 50, 52, 13], "trial": 3, "time_elapsed": 618430, "type": "DISTRACTOR", "trial_index": 117, "num1": [3, 6, 5, 9, 7]}, "uniqueid": "MTK2275:37TD41K0AIGOB504UGB812SPB3KSC7", "dateTime": 1516911056718}, {"current_trial": 118, "trialdata": {"rt": -1, "trial_type": "single-stim", "stimulus": "<p id=\"stim\">10</p>", "internal_node_id": "0.0-91.0-0.0", "time_elapsed": 621436, "key_press": -1, "trial_index": 118}, "uniqueid": "MTK2275:37TD41K0AIGOB504UGB812SPB3KSC7", "dateTime": 1516911059724}, {"current_trial": 119, "trialdata": {"rt": -1, "trial_type": "single-stim", "stimulus": "<p id=\"stim\">9</p>", "internal_node_id": "0.0-91.0-1.0", "time_elapsed": 622440, "key_press": -1, "trial_index": 119}, "uniqueid": "MTK2275:37TD41K0AIGOB504UGB812SPB3KSC7", "dateTime": 1516911060729}, {"current_trial": 120, "trialdata": {"rt": -1, "trial_type": "single-stim", "stimulus": "<p id=\"stim\">8</p>", "internal_node_id": "0.0-91.0-2.0", "time_elapsed": 623444, "key_press": -1, "trial_index": 120}, "uniqueid": "MTK2275:37TD41K0AIGOB504UGB812SPB3KSC7", "dateTime": 1516911061733}, {"current_trial": 121, "trialdata": {"rt": -1, "trial_type": "single-stim", "stimulus": "<p id=\"stim\">7</p>", "internal_node_id": "0.0-91.0-3.0", "time_elapsed": 624448, "key_press": -1, "trial_index": 121}, "uniqueid": "MTK2275:37TD41K0AIGOB504UGB812SPB3KSC7", "dateTime": 1516911062736}, {"current_trial": 122, "trialdata": {"rt": -1, "trial_type": "single-stim", "stimulus": "<p id=\"stim\">6</p>", "internal_node_id": "0.0-91.0-4.0", "time_elapsed": 625452, "key_press": -1, "trial_index": 122}, "uniqueid": "MTK2275:37TD41K0AIGOB504UGB812SPB3KSC7", "dateTime": 1516911063741}, {"current_trial": 123, "trialdata": {"rt": -1, "trial_type": "single-stim", "stimulus": "<p id=\"stim\">5</p>", "internal_node_id": "0.0-91.0-5.0", "time_elapsed": 626456, "key_press": -1, "trial_index": 123}, "uniqueid": "MTK2275:37TD41K0AIGOB504UGB812SPB3KSC7", "dateTime": 1516911064745}, {"current_trial": 124, "trialdata": {"rt": -1, "trial_type": "single-stim", "stimulus": "<p id=\"stim\">4</p>", "internal_node_id": "0.0-91.0-6.0", "time_elapsed": 627460, "key_press": -1, "trial_index": 124}, "uniqueid": "MTK2275:37TD41K0AIGOB504UGB812SPB3KSC7", "dateTime": 1516911065748}, {"current_trial": 125, "trialdata": {"rt": -1, "trial_type": "single-stim", "stimulus": "<p id=\"stim\">3</p>", "internal_node_id": "0.0-91.0-7.0", "time_elapsed": 628465, "key_press": -1, "trial_index": 125}, "uniqueid": "MTK2275:37TD41K0AIGOB504UGB812SPB3KSC7", "dateTime": 1516911066753}, {"current_trial": 126, "trialdata": {"rt": -1, "trial_type": "single-stim", "stimulus": "<p id=\"stim\">2</p>", "internal_node_id": "0.0-91.0-8.0", "time_elapsed": 629468, "key_press": -1, "trial_index": 126}, "uniqueid": "MTK2275:37TD41K0AIGOB504UGB812SPB3KSC7", "dateTime": 1516911067756}, {"current_trial": 127, "trialdata": {"rt": -1, "trial_type": "single-stim", "stimulus": "<p id=\"stim\">1</p>", "internal_node_id": "0.0-91.0-9.0", "time_elapsed": 630473, "key_press": -1, "trial_index": 127}, "uniqueid": "MTK2275:37TD41K0AIGOB504UGB812SPB3KSC7", "dateTime": 1516911068761}, {"current_trial": 128, "trialdata": {"rt": -1, "trial_type": "single-stim", "stimulus": "<p id=\"stim\">+</p>", "internal_node_id": "0.0-92.0-0.0", "time_elapsed": 631976, "key_press": -1, "type": "FIXATION", "trial_index": 128}, "uniqueid": "MTK2275:37TD41K0AIGOB504UGB812SPB3KSC7", "dateTime": 1516911070264}, {"current_trial": 129, "trialdata": {"rt": -1, "trial_type": "single-stim", "word": "fruit", "stimulus": "<p id=\"stim\">FRUIT</p>", "conditions": [12, 1600, "v", 12000], "internal_node_id": "0.0-93.0", "trial": 3, "time_elapsed": 633578, "serialpos": 0, "key_press": -1, "wordID": 609, "type": "PRES_VIS", "trial_index": 129}, "uniqueid": "MTK2275:37TD41K0AIGOB504UGB812SPB3KSC7", "dateTime": 1516911071866}, {"current_trial": 130, "trialdata": {"rt": -1, "trial_type": "single-stim", "word": "frame", "stimulus": "<p id=\"stim\">FRAME</p>", "conditions": [12, 1600, "v", 12000], "internal_node_id": "0.0-94.0", "trial": 3, "time_elapsed": 636067, "serialpos": 1, "key_press": -1, "wordID": 599, "type": "PRES_VIS", "trial_index": 130}, "uniqueid": "MTK2275:37TD41K0AIGOB504UGB812SPB3KSC7", "dateTime": 1516911074355}, {"current_trial": 131, "trialdata": {"rt": -1, "trial_type": "single-stim", "word": "orchid", "stimulus": "<p id=\"stim\">ORCHID</p>", "conditions": [12, 1600, "v", 12000], "internal_node_id": "0.0-95.0", "trial": 3, "time_elapsed": 638789, "serialpos": 2, "key_press": -1, "wordID": 981, "type": "PRES_VIS", "trial_index": 131}, "uniqueid": "MTK2275:37TD41K0AIGOB504UGB812SPB3KSC7", "dateTime": 1516911077077}, {"current_trial": 132, "trialdata": {"rt": -1, "trial_type": "single-stim", "word": "hero", "stimulus": "<p id=\"stim\">HERO</p>", "conditions": [12, 1600, "v", 12000], "internal_node_id": "0.0-96.0", "trial": 3, "time_elapsed": 641239, "serialpos": 3, "key_press": -1, "wordID": 705, "type": "PRES_VIS", "trial_index": 132}, "uniqueid": "MTK2275:37TD41K0AIGOB504UGB812SPB3KSC7", "dateTime": 1516911079527}, {"current_trial": 133, "trialdata": {"rt": -1, "trial_type": "single-stim", "word": "mailbox", "stimulus": "<p id=\"stim\">MAILBOX</p>", "conditions": [12, 1600, "v", 12000], "internal_node_id": "0.0-97.0", "trial": 3, "time_elapsed": 643834, "serialpos": 4, "key_press": -1, "wordID": 856, "type": "PRES_VIS", "trial_index": 133}, "uniqueid": "MTK2275:37TD41K0AIGOB504UGB812SPB3KSC7", "dateTime": 1516911082122}, {"current_trial": 134, "trialdata": {"rt": -1, "trial_type": "single-stim", "word": "hood", "stimulus": "<p id=\"stim\">HOOD</p>", "conditions": [12, 1600, "v", 12000], "internal_node_id": "0.0-98.0", "trial": 3, "time_elapsed": 646410, "serialpos": 5, "key_press": -1, "wordID": 713, "type": "PRES_VIS", "trial_index": 134}, "uniqueid": "MTK2275:37TD41K0AIGOB504UGB812SPB3KSC7", "dateTime": 1516911084698}, {"current_trial": 135, "trialdata": {"rt": -1, "trial_type": "single-stim", "word": "market", "stimulus": "<p id=\"stim\">MARKET</p>", "conditions": [12, 1600, "v", 12000], "internal_node_id": "0.0-99.0", "trial": 3, "time_elapsed": 648830, "serialpos": 6, "key_press": -1, "wordID": 870, "type": "PRES_VIS", "trial_index": 135}, "uniqueid": "MTK2275:37TD41K0AIGOB504UGB812SPB3KSC7", "dateTime": 1516911087118}, {"current_trial": 136, "trialdata": {"rt": -1, "trial_type": "single-stim", "word": "garden", "stimulus": "<p id=\"stim\">GARDEN</p>", "conditions": [12, 1600, "v", 12000], "internal_node_id": "0.0-100.0", "trial": 3, "time_elapsed": 651418, "serialpos": 7, "key_press": -1, "wordID": 622, "type": "PRES_VIS", "trial_index": 136}, "uniqueid": "MTK2275:37TD41K0AIGOB504UGB812SPB3KSC7", "dateTime": 1516911089706}, {"current_trial": 137, "trialdata": {"rt": -1, "trial_type": "single-stim", "word": "sword", "stimulus": "<p id=\"stim\">SWORD</p>", "conditions": [12, 1600, "v", 12000], "internal_node_id": "0.0-101.0", "trial": 3, "time_elapsed": 653832, "serialpos": 8, "key_press": -1, "wordID": 1422, "type": "PRES_VIS", "trial_index": 137}, "uniqueid": "MTK2275:37TD41K0AIGOB504UGB812SPB3KSC7", "dateTime": 1516911092120}, {"current_trial": 138, "trialdata": {"rt": -1, "trial_type": "single-stim", "word": "knife", "stimulus": "<p id=\"stim\">KNIFE</p>", "conditions": [12, 1600, "v", 12000], "internal_node_id": "0.0-102.0", "trial": 3, "time_elapsed": 656467, "serialpos": 9, "key_press": -1, "wordID": 784, "type": "PRES_VIS", "trial_index": 138}, "uniqueid": "MTK2275:37TD41K0AIGOB504UGB812SPB3KSC7", "dateTime": 1516911094755}, {"current_trial": 139, "trialdata": {"rt": -1, "trial_type": "single-stim", "word": "world", "stimulus": "<p id=\"stim\">WORLD</p>", "conditions": [12, 1600, "v", 12000], "internal_node_id": "0.0-103.0", "trial": 3, "time_elapsed": 658998, "serialpos": 10, "key_press": -1, "wordID": 1621, "type": "PRES_VIS", "trial_index": 139}, "uniqueid": "MTK2275:37TD41K0AIGOB504UGB812SPB3KSC7", "dateTime": 1516911097286}, {"current_trial": 140, "trialdata": {"rt": -1, "trial_type": "single-stim", "word": "shelf", "stimulus": "<p id=\"stim\">SHELF</p>", "conditions": [12, 1600, "v", 12000], "internal_node_id": "0.0-104.0", "trial": 3, "time_elapsed": 661627, "serialpos": 11, "key_press": -1, "wordID": 1279, "type": "PRES_VIS", "trial_index": 140}, "uniqueid": "MTK2275:37TD41K0AIGOB504UGB812SPB3KSC7", "dateTime": 1516911099915}, {"current_trial": 141, "trialdata": {"rt": -1, "trial_type": "single-stim", "stimulus": "", "internal_node_id": "0.0-105.0-0.0", "time_elapsed": 663942, "key_press": -1, "type": "PRE_RECALL_DELAY", "trial_index": 141}, "uniqueid": "MTK2275:37TD41K0AIGOB504UGB812SPB3KSC7", "dateTime": 1516911102230}, {"current_trial": 142, "trialdata": {"rt": -1000, "trial_type": "single-audio", "stimulus": "/static/audio/400Hz.wav", "internal_node_id": "0.0-106.0", "time_elapsed": 664443, "key_press": -1, "type": "PRE_RECALL_ALERT", "trial_index": 142}, "uniqueid": "MTK2275:37TD41K0AIGOB504UGB812SPB3KSC7", "dateTime": 1516911102731}, {"current_trial": 143, "trialdata": {"rt": [1730, 3755, 5105, 6613, 9042, 23465, 27268, 29113, 38653], "recwords": ["shelf", "sword", "knife", "market", "mailbox", "shelf", "world", "hero", "orchid"], "key_times": [887, 943, 1168, 1246, 1460, 1730, 2383, 2720, 2889, 3002, 3136, 3249, 3485, 3755, 4273, 4374, 4588, 4790, 4892, 5105, 5566, 5758, 5972, 6084, 6253, 6331, 6613, 7592, 7749, 7816, 8019, 8278, 8390, 8784, 9042, 22881, 22925, 23117, 23207, 23342, 23465, 26402, 26593, 26717, 27020, 27166, 27268, 28460, 28629, 28730, 28910, 29113, 37720, 37865, 38090, 38214, 38293, 38540, 38653], "trial_type": "free-recall", "conditions": [12, 1600, "v", 12000], "internal_node_id": "0.0-107.0-0.0", "key_presses": [83, 72, 69, 76, 70, 13, 87, 8, 83, 87, 79, 82, 68, 13, 75, 78, 73, 70, 69, 13, 77, 65, 82, 75, 69, 84, 13, 77, 65, 73, 76, 66, 79, 88, 13, 83, 72, 69, 76, 70, 13, 87, 79, 82, 76, 68, 13, 72, 69, 82, 79, 13, 79, 82, 67, 72, 73, 68, 13], "trial": 3, "time_elapsed": 724443, "type": "FREE_RECALL", "trial_index": 143}, "uniqueid": "MTK2275:37TD41K0AIGOB504UGB812SPB3KSC7", "dateTime": 1516911162732}, {"current_trial": 144, "trialdata": {"rt": 1375, "trial_type": "text", "internal_node_id": "0.0-108.0", "time_elapsed": 727825, "key_press": 32, "type": "INSTRUCTIONS", "trial_index": 144}, "uniqueid": "MTK2275:37TD41K0AIGOB504UGB812SPB3KSC7", "dateTime": 1516911166113}, {"current_trial": 145, "trialdata": {"rt": [3757, 7391, 10732, 13657, 16087, 18416, 21049, 23119], "trial_type": "math-distractor", "key_times": [3555, 3757, 7054, 7211, 7391, 10148, 10361, 10732, 13342, 13455, 13657, 15739, 15885, 16087, 17910, 18191, 18416, 20802, 20857, 21049, 22827, 22928, 23119], "responses": ["8", "13", "19", "23", "24", "16", "20", "19"], "num2": [3, 1, 7, 7, 9, 2, 9, 9, 4], "num3": [3, 5, 4, 9, 5, 7, 6, 2, 9], "conditions": [12, 1600, "v", 24000], "internal_node_id": "0.0-109.0", "key_presses": [56, 13, 49, 51, 13, 49, 57, 13, 50, 51, 13, 50, 52, 13, 49, 54, 13, 50, 48, 13, 49, 57, 13], "trial": 4, "time_elapsed": 753831, "type": "DISTRACTOR", "trial_index": 145, "num1": [2, 7, 8, 7, 9, 7, 5, 8, 4]}, "uniqueid": "MTK2275:37TD41K0AIGOB504UGB812SPB3KSC7", "dateTime": 1516911192119}, {"current_trial": 146, "trialdata": {"rt": -1, "trial_type": "single-stim", "stimulus": "<p id=\"stim\">10</p>", "internal_node_id": "0.0-110.0-0.0", "time_elapsed": 756838, "key_press": -1, "trial_index": 146}, "uniqueid": "MTK2275:37TD41K0AIGOB504UGB812SPB3KSC7", "dateTime": 1516911195126}, {"current_trial": 147, "trialdata": {"rt": -1, "trial_type": "single-stim", "stimulus": "<p id=\"stim\">9</p>", "internal_node_id": "0.0-110.0-1.0", "time_elapsed": 757842, "key_press": -1, "trial_index": 147}, "uniqueid": "MTK2275:37TD41K0AIGOB504UGB812SPB3KSC7", "dateTime": 1516911196130}, {"current_trial": 148, "trialdata": {"rt": -1, "trial_type": "single-stim", "stimulus": "<p id=\"stim\">8</p>", "internal_node_id": "0.0-110.0-2.0", "time_elapsed": 758846, "key_press": -1, "trial_index": 148}, "uniqueid": "MTK2275:37TD41K0AIGOB504UGB812SPB3KSC7", "dateTime": 1516911197134}, {"current_trial": 149, "trialdata": {"rt": -1, "trial_type": "single-stim", "stimulus": "<p id=\"stim\">7</p>", "internal_node_id": "0.0-110.0-3.0", "time_elapsed": 759849, "key_press": -1, "trial_index": 149}, "uniqueid": "MTK2275:37TD41K0AIGOB504UGB812SPB3KSC7", "dateTime": 1516911198137}, {"current_trial": 150, "trialdata": {"rt": -1, "trial_type": "single-stim", "stimulus": "<p id=\"stim\">6</p>", "internal_node_id": "0.0-110.0-4.0", "time_elapsed": 760854, "key_press": -1, "trial_index": 150}, "uniqueid": "MTK2275:37TD41K0AIGOB504UGB812SPB3KSC7", "dateTime": 1516911199142}, {"current_trial": 151, "trialdata": {"rt": -1, "trial_type": "single-stim", "stimulus": "<p id=\"stim\">5</p>", "internal_node_id": "0.0-110.0-5.0", "time_elapsed": 761857, "key_press": -1, "trial_index": 151}, "uniqueid": "MTK2275:37TD41K0AIGOB504UGB812SPB3KSC7", "dateTime": 1516911200145}, {"current_trial": 152, "trialdata": {"rt": -1, "trial_type": "single-stim", "stimulus": "<p id=\"stim\">4</p>", "internal_node_id": "0.0-110.0-6.0", "time_elapsed": 762862, "key_press": -1, "trial_index": 152}, "uniqueid": "MTK2275:37TD41K0AIGOB504UGB812SPB3KSC7", "dateTime": 1516911201150}, {"current_trial": 153, "trialdata": {"rt": -1, "trial_type": "single-stim", "stimulus": "<p id=\"stim\">3</p>", "internal_node_id": "0.0-110.0-7.0", "time_elapsed": 763866, "key_press": -1, "trial_index": 153}, "uniqueid": "MTK2275:37TD41K0AIGOB504UGB812SPB3KSC7", "dateTime": 1516911202154}, {"current_trial": 154, "trialdata": {"rt": -1, "trial_type": "single-stim", "stimulus": "<p id=\"stim\">2</p>", "internal_node_id": "0.0-110.0-8.0", "time_elapsed": 764870, "key_press": -1, "trial_index": 154}, "uniqueid": "MTK2275:37TD41K0AIGOB504UGB812SPB3KSC7", "dateTime": 1516911203158}, {"current_trial": 155, "trialdata": {"rt": -1, "trial_type": "single-stim", "stimulus": "<p id=\"stim\">1</p>", "internal_node_id": "0.0-110.0-9.0", "time_elapsed": 765874, "key_press": -1, "trial_index": 155}, "uniqueid": "MTK2275:37TD41K0AIGOB504UGB812SPB3KSC7", "dateTime": 1516911204162}, {"current_trial": 156, "trialdata": {"rt": -1, "trial_type": "single-stim", "stimulus": "<p id=\"stim\">+</p>", "internal_node_id": "0.0-111.0-0.0", "time_elapsed": 767377, "key_press": -1, "type": "FIXATION", "trial_index": 156}, "uniqueid": "MTK2275:37TD41K0AIGOB504UGB812SPB3KSC7", "dateTime": 1516911205665}, {"current_trial": 157, "trialdata": {"rt": -1, "trial_type": "single-stim", "word": "daisy", "stimulus": "<p id=\"stim\">DAISY</p>", "conditions": [12, 1600, "v", 24000], "internal_node_id": "0.0-112.0", "trial": 4, "time_elapsed": 768979, "serialpos": 0, "key_press": -1, "wordID": 434, "type": "PRES_VIS", "trial_index": 157}, "uniqueid": "MTK2275:37TD41K0AIGOB504UGB812SPB3KSC7", "dateTime": 1516911207267}, {"current_trial": 158, "trialdata": {"rt": -1, "trial_type": "single-stim", "word": "twister", "stimulus": "<p id=\"stim\">TWISTER</p>", "conditions": [12, 1600, "v", 24000], "internal_node_id": "0.0-113.0", "trial": 4, "time_elapsed": 771521, "serialpos": 1, "key_press": -1, "wordID": 1529, "type": "PRES_VIS", "trial_index": 158}, "uniqueid": "MTK2275:37TD41K0AIGOB504UGB812SPB3KSC7", "dateTime": 1516911209809}, {"current_trial": 159, "trialdata": {"rt": -1, "trial_type": "single-stim", "word": "sunrise", "stimulus": "<p id=\"stim\">SUNRISE</p>", "conditions": [12, 1600, "v", 24000], "internal_node_id": "0.0-114.0", "trial": 4, "time_elapsed": 773993, "serialpos": 2, "key_press": -1, "wordID": 1406, "type": "PRES_VIS", "trial_index": 159}, "uniqueid": "MTK2275:37TD41K0AIGOB504UGB812SPB3KSC7", "dateTime": 1516911212281}, {"current_trial": 160, "trialdata": {"rt": -1, "trial_type": "single-stim", "word": "orange", "stimulus": "<p id=\"stim\">ORANGE</p>", "conditions": [12, 1600, "v", 24000], "internal_node_id": "0.0-115.0", "trial": 4, "time_elapsed": 776793, "serialpos": 3, "key_press": -1, "wordID": 979, "type": "PRES_VIS", "trial_index": 160}, "uniqueid": "MTK2275:37TD41K0AIGOB504UGB812SPB3KSC7", "dateTime": 1516911215081}, {"current_trial": 161, "trialdata": {"rt": -1, "trial_type": "single-stim", "word": "parsley", "stimulus": "<p id=\"stim\">PARSLEY</p>", "conditions": [12, 1600, "v", 24000], "internal_node_id": "0.0-116.0", "trial": 4, "time_elapsed": 779466, "serialpos": 4, "key_press": -1, "wordID": 1015, "type": "PRES_VIS", "trial_index": 161}, "uniqueid": "MTK2275:37TD41K0AIGOB504UGB812SPB3KSC7", "dateTime": 1516911217754}, {"current_trial": 162, "trialdata": {"rt": -1, "trial_type": "single-stim", "word": "sibling", "stimulus": "<p id=\"stim\">SIBLING</p>", "conditions": [12, 1600, "v", 24000], "internal_node_id": "0.0-117.0", "trial": 4, "time_elapsed": 782235, "serialpos": 5, "key_press": -1, "wordID": 1300, "type": "PRES_VIS", "trial_index": 162}, "uniqueid": "MTK2275:37TD41K0AIGOB504UGB812SPB3KSC7", "dateTime": 1516911220523}, {"current_trial": 163, "trialdata": {"rt": -1, "trial_type": "single-stim", "word": "sister", "stimulus": "<p id=\"stim\">SISTER</p>", "conditions": [12, 1600, "v", 24000], "internal_node_id": "0.0-118.0", "trial": 4, "time_elapsed": 784893, "serialpos": 6, "key_press": -1, "wordID": 1311, "type": "PRES_VIS", "trial_index": 163}, "uniqueid": "MTK2275:37TD41K0AIGOB504UGB812SPB3KSC7", "dateTime": 1516911223181}, {"current_trial": 164, "trialdata": {"rt": -1, "trial_type": "single-stim", "word": "umpire", "stimulus": "<p id=\"stim\">UMPIRE</p>", "conditions": [12, 1600, "v", 24000], "internal_node_id": "0.0-119.0", "trial": 4, "time_elapsed": 787522, "serialpos": 7, "key_press": -1, "wordID": 1534, "type": "PRES_VIS", "trial_index": 164}, "uniqueid": "MTK2275:37TD41K0AIGOB504UGB812SPB3KSC7", "dateTime": 1516911225810}, {"current_trial": 165, "trialdata": {"rt": -1, "trial_type": "single-stim", "word": "beaker", "stimulus": "<p id=\"stim\">BEAKER</p>", "conditions": [12, 1600, "v", 24000], "internal_node_id": "0.0-120.0", "trial": 4, "time_elapsed": 790267, "serialpos": 8, "key_press": -1, "wordID": 103, "type": "PRES_VIS", "trial_index": 165}, "uniqueid": "MTK2275:37TD41K0AIGOB504UGB812SPB3KSC7", "dateTime": 1516911228555}, {"current_trial": 166, "trialdata": {"rt": -1, "trial_type": "single-stim", "word": "fleet", "stimulus": "<p id=\"stim\">FLEET</p>", "conditions": [12, 1600, "v", 24000], "internal_node_id": "0.0-121.0", "trial": 4, "time_elapsed": 792739, "serialpos": 9, "key_press": -1, "wordID": 577, "type": "PRES_VIS", "trial_index": 166}, "uniqueid": "MTK2275:37TD41K0AIGOB504UGB812SPB3KSC7", "dateTime": 1516911231028}, {"current_trial": 167, "trialdata": {"rt": -1, "trial_type": "single-stim", "word": "lily", "stimulus": "<p id=\"stim\">LILY</p>", "conditions": [12, 1600, "v", 24000], "internal_node_id": "0.0-122.0", "trial": 4, "time_elapsed": 795212, "serialpos": 10, "key_press": -1, "wordID": 820, "type": "PRES_VIS", "trial_index": 167}, "uniqueid": "MTK2275:37TD41K0AIGOB504UGB812SPB3KSC7", "dateTime": 1516911233500}, {"current_trial": 168, "trialdata": {"rt": -1, "trial_type": "single-stim", "word": "flag", "stimulus": "<p id=\"stim\">FLAG</p>", "conditions": [12, 1600, "v", 24000], "internal_node_id": "0.0-123.0", "trial": 4, "time_elapsed": 797835, "serialpos": 11, "key_press": -1, "wordID": 572, "type": "PRES_VIS", "trial_index": 168}, "uniqueid": "MTK2275:37TD41K0AIGOB504UGB812SPB3KSC7", "dateTime": 1516911236123}, {"current_trial": 169, "trialdata": {"rt": -1, "trial_type": "single-stim", "stimulus": "", "internal_node_id": "0.0-124.0-0.0", "time_elapsed": 800308, "key_press": -1, "type": "PRE_RECALL_DELAY", "trial_index": 169}, "uniqueid": "MTK2275:37TD41K0AIGOB504UGB812SPB3KSC7", "dateTime": 1516911238596}, {"current_trial": 170, "trialdata": {"rt": -1000, "trial_type": "single-audio", "stimulus": "/static/audio/400Hz.wav", "internal_node_id": "0.0-125.0", "time_elapsed": 800808, "key_press": -1, "type": "PRE_RECALL_ALERT", "trial_index": 170}, "uniqueid": "MTK2275:37TD41K0AIGOB504UGB812SPB3KSC7", "dateTime": 1516911239096}, {"current_trial": 171, "trialdata": {"rt": [2222, 3425, 4798, 6621, 14147, 16431, 33002], "recwords": ["flag", "lily", "sister", "sibling", "tornado", "orange", "parsley"], "key_times": [1041, 1119, 1356, 2008, 2222, 2571, 2796, 2976, 3201, 3425, 3831, 3977, 4100, 4326, 4528, 4652, 4798, 5170, 5271, 5361, 5676, 5799, 6036, 6137, 6621, 10120, 10311, 11346, 11503, 11942, 11998, 12178, 12268, 12426, 12651, 12820, 13461, 13810, 14147, 15328, 15508, 15744, 15846, 16026, 16161, 16431, 31855, 32023, 32248, 32451, 32575, 32631, 32822, 33002], "trial_type": "free-recall", "conditions": [12, 1600, "v", 24000], "internal_node_id": "0.0-126.0-0.0", "key_presses": [70, 76, 65, 71, 13, 76, 73, 76, 89, 13, 83, 73, 83, 84, 69, 82, 13, 83, 73, 66, 76, 73, 78, 71, 13, 79, 82, 8, 8, 84, 79, 82, 78, 65, 68, 73, 8, 79, 13, 79, 82, 65, 78, 71, 69, 13, 80, 65, 82, 83, 76, 69, 89, 13], "trial": 4, "time_elapsed": 860807, "type": "FREE_RECALL", "trial_index": 171}, "uniqueid": "MTK2275:37TD41K0AIGOB504UGB812SPB3KSC7", "dateTime": 1516911299097}, {"current_trial": 172, "trialdata": {"rt": 1147, "trial_type": "text", "internal_node_id": "0.0-127.0", "time_elapsed": 863961, "key_press": 13, "type": "INSTRUCTIONS", "trial_index": 172}, "uniqueid": "MTK2275:37TD41K0AIGOB504UGB812SPB3KSC7", "dateTime": 1516911302249}, {"current_trial": 173, "trialdata": {"rt": [3799, 6994, 9030, 12664, 14712, 16804, 18604, 20877, 22992], "trial_type": "math-distractor", "key_times": [3484, 3619, 3799, 6837, 6994, 8773, 8895, 9030, 12192, 12259, 12664, 14397, 14520, 14712, 16647, 16804, 18233, 18436, 18604, 20427, 20483, 20877, 22553, 22654, 22992], "responses": ["22", "6", "12", "15", "18", "8", "16", "20", "10"], "num2": [7, 2, 2, 5, 9, 1, 1, 6, 1, 3], "num3": [9, 3, 9, 7, 1, 4, 7, 9, 5, 2], "conditions": [24, 800, "v", 24000], "internal_node_id": "0.0-128.0", "key_presses": [50, 50, 13, 54, 13, 49, 50, 13, 49, 53, 13, 49, 56, 13, 56, 13, 49, 54, 13, 50, 48, 13, 49, 48, 13], "trial": 5, "time_elapsed": 889966, "type": "DISTRACTOR", "trial_index": 173, "num1": [6, 1, 1, 3, 8, 3, 8, 5, 4, 5]}, "uniqueid": "MTK2275:37TD41K0AIGOB504UGB812SPB3KSC7", "dateTime": 1516911328255}, {"current_trial": 174, "trialdata": {"rt": -1, "trial_type": "single-stim", "stimulus": "<p id=\"stim\">10</p>", "internal_node_id": "0.0-129.0-0.0", "time_elapsed": 892971, "key_press": -1, "trial_index": 174}, "uniqueid": "MTK2275:37TD41K0AIGOB504UGB812SPB3KSC7", "dateTime": 1516911331259}, {"current_trial": 175, "trialdata": {"rt": -1, "trial_type": "single-stim", "stimulus": "<p id=\"stim\">9</p>", "internal_node_id": "0.0-129.0-1.0", "time_elapsed": 893975, "key_press": -1, "trial_index": 175}, "uniqueid": "MTK2275:37TD41K0AIGOB504UGB812SPB3KSC7", "dateTime": 1516911332263}, {"current_trial": 176, "trialdata": {"rt": -1, "trial_type": "single-stim", "stimulus": "<p id=\"stim\">8</p>", "internal_node_id": "0.0-129.0-2.0", "time_elapsed": 894979, "key_press": -1, "trial_index": 176}, "uniqueid": "MTK2275:37TD41K0AIGOB504UGB812SPB3KSC7", "dateTime": 1516911333268}, {"current_trial": 177, "trialdata": {"rt": -1, "trial_type": "single-stim", "stimulus": "<p id=\"stim\">7</p>", "internal_node_id": "0.0-129.0-3.0", "time_elapsed": 895983, "key_press": -1, "trial_index": 177}, "uniqueid": "MTK2275:37TD41K0AIGOB504UGB812SPB3KSC7", "dateTime": 1516911334271}, {"current_trial": 178, "trialdata": {"rt": -1, "trial_type": "single-stim", "stimulus": "<p id=\"stim\">6</p>", "internal_node_id": "0.0-129.0-4.0", "time_elapsed": 896988, "key_press": -1, "trial_index": 178}, "uniqueid": "MTK2275:37TD41K0AIGOB504UGB812SPB3KSC7", "dateTime": 1516911335276}, {"current_trial": 179, "trialdata": {"rt": -1, "trial_type": "single-stim", "stimulus": "<p id=\"stim\">5</p>", "internal_node_id": "0.0-129.0-5.0", "time_elapsed": 897991, "key_press": -1, "trial_index": 179}, "uniqueid": "MTK2275:37TD41K0AIGOB504UGB812SPB3KSC7", "dateTime": 1516911336279}, {"current_trial": 180, "trialdata": {"rt": -1, "trial_type": "single-stim", "stimulus": "<p id=\"stim\">4</p>", "internal_node_id": "0.0-129.0-6.0", "time_elapsed": 898996, "key_press": -1, "trial_index": 180}, "uniqueid": "MTK2275:37TD41K0AIGOB504UGB812SPB3KSC7", "dateTime": 1516911337284}, {"current_trial": 181, "trialdata": {"rt": -1, "trial_type": "single-stim", "stimulus": "<p id=\"stim\">3</p>", "internal_node_id": "0.0-129.0-7.0", "time_elapsed": 899999, "key_press": -1, "trial_index": 181}, "uniqueid": "MTK2275:37TD41K0AIGOB504UGB812SPB3KSC7", "dateTime": 1516911338287}, {"current_trial": 182, "trialdata": {"rt": -1, "trial_type": "single-stim", "stimulus": "<p id=\"stim\">2</p>", "internal_node_id": "0.0-129.0-8.0", "time_elapsed": 901004, "key_press": -1, "trial_index": 182}, "uniqueid": "MTK2275:37TD41K0AIGOB504UGB812SPB3KSC7", "dateTime": 1516911339292}, {"current_trial": 183, "trialdata": {"rt": -1, "trial_type": "single-stim", "stimulus": "<p id=\"stim\">1</p>", "internal_node_id": "0.0-129.0-9.0", "time_elapsed": 902007, "key_press": -1, "trial_index": 183}, "uniqueid": "MTK2275:37TD41K0AIGOB504UGB812SPB3KSC7", "dateTime": 1516911340295}, {"current_trial": 184, "trialdata": {"rt": -1, "trial_type": "single-stim", "stimulus": "<p id=\"stim\">+</p>", "internal_node_id": "0.0-130.0-0.0", "time_elapsed": 903511, "key_press": -1, "type": "FIXATION", "trial_index": 184}, "uniqueid": "MTK2275:37TD41K0AIGOB504UGB812SPB3KSC7", "dateTime": 1516911341799}, {"current_trial": 185, "trialdata": {"rt": -1, "trial_type": "single-stim", "word": "island", "stimulus": "<p id=\"stim\">ISLAND</p>", "conditions": [24, 800, "v", 24000], "internal_node_id": "0.0-131.0", "trial": 5, "time_elapsed": 904312, "serialpos": 0, "key_press": -1, "wordID": 744, "type": "PRES_VIS", "trial_index": 185}, "uniqueid": "MTK2275:37TD41K0AIGOB504UGB812SPB3KSC7", "dateTime": 1516911342600}, {"current_trial": 186, "trialdata": {"rt": -1, "trial_type": "single-stim", "word": "fox", "stimulus": "<p id=\"stim\">FOX</p>", "conditions": [24, 800, "v", 24000], "internal_node_id": "0.0-132.0", "trial": 5, "time_elapsed": 906082, "serialpos": 1, "key_press": -1, "wordID": 597, "type": "PRES_VIS", "trial_index": 186}, "uniqueid": "MTK2275:37TD41K0AIGOB504UGB812SPB3KSC7", "dateTime": 1516911344370}, {"current_trial": 187, "trialdata": {"rt": -1, "trial_type": "single-stim", "word": "nightgown", "stimulus": "<p id=\"stim\">NIGHTGOWN</p>", "conditions": [24, 800, "v", 24000], "internal_node_id": "0.0-133.0", "trial": 5, "time_elapsed": 907707, "serialpos": 2, "key_press": -1, "wordID": 952, "type": "PRES_VIS", "trial_index": 187}, "uniqueid": "MTK2275:37TD41K0AIGOB504UGB812SPB3KSC7", "dateTime": 1516911345995}, {"current_trial": 188, "trialdata": {"rt": -1, "trial_type": "single-stim", "word": "whiskers", "stimulus": "<p id=\"stim\">WHISKERS</p>", "conditions": [24, 800, "v", 24000], "internal_node_id": "0.0-134.0", "trial": 5, "time_elapsed": 909553, "serialpos": 3, "key_press": -1, "wordID": 1604, "type": "PRES_VIS", "trial_index": 188}, "uniqueid": "MTK2275:37TD41K0AIGOB504UGB812SPB3KSC7", "dateTime": 1516911347841}, {"current_trial": 189, "trialdata": {"rt": -1, "trial_type": "single-stim", "word": "sphinx", "stimulus": "<p id=\"stim\">SPHINX</p>", "conditions": [24, 800, "v", 24000], "internal_node_id": "0.0-135.0", "trial": 5, "time_elapsed": 911404, "serialpos": 4, "key_press": -1, "wordID": 1348, "type": "PRES_VIS", "trial_index": 189}, "uniqueid": "MTK2275:37TD41K0AIGOB504UGB812SPB3KSC7", "dateTime": 1516911349692}, {"current_trial": 190, "trialdata": {"rt": -1, "trial_type": "single-stim", "word": "cashier", "stimulus": "<p id=\"stim\">CASHIER</p>", "conditions": [24, 800, "v", 24000], "internal_node_id": "0.0-136.0", "trial": 5, "time_elapsed": 913313, "serialpos": 5, "key_press": -1, "wordID": 253, "type": "PRES_VIS", "trial_index": 190}, "uniqueid": "MTK2275:37TD41K0AIGOB504UGB812SPB3KSC7", "dateTime": 1516911351602}, {"current_trial": 191, "trialdata": {"rt": -1, "trial_type": "single-stim", "word": "snail", "stimulus": "<p id=\"stim\">SNAIL</p>", "conditions": [24, 800, "v", 24000], "internal_node_id": "0.0-137.0", "trial": 5, "time_elapsed": 915292, "serialpos": 6, "key_press": -1, "wordID": 1331, "type": "PRES_VIS", "trial_index": 191}, "uniqueid": "MTK2275:37TD41K0AIGOB504UGB812SPB3KSC7", "dateTime": 1516911353581}, {"current_trial": 192, "trialdata": {"rt": -1, "trial_type": "single-stim", "word": "shirt", "stimulus": "<p id=\"stim\">SHIRT</p>", "conditions": [24, 800, "v", 24000], "internal_node_id": "0.0-138.0", "trial": 5, "time_elapsed": 917092, "serialpos": 7, "key_press": -1, "wordID": 1286, "type": "PRES_VIS", "trial_index": 192}, "uniqueid": "MTK2275:37TD41K0AIGOB504UGB812SPB3KSC7", "dateTime": 1516911355380}, {"current_trial": 193, "trialdata": {"rt": -1, "trial_type": "single-stim", "word": "suspect", "stimulus": "<p id=\"stim\">SUSPECT</p>", "conditions": [24, 800, "v", 24000], "internal_node_id": "0.0-139.0", "trial": 5, "time_elapsed": 918722, "serialpos": 8, "key_press": -1, "wordID": 1414, "type": "PRES_VIS", "trial_index": 193}, "uniqueid": "MTK2275:37TD41K0AIGOB504UGB812SPB3KSC7", "dateTime": 1516911357011}, {"current_trial": 194, "trialdata": {"rt": -1, "trial_type": "single-stim", "word": "victim", "stimulus": "<p id=\"stim\">VICTIM</p>", "conditions": [24, 800, "v", 24000], "internal_node_id": "0.0-140.0", "trial": 5, "time_elapsed": 920609, "serialpos": 9, "key_press": -1, "wordID": 1561, "type": "PRES_VIS", "trial_index": 194}, "uniqueid": "MTK2275:37TD41K0AIGOB504UGB812SPB3KSC7", "dateTime": 1516911358897}, {"current_trial": 195, "trialdata": {"rt": -1, "trial_type": "single-stim", "word": "robin", "stimulus": "<p id=\"stim\">ROBIN</p>", "conditions": [24, 800, "v", 24000], "internal_node_id": "0.0-141.0", "trial": 5, "time_elapsed": 922251, "serialpos": 10, "key_press": -1, "wordID": 1198, "type": "PRES_VIS", "trial_index": 195}, "uniqueid": "MTK2275:37TD41K0AIGOB504UGB812SPB3KSC7", "dateTime": 1516911360539}, {"current_trial": 196, "trialdata": {"rt": -1, "trial_type": "single-stim", "word": "curtain", "stimulus": "<p id=\"stim\">CURTAIN</p>", "conditions": [24, 800, "v", 24000], "internal_node_id": "0.0-142.0", "trial": 5, "time_elapsed": 923911, "serialpos": 11, "key_press": -1, "wordID": 426, "type": "PRES_VIS", "trial_index": 196}, "uniqueid": "MTK2275:37TD41K0AIGOB504UGB812SPB3KSC7", "dateTime": 1516911362199}, {"current_trial": 197, "trialdata": {"rt": -1, "trial_type": "single-stim", "word": "ankle", "stimulus": "<p id=\"stim\">ANKLE</p>", "conditions": [24, 800, "v", 24000], "internal_node_id": "0.0-143.0", "trial": 5, "time_elapsed": 925826, "serialpos": 12, "key_press": -1, "wordID": 23, "type": "PRES_VIS", "trial_index": 197}, "uniqueid": "MTK2275:37TD41K0AIGOB504UGB812SPB3KSC7", "dateTime": 1516911364114}, {"current_trial": 198, "trialdata": {"rt": -1, "trial_type": "single-stim", "word": "ground", "stimulus": "<p id=\"stim\">GROUND</p>", "conditions": [24, 800, "v", 24000], "internal_node_id": "0.0-144.0", "trial": 5, "time_elapsed": 927684, "serialpos": 13, "key_press": -1, "wordID": 665, "type": "PRES_VIS", "trial_index": 198}, "uniqueid": "MTK2275:37TD41K0AIGOB504UGB812SPB3KSC7", "dateTime": 1516911365972}, {"current_trial": 199, "trialdata": {"rt": -1, "trial_type": "single-stim", "word": "turtle", "stimulus": "<p id=\"stim\">TURTLE</p>", "conditions": [24, 800, "v", 24000], "internal_node_id": "0.0-145.0", "trial": 5, "time_elapsed": 929367, "serialpos": 14, "key_press": -1, "wordID": 1521, "type": "PRES_VIS", "trial_index": 199}, "uniqueid": "MTK2275:37TD41K0AIGOB504UGB812SPB3KSC7", "dateTime": 1516911367655}, {"current_trial": 200, "trialdata": {"rt": -1, "trial_type": "single-stim", "word": "turkey", "stimulus": "<p id=\"stim\">TURKEY</p>", "conditions": [24, 800, "v", 24000], "internal_node_id": "0.0-146.0", "trial": 5, "time_elapsed": 931079, "serialpos": 15, "key_press": -1, "wordID": 1519, "type": "PRES_VIS", "trial_index": 200}, "uniqueid": "MTK2275:37TD41K0AIGOB504UGB812SPB3KSC7", "dateTime": 1516911369367}, {"current_trial": 201, "trialdata": {"rt": -1, "trial_type": "single-stim", "word": "quail", "stimulus": "<p id=\"stim\">QUAIL</p>", "conditions": [24, 800, "v", 24000], "internal_node_id": "0.0-147.0", "trial": 5, "time_elapsed": 932988, "serialpos": 16, "key_press": -1, "wordID": 1146, "type": "PRES_VIS", "trial_index": 201}, "uniqueid": "MTK2275:37TD41K0AIGOB504UGB812SPB3KSC7", "dateTime": 1516911371276}, {"current_trial": 202, "trialdata": {"rt": -1, "trial_type": "single-stim", "word": "marine", "stimulus": "<p id=\"stim\">MARINE</p>", "conditions": [24, 800, "v", 24000], "internal_node_id": "0.0-148.0", "trial": 5, "time_elapsed": 934898, "serialpos": 17, "key_press": -1, "wordID": 868, "type": "PRES_VIS", "trial_index": 202}, "uniqueid": "MTK2275:37TD41K0AIGOB504UGB812SPB3KSC7", "dateTime": 1516911373186}, {"current_trial": 203, "trialdata": {"rt": -1, "trial_type": "single-stim", "word": "husband", "stimulus": "<p id=\"stim\">HUSBAND</p>", "conditions": [24, 800, "v", 24000], "internal_node_id": "0.0-149.0", "trial": 5, "time_elapsed": 936546, "serialpos": 18, "key_press": -1, "wordID": 727, "type": "PRES_VIS", "trial_index": 203}, "uniqueid": "MTK2275:37TD41K0AIGOB504UGB812SPB3KSC7", "dateTime": 1516911374834}, {"current_trial": 204, "trialdata": {"rt": -1, "trial_type": "single-stim", "word": "scarecrow", "stimulus": "<p id=\"stim\">SCARECROW</p>", "conditions": [24, 800, "v", 24000], "internal_node_id": "0.0-150.0", "trial": 5, "time_elapsed": 938444, "serialpos": 19, "key_press": -1, "wordID": 1244, "type": "PRES_VIS", "trial_index": 204}, "uniqueid": "MTK2275:37TD41K0AIGOB504UGB812SPB3KSC7", "dateTime": 1516911376732}, {"current_trial": 205, "trialdata": {"rt": -1, "trial_type": "single-stim", "word": "money", "stimulus": "<p id=\"stim\">MONEY</p>", "conditions": [24, 800, "v", 24000], "internal_node_id": "0.0-151.0", "trial": 5, "time_elapsed": 940127, "serialpos": 20, "key_press": -1, "wordID": 907, "type": "PRES_VIS", "trial_index": 205}, "uniqueid": "MTK2275:37TD41K0AIGOB504UGB812SPB3KSC7", "dateTime": 1516911378415}, {"current_trial": 206, "trialdata": {"rt": -1, "trial_type": "single-stim", "word": "rocket", "stimulus": "<p id=\"stim\">ROCKET</p>", "conditions": [24, 800, "v", 24000], "internal_node_id": "0.0-152.0", "trial": 5, "time_elapsed": 941995, "serialpos": 21, "key_press": -1, "wordID": 1201, "type": "PRES_VIS", "trial_index": 206}, "uniqueid": "MTK2275:37TD41K0AIGOB504UGB812SPB3KSC7", "dateTime": 1516911380284}, {"current_trial": 207, "trialdata": {"rt": -1, "trial_type": "single-stim", "word": "widow", "stimulus": "<p id=\"stim\">WIDOW</p>", "conditions": [24, 800, "v", 24000], "internal_node_id": "0.0-153.0", "trial": 5, "time_elapsed": 943789, "serialpos": 22, "key_press": -1, "wordID": 1607, "type": "PRES_VIS", "trial_index": 207}, "uniqueid": "MTK2275:37TD41K0AIGOB504UGB812SPB3KSC7", "dateTime": 1516911382077}, {"current_trial": 208, "trialdata": {"rt": -1, "trial_type": "single-stim", "word": "beaver", "stimulus": "<p id=\"stim\">BEAVER</p>", "conditions": [24, 800, "v", 24000], "internal_node_id": "0.0-154.0", "trial": 5, "time_elapsed": 945518, "serialpos": 23, "key_press": -1, "wordID": 108, "type": "PRES_VIS", "trial_index": 208}, "uniqueid": "MTK2275:37TD41K0AIGOB504UGB812SPB3KSC7", "dateTime": 1516911383807}, {"current_trial": 209, "trialdata": {"rt": -1, "trial_type": "single-stim", "stimulus": "", "internal_node_id": "0.0-155.0-0.0", "time_elapsed": 947921, "key_press": -1, "type": "PRE_RECALL_DELAY", "trial_index": 209}, "uniqueid": "MTK2275:37TD41K0AIGOB504UGB812SPB3KSC7", "dateTime": 1516911386209}, {"current_trial": 210, "trialdata": {"rt": -1000, "trial_type": "single-audio", "stimulus": "/static/audio/400Hz.wav", "internal_node_id": "0.0-156.0", "time_elapsed": 948423, "key_press": -1, "type": "PRE_RECALL_ALERT", "trial_index": 210}, "uniqueid": "MTK2275:37TD41K0AIGOB504UGB812SPB3KSC7", "dateTime": 1516911386711}, {"current_trial": 211, "trialdata": {"rt": [1882, 3254, 4683, 5797, 11355, 20265, 27746, 37354, 40751, 53227], "recwords": ["husband", "marine", "beaver", "rocket", "nightgown", "sphinx", "snail", "monkey", "quail", "rocket"], "key_times": [937, 1027, 1185, 1319, 1432, 1522, 1680, 1882, 2344, 2501, 2726, 2827, 2951, 3086, 3254, 3738, 3952, 4154, 4301, 4458, 4571, 4683, 5009, 5111, 5291, 5370, 5482, 5640, 5797, 9712, 9780, 9926, 9982, 10118, 10488, 10612, 10893, 11141, 11355, 17587, 17666, 17947, 18206, 18566, 19286, 19398, 19646, 20265, 27083, 27161, 27307, 27386, 27566, 27746, 35531, 35790, 35880, 36139, 36510, 36712, 36926, 36982, 37354, 39570, 39693, 39862, 40121, 40290, 40751, 52474, 52608, 52743, 52833, 52968, 53115, 53227], "trial_type": "free-recall", "conditions": [24, 800, "v", 24000], "internal_node_id": "0.0-157.0-0.0", "key_presses": [72, 85, 83, 66, 65, 78, 68, 13, 77, 65, 82, 73, 78, 69, 13, 66, 69, 65, 86, 69, 82, 13, 82, 79, 67, 75, 69, 84, 13, 78, 73, 71, 72, 84, 71, 79, 87, 78, 13, 83, 80, 72, 82, 8, 73, 78, 88, 13, 83, 78, 65, 73, 76, 13, 77, 79, 78, 76, 8, 75, 69, 89, 13, 81, 85, 65, 73, 76, 13, 82, 79, 67, 75, 69, 84, 13], "trial": 5, "time_elapsed": 1008422, "type": "FREE_RECALL", "trial_index": 211}, "uniqueid": "MTK2275:37TD41K0AIGOB504UGB812SPB3KSC7", "dateTime": 1516911446712}, {"current_trial": 212, "trialdata": {"rt": 564, "trial_type": "text", "internal_node_id": "0.0-158.0", "time_elapsed": 1010988, "key_press": 13, "type": "INSTRUCTIONS", "trial_index": 212}, "uniqueid": "MTK2275:37TD41K0AIGOB504UGB812SPB3KSC7", "dateTime": 1516911449276}, {"current_trial": 213, "trialdata": {"rt": [1677, 5063, 7572, 10159], "trial_type": "math-distractor", "key_times": [1485, 1553, 1677, 4692, 4770, 5063, 7268, 7324, 7572, 9811, 9923, 10159, 11554, 11880], "responses": ["12", "17", "20", "17"], "num2": [5, 9, 8, 9, 9], "num3": [5, 5, 8, 5, 1], "conditions": [24, 800, "v", 12000], "internal_node_id": "0.0-159.0", "key_presses": [49, 50, 13, 49, 55, 13, 50, 48, 13, 49, 55, 13, 49, 55], "trial": 6, "time_elapsed": 1024992, "type": "DISTRACTOR", "trial_index": 213, "num1": [2, 3, 4, 3, 7]}, "uniqueid": "MTK2275:37TD41K0AIGOB504UGB812SPB3KSC7", "dateTime": 1516911463280}, {"current_trial": 214, "trialdata": {"rt": -1, "trial_type": "single-stim", "stimulus": "<p id=\"stim\">10</p>", "internal_node_id": "0.0-160.0-0.0", "time_elapsed": 1027997, "key_press": -1, "trial_index": 214}, "uniqueid": "MTK2275:37TD41K0AIGOB504UGB812SPB3KSC7", "dateTime": 1516911466286}, {"current_trial": 215, "trialdata": {"rt": -1, "trial_type": "single-stim", "stimulus": "<p id=\"stim\">9</p>", "internal_node_id": "0.0-160.0-1.0", "time_elapsed": 1029002, "key_press": -1, "trial_index": 215}, "uniqueid": "MTK2275:37TD41K0AIGOB504UGB812SPB3KSC7", "dateTime": 1516911467290}, {"current_trial": 216, "trialdata": {"rt": -1, "trial_type": "single-stim", "stimulus": "<p id=\"stim\">8</p>", "internal_node_id": "0.0-160.0-2.0", "time_elapsed": 1030006, "key_press": -1, "trial_index": 216}, "uniqueid": "MTK2275:37TD41K0AIGOB504UGB812SPB3KSC7", "dateTime": 1516911468294}, {"current_trial": 217, "trialdata": {"rt": -1, "trial_type": "single-stim", "stimulus": "<p id=\"stim\">7</p>", "internal_node_id": "0.0-160.0-3.0", "time_elapsed": 1031010, "key_press": -1, "trial_index": 217}, "uniqueid": "MTK2275:37TD41K0AIGOB504UGB812SPB3KSC7", "dateTime": 1516911469298}, {"current_trial": 218, "trialdata": {"rt": -1, "trial_type": "single-stim", "stimulus": "<p id=\"stim\">6</p>", "internal_node_id": "0.0-160.0-4.0", "time_elapsed": 1032014, "key_press": -1, "trial_index": 218}, "uniqueid": "MTK2275:37TD41K0AIGOB504UGB812SPB3KSC7", "dateTime": 1516911470302}, {"current_trial": 219, "trialdata": {"rt": -1, "trial_type": "single-stim", "stimulus": "<p id=\"stim\">5</p>", "internal_node_id": "0.0-160.0-5.0", "time_elapsed": 1033018, "key_press": -1, "trial_index": 219}, "uniqueid": "MTK2275:37TD41K0AIGOB504UGB812SPB3KSC7", "dateTime": 1516911471306}, {"current_trial": 220, "trialdata": {"rt": -1, "trial_type": "single-stim", "stimulus": "<p id=\"stim\">4</p>", "internal_node_id": "0.0-160.0-6.0", "time_elapsed": 1034022, "key_press": -1, "trial_index": 220}, "uniqueid": "MTK2275:37TD41K0AIGOB504UGB812SPB3KSC7", "dateTime": 1516911472310}, {"current_trial": 221, "trialdata": {"rt": -1, "trial_type": "single-stim", "stimulus": "<p id=\"stim\">3</p>", "internal_node_id": "0.0-160.0-7.0", "time_elapsed": 1035026, "key_press": -1, "trial_index": 221}, "uniqueid": "MTK2275:37TD41K0AIGOB504UGB812SPB3KSC7", "dateTime": 1516911473314}, {"current_trial": 222, "trialdata": {"rt": -1, "trial_type": "single-stim", "stimulus": "<p id=\"stim\">2</p>", "internal_node_id": "0.0-160.0-8.0", "time_elapsed": 1036030, "key_press": -1, "trial_index": 222}, "uniqueid": "MTK2275:37TD41K0AIGOB504UGB812SPB3KSC7", "dateTime": 1516911474318}, {"current_trial": 223, "trialdata": {"rt": -1, "trial_type": "single-stim", "stimulus": "<p id=\"stim\">1</p>", "internal_node_id": "0.0-160.0-9.0", "time_elapsed": 1037034, "key_press": -1, "trial_index": 223}, "uniqueid": "MTK2275:37TD41K0AIGOB504UGB812SPB3KSC7", "dateTime": 1516911475322}, {"current_trial": 224, "trialdata": {"rt": -1, "trial_type": "single-stim", "stimulus": "<p id=\"stim\">+</p>", "internal_node_id": "0.0-161.0-0.0", "time_elapsed": 1038537, "key_press": -1, "type": "FIXATION", "trial_index": 224}, "uniqueid": "MTK2275:37TD41K0AIGOB504UGB812SPB3KSC7", "dateTime": 1516911476826}, {"current_trial": 225, "trialdata": {"rt": -1, "trial_type": "single-stim", "word": "lizard", "stimulus": "<p id=\"stim\">LIZARD</p>", "conditions": [24, 800, "v", 12000], "internal_node_id": "0.0-162.0", "trial": 6, "time_elapsed": 1039338, "serialpos": 0, "key_press": -1, "wordID": 833, "type": "PRES_VIS", "trial_index": 225}, "uniqueid": "MTK2275:37TD41K0AIGOB504UGB812SPB3KSC7", "dateTime": 1516911477627}, {"current_trial": 226, "trialdata": {"rt": -1, "trial_type": "single-stim", "word": "rabbit", "stimulus": "<p id=\"stim\">RABBIT</p>", "conditions": [24, 800, "v", 12000], "internal_node_id": "0.0-163.0", "trial": 6, "time_elapsed": 1041283, "serialpos": 1, "key_press": -1, "wordID": 1151, "type": "PRES_VIS", "trial_index": 226}, "uniqueid": "MTK2275:37TD41K0AIGOB504UGB812SPB3KSC7", "dateTime": 1516911479571}, {"current_trial": 227, "trialdata": {"rt": -1, "trial_type": "single-stim", "word": "crevice", "stimulus": "<p id=\"stim\">CREVICE</p>", "conditions": [24, 800, "v", 12000], "internal_node_id": "0.0-164.0", "trial": 6, "time_elapsed": 1043122, "serialpos": 2, "key_press": -1, "wordID": 404, "type": "PRES_VIS", "trial_index": 227}, "uniqueid": "MTK2275:37TD41K0AIGOB504UGB812SPB3KSC7", "dateTime": 1516911481411}, {"current_trial": 228, "trialdata": {"rt": -1, "trial_type": "single-stim", "word": "picnic", "stimulus": "<p id=\"stim\">PICNIC</p>", "conditions": [24, 800, "v", 12000], "internal_node_id": "0.0-165.0", "trial": 6, "time_elapsed": 1044904, "serialpos": 3, "key_press": -1, "wordID": 1059, "type": "PRES_VIS", "trial_index": 228}, "uniqueid": "MTK2275:37TD41K0AIGOB504UGB812SPB3KSC7", "dateTime": 1516911483192}, {"current_trial": 229, "trialdata": {"rt": -1, "trial_type": "single-stim", "word": "velvet", "stimulus": "<p id=\"stim\">VELVET</p>", "conditions": [24, 800, "v", 12000], "internal_node_id": "0.0-166.0", "trial": 6, "time_elapsed": 1046895, "serialpos": 4, "key_press": -1, "wordID": 1554, "type": "PRES_VIS", "trial_index": 229}, "uniqueid": "MTK2275:37TD41K0AIGOB504UGB812SPB3KSC7", "dateTime": 1516911485183}, {"current_trial": 230, "trialdata": {"rt": -1, "trial_type": "single-stim", "word": "asia", "stimulus": "<p id=\"stim\">ASIA</p>", "conditions": [24, 800, "v", 12000], "internal_node_id": "0.0-167.0", "trial": 6, "time_elapsed": 1048653, "serialpos": 5, "key_press": -1, "wordID": 45, "type": "PRES_VIS", "trial_index": 230}, "uniqueid": "MTK2275:37TD41K0AIGOB504UGB812SPB3KSC7", "dateTime": 1516911486941}, {"current_trial": 231, "trialdata": {"rt": -1, "trial_type": "single-stim", "word": "viking", "stimulus": "<p id=\"stim\">VIKING</p>", "conditions": [24, 800, "v", 12000], "internal_node_id": "0.0-168.0", "trial": 6, "time_elapsed": 1050551, "serialpos": 6, "key_press": -1, "wordID": 1564, "type": "PRES_VIS", "trial_index": 231}, "uniqueid": "MTK2275:37TD41K0AIGOB504UGB812SPB3KSC7", "dateTime": 1516911488839}, {"current_trial": 232, "trialdata": {"rt": -1, "trial_type": "single-stim", "word": "dentist", "stimulus": "<p id=\"stim\">DENTIST</p>", "conditions": [24, 800, "v", 12000], "internal_node_id": "0.0-169.0", "trial": 6, "time_elapsed": 1052327, "serialpos": 7, "key_press": -1, "wordID": 446, "type": "PRES_VIS", "trial_index": 232}, "uniqueid": "MTK2275:37TD41K0AIGOB504UGB812SPB3KSC7", "dateTime": 1516911490615}, {"current_trial": 233, "trialdata": {"rt": -1, "trial_type": "single-stim", "word": "rifle", "stimulus": "<p id=\"stim\">RIFLE</p>", "conditions": [24, 800, "v", 12000], "internal_node_id": "0.0-170.0", "trial": 6, "time_elapsed": 1053975, "serialpos": 8, "key_press": -1, "wordID": 1191, "type": "PRES_VIS", "trial_index": 233}, "uniqueid": "MTK2275:37TD41K0AIGOB504UGB812SPB3KSC7", "dateTime": 1516911492264}, {"current_trial": 234, "trialdata": {"rt": -1, "trial_type": "single-stim", "word": "police", "stimulus": "<p id=\"stim\">POLICE</p>", "conditions": [24, 800, "v", 12000], "internal_node_id": "0.0-171.0", "trial": 6, "time_elapsed": 1055780, "serialpos": 9, "key_press": -1, "wordID": 1097, "type": "PRES_VIS", "trial_index": 234}, "uniqueid": "MTK2275:37TD41K0AIGOB504UGB812SPB3KSC7", "dateTime": 1516911494069}, {"current_trial": 235, "trialdata": {"rt": -1, "trial_type": "single-stim", "word": "supper", "stimulus": "<p id=\"stim\">SUPPER</p>", "conditions": [24, 800, "v", 12000], "internal_node_id": "0.0-172.0", "trial": 6, "time_elapsed": 1057667, "serialpos": 10, "key_press": -1, "wordID": 1410, "type": "PRES_VIS", "trial_index": 235}, "uniqueid": "MTK2275:37TD41K0AIGOB504UGB812SPB3KSC7", "dateTime": 1516911495955}, {"current_trial": 236, "trialdata": {"rt": -1, "trial_type": "single-stim", "word": "shovel", "stimulus": "<p id=\"stim\">SHOVEL</p>", "conditions": [24, 800, "v", 12000], "internal_node_id": "0.0-173.0", "trial": 6, "time_elapsed": 1059530, "serialpos": 11, "key_press": -1, "wordID": 1294, "type": "PRES_VIS", "trial_index": 236}, "uniqueid": "MTK2275:37TD41K0AIGOB504UGB812SPB3KSC7", "dateTime": 1516911497818}, {"current_trial": 237, "trialdata": {"rt": -1, "trial_type": "single-stim", "word": "crutch", "stimulus": "<p id=\"stim\">CRUTCH</p>", "conditions": [24, 800, "v", 12000], "internal_node_id": "0.0-174.0", "trial": 6, "time_elapsed": 1061369, "serialpos": 12, "key_press": -1, "wordID": 416, "type": "PRES_VIS", "trial_index": 237}, "uniqueid": "MTK2275:37TD41K0AIGOB504UGB812SPB3KSC7", "dateTime": 1516911499658}, {"current_trial": 238, "trialdata": {"rt": -1, "trial_type": "single-stim", "word": "camel", "stimulus": "<p id=\"stim\">CAMEL</p>", "conditions": [24, 800, "v", 12000], "internal_node_id": "0.0-175.0", "trial": 6, "time_elapsed": 1063087, "serialpos": 13, "key_press": -1, "wordID": 222, "type": "PRES_VIS", "trial_index": 238}, "uniqueid": "MTK2275:37TD41K0AIGOB504UGB812SPB3KSC7", "dateTime": 1516911501375}, {"current_trial": 239, "trialdata": {"rt": -1, "trial_type": "single-stim", "word": "brandy", "stimulus": "<p id=\"stim\">BRANDY</p>", "conditions": [24, 800, "v", 12000], "internal_node_id": "0.0-176.0", "trial": 6, "time_elapsed": 1064811, "serialpos": 14, "key_press": -1, "wordID": 168, "type": "PRES_VIS", "trial_index": 239}, "uniqueid": "MTK2275:37TD41K0AIGOB504UGB812SPB3KSC7", "dateTime": 1516911503099}, {"current_trial": 240, "trialdata": {"rt": -1, "trial_type": "single-stim", "word": "fragrance", "stimulus": "<p id=\"stim\">FRAGRANCE</p>", "conditions": [24, 800, "v", 12000], "internal_node_id": "0.0-177.0", "trial": 6, "time_elapsed": 1066651, "serialpos": 15, "key_press": -1, "wordID": 598, "type": "PRES_VIS", "trial_index": 240}, "uniqueid": "MTK2275:37TD41K0AIGOB504UGB812SPB3KSC7", "dateTime": 1516911504939}, {"current_trial": 241, "trialdata": {"rt": -1, "trial_type": "single-stim", "word": "casket", "stimulus": "<p id=\"stim\">CASKET</p>", "conditions": [24, 800, "v", 12000], "internal_node_id": "0.0-178.0", "trial": 6, "time_elapsed": 1068456, "serialpos": 16, "key_press": -1, "wordID": 254, "type": "PRES_VIS", "trial_index": 241}, "uniqueid": "MTK2275:37TD41K0AIGOB504UGB812SPB3KSC7", "dateTime": 1516911506744}, {"current_trial": 242, "trialdata": {"rt": -1, "trial_type": "single-stim", "word": "sunset", "stimulus": "<p id=\"stim\">SUNSET</p>", "conditions": [24, 800, "v", 12000], "internal_node_id": "0.0-179.0", "trial": 6, "time_elapsed": 1070220, "serialpos": 17, "key_press": -1, "wordID": 1407, "type": "PRES_VIS", "trial_index": 242}, "uniqueid": "MTK2275:37TD41K0AIGOB504UGB812SPB3KSC7", "dateTime": 1516911508508}, {"current_trial": 243, "trialdata": {"rt": -1, "trial_type": "single-stim", "word": "box", "stimulus": "<p id=\"stim\">BOX</p>", "conditions": [24, 800, "v", 12000], "internal_node_id": "0.0-180.0", "trial": 6, "time_elapsed": 1072182, "serialpos": 18, "key_press": -1, "wordID": 158, "type": "PRES_VIS", "trial_index": 243}, "uniqueid": "MTK2275:37TD41K0AIGOB504UGB812SPB3KSC7", "dateTime": 1516911510470}, {"current_trial": 244, "trialdata": {"rt": -1, "trial_type": "single-stim", "word": "bouquet", "stimulus": "<p id=\"stim\">BOUQUET</p>", "conditions": [24, 800, "v", 12000], "internal_node_id": "0.0-181.0", "trial": 6, "time_elapsed": 1074103, "serialpos": 19, "key_press": -1, "wordID": 156, "type": "PRES_VIS", "trial_index": 244}, "uniqueid": "MTK2275:37TD41K0AIGOB504UGB812SPB3KSC7", "dateTime": 1516911512391}, {"current_trial": 245, "trialdata": {"rt": -1, "trial_type": "single-stim", "word": "canyon", "stimulus": "<p id=\"stim\">CANYON</p>", "conditions": [24, 800, "v", 12000], "internal_node_id": "0.0-182.0", "trial": 6, "time_elapsed": 1075745, "serialpos": 20, "key_press": -1, "wordID": 234, "type": "PRES_VIS", "trial_index": 245}, "uniqueid": "MTK2275:37TD41K0AIGOB504UGB812SPB3KSC7", "dateTime": 1516911514033}, {"current_trial": 246, "trialdata": {"rt": -1, "trial_type": "single-stim", "word": "valley", "stimulus": "<p id=\"stim\">VALLEY</p>", "conditions": [24, 800, "v", 12000], "internal_node_id": "0.0-183.0", "trial": 6, "time_elapsed": 1077742, "serialpos": 21, "key_press": -1, "wordID": 1544, "type": "PRES_VIS", "trial_index": 246}, "uniqueid": "MTK2275:37TD41K0AIGOB504UGB812SPB3KSC7", "dateTime": 1516911516030}, {"current_trial": 247, "trialdata": {"rt": -1, "trial_type": "single-stim", "word": "scotch", "stimulus": "<p id=\"stim\">SCOTCH</p>", "conditions": [24, 800, "v", 12000], "internal_node_id": "0.0-184.0", "trial": 6, "time_elapsed": 1079355, "serialpos": 22, "key_press": -1, "wordID": 1250, "type": "PRES_VIS", "trial_index": 247}, "uniqueid": "MTK2275:37TD41K0AIGOB504UGB812SPB3KSC7", "dateTime": 1516911517643}, {"current_trial": 248, "trialdata": {"rt": -1, "trial_type": "single-stim", "word": "pigment", "stimulus": "<p id=\"stim\">PIGMENT</p>", "conditions": [24, 800, "v", 12000], "internal_node_id": "0.0-185.0", "trial": 6, "time_elapsed": 1080998, "serialpos": 23, "key_press": -1, "wordID": 1065, "type": "PRES_VIS", "trial_index": 248}, "uniqueid": "MTK2275:37TD41K0AIGOB504UGB812SPB3KSC7", "dateTime": 1516911519286}, {"current_trial": 249, "trialdata": {"rt": -1, "trial_type": "single-stim", "stimulus": "", "internal_node_id": "0.0-186.0-0.0", "time_elapsed": 1083348, "key_press": -1, "type": "PRE_RECALL_DELAY", "trial_index": 249}, "uniqueid": "MTK2275:37TD41K0AIGOB504UGB812SPB3KSC7", "dateTime": 1516911521636}, {"current_trial": 250, "trialdata": {"rt": -1000, "trial_type": "single-audio", "stimulus": "/static/audio/400Hz.wav", "internal_node_id": "0.0-187.0", "time_elapsed": 1083850, "key_press": -1, "type": "PRE_RECALL_ALERT", "trial_index": 250}, "uniqueid": "MTK2275:37TD41K0AIGOB504UGB812SPB3KSC7", "dateTime": 1516911522138}, {"current_trial": 251, "trialdata": {"rt": [1803, 3435, 5516, 6742, 8609, 22177, 25619, 32943, 41325, 50100], "recwords": ["pigment", "scotch", "valley", "box", "lizard", "police", "pigment", "rabbit", "hunting", "box"], "key_times": [781, 881, 1028, 1185, 1297, 1376, 1477, 1803, 2242, 2456, 2726, 2883, 3142, 3221, 3435, 3952, 4121, 4267, 4436, 4908, 5021, 5516, 6090, 6213, 6461, 6742, 7237, 7372, 7687, 7811, 8013, 8126, 8609, 21008, 21063, 21345, 21412, 21907, 22042, 22177, 24202, 24292, 25034, 25158, 25305, 25383, 25507, 25619, 32066, 32313, 32415, 32583, 32662, 32808, 32943, 40481, 40593, 40773, 40919, 41032, 