{"assignmentId": "39OWYR0EPLYSA3WNKOTYRU1TR5XFYI", "workerId": "MTK2804", "questiondata": {"origin": "United States", "strat-rehearsal": "2", "marital": "Married/Domestic Partnership", "education": "Bachelor's degree", "ethnicity": "Not Hispanic", "color_depth": 24, "distracted": "No", "wrote-notes": "No", "strat-other": "N/A", "screen_width": 1536, "avail_screen_width": 1536, "avail_screen_height": 816, "strat-image": "25", "language": "English", "gender": "Female", "age": "33", "gender_other": "", "race": ["White"], "strat-categorize": "75", "pixel_depth": 24, "strat-spatial": "0", "strat-story": "41", "race_other": "", "screen_height": 864}, "bonus": 0, "hitId": "3EFNPKWBMSVYACMF2JCL99MSRR3031", "counterbalance": 2577, "useragent": "Mozilla/5.0 (X11; CrOS x86_64 10176.68.0) AppleWebKit/537.36 (KHTML, like Gecko) Chrome/64.0.3282.144 Safari/537.36", "eventdata": [{"eventtype": "initialized", "interval": 0, "value": null, "timestamp": 1519402973606}, {"eventtype": "window_resize", "interval": 0, "value": [1536, 752], "timestamp": 1519402973606}], "data": [{"current_trial": 0, "trialdata": {"rt": 2450, "trial_type": "text", "internal_node_id": "0.0-0.0", "time_elapsed": 2454, "key_press": 32, "type": "INSTRUCTIONS", "trial_index": 0}, "uniqueid": "MTK2804:39OWYR0EPLYSA3WNKOTYRU1TR5XFYI", "dateTime": 1519402976675}, {"current_trial": 1, "trialdata": {"rt": 25938, "trial_type": "text", "internal_node_id": "0.0-1.0", "time_elapsed": 28395, "key_press": 32, "type": "INSTRUCTIONS", "trial_index": 1}, "uniqueid": "MTK2804:39OWYR0EPLYSA3WNKOTYRU1TR5XFYI", "dateTime": 1519403002615}, {"current_trial": 2, "trialdata": {"rt": [8019], "trial_type": "audio-test", "responses": ["ocean"], "internal_node_id": "0.0-2.0", "time_elapsed": 36460, "type": "AUDIO_TEST", "trial_index": 2}, "uniqueid": "MTK2804:39OWYR0EPLYSA3WNKOTYRU1TR5XFYI", "dateTime": 1519403010680}, {"current_trial": 3, "trialdata": {"rt": [11591], "trial_type": "audio-test", "responses": ["crystal"], "internal_node_id": "0.0-3.0", "time_elapsed": 48062, "type": "AUDIO_TEST", "trial_index": 3}, "uniqueid": "MTK2804:39OWYR0EPLYSA3WNKOTYRU1TR5XFYI", "dateTime": 1519403022282}, {"current_trial": 4, "trialdata": {"rt": [6243], "trial_type": "audio-test", "responses": ["spice"], "internal_node_id": "0.0-4.0", "time_elapsed": 54314, "type": "AUDIO_TEST", "trial_index": 4}, "uniqueid": "MTK2804:39OWYR0EPLYSA3WNKOTYRU1TR5XFYI", "dateTime": 1519403028534}, {"current_trial": 5, "trialdata": {"rt": 30788, "trial_type": "survey-text", "responses": "{\"Q0\":\"11:00pm\",\"Q1\":\"6:30am\",\"Q2\":\"4\"}", "internal_node_id": "0.0-5.0", "time_elapsed": 85858, "type": "SLEEP_SURVEY", "trial_index": 5}, "uniqueid": "MTK2804:39OWYR0EPLYSA3WNKOTYRU1TR5XFYI", "dateTime": 1519403060078}, {"current_trial": 6, "trialdata": {"rt": 43858, "trial_type": "text", "internal_node_id": "0.0-6.0", "time_elapsed": 130718, "key_press": 32, "type": "INSTRUCTIONS", "trial_index": 6}, "uniqueid": "MTK2804:39OWYR0EPLYSA3WNKOTYRU1TR5XFYI", "dateTime": 1519403104938}, {"current_trial": 7, "trialdata": {"rt": 16813, "trial_type": "text", "internal_node_id": "0.0-7.0", "time_elapsed": 148034, "key_press": 32, "type": "INSTRUCTIONS", "trial_index": 7}, "uniqueid": "MTK2804:39OWYR0EPLYSA3WNKOTYRU1TR5XFYI", "dateTime": 1519403122254}, {"current_trial": 8, "trialdata": {"rt": 17778, "trial_type": "text", "internal_node_id": "0.0-8.0", "time_elapsed": 166318, "key_press": 32, "type": "INSTRUCTIONS", "trial_index": 8}, "uniqueid": "MTK2804:39OWYR0EPLYSA3WNKOTYRU1TR5XFYI", "dateTime": 1519403140538}, {"current_trial": 9, "trialdata": {"rt": [3810, 5536, 7796, 13610], "trial_type": "math-distractor", "key_times": [2503, 3020, 3810, 5113, 5304, 5536, 7494, 7620, 7796, 13051, 13411, 13610, 15902, 16329, 17152, 17755], "responses": ["13", "13", "13", "12"], "num2": [8, 4, 4, 5, 8], "num3": [2, 1, 1, 4, 6], "conditions": [18, 1200, "v", 18000], "internal_node_id": "0.0-9.0", "key_presses": [49, 51, 13, 49, 51, 13, 49, 51, 13, 49, 50, 13, 49, 56, 8, 57], "trial": 0, "time_elapsed": 185365, "type": "DISTRACTOR", "trial_index": 9, "num1": [3, 8, 8, 3, 5]}, "uniqueid": "MTK2804:39OWYR0EPLYSA3WNKOTYRU1TR5XFYI", "dateTime": 1519403159585}, {"current_trial": 10, "trialdata": {"rt": -1, "trial_type": "single-stim", "stimulus": "<p id=\"stim\">10</p>", "internal_node_id": "0.0-10.0-0.0", "time_elapsed": 188375, "key_press": -1, "trial_index": 10}, "uniqueid": "MTK2804:39OWYR0EPLYSA3WNKOTYRU1TR5XFYI", "dateTime": 1519403162595}, {"current_trial": 11, "trialdata": {"rt": -1, "trial_type": "single-stim", "stimulus": "<p id=\"stim\">9</p>", "internal_node_id": "0.0-10.0-1.0", "time_elapsed": 189381, "key_press": -1, "trial_index": 11}, "uniqueid": "MTK2804:39OWYR0EPLYSA3WNKOTYRU1TR5XFYI", "dateTime": 1519403163602}, {"current_trial": 12, "trialdata": {"rt": -1, "trial_type": "single-stim", "stimulus": "<p id=\"stim\">8</p>", "internal_node_id": "0.0-10.0-2.0", "time_elapsed": 190385, "key_press": -1, "trial_index": 12}, "uniqueid": "MTK2804:39OWYR0EPLYSA3WNKOTYRU1TR5XFYI", "dateTime": 1519403164605}, {"current_trial": 13, "trialdata": {"rt": -1, "trial_type": "single-stim", "stimulus": "<p id=\"stim\">7</p>", "internal_node_id": "0.0-10.0-3.0", "time_elapsed": 191389, "key_press": -1, "trial_index": 13}, "uniqueid": "MTK2804:39OWYR0EPLYSA3WNKOTYRU1TR5XFYI", "dateTime": 1519403165609}, {"current_trial": 14, "trialdata": {"rt": -1, "trial_type": "single-stim", "stimulus": "<p id=\"stim\">6</p>", "internal_node_id": "0.0-10.0-4.0", "time_elapsed": 192392, "key_press": -1, "trial_index": 14}, "uniqueid": "MTK2804:39OWYR0EPLYSA3WNKOTYRU1TR5XFYI", "dateTime": 1519403166612}, {"current_trial": 15, "trialdata": {"rt": -1, "trial_type": "single-stim", "stimulus": "<p id=\"stim\">5</p>", "internal_node_id": "0.0-10.0-5.0", "time_elapsed": 193396, "key_press": -1, "trial_index": 15}, "uniqueid": "MTK2804:39OWYR0EPLYSA3WNKOTYRU1TR5XFYI", "dateTime": 1519403167616}, {"current_trial": 16, "trialdata": {"rt": -1, "trial_type": "single-stim", "stimulus": "<p id=\"stim\">4</p>", "internal_node_id": "0.0-10.0-6.0", "time_elapsed": 194399, "key_press": -1, "trial_index": 16}, "uniqueid": "MTK2804:39OWYR0EPLYSA3WNKOTYRU1TR5XFYI", "dateTime": 1519403168619}, {"current_trial": 17, "trialdata": {"rt": -1, "trial_type": "single-stim", "stimulus": "<p id=\"stim\">3</p>", "internal_node_id": "0.0-10.0-7.0", "time_elapsed": 195412, "key_press": -1, "trial_index": 17}, "uniqueid": "MTK2804:39OWYR0EPLYSA3WNKOTYRU1TR5XFYI", "dateTime": 1519403169632}, {"current_trial": 18, "trialdata": {"rt": -1, "trial_type": "single-stim", "stimulus": "<p id=\"stim\">2</p>", "internal_node_id": "0.0-10.0-8.0", "time_elapsed": 196415, "key_press": -1, "trial_index": 18}, "uniqueid": "MTK2804:39OWYR0EPLYSA3WNKOTYRU1TR5XFYI", "dateTime": 1519403170635}, {"current_trial": 19, "trialdata": {"rt": -1, "trial_type": "single-stim", "stimulus": "<p id=\"stim\">1</p>", "internal_node_id": "0.0-10.0-9.0", "time_elapsed": 197419, "key_press": -1, "trial_index": 19}, "uniqueid": "MTK2804:39OWYR0EPLYSA3WNKOTYRU1TR5XFYI", "dateTime": 1519403171639}, {"current_trial": 20, "trialdata": {"rt": -1, "trial_type": "single-stim", "stimulus": "<p id=\"stim\">+</p>", "internal_node_id": "0.0-11.0-0.0", "time_elapsed": 198921, "key_press": -1, "type": "FIXATION", "trial_index": 20}, "uniqueid": "MTK2804:39OWYR0EPLYSA3WNKOTYRU1TR5XFYI", "dateTime": 1519403173141}, {"current_trial": 21, "trialdata": {"rt": -1, "trial_type": "single-stim", "word": "supper", "stimulus": "<p id=\"stim\">SUPPER</p>", "conditions": [18, 1200, "v", 18000], "internal_node_id": "0.0-12.0", "trial": 0, "time_elapsed": 200125, "serialpos": 0, "key_press": -1, "wordID": 1410, "type": "PRES_VIS", "trial_index": 21}, "uniqueid": "MTK2804:39OWYR0EPLYSA3WNKOTYRU1TR5XFYI", "dateTime": 1519403174345}, {"current_trial": 22, "trialdata": {"rt": -1, "trial_type": "single-stim", "word": "compass", "stimulus": "<p id=\"stim\">COMPASS</p>", "conditions": [18, 1200, "v", 18000], "internal_node_id": "0.0-13.0", "trial": 0, "time_elapsed": 202381, "serialpos": 1, "key_press": -1, "wordID": 357, "type": "PRES_VIS", "trial_index": 22}, "uniqueid": "MTK2804:39OWYR0EPLYSA3WNKOTYRU1TR5XFYI", "dateTime": 1519403176601}, {"current_trial": 23, "trialdata": {"rt": -1, "trial_type": "single-stim", "word": "icing", "stimulus": "<p id=\"stim\">ICING</p>", "conditions": [18, 1200, "v", 18000], "internal_node_id": "0.0-14.0", "trial": 0, "time_elapsed": 204493, "serialpos": 2, "key_press": -1, "wordID": 731, "type": "PRES_VIS", "trial_index": 23}, "uniqueid": "MTK2804:39OWYR0EPLYSA3WNKOTYRU1TR5XFYI", "dateTime": 1519403178714}, {"current_trial": 24, "trialdata": {"rt": -1, "trial_type": "single-stim", "word": "cellar", "stimulus": "<p id=\"stim\">CELLAR</p>", "conditions": [18, 1200, "v", 18000], "internal_node_id": "0.0-15.0", "trial": 0, "time_elapsed": 206556, "serialpos": 3, "key_press": -1, "wordID": 266, "type": "PRES_VIS", "trial_index": 24}, "uniqueid": "MTK2804:39OWYR0EPLYSA3WNKOTYRU1TR5XFYI", "dateTime": 1519403180776}, {"current_trial": 25, "trialdata": {"rt": -1, "trial_type": "single-stim", "word": "bug", "stimulus": "<p id=\"stim\">BUG</p>", "conditions": [18, 1200, "v", 18000], "internal_node_id": "0.0-16.0", "trial": 0, "time_elapsed": 208916, "serialpos": 4, "key_press": -1, "wordID": 186, "type": "PRES_VIS", "trial_index": 25}, "uniqueid": "MTK2804:39OWYR0EPLYSA3WNKOTYRU1TR5XFYI", "dateTime": 1519403183136}, {"current_trial": 26, "trialdata": {"rt": -1, "trial_type": "single-stim", "word": "plaster", "stimulus": "<p id=\"stim\">PLASTER</p>", "conditions": [18, 1200, "v", 18000], "internal_node_id": "0.0-17.0", "trial": 0, "time_elapsed": 211156, "serialpos": 5, "key_press": -1, "wordID": 1084, "type": "PRES_VIS", "trial_index": 26}, "uniqueid": "MTK2804:39OWYR0EPLYSA3WNKOTYRU1TR5XFYI", "dateTime": 1519403185376}, {"current_trial": 27, "trialdata": {"rt": -1, "trial_type": "single-stim", "word": "lava", "stimulus": "<p id=\"stim\">LAVA</p>", "conditions": [18, 1200, "v", 18000], "internal_node_id": "0.0-18.0", "trial": 0, "time_elapsed": 213439, "serialpos": 6, "key_press": -1, "wordID": 803, "type": "PRES_VIS", "trial_index": 27}, "uniqueid": "MTK2804:39OWYR0EPLYSA3WNKOTYRU1TR5XFYI", "dateTime": 1519403187659}, {"current_trial": 28, "trialdata": {"rt": -1, "trial_type": "single-stim", "word": "rifle", "stimulus": "<p id=\"stim\">RIFLE</p>", "conditions": [18, 1200, "v", 18000], "internal_node_id": "0.0-19.0", "trial": 0, "time_elapsed": 215715, "serialpos": 7, "key_press": -1, "wordID": 1191, "type": "PRES_VIS", "trial_index": 28}, "uniqueid": "MTK2804:39OWYR0EPLYSA3WNKOTYRU1TR5XFYI", "dateTime": 1519403189935}, {"current_trial": 29, "trialdata": {"rt": -1, "trial_type": "single-stim", "word": "flipper", "stimulus": "<p id=\"stim\">FLIPPER</p>", "conditions": [18, 1200, "v", 18000], "internal_node_id": "0.0-20.0", "trial": 0, "time_elapsed": 217725, "serialpos": 8, "key_press": -1, "wordID": 579, "type": "PRES_VIS", "trial_index": 29}, "uniqueid": "MTK2804:39OWYR0EPLYSA3WNKOTYRU1TR5XFYI", "dateTime": 1519403191945}, {"current_trial": 30, "trialdata": {"rt": -1, "trial_type": "single-stim", "word": "flask", "stimulus": "<p id=\"stim\">FLASK</p>", "conditions": [18, 1200, "v", 18000], "internal_node_id": "0.0-21.0", "trial": 0, "time_elapsed": 219758, "serialpos": 9, "key_press": -1, "wordID": 575, "type": "PRES_VIS", "trial_index": 30}, "uniqueid": "MTK2804:39OWYR0EPLYSA3WNKOTYRU1TR5XFYI", "dateTime": 1519403193979}, {"current_trial": 31, "trialdata": {"rt": -1, "trial_type": "single-stim", "word": "robot", "stimulus": "<p id=\"stim\">ROBOT</p>", "conditions": [18, 1200, "v", 18000], "internal_node_id": "0.0-22.0", "trial": 0, "time_elapsed": 221921, "serialpos": 10, "key_press": -1, "wordID": 1199, "type": "PRES_VIS", "trial_index": 31}, "uniqueid": "MTK2804:39OWYR0EPLYSA3WNKOTYRU1TR5XFYI", "dateTime": 1519403196141}, {"current_trial": 32, "trialdata": {"rt": -1, "trial_type": "single-stim", "word": "honey", "stimulus": "<p id=\"stim\">HONEY</p>", "conditions": [18, 1200, "v", 18000], "internal_node_id": "0.0-23.0", "trial": 0, "time_elapsed": 224162, "serialpos": 11, "key_press": -1, "wordID": 712, "type": "PRES_VIS", "trial_index": 32}, "uniqueid": "MTK2804:39OWYR0EPLYSA3WNKOTYRU1TR5XFYI", "dateTime": 1519403198383}, {"current_trial": 33, "trialdata": {"rt": -1, "trial_type": "single-stim", "word": "pilot", "stimulus": "<p id=\"stim\">PILOT</p>", "conditions": [18, 1200, "v", 18000], "internal_node_id": "0.0-24.0", "trial": 0, "time_elapsed": 226519, "serialpos": 12, "key_press": -1, "wordID": 1069, "type": "PRES_VIS", "trial_index": 33}, "uniqueid": "MTK2804:39OWYR0EPLYSA3WNKOTYRU1TR5XFYI", "dateTime": 1519403200739}, {"current_trial": 34, "trialdata": {"rt": -1, "trial_type": "single-stim", "word": "pebble", "stimulus": "<p id=\"stim\">PEBBLE</p>", "conditions": [18, 1200, "v", 18000], "internal_node_id": "0.0-25.0", "trial": 0, "time_elapsed": 228693, "serialpos": 13, "key_press": -1, "wordID": 1034, "type": "PRES_VIS", "trial_index": 34}, "uniqueid": "MTK2804:39OWYR0EPLYSA3WNKOTYRU1TR5XFYI", "dateTime": 1519403202914}, {"current_trial": 35, "trialdata": {"rt": -1, "trial_type": "single-stim", "word": "drawing", "stimulus": "<p id=\"stim\">DRAWING</p>", "conditions": [18, 1200, "v", 18000], "internal_node_id": "0.0-26.0", "trial": 0, "time_elapsed": 230939, "serialpos": 14, "key_press": -1, "wordID": 493, "type": "PRES_VIS", "trial_index": 35}, "uniqueid": "MTK2804:39OWYR0EPLYSA3WNKOTYRU1TR5XFYI", "dateTime": 1519403205160}, {"current_trial": 36, "trialdata": {"rt": -1, "trial_type": "single-stim", "word": "cabbage", "stimulus": "<p id=\"stim\">CABBAGE</p>", "conditions": [18, 1200, "v", 18000], "internal_node_id": "0.0-27.0", "trial": 0, "time_elapsed": 233181, "serialpos": 15, "key_press": -1, "wordID": 209, "type": "PRES_VIS", "trial_index": 36}, "uniqueid": "MTK2804:39OWYR0EPLYSA3WNKOTYRU1TR5XFYI", "dateTime": 1519403207401}, {"current_trial": 37, "trialdata": {"rt": -1, "trial_type": "single-stim", "word": "freckle", "stimulus": "<p id=\"stim\">FRECKLE</p>", "conditions": [18, 1200, "v", 18000], "internal_node_id": "0.0-28.0", "trial": 0, "time_elapsed": 235556, "serialpos": 16, "key_press": -1, "wordID": 601, "type": "PRES_VIS", "trial_index": 37}, "uniqueid": "MTK2804:39OWYR0EPLYSA3WNKOTYRU1TR5XFYI", "dateTime": 1519403209776}, {"current_trial": 38, "trialdata": {"rt": -1, "trial_type": "single-stim", "word": "coffee", "stimulus": "<p id=\"stim\">COFFEE</p>", "conditions": [18, 1200, "v", 18000], "internal_node_id": "0.0-29.0", "trial": 0, "time_elapsed": 237688, "serialpos": 17, "key_press": -1, "wordID": 340, "type": "PRES_VIS", "trial_index": 38}, "uniqueid": "MTK2804:39OWYR0EPLYSA3WNKOTYRU1TR5XFYI", "dateTime": 1519403211908}, {"current_trial": 39, "trialdata": {"rt": -1, "trial_type": "single-stim", "stimulus": "", "internal_node_id": "0.0-30.0-0.0", "time_elapsed": 240072, "key_press": -1, "type": "PRE_RECALL_DELAY", "trial_index": 39}, "uniqueid": "MTK2804:39OWYR0EPLYSA3WNKOTYRU1TR5XFYI", "dateTime": 1519403214292}, {"current_trial": 40, "trialdata": {"rt": -1000, "trial_type": "single-audio", "stimulus": "/static/audio/400Hz.wav", "internal_node_id": "0.0-31.0", "time_elapsed": 240580, "key_press": -1, "type": "PRE_RECALL_ALERT", "trial_index": 40}, "uniqueid": "MTK2804:39OWYR0EPLYSA3WNKOTYRU1TR5XFYI", "dateTime": 1519403214800}, {"current_trial": 41, "trialdata": {"rt": [2926, 8028, 10241, 12090, 16908, 19358, 22720, 26094, 37592, 53500], "recwords": ["icing", "flipper", "coffee", "plaster", "cabbage", "pebble", "supper", "bug", "honey", "flask"], "key_times": [1755, 1947, 2020, 2184, 2491, 2926, 3412, 3558, 3761, 3944, 4081, 4577, 4731, 5587, 5839, 6176, 6336, 7124, 7294, 7506, 7620, 8028, 8496, 8623, 9026, 9327, 9631, 9827, 10241, 10617, 10877, 11046, 11089, 11333, 11600, 11704, 12090, 12496, 12702, 13239, 13428, 14156, 14856, 15158, 15866, 16044, 16368, 16614, 16908, 17337, 17528, 17893, 18065, 18268, 18696, 19358, 19788, 19983, 20238, 20448, 20638, 20827, 22720, 24977, 25098, 25512, 26094, 36150, 36341, 36540, 36723, 36831, 37592, 50333, 50588, 50878, 50976, 51412, 51566, 51883, 52425, 52646, 53000, 53173, 53500], "trial_type": "free-recall", "conditions": [18, 1200, "v", 18000], "internal_node_id": "0.0-32.0-0.0", "key_presses": [73, 67, 73, 78, 71, 13, 70, 76, 73, 71, 71, 8, 8, 219, 219, 8, 8, 80, 80, 69, 82, 13, 67, 79, 70, 70, 69, 69, 13, 80, 76, 65, 83, 84, 69, 82, 13, 67, 65, 66, 66, 71, 8, 71, 8, 65, 71, 69, 13, 80, 69, 66, 66, 76, 69, 13, 83, 85, 80, 80, 69, 82, 13, 66, 85, 71, 13, 72, 79, 78, 69, 89, 13, 70, 76, 83, 75, 8, 8, 83, 8, 65, 83, 75, 13], "trial": 0, "time_elapsed": 300587, "type": "FREE_RECALL", "trial_index": 41}, "uniqueid": "MTK2804:39OWYR0EPLYSA3WNKOTYRU1TR5XFYI", "dateTime": 1519403274815}, {"current_trial": 42, "trialdata": {"rt": 1384, "trial_type": "text", "internal_node_id": "0.0-33.0", "time_elapsed": 303982, "key_press": 32, "type": "INSTRUCTIONS", "trial_index": 42}, "uniqueid": "MTK2804:39OWYR0EPLYSA3WNKOTYRU1TR5XFYI", "dateTime": 1519403278202}, {"current_trial": 43, "trialdata": {"rt": [3521, 6160, 8708, 11004, 13265, 15221, 17138], "trial_type": "math-distractor", "key_times": [2892, 3059, 3521, 5365, 5822, 6160, 7894, 8531, 8708, 10824, 11004, 12533, 13010, 13265, 14780, 14980, 15221, 16517, 16966, 17138], "responses": ["20", "18", "16", "6", "17", "13", "14"], "num2": [7, 8, 9, 2, 2, 6, 7, 7], "num3": [7, 5, 1, 2, 7, 1, 4, 5], "conditions": [18, 1200, "v", 18000], "internal_node_id": "0.0-34.0", "key_presses": [50, 48, 13, 49, 56, 13, 49, 54, 13, 54, 13, 49, 55, 13, 49, 51, 13, 49, 52, 13], "trial": 1, "time_elapsed": 323989, "type": "DISTRACTOR", "trial_index": 43, "num1": [6, 5, 6, 2, 8, 6, 3, 6]}, "uniqueid": "MTK2804:39OWYR0EPLYSA3WNKOTYRU1TR5XFYI", "dateTime": 1519403298209}, {"current_trial": 44, "trialdata": {"rt": -1, "trial_type": "single-stim", "stimulus": "<p id=\"stim\">10</p>", "internal_node_id": "0.0-35.0-0.0", "time_elapsed": 326993, "key_press": -1, "trial_index": 44}, "uniqueid": "MTK2804:39OWYR0EPLYSA3WNKOTYRU1TR5XFYI", "dateTime": 1519403301213}, {"current_trial": 45, "trialdata": {"rt": -1, "trial_type": "single-stim", "stimulus": "<p id=\"stim\">9</p>", "internal_node_id": "0.0-35.0-1.0", "time_elapsed": 327995, "key_press": -1, "trial_index": 45}, "uniqueid": "MTK2804:39OWYR0EPLYSA3WNKOTYRU1TR5XFYI", "dateTime": 1519403302215}, {"current_trial": 46, "trialdata": {"rt": -1, "trial_type": "single-stim", "stimulus": "<p id=\"stim\">8</p>", "internal_node_id": "0.0-35.0-2.0", "time_elapsed": 328997, "key_press": -1, "trial_index": 46}, "uniqueid": "MTK2804:39OWYR0EPLYSA3WNKOTYRU1TR5XFYI", "dateTime": 1519403303217}, {"current_trial": 47, "trialdata": {"rt": -1, "trial_type": "single-stim", "stimulus": "<p id=\"stim\">7</p>", "internal_node_id": "0.0-35.0-3.0", "time_elapsed": 330000, "key_press": -1, "trial_index": 47}, "uniqueid": "MTK2804:39OWYR0EPLYSA3WNKOTYRU1TR5XFYI", "dateTime": 1519403304221}, {"current_trial": 48, "trialdata": {"rt": -1, "trial_type": "single-stim", "stimulus": "<p id=\"stim\">6</p>", "internal_node_id": "0.0-35.0-4.0", "time_elapsed": 331005, "key_press": -1, "trial_index": 48}, "uniqueid": "MTK2804:39OWYR0EPLYSA3WNKOTYRU1TR5XFYI", "dateTime": 1519403305233}, {"current_trial": 49, "trialdata": {"rt": -1, "trial_type": "single-stim", "stimulus": "<p id=\"stim\">5</p>", "internal_node_id": "0.0-35.0-5.0", "time_elapsed": 332015, "key_press": -1, "trial_index": 49}, "uniqueid": "MTK2804:39OWYR0EPLYSA3WNKOTYRU1TR5XFYI", "dateTime": 1519403306235}, {"current_trial": 50, "trialdata": {"rt": -1, "trial_type": "single-stim", "stimulus": "<p id=\"stim\">4</p>", "internal_node_id": "0.0-35.0-6.0", "time_elapsed": 333018, "key_press": -1, "trial_index": 50}, "uniqueid": "MTK2804:39OWYR0EPLYSA3WNKOTYRU1TR5XFYI", "dateTime": 1519403307238}, {"current_trial": 51, "trialdata": {"rt": -1, "trial_type": "single-stim", "stimulus": "<p id=\"stim\">3</p>", "internal_node_id": "0.0-35.0-7.0", "time_elapsed": 334020, "key_press": -1, "trial_index": 51}, "uniqueid": "MTK2804:39OWYR0EPLYSA3WNKOTYRU1TR5XFYI", "dateTime": 1519403308240}, {"current_trial": 52, "trialdata": {"rt": -1, "trial_type": "single-stim", "stimulus": "<p id=\"stim\">2</p>", "internal_node_id": "0.0-35.0-8.0", "time_elapsed": 335023, "key_press": -1, "trial_index": 52}, "uniqueid": "MTK2804:39OWYR0EPLYSA3WNKOTYRU1TR5XFYI", "dateTime": 1519403309243}, {"current_trial": 53, "trialdata": {"rt": -1, "trial_type": "single-stim", "stimulus": "<p id=\"stim\">1</p>", "internal_node_id": "0.0-35.0-9.0", "time_elapsed": 336026, "key_press": -1, "trial_index": 53}, "uniqueid": "MTK2804:39OWYR0EPLYSA3WNKOTYRU1TR5XFYI", "dateTime": 1519403310246}, {"current_trial": 54, "trialdata": {"rt": -1, "trial_type": "single-stim", "stimulus": "<p id=\"stim\">+</p>", "internal_node_id": "0.0-36.0-0.0", "time_elapsed": 337530, "key_press": -1, "type": "FIXATION", "trial_index": 54}, "uniqueid": "MTK2804:39OWYR0EPLYSA3WNKOTYRU1TR5XFYI", "dateTime": 1519403311751}, {"current_trial": 55, "trialdata": {"rt": -1, "trial_type": "single-stim", "word": "beaver", "stimulus": "<p id=\"stim\">BEAVER</p>", "conditions": [18, 1200, "v", 18000], "internal_node_id": "0.0-37.0", "trial": 1, "time_elapsed": 338733, "serialpos": 0, "key_press": -1, "wordID": 108, "type": "PRES_VIS", "trial_index": 55}, "uniqueid": "MTK2804:39OWYR0EPLYSA3WNKOTYRU1TR5XFYI", "dateTime": 1519403312953}, {"current_trial": 56, "trialdata": {"rt": -1, "trial_type": "single-stim", "word": "pasta", "stimulus": "<p id=\"stim\">PASTA</p>", "conditions": [18, 1200, "v", 18000], "internal_node_id": "0.0-38.0", "trial": 1, "time_elapsed": 340912, "serialpos": 1, "key_press": -1, "wordID": 1020, "type": "PRES_VIS", "trial_index": 56}, "uniqueid": "MTK2804:39OWYR0EPLYSA3WNKOTYRU1TR5XFYI", "dateTime": 1519403315132}, {"current_trial": 57, "trialdata": {"rt": -1, "trial_type": "single-stim", "word": "scribble", "stimulus": "<p id=\"stim\">SCRIBBLE</p>", "conditions": [18, 1200, "v", 18000], "internal_node_id": "0.0-39.0", "trial": 1, "time_elapsed": 342915, "serialpos": 2, "key_press": -1, "wordID": 1255, "type": "PRES_VIS", "trial_index": 57}, "uniqueid": "MTK2804:39OWYR0EPLYSA3WNKOTYRU1TR5XFYI", "dateTime": 1519403317136}, {"current_trial": 58, "trialdata": {"rt": -1, "trial_type": "single-stim", "word": "mister", "stimulus": "<p id=\"stim\">MISTER</p>", "conditions": [18, 1200, "v", 18000], "internal_node_id": "0.0-40.0", "trial": 1, "time_elapsed": 345222, "serialpos": 3, "key_press": -1, "wordID": 900, "type": "PRES_VIS", "trial_index": 58}, "uniqueid": "MTK2804:39OWYR0EPLYSA3WNKOTYRU1TR5XFYI", "dateTime": 1519403319442}, {"current_trial": 59, "trialdata": {"rt": -1, "trial_type": "single-stim", "word": "goblin", "stimulus": "<p id=\"stim\">GOBLIN</p>", "conditions": [18, 1200, "v", 18000], "internal_node_id": "0.0-41.0", "trial": 1, "time_elapsed": 347254, "serialpos": 4, "key_press": -1, "wordID": 644, "type": "PRES_VIS", "trial_index": 59}, "uniqueid": "MTK2804:39OWYR0EPLYSA3WNKOTYRU1TR5XFYI", "dateTime": 1519403321476}, {"current_trial": 60, "trialdata": {"rt": -1, "trial_type": "single-stim", "word": "swamp", "stimulus": "<p id=\"stim\">SWAMP</p>", "conditions": [18, 1200, "v", 18000], "internal_node_id": "0.0-42.0", "trial": 1, "time_elapsed": 349297, "serialpos": 5, "key_press": -1, "wordID": 1415, "type": "PRES_VIS", "trial_index": 60}, "uniqueid": "MTK2804:39OWYR0EPLYSA3WNKOTYRU1TR5XFYI", "dateTime": 1519403323518}, {"current_trial": 61, "trialdata": {"rt": -1, "trial_type": "single-stim", "word": "tourist", "stimulus": "<p id=\"stim\">TOURIST</p>", "conditions": [18, 1200, "v", 18000], "internal_node_id": "0.0-43.0", "trial": 1, "time_elapsed": 351344, "serialpos": 6, "key_press": -1, "wordID": 1487, "type": "PRES_VIS", "trial_index": 61}, "uniqueid": "MTK2804:39OWYR0EPLYSA3WNKOTYRU1TR5XFYI", "dateTime": 1519403325565}, {"current_trial": 62, "trialdata": {"rt": -1, "trial_type": "single-stim", "word": "milk", "stimulus": "<p id=\"stim\">MILK</p>", "conditions": [18, 1200, "v", 18000], "internal_node_id": "0.0-44.0", "trial": 1, "time_elapsed": 353542, "serialpos": 7, "key_press": -1, "wordID": 894, "type": "PRES_VIS", "trial_index": 62}, "uniqueid": "MTK2804:39OWYR0EPLYSA3WNKOTYRU1TR5XFYI", "dateTime": 1519403327763}, {"current_trial": 63, "trialdata": {"rt": -1, "trial_type": "single-stim", "word": "sidewalk", "stimulus": "<p id=\"stim\">SIDEWALK</p>", "conditions": [18, 1200, "v", 18000], "internal_node_id": "0.0-45.0", "trial": 1, "time_elapsed": 355931, "serialpos": 8, "key_press": -1, "wordID": 1302, "type": "PRES_VIS", "trial_index": 63}, "uniqueid": "MTK2804:39OWYR0EPLYSA3WNKOTYRU1TR5XFYI", "dateTime": 1519403330151}, {"current_trial": 64, "trialdata": {"rt": -1, "trial_type": "single-stim", "word": "leg", "stimulus": "<p id=\"stim\">LEG</p>", "conditions": [18, 1200, "v", 18000], "internal_node_id": "0.0-46.0", "trial": 1, "time_elapsed": 357987, "serialpos": 9, "key_press": -1, "wordID": 808, "type": "PRES_VIS", "trial_index": 64}, "uniqueid": "MTK2804:39OWYR0EPLYSA3WNKOTYRU1TR5XFYI", "dateTime": 1519403332208}, {"current_trial": 65, "trialdata": {"rt": -1, "trial_type": "single-stim", "word": "partner", "stimulus": "<p id=\"stim\">PARTNER</p>", "conditions": [18, 1200, "v", 18000], "internal_node_id": "0.0-47.0", "trial": 1, "time_elapsed": 360202, "serialpos": 10, "key_press": -1, "wordID": 1016, "type": "PRES_VIS", "trial_index": 65}, "uniqueid": "MTK2804:39OWYR0EPLYSA3WNKOTYRU1TR5XFYI", "dateTime": 1519403334422}, {"current_trial": 66, "trialdata": {"rt": -1, "trial_type": "single-stim", "word": "slime", "stimulus": "<p id=\"stim\">SLIME</p>", "conditions": [18, 1200, "v", 18000], "internal_node_id": "0.0-48.0", "trial": 1, "time_elapsed": 362550, "serialpos": 11, "key_press": -1, "wordID": 1326, "type": "PRES_VIS", "trial_index": 66}, "uniqueid": "MTK2804:39OWYR0EPLYSA3WNKOTYRU1TR5XFYI", "dateTime": 1519403336770}, {"current_trial": 67, "trialdata": {"rt": -1, "trial_type": "single-stim", "word": "postage", "stimulus": "<p id=\"stim\">POSTAGE</p>", "conditions": [18, 1200, "v", 18000], "internal_node_id": "0.0-49.0", "trial": 1, "time_elapsed": 364746, "serialpos": 12, "key_press": -1, "wordID": 1112, "type": "PRES_VIS", "trial_index": 67}, "uniqueid": "MTK2804:39OWYR0EPLYSA3WNKOTYRU1TR5XFYI", "dateTime": 1519403338966}, {"current_trial": 68, "trialdata": {"rt": -1, "trial_type": "single-stim", "word": "cattle", "stimulus": "<p id=\"stim\">CATTLE</p>", "conditions": [18, 1200, "v", 18000], "internal_node_id": "0.0-50.0", "trial": 1, "time_elapsed": 367008, "serialpos": 13, "key_press": -1, "wordID": 260, "type": "PRES_VIS", "trial_index": 68}, "uniqueid": "MTK2804:39OWYR0EPLYSA3WNKOTYRU1TR5XFYI", "dateTime": 1519403341239}, {"current_trial": 69, "trialdata": {"rt": -1, "trial_type": "single-stim", "word": "cabin", "stimulus": "<p id=\"stim\">CABIN</p>", "conditions": [18, 1200, "v", 18000], "internal_node_id": "0.0-51.0", "trial": 1, "time_elapsed": 369406, "serialpos": 14, "key_press": -1, "wordID": 210, "type": "PRES_VIS", "trial_index": 69}, "uniqueid": "MTK2804:39OWYR0EPLYSA3WNKOTYRU1TR5XFYI", "dateTime": 1519403343627}, {"current_trial": 70, "trialdata": {"rt": -1, "trial_type": "single-stim", "word": "rabbit", "stimulus": "<p id=\"stim\">RABBIT</p>", "conditions": [18, 1200, "v", 18000], "internal_node_id": "0.0-52.0", "trial": 1, "time_elapsed": 371575, "serialpos": 15, "key_press": -1, "wordID": 1151, "type": "PRES_VIS", "trial_index": 70}, "uniqueid": "MTK2804:39OWYR0EPLYSA3WNKOTYRU1TR5XFYI", "dateTime": 1519403345796}, {"current_trial": 71, "trialdata": {"rt": -1, "trial_type": "single-stim", "word": "pigeon", "stimulus": "<p id=\"stim\">PIGEON</p>", "conditions": [18, 1200, "v", 18000], "internal_node_id": "0.0-53.0", "trial": 1, "time_elapsed": 373894, "serialpos": 16, "key_press": -1, "wordID": 1064, "type": "PRES_VIS", "trial_index": 71}, "uniqueid": "MTK2804:39OWYR0EPLYSA3WNKOTYRU1TR5XFYI", "dateTime": 1519403348114}, {"current_trial": 72, "trialdata": {"rt": -1, "trial_type": "single-stim", "word": "sticker", "stimulus": "<p id=\"stim\">STICKER</p>", "conditions": [18, 1200, "v", 18000], "internal_node_id": "0.0-54.0", "trial": 1, "time_elapsed": 376156, "serialpos": 17, "key_press": -1, "wordID": 1381, "type": "PRES_VIS", "trial_index": 72}, "uniqueid": "MTK2804:39OWYR0EPLYSA3WNKOTYRU1TR5XFYI", "dateTime": 1519403350376}, {"current_trial": 73, "trialdata": {"rt": -1, "trial_type": "single-stim", "stimulus": "", "internal_node_id": "0.0-55.0-0.0", "time_elapsed": 378452, "key_press": -1, "type": "PRE_RECALL_DELAY", "trial_index": 73}, "uniqueid": "MTK2804:39OWYR0EPLYSA3WNKOTYRU1TR5XFYI", "dateTime": 1519403352673}, {"current_trial": 74, "trialdata": {"rt": -1000, "trial_type": "single-audio", "stimulus": "/static/audio/400Hz.wav", "internal_node_id": "0.0-56.0", "time_elapsed": 378955, "key_press": -1, "type": "PRE_RECALL_ALERT", "trial_index": 74}, "uniqueid": "MTK2804:39OWYR0EPLYSA3WNKOTYRU1TR5XFYI", "dateTime": 1519403353176}, {"current_trial": 75, "trialdata": {"rt": [2863, 5630, 7548, 9305, 11399, 12622, 14243, 16847, 23059, 25224, 26630], "recwords": ["rabbit", "pigeon", "sticker", "swamp", "sidewalk", "leg", "partner", "slime", "postage", "beaver", "cabin"], "key_times": [1264, 1514, 1820, 1980, 2105, 2412, 2863, 3260, 3468, 3655, 4003, 4199, 4301, 4684, 4851, 5085, 5325, 5630, 5866, 6068, 6214, 6463, 6665, 7041, 7142, 7548, 7999, 8305, 8425, 8549, 8896, 9305, 9537, 9682, 9850, 10093, 10374, 10495, 10640, 10818, 11399, 11755, 11884, 12282, 12622, 12986, 13139, 13234, 13480, 13633, 13819, 13921, 14243, 14895, 15231, 15663, 15963, 16208, 16409, 16507, 16847, 20989, 21159, 21287, 21452, 21610, 21830, 22108, 23059, 23495, 23781, 23931, 24227, 24645, 24779, 25224, 25503, 25680, 25937, 26054, 26271, 26630], "trial_type": "free-recall", "conditions": [18, 1200, "v", 18000], "internal_node_id": "0.0-57.0-0.0", "key_presses": [82, 65, 66, 66, 73, 84, 13, 80, 73, 71, 69, 73, 79, 8, 8, 79, 78, 13, 83, 84, 73, 67, 75, 69, 82, 13, 83, 87, 65, 77, 80, 13, 83, 73, 68, 69, 87, 65, 76, 75, 13, 76, 69, 71, 13, 80, 65, 82, 84, 78, 69, 82, 13, 83, 73, 8, 76, 73, 77, 69, 13, 80, 79, 83, 84, 65, 71, 69, 13, 66, 69, 65, 86, 69, 82, 13, 67, 65, 66, 73, 78, 13], "trial": 1, "time_elapsed": 438966, "type": "FREE_RECALL", "trial_index": 75}, "uniqueid": "MTK2804:39OWYR0EPLYSA3WNKOTYRU1TR5XFYI", "dateTime": 1519403413195}, {"current_trial": 76, "trialdata": {"rt": 3943, "trial_type": "text", "internal_node_id": "0.0-58.0", "time_elapsed": 444920, "key_press": 32, "type": "INSTRUCTIONS", "trial_index": 76}, "uniqueid": "MTK2804:39OWYR0EPLYSA3WNKOTYRU1TR5XFYI", "dateTime": 1519403419140}, {"current_trial": 77, "trialdata": {"rt": [4151, 9090], "trial_type": "math-distractor", "key_times": [3556, 3819, 4151, 8370, 8776, 9090, 10913, 11796], "responses": ["21", "25"], "num2": [6, 6, 6], "num3": [7, 9, 6], "conditions": [12, 1600, "v", 12000], "internal_node_id": "0.0-59.0", "key_presses": [50, 49, 13, 50, 53, 13, 49, 51], "trial": 2, "time_elapsed": 457926, "type": "DISTRACTOR", "trial_index": 77, "num1": [8, 9, 1]}, "uniqueid": "MTK2804:39OWYR0EPLYSA3WNKOTYRU1TR5XFYI", "dateTime": 1519403432147}, {"current_trial": 78, "trialdata": {"rt": -1, "trial_type": "single-stim", "stimulus": "<p id=\"stim\">10</p>", "internal_node_id": "0.0-60.0-0.0", "time_elapsed": 460928, "key_press": -1, "trial_index": 78}, "uniqueid": "MTK2804:39OWYR0EPLYSA3WNKOTYRU1TR5XFYI", "dateTime": 1519403435149}, {"current_trial": 79, "trialdata": {"rt": -1, "trial_type": "single-stim", "stimulus": "<p id=\"stim\">9</p>", "internal_node_id": "0.0-60.0-1.0", "time_elapsed": 461930, "key_press": -1, "trial_index": 79}, "uniqueid": "MTK2804:39OWYR0EPLYSA3WNKOTYRU1TR5XFYI", "dateTime": 1519403436151}, {"current_trial": 80, "trialdata": {"rt": -1, "trial_type": "single-stim", "stimulus": "<p id=\"stim\">8</p>", "internal_node_id": "0.0-60.0-2.0", "time_elapsed": 462933, "key_press": -1, "trial_index": 80}, "uniqueid": "MTK2804:39OWYR0EPLYSA3WNKOTYRU1TR5XFYI", "dateTime": 1519403437153}, {"current_trial": 81, "trialdata": {"rt": -1, "trial_type": "single-stim", "stimulus": "<p id=\"stim\">7</p>", "internal_node_id": "0.0-60.0-3.0", "time_elapsed": 463936, "key_press": -1, "trial_index": 81}, "uniqueid": "MTK2804:39OWYR0EPLYSA3WNKOTYRU1TR5XFYI", "dateTime": 1519403438156}, {"current_trial": 82, "trialdata": {"rt": -1, "trial_type": "single-stim", "stimulus": "<p id=\"stim\">6</p>", "internal_node_id": "0.0-60.0-4.0", "time_elapsed": 464939, "key_press": -1, "trial_index": 82}, "uniqueid": "MTK2804:39OWYR0EPLYSA3WNKOTYRU1TR5XFYI", "dateTime": 1519403439159}, {"current_trial": 83, "trialdata": {"rt": -1, "trial_type": "single-stim", "stimulus": "<p id=\"stim\">5</p>", "internal_node_id": "0.0-60.0-5.0", "time_elapsed": 465941, "key_press": -1, "trial_index": 83}, "uniqueid": "MTK2804:39OWYR0EPLYSA3WNKOTYRU1TR5XFYI", "dateTime": 1519403440161}, {"current_trial": 84, "trialdata": {"rt": -1, "trial_type": "single-stim", "stimulus": "<p id=\"stim\">4</p>", "internal_node_id": "0.0-60.0-6.0", "time_elapsed": 466944, "key_press": -1, "trial_index": 84}, "uniqueid": "MTK2804:39OWYR0EPLYSA3WNKOTYRU1TR5XFYI", "dateTime": 1519403441164}, {"current_trial": 85, "trialdata": {"rt": -1, "trial_type": "single-stim", "stimulus": "<p id=\"stim\">3</p>", "internal_node_id": "0.0-60.0-7.0", "time_elapsed": 467946, "key_press": -1, "trial_index": 85}, "uniqueid": "MTK2804:39OWYR0EPLYSA3WNKOTYRU1TR5XFYI", "dateTime": 1519403442166}, {"current_trial": 86, "trialdata": {"rt": -1, "trial_type": "single-stim", "stimulus": "<p id=\"stim\">2</p>", "internal_node_id": "0.0-60.0-8.0", "time_elapsed": 468948, "key_press": -1, "trial_index": 86}, "uniqueid": "MTK2804:39OWYR0EPLYSA3WNKOTYRU1TR5XFYI", "dateTime": 1519403443169}, {"current_trial": 87, "trialdata": {"rt": -1, "trial_type": "single-stim", "stimulus": "<p id=\"stim\">1</p>", "internal_node_id": "0.0-60.0-9.0", "time_elapsed": 469951, "key_press": -1, "trial_index": 87}, "uniqueid": "MTK2804:39OWYR0EPLYSA3WNKOTYRU1TR5XFYI", "dateTime": 1519403444171}, {"current_trial": 88, "trialdata": {"rt": -1, "trial_type": "single-stim", "stimulus": "<p id=\"stim\">+</p>", "internal_node_id": "0.0-61.0-0.0", "time_elapsed": 471454, "key_press": -1, "type": "FIXATION", "trial_index": 88}, "uniqueid": "MTK2804:39OWYR0EPLYSA3WNKOTYRU1TR5XFYI", "dateTime": 1519403445674}, {"current_trial": 89, "trialdata": {"rt": -1, "trial_type": "single-stim", "word": "hood", "stimulus": "<p id=\"stim\">HOOD</p>", "conditions": [12, 1600, "v", 12000], "internal_node_id": "0.0-62.0", "trial": 2, "time_elapsed": 473056, "serialpos": 0, "key_press": -1, "wordID": 713, "type": "PRES_VIS", "trial_index": 89}, "uniqueid": "MTK2804:39OWYR0EPLYSA3WNKOTYRU1TR5XFYI", "dateTime": 1519403447277}, {"current_trial": 90, "trialdata": {"rt": -1, "trial_type": "single-stim", "word": "fiddle", "stimulus": "<p id=\"stim\">FIDDLE</p>", "conditions": [12, 1600, "v", 12000], "internal_node_id": "0.0-63.0", "trial": 2, "time_elapsed": 475503, "serialpos": 1, "key_press": -1, "wordID": 560, "type": "PRES_VIS", "trial_index": 90}, "uniqueid": "MTK2804:39OWYR0EPLYSA3WNKOTYRU1TR5XFYI", "dateTime": 1519403449723}, {"current_trial": 91, "trialdata": {"rt": -1, "trial_type": "single-stim", "word": "blade", "stimulus": "<p id=\"stim\">BLADE</p>", "conditions": [12, 1600, "v", 12000], "internal_node_id": "0.0-64.0", "trial": 2, "time_elapsed": 477918, "serialpos": 2, "key_press": -1, "wordID": 133, "type": "PRES_VIS", "trial_index": 91}, "uniqueid": "MTK2804:39OWYR0EPLYSA3WNKOTYRU1TR5XFYI", "dateTime": 1519403452138}, {"current_trial": 92, "trialdata": {"rt": -1, "trial_type": "single-stim", "word": "razor", "stimulus": "<p id=\"stim\">RAZOR</p>", "conditions": [12, 1600, "v", 12000], "internal_node_id": "0.0-65.0", "trial": 2, "time_elapsed": 480627, "serialpos": 3, "key_press": -1, "wordID": 1170, "type": "PRES_VIS", "trial_index": 92}, "uniqueid": "MTK2804:39OWYR0EPLYSA3WNKOTYRU1TR5XFYI", "dateTime": 1519403454848}, {"current_trial": 93, "trialdata": {"rt": -1, "trial_type": "single-stim", "word": "flower", "stimulus": "<p id=\"stim\">FLOWER</p>", "conditions": [12, 1600, "v", 12000], "internal_node_id": "0.0-66.0", "trial": 2, "time_elapsed": 483065, "serialpos": 4, "key_press": -1, "wordID": 583, "type": "PRES_VIS", "trial_index": 93}, "uniqueid": "MTK2804:39OWYR0EPLYSA3WNKOTYRU1TR5XFYI", "dateTime": 1519403457285}, {"current_trial": 94, "trialdata": {"rt": -1, "trial_type": "single-stim", "word": "daisy", "stimulus": "<p id=\"stim\">DAISY</p>", "conditions": [12, 1600, "v", 12000], "internal_node_id": "0.0-67.0", "trial": 2, "time_elapsed": 485707, "serialpos": 5, "key_press": -1, "wordID": 434, "type": "PRES_VIS", "trial_index": 94}, "uniqueid": "MTK2804:39OWYR0EPLYSA3WNKOTYRU1TR5XFYI", "dateTime": 1519403459927}, {"current_trial": 95, "trialdata": {"rt": -1, "trial_type": "single-stim", "word": "hamper", "stimulus": "<p id=\"stim\">HAMPER</p>", "conditions": [12, 1600, "v", 12000], "internal_node_id": "0.0-68.0", "trial": 2, "time_elapsed": 488453, "serialpos": 6, "key_press": -1, "wordID": 681, "type": "PRES_VIS", "trial_index": 95}, "uniqueid": "MTK2804:39OWYR0EPLYSA3WNKOTYRU1TR5XFYI", "dateTime": 1519403462673}, {"current_trial": 96, "trialdata": {"rt": -1, "trial_type": "single-stim", "word": "shoulder", "stimulus": "<p id=\"stim\">SHOULDER</p>", "conditions": [12, 1600, "v", 12000], "internal_node_id": "0.0-69.0", "trial": 2, "time_elapsed": 490988, "serialpos": 7, "key_press": -1, "wordID": 1293, "type": "PRES_VIS", "trial_index": 96}, "uniqueid": "MTK2804:39OWYR0EPLYSA3WNKOTYRU1TR5XFYI", "dateTime": 1519403465208}, {"current_trial": 97, "trialdata": {"rt": -1, "trial_type": "single-stim", "word": "victim", "stimulus": "<p id=\"stim\">VICTIM</p>", "conditions": [12, 1600, "v", 12000], "internal_node_id": "0.0-70.0", "trial": 2, "time_elapsed": 493526, "serialpos": 8, "key_press": -1, "wordID": 1561, "type": "PRES_VIS", "trial_index": 97}, "uniqueid": "MTK2804:39OWYR0EPLYSA3WNKOTYRU1TR5XFYI", "dateTime": 1519403467746}, {"current_trial": 98, "trialdata": {"rt": -1, "trial_type": "single-stim", "word": "mailman", "stimulus": "<p id=\"stim\">MAILMAN</p>", "conditions": [12, 1600, "v", 12000], "internal_node_id": "0.0-71.0", "trial": 2, "time_elapsed": 496023, "serialpos": 9, "key_press": -1, "wordID": 857, "type": "PRES_VIS", "trial_index": 98}, "uniqueid": "MTK2804:39OWYR0EPLYSA3WNKOTYRU1TR5XFYI", "dateTime": 1519403470243}, {"current_trial": 99, "trialdata": {"rt": -1, "trial_type": "single-stim", "word": "harp", "stimulus": "<p id=\"stim\">HARP</p>", "conditions": [12, 1600, "v", 12000], "internal_node_id": "0.0-72.0", "trial": 2, "time_elapsed": 498766, "serialpos": 10, "key_press": -1, "wordID": 688, "type": "PRES_VIS", "trial_index": 99}, "uniqueid": "MTK2804:39OWYR0EPLYSA3WNKOTYRU1TR5XFYI", "dateTime": 1519403472986}, {"current_trial": 100, "trialdata": {"rt": -1, "trial_type": "single-stim", "word": "report", "stimulus": "<p id=\"stim\">REPORT</p>", "conditions": [12, 1600, "v", 12000], "internal_node_id": "0.0-73.0", "trial": 2, "time_elapsed": 501176, "serialpos": 11, "key_press": -1, "wordID": 1183, "type": "PRES_VIS", "trial_index": 100}, "uniqueid": "MTK2804:39OWYR0EPLYSA3WNKOTYRU1TR5XFYI", "dateTime": 1519403475396}, {"current_trial": 101, "trialdata": {"rt": -1, "trial_type": "single-stim", "stimulus": "", "internal_node_id": "0.0-74.0-0.0", "time_elapsed": 503646, "key_press": -1, "type": "PRE_RECALL_DELAY", "trial_index": 101}, "uniqueid": "MTK2804:39OWYR0EPLYSA3WNKOTYRU1TR5XFYI", "dateTime": 1519403477866}, {"current_trial": 102, "trialdata": {"rt": -1000, "trial_type": "single-audio", "stimulus": "/static/audio/400Hz.wav", "internal_node_id": "0.0-75.0", "time_elapsed": 504149, "key_press": -1, "type": "PRE_RECALL_ALERT", "trial_index": 102}, "uniqueid": "MTK2804:39OWYR0EPLYSA3WNKOTYRU1TR5XFYI", "dateTime": 1519403478369}, {"current_trial": 103, "trialdata": {"rt": [3875, 6286, 9461, 11852, 14475, 18075, 21504, 32346, 34519], "recwords": ["hood", "flower", "daisy", "victim", "blade", "mailman", "razor", "hamper", "shoulder"], "key_times": [1986, 2257, 2430, 2737, 3875, 4952, 5062, 5399, 5599, 5742, 5876, 6286, 6530, 6725, 6875, 7508, 7658, 7789, 7923, 8439, 8573, 9461, 10069, 10184, 10509, 10860, 10971, 11226, 11852, 12448, 12600, 12734, 12966, 13281, 14475, 15180, 15468, 16007, 16243, 16328, 16593, 16869, 17048, 17146, 18075, 18439, 18587, 19035, 19223, 19778, 21504, 31052, 31211, 31368, 31643, 31803, 31950, 32346, 32643, 32842, 33061, 33228, 33511, 33641, 33943, 34105, 34519], "trial_type": "free-recall", "conditions": [12, 1600, "v", 12000], "internal_node_id": "0.0-76.0-0.0", "key_presses": [72, 79, 79, 68, 13, 70, 76, 79, 87, 69, 82, 13, 68, 73, 65, 8, 8, 65, 73, 83, 89, 13, 86, 73, 67, 84, 73, 77, 13, 66, 76, 65, 68, 69, 13, 77, 73, 8, 65, 73, 76, 77, 65, 78, 13, 82, 65, 90, 79, 82, 13, 72, 65, 77, 80, 69, 82, 13, 83, 72, 79, 85, 76, 68, 69, 82, 13], "trial": 2, "time_elapsed": 564154, "type": "FREE_RECALL", "trial_index": 103}, "uniqueid": "MTK2804:39OWYR0EPLYSA3WNKOTYRU1TR5XFYI", "dateTime": 1519403538382}, {"current_trial": 104, "trialdata": {"rt": 956, "trial_type": "text", "internal_node_id": "0.0-77.0", "time_elapsed": 567119, "key_press": 32, "type": "INSTRUCTIONS", "trial_index": 104}, "uniqueid": "MTK2804:39OWYR0EPLYSA3WNKOTYRU1TR5XFYI", "dateTime": 1519403541339}, {"current_trial": 105, "trialdata": {"rt": [2053, 5070, 7757, 11223], "trial_type": "math-distractor", "key_times": [1517, 1744, 2053, 4737, 4914, 5070, 7285, 7445, 7757, 10227, 10869, 11223], "responses": ["13", "11", "20", "14"], "num2": [1, 1, 8, 1, 8], "num3": [8, 6, 4, 5, 4], "conditions": [24, 800, "v", 12000], "internal_node_id": "0.0-78.0", "key_presses": [49, 51, 13, 49, 49, 13, 50, 48, 13, 49, 52, 13], "trial": 3, "time_elapsed": 581125, "type": "DISTRACTOR", "trial_index": 105, "num1": [4, 4, 8, 8, 2]}, "uniqueid": "MTK2804:39OWYR0EPLYSA3WNKOTYRU1TR5XFYI", "dateTime": 1519403555345}, {"current_trial": 106, "trialdata": {"rt": -1, "trial_type": "single-stim", "stimulus": "<p id=\"stim\">10</p>", "internal_node_id": "0.0-79.0-0.0", "time_elapsed": 584128, "key_press": -1, "trial_index": 106}, "uniqueid": "MTK2804:39OWYR0EPLYSA3WNKOTYRU1TR5XFYI", "dateTime": 1519403558348}, {"current_trial": 107, "trialdata": {"rt": -1, "trial_type": "single-stim", "stimulus": "<p id=\"stim\">9</p>", "internal_node_id": "0.0-79.0-1.0", "time_elapsed": 585130, "key_press": -1, "trial_index": 107}, "uniqueid": "MTK2804:39OWYR0EPLYSA3WNKOTYRU1TR5XFYI", "dateTime": 1519403559351}, {"current_trial": 108, "trialdata": {"rt": -1, "trial_type": "single-stim", "stimulus": "<p id=\"stim\">8</p>", "internal_node_id": "0.0-79.0-2.0", "time_elapsed": 586133, "key_press": -1, "trial_index": 108}, "uniqueid": "MTK2804:39OWYR0EPLYSA3WNKOTYRU1TR5XFYI", "dateTime": 1519403560353}, {"current_trial": 109, "trialdata": {"rt": -1, "trial_type": "single-stim", "stimulus": "<p id=\"stim\">7</p>", "internal_node_id": "0.0-79.0-3.0", "time_elapsed": 587133, "key_press": -1, "trial_index": 109}, "uniqueid": "MTK2804:39OWYR0EPLYSA3WNKOTYRU1TR5XFYI", "dateTime": 1519403561353}, {"current_trial": 110, "trialdata": {"rt": -1, "trial_type": "single-stim", "stimulus": "<p id=\"stim\">6</p>", "internal_node_id": "0.0-79.0-4.0", "time_elapsed": 588136, "key_press": -1, "trial_index": 110}, "uniqueid": "MTK2804:39OWYR0EPLYSA3WNKOTYRU1TR5XFYI", "dateTime": 1519403562356}, {"current_trial": 111, "trialdata": {"rt": -1, "trial_type": "single-stim", "stimulus": "<p id=\"stim\">5</p>", "internal_node_id": "0.0-79.0-5.0", "time_elapsed": 589138, "key_press": -1, "trial_index": 111}, "uniqueid": "MTK2804:39OWYR0EPLYSA3WNKOTYRU1TR5XFYI", "dateTime": 1519403563358}, {"current_trial": 112, "trialdata": {"rt": -1, "trial_type": "single-stim", "stimulus": "<p id=\"stim\">4</p>", "internal_node_id": "0.0-79.0-6.0", "time_elapsed": 590140, "key_press": -1, "trial_index": 112}, "uniqueid": "MTK2804:39OWYR0EPLYSA3WNKOTYRU1TR5XFYI", "dateTime": 1519403564360}, {"current_trial": 113, "trialdata": {"rt": -1, "trial_type": "single-stim", "stimulus": "<p id=\"stim\">3</p>", "internal_node_id": "0.0-79.0-7.0", "time_elapsed": 591142, "key_press": -1, "trial_index": 113}, "uniqueid": "MTK2804:39OWYR0EPLYSA3WNKOTYRU1TR5XFYI", "dateTime": 1519403565363}, {"current_trial": 114, "trialdata": {"rt": -1, "trial_type": "single-stim", "stimulus": "<p id=\"stim\">2</p>", "internal_node_id": "0.0-79.0-8.0", "time_elapsed": 592144, "key_press": -1, "trial_index": 114}, "uniqueid": "MTK2804:39OWYR0EPLYSA3WNKOTYRU1TR5XFYI", "dateTime": 1519403566364}, {"current_trial": 115, "trialdata": {"rt": -1, "trial_type": "single-stim", "stimulus": "<p id=\"stim\">1</p>", "internal_node_id": "0.0-79.0-9.0", "time_elapsed": 593147, "key_press": -1, "trial_index": 115}, "uniqueid": "MTK2804:39OWYR0EPLYSA3WNKOTYRU1TR5XFYI", "dateTime": 1519403567367}, {"current_trial": 116, "trialdata": {"rt": -1, "trial_type": "single-stim", "stimulus": "<p id=\"stim\">+</p>", "internal_node_id": "0.0-80.0-0.0", "time_elapsed": 594649, "key_press": -1, "type": "FIXATION", "trial_index": 116}, "uniqueid": "MTK2804:39OWYR0EPLYSA3WNKOTYRU1TR5XFYI", "dateTime": 1519403568869}, {"current_trial": 117, "trialdata": {"rt": -1, "trial_type": "single-stim", "word": "sparrow", "stimulus": "<p id=\"stim\">SPARROW</p>", "conditions": [24, 800, "v", 12000], "internal_node_id": "0.0-81.0", "trial": 3, "time_elapsed": 595452, "serialpos": 0, "key_press": -1, "wordID": 1346, "type": "PRES_VIS", "trial_index": 117}, "uniqueid": "MTK2804:39OWYR0EPLYSA3WNKOTYRU1TR5XFYI", "dateTime": 1519403569673}, {"current_trial": 118, "trialdata": {"rt": -1, "trial_type": "single-stim", "word": "patient", "stimulus": "<p id=\"stim\">PATIENT</p>", "conditions": [24, 800, "v", 12000], "internal_node_id": "0.0-82.0", "trial": 3, "time_elapsed": 597316, "serialpos": 1, "key_press": -1, "wordID": 1023, "type": "PRES_VIS", "trial_index": 118}, "uniqueid": "MTK2804:39OWYR0EPLYSA3WNKOTYRU1TR5XFYI", "dateTime": 1519403571537}, {"current_trial": 119, "trialdata": {"rt": -1, "trial_type": "single-stim", "word": "lettuce", "stimulus": "<p id=\"stim\">LETTUCE</p>", "conditions": [24, 800, "v", 12000], "internal_node_id": "0.0-83.0", "trial": 3, "time_elapsed": 599114, "serialpos": 2, "key_press": -1, "wordID": 813, "type": "PRES_VIS", "trial_index": 119}, "uniqueid": "MTK2804:39OWYR0EPLYSA3WNKOTYRU1TR5XFYI", "dateTime": 1519403573334}, {"current_trial": 120, "trialdata": {"rt": -1, "trial_type": "single-stim", "word": "waiter", "stimulus": "<p id=\"stim\">WAITER</p>", "conditions": [24, 800, "v", 12000], "internal_node_id": "0.0-84.0", "trial": 3, "time_elapsed": 601043, "serialpos": 3, "key_press": -1, "wordID": 1579, "type": "PRES_VIS", "trial_index": 120}, "uniqueid": "MTK2804:39OWYR0EPLYSA3WNKOTYRU1TR5XFYI", "dateTime": 1519403575264}, {"current_trial": 121, "trialdata": {"rt": -1, "trial_type": "single-stim", "word": "sheriff", "stimulus": "<p id=\"stim\">SHERIFF</p>", "conditions": [24, 800, "v", 12000], "internal_node_id": "0.0-85.0", "trial": 3, "time_elapsed": 602903, "serialpos": 4, "key_press": -1, "wordID": 1283, "type": "PRES_VIS", "trial_index": 121}, "uniqueid": "MTK2804:39OWYR0EPLYSA3WNKOTYRU1TR5XFYI", "dateTime": 1519403577123}, {"current_trial": 122, "trialdata": {"rt": -1, "trial_type": "single-stim", "word": "scalpel", "stimulus": "<p id=\"stim\">SCALPEL</p>", "conditions": [24, 800, "v", 12000], "internal_node_id": "0.0-86.0", "trial": 3, "time_elapsed": 604538, "serialpos": 5, "key_press": -1, "wordID": 1242, "type": "PRES_VIS", "trial_index": 122}, "uniqueid": "MTK2804:39OWYR0EPLYSA3WNKOTYRU1TR5XFYI", "dateTime": 1519403578759}, {"current_trial": 123, "trialdata": {"rt": -1, "trial_type": "single-stim", "word": "costume", "stimulus": "<p id=\"stim\">COSTUME</p>", "conditions": [24, 800, "v", 12000], "internal_node_id": "0.0-87.0", "trial": 3, "time_elapsed": 606312, "serialpos": 6, "key_press": -1, "wordID": 382, "type": "PRES_VIS", "trial_index": 123}, "uniqueid": "MTK2804:39OWYR0EPLYSA3WNKOTYRU1TR5XFYI", "dateTime": 1519403580532}, {"current_trial": 124, "trialdata": {"rt": -1, "trial_type": "single-stim", "word": "marker", "stimulus": "<p id=\"stim\">MARKER</p>", "conditions": [24, 800, "v", 12000], "internal_node_id": "0.0-88.0", "trial": 3, "time_elapsed": 608022, "serialpos": 7, "key_press": -1, "wordID": 869, "type": "PRES_VIS", "trial_index": 124}, "uniqueid": "MTK2804:39OWYR0EPLYSA3WNKOTYRU1TR5XFYI", "dateTime": 1519403582242}, {"current_trial": 125, "trialdata": {"rt": -1, "trial_type": "single-stim", "word": "pastry", "stimulus": "<p id=\"stim\">PASTRY</p>", "conditions": [24, 800, "v", 12000], "internal_node_id": "0.0-89.0", "trial": 3, "time_elapsed": 609753, "serialpos": 8, "key_press": -1, "wordID": 1021, "type": "PRES_VIS", "trial_index": 125}, "uniqueid": "MTK2804:39OWYR0EPLYSA3WNKOTYRU1TR5XFYI", "dateTime": 1519403583974}, {"current_trial": 126, "trialdata": {"rt": -1, "trial_type": "single-stim", "word": "custard", "stimulus": "<p id=\"stim\">CUSTARD</p>", "conditions": [24, 800, "v", 12000], "internal_node_id": "0.0-90.0", "trial": 3, "time_elapsed": 611395, "serialpos": 9, "key_press": -1, "wordID": 428, "type": "PRES_VIS", "trial_index": 126}, "uniqueid": "MTK2804:39OWYR0EPLYSA3WNKOTYRU1TR5XFYI", "dateTime": 1519403585615}, {"current_trial": 127, "trialdata": {"rt": -1, "trial_type": "single-stim", "word": "robin", "stimulus": "<p id=\"stim\">ROBIN</p>", "conditions": [24, 800, "v", 12000], "internal_node_id": "0.0-91.0", "trial": 3, "time_elapsed": 613230, "serialpos": 10, "key_press": -1, "wordID": 1198, "type": "PRES_VIS", "trial_index": 127}, "uniqueid": "MTK2804:39OWYR0EPLYSA3WNKOTYRU1TR5XFYI", "dateTime": 1519403587450}, {"current_trial": 128, "trialdata": {"rt": -1, "trial_type": "single-stim", "word": "salad", "stimulus": "<p id=\"stim\">SALAD</p>", "conditions": [24, 800, "v", 12000], "internal_node_id": "0.0-92.0", "trial": 3, "time_elapsed": 614971, "serialpos": 11, "key_press": -1, "wordID": 1223, "type": "PRES_VIS", "trial_index": 128}, "uniqueid": "MTK2804:39OWYR0EPLYSA3WNKOTYRU1TR5XFYI", "dateTime": 1519403589192}, {"current_trial": 129, "trialdata": {"rt": -1, "trial_type": "single-stim", "word": "sandwich", "stimulus": "<p id=\"stim\">SANDWICH</p>", "conditions": [24, 800, "v", 12000], "internal_node_id": "0.0-93.0", "trial": 3, "time_elapsed": 616607, "serialpos": 12, "key_press": -1, "wordID": 1231, "type": "PRES_VIS", "trial_index": 129}, "uniqueid": "MTK2804:39OWYR0EPLYSA3WNKOTYRU1TR5XFYI", "dateTime": 1519403590827}, {"current_trial": 130, "trialdata": {"rt": -1, "trial_type": "single-stim", "word": "forehead", "stimulus": "<p id=\"stim\">FOREHEAD</p>", "conditions": [24, 800, "v", 12000], "internal_node_id": "0.0-94.0", "trial": 3, "time_elapsed": 618536, "serialpos": 13, "key_press": -1, "wordID": 591, "type": "PRES_VIS", "trial_index": 130}, "uniqueid": "MTK2804:39OWYR0EPLYSA3WNKOTYRU1TR5XFYI", "dateTime": 1519403592756}, {"current_trial": 131, "trialdata": {"rt": -1, "trial_type": "single-stim", "word": "powder", "stimulus": "<p id=\"stim\">POWDER</p>", "conditions": [24, 800, "v", 12000], "internal_node_id": "0.0-95.0", "trial": 3, "time_elapsed": 620228, "serialpos": 14, "key_press": -1, "wordID": 1116, "type": "PRES_VIS", "trial_index": 131}, "uniqueid": "MTK2804:39OWYR0EPLYSA3WNKOTYRU1TR5XFYI", "dateTime": 1519403594448}, {"current_trial": 132, "trialdata": {"rt": -1, "trial_type": "single-stim", "word": "banker", "stimulus": "<p id=\"stim\">BANKER</p>", "conditions": [24, 800, "v", 12000], "internal_node_id": "0.0-96.0", "trial": 3, "time_elapsed": 621874, "serialpos": 15, "key_press": -1, "wordID": 83, "type": "PRES_VIS", "trial_index": 132}, "uniqueid": "MTK2804:39OWYR0EPLYSA3WNKOTYRU1TR5XFYI", "dateTime": 1519403596095}, {"current_trial": 133, "trialdata": {"rt": -1, "trial_type": "single-stim", "word": "sunrise", "stimulus": "<p id=\"stim\">SUNRISE</p>", "conditions": [24, 800, "v", 12000], "internal_node_id": "0.0-97.0", "trial": 3, "time_elapsed": 623504, "serialpos": 16, "key_press": -1, "wordID": 1406, "type": "PRES_VIS", "trial_index": 133}, "uniqueid": "MTK2804:39OWYR0EPLYSA3WNKOTYRU1TR5XFYI", "dateTime": 1519403597725}, {"current_trial": 134, "trialdata": {"rt": -1, "trial_type": "single-stim", "word": "sunset", "stimulus": "<p id=\"stim\">SUNSET</p>", "conditions": [24, 800, "v", 12000], "internal_node_id": "0.0-98.0", "trial": 3, "time_elapsed": 625120, "serialpos": 17, "key_press": -1, "wordID": 1407, "type": "PRES_VIS", "trial_index": 134}, "uniqueid": "MTK2804:39OWYR0EPLYSA3WNKOTYRU1TR5XFYI", "dateTime": 1519403599341}, {"current_trial": 135, "trialdata": {"rt": -1, "trial_type": "single-stim", "word": "hound", "stimulus": "<p id=\"stim\">HOUND</p>", "conditions": [24, 800, "v", 12000], "internal_node_id": "0.0-99.0", "trial": 3, "time_elapsed": 627073, "serialpos": 18, "key_press": -1, "wordID": 723, "type": "PRES_VIS", "trial_index": 135}, "uniqueid": "MTK2804:39OWYR0EPLYSA3WNKOTYRU1TR5XFYI", "dateTime": 1519403601293}, {"current_trial": 136, "trialdata": {"rt": -1, "trial_type": "single-stim", "word": "omelet", "stimulus": "<p id=\"stim\">OMELET</p>", "conditions": [24, 800, "v", 12000], "internal_node_id": "0.0-100.0", "trial": 3, "time_elapsed": 628872, "serialpos": 19, "key_press": -1, "wordID": 975, "type": "PRES_VIS", "trial_index": 136}, "uniqueid": "MTK2804:39OWYR0EPLYSA3WNKOTYRU1TR5XFYI", "dateTime": 1519403603092}, {"current_trial": 137, "trialdata": {"rt": -1, "trial_type": "single-stim", "word": "wasp", "stimulus": "<p id=\"stim\">WASP</p>", "conditions": [24, 800, "v", 12000], "internal_node_id": "0.0-101.0", "trial": 3, "time_elapsed": 630531, "serialpos": 20, "key_press": -1, "wordID": 1592, "type": "PRES_VIS", "trial_index": 137}, "uniqueid": "MTK2804:39OWYR0EPLYSA3WNKOTYRU1TR5XFYI", "dateTime": 1519403604751}, {"current_trial": 138, "trialdata": {"rt": -1, "trial_type": "single-stim", "word": "cook", "stimulus": "<p id=\"stim\">COOK</p>", "conditions": [24, 800, "v", 12000], "internal_node_id": "0.0-102.0", "trial": 3, "time_elapsed": 632214, "serialpos": 21, "key_press": -1, "wordID": 371, "type": "PRES_VIS", "trial_index": 138}, "uniqueid": "MTK2804:39OWYR0EPLYSA3WNKOTYRU1TR5XFYI", "dateTime": 1519403606434}, {"current_trial": 139, "trialdata": {"rt": -1, "trial_type": "single-stim", "word": "relish", "stimulus": "<p id=\"stim\">RELISH</p>", "conditions": [24, 800, "v", 12000], "internal_node_id": "0.0-103.0", "trial": 3, "time_elapsed": 634123, "serialpos": 22, "key_press": -1, "wordID": 1182, "type": "PRES_VIS", "trial_index": 139}, "uniqueid": "MTK2804:39OWYR0EPLYSA3WNKOTYRU1TR5XFYI", "dateTime": 1519403608344}, {"current_trial": 140, "trialdata": {"rt": -1, "trial_type": "single-stim", "word": "stone", "stimulus": "<p id=\"stim\">STONE</p>", "conditions": [24, 800, "v", 12000], "internal_node_id": "0.0-104.0", "trial": 3, "time_elapsed": 635960, "serialpos": 23, "key_press": -1, "wordID": 1384, "type": "PRES_VIS", "trial_index": 140}, "uniqueid": "MTK2804:39OWYR0EPLYSA3WNKOTYRU1TR5XFYI", "dateTime": 1519403610180}, {"current_trial": 141, "trialdata": {"rt": -1, "trial_type": "single-stim", "stimulus": "", "internal_node_id": "0.0-105.0-0.0", "time_elapsed": 638161, "key_press": -1, "type": "PRE_RECALL_DELAY", "trial_index": 141}, "uniqueid": "MTK2804:39OWYR0EPLYSA3WNKOTYRU1TR5XFYI", "dateTime": 1519403612381}, {"current_trial": 142, "trialdata": {"rt": -1000, "trial_type": "single-audio", "stimulus": "/static/audio/400Hz.wav", "internal_node_id": "0.0-106.0", "time_elapsed": 638665, "key_press": -1, "type": "PRE_RECALL_ALERT", "trial_index": 142}, "uniqueid": "MTK2804:39OWYR0EPLYSA3WNKOTYRU1TR5XFYI", "dateTime": 1519403612885}, {"current_trial": 143, "trialdata": {"rt": [3223, 4845, 7858, 9932, 14173, 16663, 18967, 20698, 23520, 25239, 33479, 44791], "recwords": ["sparrow", "robin", "scalpel", "sunrise", "sunset", "patient", "lettuce", "salad", "sandwich", "wasp", "salad", "cook"], "key_times": [1310, 1530, 1688, 1937, 2105, 2266, 2434, 3223, 3525, 3711, 3962, 4053, 4332, 4845, 5210, 5473, 5673, 6141, 6890, 7281, 7392, 7858, 8147, 8235, 8489, 9020, 9150, 9287, 9450, 9932, 10270, 10420, 10707, 10925, 11050, 11528, 14173, 14770, 14919, 15151, 15308, 15614, 15774, 15944, 16663, 17040, 17177, 17393, 17566, 17732, 17983, 18320, 18967, 19466, 19690, 19896, 20033, 20367, 20698, 21110, 21305, 21436, 21930, 22210, 22286, 22853, 22921, 23520, 23816, 23998, 24306, 24538, 25239, 32437, 32643, 32847, 33046, 33256, 33479, 43901, 44027, 44197, 44448, 44791], "trial_type": "free-recall", "conditions": [24, 800, "v", 12000], "internal_node_id": "0.0-107.0-0.0", "key_presses": [83, 80, 65, 82, 82, 79, 87, 13, 82, 79, 66, 73, 78, 13, 83, 67, 65, 76, 80, 69, 76, 13, 83, 85, 78, 82, 73, 83, 69, 13, 83, 85, 78, 83, 69, 84, 13, 80, 65, 84, 73, 69, 78, 84, 13, 76, 69, 84, 84, 85, 67, 69, 13, 83, 65, 76, 65, 68, 13, 83, 65, 78, 68, 87, 73, 67, 72, 13, 87, 65, 83, 80, 13, 83, 65, 76, 65, 68, 13, 67, 79, 79, 75, 13], "trial": 3, "time_elapsed": 698671, "type": "FREE_RECALL", "trial_index": 143}, "uniqueid": "MTK2804:39OWYR0EPLYSA3WNKOTYRU1TR5XFYI", "dateTime": 1519403672898}, {"current_trial": 144, "trialdata": {"rt": 2893, "trial_type": "text", "internal_node_id": "0.0-108.0", "time_elapsed": 703574, "key_press": 32, "type": "INSTRUCTIONS", "trial_index": 144}, "uniqueid": "MTK2804:39OWYR0EPLYSA3WNKOTYRU1TR5XFYI", "dateTime": 1519403677795}, {"current_trial": 145, "trialdata": {"rt": [3007, 5471, 7089, 9889], "trial_type": "math-distractor", "key_times": [2356, 2739, 3007, 5049, 5183, 5471, 6759, 6950, 7089, 9423, 9592, 9889, 11911], "responses": ["13", "10", "11", "17"], "num2": [8, 5, 5, 7, 8], "num3": [3, 2, 2, 1, 9], "conditions": [24, 800, "v", 12000], "internal_node_id": "0.0-109.0", "key_presses": [49, 51, 13, 49, 48, 13, 49, 49, 13, 49, 55, 13, 49], "trial": 4, "time_elapsed": 717581, "type": "DISTRACTOR", "trial_index": 145, "num1": [2, 3, 4, 9, 2]}, "uniqueid": "MTK2804:39OWYR0EPLYSA3WNKOTYRU1TR5XFYI", "dateTime": 1519403691801}, {"current_trial": 146, "trialdata": {"rt": -1, "trial_type": "single-stim", "stimulus": "<p id=\"stim\">10</p>", "internal_node_id": "0.0-110.0-0.0", "time_elapsed": 720586, "key_press": -1, "trial_index": 146}, "uniqueid": "MTK2804:39OWYR0EPLYSA3WNKOTYRU1TR5XFYI", "dateTime": 1519403694806}, {"current_trial": 147, "trialdata": {"rt": -1, "trial_type": "single-stim", "stimulus": "<p id=\"stim\">9</p>", "internal_node_id": "0.0-110.0-1.0", "time_elapsed": 721588, "key_press": -1, "trial_index": 147}, "uniqueid": "MTK2804:39OWYR0EPLYSA3WNKOTYRU1TR5XFYI", "dateTime": 1519403695808}, {"current_trial": 148, "trialdata": {"rt": -1, "trial_type": "single-stim", "stimulus": "<p id=\"stim\">8</p>", "internal_node_id": "0.0-110.0-2.0", "time_elapsed": 722590, "key_press": -1, "trial_index": 148}, "uniqueid": "MTK2804:39OWYR0EPLYSA3WNKOTYRU1TR5XFYI", "dateTime": 1519403696810}, {"current_trial": 149, "trialdata": {"rt": -1, "trial_type": "single-stim", "stimulus": "<p id=\"stim\">7</p>", "internal_node_id": "0.0-110.0-3.0", "time_elapsed": 723593, "key_press": -1, "trial_index": 149}, "uniqueid": "MTK2804:39OWYR0EPLYSA3WNKOTYRU1TR5XFYI", "dateTime": 1519403697813}, {"current_trial": 150, "trialdata": {"rt": -1, "trial_type": "single-stim", "stimulus": "<p id=\"stim\">6</p>", "internal_node_id": "0.0-110.0-4.0", "time_elapsed": 724595, "key_press": -1, "trial_index": 150}, "uniqueid": "MTK2804:39OWYR0EPLYSA3WNKOTYRU1TR5XFYI", "dateTime": 1519403698816}, {"current_trial": 151, "trialdata": {"rt": -1, "trial_type": "single-stim", "stimulus": "<p id=\"stim\">5</p>", "internal_node_id": "0.0-110.0-5.0", "time_elapsed": 725598, "key_press": -1, "trial_index": 151}, "uniqueid": "MTK2804:39OWYR0EPLYSA3WNKOTYRU1TR5XFYI", "dateTime": 1519403699821}, {"current_trial": 152, "trialdata": {"rt": -1, "trial_type": "single-stim", "stimulus": "<p id=\"stim\">4</p>", "internal_node_id": "0.0-110.0-6.0", "time_elapsed": 726603, "key_press": -1, "trial_index": 152}, "uniqueid": "MTK2804:39OWYR0EPLYSA3WNKOTYRU1TR5XFYI", "dateTime": 1519403700824}, {"current_trial": 153, "trialdata": {"rt": -1, "trial_type": "single-stim", "stimulus": "<p id=\"stim\">3</p>", "internal_node_id": "0.0-110.0-7.0", "time_elapsed": 727606, "key_press": -1, "trial_index": 153}, "uniqueid": "MTK2804:39OWYR0EPLYSA3WNKOTYRU1TR5XFYI", "dateTime": 1519403701827}, {"current_trial": 154, "trialdata": {"rt": -1, "trial_type": "single-stim", "stimulus": "<p id=\"stim\">2</p>", "internal_node_id": "0.0-110.0-8.0", "time_elapsed": 728609, "key_press": -1, "trial_index": 154}, "uniqueid": "MTK2804:39OWYR0EPLYSA3WNKOTYRU1TR5XFYI", "dateTime": 1519403702829}, {"current_trial": 155, "trialdata": {"rt": -1, "trial_type": "single-stim", "stimulus": "<p id=\"stim\">1</p>", "internal_node_id": "0.0-110.0-9.0", "time_elapsed": 729612, "key_press": -1, "trial_index": 155}, "uniqueid": "MTK2804:39OWYR0EPLYSA3WNKOTYRU1TR5XFYI", "dateTime": 1519403703832}, {"current_trial": 156, "trialdata": {"rt": -1, "trial_type": "single-stim", "stimulus": "<p id=\"stim\">+</p>", "internal_node_id": "0.0-111.0-0.0", "time_elapsed": 731115, "key_press": -1, "type": "FIXATION", "trial_index": 156}, "uniqueid": "MTK2804:39OWYR0EPLYSA3WNKOTYRU1TR5XFYI", "dateTime": 1519403705335}, {"current_trial": 157, "trialdata": {"rt": -1, "trial_type": "single-stim", "word": "female", "stimulus": "<p id=\"stim\">FEMALE</p>", "conditions": [24, 800, "v", 12000], "internal_node_id": "0.0-112.0", "trial": 4, "time_elapsed": 731918, "serialpos": 0, "key_press": -1, "wordID": 558, "type": "PRES_VIS", "trial_index": 157}, "uniqueid": "MTK2804:39OWYR0EPLYSA3WNKOTYRU1TR5XFYI", "dateTime": 1519403706139}, {"current_trial": 158, "trialdata": {"rt": -1, "trial_type": "single-stim", "word": "pocket", "stimulus": "<p id=\"stim\">POCKET</p>", "conditions": [24, 800, "v", 12000], "internal_node_id": "0.0-113.0", "trial": 4, "time_elapsed": 733892, "serialpos": 1, "key_press": -1, "wordID": 1092, "type": "PRES_VIS", "trial_index": 158}, "uniqueid": "MTK2804:39OWYR0EPLYSA3WNKOTYRU1TR5XFYI", "dateTime": 1519403708113}, {"current_trial": 159, "trialdata": {"rt": -1, "trial_type": "single-stim", "word": "expert", "stimulus": "<p id=\"stim\">EXPERT</p>", "conditions": [24, 800, "v", 12000], "internal_node_id": "0.0-114.0", "trial": 4, "time_elapsed": 735513, "serialpos": 2, "key_press": -1, "wordID": 542, "type": "PRES_VIS", "trial_index": 159}, "uniqueid": "MTK2804:39OWYR0EPLYSA3WNKOTYRU1TR5XFYI", "dateTime": 1519403709733}, {"current_trial": 160, "trialdata": {"rt": -1, "trial_type": "single-stim", "word": "asia", "stimulus": "<p id=\"stim\">ASIA</p>", "conditions": [24, 800, "v", 12000], "internal_node_id": "0.0-115.0", "trial": 4, "time_elapsed": 737128, "serialpos": 3, "key_press": -1, "wordID": 45, "type": "PRES_VIS", "trial_index": 160}, "uniqueid": "MTK2804:39OWYR0EPLYSA3WNKOTYRU1TR5XFYI", "dateTime": 1519403711348}, {"current_trial": 161, "trialdata": {"rt": -1, "trial_type": "single-stim", "word": "japan", "stimulus": "<p id=\"stim\">JAPAN</p>", "conditions": [24, 800, "v", 12000], "internal_node_id": "0.0-116.0", "trial": 4, "time_elapsed": 738853, "serialpos": 4, "key_press": -1, "wordID": 748, "type": "PRES_VIS", "trial_index": 161}, "uniqueid": "MTK2804:39OWYR0EPLYSA3WNKOTYRU1TR5XFYI", "dateTime": 1519403713073}, {"current_trial": 162, "trialdata": {"rt": -1, "trial_type": "single-stim", "word": "bathtub", "stimulus": "<p id=\"stim\">BATHTUB</p>", "conditions": [24, 800, "v", 12000], "internal_node_id": "0.0-117.0", "trial": 4, "time_elapsed": 740736, "serialpos": 5, "key_press": -1, "wordID": 99, "type": "PRES_VIS", "trial_index": 162}, "uniqueid": "MTK2804:39OWYR0EPLYSA3WNKOTYRU1TR5XFYI", "dateTime": 1519403714956}, {"current_trial": 163, "trialdata": {"rt": -1, "trial_type": "single-stim", "word": "chemist", "stimulus": "<p id=\"stim\">CHEMIST</p>", "conditions": [24, 800, "v", 12000], "internal_node_id": "0.0-118.0", "trial": 4, "time_elapsed": 742373, "serialpos": 6, "key_press": -1, "wordID": 291, "type": "PRES_VIS", "trial_index": 163}, "uniqueid": "MTK2804:39OWYR0EPLYSA3WNKOTYRU1TR5XFYI", "dateTime": 1519403716594}, {"current_trial": 164, "trialdata": {"rt": -1, "trial_type": "single-stim", "word": "briefcase", "stimulus": "<p id=\"stim\">BRIEFCASE</p>", "conditions": [24, 800, "v", 12000], "internal_node_id": "0.0-119.0", "trial": 4, "time_elapsed": 744056, "serialpos": 7, "key_press": -1, "wordID": 174, "type": "PRES_VIS", "trial_index": 164}, "uniqueid": "MTK2804:39OWYR0EPLYSA3WNKOTYRU1TR5XFYI", "dateTime": 1519403718277}, {"current_trial": 165, "trialdata": {"rt": -1, "trial_type": "single-stim", "word": "witness", "stimulus": "<p id=\"stim\">WITNESS</p>", "conditions": [24, 800, "v", 12000], "internal_node_id": "0.0-120.0", "trial": 4, "time_elapsed": 745979, "serialpos": 8, "key_press": -1, "wordID": 1617, "type": "PRES_VIS", "trial_index": 165}, "uniqueid": "MTK2804:39OWYR0EPLYSA3WNKOTYRU1TR5XFYI", "dateTime": 1519403720200}, {"current_trial": 166, "trialdata": {"rt": -1, "trial_type": "single-stim", "word": "marine", "stimulus": "<p id=\"stim\">MARINE</p>", "conditions": [24, 800, "v", 12000], "internal_node_id": "0.0-121.0", "trial": 4, "time_elapsed": 747962, "serialpos": 9, "key_press": -1, "wordID": 868, "type": "PRES_VIS", "trial_index": 166}, "uniqueid": "MTK2804:39OWYR0EPLYSA3WNKOTYRU1TR5XFYI", "dateTime": 1519403722182}, {"current_trial": 167, "trialdata": {"rt": -1, "trial_type": "single-stim", "word": "skirt", "stimulus": "<p id=\"stim\">SKIRT</p>", "conditions": [24, 800, "v", 12000], "internal_node_id": "0.0-122.0", "trial": 4, "time_elapsed": 749898, "serialpos": 10, "key_press": -1, "wordID": 1318, "type": "PRES_VIS", "trial_index": 167}, "uniqueid": "MTK2804:39OWYR0EPLYSA3WNKOTYRU1TR5XFYI", "dateTime": 1519403724118}, {"current_trial": 168, "trialdata": {"rt": -1, "trial_type": "single-stim", "word": "hostess", "stimulus": "<p id=\"stim\">HOSTESS</p>", "conditions": [24, 800, "v", 12000], "internal_node_id": "0.0-123.0", "trial": 4, "time_elapsed": 751733, "serialpos": 11, "key_press": -1, "wordID": 722, "type": "PRES_VIS", "trial_index": 168}, "uniqueid": "MTK2804:39OWYR0EPLYSA3WNKOTYRU1TR5XFYI", "dateTime": 1519403725953}, {"current_trial": 169, "trialdata": {"rt": -1, "trial_type": "single-stim", "word": "transplant", "stimulus": "<p id=\"stim\">TRANSPLANT</p>", "conditions": [24, 800, "v", 12000], "internal_node_id": "0.0-124.0", "trial": 4, "time_elapsed": 753554, "serialpos": 12, "key_press": -1, "wordID": 1495, "type": "PRES_VIS", "trial_index": 169}, "uniqueid": "MTK2804:39OWYR0EPLYSA3WNKOTYRU1TR5XFYI", "dateTime": 1519403727774}, {"current_trial": 170, "trialdata": {"rt": -1, "trial_type": "single-stim", "word": "rocket", "stimulus": "<p id=\"stim\">ROCKET</p>", "conditions": [24, 800, "v", 12000], "internal_node_id": "0.0-125.0", "trial": 4, "time_elapsed": 755267, "serialpos": 13, "key_press": -1, "wordID": 1201, "type": "PRES_VIS", "trial_index": 170}, "uniqueid": "MTK2804:39OWYR0EPLYSA3WNKOTYRU1TR5XFYI", "dateTime": 1519403729488}, {"current_trial": 171, "trialdata": {"rt": -1, "trial_type": "single-stim", "word": "perch", "stimulus": "<p id=\"stim\">PERCH</p>", "conditions": [24, 800, "v", 12000], "internal_node_id": "0.0-126.0", "trial": 4, "time_elapsed": 757246, "serialpos": 14, "key_press": -1, "wordID": 1047, "type": "PRES_VIS", "trial_index": 171}, "uniqueid": "MTK2804:39OWYR0EPLYSA3WNKOTYRU1TR5XFYI", "dateTime": 1519403731467}, {"current_trial": 172, "trialdata": {"rt": -1, "trial_type": "single-stim", "word": "handbag", "stimulus": "<p id=\"stim\">HANDBAG</p>", "conditions": [24, 800, "v", 12000], "internal_node_id": "0.0-127.0", "trial": 4, "time_elapsed": 759208, "serialpos": 15, "key_press": -1, "wordID": 683, "type": "PRES_VIS", "trial_index": 172}, "uniqueid": "MTK2804:39OWYR0EPLYSA3WNKOTYRU1TR5XFYI", "dateTime": 1519403733428}, {"current_trial": 173, "trialdata": {"rt": -1, "trial_type": "single-stim", "word": "pliers", "stimulus": "<p id=\"stim\">PLIERS</p>", "conditions": [24, 800, "v", 12000], "internal_node_id": "0.0-128.0", "trial": 4, "time_elapsed": 760948, "serialpos": 16, "key_press": -1, "wordID": 1088, "type": "PRES_VIS", "trial_index": 173}, "uniqueid": "MTK2804:39OWYR0EPLYSA3WNKOTYRU1TR5XFYI", "dateTime": 1519403735168}, {"current_trial": 174, "trialdata": {"rt": -1, "trial_type": "single-stim", "word": "stove", "stimulus": "<p id=\"stim\">STOVE</p>", "conditions": [24, 800, "v", 12000], "internal_node_id": "0.0-129.0", "trial": 4, "time_elapsed": 762761, "serialpos": 17, "key_press": -1, "wordID": 1387, "type": "PRES_VIS", "trial_index": 174}, "uniqueid": "MTK2804:39OWYR0EPLYSA3WNKOTYRU1TR5XFYI", "dateTime": 1519403736981}, {"current_trial": 175, "trialdata": {"rt": -1, "trial_type": "single-stim", "word": "toaster", "stimulus": "<p id=\"stim\">TOASTER</p>", "conditions": [24, 800, "v", 12000], "internal_node_id": "0.0-130.0", "trial": 4, "time_elapsed": 764596, "serialpos": 18, "key_press": -1, "wordID": 1471, "type": "PRES_VIS", "trial_index": 175}, "uniqueid": "MTK2804:39OWYR0EPLYSA3WNKOTYRU1TR5XFYI", "dateTime": 1519403738816}, {"current_trial": 176, "trialdata": {"rt": -1, "trial_type": "single-stim", "word": "picnic", "stimulus": "<p id=\"stim\">PICNIC</p>", "conditions": [24, 800, "v", 12000], "internal_node_id": "0.0-131.0", "trial": 4, "time_elapsed": 766393, "serialpos": 19, "key_press": -1, "wordID": 1059, "type": "PRES_VIS", "trial_index": 176}, "uniqueid": "MTK2804:39OWYR0EPLYSA3WNKOTYRU1TR5XFYI", "dateTime": 1519403740613}, {"current_trial": 177, "trialdata": {"rt": -1, "trial_type": "single-stim", "word": "nightgown", "stimulus": "<p id=\"stim\">NIGHTGOWN</p>", "conditions": [24, 800, "v", 12000], "internal_node_id": "0.0-132.0", "trial": 4, "time_elapsed": 768271, "serialpos": 20, "key_press": -1, "wordID": 952, "type": "PRES_VIS", "trial_index": 177}, "uniqueid": "MTK2804:39OWYR0EPLYSA3WNKOTYRU1TR5XFYI", "dateTime": 1519403742492}, {"current_trial": 178, "trialdata": {"rt": -1, "trial_type": "single-stim", "word": "dresser", "stimulus": "<p id=\"stim\">DRESSER</p>", "conditions": [24, 800, "v", 12000], "internal_node_id": "0.0-133.0", "trial": 4, "time_elapsed": 769885, "serialpos": 21, "key_press": -1, "wordID": 495, "type": "PRES_VIS", "trial_index": 178}, "uniqueid": "MTK2804:39OWYR0EPLYSA3WNKOTYRU1TR5XFYI", "dateTime": 1519403744105}, {"current_trial": 179, "trialdata": {"rt": -1, "trial_type": "single-stim", "word": "kidney", "stimulus": "<p id=\"stim\">KIDNEY</p>", "conditions": [24, 800, "v", 12000], "internal_node_id": "0.0-134.0", "trial": 4, "time_elapsed": 771765, "serialpos": 22, "key_press": -1, "wordID": 775, "type": "PRES_VIS", "trial_index": 179}, "uniqueid": "MTK2804:39OWYR0EPLYSA3WNKOTYRU1TR5XFYI", "dateTime": 1519403745985}, {"current_trial": 180, "trialdata": {"rt": -1, "trial_type": "single-stim", "word": "luggage", "stimulus": "<p id=\"stim\">LUGGAGE</p>", "conditions": [24, 800, "v", 12000], "internal_node_id": "0.0-135.0", "trial": 4, "time_elapsed": 773477, "serialpos": 23, "key_press": -1, "wordID": 846, "type": "PRES_VIS", "trial_index": 180}, "uniqueid": "MTK2804:39OWYR0EPLYSA3WNKOTYRU1TR5XFYI", "dateTime": 1519403747697}, {"current_trial": 181, "trialdata": {"rt": -1, "trial_type": "single-stim", "stimulus": "", "internal_node_id": "0.0-136.0-0.0", "time_elapsed": 775862, "key_press": -1, "type": "PRE_RECALL_DELAY", "trial_index": 181}, "uniqueid": "MTK2804:39OWYR0EPLYSA3WNKOTYRU1TR5XFYI", "dateTime": 1519403750082}, {"current_trial": 182, "trialdata": {"rt": -1000, "trial_type": "single-audio", "stimulus": "/static/audio/400Hz.wav", "internal_node_id": "0.0-137.0", "time_elapsed": 776363, "key_press": -1, "type": "PRE_RECALL_ALERT", "trial_index": 182}, "uniqueid": "MTK2804:39OWYR0EPLYSA3WNKOTYRU1TR5XFYI", "dateTime": 1519403750583}, {"current_trial": 183, "trialdata": {"rt": [3520, 6439, 9684, 11941, 16400, 28398, 32351, 33658], "recwords": ["toaster", "picnic", "nightgown", "dresser", "female", "night", "marine", "knight"], "key_times": [1285, 1898, 2022, 2198, 2410, 2583, 2717, 3520, 5002, 5166, 5378, 5678, 5831, 5997, 6439, 7469, 7687, 7850, 7958, 8169, 8978, 9119, 9282, 9386, 9684, 9964, 10262, 10380, 10695, 10870, 11003, 11158, 11941, 14517, 14785, 14925, 15048, 15156, 15332, 16400, 27466, 27622, 27737, 27960, 28170, 28398, 31392, 31526, 31659, 31735, 31924, 32028, 32351, 32619, 32825, 32976, 33148, 33259, 33458, 33658], "trial_type": "free-recall", "conditions": [24, 800, "v", 12000], "internal_node_id": "0.0-138.0-0.0", "key_presses": [84, 79, 65, 83, 84, 69, 82, 13, 80, 73, 67, 78, 73, 67, 13, 78, 73, 71, 72, 84, 71, 79, 87, 78, 13, 68, 82, 69, 83, 83, 69, 82, 13, 70, 69, 77, 65, 76, 69, 13, 78, 73, 71, 72, 84, 13, 77, 65, 82, 73, 78, 69, 13, 75, 78, 73, 71, 72, 84, 13], "trial": 4, "time_elapsed": 836369, "type": "FREE_RECALL", "trial_index": 183}, "uniqueid": "MTK2804:39OWYR0EPLYSA3WNKOTYRU1TR5XFYI", "dateTime": 1519403810596}, {"current_trial": 184, "trialdata": {"rt": 5730, "trial_type": "text", "internal_node_id": "0.0-139.0", "time_elapsed": 844110, "key_press": 32, "type": "INSTRUCTIONS", "trial_index": 184}, "uniqueid": "MTK2804:39OWYR0EPLYSA3WNKOTYRU1TR5XFYI", "dateTime": 1519403818330}, {"current_trial": 185, "trialdata": {"rt": [4382, 7930, 11342, 15329, 16827, 20855, 23427], "trial_type": "math-distractor", "key_times": [3862, 4087, 4382, 7704, 7930, 11030, 11173, 11342, 14909, 15088, 15329, 16518, 16640, 16827, 20268, 20375, 20855, 22853, 22975, 23427], "responses": ["25", "7", "21", "13", "13", "20", "19"], "num2": [6, 1, 8, 3, 4, 5, 5, 9], "num3": [9, 2, 4, 4, 8, 6, 5, 7], "conditions": [12, 1600, "v", 24000], "internal_node_id": "0.0-140.0", "key_presses": [50, 53, 13, 55, 13, 50, 49, 13, 49, 51, 13, 49, 51, 13, 50, 48, 13, 49, 57, 13], "trial": 5, "time_elapsed": 870118, "type": "DISTRACTOR", "trial_index": 185, "num1": [9, 4, 9, 6, 1, 9, 9, 2]}, "uniqueid": "MTK2804:39OWYR0EPLYSA3WNKOTYRU1TR5XFYI", "dateTime": 1519403844339}, {"current_trial": 186, "trialdata": {"rt": -1, "trial_type": "single-stim", "stimulus": "<p id=\"stim\">10</p>", "internal_node_id": "0.0-141.0-0.0", "time_elapsed": 873123, "key_press": -1, "trial_index": 186}, "uniqueid": "MTK2804:39OWYR0EPLYSA3WNKOTYRU1TR5XFYI", "dateTime": 1519403847343}, {"current_trial": 187, "trialdata": {"rt": -1, "trial_type": "single-stim", "stimulus": "<p id=\"stim\">9</p>", "internal_node_id": "0.0-141.0-1.0", "time_elapsed": 874128, "key_press": -1, "trial_index": 187}, "uniqueid": "MTK2804:39OWYR0EPLYSA3WNKOTYRU1TR5XFYI", "dateTime": 1519403848348}, {"current_trial": 188, "trialdata": {"rt": -1, "trial_type": "single-stim", "stimulus": "<p id=\"stim\">8</p>", "internal_node_id": "0.0-141.0-2.0", "time_elapsed": 875131, "key_press": -1, "trial_index": 188}, "uniqueid": "MTK2804:39OWYR0EPLYSA3WNKOTYRU1TR5XFYI", "dateTime": 1519403849351}, {"current_trial": 189, "trialdata": {"rt": -1, "trial_type": "single-stim", "stimulus": "<p id=\"stim\">7</p>", "internal_node_id": "0.0-141.0-3.0", "time_elapsed": 876133, "key_press": -1, "trial_index": 189}, "uniqueid": "MTK2804:39OWYR0EPLYSA3WNKOTYRU1TR5XFYI", "dateTime": 1519403850354}, {"current_trial": 190, "trialdata": {"rt": -1, "trial_type": "single-stim", "stimulus": "<p id=\"stim\">6</p>", "internal_node_id": "0.0-141.0-4.0", "time_elapsed": 877137, "key_press": -1, "trial_index": 190}, "uniqueid": "MTK2804:39OWYR0EPLYSA3WNKOTYRU1TR5XFYI", "dateTime": 1519403851357}, {"current_trial": 191, "trialdata": {"rt": -1, "trial_type": "single-stim", "stimulus": "<p id=\"stim\">5</p>", "internal_node_id": "0.0-141.0-5.0", "time_elapsed": 878140, "key_press": -1, "trial_index": 191}, "uniqueid": "MTK2804:39OWYR0EPLYSA3WNKOTYRU1TR5XFYI", "dateTime": 1519403852361}, {"current_trial": 192, "trialdata": {"rt": -1, "trial_type": "single-stim", "stimulus": "<p id=\"stim\">4</p>", "internal_node_id": "0.0-141.0-6.0", "time_elapsed": 879143, "key_press": -1, "trial_index": 192}, "uniqueid": "MTK2804:39OWYR0EPLYSA3WNKOTYRU1TR5XFYI", "dateTime": 1519403853363}, {"current_trial": 193, "trialdata": {"rt": -1, "trial_type": "single-stim", "stimulus": "<p id=\"stim\">3</p>", "internal_node_id": "0.0-141.0-7.0", "time_elapsed": 880148, "key_press": -1, "trial_index": 193}, "uniqueid": "MTK2804:39OWYR0EPLYSA3WNKOTYRU1TR5XFYI", "dateTime": 1519403854368}, {"current_trial": 194, "trialdata": {"rt": -1, "trial_type": "single-stim", "stimulus": "<p id=\"stim\">2</p>", "internal_node_id": "0.0-141.0-8.0", "time_elapsed": 881151, "key_press": -1, "trial_index": 194}, "uniqueid": "MTK2804:39OWYR0EPLYSA3WNKOTYRU1TR5XFYI", "dateTime": 1519403855371}, {"current_trial": 195, "trialdata": {"rt": -1, "trial_type": "single-stim", "stimulus": "<p id=\"stim\">1</p>", "internal_node_id": "0.0-141.0-9.0", "time_elapsed": 882153, "key_press": -1, "trial_index": 195}, "uniqueid": "MTK2804:39OWYR0EPLYSA3WNKOTYRU1TR5XFYI", "dateTime": 1519403856373}, {"current_trial": 196, "trialdata": {"rt": -1, "trial_type": "single-stim", "stimulus": "<p id=\"stim\">+</p>", "internal_node_id": "0.0-142.0-0.0", "time_elapsed": 883655, "key_press": -1, "type": "FIXATION", "trial_index": 196}, "uniqueid": "MTK2804:39OWYR0EPLYSA3WNKOTYRU1TR5XFYI", "dateTime": 1519403857875}, {"current_trial": 197, "trialdata": {"rt": -1, "trial_type": "single-stim", "word": "crevice", "stimulus": "<p id=\"stim\">CREVICE</p>", "conditions": [12, 1600, "v", 24000], "internal_node_id": "0.0-143.0", "trial": 5, "time_elapsed": 885257, "serialpos": 0, "key_press": -1, "wordID": 404, "type": "PRES_VIS", "trial_index": 197}, "uniqueid": "MTK2804:39OWYR0EPLYSA3WNKOTYRU1TR5XFYI", "dateTime": 1519403859478}, {"current_trial": 198, "trialdata": {"rt": -1, "trial_type": "single-stim", "word": "knapsack", "stimulus": "<p id=\"stim\">KNAPSACK</p>", "conditions": [12, 1600, "v", 24000], "internal_node_id": "0.0-144.0", "trial": 5, "time_elapsed": 887958, "serialpos": 1, "key_press": -1, "wordID": 782, "type": "PRES_VIS", "trial_index": 198}, "uniqueid": "MTK2804:39OWYR0EPLYSA3WNKOTYRU1TR5XFYI", "dateTime": 1519403862178}, {"current_trial": 199, "trialdata": {"rt": -1, "trial_type": "single-stim", "word": "ozone", "stimulus": "<p id=\"stim\">OZONE</p>", "conditions": [12, 1600, "v", 24000], "internal_node_id": "0.0-145.0", "trial": 5, "time_elapsed": 890482, "serialpos": 2, "key_press": -1, "wordID": 995, "type": "PRES_VIS", "trial_index": 199}, "uniqueid": "MTK2804:39OWYR0EPLYSA3WNKOTYRU1TR5XFYI", "dateTime": 1519403864702}, {"current_trial": 200, "trialdata": {"rt": -1, "trial_type": "single-stim", "word": "boyfriend", "stimulus": "<p id=\"stim\">BOYFRIEND</p>", "conditions": [12, 1600, "v", 24000], "internal_node_id": "0.0-146.0", "trial": 5, "time_elapsed": 893056, "serialpos": 3, "key_press": -1, "wordID": 161, "type": "PRES_VIS", "trial_index": 200}, "uniqueid": "MTK2804:39OWYR0EPLYSA3WNKOTYRU1TR5XFYI", "dateTime": 1519403867276}, {"current_trial": 201, "trialdata": {"rt": -1, "trial_type": "single-stim", "word": "wife", "stimulus": "<p id=\"stim\">WIFE</p>", "conditions": [12, 1600, "v", 24000], "internal_node_id": "0.0-147.0", "trial": 5, "time_elapsed": 895811, "serialpos": 4, "key_press": -1, "wordID": 1608, "type": "PRES_VIS", "trial_index": 201}, "uniqueid": "MTK2804:39OWYR0EPLYSA3WNKOTYRU1TR5XFYI", "dateTime": 1519403870032}, {"current_trial": 202, "trialdata": {"rt": -1, "trial_type": "single-stim", "word": "marrow", "stimulus": "<p id=\"stim\">MARROW</p>", "conditions": [12, 1600, "v", 24000], "internal_node_id": "0.0-148.0", "trial": 5, "time_elapsed": 898488, "serialpos": 5, "key_press": -1, "wordID": 871, "type": "PRES_VIS", "trial_index": 202}, "uniqueid": "MTK2804:39OWYR0EPLYSA3WNKOTYRU1TR5XFYI", "dateTime": 1519403872709}, {"current_trial": 203, "trialdata": {"rt": -1, "trial_type": "single-stim", "word": "shortcake", "stimulus": "<p id=\"stim\">SHORTCAKE</p>", "conditions": [12, 1600, "v", 24000], "internal_node_id": "0.0-149.0", "trial": 5, "time_elapsed": 901244, "serialpos": 6, "key_press": -1, "wordID": 1291, "type": "PRES_VIS", "trial_index": 203}, "uniqueid": "MTK2804:39OWYR0EPLYSA3WNKOTYRU1TR5XFYI", "dateTime": 1519403875464}, {"current_trial": 204, "trialdata": {"rt": -1, "trial_type": "single-stim", "word": "body", "stimulus": "<p id=\"stim\">BODY</p>", "conditions": [12, 1600, "v", 24000], "internal_node_id": "0.0-150.0", "trial": 5, "time_elapsed": 903909, "serialpos": 7, "key_press": -1, "wordID": 144, "type": "PRES_VIS", "trial_index": 204}, "uniqueid": "MTK2804:39OWYR0EPLYSA3WNKOTYRU1TR5XFYI", "dateTime": 1519403878129}, {"current_trial": 205, "trialdata": {"rt": -1, "trial_type": "single-stim", "word": "hero", "stimulus": "<p id=\"stim\">HERO</p>", "conditions": [12, 1600, "v", 24000], "internal_node_id": "0.0-151.0", "trial": 5, "time_elapsed": 906504, "serialpos": 8, "key_press": -1, "wordID": 705, "type": "PRES_VIS", "trial_index": 205}, "uniqueid": "MTK2804:39OWYR0EPLYSA3WNKOTYRU1TR5XFYI", "dateTime": 1519403880725}, {"current_trial": 206, "trialdata": {"rt": -1, "trial_type": "single-stim", "word": "suitcase", "stimulus": "<p id=\"stim\">SUITCASE</p>", "conditions": [12, 1600, "v", 24000], "internal_node_id": "0.0-152.0", "trial": 5, "time_elapsed": 909306, "serialpos": 9, "key_press": -1, "wordID": 1402, "type": "PRES_VIS", "trial_index": 206}, "uniqueid": "MTK2804:39OWYR0EPLYSA3WNKOTYRU1TR5XFYI", "dateTime": 1519403883526}, {"current_trial": 207, "trialdata": {"rt": -1, "trial_type": "single-stim", "word": "comet", "stimulus": "<p id=\"stim\">COMET</p>", "conditions": [12, 1600, "v", 24000], "internal_node_id": "0.0-153.0", "trial": 5, "time_elapsed": 911762, "serialpos": 10, "key_press": -1, "wordID": 352, "type": "PRES_VIS", "trial_index": 207}, "uniqueid": "MTK2804:39OWYR0EPLYSA3WNKOTYRU1TR5XFYI", "dateTime": 1519403885982}, {"current_trial": 208, "trialdata": {"rt": -1, "trial_type": "single-stim", "word": "knife", "stimulus": "<p id=\"stim\">KNIFE</p>", "conditions": [12, 1600, "v", 24000], "internal_node_id": "0.0-154.0", "trial": 5, "time_elapsed": 914464, "serialpos": 11, "key_press": -1, "wordID": 784, "type": "PRES_VIS", "trial_index": 208}, "uniqueid": "MTK2804:39OWYR0EPLYSA3WNKOTYRU1TR5XFYI", "dateTime": 1519403888684}, {"current_trial": 209, "trialdata": {"rt": -1, "trial_type": "single-stim", "stimulus": "", "internal_node_id": "0.0-155.0-0.0", "time_elapsed": 916709, "key_press": -1, "type": "PRE_RECALL_DELAY", "trial_index": 209}, "uniqueid": "MTK2804:39OWYR0EPLYSA3WNKOTYRU1TR5XFYI", "dateTime": 1519403890929}, {"current_trial": 210, "trialdata": {"rt": -1000, "trial_type": "single-audio", "stimulus": "/static/audio/400Hz.wav", "internal_node_id": "0.0-156.0", "time_elapsed": 917212, "key_press": -1, "type": "PRE_RECALL_ALERT", "trial_index": 210}, "uniqueid": "MTK2804:39OWYR0EPLYSA3WNKOTYRU1TR5XFYI", "dateTime": 1519403891432}, {"current_trial": 211, "trialdata": {"rt": [4627, 7602, 16181, 27743], "recwords": ["suitcase", "marrow", "cabin", "plate"], "key_times": [2504, 2601, 2721, 2999, 3329, 3538, 3725, 3966, 4627, 6182, 6303, 6475, 6682, 6838, 7221, 7602, 15234, 15389, 15628, 15742, 15916, 16181, 27094, 27286, 27384, 27485, 27606, 27743], "trial_type": "free-recall", "conditions": [12, 1600, "v", 24000], "internal_node_id": "0.0-157.0-0.0", "key_presses": [83, 85, 73, 84, 67, 65, 83, 69, 13, 77, 65, 82, 82, 79, 87, 13, 67, 65, 66, 73, 78, 13, 80, 76, 65, 84, 69, 13], "trial": 5, "time_elapsed": 977216, "type": "FREE_RECALL", "trial_index": 211}, "uniqueid": "MTK2804:39OWYR0EPLYSA3WNKOTYRU1TR5XFYI", "dateTime": 1519403951445}, {"current_trial": 212, "trialdata": {"rt": 92749, "trial_type": "text", "internal_node_id": "0.0-158.0", "time_elapsed": 1071979, "key_press": 32, "type": "INSTRUCTIONS", "trial_index": 212}, "uniqueid": "MTK2804:39OWYR0EPLYSA3WNKOTYRU1TR5XFYI", "dateTime": 1519404046200}, {"current_trial": 213, "trialdata": {"rt": [3196, 7625, 12114, 14515, 16969, 18819, 23553], "trial_type": "math-distractor", "key_times": [2397, 2850, 3196, 6589, 6949, 7112, 7625, 11326, 11876, 12114, 14149, 14259, 14515, 16556, 16697, 16969, 18492, 18656, 18819, 22900, 23286, 23553], "responses": ["14", "9", "16", "10", "10", "11", "17"], "num2": [9, 4, 3, 2, 5, 2, 8, 2], "num3": [2, 3, 9, 2, 2, 7, 7, 5], "conditions": [24, 800, "v", 24000], "internal_node_id": "0.0-159.0", "key_presses": [49, 52, 13, 56, 8, 57, 13, 49, 54, 13, 49, 48, 13, 49, 48, 13, 49, 49, 13, 49, 55, 13], "trial": 6, "time_elapsed": 1097999, "type": "DISTRACTOR", "trial_index": 213, "num1": [3, 2, 4, 6, 3, 2, 2, 3]}, "uniqueid": "MTK2804:39OWYR0EPLYSA3WNKOTYRU1TR5XFYI", "dateTime": 1519404072219}, {"current_trial": 214, "trialdata": {"rt": -1, "trial_type": "single-stim", "stimulus": "<p id=\"stim\">10</p>", "internal_node_id": "0.0-160.0-0.0", "time_elapsed": 1101002, "key_press": -1, "trial_index": 214}, "uniqueid": "MTK2804:39OWYR0EPLYSA3WNKOTYRU1TR5XFYI", "dateTime": 1519404075222}, {"current_trial": 215, "trialdata": {"rt": -1, "trial_type": "single-stim", "stimulus": "<p id=\"stim\">9</p>", "internal_node_id": "0.0-160.0-1.0", "time_elapsed": 1102005, "key_press": -1, "trial_index": 215}, "uniqueid": "MTK2804:39OWYR0EPLYSA3WNKOTYRU1TR5XFYI", "dateTime": 1519404076225}, {"current_trial": 216, "trialdata": {"rt": -1, "trial_type": "single-stim", "stimulus": "<p id=\"stim\">8</p>", "internal_node_id": "0.0-160.0-2.0", "time_elapsed": 1103009, "key_press": -1, "trial_index": 216}, "uniqueid": "MTK2804:39OWYR0EPLYSA3WNKOTYRU1TR5XFYI", "dateTime": 1519404077229}, {"current_trial": 217, "trialdata": {"rt": -1, "trial_type": "single-stim", "stimulus": "<p id=\"stim\">7</p>", "internal_node_id": "0.0-160.0-3.0", "time_elapsed": 1104011, "key_press": -1, "trial_index": 217}, "uniqueid": "MTK2804:39OWYR0EPLYSA3WNKOTYRU1TR5XFYI", "dateTime": 1519404078231}, {"current_trial": 218, "trialdata": {"rt": -1, "trial_type": "single-stim", "stimulus": "<p id=\"stim\">6</p>", "internal_node_id": "0.0-160.0-4.0", "time_elapsed": 1105014, "key_press": -1, "trial_index": 218}, "uniqueid": "MTK2804:39OWYR0EPLYSA3WNKOTYRU1TR5XFYI", "dateTime": 1519404079234}, {"current_trial": 219, "trialdata": {"rt": -1, "trial_type": "single-stim", "stimulus": "<p id=\"stim\">5</p>", "internal_node_id": "0.0-160.0-5.0", "time_elapsed": 1106017, "key_press": -1, "trial_index": 219}, "uniqueid": "MTK2804:39OWYR0EPLYSA3WNKOTYRU1TR5XFYI", "dateTime": 1519404080237}, {"current_trial": 220, "trialdata": {"rt": -1, "trial_type": "single-stim", "stimulus": "<p id=\"stim\">4</p>", "internal_node_id": "0.0-160.0-6.0", "time_elapsed": 1107019, "key_press": -1, "trial_index": 220}, "uniqueid": "MTK2804:39OWYR0EPLYSA3WNKOTYRU1TR5XFYI", "dateTime": 1519404081239}, {"current_trial": 221, "trialdata": {"rt": -1, "trial_type": "single-stim", "stimulus": "<p id=\"stim\">3</p>", "internal_node_id": "0.0-160.0-7.0", "time_elapsed": 1108021, "key_press": -1, "trial_index": 221}, "uniqueid": "MTK2804:39OWYR0EPLYSA3WNKOTYRU1TR5XFYI", "dateTime": 1519404082241}, {"current_trial": 222, "trialdata": {"rt": -1, "trial_type": "single-stim", "stimulus": "<p id=\"stim\">2</p>", "internal_node_id": "0.0-160.0-8.0", "time_elapsed": 1109024, "key_press": -1, "trial_index": 222}, "uniqueid": "MTK2804:39OWYR0EPLYSA3WNKOTYRU1TR5XFYI", "dateTime": 1519404083244}, {"current_trial": 223, "trialdata": {"rt": -1, "trial_type": "single-stim", "stimulus": "<p id=\"stim\">1</p>", "internal_node_id": "0.0-160.0-9.0", "time_elapsed": 1110026, "key_press": -1, "trial_index": 223}, "uniqueid": "MTK2804:39OWYR0EPLYSA3WNKOTYRU1TR5XFYI", "dateTime": 1519404084247}, {"current_trial": 224, "trialdata": {"rt": -1, "trial_type": "single-stim", "stimulus": "<p id=\"stim\">+</p>", "internal_node_id": "0.0-161.0-0.0", "time_elapsed": 1111530, "key_press": -1, "type": "FIXATION", "trial_index": 224}, "uniqueid": "MTK2804:39OWYR0EPLYSA3WNKOTYRU1TR5XFYI", "dateTime": 1519404085750}, {"current_trial": 225, "trialdata": {"rt": -1, "trial_type": "single-stim", "word": "lizard", "stimulus": "<p id=\"stim\">LIZARD</p>", "conditions": [24, 800, "v", 24000], "internal_node_id": "0.0-162.0", "trial": 6, "time_elapsed": 1112333, "serialpos": 0, "key_press": -1, "wordID": 833, "type": "PRES_VIS", "trial_index": 225}, "uniqueid": "MTK2804:39OWYR0EPLYSA3WNKOTYRU1TR5XFYI", "dateTime": 1519404086553}, {"current_trial": 226, "trialdata": {"rt": -1, "trial_type": "single-stim", "word": "champagne", "stimulus": "<p id=\"stim\">CHAMPAGNE</p>", "conditions": [24, 800, "v", 24000], "internal_node_id": "0.0-163.0", "trial": 6, "time_elapsed": 1114160, "serialpos": 1, "key_press": -1, "wordID": 277, "type": "PRES_VIS", "trial_index": 226}, "uniqueid": "MTK2804:39OWYR0EPLYSA3WNKOTYRU1TR5XFYI", "dateTime": 1519404088381}, {"current_trial": 227, "trialdata": {"rt": -1, "trial_type": "single-stim", "word": "guitar", "stimulus": "<p id=\"stim\">GUITAR</p>", "conditions": [24, 800, "v", 24000], "internal_node_id": "0.0-164.0", "trial": 6, "time_elapsed": 1116013, "serialpos": 2, "key_press": -1, "wordID": 669, "type": "PRES_VIS", "trial_index": 227}, "uniqueid": "MTK2804:39OWYR0EPLYSA3WNKOTYRU1TR5XFYI", "dateTime": 1519404090233}, {"current_trial": 228, "trialdata": {"rt": -1, "trial_type": "single-stim", "word": "kitchen", "stimulus": "<p id=\"stim\">KITCHEN</p>", "conditions": [24, 800, "v", 24000], "internal_node_id": "0.0-165.0", "trial": 6, "time_elapsed": 1117699, "serialpos": 3, "key_press": -1, "wordID": 777, "type": "PRES_VIS", "trial_index": 228}, "uniqueid": "MTK2804:39OWYR0EPLYSA3WNKOTYRU1TR5XFYI", "dateTime": 1519404091919}, {"current_trial": 229, "trialdata": {"rt": -1, "trial_type": "single-stim", "word": "napkin", "stimulus": "<p id=\"stim\">NAPKIN</p>", "conditions": [24, 800, "v", 24000], "internal_node_id": "0.0-166.0", "trial": 6, "time_elapsed": 1119626, "serialpos": 4, "key_press": -1, "wordID": 936, "type": "PRES_VIS", "trial_index": 229}, "uniqueid": "MTK2804:39OWYR0EPLYSA3WNKOTYRU1TR5XFYI", "dateTime": 1519404093846}, {"current_trial": 230, "trialdata": {"rt": -1, "trial_type": "single-stim", "word": "beef", "stimulus": "<p id=\"stim\">BEEF</p>", "conditions": [24, 800, "v", 24000], "internal_node_id": "0.0-167.0", "trial": 6, "time_elapsed": 1121529, "serialpos": 5, "key_press": -1, "wordID": 112, "type": "PRES_VIS", "trial_index": 230}, "uniqueid": "MTK2804:39OWYR0EPLYSA3WNKOTYRU1TR5XFYI", "dateTime": 1519404095750}, {"current_trial": 231, "trialdata": {"rt": -1, "trial_type": "single-stim", "word": "pork", "stimulus": "<p id=\"stim\">PORK</p>", "conditions": [24, 800, "v", 24000], "internal_node_id": "0.0-168.0", "trial": 6, "time_elapsed": 1123243, "serialpos": 6, "key_press": -1, "wordID": 1107, "type": "PRES_VIS", "trial_index": 231}, "uniqueid": "MTK2804:39OWYR0EPLYSA3WNKOTYRU1TR5XFYI", "dateTime": 1519404097464}, {"current_trial": 232, "trialdata": {"rt": -1, "trial_type": "single-stim", "word": "parrot", "stimulus": "<p id=\"stim\">PARROT</p>", "conditions": [24, 800, "v", 24000], "internal_node_id": "0.0-169.0", "trial": 6, "time_elapsed": 1124985, "serialpos": 7, "key_press": -1, "wordID": 1014, "type": "PRES_VIS", "trial_index": 232}, "uniqueid": "MTK2804:39OWYR0EPLYSA3WNKOTYRU1TR5XFYI", "dateTime": 1519404099206}, {"current_trial": 233, "trialdata": {"rt": -1, "trial_type": "single-stim", "word": "airplane", "stimulus": "<p id=\"stim\">AIRPLANE</p>", "conditions": [24, 800, "v", 24000], "internal_node_id": "0.0-170.0", "trial": 6, "time_elapsed": 1126776, "serialpos": 8, "key_press": -1, "wordID": 11, "type": "PRES_VIS", "trial_index": 233}, "uniqueid": "MTK2804:39OWYR0EPLYSA3WNKOTYRU1TR5XFYI", "dateTime": 1519404100999}, {"current_trial": 234, "trialdata": {"rt": -1, "trial_type": "single-stim", "word": "dime", "stimulus": "<p id=\"stim\">DIME</p>", "conditions": [24, 800, "v", 24000], "internal_node_id": "0.0-171.0", "trial": 6, "time_elapsed": 1128716, "serialpos": 9, "key_press": -1, "wordID": 465, "type": "PRES_VIS", "trial_index": 234}, "uniqueid": "MTK2804:39OWYR0EPLYSA3WNKOTYRU1TR5XFYI", "dateTime": 1519404102936}, {"current_trial": 235, "trialdata": {"rt": -1, "trial_type": "single-stim", "word": "shirt", "stimulus": "<p id=\"stim\">SHIRT</p>", "conditions": [24, 800, "v", 24000], "internal_node_id": "0.0-172.0", "trial": 6, "time_elapsed": 1130539, "serialpos": 10, "key_press": -1, "wordID": 1286, "type": "PRES_VIS", "trial_index": 235}, "uniqueid": "MTK2804:39OWYR0EPLYSA3WNKOTYRU1TR5XFYI", "dateTime": 1519404104761}, {"current_trial": 236, "trialdata": {"rt": -1, "trial_type": "single-stim", "word": "army", "stimulus": "<p id=\"stim\">ARMY</p>", "conditions": [24, 800, "v", 24000], "internal_node_id": "0.0-173.0", "trial": 6, "time_elapsed": 1132522, "serialpos": 11, "key_press": -1, "wordID": 38, "type": "PRES_VIS", "trial_index": 236}, "uniqueid": "MTK2804:39OWYR0EPLYSA3WNKOTYRU1TR5XFYI", "dateTime": 1519404106743}, {"current_trial": 237, "trialdata": {"rt": -1, "trial_type": "single-stim", "word": "stamp", "stimulus": "<p id=\"stim\">STAMP</p>", "conditions": [24, 800, "v", 24000], "internal_node_id": "0.0-174.0", "trial": 6, "time_elapsed": 1134137, "serialpos": 12, "key_press": -1, "wordID": 1369, "type": "PRES_VIS", "trial_index": 237}, "uniqueid": "MTK2804:39OWYR0EPLYSA3WNKOTYRU1TR5XFYI", "dateTime": 1519404108357}, {"current_trial": 238, "trialdata": {"rt": -1, "trial_type": "single-stim", "word": "trombone", "stimulus": "<p id=\"stim\">TROMBONE</p>", "conditions": [24, 800, "v", 24000], "internal_node_id": "0.0-175.0", "trial": 6, "time_elapsed": 1135943, "serialpos": 13, "key_press": -1, "wordID": 1507, "type": "PRES_VIS", "trial_index": 238}, "uniqueid": "MTK2804:39OWYR0EPLYSA3WNKOTYRU1TR5XFYI", "dateTime": 1519404110164}, {"current_trial": 239, "trialdata": {"rt": -1, "trial_type": "single-stim", "word": "skillet", "stimulus": "<p id=\"stim\">SKILLET</p>", "conditions": [24, 800, "v", 24000], "internal_node_id": "0.0-176.0", "trial": 6, "time_elapsed": 1137681, "serialpos": 14, "key_press": -1, "wordID": 1316, "type": "PRES_VIS", "trial_index": 239}, "uniqueid": "MTK2804:39OWYR0EPLYSA3WNKOTYRU1TR5XFYI", "dateTime": 1519404111901}, {"current_trial": 240, "trialdata": {"rt": -1, "trial_type": "single-stim", "word": "beast", "stimulus": "<p id=\"stim\">BEAST</p>", "conditions": [24, 800, "v", 24000], "internal_node_id": "0.0-177.0", "trial": 6, "time_elapsed": 1139482, "serialpos": 15, "key_press": -1, "wordID": 107, "type": "PRES_VIS", "trial_index": 240}, "uniqueid": "MTK2804:39OWYR0EPLYSA3WNKOTYRU1TR5XFYI", "dateTime": 1519404113702}, {"current_trial": 241, "trialdata": {"rt": -1, "trial_type": "single-stim", "word": "vagrant", "stimulus": "<p id=\"stim\">VAGRANT</p>", "conditions": [24, 800, "v", 24000], "internal_node_id": "0.0-178.0", "trial": 6, "time_elapsed": 1141276, "serialpos": 16, "key_press": -1, "wordID": 1543, "type": "PRES_VIS", "trial_index": 241}, "uniqueid": "MTK2804:39OWYR0EPLYSA3WNKOTYRU1TR5XFYI", "dateTime": 1519404115496}, {"current_trial": 242, "trialdata": {"rt": -1, "trial_type": "single-stim", "word": "tortoise", "stimulus": "<p id=\"stim\">TORTOISE</p>", "conditions": [24, 800, "v", 24000], "internal_node_id": "0.0-179.0", "trial": 6, "time_elapsed": 1143234, "serialpos": 17, "key_press": -1, "wordID": 1485, "type": "PRES_VIS", "trial_index": 242}, "uniqueid": "MTK2804:39OWYR0EPLYSA3WNKOTYRU1TR5XFYI", "dateTime": 1519404117454}, {"current_trial": 243, "trialdata": {"rt": -1, "trial_type": "single-stim", "word": "snail", "stimulus": "<p id=\"stim\">SNAIL</p>", "conditions": [24, 800, "v", 24000], "internal_node_id": "0.0-180.0", "trial": 6, "time_elapsed": 1145044, "serialpos": 18, "key_press": -1, "wordID": 1331, "type": "PRES_VIS", "trial_index": 243}, "uniqueid": "MTK2804:39OWYR0EPLYSA3WNKOTYRU1TR5XFYI", "dateTime": 1519404119266}, {"current_trial": 244, "trialdata": {"rt": -1, "trial_type": "single-stim", "word": "spoon", "stimulus": "<p id=\"stim\">SPOON</p>", "conditions": [24, 800, "v", 24000], "internal_node_id": "0.0-181.0", "trial": 6, "time_elapsed": 1146971, "serialpos": 19, "key_press": -1, "wordID": 1356, "type": "PRES_VIS", "trial_index": 244}, "uniqueid": "MTK2804:39OWYR0EPLYSA3WNKOTYRU1TR5XFYI", "dateTime": 1519404121192}, {"current_trial": 245, "trialdata": {"rt": -1, "trial_type": "single-stim", "word": "flashlight", "stimulus": "<p id=\"stim\">FLASHLIGHT</p>", "conditions": [24, 800, "v", 24000], "internal_node_id": "0.0-182.0", "trial": 6, "time_elapsed": 1148907, "serialpos": 20, "key_press": -1, "wordID": 574, "type": "PRES_VIS", "trial_index": 245}, "uniqueid": "MTK2804:39OWYR0EPLYSA3WNKOTYRU1TR5XFYI", "dateTime": 1519404123127}, {"current_trial": 246, "trialdata": {"rt": -1, "trial_type": "single-stim", "word": "infant", "stimulus": "<p id=\"stim\">INFANT</p>", "conditions": [24, 800, "v", 24000], "internal_node_id": "0.0-183.0", "trial": 6, "time_elapsed": 1150746, "serialpos": 21, "key_press": -1, "wordID": 736, "type": "PRES_VIS", "trial_index": 246}, "uniqueid": "MTK2804:39OWYR0EPLYSA3WNKOTYRU1TR5XFYI", "dateTime": 1519404124967}, {"current_trial": 247, "trialdata": {"rt": -1, "trial_type": "single-stim", "word": "canyon", "stimulus": "<p id=\"stim\">CANYON</p>", "conditions": [24, 800, "v", 24000], "internal_node_id": "0.0-184.0", "trial": 6, "time_elapsed": 1152715, "serialpos": 22, "key_press": -1, "wordID": 234, "type": "PRES_VIS", "trial_index": 247}, "uniqueid": "MTK2804:39OWYR0EPLYSA3WNKOTYRU1TR5XFYI", "dateTime": 1519404126935}, {"current_trial": 248, "trialdata": {"rt": -1, "trial_type": "single-stim", "word": "cashew", "stimulus": "<p id=\"stim\">CASHEW</p>", "conditions": [24, 800, "v", 24000], "internal_node_id": "0.0-185.0", "trial": 6, "time_elapsed": 1154717, "serialpos": 23, "key_press": -1, "wordID": 252, "type": "PRES_VIS", "trial_index": 248}, "uniqueid": "MTK2804:39OWYR0EPLYSA3WNKOTYRU1TR5XFYI", "dateTime": 1519404128937}, {"current_trial": 249, "trialdata": {"rt": -1, "trial_type": "single-stim", "stimulus": "", "internal_node_id": "0.0-186.0-0.0", "time_elapsed": 1157068, "key_press": -1, "type": "PRE_RECALL_DELAY", "trial_index": 249}, "uniqueid": "MTK2804:39OWYR0EPLYSA3WNKOTYRU1TR5XFYI", "dateTime": 1519404131288}, {"current_trial": 250, "trialdata": {"rt": -1000, "trial_type": "single-audio", "stimulus": "/static/audio/400Hz.wav", "internal_node_id": "0.0-187.0", "time_elapsed": 1157569, "key_press": -1, "type": "PRE_RECALL_ALERT", "trial_index": 250}, "uniqueid": "MTK2804:39OWYR0EPLYSA3WNKOTYRU1TR5XFYI", "dateTime": 1519404131789}, {"current_trial": 251, "trialdata": {"rt": [2709, 5139, 8434, 14408, 21157, 22939, 24934, 26151], "recwords": ["infant", "lizard", "cashew", "champagne", "suitcase", "parrot", "pork", "beef"], "key_times": [1314, 1547, 1808, 1955, 2095, 2317, 2709, 3468, 3713, 3892, 4153, 4320, 4683, 5139, 5469, 5926, 6521, 6698, 6945, 7549, 7702, 7859, 8434, 8781, 8943, 9080, 9365, 9818, 9970, 10442, 10684, 10874, 11002, 11288, 11410, 11894, 12145, 12279, 14408, 18301, 18420, 18577, 18783, 19123, 19554, 20152, 20355, 20482, 20675, 21157, 21538, 21726, 21895, 22108, 22304, 22529, 22939, 23309, 23531, 24057, 24318, 24471, 24621, 24934, 25169, 25429, 25626, 25825, 26151], "trial_type": "free-recall", "conditions": [24, 800, "v", 24000], "internal_node_id": "0.0-188.0-0.0", "key_presses": [73, 78, 70, 65, 78, 84, 13, 76, 73, 90, 65, 82, 68, 13, 67, 83, 8, 65, 83, 72, 69, 87, 13, 67, 65, 72, 77, 8, 8, 8, 72, 65, 77, 80, 65, 71, 78, 69, 13, 83, 85, 73, 84, 67, 83, 8, 65, 83, 69, 13, 80, 65, 82, 82, 79, 84, 13, 80, 82, 8, 79, 82, 75, 13, 66, 69, 69, 70, 13], "trial": 6, "time_elapsed": 1217575, "type": "FREE_RECALL", "trial_index": 251}, "uniqueid": "MTK2804:39OWYR0EPLYSA3WNKOTYRU1TR5XFYI", "dateTime": 1519404191805}, {"current_trial": 252, "trialdata": {"rt": 51837, "trial_type": "text", "internal_node_id": "0.0-189.0", "time_elapsed": 1271426, "key_press": 32, "type": "INSTRUCTIONS", "trial_index