{"assignmentId": "32SVAV9L3GGWY9IRKNEGNZUPIFA3AN", "workerId": "MTK2168", "questiondata": {"origin": "United States", "strat-rehearsal": "100", "marital": "Single", "education": "Master's degree", "ethnicity": "Not Hispanic", "color_depth": 24, "distracted": "No", "wrote-notes": "No", "strat-other": "None", "screen_width": 1366, "avail_screen_width": 1301, "avail_screen_height": 744, "strat-image": "86", "language": "English", "gender": "Female", "age": "31", "gender_other": "", "race": ["White"], "strat-categorize": "100", "pixel_depth": 24, "strat-spatial": "0", "strat-story": "53", "race_other": "", "screen_height": 768}, "bonus": 0, "hitId": "3MA5N0ATTCIXE0V7GWX5XQCY3W7KWT", "counterbalance": 1550, "useragent": "Mozilla/5.0 (X11; Linux x86_64) AppleWebKit/537.36 (KHTML, like Gecko) Ubuntu Chromium/63.0.3239.84 Chrome/63.0.3239.84 Safari/537.36", "eventdata": [{"eventtype": "initialized", "interval": 0, "value": null, "timestamp": 1516820228333}, {"eventtype": "window_resize", "interval": 0, "value": [1301, 716], "timestamp": 1516820228333}], "data": [{"current_trial": 0, "trialdata": {"rt": 15449, "trial_type": "text", "internal_node_id": "0.0-0.0", "time_elapsed": 15458, "key_press": 39, "type": "INSTRUCTIONS", "trial_index": 0}, "uniqueid": "MTK2168:32SVAV9L3GGWY9IRKNEGNZUPIFA3AN", "dateTime": 1516820244529}, {"current_trial": 1, "trialdata": {"rt": 16956, "trial_type": "text", "internal_node_id": "0.0-1.0", "time_elapsed": 32421, "key_press": 40, "type": "INSTRUCTIONS", "trial_index": 1}, "uniqueid": "MTK2168:32SVAV9L3GGWY9IRKNEGNZUPIFA3AN", "dateTime": 1516820261490}, {"current_trial": 2, "trialdata": {"rt": [8434], "trial_type": "audio-test", "responses": ["ocean"], "internal_node_id": "0.0-2.0", "time_elapsed": 40921, "type": "AUDIO_TEST", "trial_index": 2}, "uniqueid": "MTK2168:32SVAV9L3GGWY9IRKNEGNZUPIFA3AN", "dateTime": 1516820269990}, {"current_trial": 3, "trialdata": {"rt": [7429], "trial_type": "audio-test", "responses": ["crystal"], "internal_node_id": "0.0-3.0", "time_elapsed": 48366, "type": "AUDIO_TEST", "trial_index": 3}, "uniqueid": "MTK2168:32SVAV9L3GGWY9IRKNEGNZUPIFA3AN", "dateTime": 1516820277435}, {"current_trial": 4, "trialdata": {"rt": [5489], "trial_type": "audio-test", "responses": ["spice"], "internal_node_id": "0.0-4.0", "time_elapsed": 53868, "type": "AUDIO_TEST", "trial_index": 4}, "uniqueid": "MTK2168:32SVAV9L3GGWY9IRKNEGNZUPIFA3AN", "dateTime": 1516820282936}, {"current_trial": 5, "trialdata": {"rt": 13163, "trial_type": "survey-text", "responses": "{\"Q0\":\"11:30\",\"Q1\":\"7\",\"Q2\":\"4\"}", "internal_node_id": "0.0-5.0", "time_elapsed": 67813, "type": "SLEEP_SURVEY", "trial_index": 5}, "uniqueid": "MTK2168:32SVAV9L3GGWY9IRKNEGNZUPIFA3AN", "dateTime": 1516820296881}, {"current_trial": 6, "trialdata": {"rt": 23474, "trial_type": "text", "internal_node_id": "0.0-6.0", "time_elapsed": 92305, "key_press": 32, "type": "INSTRUCTIONS", "trial_index": 6}, "uniqueid": "MTK2168:32SVAV9L3GGWY9IRKNEGNZUPIFA3AN", "dateTime": 1516820321373}, {"current_trial": 7, "trialdata": {"rt": 18257, "trial_type": "text", "internal_node_id": "0.0-7.0", "time_elapsed": 111067, "key_press": 40, "type": "INSTRUCTIONS", "trial_index": 7}, "uniqueid": "MTK2168:32SVAV9L3GGWY9IRKNEGNZUPIFA3AN", "dateTime": 1516820340135}, {"current_trial": 8, "trialdata": {"rt": 7603, "trial_type": "text", "internal_node_id": "0.0-8.0", "time_elapsed": 119176, "key_press": 40, "type": "INSTRUCTIONS", "trial_index": 8}, "uniqueid": "MTK2168:32SVAV9L3GGWY9IRKNEGNZUPIFA3AN", "dateTime": 1516820348244}, {"current_trial": 9, "trialdata": {"rt": [5929, 7529, 9002, 10868, 12322, 13952, 15989], "trial_type": "math-distractor", "key_times": [2285, 2387, 3317, 5929, 7244, 7357, 7529, 8682, 8815, 9002, 10536, 10685, 10868, 11879, 12122, 12322, 13733, 13952, 15657, 15805, 15989, 17695, 17881], "responses": ["16 ", "11", "15", "17", "13", "8", "15"], "num2": [6, 8, 9, 5, 7, 3, 4, 8], "num3": [3, 1, 5, 8, 3, 1, 7, 9], "conditions": [18, 1200, "v", 18000], "internal_node_id": "0.0-9.0", "key_presses": [97, 102, 32, 13, 97, 97, 13, 97, 101, 13, 97, 103, 13, 97, 99, 13, 104, 13, 97, 101, 13, 98, 96], "trial": 0, "time_elapsed": 138208, "type": "DISTRACTOR", "trial_index": 9, "num1": [7, 2, 1, 4, 3, 4, 4, 3]}, "uniqueid": "MTK2168:32SVAV9L3GGWY9IRKNEGNZUPIFA3AN", "dateTime": 1516820367277}, {"current_trial": 10, "trialdata": {"rt": -1, "trial_type": "single-stim", "stimulus": "<p id=\"stim\">10</p>", "internal_node_id": "0.0-10.0-0.0", "time_elapsed": 141215, "key_press": -1, "trial_index": 10}, "uniqueid": "MTK2168:32SVAV9L3GGWY9IRKNEGNZUPIFA3AN", "dateTime": 1516820370284}, {"current_trial": 11, "trialdata": {"rt": -1, "trial_type": "single-stim", "stimulus": "<p id=\"stim\">9</p>", "internal_node_id": "0.0-10.0-1.0", "time_elapsed": 142218, "key_press": -1, "trial_index": 11}, "uniqueid": "MTK2168:32SVAV9L3GGWY9IRKNEGNZUPIFA3AN", "dateTime": 1516820371287}, {"current_trial": 12, "trialdata": {"rt": -1, "trial_type": "single-stim", "stimulus": "<p id=\"stim\">8</p>", "internal_node_id": "0.0-10.0-2.0", "time_elapsed": 143221, "key_press": -1, "trial_index": 12}, "uniqueid": "MTK2168:32SVAV9L3GGWY9IRKNEGNZUPIFA3AN", "dateTime": 1516820372289}, {"current_trial": 13, "trialdata": {"rt": -1, "trial_type": "single-stim", "stimulus": "<p id=\"stim\">7</p>", "internal_node_id": "0.0-10.0-3.0", "time_elapsed": 144224, "key_press": -1, "trial_index": 13}, "uniqueid": "MTK2168:32SVAV9L3GGWY9IRKNEGNZUPIFA3AN", "dateTime": 1516820373292}, {"current_trial": 14, "trialdata": {"rt": -1, "trial_type": "single-stim", "stimulus": "<p id=\"stim\">6</p>", "internal_node_id": "0.0-10.0-4.0", "time_elapsed": 145226, "key_press": -1, "trial_index": 14}, "uniqueid": "MTK2168:32SVAV9L3GGWY9IRKNEGNZUPIFA3AN", "dateTime": 1516820374294}, {"current_trial": 15, "trialdata": {"rt": -1, "trial_type": "single-stim", "stimulus": "<p id=\"stim\">5</p>", "internal_node_id": "0.0-10.0-5.0", "time_elapsed": 146228, "key_press": -1, "trial_index": 15}, "uniqueid": "MTK2168:32SVAV9L3GGWY9IRKNEGNZUPIFA3AN", "dateTime": 1516820375296}, {"current_trial": 16, "trialdata": {"rt": -1, "trial_type": "single-stim", "stimulus": "<p id=\"stim\">4</p>", "internal_node_id": "0.0-10.0-6.0", "time_elapsed": 147232, "key_press": -1, "trial_index": 16}, "uniqueid": "MTK2168:32SVAV9L3GGWY9IRKNEGNZUPIFA3AN", "dateTime": 1516820376300}, {"current_trial": 17, "trialdata": {"rt": -1, "trial_type": "single-stim", "stimulus": "<p id=\"stim\">3</p>", "internal_node_id": "0.0-10.0-7.0", "time_elapsed": 148237, "key_press": -1, "trial_index": 17}, "uniqueid": "MTK2168:32SVAV9L3GGWY9IRKNEGNZUPIFA3AN", "dateTime": 1516820377305}, {"current_trial": 18, "trialdata": {"rt": -1, "trial_type": "single-stim", "stimulus": "<p id=\"stim\">2</p>", "internal_node_id": "0.0-10.0-8.0", "time_elapsed": 149239, "key_press": -1, "trial_index": 18}, "uniqueid": "MTK2168:32SVAV9L3GGWY9IRKNEGNZUPIFA3AN", "dateTime": 1516820378307}, {"current_trial": 19, "trialdata": {"rt": -1, "trial_type": "single-stim", "stimulus": "<p id=\"stim\">1</p>", "internal_node_id": "0.0-10.0-9.0", "time_elapsed": 150241, "key_press": -1, "trial_index": 19}, "uniqueid": "MTK2168:32SVAV9L3GGWY9IRKNEGNZUPIFA3AN", "dateTime": 1516820379309}, {"current_trial": 20, "trialdata": {"rt": -1, "trial_type": "single-stim", "stimulus": "<p id=\"stim\">+</p>", "internal_node_id": "0.0-11.0-0.0", "time_elapsed": 151744, "key_press": -1, "type": "FIXATION", "trial_index": 20}, "uniqueid": "MTK2168:32SVAV9L3GGWY9IRKNEGNZUPIFA3AN", "dateTime": 1516820380812}, {"current_trial": 21, "trialdata": {"rt": -1, "trial_type": "single-stim", "word": "whiskers", "stimulus": "<p id=\"stim\">WHISKERS</p>", "conditions": [18, 1200, "v", 18000], "internal_node_id": "0.0-12.0", "trial": 0, "time_elapsed": 152948, "serialpos": 0, "key_press": -1, "wordID": 1604, "type": "PRES_VIS", "trial_index": 21}, "uniqueid": "MTK2168:32SVAV9L3GGWY9IRKNEGNZUPIFA3AN", "dateTime": 1516820382016}, {"current_trial": 22, "trialdata": {"rt": -1, "trial_type": "single-stim", "word": "author", "stimulus": "<p id=\"stim\">AUTHOR</p>", "conditions": [18, 1200, "v", 18000], "internal_node_id": "0.0-13.0", "trial": 0, "time_elapsed": 155005, "serialpos": 1, "key_press": -1, "wordID": 60, "type": "PRES_VIS", "trial_index": 22}, "uniqueid": "MTK2168:32SVAV9L3GGWY9IRKNEGNZUPIFA3AN", "dateTime": 1516820384074}, {"current_trial": 23, "trialdata": {"rt": -1, "trial_type": "single-stim", "word": "bank", "stimulus": "<p id=\"stim\">BANK</p>", "conditions": [18, 1200, "v", 18000], "internal_node_id": "0.0-14.0", "trial": 0, "time_elapsed": 157309, "serialpos": 2, "key_press": -1, "wordID": 82, "type": "PRES_VIS", "trial_index": 23}, "uniqueid": "MTK2168:32SVAV9L3GGWY9IRKNEGNZUPIFA3AN", "dateTime": 1516820386378}, {"current_trial": 24, "trialdata": {"rt": -1, "trial_type": "single-stim", "word": "dashboard", "stimulus": "<p id=\"stim\">DASHBOARD</p>", "conditions": [18, 1200, "v", 18000], "internal_node_id": "0.0-15.0", "trial": 0, "time_elapsed": 159369, "serialpos": 3, "key_press": -1, "wordID": 440, "type": "PRES_VIS", "trial_index": 24}, "uniqueid": "MTK2168:32SVAV9L3GGWY9IRKNEGNZUPIFA3AN", "dateTime": 1516820388437}, {"current_trial": 25, "trialdata": {"rt": -1, "trial_type": "single-stim", "word": "hedge", "stimulus": "<p id=\"stim\">HEDGE</p>", "conditions": [18, 1200, "v", 18000], "internal_node_id": "0.0-16.0", "trial": 0, "time_elapsed": 161482, "serialpos": 4, "key_press": -1, "wordID": 698, "type": "PRES_VIS", "trial_index": 25}, "uniqueid": "MTK2168:32SVAV9L3GGWY9IRKNEGNZUPIFA3AN", "dateTime": 1516820390550}, {"current_trial": 26, "trialdata": {"rt": -1, "trial_type": "single-stim", "word": "nightgown", "stimulus": "<p id=\"stim\">NIGHTGOWN</p>", "conditions": [18, 1200, "v", 18000], "internal_node_id": "0.0-17.0", "trial": 0, "time_elapsed": 163608, "serialpos": 5, "key_press": -1, "wordID": 952, "type": "PRES_VIS", "trial_index": 26}, "uniqueid": "MTK2168:32SVAV9L3GGWY9IRKNEGNZUPIFA3AN", "dateTime": 1516820392677}, {"current_trial": 27, "trialdata": {"rt": -1, "trial_type": "single-stim", "word": "beaver", "stimulus": "<p id=\"stim\">BEAVER</p>", "conditions": [18, 1200, "v", 18000], "internal_node_id": "0.0-18.0", "trial": 0, "time_elapsed": 165715, "serialpos": 6, "key_press": -1, "wordID": 108, "type": "PRES_VIS", "trial_index": 27}, "uniqueid": "MTK2168:32SVAV9L3GGWY9IRKNEGNZUPIFA3AN", "dateTime": 1516820394783}, {"current_trial": 28, "trialdata": {"rt": -1, "trial_type": "single-stim", "word": "canal", "stimulus": "<p id=\"stim\">CANAL</p>", "conditions": [18, 1200, "v", 18000], "internal_node_id": "0.0-19.0", "trial": 0, "time_elapsed": 167961, "serialpos": 7, "key_press": -1, "wordID": 225, "type": "PRES_VIS", "trial_index": 28}, "uniqueid": "MTK2168:32SVAV9L3GGWY9IRKNEGNZUPIFA3AN", "dateTime": 1516820397029}, {"current_trial": 29, "trialdata": {"rt": -1, "trial_type": "single-stim", "word": "mailbox", "stimulus": "<p id=\"stim\">MAILBOX</p>", "conditions": [18, 1200, "v", 18000], "internal_node_id": "0.0-20.0", "trial": 0, "time_elapsed": 170328, "serialpos": 8, "key_press": -1, "wordID": 856, "type": "PRES_VIS", "trial_index": 29}, "uniqueid": "MTK2168:32SVAV9L3GGWY9IRKNEGNZUPIFA3AN", "dateTime": 1516820399396}, {"current_trial": 30, "trialdata": {"rt": -1, "trial_type": "single-stim", "word": "pebble", "stimulus": "<p id=\"stim\">PEBBLE</p>", "conditions": [18, 1200, "v", 18000], "internal_node_id": "0.0-21.0", "trial": 0, "time_elapsed": 172656, "serialpos": 9, "key_press": -1, "wordID": 1034, "type": "PRES_VIS", "trial_index": 30}, "uniqueid": "MTK2168:32SVAV9L3GGWY9IRKNEGNZUPIFA3AN", "dateTime": 1516820401724}, {"current_trial": 31, "trialdata": {"rt": -1, "trial_type": "single-stim", "word": "compass", "stimulus": "<p id=\"stim\">COMPASS</p>", "conditions": [18, 1200, "v", 18000], "internal_node_id": "0.0-22.0", "trial": 0, "time_elapsed": 174984, "serialpos": 10, "key_press": -1, "wordID": 357, "type": "PRES_VIS", "trial_index": 31}, "uniqueid": "MTK2168:32SVAV9L3GGWY9IRKNEGNZUPIFA3AN", "dateTime": 1516820404052}, {"current_trial": 32, "trialdata": {"rt": -1, "trial_type": "single-stim", "word": "mattress", "stimulus": "<p id=\"stim\">MATTRESS</p>", "conditions": [18, 1200, "v", 18000], "internal_node_id": "0.0-23.0", "trial": 0, "time_elapsed": 177194, "serialpos": 11, "key_press": -1, "wordID": 878, "type": "PRES_VIS", "trial_index": 32}, "uniqueid": "MTK2168:32SVAV9L3GGWY9IRKNEGNZUPIFA3AN", "dateTime": 1516820406263}, {"current_trial": 33, "trialdata": {"rt": -1, "trial_type": "single-stim", "word": "baby", "stimulus": "<p id=\"stim\">BABY</p>", "conditions": [18, 1200, "v", 18000], "internal_node_id": "0.0-24.0", "trial": 0, "time_elapsed": 179414, "serialpos": 12, "key_press": -1, "wordID": 63, "type": "PRES_VIS", "trial_index": 33}, "uniqueid": "MTK2168:32SVAV9L3GGWY9IRKNEGNZUPIFA3AN", "dateTime": 1516820408482}, {"current_trial": 34, "trialdata": {"rt": -1, "trial_type": "single-stim", "word": "parsley", "stimulus": "<p id=\"stim\">PARSLEY</p>", "conditions": [18, 1200, "v", 18000], "internal_node_id": "0.0-25.0", "trial": 0, "time_elapsed": 181608, "serialpos": 13, "key_press": -1, "wordID": 1015, "type": "PRES_VIS", "trial_index": 34}, "uniqueid": "MTK2168:32SVAV9L3GGWY9IRKNEGNZUPIFA3AN", "dateTime": 1516820410677}, {"current_trial": 35, "trialdata": {"rt": -1, "trial_type": "single-stim", "word": "tile", "stimulus": "<p id=\"stim\">TILE</p>", "conditions": [18, 1200, "v", 18000], "internal_node_id": "0.0-26.0", "trial": 0, "time_elapsed": 183778, "serialpos": 14, "key_press": -1, "wordID": 1467, "type": "PRES_VIS", "trial_index": 35}, "uniqueid": "MTK2168:32SVAV9L3GGWY9IRKNEGNZUPIFA3AN", "dateTime": 1516820412846}, {"current_trial": 36, "trialdata": {"rt": -1, "trial_type": "single-stim", "word": "diver", "stimulus": "<p id=\"stim\">DIVER</p>", "conditions": [18, 1200, "v", 18000], "internal_node_id": "0.0-27.0", "trial": 0, "time_elapsed": 185988, "serialpos": 15, "key_press": -1, "wordID": 475, "type": "PRES_VIS", "trial_index": 36}, "uniqueid": "MTK2168:32SVAV9L3GGWY9IRKNEGNZUPIFA3AN", "dateTime": 1516820415056}, {"current_trial": 37, "trialdata": {"rt": -1, "trial_type": "single-stim", "word": "briefcase", "stimulus": "<p id=\"stim\">BRIEFCASE</p>", "conditions": [18, 1200, "v", 18000], "internal_node_id": "0.0-28.0", "trial": 0, "time_elapsed": 188193, "serialpos": 16, "key_press": -1, "wordID": 174, "type": "PRES_VIS", "trial_index": 37}, "uniqueid": "MTK2168:32SVAV9L3GGWY9IRKNEGNZUPIFA3AN", "dateTime": 1516820417261}, {"current_trial": 38, "trialdata": {"rt": -1, "trial_type": "single-stim", "word": "tractor", "stimulus": "<p id=\"stim\">TRACTOR</p>", "conditions": [18, 1200, "v", 18000], "internal_node_id": "0.0-29.0", "trial": 0, "time_elapsed": 190298, "serialpos": 17, "key_press": -1, "wordID": 1492, "type": "PRES_VIS", "trial_index": 38}, "uniqueid": "MTK2168:32SVAV9L3GGWY9IRKNEGNZUPIFA3AN", "dateTime": 1516820419366}, {"current_trial": 39, "trialdata": {"rt": -1, "trial_type": "single-stim", "stimulus": "", "internal_node_id": "0.0-30.0-0.0", "time_elapsed": 192663, "key_press": -1, "type": "PRE_RECALL_DELAY", "trial_index": 39}, "uniqueid": "MTK2168:32SVAV9L3GGWY9IRKNEGNZUPIFA3AN", "dateTime": 1516820421731}, {"current_trial": 40, "trialdata": {"rt": -1000, "trial_type": "single-audio", "stimulus": "/static/audio/400Hz.wav", "internal_node_id": "0.0-31.0", "time_elapsed": 193175, "key_press": -1, "type": "PRE_RECALL_ALERT", "trial_index": 40}, "uniqueid": "MTK2168:32SVAV9L3GGWY9IRKNEGNZUPIFA3AN", "dateTime": 1516820422243}, {"current_trial": 41, "trialdata": {"rt": [2152, 3451, 6011, 6850, 7976, 10294, 12235, 16694, 37417], "recwords": ["nightgown", "beaver", "whiskers", "author", "canal", "pebble", "briefcase", "hedge", "mattress"], "key_times": [976, 1047, 1172, 1238, 1300, 1658, 1736, 1845, 1947, 2152, 2699, 2779, 2853, 2999, 3066, 3248, 3451, 5073, 5186, 5266, 5368, 5493, 5572, 5647, 5859, 6011, 6281, 6398, 6500, 6568, 6637, 6711, 6850, 7109, 7168, 7464, 7583, 7717, 7976, 9587, 9700, 9810, 9909, 10039, 10162, 10294, 11053, 11170, 11278, 11406, 11487, 11829, 11955, 12045, 12128, 12235, 16153, 16230, 16305, 16501, 16580, 16694, 36265, 36373, 36452, 36606, 36966, 37072, 37135, 37287, 37417], "trial_type": "free-recall", "conditions": [18, 1200, "v", 18000], "internal_node_id": "0.0-32.0-0.0", "key_presses": [78, 73, 71, 72, 84, 71, 79, 87, 78, 13, 66, 69, 65, 86, 69, 82, 13, 87, 72, 73, 83, 75, 69, 82, 83, 13, 65, 85, 84, 72, 79, 82, 13, 67, 65, 78, 65, 76, 13, 80, 69, 66, 66, 76, 69, 13, 66, 82, 73, 69, 70, 67, 65, 83, 69, 13, 72, 69, 68, 71, 69, 13, 77, 65, 84, 84, 82, 69, 83, 83, 13], "trial": 0, "time_elapsed": 253227, "type": "FREE_RECALL", "trial_index": 41}, "uniqueid": "MTK2168:32SVAV9L3GGWY9IRKNEGNZUPIFA3AN", "dateTime": 1516820482301}, {"current_trial": 42, "trialdata": {"rt": 1967, "trial_type": "text", "internal_node_id": "0.0-33.0", "time_elapsed": 257202, "key_press": 32, "type": "INSTRUCTIONS", "trial_index": 42}, "uniqueid": "MTK2168:32SVAV9L3GGWY9IRKNEGNZUPIFA3AN", "dateTime": 1516820486271}, {"current_trial": 43, "trialdata": {"rt": [1932, 6071, 8221, 9617, 11466, 13923, 15624, 17371], "trial_type": "math-distractor", "key_times": [1556, 1741, 1932, 4724, 4892, 6071, 7830, 7987, 8221, 9285, 9444, 9617, 10852, 11268, 11466, 13552, 13773, 13923, 15414, 15624, 17060, 17188, 17371], "responses": ["17", "26", "10", "15", "18", "17", "7", "11"], "num2": [8, 8, 2, 6, 3, 8, 1, 1, 8], "num3": [7, 9, 1, 8, 6, 6, 4, 6, 2], "conditions": [18, 1200, "v", 18000], "internal_node_id": "0.0-34.0", "key_presses": [97, 103, 13, 98, 102, 13, 97, 96, 13, 97, 101, 13, 97, 104, 13, 97, 103, 13, 103, 13, 97, 97, 13], "trial": 1, "time_elapsed": 277214, "type": "DISTRACTOR", "trial_index": 43, "num1": [2, 9, 7, 1, 9, 3, 2, 4, 4]}, "uniqueid": "MTK2168:32SVAV9L3GGWY9IRKNEGNZUPIFA3AN", "dateTime": 1516820506283}, {"current_trial": 44, "trialdata": {"rt": -1, "trial_type": "single-stim", "stimulus": "<p id=\"stim\">10</p>", "internal_node_id": "0.0-35.0-0.0", "time_elapsed": 280237, "key_press": -1, "trial_index": 44}, "uniqueid": "MTK2168:32SVAV9L3GGWY9IRKNEGNZUPIFA3AN", "dateTime": 1516820509305}, {"current_trial": 45, "trialdata": {"rt": -1, "trial_type": "single-stim", "stimulus": "<p id=\"stim\">9</p>", "internal_node_id": "0.0-35.0-1.0", "time_elapsed": 281267, "key_press": -1, "trial_index": 45}, "uniqueid": "MTK2168:32SVAV9L3GGWY9IRKNEGNZUPIFA3AN", "dateTime": 1516820510335}, {"current_trial": 46, "trialdata": {"rt": -1, "trial_type": "single-stim", "stimulus": "<p id=\"stim\">8</p>", "internal_node_id": "0.0-35.0-2.0", "time_elapsed": 282273, "key_press": -1, "trial_index": 46}, "uniqueid": "MTK2168:32SVAV9L3GGWY9IRKNEGNZUPIFA3AN", "dateTime": 1516820511342}, {"current_trial": 47, "trialdata": {"rt": -1, "trial_type": "single-stim", "stimulus": "<p id=\"stim\">7</p>", "internal_node_id": "0.0-35.0-3.0", "time_elapsed": 283295, "key_press": -1, "trial_index": 47}, "uniqueid": "MTK2168:32SVAV9L3GGWY9IRKNEGNZUPIFA3AN", "dateTime": 1516820512364}, {"current_trial": 48, "trialdata": {"rt": -1, "trial_type": "single-stim", "stimulus": "<p id=\"stim\">6</p>", "internal_node_id": "0.0-35.0-4.0", "time_elapsed": 284301, "key_press": -1, "trial_index": 48}, "uniqueid": "MTK2168:32SVAV9L3GGWY9IRKNEGNZUPIFA3AN", "dateTime": 1516820513369}, {"current_trial": 49, "trialdata": {"rt": -1, "trial_type": "single-stim", "stimulus": "<p id=\"stim\">5</p>", "internal_node_id": "0.0-35.0-5.0", "time_elapsed": 285310, "key_press": -1, "trial_index": 49}, "uniqueid": "MTK2168:32SVAV9L3GGWY9IRKNEGNZUPIFA3AN", "dateTime": 1516820514378}, {"current_trial": 50, "trialdata": {"rt": -1, "trial_type": "single-stim", "stimulus": "<p id=\"stim\">4</p>", "internal_node_id": "0.0-35.0-6.0", "time_elapsed": 286322, "key_press": -1, "trial_index": 50}, "uniqueid": "MTK2168:32SVAV9L3GGWY9IRKNEGNZUPIFA3AN", "dateTime": 1516820515390}, {"current_trial": 51, "trialdata": {"rt": -1, "trial_type": "single-stim", "stimulus": "<p id=\"stim\">3</p>", "internal_node_id": "0.0-35.0-7.0", "time_elapsed": 287340, "key_press": -1, "trial_index": 51}, "uniqueid": "MTK2168:32SVAV9L3GGWY9IRKNEGNZUPIFA3AN", "dateTime": 1516820516409}, {"current_trial": 52, "trialdata": {"rt": -1, "trial_type": "single-stim", "stimulus": "<p id=\"stim\">2</p>", "internal_node_id": "0.0-35.0-8.0", "time_elapsed": 288344, "key_press": -1, "trial_index": 52}, "uniqueid": "MTK2168:32SVAV9L3GGWY9IRKNEGNZUPIFA3AN", "dateTime": 1516820517412}, {"current_trial": 53, "trialdata": {"rt": -1, "trial_type": "single-stim", "stimulus": "<p id=\"stim\">1</p>", "internal_node_id": "0.0-35.0-9.0", "time_elapsed": 289346, "key_press": -1, "trial_index": 53}, "uniqueid": "MTK2168:32SVAV9L3GGWY9IRKNEGNZUPIFA3AN", "dateTime": 1516820518414}, {"current_trial": 54, "trialdata": {"rt": -1, "trial_type": "single-stim", "stimulus": "<p id=\"stim\">+</p>", "internal_node_id": "0.0-36.0-0.0", "time_elapsed": 290849, "key_press": -1, "type": "FIXATION", "trial_index": 54}, "uniqueid": "MTK2168:32SVAV9L3GGWY9IRKNEGNZUPIFA3AN", "dateTime": 1516820519917}, {"current_trial": 55, "trialdata": {"rt": -1, "trial_type": "single-stim", "word": "shrub", "stimulus": "<p id=\"stim\">SHRUB</p>", "conditions": [18, 1200, "v", 18000], "internal_node_id": "0.0-37.0", "trial": 1, "time_elapsed": 292052, "serialpos": 0, "key_press": -1, "wordID": 1298, "type": "PRES_VIS", "trial_index": 55}, "uniqueid": "MTK2168:32SVAV9L3GGWY9IRKNEGNZUPIFA3AN", "dateTime": 1516820521120}, {"current_trial": 56, "trialdata": {"rt": -1, "trial_type": "single-stim", "word": "college", "stimulus": "<p id=\"stim\">COLLEGE</p>", "conditions": [18, 1200, "v", 18000], "internal_node_id": "0.0-38.0", "trial": 1, "time_elapsed": 294093, "serialpos": 1, "key_press": -1, "wordID": 345, "type": "PRES_VIS", "trial_index": 56}, "uniqueid": "MTK2168:32SVAV9L3GGWY9IRKNEGNZUPIFA3AN", "dateTime": 1516820523161}, {"current_trial": 57, "trialdata": {"rt": -1, "trial_type": "single-stim", "word": "piston", "stimulus": "<p id=\"stim\">PISTON</p>", "conditions": [18, 1200, "v", 18000], "internal_node_id": "0.0-39.0", "trial": 1, "time_elapsed": 296392, "serialpos": 2, "key_press": -1, "wordID": 1075, "type": "PRES_VIS", "trial_index": 57}, "uniqueid": "MTK2168:32SVAV9L3GGWY9IRKNEGNZUPIFA3AN", "dateTime": 1516820525460}, {"current_trial": 58, "trialdata": {"rt": -1, "trial_type": "single-stim", "word": "zipper", "stimulus": "<p id=\"stim\">ZIPPER</p>", "conditions": [18, 1200, "v", 18000], "internal_node_id": "0.0-40.0", "trial": 1, "time_elapsed": 298620, "serialpos": 3, "key_press": -1, "wordID": 1635, "type": "PRES_VIS", "trial_index": 58}, "uniqueid": "MTK2168:32SVAV9L3GGWY9IRKNEGNZUPIFA3AN", "dateTime": 1516820527689}, {"current_trial": 59, "trialdata": {"rt": -1, "trial_type": "single-stim", "word": "cellar", "stimulus": "<p id=\"stim\">CELLAR</p>", "conditions": [18, 1200, "v", 18000], "internal_node_id": "0.0-41.0", "trial": 1, "time_elapsed": 301013, "serialpos": 4, "key_press": -1, "wordID": 266, "type": "PRES_VIS", "trial_index": 59}, "uniqueid": "MTK2168:32SVAV9L3GGWY9IRKNEGNZUPIFA3AN", "dateTime": 1516820530082}, {"current_trial": 60, "trialdata": {"rt": -1, "trial_type": "single-stim", "word": "kitchen", "stimulus": "<p id=\"stim\">KITCHEN</p>", "conditions": [18, 1200, "v", 18000], "internal_node_id": "0.0-42.0", "trial": 1, "time_elapsed": 303303, "serialpos": 5, "key_press": -1, "wordID": 777, "type": "PRES_VIS", "trial_index": 60}, "uniqueid": "MTK2168:32SVAV9L3GGWY9IRKNEGNZUPIFA3AN", "dateTime": 1516820532371}, {"current_trial": 61, "trialdata": {"rt": -1, "trial_type": "single-stim", "word": "banjo", "stimulus": "<p id=\"stim\">BANJO</p>", "conditions": [18, 1200, "v", 18000], "internal_node_id": "0.0-43.0", "trial": 1, "time_elapsed": 305571, "serialpos": 6, "key_press": -1, "wordID": 81, "type": "PRES_VIS", "trial_index": 61}, "uniqueid": "MTK2168:32SVAV9L3GGWY9IRKNEGNZUPIFA3AN", "dateTime": 1516820534640}, {"current_trial": 62, "trialdata": {"rt": -1, "trial_type": "single-stim", "word": "mailman", "stimulus": "<p id=\"stim\">MAILMAN</p>", "conditions": [18, 1200, "v", 18000], "internal_node_id": "0.0-44.0", "trial": 1, "time_elapsed": 307644, "serialpos": 7, "key_press": -1, "wordID": 857, "type": "PRES_VIS", "trial_index": 62}, "uniqueid": "MTK2168:32SVAV9L3GGWY9IRKNEGNZUPIFA3AN", "dateTime": 1516820536712}, {"current_trial": 63, "trialdata": {"rt": -1, "trial_type": "single-stim", "word": "binder", "stimulus": "<p id=\"stim\">BINDER</p>", "conditions": [18, 1200, "v", 18000], "internal_node_id": "0.0-45.0", "trial": 1, "time_elapsed": 309685, "serialpos": 8, "key_press": -1, "wordID": 126, "type": "PRES_VIS", "trial_index": 63}, "uniqueid": "MTK2168:32SVAV9L3GGWY9IRKNEGNZUPIFA3AN", "dateTime": 1516820538753}, {"current_trial": 64, "trialdata": {"rt": -1, "trial_type": "single-stim", "word": "summit", "stimulus": "<p id=\"stim\">SUMMIT</p>", "conditions": [18, 1200, "v", 18000], "internal_node_id": "0.0-46.0", "trial": 1, "time_elapsed": 311702, "serialpos": 9, "key_press": -1, "wordID": 1404, "type": "PRES_VIS", "trial_index": 64}, "uniqueid": "MTK2168:32SVAV9L3GGWY9IRKNEGNZUPIFA3AN", "dateTime": 1516820540770}, {"current_trial": 65, "trialdata": {"rt": -1, "trial_type": "single-stim", "word": "subway", "stimulus": "<p id=\"stim\">SUBWAY</p>", "conditions": [18, 1200, "v", 18000], "internal_node_id": "0.0-47.0", "trial": 1, "time_elapsed": 313956, "serialpos": 10, "key_press": -1, "wordID": 1399, "type": "PRES_VIS", "trial_index": 65}, "uniqueid": "MTK2168:32SVAV9L3GGWY9IRKNEGNZUPIFA3AN", "dateTime": 1516820543025}, {"current_trial": 66, "trialdata": {"rt": -1, "trial_type": "single-stim", "word": "umpire", "stimulus": "<p id=\"stim\">UMPIRE</p>", "conditions": [18, 1200, "v", 18000], "internal_node_id": "0.0-48.0", "trial": 1, "time_elapsed": 316154, "serialpos": 11, "key_press": -1, "wordID": 1534, "type": "PRES_VIS", "trial_index": 66}, "uniqueid": "MTK2168:32SVAV9L3GGWY9IRKNEGNZUPIFA3AN", "dateTime": 1516820545222}, {"current_trial": 67, "trialdata": {"rt": -1, "trial_type": "single-stim", "word": "label", "stimulus": "<p id=\"stim\">LABEL</p>", "conditions": [18, 1200, "v", 18000], "internal_node_id": "0.0-49.0", "trial": 1, "time_elapsed": 318363, "serialpos": 12, "key_press": -1, "wordID": 789, "type": "PRES_VIS", "trial_index": 67}, "uniqueid": "MTK2168:32SVAV9L3GGWY9IRKNEGNZUPIFA3AN", "dateTime": 1516820547431}, {"current_trial": 68, "trialdata": {"rt": -1, "trial_type": "single-stim", "word": "clothes", "stimulus": "<p id=\"stim\">CLOTHES</p>", "conditions": [18, 1200, "v", 18000], "internal_node_id": "0.0-50.0", "trial": 1, "time_elapsed": 320512, "serialpos": 13, "key_press": -1, "wordID": 326, "type": "PRES_VIS", "trial_index": 68}, "uniqueid": "MTK2168:32SVAV9L3GGWY9IRKNEGNZUPIFA3AN", "dateTime": 1516820549581}, {"current_trial": 69, "trialdata": {"rt": -1, "trial_type": "single-stim", "word": "pizza", "stimulus": "<p id=\"stim\">PIZZA</p>", "conditions": [18, 1200, "v", 18000], "internal_node_id": "0.0-51.0", "trial": 1, "time_elapsed": 322671, "serialpos": 14, "key_press": -1, "wordID": 1078, "type": "PRES_VIS", "trial_index": 69}, "uniqueid": "MTK2168:32SVAV9L3GGWY9IRKNEGNZUPIFA3AN", "dateTime": 1516820551739}, {"current_trial": 70, "trialdata": {"rt": -1, "trial_type": "single-stim", "word": "inmate", "stimulus": "<p id=\"stim\">INMATE</p>", "conditions": [18, 1200, "v", 18000], "internal_node_id": "0.0-52.0", "trial": 1, "time_elapsed": 324980, "serialpos": 15, "key_press": -1, "wordID": 737, "type": "PRES_VIS", "trial_index": 70}, "uniqueid": "MTK2168:32SVAV9L3GGWY9IRKNEGNZUPIFA3AN", "dateTime": 1516820554048}, {"current_trial": 71, "trialdata": {"rt": -1, "trial_type": "single-stim", "word": "dorm", "stimulus": "<p id=\"stim\">DORM</p>", "conditions": [18, 1200, "v", 18000], "internal_node_id": "0.0-53.0", "trial": 1, "time_elapsed": 327326, "serialpos": 16, "key_press": -1, "wordID": 487, "type": "PRES_VIS", "trial_index": 71}, "uniqueid": "MTK2168:32SVAV9L3GGWY9IRKNEGNZUPIFA3AN", "dateTime": 1516820556394}, {"current_trial": 72, "trialdata": {"rt": -1, "trial_type": "single-stim", "word": "whistle", "stimulus": "<p id=\"stim\">WHISTLE</p>", "conditions": [18, 1200, "v", 18000], "internal_node_id": "0.0-54.0", "trial": 1, "time_elapsed": 329448, "serialpos": 17, "key_press": -1, "wordID": 1605, "type": "PRES_VIS", "trial_index": 72}, "uniqueid": "MTK2168:32SVAV9L3GGWY9IRKNEGNZUPIFA3AN", "dateTime": 1516820558517}, {"current_trial": 73, "trialdata": {"rt": -1, "trial_type": "single-stim", "stimulus": "", "internal_node_id": "0.0-55.0-0.0", "time_elapsed": 331890, "key_press": -1, "type": "PRE_RECALL_DELAY", "trial_index": 73}, "uniqueid": "MTK2168:32SVAV9L3GGWY9IRKNEGNZUPIFA3AN", "dateTime": 1516820560959}, {"current_trial": 74, "trialdata": {"rt": -1000, "trial_type": "single-audio", "stimulus": "/static/audio/400Hz.wav", "internal_node_id": "0.0-56.0", "time_elapsed": 332394, "key_press": -1, "type": "PRE_RECALL_ALERT", "trial_index": 74}, "uniqueid": "MTK2168:32SVAV9L3GGWY9IRKNEGNZUPIFA3AN", "dateTime": 1516820561462}, {"current_trial": 75, "trialdata": {"rt": [4284, 5000, 5815, 7832, 23345, 40479, 41947, 46170], "recwords": ["summit", "subway", "piston", "shrub", "college", "u", "umpire", "clothing"], "key_times": [3202, 3270, 3551, 3949, 4137, 4211, 4284, 4443, 4515, 4601, 4754, 4821, 4859, 5000, 5324, 5431, 5492, 5541, 5635, 5704, 5815, 7218, 7332, 7442, 7544, 7641, 7832, 22382, 22490, 22674, 22776, 23048, 23183, 23264, 23345, 40295, 40479, 40561, 41012, 41262, 41442, 41556, 41701, 41798, 41871, 41947, 43249, 43516, 43679, 43790, 43834, 43972, 44449, 44648, 44768, 44876, 45002, 45284, 45424, 45542, 45649, 45748, 45954, 46073, 46170], "trial_type": "free-recall", "conditions": [18, 1200, "v", 18000], "internal_node_id": "0.0-57.0-0.0", "key_presses": [83, 85, 77, 77, 73, 84, 13, 83, 85, 66, 87, 65, 89, 13, 80, 73, 83, 84, 79, 78, 13, 83, 72, 82, 85, 66, 13, 67, 79, 76, 76, 69, 71, 69, 13, 85, 32, 80, 8, 85, 77, 80, 73, 82, 69, 13, 67, 79, 84, 72, 73, 78, 8, 8, 8, 8, 8, 76, 79, 84, 72, 73, 78, 71, 13], "trial": 1, "time_elapsed": 392401, "type": "FREE_RECALL", "trial_index": 75}, "uniqueid": "MTK2168:32SVAV9L3GGWY9IRKNEGNZUPIFA3AN", "dateTime": 1516820621474}, {"current_trial": 76, "trialdata": {"rt": 132989, "trial_type": "text", "internal_node_id": "0.0-58.0", "time_elapsed": 527399, "key_press": 32, "type": "INSTRUCTIONS", "trial_index": 76}, "uniqueid": "MTK2168:32SVAV9L3GGWY9IRKNEGNZUPIFA3AN", "dateTime": 1516820756468}, {"current_trial": 77, "trialdata": {"rt": [3954, 5759, 7595, 10349, 12520, 14637, 16466, 18167, 19593, 21825, 23476], "trial_type": "math-distractor", "key_times": [3059, 3221, 3954, 5399, 5534, 5759, 7136, 7305, 7595, 9554, 9662, 10349, 12179, 12310, 12520, 14307, 14455, 14637, 16031, 16219, 16466, 17789, 17967, 18167, 19179, 19417, 19593, 21465, 21655, 21825, 23109, 23271, 23476], "responses": ["20", "12", "16", "22", "22", "12", "13", "18", "16", "17", "15"], "num2": [4, 1, 7, 6, 7, 3, 3, 2, 6, 9, 9, 6], "num3": [7, 2, 5, 9, 6, 8, 1, 8, 5, 2, 4, 2], "conditions": [12, 1600, "v", 24000], "internal_node_id": "0.0-59.0", "key_presses": [98, 96, 13, 97, 98, 13, 97, 102, 13, 98, 98, 13, 98, 98, 13, 97, 98, 13, 97, 99, 13, 97, 104, 13, 97, 102, 13, 97, 103, 13, 97, 101, 13], "trial": 2, "time_elapsed": 552426, "type": "DISTRACTOR", "trial_index": 77, "num1": [9, 9, 4, 7, 9, 1, 9, 8, 5, 6, 2, 5]}, "uniqueid": "MTK2168:32SVAV9L3GGWY9IRKNEGNZUPIFA3AN", "dateTime": 1516820781495}, {"current_trial": 78, "trialdata": {"rt": -1, "trial_type": "single-stim", "stimulus": "<p id=\"stim\">10</p>", "internal_node_id": "0.0-60.0-0.0", "time_elapsed": 555430, "key_press": -1, "trial_index": 78}, "uniqueid": "MTK2168:32SVAV9L3GGWY9IRKNEGNZUPIFA3AN", "dateTime": 1516820784501}, {"current_trial": 79, "trialdata": {"rt": -1, "trial_type": "single-stim", "stimulus": "<p id=\"stim\">9</p>", "internal_node_id": "0.0-60.0-1.0", "time_elapsed": 556436, "key_press": -1, "trial_index": 79}, "uniqueid": "MTK2168:32SVAV9L3GGWY9IRKNEGNZUPIFA3AN", "dateTime": 1516820785505}, {"current_trial": 80, "trialdata": {"rt": -1, "trial_type": "single-stim", "stimulus": "<p id=\"stim\">8</p>", "internal_node_id": "0.0-60.0-2.0", "time_elapsed": 557440, "key_press": -1, "trial_index": 80}, "uniqueid": "MTK2168:32SVAV9L3GGWY9IRKNEGNZUPIFA3AN", "dateTime": 1516820786508}, {"current_trial": 81, "trialdata": {"rt": -1, "trial_type": "single-stim", "stimulus": "<p id=\"stim\">7</p>", "internal_node_id": "0.0-60.0-3.0", "time_elapsed": 558444, "key_press": -1, "trial_index": 81}, "uniqueid": "MTK2168:32SVAV9L3GGWY9IRKNEGNZUPIFA3AN", "dateTime": 1516820787512}, {"current_trial": 82, "trialdata": {"rt": -1, "trial_type": "single-stim", "stimulus": "<p id=\"stim\">6</p>", "internal_node_id": "0.0-60.0-4.0", "time_elapsed": 559447, "key_press": -1, "trial_index": 82}, "uniqueid": "MTK2168:32SVAV9L3GGWY9IRKNEGNZUPIFA3AN", "dateTime": 1516820788515}, {"current_trial": 83, "trialdata": {"rt": -1, "trial_type": "single-stim", "stimulus": "<p id=\"stim\">5</p>", "internal_node_id": "0.0-60.0-5.0", "time_elapsed": 560449, "key_press": -1, "trial_index": 83}, "uniqueid": "MTK2168:32SVAV9L3GGWY9IRKNEGNZUPIFA3AN", "dateTime": 1516820789518}, {"current_trial": 84, "trialdata": {"rt": -1, "trial_type": "single-stim", "stimulus": "<p id=\"stim\">4</p>", "internal_node_id": "0.0-60.0-6.0", "time_elapsed": 561451, "key_press": -1, "trial_index": 84}, "uniqueid": "MTK2168:32SVAV9L3GGWY9IRKNEGNZUPIFA3AN", "dateTime": 1516820790520}, {"current_trial": 85, "trialdata": {"rt": -1, "trial_type": "single-stim", "stimulus": "<p id=\"stim\">3</p>", "internal_node_id": "0.0-60.0-7.0", "time_elapsed": 562454, "key_press": -1, "trial_index": 85}, "uniqueid": "MTK2168:32SVAV9L3GGWY9IRKNEGNZUPIFA3AN", "dateTime": 1516820791522}, {"current_trial": 86, "trialdata": {"rt": -1, "trial_type": "single-stim", "stimulus": "<p id=\"stim\">2</p>", "internal_node_id": "0.0-60.0-8.0", "time_elapsed": 563457, "key_press": -1, "trial_index": 86}, "uniqueid": "MTK2168:32SVAV9L3GGWY9IRKNEGNZUPIFA3AN", "dateTime": 1516820792525}, {"current_trial": 87, "trialdata": {"rt": -1, "trial_type": "single-stim", "stimulus": "<p id=\"stim\">1</p>", "internal_node_id": "0.0-60.0-9.0", "time_elapsed": 564459, "key_press": -1, "trial_index": 87}, "uniqueid": "MTK2168:32SVAV9L3GGWY9IRKNEGNZUPIFA3AN", "dateTime": 1516820793528}, {"current_trial": 88, "trialdata": {"rt": -1, "trial_type": "single-stim", "stimulus": "<p id=\"stim\">+</p>", "internal_node_id": "0.0-61.0-0.0", "time_elapsed": 565962, "key_press": -1, "type": "FIXATION", "trial_index": 88}, "uniqueid": "MTK2168:32SVAV9L3GGWY9IRKNEGNZUPIFA3AN", "dateTime": 1516820795031}, {"current_trial": 89, "trialdata": {"rt": -1, "trial_type": "single-stim", "word": "pluto", "stimulus": "<p id=\"stim\">PLUTO</p>", "conditions": [12, 1600, "v", 24000], "internal_node_id": "0.0-62.0", "trial": 2, "time_elapsed": 567573, "serialpos": 0, "key_press": -1, "wordID": 1091, "type": "PRES_VIS", "trial_index": 89}, "uniqueid": "MTK2168:32SVAV9L3GGWY9IRKNEGNZUPIFA3AN", "dateTime": 1516820796641}, {"current_trial": 90, "trialdata": {"rt": -1, "trial_type": "single-stim", "word": "rug", "stimulus": "<p id=\"stim\">RUG</p>", "conditions": [12, 1600, "v", 24000], "internal_node_id": "0.0-63.0", "trial": 2, "time_elapsed": 570335, "serialpos": 1, "key_press": -1, "wordID": 1214, "type": "PRES_VIS", "trial_index": 90}, "uniqueid": "MTK2168:32SVAV9L3GGWY9IRKNEGNZUPIFA3AN", "dateTime": 1516820799403}, {"current_trial": 91, "trialdata": {"rt": -1, "trial_type": "single-stim", "word": "curtain", "stimulus": "<p id=\"stim\">CURTAIN</p>", "conditions": [12, 1600, "v", 24000], "internal_node_id": "0.0-64.0", "trial": 2, "time_elapsed": 572790, "serialpos": 2, "key_press": -1, "wordID": 426, "type": "PRES_VIS", "trial_index": 91}, "uniqueid": "MTK2168:32SVAV9L3GGWY9IRKNEGNZUPIFA3AN", "dateTime": 1516820801859}, {"current_trial": 92, "trialdata": {"rt": -1, "trial_type": "single-stim", "word": "japan", "stimulus": "<p id=\"stim\">JAPAN</p>", "conditions": [12, 1600, "v", 24000], "internal_node_id": "0.0-65.0", "trial": 2, "time_elapsed": 575584, "serialpos": 3, "key_press": -1, "wordID": 748, "type": "PRES_VIS", "trial_index": 92}, "uniqueid": "MTK2168:32SVAV9L3GGWY9IRKNEGNZUPIFA3AN", "dateTime": 1516820804652}, {"current_trial": 93, "trialdata": {"rt": -1, "trial_type": "single-stim", "word": "fireplace", "stimulus": "<p id=\"stim\">FIREPLACE</p>", "conditions": [12, 1600, "v", 24000], "internal_node_id": "0.0-66.0", "trial": 2, "time_elapsed": 578230, "serialpos": 4, "key_press": -1, "wordID": 569, "type": "PRES_VIS", "trial_index": 93}, "uniqueid": "MTK2168:32SVAV9L3GGWY9IRKNEGNZUPIFA3AN", "dateTime": 1516820807298}, {"current_trial": 94, "trialdata": {"rt": -1, "trial_type": "single-stim", "word": "transplant", "stimulus": "<p id=\"stim\">TRANSPLANT</p>", "conditions": [12, 1600, "v", 24000], "internal_node_id": "0.0-67.0", "trial": 2, "time_elapsed": 581031, "serialpos": 5, "key_press": -1, "wordID": 1495, "type": "PRES_VIS", "trial_index": 94}, "uniqueid": "MTK2168:32SVAV9L3GGWY9IRKNEGNZUPIFA3AN", "dateTime": 1516820810099}, {"current_trial": 95, "trialdata": {"rt": -1, "trial_type": "single-stim", "word": "badge", "stimulus": "<p id=\"stim\">BADGE</p>", "conditions": [12, 1600, "v", 24000], "internal_node_id": "0.0-68.0", "trial": 2, "time_elapsed": 583550, "serialpos": 6, "key_press": -1, "wordID": 67, "type": "PRES_VIS", "trial_index": 95}, "uniqueid": "MTK2168:32SVAV9L3GGWY9IRKNEGNZUPIFA3AN", "dateTime": 1516820812619}, {"current_trial": 96, "trialdata": {"rt": -1, "trial_type": "single-stim", "word": "pasta", "stimulus": "<p id=\"stim\">PASTA</p>", "conditions": [12, 1600, "v", 24000], "internal_node_id": "0.0-69.0", "trial": 2, "time_elapsed": 586288, "serialpos": 7, "key_press": -1, "wordID": 1020, "type": "PRES_VIS", "trial_index": 96}, "uniqueid": "MTK2168:32SVAV9L3GGWY9IRKNEGNZUPIFA3AN", "dateTime": 1516820815357}, {"current_trial": 97, "trialdata": {"rt": -1, "trial_type": "single-stim", "word": "boyfriend", "stimulus": "<p id=\"stim\">BOYFRIEND</p>", "conditions": [12, 1600, "v", 24000], "internal_node_id": "0.0-70.0", "trial": 2, "time_elapsed": 588964, "serialpos": 8, "key_press": -1, "wordID": 161, "type": "PRES_VIS", "trial_index": 97}, "uniqueid": "MTK2168:32SVAV9L3GGWY9IRKNEGNZUPIFA3AN", "dateTime": 1516820818032}, {"current_trial": 98, "trialdata": {"rt": -1, "trial_type": "single-stim", "word": "cousin", "stimulus": "<p id=\"stim\">COUSIN</p>", "conditions": [12, 1600, "v", 24000], "internal_node_id": "0.0-71.0", "trial": 2, "time_elapsed": 591732, "serialpos": 9, "key_press": -1, "wordID": 391, "type": "PRES_VIS", "trial_index": 98}, "uniqueid": "MTK2168:32SVAV9L3GGWY9IRKNEGNZUPIFA3AN", "dateTime": 1516820820800}, {"current_trial": 99, "trialdata": {"rt": -1, "trial_type": "single-stim", "word": "stove", "stimulus": "<p id=\"stim\">STOVE</p>", "conditions": [12, 1600, "v", 24000], "internal_node_id": "0.0-72.0", "trial": 2, "time_elapsed": 594197, "serialpos": 10, "key_press": -1, "wordID": 1387, "type": "PRES_VIS", "trial_index": 99}, "uniqueid": "MTK2168:32SVAV9L3GGWY9IRKNEGNZUPIFA3AN", "dateTime": 1516820823265}, {"current_trial": 100, "trialdata": {"rt": -1, "trial_type": "single-stim", "word": "permit", "stimulus": "<p id=\"stim\">PERMIT</p>", "conditions": [12, 1600, "v", 24000], "internal_node_id": "0.0-73.0", "trial": 2, "time_elapsed": 596810, "serialpos": 11, "key_press": -1, "wordID": 1050, "type": "PRES_VIS", "trial_index": 100}, "uniqueid": "MTK2168:32SVAV9L3GGWY9IRKNEGNZUPIFA3AN", "dateTime": 1516820825878}, {"current_trial": 101, "trialdata": {"rt": -1, "trial_type": "single-stim", "stimulus": "", "internal_node_id": "0.0-74.0-0.0", "time_elapsed": 599295, "key_press": -1, "type": "PRE_RECALL_DELAY", "trial_index": 101}, "uniqueid": "MTK2168:32SVAV9L3GGWY9IRKNEGNZUPIFA3AN", "dateTime": 1516820828363}, {"current_trial": 102, "trialdata": {"rt": -1000, "trial_type": "single-audio", "stimulus": "/static/audio/400Hz.wav", "internal_node_id": "0.0-75.0", "time_elapsed": 599799, "key_press": -1, "type": "PRE_RECALL_ALERT", "trial_index": 102}, "uniqueid": "MTK2168:32SVAV9L3GGWY9IRKNEGNZUPIFA3AN", "dateTime": 1516820828867}, {"current_trial": 103, "trialdata": {"rt": [1682, 3249, 5161, 5737, 7192, 9810, 11718, 12819, 14603, 17132, 19726, 23938, 25531, 29116, 59720], "recwords": ["japan", "stove", "pluto", "rug", "permit", "badge", "boyfriend", "cousin", "pasta", "curtain", "transplant", "permit", "fireplace", "stove", "badge"], "key_times": [1094, 1267, 1386, 1499, 1571, 1682, 2757, 2828, 2945, 3044, 3120, 3249, 4233, 4491, 4619, 4668, 5006, 5161, 5445, 5542, 5622, 5737, 6613, 6693, 6722, 6843, 6916, 7030, 7192, 9339, 9461, 9466, 9622, 9698, 9810, 10927, 11076, 11172, 11266, 11331, 11406, 11473, 11584, 11639, 11718, 12026, 12197, 12212, 12296, 12615, 12712, 12819, 14167, 14283, 14315, 14395, 14492, 14603, 16324, 16436, 16522, 16664, 16780, 16786, 16888, 17132, 18320, 18514, 18657, 18769, 18865, 19178, 19351, 19434, 19508, 19623, 19726, 23252, 23329, 23390, 23476, 23585, 23631, 23938, 24776, 24876, 24947, 25015, 25084, 25233, 25303, 25348, 25497, 25531, 28680, 28789, 28835, 28982, 29045, 29116, 59197, 59317, 59417, 59531, 59646, 59720], "trial_type": "free-recall", "conditions": [12, 1600, "v", 24000], "internal_node_id": "0.0-76.0-0.0", "key_presses": [74, 65, 80, 65, 78, 13, 83, 84, 79, 86, 69, 13, 80, 76, 85, 84, 79, 13, 82, 85, 71, 13, 80, 69, 82, 77, 73, 84, 13, 66, 65, 68, 71, 69, 13, 66, 79, 89, 70, 82, 73, 69, 78, 68, 13, 67, 79, 85, 83, 73, 78, 13, 80, 65, 83, 84, 65, 13, 67, 85, 82, 84, 65, 73, 78, 13, 84, 82, 65, 78, 83, 80, 76, 65, 78, 84, 13, 80, 69, 82, 77, 73, 84, 13, 70, 73, 82, 69, 80, 76, 65, 67, 69, 13, 83, 84, 79, 86, 69, 13, 66, 65, 68, 71, 69, 13], "trial": 2, "time_elapsed": 659817, "type": "FREE_RECALL", "trial_index": 103}, "uniqueid": "MTK2168:32SVAV9L3GGWY9IRKNEGNZUPIFA3AN", "dateTime": 1516820888893}, {"current_trial": 104, "trialdata": {"rt": 40311, "trial_type": "text", "internal_node_id": "0.0-77.0", "time_elapsed": 702153, "key_press": 32, "type": "INSTRUCTIONS", "trial_index": 104}, "uniqueid": "MTK2168:32SVAV9L3GGWY9IRKNEGNZUPIFA3AN", "dateTime": 1516820931221}, {"current_trial": 105, "trialdata": {"rt": [2440, 5089, 7126, 8614, 10336, 11747], "trial_type": "math-distractor", "key_times": [1996, 2150, 2440, 4795, 4923, 5089, 6906, 7126, 8239, 8407, 8614, 9953, 10132, 10336, 11563, 11747], "responses": ["12", "14", "8", "10", "21", "7"], "num2": [1, 2, 1, 3, 9, 4, 5], "num3": [4, 6, 5, 1, 6, 2, 1], "conditions": [24, 1600, "v", 12000], "internal_node_id": "0.0-78.0", "key_presses": [97, 98, 13, 97, 100, 13, 104, 13, 97, 96, 13, 98, 97, 13, 103, 13], "trial": 3, "time_elapsed": 716160, "type": "DISTRACTOR", "trial_index": 105, "num1": [7, 6, 2, 6, 6, 1, 9]}, "uniqueid": "MTK2168:32SVAV9L3GGWY9IRKNEGNZUPIFA3AN", "dateTime": 1516820945228}, {"current_trial": 106, "trialdata": {"rt": -1, "trial_type": "single-stim", "stimulus": "<p id=\"stim\">10</p>", "internal_node_id": "0.0-79.0-0.0", "time_elapsed": 719163, "key_press": -1, "trial_index": 106}, "uniqueid": "MTK2168:32SVAV9L3GGWY9IRKNEGNZUPIFA3AN", "dateTime": 1516820948232}, {"current_trial": 107, "trialdata": {"rt": -1, "trial_type": "single-stim", "stimulus": "<p id=\"stim\">9</p>", "internal_node_id": "0.0-79.0-1.0", "time_elapsed": 720166, "key_press": -1, "trial_index": 107}, "uniqueid": "MTK2168:32SVAV9L3GGWY9IRKNEGNZUPIFA3AN", "dateTime": 1516820949234}, {"current_trial": 108, "trialdata": {"rt": -1, "trial_type": "single-stim", "stimulus": "<p id=\"stim\">8</p>", "internal_node_id": "0.0-79.0-2.0", "time_elapsed": 721168, "key_press": -1, "trial_index": 108}, "uniqueid": "MTK2168:32SVAV9L3GGWY9IRKNEGNZUPIFA3AN", "dateTime": 1516820950236}, {"current_trial": 109, "trialdata": {"rt": -1, "trial_type": "single-stim", "stimulus": "<p id=\"stim\">7</p>", "internal_node_id": "0.0-79.0-3.0", "time_elapsed": 722171, "key_press": -1, "trial_index": 109}, "uniqueid": "MTK2168:32SVAV9L3GGWY9IRKNEGNZUPIFA3AN", "dateTime": 1516820951240}, {"current_trial": 110, "trialdata": {"rt": -1, "trial_type": "single-stim", "stimulus": "<p id=\"stim\">6</p>", "internal_node_id": "0.0-79.0-4.0", "time_elapsed": 723176, "key_press": -1, "trial_index": 110}, "uniqueid": "MTK2168:32SVAV9L3GGWY9IRKNEGNZUPIFA3AN", "dateTime": 1516820952245}, {"current_trial": 111, "trialdata": {"rt": -1, "trial_type": "single-stim", "stimulus": "<p id=\"stim\">5</p>", "internal_node_id": "0.0-79.0-5.0", "time_elapsed": 724179, "key_press": -1, "trial_index": 111}, "uniqueid": "MTK2168:32SVAV9L3GGWY9IRKNEGNZUPIFA3AN", "dateTime": 1516820953247}, {"current_trial": 112, "trialdata": {"rt": -1, "trial_type": "single-stim", "stimulus": "<p id=\"stim\">4</p>", "internal_node_id": "0.0-79.0-6.0", "time_elapsed": 725182, "key_press": -1, "trial_index": 112}, "uniqueid": "MTK2168:32SVAV9L3GGWY9IRKNEGNZUPIFA3AN", "dateTime": 1516820954250}, {"current_trial": 113, "trialdata": {"rt": -1, "trial_type": "single-stim", "stimulus": "<p id=\"stim\">3</p>", "internal_node_id": "0.0-79.0-7.0", "time_elapsed": 726184, "key_press": -1, "trial_index": 113}, "uniqueid": "MTK2168:32SVAV9L3GGWY9IRKNEGNZUPIFA3AN", "dateTime": 1516820955252}, {"current_trial": 114, "trialdata": {"rt": -1, "trial_type": "single-stim", "stimulus": "<p id=\"stim\">2</p>", "internal_node_id": "0.0-79.0-8.0", "time_elapsed": 727186, "key_press": -1, "trial_index": 114}, "uniqueid": "MTK2168:32SVAV9L3GGWY9IRKNEGNZUPIFA3AN", "dateTime": 1516820956255}, {"current_trial": 115, "trialdata": {"rt": -1, "trial_type": "single-stim", "stimulus": "<p id=\"stim\">1</p>", "internal_node_id": "0.0-79.0-9.0", "time_elapsed": 728189, "key_press": -1, "trial_index": 115}, "uniqueid": "MTK2168:32SVAV9L3GGWY9IRKNEGNZUPIFA3AN", "dateTime": 1516820957257}, {"current_trial": 116, "trialdata": {"rt": -1, "trial_type": "single-stim", "stimulus": "<p id=\"stim\">+</p>", "internal_node_id": "0.0-80.0-0.0", "time_elapsed": 729692, "key_press": -1, "type": "FIXATION", "trial_index": 116}, "uniqueid": "MTK2168:32SVAV9L3GGWY9IRKNEGNZUPIFA3AN", "dateTime": 1516820958761}, {"current_trial": 117, "trialdata": {"rt": -1, "trial_type": "single-stim", "word": "supper", "stimulus": "<p id=\"stim\">SUPPER</p>", "conditions": [24, 1600, "v", 12000], "internal_node_id": "0.0-81.0", "trial": 3, "time_elapsed": 731298, "serialpos": 0, "key_press": -1, "wordID": 1410, "type": "PRES_VIS", "trial_index": 117}, "uniqueid": "MTK2168:32SVAV9L3GGWY9IRKNEGNZUPIFA3AN", "dateTime": 1516820960367}, {"current_trial": 118, "trialdata": {"rt": -1, "trial_type": "single-stim", "word": "breast", "stimulus": "<p id=\"stim\">BREAST</p>", "conditions": [24, 1600, "v", 12000], "internal_node_id": "0.0-82.0", "trial": 3, "time_elapsed": 734079, "serialpos": 1, "key_press": -1, "wordID": 170, "type": "PRES_VIS", "trial_index": 118}, "uniqueid": "MTK2168:32SVAV9L3GGWY9IRKNEGNZUPIFA3AN", "dateTime": 1516820963147}, {"current_trial": 119, "trialdata": {"rt": -1, "trial_type": "single-stim", "word": "plaid", "stimulus": "<p id=\"stim\">PLAID</p>", "conditions": [24, 1600, "v", 12000], "internal_node_id": "0.0-83.0", "trial": 3, "time_elapsed": 736811, "serialpos": 2, "key_press": -1, "wordID": 1079, "type": "PRES_VIS", "trial_index": 119}, "uniqueid": "MTK2168:32SVAV9L3GGWY9IRKNEGNZUPIFA3AN", "dateTime": 1516820965879}, {"current_trial": 120, "trialdata": {"rt": -1, "trial_type": "single-stim", "word": "bunny", "stimulus": "<p id=\"stim\">BUNNY</p>", "conditions": [24, 1600, "v", 12000], "internal_node_id": "0.0-84.0", "trial": 3, "time_elapsed": 739500, "serialpos": 3, "key_press": -1, "wordID": 197, "type": "PRES_VIS", "trial_index": 120}, "uniqueid": "MTK2168:32SVAV9L3GGWY9IRKNEGNZUPIFA3AN", "dateTime": 1516820968568}, {"current_trial": 121, "trialdata": {"rt": -1, "trial_type": "single-stim", "word": "puppy", "stimulus": "<p id=\"stim\">PUPPY</p>", "conditions": [24, 1600, "v", 12000], "internal_node_id": "0.0-85.0", "trial": 3, "time_elapsed": 742134, "serialpos": 4, "key_press": -1, "wordID": 1143, "type": "PRES_VIS", "trial_index": 121}, "uniqueid": "MTK2168:32SVAV9L3GGWY9IRKNEGNZUPIFA3AN", "dateTime": 1516820971203}, {"current_trial": 122, "trialdata": {"rt": -1, "trial_type": "single-stim", "word": "peach", "stimulus": "<p id=\"stim\">PEACH</p>", "conditions": [24, 1600, "v", 12000], "internal_node_id": "0.0-86.0", "trial": 3, "time_elapsed": 744708, "serialpos": 5, "key_press": -1, "wordID": 1030, "type": "PRES_VIS", "trial_index": 122}, "uniqueid": "MTK2168:32SVAV9L3GGWY9IRKNEGNZUPIFA3AN", "dateTime": 1516820973777}, {"current_trial": 123, "trialdata": {"rt": -1, "trial_type": "single-stim", "word": "venus", "stimulus": "<p id=\"stim\">VENUS</p>", "conditions": [24, 1600, "v", 12000], "internal_node_id": "0.0-87.0", "trial": 3, "time_elapsed": 747250, "serialpos": 6, "key_press": -1, "wordID": 1556, "type": "PRES_VIS", "trial_index": 123}, "uniqueid": "MTK2168:32SVAV9L3GGWY9IRKNEGNZUPIFA3AN", "dateTime": 1516820976318}, {"current_trial": 124, "trialdata": {"rt": -1, "trial_type": "single-stim", "word": "lava", "stimulus": "<p id=\"stim\">LAVA</p>", "conditions": [24, 1600, "v", 12000], "internal_node_id": "0.0-88.0", "trial": 3, "time_elapsed": 749681, "serialpos": 7, "key_press": -1, "wordID": 803, "type": "PRES_VIS", "trial_index": 124}, "uniqueid": "MTK2168:32SVAV9L3GGWY9IRKNEGNZUPIFA3AN", "dateTime": 1516820978749}, {"current_trial": 125, "trialdata": {"rt": -1, "trial_type": "single-stim", "word": "pigment", "stimulus": "<p id=\"stim\">PIGMENT</p>", "conditions": [24, 1600, "v", 12000], "internal_node_id": "0.0-89.0", "trial": 3, "time_elapsed": 752471, "serialpos": 8, "key_press": -1, "wordID": 1065, "type": "PRES_VIS", "trial_index": 125}, "uniqueid": "MTK2168:32SVAV9L3GGWY9IRKNEGNZUPIFA3AN", "dateTime": 1516820981540}, {"current_trial": 126, "trialdata": {"rt": -1, "trial_type": "single-stim", "word": "keeper", "stimulus": "<p id=\"stim\">KEEPER</p>", "conditions": [24, 1600, "v", 12000], "internal_node_id": "0.0-90.0", "trial": 3, "time_elapsed": 754966, "serialpos": 9, "key_press": -1, "wordID": 768, "type": "PRES_VIS", "trial_index": 126}, "uniqueid": "MTK2168:32SVAV9L3GGWY9IRKNEGNZUPIFA3AN", "dateTime": 1516820984034}, {"current_trial": 127, "trialdata": {"rt": -1, "trial_type": "single-stim", "word": "crab", "stimulus": "<p id=\"stim\">CRAB</p>", "conditions": [24, 1600, "v", 12000], "internal_node_id": "0.0-91.0", "trial": 3, "time_elapsed": 757501, "serialpos": 10, "key_press": -1, "wordID": 396, "type": "PRES_VIS", "trial_index": 127}, "uniqueid": "MTK2168:32SVAV9L3GGWY9IRKNEGNZUPIFA3AN", "dateTime": 1516820986571}, {"current_trial": 128, "trialdata": {"rt": -1, "trial_type": "single-stim", "word": "denim", "stimulus": "<p id=\"stim\">DENIM</p>", "conditions": [24, 1600, "v", 12000], "internal_node_id": "0.0-92.0", "trial": 3, "time_elapsed": 760252, "serialpos": 11, "key_press": -1, "wordID": 445, "type": "PRES_VIS", "trial_index": 128}, "uniqueid": "MTK2168:32SVAV9L3GGWY9IRKNEGNZUPIFA3AN", "dateTime": 1516820989321}, {"current_trial": 129, "trialdata": {"rt": -1, "trial_type": "single-stim", "word": "orchid", "stimulus": "<p id=\"stim\">ORCHID</p>", "conditions": [24, 1600, "v", 12000], "internal_node_id": "0.0-93.0", "trial": 3, "time_elapsed": 762862, "serialpos": 12, "key_press": -1, "wordID": 981, "type": "PRES_VIS", "trial_index": 129}, "uniqueid": "MTK2168:32SVAV9L3GGWY9IRKNEGNZUPIFA3AN", "dateTime": 1516820991931}, {"current_trial": 130, "trialdata": {"rt": -1, "trial_type": "single-stim", "word": "leg", "stimulus": "<p id=\"stim\">LEG</p>", "conditions": [24, 1600, "v", 12000], "internal_node_id": "0.0-94.0", "trial": 3, "time_elapsed": 765570, "serialpos": 13, "key_press": -1, "wordID": 808, "type": "PRES_VIS", "trial_index": 130}, "uniqueid": "MTK2168:32SVAV9L3GGWY9IRKNEGNZUPIFA3AN", "dateTime": 1516820994638}, {"current_trial": 131, "trialdata": {"rt": -1, "trial_type": "single-stim", "word": "saddle", "stimulus": "<p id=\"stim\">SADDLE</p>", "conditions": [24, 1600, "v", 12000], "internal_node_id": "0.0-95.0", "trial": 3, "time_elapsed": 768205, "serialpos": 14, "key_press": -1, "wordID": 1220, "type": "PRES_VIS", "trial_index": 131}, "uniqueid": "MTK2168:32SVAV9L3GGWY9IRKNEGNZUPIFA3AN", "dateTime": 1516820997273}, {"current_trial": 132, "trialdata": {"rt": -1, "trial_type": "single-stim", "word": "goblin", "stimulus": "<p id=\"stim\">GOBLIN</p>", "conditions": [24, 1600, "v", 12000], "internal_node_id": "0.0-96.0", "trial": 3, "time_elapsed": 770971, "serialpos": 15, "key_press": -1, "wordID": 644, "type": "PRES_VIS", "trial_index": 132}, "uniqueid": "MTK2168:32SVAV9L3GGWY9IRKNEGNZUPIFA3AN", "dateTime": 1516821000039}, {"current_trial": 133, "trialdata": {"rt": -1, "trial_type": "single-stim", "word": "twister", "stimulus": "<p id=\"stim\">TWISTER</p>", "conditions": [24, 1600, "v", 12000], "internal_node_id": "0.0-97.0", "trial": 3, "time_elapsed": 773443, "serialpos": 16, "key_press": -1, "wordID": 1529, "type": "PRES_VIS", "trial_index": 133}, "uniqueid": "MTK2168:32SVAV9L3GGWY9IRKNEGNZUPIFA3AN", "dateTime": 1516821002512}, {"current_trial": 134, "trialdata": {"rt": -1, "trial_type": "single-stim", "word": "sausage", "stimulus": "<p id=\"stim\">SAUSAGE</p>", "conditions": [24, 1600, "v", 12000], "internal_node_id": "0.0-98.0", "trial": 3, "time_elapsed": 775937, "serialpos": 17, "key_press": -1, "wordID": 1237, "type": "PRES_VIS", "trial_index": 134}, "uniqueid": "MTK2168:32SVAV9L3GGWY9IRKNEGNZUPIFA3AN", "dateTime": 1516821005006}, {"current_trial": 135, "trialdata": {"rt": -1, "trial_type": "single-stim", "word": "dragon", "stimulus": "<p id=\"stim\">DRAGON</p>", "conditions": [24, 1600, "v", 12000], "internal_node_id": "0.0-99.0", "trial": 3, "time_elapsed": 778485, "serialpos": 18, "key_press": -1, "wordID": 491, "type": "PRES_VIS", "trial_index": 135}, "uniqueid": "MTK2168:32SVAV9L3GGWY9IRKNEGNZUPIFA3AN", "dateTime": 1516821007554}, {"current_trial": 136, "trialdata": {"rt": -1, "trial_type": "single-stim", "word": "virus", "stimulus": "<p id=\"stim\">VIRUS</p>", "conditions": [24, 1600, "v", 12000], "internal_node_id": "0.0-100.0", "trial": 3, "time_elapsed": 781285, "serialpos": 19, "key_press": -1, "wordID": 1571, "type": "PRES_VIS", "trial_index": 136}, "uniqueid": "MTK2168:32SVAV9L3GGWY9IRKNEGNZUPIFA3AN", "dateTime": 1516821010354}, {"current_trial": 137, "trialdata": {"rt": -1, "trial_type": "single-stim", "word": "coffee", "stimulus": "<p id=\"stim\">COFFEE</p>", "conditions": [24, 1600, "v", 12000], "internal_node_id": "0.0-101.0", "trial": 3, "time_elapsed": 783811, "serialpos": 20, "key_press": -1, "wordID": 340, "type": "PRES_VIS", "trial_index": 137}, "uniqueid": "MTK2168:32SVAV9L3GGWY9IRKNEGNZUPIFA3AN", "dateTime": 1516821012880}, {"current_trial": 138, "trialdata": {"rt": -1, "trial_type": "single-stim", "word": "hound", "stimulus": "<p id=\"stim\">HOUND</p>", "conditions": [24, 1600, "v", 12000], "internal_node_id": "0.0-102.0", "trial": 3, "time_elapsed": 786577, "serialpos": 21, "key_press": -1, "wordID": 723, "type": "PRES_VIS", "trial_index": 138}, "uniqueid": "MTK2168:32SVAV9L3GGWY9IRKNEGNZUPIFA3AN", "dateTime": 1516821015646}, {"current_trial": 139, "trialdata": {"rt": -1, "trial_type": "single-stim", "word": "grape", "stimulus": "<p id=\"stim\">GRAPE</p>", "conditions": [24, 1600, "v", 12000], "internal_node_id": "0.0-103.0", "trial": 3, "time_elapsed": 789022, "serialpos": 22, "key_press": -1, "wordID": 653, "type": "PRES_VIS", "trial_index": 139}, "uniqueid": "MTK2168:32SVAV9L3GGWY9IRKNEGNZUPIFA3AN", "dateTime": 1516821018091}, {"current_trial": 140, "trialdata": {"rt": -1, "trial_type": "single-stim", "word": "barley", "stimulus": "<p id=\"stim\">BARLEY</p>", "conditions": [24, 1600, "v", 12000], "internal_node_id": "0.0-104.0", "trial": 3, "time_elapsed": 791477, "serialpos": 23, "key_press": -1, "wordID": 87, "type": "PRES_VIS", "trial_index": 140}, "uniqueid": "MTK2168:32SVAV9L3GGWY9IRKNEGNZUPIFA3AN", "dateTime": 1516821020546}, {"current_trial": 141, "trialdata": {"rt": -1, "trial_type": "single-stim", "stimulus": "", "internal_node_id": "0.0-105.0-0.0", "time_elapsed": 794028, "key_press": -1, "type": "PRE_RECALL_DELAY", "trial_index": 141}, "uniqueid": "MTK2168:32SVAV9L3GGWY9IRKNEGNZUPIFA3AN", "dateTime": 1516821023096}, {"current_trial": 142, "trialdata": {"rt": -1000, "trial_type": "single-audio", "stimulus": "/static/audio/400Hz.wav", "internal_node_id": "0.0-106.0", "time_elapsed": 794533, "key_press": -1, "type": "PRE_RECALL_ALERT", "trial_index": 142}, "uniqueid": "MTK2168:32SVAV9L3GGWY9IRKNEGNZUPIFA3AN", "dateTime": 1516821023602}, {"current_trial": 143, "trialdata": {"rt": [3536, 5045, 5267, 7344, 8935, 12119, 14707, 17319, 18292, 21998, 22839, 24328, 25367, 33935, 35391, 46727, 48502, 49951, 54800], "recwords": ["twister", "goblin", "", "sausage", "dragon", "venus", "crab", "coffee", "virus", "barley", "lava", "bunny", "puppy", "breast", "barley", "leg", "saddle", "orchid", "crab"], "key_times": [2814, 2926, 3064, 3180, 3230, 3344, 3454, 3536, 4289, 4356, 4467, 4664, 4738, 4861, 5045, 5267, 6440, 6551, 6665, 6968, 7086, 7192, 7257, 7344, 8284, 8466, 8580, 8689, 8799, 8864, 8935, 11151, 11500, 11645, 11725, 11805, 11863, 11958, 12119, 14217, 14444, 14535, 14579, 14707, 16598, 16721, 16835, 16946, 17062, 17174, 17319, 17675, 17794, 17865, 18010, 18099, 18292, 21032, 21216, 21274, 21593, 21694, 21803, 21998, 22204, 22336, 22616, 22731, 22839, 23577, 23685, 23849, 23972, 24150, 24328, 24644, 24762, 24886, 25045, 25177, 25367, 32994, 33113, 33133, 33171, 33310, 33692, 33772, 33811, 33935, 34354, 34422, 34502, 34937, 35031, 35141, 35391, 46487, 46568, 46643, 46727, 47758, 47837, 47945, 48128, 48265, 48357, 48502, 49258, 49307, 49521, 49588, 49634, 49756, 49951, 54145, 54382, 54494, 54627, 54800], "trial_type": "free-recall", "conditions": [24, 1600, "v", 12000], "internal_node_id": "0.0-107.0-0.0", "key_presses": [84, 87, 73, 83, 84, 69, 82, 13, 71, 79, 66, 76, 73, 78, 32, 13, 83, 65, 85, 83, 65, 71, 69, 13, 68, 82, 65, 71, 79, 78, 13, 79, 8, 86, 69, 78, 85, 83, 13, 67, 82, 65, 66, 13, 67, 79, 70, 70, 69, 69, 13, 86, 73, 82, 85, 83, 13, 66, 65, 82, 76, 69, 89, 13, 76, 65, 86, 65, 13, 66, 85, 78, 78, 89, 13, 80, 85, 80, 80, 89, 13, 66, 82, 69, 65, 84, 8, 83, 84, 13, 66, 65, 82, 76, 69, 89, 13, 76, 69, 71, 13, 83, 65, 68, 68, 76, 69, 13, 79, 82, 67, 72, 73, 68, 13, 67, 82, 65, 66, 13], "trial": 3, "time_elapsed": 854541, "type": "FREE_RECALL", "trial_index": 143}, "uniqueid": "MTK2168:32SVAV9L3GGWY9IRKNEGNZUPIFA3AN", "dateTime": 1516821083617}, {"current_trial": 144, "trialdata": {"rt": 1429, "trial_type": "text", "internal_node_id": "0.0-108.0", "time_elapsed": 857984, "key_press": 32, "type": "INSTRUCTIONS", "trial_index": 144}, "uniqueid": "MTK2168:32SVAV9L3GGWY9IRKNEGNZUPIFA3AN", "dateTime": 1516821087052}, {"current_trial": 145, "trialdata": {"rt": [3643, 8158, 11568], "trial_type": "math-distractor", "key_times": [3319, 3439, 3643, 6545, 7972, 8158, 11226, 11376, 11568], "responses": ["22", "11", "21"], "num2": [6, 4, 8, 1], "num3": [7, 3, 8, 9], "conditions": [12, 1600, "v", 12000], "internal_node_id": "0.0-109.0", "key_presses": [98, 98, 13, 97, 97, 13, 98, 97, 13], "trial": 4, "time_elapsed": 871991, "type": "DISTRACTOR", "trial_index": 145, "num1": [9, 4, 5, 1]}, "uniqueid": "MTK2168:32SVAV9L3GGWY9IRKNEGNZUPIFA3AN", "dateTime": 1516821101060}, {"current_trial": 146, "trialdata": {"rt": -1, "trial_type": "single-stim", "stimulus": "<p id=\"stim\">10</p>", "internal_node_id": "0.0-110.0-0.0", "time_elapsed": 874994, "key_press": -1, "trial_index": 146}, "uniqueid": "MTK2168:32SVAV9L3GGWY9IRKNEGNZUPIFA3AN", "dateTime": 1516821104063}, {"current_trial": 147, "trialdata": {"rt": -1, "trial_type": "single-stim", "stimulus": "<p id=\"stim\">9</p>", "internal_node_id": "0.0-110.0-1.0", "time_elapsed": 875997, "key_press": -1, "trial_index": 147}, "uniqueid": "MTK2168:32SVAV9L3GGWY9IRKNEGNZUPIFA3AN", "dateTime": 1516821105066}, {"current_trial": 148, "trialdata": {"rt": -1, "trial_type": "single-stim", "stimulus": "<p id=\"stim\">8</p>", "internal_node_id": "0.0-110.0-2.0", "time_elapsed": 877000, "key_press": -1, "trial_index": 148}, "uniqueid": "MTK2168:32SVAV9L3GGWY9IRKNEGNZUPIFA3AN", "dateTime": 1516821106068}, {"current_trial": 149, "trialdata": {"rt": -1, "trial_type": "single-stim", "stimulus": "<p id=\"stim\">7</p>", "internal_node_id": "0.0-110.0-3.0", "time_elapsed": 878010, "key_press": -1, "trial_index": 149}, "uniqueid": "MTK2168:32SVAV9L3GGWY9IRKNEGNZUPIFA3AN", "dateTime": 1516821107078}, {"current_trial": 150, "trialdata": {"rt": -1, "trial_type": "single-stim", "stimulus": "<p id=\"stim\">6</p>", "internal_node_id": "0.0-110.0-4.0", "time_elapsed": 879012, "key_press": -1, "trial_index": 150}, "uniqueid": "MTK2168:32SVAV9L3GGWY9IRKNEGNZUPIFA3AN", "dateTime": 1516821108081}, {"current_trial": 151, "trialdata": {"rt": -1, "trial_type": "single-stim", "stimulus": "<p id=\"stim\">5</p>", "internal_node_id": "0.0-110.0-5.0", "time_elapsed": 880016, "key_press": -1, "trial_index": 151}, "uniqueid": "MTK2168:32SVAV9L3GGWY9IRKNEGNZUPIFA3AN", "dateTime": 1516821109084}, {"current_trial": 152, "trialdata": {"rt": -1, "trial_type": "single-stim", "stimulus": "<p id=\"stim\">4</p>", "internal_node_id": "0.0-110.0-6.0", "time_elapsed": 881019, "key_press": -1, "trial_index": 152}, "uniqueid": "MTK2168:32SVAV9L3GGWY9IRKNEGNZUPIFA3AN", "dateTime": 1516821110088}, {"current_trial": 153, "trialdata": {"rt": -1, "trial_type": "single-stim", "stimulus": "<p id=\"stim\">3</p>", "internal_node_id": "0.0-110.0-7.0", "time_elapsed": 882022, "key_press": -1, "trial_index": 153}, "uniqueid": "MTK2168:32SVAV9L3GGWY9IRKNEGNZUPIFA3AN", "dateTime": 1516821111091}, {"current_trial": 154, "trialdata": {"rt": -1, "trial_type": "single-stim", "stimulus": "<p id=\"stim\">2</p>", "internal_node_id": "0.0-110.0-8.0", "time_elapsed": 883024, "key_press": -1, "trial_index": 154}, "uniqueid": "MTK2168:32SVAV9L3GGWY9IRKNEGNZUPIFA3AN", "dateTime": 1516821112093}, {"current_trial": 155, "trialdata": {"rt": -1, "trial_type": "single-stim", "stimulus": "<p id=\"stim\">1</p>", "internal_node_id": "0.0-110.0-9.0", "time_elapsed": 884029, "key_press": -1, "trial_index": 155}, "uniqueid": "MTK2168:32SVAV9L3GGWY9IRKNEGNZUPIFA3AN", "dateTime": 1516821113097}, {"current_trial": 156, "trialdata": {"rt": -1, "trial_type": "single-stim", "stimulus": "<p id=\"stim\">+</p>", "internal_node_id": "0.0-111.0-0.0", "time_elapsed": 885541, "key_press": -1, "type": "FIXATION", "trial_index": 156}, "uniqueid": "MTK2168:32SVAV9L3GGWY9IRKNEGNZUPIFA3AN", "dateTime": 1516821114609}, {"current_trial": 157, "trialdata": {"rt": -1, "trial_type": "single-stim", "word": "empire", "stimulus": "<p id=\"stim\">EMPIRE</p>", "conditions": [12, 1600, "v", 12000], "internal_node_id": "0.0-112.0", "trial": 4, "time_elapsed": 887144, "serialpos": 0, "key_press": -1, "wordID": 529, "type": "PRES_VIS", "trial_index": 157}, "uniqueid": "MTK2168:32SVAV9L3GGWY9IRKNEGNZUPIFA3AN", "dateTime": 1516821116213}, {"current_trial": 158, "trialdata": {"rt": -1, "trial_type": "single-stim", "word": "gavel", "stimulus": "<p id=\"stim\">GAVEL</p>", "conditions": [12, 1600, "v", 12000], "internal_node_id": "0.0-113.0", "trial": 4, "time_elapsed": 889631, "serialpos": 1, "key_press": -1, "wordID": 626, "type": "PRES_VIS", "trial_index": 158}, "uniqueid": "MTK2168:32SVAV9L3GGWY9IRKNEGNZUPIFA3AN", "dateTime": 1516821118699}, {"current_trial": 159, "trialdata": {"rt": -1, "trial_type": "single-stim", "word": "sphinx", "stimulus": "<p id=\"stim\">SPHINX</p>", "conditions": [12, 1600, "v", 12000], "internal_node_id": "0.0-114.0", "trial": 4, "time_elapsed": 892316, "serialpos": 2, "key_press": -1, "wordID": 1348, "type": "PRES_VIS", "trial_index": 159}, "uniqueid": "MTK2168:32SVAV9L3GGWY9IRKNEGNZUPIFA3AN", "dateTime": 1516821121385}, {"current_trial": 160, "trialdata": {"rt": -1, "trial_type": "single-stim", "word": "mammal", "stimulus": "<p id=\"stim\">MAMMAL</p>", "conditions": [12, 1600, "v", 12000], "internal_node_id": "0.0-115.0", "trial": 4, "time_elapsed": 894839, "serialpos": 3, "key_press": -1, "wordID": 860, "type": "PRES_VIS", "trial_index": 160}, "uniqueid": "MTK2168:32SVAV9L3GGWY9IRKNEGNZUPIFA3AN", "dateTime": 1516821123908}, {"current_trial": 161, "trialdata": {"rt": -1, "trial_type": "single-stim", "word": "girl", "stimulus": "<p id=\"stim\">GIRL</p>", "conditions": [12, 1600, "v", 12000], "internal_node_id": "0.0-116.0", "trial": 4, "time_elapsed": 897448, "serialpos": 4, "key_press": -1, "wordID": 636, "type": "PRES_VIS", "trial_index": 161}, "uniqueid": "MTK2168:32SVAV9L3GGWY9IRKNEGNZUPIFA3AN", "dateTime": 1516821126516}, {"current_trial": 162, "trialdata": {"rt": -1, "trial_type": "single-stim", "word": "child", "stimulus": "<p id=\"stim\">CHILD</p>", "conditions": [12, 1600, "v", 12000], "internal_node_id": "0.0-117.0", "trial": 4, "time_elapsed": 900027, "serialpos": 5, "key_press": -1, "wordID": 298, "type": "PRES_VIS", "trial_index": 162}, "uniqueid": "MTK2168:32SVAV9L3GGWY9IRKNEGNZUPIFA3AN", "dateTime": 1516821129096}, {"current_trial": 163, "trialdata": {"rt": -1, "trial_type": "single-stim", "word": "waiter", "stimulus": "<p id=\"stim\">WAITER</p>", "conditions": [12, 1600, "v", 12000], "internal_node_id": "0.0-118.0", "trial": 4, "time_elapsed": 902635, "serialpos": 6, "key_press": -1, "wordID": 1579, "type": "PRES_VIS", "trial_index": 163}, "uniqueid": "MTK2168:32SVAV9L3GGWY9IRKNEGNZUPIFA3AN", "dateTime": 1516821131704}, {"current_trial": 164, "trialdata": {"rt": -1, "trial_type": "single-stim", "word": "dolphin", "stimulus": "<p id=\"stim\">DOLPHIN</p>", "conditions": [12, 1600, "v", 12000], "internal_node_id": "0.0-119.0", "trial": 4, "time_elapsed": 905090, "serialpos": 7, "key_press": -1, "wordID": 482, "type": "PRES_VIS", "trial_index": 164}, "uniqueid": "MTK2168:32SVAV9L3GGWY9IRKNEGNZUPIFA3AN", "dateTime": 1516821134159}, {"current_trial": 165, "trialdata": {"rt": -1, "trial_type": "single-stim", "word": "dust", "stimulus": "<p id=\"stim\">DUST</p>", "conditions": [12, 1600, "v", 12000], "internal_node_id": "0.0-120.0", "trial": 4, "time_elapsed": 907679, "serialpos": 8, "key_press": -1, "wordID": 507, "type": "PRES_VIS", "trial_index": 165}, "uniqueid": "MTK2168:32SVAV9L3GGWY9IRKNEGNZUPIFA3AN", "dateTime": 1516821136748}, {"current_trial": 166, "trialdata": {"rt": -1, "trial_type": "single-stim", "word": "critic", "stimulus": "<p id=\"stim\">CRITIC</p>", "conditions": [12, 1600, "v", 12000], "internal_node_id": "0.0-121.0", "trial": 4, "time_elapsed": 910386, "serialpos": 9, "key_press": -1, "wordID": 409, "type": "PRES_VIS", "trial_index": 166}, "uniqueid": "MTK2168:32SVAV9L3GGWY9IRKNEGNZUPIFA3AN", "dateTime": 1516821139454}, {"current_trial": 167, "trialdata": {"rt": -1, "trial_type": "single-stim", "word": "queen", "stimulus": "<p id=\"stim\">QUEEN</p>", "conditions": [12, 1600, "v", 12000], "internal_node_id": "0.0-122.0", "trial": 4, "time_elapsed": 912841, "serialpos": 10, "key_press": -1, "wordID": 1148, "type": "PRES_VIS", "trial_index": 167}, "uniqueid": "MTK2168:32SVAV9L3GGWY9IRKNEGNZUPIFA3AN", "dateTime": 1516821141910}, {"current_trial": 168, "trialdata": {"rt": -1, "trial_type": "single-stim", "word": "milk", "stimulus": "<p id=\"stim\">MILK</p>", "conditions": [12, 1600, "v", 12000], "internal_node_id": "0.0-123.0", "trial": 4, "time_elapsed": 915548, "serialpos": 11, "key_press": -1, "wordID": 894, "type": "PRES_VIS", "trial_index": 168}, "uniqueid": "MTK2168:32SVAV9L3GGWY9IRKNEGNZUPIFA3AN", "dateTime": 1516821144617}, {"current_trial": 169, "trialdata": {"rt": -1, "trial_type": "single-stim", "stimulus": "", "internal_node_id": "0.0-124.0-0.0", "time_elapsed": 917828, "key_press": -1, "type": "PRE_RECALL_DELAY", "trial_index": 169}, "uniqueid": "MTK2168:32SVAV9L3GGWY9IRKNEGNZUPIFA3AN", "dateTime": 1516821146896}, {"current_trial": 170, "trialdata": {"rt": -1000, "trial_type": "single-audio", "stimulus": "/static/audio/400Hz.wav", "internal_node_id": "0.0-125.0", "time_elapsed": 918331, "key_press": -1, "type": "PRE_RECALL_ALERT", "trial_index": 170}, "uniqueid": "MTK2168:32SVAV9L3GGWY9IRKNEGNZUPIFA3AN", "dateTime": 1516821147399}, {"current_trial": 171, "trialdata": {"rt": [2514, 5509, 6741, 11147, 12772, 13450, 14418, 15890, 17540, 18637, 21010, 25769], "recwords": ["milk", "sphinx", "mammal", "dolphin", "waiter", "child", "girl", "gavel", "empire", "queen", "dust", "critic"], "key_times": [1015, 1381, 1468, 1799, 1921, 2114, 2299, 2374, 2514, 4034, 4110, 4855, 4973, 5121, 5278, 5509, 5950, 6032, 6138, 6253, 6461, 6565, 6741, 8317, 8472, 8608, 8854, 9009, 9116, 9291, 9629, 9872, 10004, 10098, 10217, 10447, 10614, 10765, 10875, 11032, 11147, 12194, 12268, 12348, 12441, 12537, 12644, 12772, 13006, 13066, 13141, 13213, 13276, 13450, 13914, 14024, 14112, 14223, 14418, 15392, 15514, 15579, 15659, 15730, 15890, 16974, 17098, 17155, 17265, 17347, 17377, 17540, 18018, 18142, 18208, 18354, 18475, 18637, 20631, 20704, 20848, 20891, 21010, 25035, 25230, 25351, 25393, 25490, 25584, 25769], "trial_type": "free-recall", "conditions": [12, 1600, "v", 12000], "internal_node_id": "0.0-126.0-0.0", "key_presses": [77, 76, 73, 8, 8, 73, 76, 75, 13, 83, 80, 72, 73, 78, 88, 13, 77, 65, 77, 77, 65, 76, 13, 68, 79, 80, 76, 72, 73, 78, 8, 8, 8, 8, 8, 76, 80, 72, 73, 78, 13, 87, 65, 73, 84, 69, 82, 13, 67, 72, 73, 76, 68, 13, 71, 73, 82, 76, 13, 71, 65, 86, 69, 76, 13, 69, 77, 80, 73, 82, 69, 13, 81, 85, 69, 69, 78, 13, 68, 85, 83, 84, 13, 67, 82, 73, 84, 73, 67, 13], "trial": 4, "time_elapsed": 978338, "type": "FREE_RECALL", "trial_index": 171}, "uniqueid": "MTK2168:32SVAV9L3GGWY9IRKNEGNZUPIFA3AN", "dateTime": 1516821207415}, {"current_trial": 172, "trialdata": {"rt": 2253, "trial_type": "text", "internal_node_id": "0.0-127.0", "time_elapsed": 982604, "key_press": 32, "type": "INSTRUCTIONS", "trial_index": 172}, "uniqueid": "MTK2168:32SVAV9L3GGWY9IRKNEGNZUPIFA3AN", "dateTime": 1516821211672}, {"current_trial": 173, "trialdata": {"rt": [2267, 3611, 5955, 7299, 8826, 10698, 12523, 14026, 15916, 17699, 19126, 21317, 23554], "trial_type": "math-distractor", "key_times": [1443, 2062, 2267, 3391, 3611, 5647, 5773, 5955, 7108, 7299, 8429, 8619, 8826, 10347, 10505, 10698, 12193, 12338, 12523, 13729, 13861, 14026, 15678, 15916, 17334, 17499, 17699, 18825, 18955, 19126, 21028, 21186, 21317, 23245, 23390, 23554], "responses": ["10", "9", "21", "9", "13", "18", "17", "14", "8", "20", "11", "21", "25"], "num2": [1, 4, 6, 4, 5, 3, 5, 7, 5, 5, 5, 4, 9, 3], "num3": [7, 1, 3, 3, 5, 9, 4, 6, 1, 7, 4, 9, 8, 4], "conditions": [12, 800, "v", 24000], "internal_node_id": "0.0-128.0", "key_presses": [97, 96, 13, 105, 13, 98, 97, 13, 105, 13, 97, 99, 13, 97, 104, 13, 97, 103, 13, 97, 100, 13, 104, 13, 98, 96, 13, 97, 97, 13, 98, 97, 13, 98, 101, 13], "trial": 5, "time_elapsed": 1008611, "type": "DISTRACTOR", "trial_index": 173, "num1": [2, 4, 9, 2, 3, 6, 8, 1, 2, 8, 2, 8, 8, 4]}, "uniqueid": "MTK2168:32SVAV9L3GGWY9IRKNEGNZUPIFA3AN", "dateTime": 1516821237680}, {"current_trial": 174, "trialdata": {"rt": -1, "trial_type": "single-stim", "stimulus": "<p id=\"stim\">10</p>", "internal_node_id": "0.0-129.0-0.0", "time_elapsed": 1011653, "key_press": -1, "trial_index": 174}, "uniqueid": "MTK2168:32SVAV9L3GGWY9IRKNEGNZUPIFA3AN", "dateTime": 1516821240722}, {"current_trial": 175, "trialdata": {"rt": -1, "trial_type": "single-stim", "stimulus": "<p id=\"stim\">9</p>", "internal_node_id": "0.0-129.0-1.0", "time_elapsed": 1012673, "key_press": -1, "trial_index": 175}, "uniqueid": "MTK2168:32SVAV9L3GGWY9IRKNEGNZUPIFA3AN", "dateTime": 1516821241741}, {"current_trial": 176, "trialdata": {"rt": -1, "trial_type": "single-stim", "stimulus": "<p id=\"stim\">8</p>", "internal_node_id": "0.0-129.0-2.0", "time_elapsed": 1013692, "key_press": -1, "trial_index": 176}, "uniqueid": "MTK2168:32SVAV9L3GGWY9IRKNEGNZUPIFA3AN", "dateTime": 1516821242760}, {"current_trial": 177, "trialdata": {"rt": -1, "trial_type": "single-stim", "stimulus": "<p id=\"stim\">7</p>", "internal_node_id": "0.0-129.0-3.0", "time_elapsed": 1014769, "key_press": -1, "trial_index": 177}, "uniqueid": "MTK2168:32SVAV9L3GGWY9IRKNEGNZUPIFA3AN", "dateTime": 1516821243859}, {"current_trial": 178, "trialdata": {"rt": -1, "trial_type": "single-stim", "stimulus": "<p id=\"stim\">6</p>", "internal_node_id": "0.0-129.0-4.0", "time_elapsed": 1015793, "key_press": -1, "trial_index": 178}, "uniqueid": "MTK2168:32SVAV9L3GGWY9IRKNEGNZUPIFA3AN", "dateTime": 1516821244861}, {"current_trial": 179, "trialdata": {"rt": -1, "trial_type": "single-stim", "stimulus": "<p id=\"stim\">5</p>", "internal_node_id": "0.0-129.0-5.0", "time_elapsed": 1016795, "key_press": -1, "trial_index": 179}, "uniqueid": "MTK2168:32SVAV9L3GGWY9IRKNEGNZUPIFA3AN", "dateTime": 1516821245864}, {"current_trial": 180, "trialdata": {"rt": -1, "trial_type": "single-stim", "stimulus": "<p id=\"stim\">4</p>", "internal_node_id": "0.0-129.0-6.0", "time_elapsed": 1017798, "key_press": -1, "trial_index": 180}, "uniqueid": "MTK2168:32SVAV9L3GGWY9IRKNEGNZUPIFA3AN", "dateTime": 1516821246866}, {"current_trial": 181, "trialdata": {"rt": -1, "trial_type": "single-stim", "stimulus": "<p id=\"stim\">3</p>", "internal_node_id": "0.0-129.0-7.0", "time_elapsed": 1018801, "key_press": -1, "trial_index": 181}, "uniqueid": "MTK2168:32SVAV9L3GGWY9IRKNEGNZUPIFA3AN", "dateTime": 1516821247869}, {"current_trial": 182, "trialdata": {"rt": -1, "trial_type": "single-stim", "stimulus": "<p id=\"stim\">2</p>", "internal_node_id": "0.0-129.0-8.0", "time_elapsed": 1019810, "key_press": -1, "trial_index": 182}, "uniqueid": "MTK2168:32SVAV9L3GGWY9IRKNEGNZUPIFA3AN", "dateTime": 1516821248879}, {"current_trial": 183, "trialdata": {"rt": -1, "trial_type": "single-stim", "stimulus": "<p id=\"stim\">1</p>", "internal_node_id": "0.0-129.0-9.0", "time_elapsed": 1020819, "key_press": -1, "trial_index": 183}, "uniqueid": "MTK2168:32SVAV9L3GGWY9IRKNEGNZUPIFA3AN", "dateTime": 1516821249888}, {"current_trial": 184, "trialdata": {"rt": -1, "trial_type": "single-stim", "stimulus": "<p id=\"stim\">+</p>", "internal_node_id": "0.0-130.0-0.0", "time_elapsed": 1022322, "key_press": -1, "type": "FIXATION", "trial_index": 184}, "uniqueid": "MTK2168:32SVAV9L3GGWY9IRKNEGNZUPIFA3AN", "dateTime": 1516821251391}, {"current_trial": 185, "trialdata": {"rt": -1, "trial_type": "single-stim", "word": "lady", "stimulus": "<p id=\"stim\">LADY</p>", "conditions": [12, 800, "v", 24000], "internal_node_id": "0.0-131.0", "trial": 5, "time_elapsed": 1023125, "serialpos": 0, "key_press": -1, "wordID": 793, "type": "PRES_VIS", "trial_index": 185}, "uniqueid": "MTK2168:32SVAV9L3GGWY9IRKNEGNZUPIFA3AN", "dateTime": 1516821252194}, {"current_trial": 186, "trialdata": {"rt": -1, "trial_type": "single-stim", "word": "bouquet", "stimulus": "<p id=\"stim\">BOUQUET</p>", "conditions": [12, 800, "v", 24000], "internal_node_id": "0.0-132.0", "trial": 5, "time_elapsed": 1024884, "serialpos": 1, "key_press": -1, "wordID": 156, "type": "PRES_VIS", "trial_index": 186}, "uniqueid": "MTK2168:32SVAV9L3GGWY9IRKNEGNZUPIFA3AN", "dateTime": 1516821253953}, {"current_trial": 187, "trialdata": {"rt": -1, "trial_type": "single-stim", "word": "bullet", "stimulus": "<p id=\"stim\">BULLET</p>", "conditions": [12, 800, "v", 24000], "internal_node_id": "0.0-133.0", "trial": 5, "time_elapsed": 1026494, "serialpos": 2, "key_press": -1, "wordID": 193, "type": "PRES_VIS", "trial_index": 187}, "uniqueid": "MTK2168:32SVAV9L3GGWY9IRKNEGNZUPIFA3AN", "dateTime": 1516821255563}, {"current_trial": 188, "trialdata": {"rt": -1, "trial_type": "single-stim", "word": "icing", "stimulus": "<p id=\"stim\">ICING</p>", "conditions": [12, 800, "v", 24000], "internal_node_id": "0.0-134.0", "trial": 5, "time_elapsed": 1028464, "serialpos": 3, "key_press": -1, "wordID": 731, "type": "PRES_VIS", "trial_index": 188}, "uniqueid": "MTK2168:32SVAV9L3GGWY9IRKNEGNZUPIFA3AN", "dateTime": 1516821257533}, {"current_trial": 189, "trialdata": {"rt": -1, "trial_type": "single-stim", "word": "brick", "stimulus": "<p id=\"stim\">BRICK</p>", "conditions": [12, 800, "v", 24000], "internal_node_id": "0.0-135.0", "trial": 5, "time_elapsed": 1030442, "serialpos": 4, "key_press": -1, "wordID": 171, "type": "PRES_VIS", "trial_index": 189}, "uniqueid": "MTK2168:32SVAV9L3GGWY9IRKNEGNZUPIFA3AN", "dateTime": 1516821259511}, {"current_trial": 190, "trialdata": {"rt": -1, "trial_type": "single-stim", "word": "guard", "stimulus": "<p id=\"stim\">GUARD</p>", "conditions": [12, 800, "v", 24000], "internal_node_id": "0.0-136.0", "trial": 5, "time_elapsed": 1032230, "serialpos": 5, "key_press": -1, "wordID": 666, "type": "PRES_VIS", "trial_index": 190}, "uniqueid": "MTK2168:32SVAV9L3GGWY9IRKNEGNZUPIFA3AN", "dateTime": 1516821261299}, {"current_trial": 191, "trialdata": {"rt": -1, "trial_type": "single-stim", "word": "robin", "stimulus": "<p id=\"stim\">ROBIN</p>", "conditions": [12, 800, "v", 24000], "internal_node_id": "0.0-137.0", "trial": 5, "time_elapsed": 1034030, "serialpos": 6, "key_press": -1, "wordID": 1198, "type": "PRES_VIS", "trial_index": 191}, "uniqueid": "MTK2168:32SVAV9L3GGWY9IRKNEGNZUPIFA3AN", "dateTime": 1516821263099}, {"current_trial": 192, "trialdata": {"rt": -1, "trial_type": "single-stim", "word": "london", "stimulus": "<p id=\"stim\">LONDON</p>", "conditions": [12, 800, "v", 24000], "internal_node_id": "0.0-138.0", "trial": 5, "time_elapsed": 1035957, "serialpos": 7, "key_press": -1, "wordID": 842, "type": "PRES_VIS", "trial_index": 192}, "uniqueid": "MTK2168:32SVAV9L3GGWY9IRKNEGNZUPIFA3AN", "dateTime": 1516821265025}, {"current_trial": 193, "trialdata": {"rt": -1, "trial_type": "single-stim", "word": "powder", "stimulus": "<p id=\"stim\">POWDER</p>", "conditions": [12, 800, "v", 24000], "internal_node_id": "0.0-139.0", "trial": 5, "time_elapsed": 1037681, "serialpos": 8, "key_press": -1, "wordID": 1116, "type": "PRES_VIS", "trial_index": 193}, "uniqueid": "MTK2168:32SVAV9L3GGWY9IRKNEGNZUPIFA3AN", "dateTime": 1516821266750}, {"current_trial": 194, "trialdata": {"rt": -1, "trial_type": "single-stim", "word": "stone", "stimulus": "<p id=\"stim\">STONE</p>", "conditions": [12, 800, "v", 24000], "internal_node_id": "0.0-140.0", "trial": 5, "time_elapsed": 1039557, "serialpos": 9, "key_press": -1, "wordID": 1384, "type": "PRES_VIS", "trial_index": 194}, "uniqueid": "MTK2168:32SVAV9L3GGWY9IRKNEGNZUPIFA3AN", "dateTime": 1516821268625}, {"current_trial": 195, "trialdata": {"rt": -1, "trial_type": "single-stim", "word": "liver", "stimulus": "<p id=\"stim\">LIVER</p>", "conditions": [12, 800, "v", 24000], "internal_node_id": "0.0-141.0", "trial": 5, "time_elapsed": 1041376, "serialpos": 10, "key_press": -1, "wordID": 832, "type": "PRES_VIS", "trial_index": 195}, "uniqueid": "MTK2168:32SVAV9L3GGWY9IRKNEGNZUPIFA3AN", "dateTime": 1516821270445}, {"current_trial": 196, "trialdata": {"rt": -1, "trial_type": "single-stim", "word": "kidney", "stimulus": "<p id=\"stim\">KIDNEY</p>", "conditions": [12, 800, "v", 24000], "internal_node_id": "0.0-142.0", "trial": 5, "time_elapsed": 1043005, "serialpos": 11, "key_press": -1, "wordID": 775, "type": "PRES_VIS", "trial_index": 196}, "uniqueid": "MTK2168:32SVAV9L3GGWY9IRKNEGNZUPIFA3AN", "dateTime": 1516821272074}, {"current_trial": 197, "trialdata": {"rt": -1, "trial_type": "single-stim", "stimulus": "", "internal_node_id": "0.0-143.0-0.0", "time_elapsed": 1045212, "key_press": -1, "type": "PRE_RECALL_DELAY", "trial_index": 197}, "uniqueid": "MTK2168:32SVAV9L3GGWY9IRKNEGNZUPIFA3AN", "dateTime": 1516821274281}, {"current_trial": 198, "trialdata": {"rt": -1000, "trial_type": "single-audio", "stimulus": "/static/audio/400Hz.wav", "internal_node_id": "0.0-144.0", "time_elapsed": 1045716, "key_press": -1, "type": "PRE_RECALL_ALERT", "trial_index": 198}, "uniqueid": "MTK2168:32SVAV9L3GGWY9IRKNEGNZUPIFA3AN", "dateTime": 1516821274784}, {"current_trial": 199, "trialdata": {"rt": [1546, 2714, 4121, 5980, 7616, 9591, 12329, 14854, 17205, 20938], "recwords": ["liver", "kidney", "lady", "bouquet", "brick", "icing", "guard", "robin", "london", "powder"], "key_times": [1081, 1164, 1211, 1304, 1413, 1546, 1848, 2025, 2113, 2215, 2362, 2438, 2714, 3770, 3853, 3917, 4004, 4121, 5174, 5330, 5404, 5519, 5662, 5769, 5870, 5980, 6843, 6922, 7070, 7166, 7383, 7616, 8991, 9111, 9252, 9356, 9433, 9591, 11853, 11925, 12041, 12127, 12229, 12329, 14323, 14402, 14477, 14609, 14719, 14854, 16314, 16479, 16666, 16802, 16912, 16993, 17205, 18633, 18761, 18765, 18839, 19133, 19600, 19852, 19930, 20044, 20364, 20439, 20600, 20752, 20833, 20938], "trial_type": "free-recall", "conditions": [12, 800, "v", 24000], "internal_node_id": "0.0-145.0-0.0", "key_presses": [76, 73, 86, 69, 82, 13, 75, 73, 68, 78, 69, 89, 13, 76, 65, 68, 89, 13, 66, 79, 85, 81, 85, 69, 84, 13, 66, 82, 73, 67, 75, 13, 73, 67, 73, 78, 71, 13, 71, 85, 65, 82, 68, 13, 82, 79, 66, 73, 78, 13, 76, 79, 78, 68, 79, 78, 13, 80, 87, 79, 69, 68, 8, 8, 8, 8, 79, 87, 68, 69, 82, 13], "trial": 5, "time_elapsed": 1105722, "type": "FREE_RECALL", "trial_index": 199}, "uniqueid": "MTK2168:32SVAV9L3GGWY9IRKNEGNZUPIFA3AN", "dateTime": 1516821334799}, {"current_trial": 200, "trialdata": {"rt": 59865, "trial_type": "text", "internal_node_id": "0.0-146.0", "time_elapsed": 1167598, "key_press": 32, "type": "INSTRUCTIONS", "trial_index": 200}, "uniqueid": "MTK2168:32SVAV9L3GGWY9IRKNEGNZUPIFA3AN", "dateTime": 1516821396667}, {"current_trial": 201, "trialdata": {"rt": [2381, 4050, 5659, 7221, 9232, 10851, 12497, 14525, 17194, 18715, 21409, 23443], "trial_type": "math-distractor", "key_times": [2030, 2198, 2381, 3765, 3894, 4050, 5242, 5423, 5659, 6863, 7020, 7221, 8844, 9020, 9232, 10475, 10658, 10851, 12104, 12301, 12497, 14141, 14335, 14525, 15844, 16602, 16852, 16989, 17194, 18357, 18511, 18715, 21074, 21191, 21409, 23040, 23265, 23443], "responses": ["18", "21", "10", "17", "16", "16", "13", "13", "20", "12", "22", "25"], "num2": [8, 7, 3, 7, 6, 4, 4, 2, 3, 5, 6, 9, 2], "num3": [3, 9, 5, 2, 6, 9, 6, 9, 9, 1, 8, 9, 9], "conditions": [12, 800, "v", 24000], "internal_node_id": "0.0-147.0", "key_presses": [97, 104, 13, 98, 97, 13, 97, 96, 13, 97, 103, 13, 97, 102, 13, 97, 102, 13, 97, 99, 13, 97, 99, 13, 97, 8, 98, 96, 13, 97, 98, 13, 98, 98, 13, 98, 101, 13], "trial": 6, "time_elapsed": 1193606, "type": "DISTRACTOR", "trial_index": 201, "num1": [7, 5, 2, 8, 4, 3, 3, 2, 8, 6, 8, 6, 6]}, "uniqueid": "MTK2168:32SVAV9L3GGWY9IRKNEGNZUPIFA3AN", "dateTime": 1516821422674}, {"current_trial": 202, "trialdata": {"rt": -1, "trial_type": "single-stim", "stimulus": "<p id=\"stim\">10</p>", "internal_node_id": "0.0-148.0-0.0", "time_elapsed": 1196625, "key_press": -1, "trial_index": 202}, "uniqueid": "MTK2168:32SVAV9L3GGWY9IRKNEGNZUPIFA3AN", "dateTime": 1516821425694}, {"current_trial": 203, "trialdata": {"rt": -1, "trial_type": "single-stim", "stimulus": "<p id=\"stim\">9</p>", "internal_node_id": "0.0-148.0-1.0", "time_elapsed": 1197630, "key_press": -1, "trial_index": 203}, "uniqueid": "MTK2168:32SVAV9L3GGWY9IRKNEGNZUPIFA3AN", "dateTime": 1516821426699}, {"current_trial": 204, "trialdata": {"rt": -1, "trial_type": "single-stim", "stimulus": "<p id=\"stim\">8</p>", "internal_node_id": "0.0-148.0-2.0", "time_elapsed": 1198635, "key_press": -1, "trial_index": 204}, "uniqueid": "MTK2168:32SVAV9L3GGWY9IRKNEGNZUPIFA3AN", "dateTime": 1516821427704}, {"current_trial": 205, "trialdata": {"rt": -1, "trial_type": "single-stim", "stimulus": "<p id=\"stim\">7</p>", "internal_node_id": "0.0-148.0-3.0", "time_elapsed": 1199643, "key_press": -1, "trial_index": 205}, "uniqueid": "MTK2168:32SVAV9L3GGWY9IRKNEGNZUPIFA3AN", "dateTime": 1516821428713}, {"current_trial": 206, "trialdata": {"rt": -1, "trial_type": "single-stim", "stimulus": "<p id=\"stim\">6</p>", "internal_node_id": "0.0-148.0-4.0", "time_elapsed": 1200661, "key_press": -1, "trial_index": 206}, "uniqueid": "MTK2168:32SVAV9L3GGWY9IRKNEGNZUPIFA3AN", "dateTime": 1516821429730}, {"current_trial": 207, "trialdata": {"rt": -1, "trial_type": "single-stim", "stimulus": "<p id=\"stim\">5</p>", "internal_node_id": "0.0-148.0-5.0", "time_elapsed": 1201679, "key_press": -1, "trial_index": 207}, "uniqueid": "MTK2168:32SVAV9L3GGWY9IRKNEGNZUPIFA3AN", "dateTime": 1516821430748}, {"current_trial": 208, "trialdata": {"rt": -1, "trial_type": "single-stim", "stimulus": "<p id=\"stim\">4</p>", "internal_node_id": "0.0-148.0-6.0", "time_elapsed": 1202695, "key_press": -1, "trial_index": 208}, "uniqueid": "MTK2168:32SVAV9L3GGWY9IRKNEGNZUPIFA3AN", "dateTime": 1516821431764}, {"current_trial": 209, "trialdata": {"rt": -1, "trial_type": "single-stim", "stimulus": "<p id=\"stim\">3</p>", "internal_node_id": "0.0-148.0-7.0", "time_elapsed": 1203711, "key_press": -1, "trial_index": 209}, "uniqueid": "MTK2168:32SVAV9L3GGWY9IRKNEGNZUPIFA3AN", "dateTime": 1516821432781}, {"current_trial": 210, "trialdata": {"rt": -1, "trial_type": "single-stim", "stimulus": "<p id=\"stim\">2</p>", "internal_node_id": "0.0-148.0-8.0", "time_elapsed": 1204719, "key_press": -1, "trial_index": 210}, "uniqueid": "MTK2168:32SVAV9L3GGWY9IRKNEGNZUPIFA3AN", "dateTime": 1516821433788}, {"current_trial": 211, "trialdata": {"rt": -1, "trial_type": "single-stim", "stimulus": "<p id=\"stim\">1</p>", "internal_node_id": "0.0-148.0-9.0", "time_elapsed": 1205758, "key_press": -1, "trial_index": 211}, "uniqueid": "MTK2168:32SVAV9L3GGWY9IRKNEGNZUPIFA3AN", "dateTime": 1516821434831}, {"current_trial": 212, "trialdata": {"rt": -1, "trial_type": "single-stim", "stimulus": "<p id=\"stim\">+</p>", "internal_node_id": "0.0-149.0-0.0", "time_elapsed": 1207266, "key_press": -1, "type": "FIXATION", "trial_index": 212}, "uniqueid": "MTK2168:32SVAV9L3GGWY9IRKNEGNZUPIFA3AN", "dateTime": 1516821436334}, {"current_trial": 213, "trialdata": {"rt": -1, "trial_type": "single-stim", "word": "wasp", "stimulus": "<p id=\"stim\">WASP</p>", "conditions": [12, 800, "v", 24000], "internal_node_id": "0.0-150.0", "trial": 6, "time_elapsed": 1208068, "serialpos": 0, "key_press": -1, "wordID": 1592, "type": "PRES_VIS", "trial_index": 213}, "uniqueid": "MTK2168:32SVAV9L3GGWY9IRKNEGNZUPIFA3AN", "dateTime": 1516821437137}, {"current_trial": 214, "trialdata": {"rt": -1, "trial_type": "single-stim", "word": "luggage", "stimulus": "<p id=\"stim\">LUGGAGE</p>", "conditions": [12, 800, "v", 24000], "internal_node_id": "0.0-151.0", "trial": 6, "time_elapsed": 1209884, "serialpos": 1, "key_press": -1, "wordID": 846, "type": "PRES_VIS", "trial_index": 214}, "uniqueid": "MTK2168:32SVAV9L3GGWY9IRKNEGNZUPIFA3AN", "dateTime": 1516821438952}, {"current_trial": 215, "trialdata": {"rt": -1, "trial_type": "single-stim", "word": "bug", "stimulus": "<p id=\"stim\">BUG</p>", "conditions": [12, 800, "v", 24000], "internal_node_id": "0.0-152.0", "trial": 6, "time_elapsed": 1211675, "serialpos": 2, "key_press": -1, "wordID": 186, "type": "PRES_VIS", "trial_index": 215}, "uniqueid": "MTK2168:32SVAV9L3GGWY9IRKNEGNZUPIFA3AN", "dateTime": 1516821440743}, {"current_trial": 216, "trialdata": {"rt": -1, "trial_type": "single-stim", "word": "cod", "stimulus": "<p id=\"stim\">COD</p>", "conditions": [12, 800, "v", 24000], "internal_node_id": "0.0-153.0", "trial": 6, "time_elapsed": 1213678, "serialpos": 3, "key_press": -1, "wordID": 339, "type": "PRES_VIS", "trial_index": 216}, "uniqueid": "MTK2168:32SVAV9L3GGWY9IRKNEGNZUPIFA3AN", "dateTime": 1516821442746}, {"current_trial": 217, "trialdata": {"rt": -1, "trial_type": "single-stim", "word": "suitcase", "stimulus": "<p id=\"stim\">SUITCASE</p>", "conditions": [12, 800, "v", 24000], "internal_node_id": "0.0-154.0", "trial": 6, "time_elapsed": 1215344, "serialpos": 4, "key_press": -1, "wordID": 1402, "type": "PRES_VIS", "trial_index": 217}, "uniqueid": "MTK2168:32SVAV9L3GGWY9IRKNEGNZUPIFA3AN", "dateTime": 1516821444412}, {"current_trial": 218, "trialdata": {"rt": -1, "trial_type": "single-stim", "word": "mask", "stimulus": "<p id=\"stim\">MASK</p>", "conditions": [12, 800, "v", 24000], "internal_node_id": "0.0-155.0", "trial": 6, "time_elapsed": 1217117, "serialpos": 5, "key_press": -1, "wordID": 875, "type": "PRES_VIS", "trial_index": 218}, "uniqueid": "MTK2168:32SVAV9L3GGWY9IRKNEGNZUPIFA3AN", "dateTime": 1516821446185}, {"current_trial": 219, "trialdata": {"rt": -1, "trial_type": "single-stim", "word": "river", "stimulus": "<p id=\"stim\">RIVER</p>", "conditions": [12, 800, "v", 24000], "internal_node_id": "0.0-156.0", "trial": 6, "time_elapsed": 1219108, "serialpos": 6, "key_press": -1, "wordID": 1193, "type": "PRES_VIS", "trial_index": 219}, "uniqueid": "MTK2168:32SVAV9L3GGWY9IRKNEGNZUPIFA3AN", "dateTime": 1516821448176}, {"current_trial": 220, "trialdata": {"rt": -1, "trial_type": "single-stim", "word": "airport", "stimulus": "<p id=\"stim\">AIRPORT</p>", "conditions": [12, 800, "v", 24000], "internal_node_id": "0.0-157.0", "trial": 6, "time_elapsed": 1221073, "serialpos": 7, "key_press": -1, "wordID": 12, "type": "PRES_VIS", "trial_index": 220}, "uniqueid": "MTK2168:32SVAV9L3GGWY9IRKNEGNZUPIFA3AN", "dateTime": 1516821450142}, {"current_trial": 221, "trialdata": {"rt": -1, "trial_type": "single-stim", "word": "soda", "stimulus": "<p id=\"stim\">SODA</p>", "conditions": [12, 800, "v", 24000], "internal_node_id": "0.0-158.0", "trial": 6, "time_elapsed": 1222759, "serialpos": 8, "key_press": -1, "wordID": 1340, "type": "PRES_VIS", "trial_index": 221}, "uniqueid": "MTK2168:32SVAV9L3GGWY9IRKNEGNZUPIFA3AN", "dateTime": 1516821451828}, {"current_trial": 222, "trialdata": {"rt": -1, "trial_type": "single-stim", "word": "drink", "stimulus": "<p id=\"stim\">DRINK</p>", "conditions": [12, 800, "v", 24000], "internal_node_id": "0.0-159.0", "trial": 6, "time_elapsed": 1224480, "serialpos": 9, "key_press": -1, "wordID": 497, "type": "PRES_VIS", "trial_index": 222}, "uniqueid": "MTK2168:32SVAV9L3GGWY9IRKNEGNZUPIFA3AN", "dateTime": 1516821453549}, {"current_trial": 223, "trialdata": {"rt": -1, "trial_type": "single-stim", "word": "basement", "stimulus": "<p id=\"stim\">BASEMENT</p>", "conditions": [12, 800, "v", 24000], "internal_node_id": "0.0-160.0", "trial": 6, "time_elapsed": 1226418, "serialpos": 10, "key_press": -1, "wordID": 93, "type": "PRES_VIS", "trial_index": 223}, "uniqueid": "MTK2168:32SVAV9L3GGWY9IRKNEGNZUPIFA3AN", "dateTime": 1516821455486}, {"current_trial": 224, "trialdata": {"rt": -1, "trial_type": "single-stim", "word": "victim", "stimulus": "<p id=\"stim\">VICTIM</p>", "conditions": [12, 800, "v", 24000], "internal_node_id": "0.0-161.0", "trial": 6, "time_elapsed": 1228097, "serialpos": 11, "key_press": -1, "wordID": 1561, "type": "PRES_VIS", "trial_index": 224}, "uniqueid": "MTK2168:32SVAV9L3GGWY9IRKNEGNZUPIFA3AN", "dateTime": 1516821457165}, {"current_trial": 225, "trialdata": {"rt": -1, "trial_type": "single-stim", "stimulus": "", "internal_node_id": "0.0-162.0-0.0", "time_elapsed": 1230502, "key_press": -1, "type": "PRE_RECALL_DELAY", "trial_index": 225}, "uniqueid": "MTK2168:32SVAV9L3GGWY9IRKNEGNZUPIFA3AN", "dateTime": 1516821459571}, {"current_trial": 226, "trialdata": {"rt": -1000, "trial_type": "single-audio", "stimulus": "/static/audio/400Hz.wav", "internal_node_id": "0.0-163.0", "time_elapsed": 1231005, "key_press": -1, "type": "PRE_RECALL_ALERT", "trial_index": 226}, "uniqueid": "MTK2168:32SVAV9L3GGWY9IRKNEGNZUPIFA3AN", "dateTime": 1516821460073}, {"current_trial": 227, "trialdata": {"rt": [2477, 4269, 5521, 6534, 7323, 8937, 11249, 13216, 14019, 18527], "recwords": ["luggage", "suitcase", "airport", "bug", "wasp", "cod", "river", "drink", "soda", "mask"], "key_times": [1479, 1604, 1700, 1811, 1920, 2315, 2420, 2477, 2744, 2878, 3111, 3252, 3375, 3456, 3556, 3612, 3963, 4082, 4146, 4202, 4269, 4672, 4744, 4867, 4984, 5084, 5289, 5434, 5521, 6260, 6351, 6434, 6534, 6864, 6966, 7042, 7120, 7323, 8562, 8676, 8812, 8937, 10821, 10863, 11006, 11139, 11210, 11249, 12754, 12811, 12884, 12981, 13091, 13216, 13566, 13685, 13807, 13908, 14019, 17755, 17883, 17975, 18020, 18527], "trial_type": "free-recall", "conditions": [12, 800, "v", 24000], "internal_node_id": "0.0-164.0-0.0", "key_presses": [76, 85, 71, 71, 65, 71, 69, 13, 67, 85, 8, 8, 83, 85, 73, 84, 67, 65, 83, 69, 13, 65, 73, 82, 80, 79, 82, 84, 13, 66, 85, 71, 13, 87, 65, 83, 80, 13, 67, 79, 68, 13, 82, 73, 86, 69, 82, 13, 68, 82, 73, 78, 75, 13, 83, 79, 68, 65, 13, 77, 65, 83, 75, 13], "trial": 6, "time_elapsed": 1291012, "type": "FREE_RECALL", "trial_index": 227}, "uniqueid": "MTK2168:32SVAV9L3GGWY9IRKNEGNZUPIFA3AN", "dateTime": 1516821520089}, {"current_trial": 228, "trialdata": {"rt": 4374, "trial_type": "text", "internal_node_id": "0.0-165.0", "time_elapsed": 1297399, "key_press": 32, "type": "INSTRUCTIONS", "trial_index": 228}, "uniqueid": "MTK2168:32SVAV9L3GGWY9IRKNEGNZUPIFA3AN", "dateTime": 1516821526467}, {"current_trial": 229, "trialdata": {"rt": [2457, 4314, 5933, 8160, 10347, 11899, 14319, 16222, 17999, 20805, 22641, 23953], "trial_type": "math-distractor", "key_times": [2108, 2304, 2457, 4139, 4314, 5735, 5933, 7882, 7997, 8160, 10022, 10169, 10347, 11624, 11759, 11899, 13990, 14141, 14319, 15843, 16026, 16222, 17677, 17835, 17999, 20452, 20629, 20805, 22342, 22477, 22641, 23637, 23813, 23953], "responses": ["17", "7", "6", "25", "18", "11", "18", "16", "14", "20", "22", "12"], "num2": [9, 2, 3, 8, 3, 1, 7, 4, 3, 4, 5, 3, 3], "num3": [5, 3, 1, 8, 6, 8, 3, 4, 7, 7, 9, 7, 3], "conditions": [24, 800, "v", 24000], "internal_node_id": "0.0-166.0", "key_presses": [97, 103, 13, 103, 13, 102, 13, 98, 101, 13, 97, 104, 13, 97, 97, 13, 97, 104, 13, 97, 102, 13, 97, 100, 13, 98, 96, 13, 98, 98, 13, 97, 98, 13], "trial": 7, "time_elapsed": 1323405, "type": "DISTRACTOR", "trial_index": 229, "num1": [3, 2, 2, 9, 9, 2, 8, 8, 4, 9, 8, 2, 5]}, "uniqueid": "MTK2168:32SVAV9L3GGWY9IRKNEGNZUPIFA3AN", "dateTime": 1516821552473}, {"current_trial": 230, "trialdata": {"rt": -1, "trial_type": "single-stim", "stimulus": "<p id=\"stim\">10</p>", "internal_node_id": "0.0-167.0-0.0", "time_elapsed": 1326409, "key_press": -1, "trial_index": 230}, "uniqueid": "MTK2168:32SVAV9L3GGWY9IRKNEGNZUPIFA3AN", "dateTime": 1516821555477}, {"current_trial": 231, "trialdata": {"rt": -1, "trial_type": "single-stim", "stimulus": "<p id=\"stim\">9</p>", "internal_node_id": "0.0-167.0-1.0", "time_elapsed": 1327411, "key_press": -1, "trial_index": 231}, "uniqueid": "MTK2168:32SVAV9L3GGWY9IRKNEGNZUPIFA3AN", "dateTime": 1516821556479}, {"current_trial": 232, "trialdata": {"rt": -1, "trial_type": "single-stim", "stimulus": "<p id=\"stim\">8</p>", "internal_node_id": "0.0-167.0-2.0", "time_elapsed": 1328414, "key_press": -1, "trial_index": 232}, "uniqueid": "MTK2168:32SVAV9L3GGWY9IRKNEGNZUPIFA3AN", "dateTime": 1516821557482}, {"current_trial": 233, "trialdata": {"rt": -1, "trial_type": "single-stim", "stimulus": "<p id=\"stim\">7</p>", "internal_node_id": "0.0-167.0-3.0", "time_elapsed": 1329418, "key_press": -1, "trial_index": 233}, "uniqueid": "MTK2168:32SVAV9L3GGWY9IRKNEGNZUPIFA3AN", "dateTime": 1516821558487}, {"current_trial": 234, "trialdata": {"rt": -1, "trial_type": "single-stim", "stimulus": "<p id=\"stim\">6</p>", "internal_node_id": "0.0-167.0-4.0", "time_elapsed": 1330421, "key_press": -1, "trial_index": 234}, "uniqueid": "MTK2168:32SVAV9L3GGWY9IRKNEGNZUPIFA3AN", "dateTime": 1516821559489}, {"current_trial": 235, "trialdata": {"rt": -1, "trial_type": "single-stim", "stimulus": "<p id=\"stim\">5</p>", "internal_node_id": "0.0-167.0-5.0", "time_elapsed": 1331423, "key_press": -1, "trial_index": 235}, "uniqueid": "MTK2168:32SVAV9L3GGWY9IRKNEGNZUPIFA3AN", "dateTime": 1516821560491}, {"current_trial": 236, "trialdata": {"rt": -1, "trial_type": "single-stim", "stimulus": "<p id=\"stim\">4</p>", "internal_node_id": "0.0-167.0-6.0", "time_elapsed": 1332426, "key_press": -1, "trial_index": 236}, "uniqueid": "MTK2168:32SVAV9L3GGWY9IRKNEGNZUPIFA3AN", "dateTime": 1516821561494}, {"current_trial": 237, "trialdata": {"rt": -1, "trial_type": "single-stim", "stimulus": "<p id=\"stim\">3</p>", "internal_node_id": "0.0-167.0-7.0", "time_elapsed": 1333428, "key_press": -1, "trial_index": 237}, "uniqueid": "MTK2168:32SVAV9L3GGWY9IRKNEGNZUPIFA3AN", "dateTime": 1516821562496}, {"current_trial": 238, "trialdata": {"rt": -1, "trial_type": "single-stim", "stimulus": "<p id=\"stim\">2</p>", "internal_node_id": "0.0-167.0-8.0", "time_elapsed": 1334430, "key_press": -1, "trial_index": 238}, "uniqueid": "MTK2168:32SVAV9L3GGWY9IRKNEGNZUPIFA3AN", "dateTime": 1516821563499}, {"current_trial": 239, "trialdata": {"rt": -1, "trial_type": "single-stim", "stimulus": "<p id=\"stim\">1</p>", "internal_node_id": "0.0-167.0-9.0", "time_elapsed": 1335432, "key_press": -1, "trial_index": 239}, "uniqueid": "MTK2168:32SVAV9L3GGWY9IRKNEGNZUPIFA3AN", "dateTime": 1516821564501}, {"current_trial": 240, "trialdata": {"rt": -1, "trial_type": "single-stim", "stimulus": "<p id=\"stim\">+</p>", "internal_node_id": "0.0-168.0-0.0", "time_elapsed": 1336950, "key_press": -1, "type": "FIXATION", "trial_index": 240}, "uniqueid": "MTK2168:32SVAV9L3GGWY9IRKNEGNZUPIFA3AN", "dateTime": 1516821566018}, {"current_trial": 241, "trialdata": {"rt": -1, "trial_type": "single-stim", "word": "world", "stimulus": "<p id=\"stim\">WORLD</p>", "conditions": [24, 800, "v", 24000], "internal_node_id": "0.0-169.0", "trial": 7, "time_elapsed": 1337752, "serialpos": 0, "key_press": -1, "wordID": 1621, "type": "PRES_VIS", "trial_index": 241}, "uniqueid": "MTK2168:32SVAV9L3GGWY9IRKNEGNZUPIFA3AN", "dateTime": 1516821566820}, {"current_trial": 242, "trialdata": {"rt": -1, "trial_type": "single-stim", "word": "turkey", "stimulus": "<p id=\"stim\">TURKEY</p>", "conditions": [24, 800, "v", 24000], "internal_node_id": "0.0-170.0", "trial": 7, "time_elapsed": 1339583, "serialpos": 1, "key_press": -1, "wordID": 1519, "type": "PRES_VIS", "trial_index": 242}, "uniqueid": "MTK2168:32SVAV9L3GGWY9IRKNEGNZUPIFA3AN", "dateTime": 1516821568652}, {"current_trial": 243, "trialdata": {"rt": -1, "trial_type": "single-stim", "word": "island", "stimulus": "<p id=\"stim\">ISLAND</p>", "conditions": [24, 800, "v", 24000], "internal_node_id": "0.0-171.0", "trial": 7, "time_elapsed": 1341332, "serialpos": 2, "key_press": -1, "wordID": 744, "type": "PRES_VIS", "trial_index": 243}, "uniqueid": "MTK2168:32SVAV9L3GGWY9IRKNEGNZUPIFA3AN", "dateTime": 1516821570401}, {"current_trial": 244, "trialdata": {"rt": -1, "trial_type": "single-stim", "word": "headband", "stimulus": "<p id=\"stim\">HEADBAND</p>", "conditions": [24, 800, "v", 24000], "internal_node_id": "0.0-172.0", "trial": 7, "time_elapsed": 1343255, "serialpos": 3, "key_press": -1, "wordID": 695, "type": "PRES_VIS", "trial_index": 244}, "uniqueid": "MTK2168:32SVAV9L3GGWY9IRKNEGNZUPIFA3AN", "dateTime": 1516821572323}, {"current_trial": 245, "trialdata": {"rt": -1, "trial_type": "single-stim", "word": "shirt", "stimulus": "<p id=\"stim\">SHIRT</p>", "conditions": [24, 800, "v", 24000], "internal_node_id": "0.0-173.0", "trial": 7, "time_elapsed": 1344927, "serialpos": 4, "key_press": -1, "wordID": 1286, "type": "PRES_VIS", "trial_index": 245}, "uniqueid": "MTK2168:32SVAV9L3GGWY9IRKNEGNZUPIFA3AN", "dateTime": 1516821573996}, {"current_trial": 246, "trialdata": {"rt": -1, "trial_type": "single-stim", "word": "judge", "stimulus": "<p id=\"stim\">JUDGE</p>", "conditions": [24, 800, "v", 24000], "internal_node_id": "0.0-174.0", "trial": 7, "time_elapsed": 1346746, "serialpos": 5, "key_press": -1, "wordID": 760, "type": "PRES_VIS", "trial_index": 246}, "uniqueid": "MTK2168:32SVAV9L3GGWY9IRKNEGNZUPIFA3AN", "dateTime": 1516821575819}, {"current_trial": 247, "trialdata": {"rt": -1, "trial_type": "single-stim", "word": "police", "stimulus": "<p id=\"stim\">POLICE</p>", "conditions": [24, 800, "v", 24000], "internal_node_id": "0.0-175.0", "trial": 7, "time_elapsed": 1348393, "serialpos": 6, "key_press": -1, "wordID": 1097, "type": "PRES_VIS", "trial_index": 247}, "uniqueid": "MTK2