{"assignmentId": "3JMSRU9HQJ1J0V1MK2M82DCZVJLEVL", "workerId": "MTK2256", "questiondata": {"avail_screen_height": 1040, "color_depth": 24, "screen_width": 1920, "pixel_depth": 24, "avail_screen_width": 1920, "screen_height": 1080}, "bonus": 0, "hitId": "3NCN4N1H1GO6Y3IZIITP24GHNR4BNL", "counterbalance": 372, "useragent": "Mozilla/5.0 (Windows NT 10.0; Win64; x64) AppleWebKit/537.36 (KHTML, like Gecko) Chrome/58.0.3029.110 Safari/537.36 Edge/16.16299", "eventdata": [{"eventtype": "initialized", "interval": 0, "value": null, "timestamp": 1516905972483}, {"eventtype": "window_resize", "interval": 0, "value": [1920, 963], "timestamp": 1516905972483}, {"eventtype": "focus", "interval": 216, "value": "on", "timestamp": 1516905972699}, {"eventtype": "focus", "interval": 1647624, "value": "off", "timestamp": 1516907620323}, {"eventtype": "focus", "interval": 733, "value": "on", "timestamp": 1516907621056}, {"eventtype": "focus", "interval": 460265, "value": "off", "timestamp": 1516908081321}, {"eventtype": "focus", "interval": 39023, "value": "on", "timestamp": 1516908120344}], "data": [{"current_trial": 0, "trialdata": {"rt": 1864, "trial_type": "text", "internal_node_id": "0.0-0.0", "time_elapsed": 1869, "key_press": 32, "type": "INSTRUCTIONS", "trial_index": 0}, "uniqueid": "MTK2256:3JMSRU9HQJ1J0V1MK2M82DCZVJLEVL", "dateTime": 1516905974845}, {"current_trial": 1, "trialdata": {"rt": 26913, "trial_type": "text", "internal_node_id": "0.0-1.0", "time_elapsed": 28786, "key_press": 32, "type": "INSTRUCTIONS", "trial_index": 1}, "uniqueid": "MTK2256:3JMSRU9HQJ1J0V1MK2M82DCZVJLEVL", "dateTime": 1516906001760}, {"current_trial": 2, "trialdata": {"rt": [9222], "trial_type": "audio-test", "responses": ["ocean"], "internal_node_id": "0.0-2.0", "time_elapsed": 38038, "type": "AUDIO_TEST", "trial_index": 2}, "uniqueid": "MTK2256:3JMSRU9HQJ1J0V1MK2M82DCZVJLEVL", "dateTime": 1516906011011}, {"current_trial": 3, "trialdata": {"rt": [5748], "trial_type": "audio-test", "responses": ["crystal"], "internal_node_id": "0.0-3.0", "time_elapsed": 43791, "type": "AUDIO_TEST", "trial_index": 3}, "uniqueid": "MTK2256:3JMSRU9HQJ1J0V1MK2M82DCZVJLEVL", "dateTime": 1516906016764}, {"current_trial": 4, "trialdata": {"rt": [5837], "trial_type": "audio-test", "responses": ["spice"], "internal_node_id": "0.0-4.0", "time_elapsed": 49634, "type": "AUDIO_TEST", "trial_index": 4}, "uniqueid": "MTK2256:3JMSRU9HQJ1J0V1MK2M82DCZVJLEVL", "dateTime": 1516906022607}, {"current_trial": 5, "trialdata": {"rt": 24092, "trial_type": "survey-text", "responses": "{\"Q0\":\"10\",\"Q1\":\"8\",\"Q2\":\"5\"}", "internal_node_id": "0.0-5.0", "time_elapsed": 74516, "type": "SLEEP_SURVEY", "trial_index": 5}, "uniqueid": "MTK2256:3JMSRU9HQJ1J0V1MK2M82DCZVJLEVL", "dateTime": 1516906047489}, {"current_trial": 6, "trialdata": {"rt": 59255, "trial_type": "text", "internal_node_id": "0.0-6.0", "time_elapsed": 134780, "key_press": 32, "type": "INSTRUCTIONS", "trial_index": 6}, "uniqueid": "MTK2256:3JMSRU9HQJ1J0V1MK2M82DCZVJLEVL", "dateTime": 1516906107753}, {"current_trial": 7, "trialdata": {"rt": 36299, "trial_type": "text", "internal_node_id": "0.0-7.0", "time_elapsed": 171601, "key_press": 32, "type": "INSTRUCTIONS", "trial_index": 7}, "uniqueid": "MTK2256:3JMSRU9HQJ1J0V1MK2M82DCZVJLEVL", "dateTime": 1516906144574}, {"current_trial": 8, "trialdata": {"rt": 140031, "trial_type": "text", "internal_node_id": "0.0-8.0", "time_elapsed": 312155, "key_press": 32, "type": "INSTRUCTIONS", "trial_index": 8}, "uniqueid": "MTK2256:3JMSRU9HQJ1J0V1MK2M82DCZVJLEVL", "dateTime": 1516906285128}, {"current_trial": 9, "trialdata": {"rt": [3685, 6593, 9566, 15605], "trial_type": "math-distractor", "key_times": [3067, 3229, 3685, 6054, 6248, 6593, 9125, 9276, 9566, 14930, 15266, 15605], "responses": ["10", "12", "10", "16"], "num2": [1, 2, 4, 6, 7], "num3": [8, 3, 5, 9, 5], "conditions": [18, 1200, "v", 18000], "internal_node_id": "0.0-9.0", "key_presses": [49, 48, 13, 49, 50, 13, 49, 48, 13, 49, 54, 13], "trial": 0, "time_elapsed": 331199, "type": "DISTRACTOR", "trial_index": 9, "num1": [1, 7, 1, 1, 2]}, "uniqueid": "MTK2256:3JMSRU9HQJ1J0V1MK2M82DCZVJLEVL", "dateTime": 1516906304172}, {"current_trial": 10, "trialdata": {"rt": -1, "trial_type": "single-stim", "stimulus": "<p id=\"stim\">10</p>", "internal_node_id": "0.0-10.0-0.0", "time_elapsed": 334238, "key_press": -1, "trial_index": 10}, "uniqueid": "MTK2256:3JMSRU9HQJ1J0V1MK2M82DCZVJLEVL", "dateTime": 1516906307212}, {"current_trial": 11, "trialdata": {"rt": -1, "trial_type": "single-stim", "stimulus": "<p id=\"stim\">9</p>", "internal_node_id": "0.0-10.0-1.0", "time_elapsed": 335239, "key_press": -1, "trial_index": 11}, "uniqueid": "MTK2256:3JMSRU9HQJ1J0V1MK2M82DCZVJLEVL", "dateTime": 1516906308212}, {"current_trial": 12, "trialdata": {"rt": -1, "trial_type": "single-stim", "stimulus": "<p id=\"stim\">8</p>", "internal_node_id": "0.0-10.0-2.0", "time_elapsed": 336238, "key_press": -1, "trial_index": 12}, "uniqueid": "MTK2256:3JMSRU9HQJ1J0V1MK2M82DCZVJLEVL", "dateTime": 1516906309211}, {"current_trial": 13, "trialdata": {"rt": -1, "trial_type": "single-stim", "stimulus": "<p id=\"stim\">7</p>", "internal_node_id": "0.0-10.0-3.0", "time_elapsed": 337232, "key_press": -1, "trial_index": 13}, "uniqueid": "MTK2256:3JMSRU9HQJ1J0V1MK2M82DCZVJLEVL", "dateTime": 1516906310205}, {"current_trial": 14, "trialdata": {"rt": -1, "trial_type": "single-stim", "stimulus": "<p id=\"stim\">6</p>", "internal_node_id": "0.0-10.0-4.0", "time_elapsed": 338234, "key_press": -1, "trial_index": 14}, "uniqueid": "MTK2256:3JMSRU9HQJ1J0V1MK2M82DCZVJLEVL", "dateTime": 1516906311208}, {"current_trial": 15, "trialdata": {"rt": -1, "trial_type": "single-stim", "stimulus": "<p id=\"stim\">5</p>", "internal_node_id": "0.0-10.0-5.0", "time_elapsed": 339238, "key_press": -1, "trial_index": 15}, "uniqueid": "MTK2256:3JMSRU9HQJ1J0V1MK2M82DCZVJLEVL", "dateTime": 1516906312211}, {"current_trial": 16, "trialdata": {"rt": -1, "trial_type": "single-stim", "stimulus": "<p id=\"stim\">4</p>", "internal_node_id": "0.0-10.0-6.0", "time_elapsed": 340242, "key_press": -1, "trial_index": 16}, "uniqueid": "MTK2256:3JMSRU9HQJ1J0V1MK2M82DCZVJLEVL", "dateTime": 1516906313215}, {"current_trial": 17, "trialdata": {"rt": -1, "trial_type": "single-stim", "stimulus": "<p id=\"stim\">3</p>", "internal_node_id": "0.0-10.0-7.0", "time_elapsed": 341243, "key_press": -1, "trial_index": 17}, "uniqueid": "MTK2256:3JMSRU9HQJ1J0V1MK2M82DCZVJLEVL", "dateTime": 1516906314216}, {"current_trial": 18, "trialdata": {"rt": -1, "trial_type": "single-stim", "stimulus": "<p id=\"stim\">2</p>", "internal_node_id": "0.0-10.0-8.0", "time_elapsed": 342229, "key_press": -1, "trial_index": 18}, "uniqueid": "MTK2256:3JMSRU9HQJ1J0V1MK2M82DCZVJLEVL", "dateTime": 1516906315202}, {"current_trial": 19, "trialdata": {"rt": -1, "trial_type": "single-stim", "stimulus": "<p id=\"stim\">1</p>", "internal_node_id": "0.0-10.0-9.0", "time_elapsed": 343239, "key_press": -1, "trial_index": 19}, "uniqueid": "MTK2256:3JMSRU9HQJ1J0V1MK2M82DCZVJLEVL", "dateTime": 1516906316212}, {"current_trial": 20, "trialdata": {"rt": -1, "trial_type": "single-stim", "stimulus": "<p id=\"stim\">+</p>", "internal_node_id": "0.0-11.0-0.0", "time_elapsed": 344755, "key_press": -1, "type": "FIXATION", "trial_index": 20}, "uniqueid": "MTK2256:3JMSRU9HQJ1J0V1MK2M82DCZVJLEVL", "dateTime": 1516906317729}, {"current_trial": 21, "trialdata": {"rt": -1, "trial_type": "single-stim", "word": "paper", "stimulus": "<p id=\"stim\">PAPER</p>", "conditions": [18, 1200, "v", 18000], "internal_node_id": "0.0-12.0", "trial": 0, "time_elapsed": 345972, "serialpos": 0, "key_press": -1, "wordID": 1010, "type": "PRES_VIS", "trial_index": 21}, "uniqueid": "MTK2256:3JMSRU9HQJ1J0V1MK2M82DCZVJLEVL", "dateTime": 1516906318945}, {"current_trial": 22, "trialdata": {"rt": -1, "trial_type": "single-stim", "word": "fiddle", "stimulus": "<p id=\"stim\">FIDDLE</p>", "conditions": [18, 1200, "v", 18000], "internal_node_id": "0.0-13.0", "trial": 0, "time_elapsed": 348246, "serialpos": 1, "key_press": -1, "wordID": 560, "type": "PRES_VIS", "trial_index": 22}, "uniqueid": "MTK2256:3JMSRU9HQJ1J0V1MK2M82DCZVJLEVL", "dateTime": 1516906321220}, {"current_trial": 23, "trialdata": {"rt": -1, "trial_type": "single-stim", "word": "baby", "stimulus": "<p id=\"stim\">BABY</p>", "conditions": [18, 1200, "v", 18000], "internal_node_id": "0.0-14.0", "trial": 0, "time_elapsed": 350523, "serialpos": 2, "key_press": -1, "wordID": 63, "type": "PRES_VIS", "trial_index": 23}, "uniqueid": "MTK2256:3JMSRU9HQJ1J0V1MK2M82DCZVJLEVL", "dateTime": 1516906323497}, {"current_trial": 24, "trialdata": {"rt": -1, "trial_type": "single-stim", "word": "survey", "stimulus": "<p id=\"stim\">SURVEY</p>", "conditions": [18, 1200, "v", 18000], "internal_node_id": "0.0-15.0", "trial": 0, "time_elapsed": 352739, "serialpos": 3, "key_press": -1, "wordID": 1413, "type": "PRES_VIS", "trial_index": 24}, "uniqueid": "MTK2256:3JMSRU9HQJ1J0V1MK2M82DCZVJLEVL", "dateTime": 1516906325712}, {"current_trial": 25, "trialdata": {"rt": -1, "trial_type": "single-stim", "word": "college", "stimulus": "<p id=\"stim\">COLLEGE</p>", "conditions": [18, 1200, "v", 18000], "internal_node_id": "0.0-16.0", "trial": 0, "time_elapsed": 354899, "serialpos": 4, "key_press": -1, "wordID": 345, "type": "PRES_VIS", "trial_index": 25}, "uniqueid": "MTK2256:3JMSRU9HQJ1J0V1MK2M82DCZVJLEVL", "dateTime": 1516906327872}, {"current_trial": 26, "trialdata": {"rt": -1, "trial_type": "single-stim", "word": "body", "stimulus": "<p id=\"stim\">BODY</p>", "conditions": [18, 1200, "v", 18000], "internal_node_id": "0.0-17.0", "trial": 0, "time_elapsed": 357205, "serialpos": 5, "key_press": -1, "wordID": 144, "type": "PRES_VIS", "trial_index": 26}, "uniqueid": "MTK2256:3JMSRU9HQJ1J0V1MK2M82DCZVJLEVL", "dateTime": 1516906330179}, {"current_trial": 27, "trialdata": {"rt": -1, "trial_type": "single-stim", "word": "bureau", "stimulus": "<p id=\"stim\">BUREAU</p>", "conditions": [18, 1200, "v", 18000], "internal_node_id": "0.0-18.0", "trial": 0, "time_elapsed": 359380, "serialpos": 6, "key_press": -1, "wordID": 198, "type": "PRES_VIS", "trial_index": 27}, "uniqueid": "MTK2256:3JMSRU9HQJ1J0V1MK2M82DCZVJLEVL", "dateTime": 1516906332353}, {"current_trial": 28, "trialdata": {"rt": -1, "trial_type": "single-stim", "word": "plate", "stimulus": "<p id=\"stim\">PLATE</p>", "conditions": [18, 1200, "v", 18000], "internal_node_id": "0.0-19.0", "trial": 0, "time_elapsed": 361705, "serialpos": 7, "key_press": -1, "wordID": 1085, "type": "PRES_VIS", "trial_index": 28}, "uniqueid": "MTK2256:3JMSRU9HQJ1J0V1MK2M82DCZVJLEVL", "dateTime": 1516906334679}, {"current_trial": 29, "trialdata": {"rt": -1, "trial_type": "single-stim", "word": "stream", "stimulus": "<p id=\"stim\">STREAM</p>", "conditions": [18, 1200, "v", 18000], "internal_node_id": "0.0-20.0", "trial": 0, "time_elapsed": 363876, "serialpos": 8, "key_press": -1, "wordID": 1391, "type": "PRES_VIS", "trial_index": 29}, "uniqueid": "MTK2256:3JMSRU9HQJ1J0V1MK2M82DCZVJLEVL", "dateTime": 1516906336850}, {"current_trial": 30, "trialdata": {"rt": -1, "trial_type": "single-stim", "word": "dragon", "stimulus": "<p id=\"stim\">DRAGON</p>", "conditions": [18, 1200, "v", 18000], "internal_node_id": "0.0-21.0", "trial": 0, "time_elapsed": 366030, "serialpos": 9, "key_press": -1, "wordID": 491, "type": "PRES_VIS", "trial_index": 30}, "uniqueid": "MTK2256:3JMSRU9HQJ1J0V1MK2M82DCZVJLEVL", "dateTime": 1516906339004}, {"current_trial": 31, "trialdata": {"rt": -1, "trial_type": "single-stim", "word": "jury", "stimulus": "<p id=\"stim\">JURY</p>", "conditions": [18, 1200, "v", 18000], "internal_node_id": "0.0-22.0", "trial": 0, "time_elapsed": 368137, "serialpos": 10, "key_press": -1, "wordID": 765, "type": "PRES_VIS", "trial_index": 31}, "uniqueid": "MTK2256:3JMSRU9HQJ1J0V1MK2M82DCZVJLEVL", "dateTime": 1516906341110}, {"current_trial": 32, "trialdata": {"rt": -1, "trial_type": "single-stim", "word": "quarter", "stimulus": "<p id=\"stim\">QUARTER</p>", "conditions": [18, 1200, "v", 18000], "internal_node_id": "0.0-23.0", "trial": 0, "time_elapsed": 370298, "serialpos": 11, "key_press": -1, "wordID": 1147, "type": "PRES_VIS", "trial_index": 32}, "uniqueid": "MTK2256:3JMSRU9HQJ1J0V1MK2M82DCZVJLEVL", "dateTime": 1516906343271}, {"current_trial": 33, "trialdata": {"rt": -1, "trial_type": "single-stim", "word": "donor", "stimulus": "<p id=\"stim\">DONOR</p>", "conditions": [18, 1200, "v", 18000], "internal_node_id": "0.0-24.0", "trial": 0, "time_elapsed": 372534, "serialpos": 12, "key_press": -1, "wordID": 484, "type": "PRES_VIS", "trial_index": 33}, "uniqueid": "MTK2256:3JMSRU9HQJ1J0V1MK2M82DCZVJLEVL", "dateTime": 1516906345507}, {"current_trial": 34, "trialdata": {"rt": -1, "trial_type": "single-stim", "word": "bunny", "stimulus": "<p id=\"stim\">BUNNY</p>", "conditions": [18, 1200, "v", 18000], "internal_node_id": "0.0-25.0", "trial": 0, "time_elapsed": 374693, "serialpos": 13, "key_press": -1, "wordID": 197, "type": "PRES_VIS", "trial_index": 34}, "uniqueid": "MTK2256:3JMSRU9HQJ1J0V1MK2M82DCZVJLEVL", "dateTime": 1516906347667}, {"current_trial": 35, "trialdata": {"rt": -1, "trial_type": "single-stim", "word": "salt", "stimulus": "<p id=\"stim\">SALT</p>", "conditions": [18, 1200, "v", 18000], "internal_node_id": "0.0-26.0", "trial": 0, "time_elapsed": 376763, "serialpos": 14, "key_press": -1, "wordID": 1228, "type": "PRES_VIS", "trial_index": 35}, "uniqueid": "MTK2256:3JMSRU9HQJ1J0V1MK2M82DCZVJLEVL", "dateTime": 1516906349736}, {"current_trial": 36, "trialdata": {"rt": -1, "trial_type": "single-stim", "word": "cocktail", "stimulus": "<p id=\"stim\">COCKTAIL</p>", "conditions": [18, 1200, "v", 18000], "internal_node_id": "0.0-27.0", "trial": 0, "time_elapsed": 378869, "serialpos": 15, "key_press": -1, "wordID": 337, "type": "PRES_VIS", "trial_index": 36}, "uniqueid": "MTK2256:3JMSRU9HQJ1J0V1MK2M82DCZVJLEVL", "dateTime": 1516906351842}, {"current_trial": 37, "trialdata": {"rt": -1, "trial_type": "single-stim", "word": "kleenex", "stimulus": "<p id=\"stim\">KLEENEX</p>", "conditions": [18, 1200, "v", 18000], "internal_node_id": "0.0-28.0", "trial": 0, "time_elapsed": 381012, "serialpos": 16, "key_press": -1, "wordID": 781, "type": "PRES_VIS", "trial_index": 37}, "uniqueid": "MTK2256:3JMSRU9HQJ1J0V1MK2M82DCZVJLEVL", "dateTime": 1516906353985}, {"current_trial": 38, "trialdata": {"rt": -1, "trial_type": "single-stim", "word": "leader", "stimulus": "<p id=\"stim\">LEADER</p>", "conditions": [18, 1200, "v", 18000], "internal_node_id": "0.0-29.0", "trial": 0, "time_elapsed": 383081, "serialpos": 17, "key_press": -1, "wordID": 806, "type": "PRES_VIS", "trial_index": 38}, "uniqueid": "MTK2256:3JMSRU9HQJ1J0V1MK2M82DCZVJLEVL", "dateTime": 1516906356055}, {"current_trial": 39, "trialdata": {"rt": -1, "trial_type": "single-stim", "stimulus": "", "internal_node_id": "0.0-30.0-0.0", "time_elapsed": 385241, "key_press": -1, "type": "PRE_RECALL_DELAY", "trial_index": 39}, "uniqueid": "MTK2256:3JMSRU9HQJ1J0V1MK2M82DCZVJLEVL", "dateTime": 1516906358215}, {"current_trial": 40, "trialdata": {"rt": -1000, "trial_type": "single-audio", "stimulus": "/static/audio/400Hz.wav", "internal_node_id": "0.0-31.0", "time_elapsed": 385817, "key_press": -1, "type": "PRE_RECALL_ALERT", "trial_index": 40}, "uniqueid": "MTK2256:3JMSRU9HQJ1J0V1MK2M82DCZVJLEVL", "dateTime": 1516906358790}, {"current_trial": 41, "trialdata": {"rt": [3071, 5428, 7888, 11241, 14692, 23568, 24993, 47750], "recwords": ["paper", "fondle", "dragon", "kleenex", "", "", "", "leader"], "key_times": [1741, 1908, 2024, 2216, 2385, 3071, 4104, 4369, 4618, 4864, 5030, 5188, 5428, 6178, 6374, 6576, 6732, 6946, 7157, 7888, 8644, 8864, 9238, 9451, 9923, 10176, 10417, 11241, 14692, 21767, 22124, 23568, 24993, 46280, 46567, 46816, 47025, 47202, 47393, 47750], "trial_type": "free-recall", "conditions": [18, 1200, "v", 18000], "internal_node_id": "0.0-32.0-0.0", "key_presses": [80, 65, 80, 69, 82, 13, 70, 79, 78, 68, 76, 69, 13, 68, 82, 65, 71, 79, 78, 13, 75, 76, 69, 69, 78, 69, 88, 13, 13, 40, 38, 32, 188, 76, 69, 65, 68, 69, 82, 13], "trial": 0, "time_elapsed": 445840, "type": "FREE_RECALL", "trial_index": 41}, "uniqueid": "MTK2256:3JMSRU9HQJ1J0V1MK2M82DCZVJLEVL", "dateTime": 1516906418821}, {"current_trial": 42, "trialdata": {"rt": 2528, "trial_type": "text", "internal_node_id": "0.0-33.0", "time_elapsed": 450402, "key_press": 32, "type": "INSTRUCTIONS", "trial_index": 42}, "uniqueid": "MTK2256:3JMSRU9HQJ1J0V1MK2M82DCZVJLEVL", "dateTime": 1516906423376}, {"current_trial": 43, "trialdata": {"rt": [3471, 7283, 10850], "trial_type": "math-distractor", "key_times": [3131, 3471, 6884, 7127, 7283, 10517, 10706, 10850, 17835], "responses": ["8", "14", "14"], "num2": [2, 8, 6, 2], "num3": [1, 1, 3, 7], "conditions": [18, 1200, "v", 18000], "internal_node_id": "0.0-34.0", "key_presses": [56, 13, 49, 52, 13, 49, 52, 13, 49], "trial": 1, "time_elapsed": 470440, "type": "DISTRACTOR", "trial_index": 43, "num1": [5, 5, 5, 8]}, "uniqueid": "MTK2256:3JMSRU9HQJ1J0V1MK2M82DCZVJLEVL", "dateTime": 1516906443414}, {"current_trial": 44, "trialdata": {"rt": -1, "trial_type": "single-stim", "stimulus": "<p id=\"stim\">10</p>", "internal_node_id": "0.0-35.0-0.0", "time_elapsed": 473479, "key_press": -1, "trial_index": 44}, "uniqueid": "MTK2256:3JMSRU9HQJ1J0V1MK2M82DCZVJLEVL", "dateTime": 1516906446452}, {"current_trial": 45, "trialdata": {"rt": -1, "trial_type": "single-stim", "stimulus": "<p id=\"stim\">9</p>", "internal_node_id": "0.0-35.0-1.0", "time_elapsed": 474474, "key_press": -1, "trial_index": 45}, "uniqueid": "MTK2256:3JMSRU9HQJ1J0V1MK2M82DCZVJLEVL", "dateTime": 1516906447447}, {"current_trial": 46, "trialdata": {"rt": -1, "trial_type": "single-stim", "stimulus": "<p id=\"stim\">8</p>", "internal_node_id": "0.0-35.0-2.0", "time_elapsed": 475479, "key_press": -1, "trial_index": 46}, "uniqueid": "MTK2256:3JMSRU9HQJ1J0V1MK2M82DCZVJLEVL", "dateTime": 1516906448452}, {"current_trial": 47, "trialdata": {"rt": -1, "trial_type": "single-stim", "stimulus": "<p id=\"stim\">7</p>", "internal_node_id": "0.0-35.0-3.0", "time_elapsed": 476471, "key_press": -1, "trial_index": 47}, "uniqueid": "MTK2256:3JMSRU9HQJ1J0V1MK2M82DCZVJLEVL", "dateTime": 1516906449445}, {"current_trial": 48, "trialdata": {"rt": -1, "trial_type": "single-stim", "stimulus": "<p id=\"stim\">6</p>", "internal_node_id": "0.0-35.0-4.0", "time_elapsed": 477480, "key_press": -1, "trial_index": 48}, "uniqueid": "MTK2256:3JMSRU9HQJ1J0V1MK2M82DCZVJLEVL", "dateTime": 1516906450453}, {"current_trial": 49, "trialdata": {"rt": -1, "trial_type": "single-stim", "stimulus": "<p id=\"stim\">5</p>", "internal_node_id": "0.0-35.0-5.0", "time_elapsed": 478486, "key_press": -1, "trial_index": 49}, "uniqueid": "MTK2256:3JMSRU9HQJ1J0V1MK2M82DCZVJLEVL", "dateTime": 1516906451459}, {"current_trial": 50, "trialdata": {"rt": -1, "trial_type": "single-stim", "stimulus": "<p id=\"stim\">4</p>", "internal_node_id": "0.0-35.0-6.0", "time_elapsed": 479478, "key_press": -1, "trial_index": 50}, "uniqueid": "MTK2256:3JMSRU9HQJ1J0V1MK2M82DCZVJLEVL", "dateTime": 1516906452451}, {"current_trial": 51, "trialdata": {"rt": -1, "trial_type": "single-stim", "stimulus": "<p id=\"stim\">3</p>", "internal_node_id": "0.0-35.0-7.0", "time_elapsed": 480485, "key_press": -1, "trial_index": 51}, "uniqueid": "MTK2256:3JMSRU9HQJ1J0V1MK2M82DCZVJLEVL", "dateTime": 1516906453459}, {"current_trial": 52, "trialdata": {"rt": -1, "trial_type": "single-stim", "stimulus": "<p id=\"stim\">2</p>", "internal_node_id": "0.0-35.0-8.0", "time_elapsed": 481473, "key_press": -1, "trial_index": 52}, "uniqueid": "MTK2256:3JMSRU9HQJ1J0V1MK2M82DCZVJLEVL", "dateTime": 1516906454446}, {"current_trial": 53, "trialdata": {"rt": -1, "trial_type": "single-stim", "stimulus": "<p id=\"stim\">1</p>", "internal_node_id": "0.0-35.0-9.0", "time_elapsed": 482487, "key_press": -1, "trial_index": 53}, "uniqueid": "MTK2256:3JMSRU9HQJ1J0V1MK2M82DCZVJLEVL", "dateTime": 1516906455460}, {"current_trial": 54, "trialdata": {"rt": -1, "trial_type": "single-stim", "stimulus": "<p id=\"stim\">+</p>", "internal_node_id": "0.0-36.0-0.0", "time_elapsed": 484005, "key_press": -1, "type": "FIXATION", "trial_index": 54}, "uniqueid": "MTK2256:3JMSRU9HQJ1J0V1MK2M82DCZVJLEVL", "dateTime": 1516906456978}, {"current_trial": 55, "trialdata": {"rt": -1, "trial_type": "single-stim", "word": "maple", "stimulus": "<p id=\"stim\">MAPLE</p>", "conditions": [18, 1200, "v", 18000], "internal_node_id": "0.0-37.0", "trial": 1, "time_elapsed": 485223, "serialpos": 0, "key_press": -1, "wordID": 865, "type": "PRES_VIS", "trial_index": 55}, "uniqueid": "MTK2256:3JMSRU9HQJ1J0V1MK2M82DCZVJLEVL", "dateTime": 1516906458196}, {"current_trial": 56, "trialdata": {"rt": -1, "trial_type": "single-stim", "word": "tombstone", "stimulus": "<p id=\"stim\">TOMBSTONE</p>", "conditions": [18, 1200, "v", 18000], "internal_node_id": "0.0-38.0", "trial": 1, "time_elapsed": 487572, "serialpos": 1, "key_press": -1, "wordID": 1477, "type": "PRES_VIS", "trial_index": 56}, "uniqueid": "MTK2256:3JMSRU9HQJ1J0V1MK2M82DCZVJLEVL", "dateTime": 1516906460545}, {"current_trial": 57, "trialdata": {"rt": -1, "trial_type": "single-stim", "word": "country", "stimulus": "<p id=\"stim\">COUNTRY</p>", "conditions": [18, 1200, "v", 18000], "internal_node_id": "0.0-39.0", "trial": 1, "time_elapsed": 489848, "serialpos": 2, "key_press": -1, "wordID": 387, "type": "PRES_VIS", "trial_index": 57}, "uniqueid": "MTK2256:3JMSRU9HQJ1J0V1MK2M82DCZVJLEVL", "dateTime": 1516906462821}, {"current_trial": 58, "trialdata": {"rt": -1, "trial_type": "single-stim", "word": "infant", "stimulus": "<p id=\"stim\">INFANT</p>", "conditions": [18, 1200, "v", 18000], "internal_node_id": "0.0-40.0", "trial": 1, "time_elapsed": 492039, "serialpos": 3, "key_press": -1, "wordID": 736, "type": "PRES_VIS", "trial_index": 58}, "uniqueid": "MTK2256:3JMSRU9HQJ1J0V1MK2M82DCZVJLEVL", "dateTime": 1516906465012}, {"current_trial": 59, "trialdata": {"rt": -1, "trial_type": "single-stim", "word": "handbag", "stimulus": "<p id=\"stim\">HANDBAG</p>", "conditions": [18, 1200, "v", 18000], "internal_node_id": "0.0-41.0", "trial": 1, "time_elapsed": 494315, "serialpos": 4, "key_press": -1, "wordID": 683, "type": "PRES_VIS", "trial_index": 59}, "uniqueid": "MTK2256:3JMSRU9HQJ1J0V1MK2M82DCZVJLEVL", "dateTime": 1516906467288}, {"current_trial": 60, "trialdata": {"rt": -1, "trial_type": "single-stim", "word": "bullet", "stimulus": "<p id=\"stim\">BULLET</p>", "conditions": [18, 1200, "v", 18000], "internal_node_id": "0.0-42.0", "trial": 1, "time_elapsed": 496531, "serialpos": 5, "key_press": -1, "wordID": 193, "type": "PRES_VIS", "trial_index": 60}, "uniqueid": "MTK2256:3JMSRU9HQJ1J0V1MK2M82DCZVJLEVL", "dateTime": 1516906469505}, {"current_trial": 61, "trialdata": {"rt": -1, "trial_type": "single-stim", "word": "tart", "stimulus": "<p id=\"stim\">TART</p>", "conditions": [18, 1200, "v", 18000], "internal_node_id": "0.0-43.0", "trial": 1, "time_elapsed": 498719, "serialpos": 6, "key_press": -1, "wordID": 1435, "type": "PRES_VIS", "trial_index": 61}, "uniqueid": "MTK2256:3JMSRU9HQJ1J0V1MK2M82DCZVJLEVL", "dateTime": 1516906471692}, {"current_trial": 62, "trialdata": {"rt": -1, "trial_type": "single-stim", "word": "backbone", "stimulus": "<p id=\"stim\">BACKBONE</p>", "conditions": [18, 1200, "v", 18000], "internal_node_id": "0.0-44.0", "trial": 1, "time_elapsed": 500964, "serialpos": 7, "key_press": -1, "wordID": 65, "type": "PRES_VIS", "trial_index": 62}, "uniqueid": "MTK2256:3JMSRU9HQJ1J0V1MK2M82DCZVJLEVL", "dateTime": 1516906473937}, {"current_trial": 63, "trialdata": {"rt": -1, "trial_type": "single-stim", "word": "bacon", "stimulus": "<p id=\"stim\">BACON</p>", "conditions": [18, 1200, "v", 18000], "internal_node_id": "0.0-45.0", "trial": 1, "time_elapsed": 503352, "serialpos": 8, "key_press": -1, "wordID": 66, "type": "PRES_VIS", "trial_index": 63}, "uniqueid": "MTK2256:3JMSRU9HQJ1J0V1MK2M82DCZVJLEVL", "dateTime": 1516906476325}, {"current_trial": 64, "trialdata": {"rt": -1, "trial_type": "single-stim", "word": "basement", "stimulus": "<p id=\"stim\">BASEMENT</p>", "conditions": [18, 1200, "v", 18000], "internal_node_id": "0.0-46.0", "trial": 1, "time_elapsed": 505569, "serialpos": 9, "key_press": -1, "wordID": 93, "type": "PRES_VIS", "trial_index": 64}, "uniqueid": "MTK2256:3JMSRU9HQJ1J0V1MK2M82DCZVJLEVL", "dateTime": 1516906478543}, {"current_trial": 65, "trialdata": {"rt": -1, "trial_type": "single-stim", "word": "rebel", "stimulus": "<p id=\"stim\">REBEL</p>", "conditions": [18, 1200, "v", 18000], "internal_node_id": "0.0-47.0", "trial": 1, "time_elapsed": 507924, "serialpos": 10, "key_press": -1, "wordID": 1171, "type": "PRES_VIS", "trial_index": 65}, "uniqueid": "MTK2256:3JMSRU9HQJ1J0V1MK2M82DCZVJLEVL", "dateTime": 1516906480897}, {"current_trial": 66, "trialdata": {"rt": -1, "trial_type": "single-stim", "word": "mailman", "stimulus": "<p id=\"stim\">MAILMAN</p>", "conditions": [18, 1200, "v", 18000], "internal_node_id": "0.0-48.0", "trial": 1, "time_elapsed": 510296, "serialpos": 11, "key_press": -1, "wordID": 857, "type": "PRES_VIS", "trial_index": 66}, "uniqueid": "MTK2256:3JMSRU9HQJ1J0V1MK2M82DCZVJLEVL", "dateTime": 1516906483269}, {"current_trial": 67, "trialdata": {"rt": -1, "trial_type": "single-stim", "word": "fox", "stimulus": "<p id=\"stim\">FOX</p>", "conditions": [18, 1200, "v", 18000], "internal_node_id": "0.0-49.0", "trial": 1, "time_elapsed": 512451, "serialpos": 12, "key_press": -1, "wordID": 597, "type": "PRES_VIS", "trial_index": 67}, "uniqueid": "MTK2256:3JMSRU9HQJ1J0V1MK2M82DCZVJLEVL", "dateTime": 1516906485424}, {"current_trial": 68, "trialdata": {"rt": -1, "trial_type": "single-stim", "word": "shoulder", "stimulus": "<p id=\"stim\">SHOULDER</p>", "conditions": [18, 1200, "v", 18000], "internal_node_id": "0.0-50.0", "trial": 1, "time_elapsed": 514761, "serialpos": 13, "key_press": -1, "wordID": 1293, "type": "PRES_VIS", "trial_index": 68}, "uniqueid": "MTK2256:3JMSRU9HQJ1J0V1MK2M82DCZVJLEVL", "dateTime": 1516906487734}, {"current_trial": 69, "trialdata": {"rt": -1, "trial_type": "single-stim", "word": "temple", "stimulus": "<p id=\"stim\">TEMPLE</p>", "conditions": [18, 1200, "v", 18000], "internal_node_id": "0.0-51.0", "trial": 1, "time_elapsed": 516899, "serialpos": 14, "key_press": -1, "wordID": 1447, "type": "PRES_VIS", "trial_index": 69}, "uniqueid": "MTK2256:3JMSRU9HQJ1J0V1MK2M82DCZVJLEVL", "dateTime": 1516906489873}, {"current_trial": 70, "trialdata": {"rt": -1, "trial_type": "single-stim", "word": "valve", "stimulus": "<p id=\"stim\">VALVE</p>", "conditions": [18, 1200, "v", 18000], "internal_node_id": "0.0-52.0", "trial": 1, "time_elapsed": 518978, "serialpos": 15, "key_press": -1, "wordID": 1545, "type": "PRES_VIS", "trial_index": 70}, "uniqueid": "MTK2256:3JMSRU9HQJ1J0V1MK2M82DCZVJLEVL", "dateTime": 1516906491951}, {"current_trial": 71, "trialdata": {"rt": -1, "trial_type": "single-stim", "word": "dress", "stimulus": "<p id=\"stim\">DRESS</p>", "conditions": [18, 1200, "v", 18000], "internal_node_id": "0.0-53.0", "trial": 1, "time_elapsed": 521054, "serialpos": 16, "key_press": -1, "wordID": 494, "type": "PRES_VIS", "trial_index": 71}, "uniqueid": "MTK2256:3JMSRU9HQJ1J0V1MK2M82DCZVJLEVL", "dateTime": 1516906494027}, {"current_trial": 72, "trialdata": {"rt": -1, "trial_type": "single-stim", "word": "lava", "stimulus": "<p id=\"stim\">LAVA</p>", "conditions": [18, 1200, "v", 18000], "internal_node_id": "0.0-54.0", "trial": 1, "time_elapsed": 523102, "serialpos": 17, "key_press": -1, "wordID": 803, "type": "PRES_VIS", "trial_index": 72}, "uniqueid": "MTK2256:3JMSRU9HQJ1J0V1MK2M82DCZVJLEVL", "dateTime": 1516906496075}, {"current_trial": 73, "trialdata": {"rt": -1, "trial_type": "single-stim", "stimulus": "", "internal_node_id": "0.0-55.0-0.0", "time_elapsed": 525380, "key_press": -1, "type": "PRE_RECALL_DELAY", "trial_index": 73}, "uniqueid": "MTK2256:3JMSRU9HQJ1J0V1MK2M82DCZVJLEVL", "dateTime": 1516906498353}, {"current_trial": 74, "trialdata": {"rt": -1000, "trial_type": "single-audio", "stimulus": "/static/audio/400Hz.wav", "internal_node_id": "0.0-56.0", "time_elapsed": 525905, "key_press": -1, "type": "PRE_RECALL_ALERT", "trial_index": 74}, "uniqueid": "MTK2256:3JMSRU9HQJ1J0V1MK2M82DCZVJLEVL", "dateTime": 1516906498878}, {"current_trial": 75, "trialdata": {"rt": [2734, 4377, 6931, 9326, 14242], "recwords": ["bacon", "fox", "shoulder", "valve", "maple"], "key_times": [1248, 1416, 1655, 1918, 2129, 2734, 3601, 3805, 4048, 4377, 4899, 5045, 5231, 5389, 5614, 5747, 5989, 6187, 6931, 7585, 7886, 8182, 8588, 8920, 9326, 13425, 13593, 13694, 13890, 14067, 14242], "trial_type": "free-recall", "conditions": [18, 1200, "v", 18000], "internal_node_id": "0.0-57.0-0.0", "key_presses": [66, 65, 67, 79, 78, 13, 70, 79, 88, 13, 83, 72, 79, 85, 76, 68, 69, 82, 13, 86, 65, 76, 86, 69, 13, 77, 65, 80, 76, 69, 13], "trial": 1, "time_elapsed": 585932, "type": "FREE_RECALL", "trial_index": 75}, "uniqueid": "MTK2256:3JMSRU9HQJ1J0V1MK2M82DCZVJLEVL", "dateTime": 1516906558912}, {"current_trial": 76, "trialdata": {"rt": 8659, "trial_type": "text", "internal_node_id": "0.0-58.0", "time_elapsed": 596615, "key_press": 39, "type": "INSTRUCTIONS", "trial_index": 76}, "uniqueid": "MTK2256:3JMSRU9HQJ1J0V1MK2M82DCZVJLEVL", "dateTime": 1516906569588}, {"current_trial": 77, "trialdata": {"rt": [3221, 5342, 8124, 11061, 14343, 23102], "trial_type": "math-distractor", "key_times": [2925, 3070, 3221, 4961, 5078, 5342, 7791, 7981, 8124, 10784, 10938, 11061, 14078, 14223, 14343, 22354, 22959, 23102], "responses": ["12", "10", "13", "13", "12", "19"], "num2": [1, 8, 4, 2, 1, 8, 9], "num3": [9, 1, 1, 5, 6, 2, 4], "conditions": [24, 800, "v", 24000], "internal_node_id": "0.0-59.0", "key_presses": [49, 50, 13, 49, 48, 13, 49, 51, 13, 49, 51, 13, 49, 50, 13, 49, 57, 13], "trial": 2, "time_elapsed": 621665, "type": "DISTRACTOR", "trial_index": 77, "num1": [2, 1, 8, 6, 5, 9, 3]}, "uniqueid": "MTK2256:3JMSRU9HQJ1J0V1MK2M82DCZVJLEVL", "dateTime": 1516906594638}, {"current_trial": 78, "trialdata": {"rt": -1, "trial_type": "single-stim", "stimulus": "<p id=\"stim\">10</p>", "internal_node_id": "0.0-60.0-0.0", "time_elapsed": 624717, "key_press": -1, "trial_index": 78}, "uniqueid": "MTK2256:3JMSRU9HQJ1J0V1MK2M82DCZVJLEVL", "dateTime": 1516906597691}, {"current_trial": 79, "trialdata": {"rt": -1, "trial_type": "single-stim", "stimulus": "<p id=\"stim\">9</p>", "internal_node_id": "0.0-60.0-1.0", "time_elapsed": 625712, "key_press": -1, "trial_index": 79}, "uniqueid": "MTK2256:3JMSRU9HQJ1J0V1MK2M82DCZVJLEVL", "dateTime": 1516906598685}, {"current_trial": 80, "trialdata": {"rt": -1, "trial_type": "single-stim", "stimulus": "<p id=\"stim\">8</p>", "internal_node_id": "0.0-60.0-2.0", "time_elapsed": 626718, "key_press": -1, "trial_index": 80}, "uniqueid": "MTK2256:3JMSRU9HQJ1J0V1MK2M82DCZVJLEVL", "dateTime": 1516906599691}, {"current_trial": 81, "trialdata": {"rt": -1, "trial_type": "single-stim", "stimulus": "<p id=\"stim\">7</p>", "internal_node_id": "0.0-60.0-3.0", "time_elapsed": 627707, "key_press": -1, "trial_index": 81}, "uniqueid": "MTK2256:3JMSRU9HQJ1J0V1MK2M82DCZVJLEVL", "dateTime": 1516906600680}, {"current_trial": 82, "trialdata": {"rt": -1, "trial_type": "single-stim", "stimulus": "<p id=\"stim\">6</p>", "internal_node_id": "0.0-60.0-4.0", "time_elapsed": 628716, "key_press": -1, "trial_index": 82}, "uniqueid": "MTK2256:3JMSRU9HQJ1J0V1MK2M82DCZVJLEVL", "dateTime": 1516906601690}, {"current_trial": 83, "trialdata": {"rt": -1, "trial_type": "single-stim", "stimulus": "<p id=\"stim\">5</p>", "internal_node_id": "0.0-60.0-5.0", "time_elapsed": 629708, "key_press": -1, "trial_index": 83}, "uniqueid": "MTK2256:3JMSRU9HQJ1J0V1MK2M82DCZVJLEVL", "dateTime": 1516906602682}, {"current_trial": 84, "trialdata": {"rt": -1, "trial_type": "single-stim", "stimulus": "<p id=\"stim\">4</p>", "internal_node_id": "0.0-60.0-6.0", "time_elapsed": 630717, "key_press": -1, "trial_index": 84}, "uniqueid": "MTK2256:3JMSRU9HQJ1J0V1MK2M82DCZVJLEVL", "dateTime": 1516906603690}, {"current_trial": 85, "trialdata": {"rt": -1, "trial_type": "single-stim", "stimulus": "<p id=\"stim\">3</p>", "internal_node_id": "0.0-60.0-7.0", "time_elapsed": 631709, "key_press": -1, "trial_index": 85}, "uniqueid": "MTK2256:3JMSRU9HQJ1J0V1MK2M82DCZVJLEVL", "dateTime": 1516906604683}, {"current_trial": 86, "trialdata": {"rt": -1, "trial_type": "single-stim", "stimulus": "<p id=\"stim\">2</p>", "internal_node_id": "0.0-60.0-8.0", "time_elapsed": 632717, "key_press": -1, "trial_index": 86}, "uniqueid": "MTK2256:3JMSRU9HQJ1J0V1MK2M82DCZVJLEVL", "dateTime": 1516906605690}, {"current_trial": 87, "trialdata": {"rt": -1, "trial_type": "single-stim", "stimulus": "<p id=\"stim\">1</p>", "internal_node_id": "0.0-60.0-9.0", "time_elapsed": 633709, "key_press": -1, "trial_index": 87}, "uniqueid": "MTK2256:3JMSRU9HQJ1J0V1MK2M82DCZVJLEVL", "dateTime": 1516906606682}, {"current_trial": 88, "trialdata": {"rt": -1, "trial_type": "single-stim", "stimulus": "<p id=\"stim\">+</p>", "internal_node_id": "0.0-61.0-0.0", "time_elapsed": 635227, "key_press": -1, "type": "FIXATION", "trial_index": 88}, "uniqueid": "MTK2256:3JMSRU9HQJ1J0V1MK2M82DCZVJLEVL", "dateTime": 1516906608200}, {"current_trial": 89, "trialdata": {"rt": -1, "trial_type": "single-stim", "word": "apple", "stimulus": "<p id=\"stim\">APPLE</p>", "conditions": [24, 800, "v", 24000], "internal_node_id": "0.0-62.0", "trial": 2, "time_elapsed": 636049, "serialpos": 0, "key_press": -1, "wordID": 32, "type": "PRES_VIS", "trial_index": 89}, "uniqueid": "MTK2256:3JMSRU9HQJ1J0V1MK2M82DCZVJLEVL", "dateTime": 1516906609023}, {"current_trial": 90, "trialdata": {"rt": -1, "trial_type": "single-stim", "word": "sparrow", "stimulus": "<p id=\"stim\">SPARROW</p>", "conditions": [24, 800, "v", 24000], "internal_node_id": "0.0-63.0", "trial": 2, "time_elapsed": 637895, "serialpos": 1, "key_press": -1, "wordID": 1346, "type": "PRES_VIS", "trial_index": 90}, "uniqueid": "MTK2256:3JMSRU9HQJ1J0V1MK2M82DCZVJLEVL", "dateTime": 1516906610868}, {"current_trial": 91, "trialdata": {"rt": -1, "trial_type": "single-stim", "word": "goblin", "stimulus": "<p id=\"stim\">GOBLIN</p>", "conditions": [24, 800, "v", 24000], "internal_node_id": "0.0-64.0", "trial": 2, "time_elapsed": 639640, "serialpos": 2, "key_press": -1, "wordID": 644, "type": "PRES_VIS", "trial_index": 91}, "uniqueid": "MTK2256:3JMSRU9HQJ1J0V1MK2M82DCZVJLEVL", "dateTime": 1516906612613}, {"current_trial": 92, "trialdata": {"rt": -1, "trial_type": "single-stim", "word": "sister", "stimulus": "<p id=\"stim\">SISTER</p>", "conditions": [24, 800, "v", 24000], "internal_node_id": "0.0-65.0", "trial": 2, "time_elapsed": 641616, "serialpos": 3, "key_press": -1, "wordID": 1311, "type": "PRES_VIS", "trial_index": 92}, "uniqueid": "MTK2256:3JMSRU9HQJ1J0V1MK2M82DCZVJLEVL", "dateTime": 1516906614590}, {"current_trial": 93, "trialdata": {"rt": -1, "trial_type": "single-stim", "word": "lizard", "stimulus": "<p id=\"stim\">LIZARD</p>", "conditions": [24, 800, "v", 24000], "internal_node_id": "0.0-66.0", "trial": 2, "time_elapsed": 643304, "serialpos": 4, "key_press": -1, "wordID": 833, "type": "PRES_VIS", "trial_index": 93}, "uniqueid": "MTK2256:3JMSRU9HQJ1J0V1MK2M82DCZVJLEVL", "dateTime": 1516906616277}, {"current_trial": 94, "trialdata": {"rt": -1, "trial_type": "single-stim", "word": "spider", "stimulus": "<p id=\"stim\">SPIDER</p>", "conditions": [24, 800, "v", 24000], "internal_node_id": "0.0-67.0", "trial": 2, "time_elapsed": 645086, "serialpos": 5, "key_press": -1, "wordID": 1350, "type": "PRES_VIS", "trial_index": 94}, "uniqueid": "MTK2256:3JMSRU9HQJ1J0V1MK2M82DCZVJLEVL", "dateTime": 1516906618060}, {"current_trial": 95, "trialdata": {"rt": -1, "trial_type": "single-stim", "word": "sculpture", "stimulus": "<p id=\"stim\">SCULPTURE</p>", "conditions": [24, 800, "v", 24000], "internal_node_id": "0.0-68.0", "trial": 2, "time_elapsed": 646772, "serialpos": 6, "key_press": -1, "wordID": 1257, "type": "PRES_VIS", "trial_index": 95}, "uniqueid": "MTK2256:3JMSRU9HQJ1J0V1MK2M82DCZVJLEVL", "dateTime": 1516906619746}, {"current_trial": 96, "trialdata": {"rt": -1, "trial_type": "single-stim", "word": "ointment", "stimulus": "<p id=\"stim\">OINTMENT</p>", "conditions": [24, 800, "v", 24000], "internal_node_id": "0.0-69.0", "trial": 2, "time_elapsed": 648608, "serialpos": 7, "key_press": -1, "wordID": 973, "type": "PRES_VIS", "trial_index": 96}, "uniqueid": "MTK2256:3JMSRU9HQJ1J0V1MK2M82DCZVJLEVL", "dateTime": 1516906621582}, {"current_trial": 97, "trialdata": {"rt": -1, "trial_type": "single-stim", "word": "cloud", "stimulus": "<p id=\"stim\">CLOUD</p>", "conditions": [24, 800, "v", 24000], "internal_node_id": "0.0-70.0", "trial": 2, "time_elapsed": 650591, "serialpos": 8, "key_press": -1, "wordID": 327, "type": "PRES_VIS", "trial_index": 97}, "uniqueid": "MTK2256:3JMSRU9HQJ1J0V1MK2M82DCZVJLEVL", "dateTime": 1516906623565}, {"current_trial": 98, "trialdata": {"rt": -1, "trial_type": "single-stim", "word": "pilot", "stimulus": "<p id=\"stim\">PILOT</p>", "conditions": [24, 800, "v", 24000], "internal_node_id": "0.0-71.0", "trial": 2, "time_elapsed": 652639, "serialpos": 9, "key_press": -1, "wordID": 1069, "type": "PRES_VIS", "trial_index": 98}, "uniqueid": "MTK2256:3JMSRU9HQJ1J0V1MK2M82DCZVJLEVL", "dateTime": 1516906625612}, {"current_trial": 99, "trialdata": {"rt": -1, "trial_type": "single-stim", "word": "statue", "stimulus": "<p id=\"stim\">STATUE</p>", "conditions": [24, 800, "v", 24000], "internal_node_id": "0.0-72.0", "trial": 2, "time_elapsed": 654450, "serialpos": 10, "key_press": -1, "wordID": 1373, "type": "PRES_VIS", "trial_index": 99}, "uniqueid": "MTK2256:3JMSRU9HQJ1J0V1MK2M82DCZVJLEVL", "dateTime": 1516906627423}, {"current_trial": 100, "trialdata": {"rt": -1, "trial_type": "single-stim", "word": "stove", "stimulus": "<p id=\"stim\">STOVE</p>", "conditions": [24, 800, "v", 24000], "internal_node_id": "0.0-73.0", "trial": 2, "time_elapsed": 656466, "serialpos": 11, "key_press": -1, "wordID": 1387, "type": "PRES_VIS", "trial_index": 100}, "uniqueid": "MTK2256:3JMSRU9HQJ1J0V1MK2M82DCZVJLEVL", "dateTime": 1516906629439}, {"current_trial": 101, "trialdata": {"rt": -1, "trial_type": "single-stim", "word": "sheriff", "stimulus": "<p id=\"stim\">SHERIFF</p>", "conditions": [24, 800, "v", 24000], "internal_node_id": "0.0-74.0", "trial": 2, "time_elapsed": 658124, "serialpos": 12, "key_press": -1, "wordID": 1283, "type": "PRES_VIS", "trial_index": 101}, "uniqueid": "MTK2256:3JMSRU9HQJ1J0V1MK2M82DCZVJLEVL", "dateTime": 1516906631098}, {"current_trial": 102, "trialdata": {"rt": -1, "trial_type": "single-stim", "word": "fleet", "stimulus": "<p id=\"stim\">FLEET</p>", "conditions": [24, 800, "v", 24000], "internal_node_id": "0.0-75.0", "trial": 2, "time_elapsed": 659924, "serialpos": 13, "key_press": -1, "wordID": 577, "type": "PRES_VIS", "trial_index": 102}, "uniqueid": "MTK2256:3JMSRU9HQJ1J0V1MK2M82DCZVJLEVL", "dateTime": 1516906632897}, {"current_trial": 103, "trialdata": {"rt": -1, "trial_type": "single-stim", "word": "perch", "stimulus": "<p id=\"stim\">PERCH</p>", "conditions": [24, 800, "v", 24000], "internal_node_id": "0.0-76.0", "trial": 2, "time_elapsed": 661876, "serialpos": 14, "key_press": -1, "wordID": 1047, "type": "PRES_VIS", "trial_index": 103}, "uniqueid": "MTK2256:3JMSRU9HQJ1J0V1MK2M82DCZVJLEVL", "dateTime": 1516906634849}, {"current_trial": 104, "trialdata": {"rt": -1, "trial_type": "single-stim", "word": "tweezers", "stimulus": "<p id=\"stim\">TWEEZERS</p>", "conditions": [24, 800, "v", 24000], "internal_node_id": "0.0-77.0", "trial": 2, "time_elapsed": 663612, "serialpos": 15, "key_press": -1, "wordID": 1525, "type": "PRES_VIS", "trial_index": 104}, "uniqueid": "MTK2256:3JMSRU9HQJ1J0V1MK2M82DCZVJLEVL", "dateTime": 1516906636586}, {"current_trial": 105, "trialdata": {"rt": -1, "trial_type": "single-stim", "word": "wrist", "stimulus": "<p id=\"stim\">WRIST</p>", "conditions": [24, 800, "v", 24000], "internal_node_id": "0.0-78.0", "trial": 2, "time_elapsed": 665488, "serialpos": 16, "key_press": -1, "wordID": 1625, "type": "PRES_VIS", "trial_index": 105}, "uniqueid": "MTK2256:3JMSRU9HQJ1J0V1MK2M82DCZVJLEVL", "dateTime": 1516906638461}, {"current_trial": 106, "trialdata": {"rt": -1, "trial_type": "single-stim", "word": "county", "stimulus": "<p id=\"stim\">COUNTY</p>", "conditions": [24, 800, "v", 24000], "internal_node_id": "0.0-79.0", "trial": 2, "time_elapsed": 667364, "serialpos": 17, "key_press": -1, "wordID": 388, "type": "PRES_VIS", "trial_index": 106}, "uniqueid": "MTK2256:3JMSRU9HQJ1J0V1MK2M82DCZVJLEVL", "dateTime": 1516906640338}, {"current_trial": 107, "trialdata": {"rt": -1, "trial_type": "single-stim", "word": "muffin", "stimulus": "<p id=\"stim\">MUFFIN</p>", "conditions": [24, 800, "v", 24000], "internal_node_id": "0.0-80.0", "trial": 2, "time_elapsed": 669286, "serialpos": 18, "key_press": -1, "wordID": 928, "type": "PRES_VIS", "trial_index": 107}, "uniqueid": "MTK2256:3JMSRU9HQJ1J0V1MK2M82DCZVJLEVL", "dateTime": 1516906642260}, {"current_trial": 108, "trialdata": {"rt": -1, "trial_type": "single-stim", "word": "parrot", "stimulus": "<p id=\"stim\">PARROT</p>", "conditions": [24, 800, "v", 24000], "internal_node_id": "0.0-81.0", "trial": 2, "time_elapsed": 671100, "serialpos": 19, "key_press": -1, "wordID": 1014, "type": "PRES_VIS", "trial_index": 108}, "uniqueid": "MTK2256:3JMSRU9HQJ1J0V1MK2M82DCZVJLEVL", "dateTime": 1516906644073}, {"current_trial": 109, "trialdata": {"rt": -1, "trial_type": "single-stim", "word": "rooster", "stimulus": "<p id=\"stim\">ROOSTER</p>", "conditions": [24, 800, "v", 24000], "internal_node_id": "0.0-82.0", "trial": 2, "time_elapsed": 672975, "serialpos": 20, "key_press": -1, "wordID": 1208, "type": "PRES_VIS", "trial_index": 109}, "uniqueid": "MTK2256:3JMSRU9HQJ1J0V1MK2M82DCZVJLEVL", "dateTime": 1516906645948}, {"current_trial": 110, "trialdata": {"rt": -1, "trial_type": "single-stim", "word": "barley", "stimulus": "<p id=\"stim\">BARLEY</p>", "conditions": [24, 800, "v", 24000], "internal_node_id": "0.0-83.0", "trial": 2, "time_elapsed": 674872, "serialpos": 21, "key_press": -1, "wordID": 87, "type": "PRES_VIS", "trial_index": 110}, "uniqueid": "MTK2256:3JMSRU9HQJ1J0V1MK2M82DCZVJLEVL", "dateTime": 1516906647846}, {"current_trial": 111, "trialdata": {"rt": -1, "trial_type": "single-stim", "word": "hedge", "stimulus": "<p id=\"stim\">HEDGE</p>", "conditions": [24, 800, "v", 24000], "internal_node_id": "0.0-84.0", "trial": 2, "time_elapsed": 676712, "serialpos": 22, "key_press": -1, "wordID": 698, "type": "PRES_VIS", "trial_index": 111}, "uniqueid": "MTK2256:3JMSRU9HQJ1J0V1MK2M82DCZVJLEVL", "dateTime": 1516906649686}, {"current_trial": 112, "trialdata": {"rt": -1, "trial_type": "single-stim", "word": "breast", "stimulus": "<p id=\"stim\">BREAST</p>", "conditions": [24, 800, "v", 24000], "internal_node_id": "0.0-85.0", "trial": 2, "time_elapsed": 678415, "serialpos": 23, "key_press": -1, "wordID": 170, "type": "PRES_VIS", "trial_index": 112}, "uniqueid": "MTK2256:3JMSRU9HQJ1J0V1MK2M82DCZVJLEVL", "dateTime": 1516906651389}, {"current_trial": 113, "trialdata": {"rt": -1, "trial_type": "single-stim", "stimulus": "", "internal_node_id": "0.0-86.0-0.0", "time_elapsed": 680742, "key_press": -1, "type": "PRE_RECALL_DELAY", "trial_index": 113}, "uniqueid": "MTK2256:3JMSRU9HQJ1J0V1MK2M82DCZVJLEVL", "dateTime": 1516906653716}, {"current_trial": 114, "trialdata": {"rt": -1000, "trial_type": "single-audio", "stimulus": "/static/audio/400Hz.wav", "internal_node_id": "0.0-87.0", "time_elapsed": 681254, "key_press": -1, "type": "PRE_RECALL_ALERT", "trial_index": 114}, "uniqueid": "MTK2256:3JMSRU9HQJ1J0V1MK2M82DCZVJLEVL", "dateTime": 1516906654228}, {"current_trial": 115, "trialdata": {"rt": [2172, 4034, 6760, 8855, 10656, 12588, 19959, 24013], "recwords": ["cloud", "county", "muffin", "parrot", "breasts", "sister", "ointment", "perch"], "key_times": [1159, 1346, 1540, 1734, 1922, 2172, 2672, 2852, 3039, 3264, 3468, 3642, 4034, 4611, 4855, 5119, 5287, 5599, 5802, 6760, 7354, 7535, 7740, 7907, 8378, 8569, 8855, 9271, 9451, 9611, 9832, 10006, 10140, 10311, 10656, 11216, 11368, 11523, 11752, 11937, 12121, 12588, 18471, 18682, 18898, 19112, 19378, 19526, 19646, 19839, 19959, 22905, 23068, 23216, 23418, 23577, 24013], "trial_type": "free-recall", "conditions": [24, 800, "v", 24000], "internal_node_id": "0.0-88.0-0.0", "key_presses": [67, 76, 79, 85, 68, 13, 67, 79, 85, 78, 84, 89, 13, 77, 85, 70, 70, 73, 78, 13, 80, 65, 82, 82, 79, 84, 13, 66, 82, 69, 65, 83, 84, 83, 13, 83, 73, 83, 84, 69, 82, 13, 79, 73, 78, 84, 77, 69, 78, 84, 13, 80, 69, 82, 67, 72, 13], "trial": 2, "time_elapsed": 741279, "type": "FREE_RECALL", "trial_index": 115}, "uniqueid": "MTK2256:3JMSRU9HQJ1J0V1MK2M82DCZVJLEVL", "dateTime": 1516906714263}, {"current_trial": 116, "trialdata": {"rt": 13137, "trial_type": "text", "internal_node_id": "0.0-89.0", "time_elapsed": 756447, "key_press": 39, "type": "INSTRUCTIONS", "trial_index": 116}, "uniqueid": "MTK2256:3JMSRU9HQJ1J0V1MK2M82DCZVJLEVL", "dateTime": 1516906729420}, {"current_trial": 117, "trialdata": {"rt": [2599, 8517, 13809, 17580, 20377, 23149], "trial_type": "math-distractor", "key_times": [2225, 2351, 2599, 8166, 8334, 8517, 12959, 13347, 13543, 13701, 13809, 16813, 17418, 17580, 19978, 20227, 20377, 22812, 23034, 23149], "responses": ["18", "22", "21", "17", "15", "15"], "num2": [5, 8, 8, 6, 2, 6, 5], "num3": [8, 5, 6, 7, 5, 3, 7], "conditions": [12, 1600, "v", 24000], "internal_node_id": "0.0-90.0", "key_presses": [49, 56, 13, 50, 50, 13, 49, 8, 50, 49, 13, 49, 55, 13, 49, 53, 13, 49, 53, 13], "trial": 3, "time_elapsed": 782499, "type": "DISTRACTOR", "trial_index": 117, "num1": [5, 9, 7, 4, 8, 6, 2]}, "uniqueid": "MTK2256:3JMSRU9HQJ1J0V1MK2M82DCZVJLEVL", "dateTime": 1516906755473}, {"current_trial": 118, "trialdata": {"rt": -1, "trial_type": "single-stim", "stimulus": "<p id=\"stim\">10</p>", "internal_node_id": "0.0-91.0-0.0", "time_elapsed": 785551, "key_press": -1, "trial_index": 118}, "uniqueid": "MTK2256:3JMSRU9HQJ1J0V1MK2M82DCZVJLEVL", "dateTime": 1516906758524}, {"current_trial": 119, "trialdata": {"rt": -1, "trial_type": "single-stim", "stimulus": "<p id=\"stim\">9</p>", "internal_node_id": "0.0-91.0-1.0", "time_elapsed": 786559, "key_press": -1, "trial_index": 119}, "uniqueid": "MTK2256:3JMSRU9HQJ1J0V1MK2M82DCZVJLEVL", "dateTime": 1516906759532}, {"current_trial": 120, "trialdata": {"rt": -1, "trial_type": "single-stim", "stimulus": "<p id=\"stim\">8</p>", "internal_node_id": "0.0-91.0-2.0", "time_elapsed": 787539, "key_press": -1, "trial_index": 120}, "uniqueid": "MTK2256:3JMSRU9HQJ1J0V1MK2M82DCZVJLEVL", "dateTime": 1516906760512}, {"current_trial": 121, "trialdata": {"rt": -1, "trial_type": "single-stim", "stimulus": "<p id=\"stim\">7</p>", "internal_node_id": "0.0-91.0-3.0", "time_elapsed": 788532, "key_press": -1, "trial_index": 121}, "uniqueid": "MTK2256:3JMSRU9HQJ1J0V1MK2M82DCZVJLEVL", "dateTime": 1516906761505}, {"current_trial": 122, "trialdata": {"rt": -1, "trial_type": "single-stim", "stimulus": "<p id=\"stim\">6</p>", "internal_node_id": "0.0-91.0-4.0", "time_elapsed": 789551, "key_press": -1, "trial_index": 122}, "uniqueid": "MTK2256:3JMSRU9HQJ1J0V1MK2M82DCZVJLEVL", "dateTime": 1516906762524}, {"current_trial": 123, "trialdata": {"rt": -1, "trial_type": "single-stim", "stimulus": "<p id=\"stim\">5</p>", "internal_node_id": "0.0-91.0-5.0", "time_elapsed": 790559, "key_press": -1, "trial_index": 123}, "uniqueid": "MTK2256:3JMSRU9HQJ1J0V1MK2M82DCZVJLEVL", "dateTime": 1516906763532}, {"current_trial": 124, "trialdata": {"rt": -1, "trial_type": "single-stim", "stimulus": "<p id=\"stim\">4</p>", "internal_node_id": "0.0-91.0-6.0", "time_elapsed": 791551, "key_press": -1, "trial_index": 124}, "uniqueid": "MTK2256:3JMSRU9HQJ1J0V1MK2M82DCZVJLEVL", "dateTime": 1516906764524}, {"current_trial": 125, "trialdata": {"rt": -1, "trial_type": "single-stim", "stimulus": "<p id=\"stim\">3</p>", "internal_node_id": "0.0-91.0-7.0", "time_elapsed": 792558, "key_press": -1, "trial_index": 125}, "uniqueid": "MTK2256:3JMSRU9HQJ1J0V1MK2M82DCZVJLEVL", "dateTime": 1516906765532}, {"current_trial": 126, "trialdata": {"rt": -1, "trial_type": "single-stim", "stimulus": "<p id=\"stim\">2</p>", "internal_node_id": "0.0-91.0-8.0", "time_elapsed": 793550, "key_press": -1, "trial_index": 126}, "uniqueid": "MTK2256:3JMSRU9HQJ1J0V1MK2M82DCZVJLEVL", "dateTime": 1516906766524}, {"current_trial": 127, "trialdata": {"rt": -1, "trial_type": "single-stim", "stimulus": "<p id=\"stim\">1</p>", "internal_node_id": "0.0-91.0-9.0", "time_elapsed": 794558, "key_press": -1, "trial_index": 127}, "uniqueid": "MTK2256:3JMSRU9HQJ1J0V1MK2M82DCZVJLEVL", "dateTime": 1516906767532}, {"current_trial": 128, "trialdata": {"rt": -1, "trial_type": "single-stim", "stimulus": "<p id=\"stim\">+</p>", "internal_node_id": "0.0-92.0-0.0", "time_elapsed": 796063, "key_press": -1, "type": "FIXATION", "trial_index": 128}, "uniqueid": "MTK2256:3JMSRU9HQJ1J0V1MK2M82DCZVJLEVL", "dateTime": 1516906769036}, {"current_trial": 129, "trialdata": {"rt": -1, "trial_type": "single-stim", "word": "bison", "stimulus": "<p id=\"stim\">BISON</p>", "conditions": [12, 1600, "v", 24000], "internal_node_id": "0.0-93.0", "trial": 3, "time_elapsed": 797690, "serialpos": 0, "key_press": -1, "wordID": 130, "type": "PRES_VIS", "trial_index": 129}, "uniqueid": "MTK2256:3JMSRU9HQJ1J0V1MK2M82DCZVJLEVL", "dateTime": 1516906770664}, {"current_trial": 130, "trialdata": {"rt": -1, "trial_type": "single-stim", "word": "london", "stimulus": "<p id=\"stim\">LONDON</p>", "conditions": [12, 1600, "v", 24000], "internal_node_id": "0.0-94.0", "trial": 3, "time_elapsed": 800200, "serialpos": 1, "key_press": -1, "wordID": 842, "type": "PRES_VIS", "trial_index": 130}, "uniqueid": "MTK2256:3JMSRU9HQJ1J0V1MK2M82DCZVJLEVL", "dateTime": 1516906773174}, {"current_trial": 131, "trialdata": {"rt": -1, "trial_type": "single-stim", "word": "france", "stimulus": "<p id=\"stim\">FRANCE</p>", "conditions": [12, 1600, "v", 24000], "internal_node_id": "0.0-95.0", "trial": 3, "time_elapsed": 802905, "serialpos": 2, "key_press": -1, "wordID": 600, "type": "PRES_VIS", "trial_index": 131}, "uniqueid": "MTK2256:3JMSRU9HQJ1J0V1MK2M82DCZVJLEVL", "dateTime": 1516906775879}, {"current_trial": 132, "trialdata": {"rt": -1, "trial_type": "single-stim", "word": "pocket", "stimulus": "<p id=\"stim\">POCKET</p>", "conditions": [12, 1600, "v", 24000], "internal_node_id": "0.0-96.0", "trial": 3, "time_elapsed": 805472, "serialpos": 3, "key_press": -1, "wordID": 1092, "type": "PRES_VIS", "trial_index": 132}, "uniqueid": "MTK2256:3JMSRU9HQJ1J0V1MK2M82DCZVJLEVL", "dateTime": 1516906778446}, {"current_trial": 133, "trialdata": {"rt": -1, "trial_type": "single-stim", "word": "citrus", "stimulus": "<p id=\"stim\">CITRUS</p>", "conditions": [12, 1600, "v", 24000], "internal_node_id": "0.0-97.0", "trial": 3, "time_elapsed": 808014, "serialpos": 4, "key_press": -1, "wordID": 312, "type": "PRES_VIS", "trial_index": 133}, "uniqueid": "MTK2256:3JMSRU9HQJ1J0V1MK2M82DCZVJLEVL", "dateTime": 1516906780987}, {"current_trial": 134, "trialdata": {"rt": -1, "trial_type": "single-stim", "word": "lily", "stimulus": "<p id=\"stim\">LILY</p>", "conditions": [12, 1600, "v", 24000], "internal_node_id": "0.0-98.0", "trial": 3, "time_elapsed": 810602, "serialpos": 5, "key_press": -1, "wordID": 820, "type": "PRES_VIS", "trial_index": 134}, "uniqueid": "MTK2256:3JMSRU9HQJ1J0V1MK2M82DCZVJLEVL", "dateTime": 1516906783575}, {"current_trial": 135, "trialdata": {"rt": -1, "trial_type": "single-stim", "word": "jelly", "stimulus": "<p id=\"stim\">JELLY</p>", "conditions": [12, 1600, "v", 24000], "internal_node_id": "0.0-99.0", "trial": 3, "time_elapsed": 813408, "serialpos": 6, "key_press": -1, "wordID": 754, "type": "PRES_VIS", "trial_index": 135}, "uniqueid": "MTK2256:3JMSRU9HQJ1J0V1MK2M82DCZVJLEVL", "dateTime": 1516906786381}, {"current_trial": 136, "trialdata": {"rt": -1, "trial_type": "single-stim", "word": "briefcase", "stimulus": "<p id=\"stim\">BRIEFCASE</p>", "conditions": [12, 1600, "v", 24000], "internal_node_id": "0.0-100.0", "trial": 3, "time_elapsed": 816123, "serialpos": 7, "key_press": -1, "wordID": 174, "type": "PRES_VIS", "trial_index": 136}, "uniqueid": "MTK2256:3JMSRU9HQJ1J0V1MK2M82DCZVJLEVL", "dateTime": 1516906789096}, {"current_trial": 137, "trialdata": {"rt": -1, "trial_type": "single-stim", "word": "beaver", "stimulus": "<p id=\"stim\">BEAVER</p>", "conditions": [12, 1600, "v", 24000], "internal_node_id": "0.0-101.0", "trial": 3, "time_elapsed": 818865, "serialpos": 8, "key_press": -1, "wordID": 108, "type": "PRES_VIS", "trial_index": 137}, "uniqueid": "MTK2256:3JMSRU9HQJ1J0V1MK2M82DCZVJLEVL", "dateTime": 1516906791839}, {"current_trial": 138, "trialdata": {"rt": -1, "trial_type": "single-stim", "word": "relish", "stimulus": "<p id=\"stim\">RELISH</p>", "conditions": [12, 1600, "v", 24000], "internal_node_id": "0.0-102.0", "trial": 3, "time_elapsed": 821422, "serialpos": 9, "key_press": -1, "wordID": 1182, "type": "PRES_VIS", "trial_index": 138}, "uniqueid": "MTK2256:3JMSRU9HQJ1J0V1MK2M82DCZVJLEVL", "dateTime": 1516906794396}, {"current_trial": 139, "trialdata": {"rt": -1, "trial_type": "single-stim", "word": "star", "stimulus": "<p id=\"stim\">STAR</p>", "conditions": [12, 1600, "v", 24000], "internal_node_id": "0.0-103.0", "trial": 3, "time_elapsed": 823949, "serialpos": 10, "key_press": -1, "wordID": 1372, "type": "PRES_VIS", "trial_index": 139}, "uniqueid": "MTK2256:3JMSRU9HQJ1J0V1MK2M82DCZVJLEVL", "dateTime": 1516906796923}, {"current_trial": 140, "trialdata": {"rt": -1, "trial_type": "single-stim", "word": "penguin", "stimulus": "<p id=\"stim\">PENGUIN</p>", "conditions": [12, 1600, "v", 24000], "internal_node_id": "0.0-104.0", "trial": 3, "time_elapsed": 826477, "serialpos": 11, "key_press": -1, "wordID": 1043, "type": "PRES_VIS", "trial_index": 140}, "uniqueid": "MTK2256:3JMSRU9HQJ1J0V1MK2M82DCZVJLEVL", "dateTime": 1516906799451}, {"current_trial": 141, "trialdata": {"rt": -1, "trial_type": "single-stim", "stimulus": "", "internal_node_id": "0.0-105.0-0.0", "time_elapsed": 828906, "key_press": -1, "type": "PRE_RECALL_DELAY", "trial_index": 141}, "uniqueid": "MTK2256:3JMSRU9HQJ1J0V1MK2M82DCZVJLEVL", "dateTime": 1516906801879}, {"current_trial": 142, "trialdata": {"rt": -1000, "trial_type": "single-audio", "stimulus": "/static/audio/400Hz.wav", "internal_node_id": "0.0-106.0", "time_elapsed": 829423, "key_press": -1, "type": "PRE_RECALL_ALERT", "trial_index": 142}, "uniqueid": "MTK2256:3JMSRU9HQJ1J0V1MK2M82DCZVJLEVL", "dateTime": 1516906802396}, {"current_trial": 143, "trialdata": {"rt": [2514, 3920, 7618, 10136, 12759, 16728, 18972], "recwords": ["relish", "star", "penguin", "london", "france", "pocket", "bison"], "key_times": [1214, 1394, 1568, 1810, 2012, 2188, 2514, 3088, 3236, 3430, 3536, 3920, 3932, 4865, 5517, 5808, 6147, 6431, 6638, 6846, 7066, 7618, 8358, 8632, 8874, 9094, 9234, 9445, 10136, 11199, 11545, 11935, 12124, 12321, 12537, 12759, 14085, 14291, 14466, 14637, 14836, 15087, 15705, 16539, 16728, 17465, 17703, 17898, 18066, 18281, 18972], "trial_type": "free-recall", "conditions": [12, 1600, "v", 24000], "internal_node_id": "0.0-107.0-0.0", "key_presses": [82, 69, 76, 73, 83, 72, 13, 83, 84, 65, 82, 13, 222, 8, 80, 69, 78, 71, 85, 73, 78, 13, 76, 79, 78, 68, 79, 78, 13, 70, 82, 65, 78, 67, 69, 13, 80, 79, 67, 75, 69, 84, 8, 84, 13, 66, 73, 83, 79, 78, 13], "trial": 3, "time_elapsed": 889447, "type": "FREE_RECALL", "trial_index": 143}, "uniqueid": "MTK2256:3JMSRU9HQJ1J0V1MK2M82DCZVJLEVL", "dateTime": 1516906862431}, {"current_trial": 144, "trialdata": {"rt": 2162, "trial_type": "text", "internal_node_id": "0.0-108.0", "time_elapsed": 893640, "key_press": 32, "type": "INSTRUCTIONS", "trial_index": 144}, "uniqueid": "MTK2256:3JMSRU9HQJ1J0V1MK2M82DCZVJLEVL", "dateTime": 1516906866613}, {"current_trial": 145, "trialdata": {"rt": [4039, 9538, 12411, 16938, 21286, 23212], "trial_type": "math-distractor", "key_times": [3555, 3731, 4039, 8872, 9254, 9538, 12070, 12240, 12411, 16533, 16765, 16938, 20925, 21133, 21286, 22926, 23073, 23212], "responses": ["17", "19", "11", "13", "14", "11"], "num2": [9, 7, 2, 3, 1, 1, 1], "num3": [6, 4, 3, 7, 4, 1, 7], "conditions": [24, 1600, "v", 24000], "internal_node_id": "0.0-109.0", "key_presses": [49, 55, 13, 49, 57, 13, 49, 49, 13, 49, 51, 13, 49, 52, 13, 49, 49, 13], "trial": 4, "time_elapsed": 919675, "type": "DISTRACTOR", "trial_index": 145, "num1": [2, 8, 6, 3, 9, 9, 2]}, "uniqueid": "MTK2256:3JMSRU9HQJ1J0V1MK2M82DCZVJLEVL", "dateTime": 1516906892649}, {"current_trial": 146, "trialdata": {"rt": -1, "trial_type": "single-stim", "stimulus": "<p id=\"stim\">10</p>", "internal_node_id": "0.0-110.0-0.0", "time_elapsed": 922728, "key_press": -1, "trial_index": 146}, "uniqueid": "MTK2256:3JMSRU9HQJ1J0V1MK2M82DCZVJLEVL", "dateTime": 1516906895702}, {"current_trial": 147, "trialdata": {"rt": -1, "trial_type": "single-stim", "stimulus": "<p id=\"stim\">9</p>", "internal_node_id": "0.0-110.0-1.0", "time_elapsed": 923724, "key_press": -1, "trial_index": 147}, "uniqueid": "MTK2256:3JMSRU9HQJ1J0V1MK2M82DCZVJLEVL", "dateTime": 1516906896697}, {"current_trial": 148, "trialdata": {"rt": -1, "trial_type": "single-stim", "stimulus": "<p id=\"stim\">8</p>", "internal_node_id": "0.0-110.0-2.0", "time_elapsed": 924728, "key_press": -1, "trial_index": 148}, "uniqueid": "MTK2256:3JMSRU9HQJ1J0V1MK2M82DCZVJLEVL", "dateTime": 1516906897702}, {"current_trial": 149, "trialdata": {"rt": -1, "trial_type": "single-stim", "stimulus": "<p id=\"stim\">7</p>", "internal_node_id": "0.0-110.0-3.0", "time_elapsed": 925709, "key_press": -1, "trial_index": 149}, "uniqueid": "MTK2256:3JMSRU9HQJ1J0V1MK2M82DCZVJLEVL", "dateTime": 1516906898683}, {"current_trial": 150, "trialdata": {"rt": -1, "trial_type": "single-stim", "stimulus": "<p id=\"stim\">6</p>", "internal_node_id": "0.0-110.0-4.0", "time_elapsed": 926729, "key_press": -1, "trial_index": 150}, "uniqueid": "MTK2256:3JMSRU9HQJ1J0V1MK2M82DCZVJLEVL", "dateTime": 1516906899703}, {"current_trial": 151, "trialdata": {"rt": -1, "trial_type": "single-stim", "stimulus": "<p id=\"stim\">5</p>", "internal_node_id": "0.0-110.0-5.0", "time_elapsed": 927737, "key_press": -1, "trial_index": 151}, "uniqueid": "MTK2256:3JMSRU9HQJ1J0V1MK2M82DCZVJLEVL", "dateTime": 1516906900711}, {"current_trial": 152, "trialdata": {"rt": -1, "trial_type": "single-stim", "stimulus": "<p id=\"stim\">4</p>", "internal_node_id": "0.0-110.0-6.0", "time_elapsed": 928727, "key_press": -1, "trial_index": 152}, "uniqueid": "MTK2256:3JMSRU9HQJ1J0V1MK2M82DCZVJLEVL", "dateTime": 1516906901700}, {"current_trial": 153, "trialdata": {"rt": -1, "trial_type": "single-stim", "stimulus": "<p id=\"stim\">3</p>", "internal_node_id": "0.0-110.0-7.0", "time_elapsed": 929736, "key_press": -1, "trial_index": 153}, "uniqueid": "MTK2256:3JMSRU9HQJ1J0V1MK2M82DCZVJLEVL", "dateTime": 1516906902709}, {"current_trial": 154, "trialdata": {"rt": -1, "trial_type": "single-stim", "stimulus": "<p id=\"stim\">2</p>", "internal_node_id": "0.0-110.0-8.0", "time_elapsed": 930727, "key_press": -1, "trial_index": 154}, "uniqueid": "MTK2256:3JMSRU9HQJ1J0V1MK2M82DCZVJLEVL", "dateTime": 1516906903701}, {"current_trial": 155, "trialdata": {"rt": -1, "trial_type": "single-stim", "stimulus": "<p id=\"stim\">1</p>", "internal_node_id": "0.0-110.0-9.0", "time_elapsed": 931735, "key_press": -1, "trial_index": 155}, "uniqueid": "MTK2256:3JMSRU9HQJ1J0V1MK2M82DCZVJLEVL", "dateTime": 1516906904708}, {"current_trial": 156, "trialdata": {"rt": -1, "trial_type": "single-stim", "stimulus": "<p id=\"stim\">+</p>", "internal_node_id": "0.0-111.0-0.0", "time_elapsed": 933239, "key_press": -1, "type": "FIXATION", "trial_index": 156}, "uniqueid": "MTK2256:3JMSRU9HQJ1J0V1MK2M82DCZVJLEVL", "dateTime": 1516906906213}, {"current_trial": 157, "trialdata": {"rt": -1, "trial_type": "single-stim", "word": "contract", "stimulus": "<p id=\"stim\">CONTRACT</p>", "conditions": [24, 1600, "v", 24000], "internal_node_id": "0.0-112.0", "trial": 4, "time_elapsed": 934855, "serialpos": 0, "key_press": -1, "wordID": 367, "type": "PRES_VIS", "trial_index": 157}, "uniqueid": "MTK2256:3JMSRU9HQJ1J0V1MK2M82DCZVJLEVL", "dateTime": 1516906907828}, {"current_trial": 158, "trialdata": {"rt": -1, "trial_type": "single-stim", "word": "atom", "stimulus": "<p id=\"stim\">ATOM</p>", "conditions": [24, 1600, "v", 24000], "internal_node_id": "0.0-113.0", "trial": 4, "time_elapsed": 937332, "serialpos": 1, "key_press": -1, "wordID": 54, "type": "PRES_VIS", "trial_index": 158}, "uniqueid": "MTK2256:3JMSRU9HQJ1J0V1MK2M82DCZVJLEVL", "dateTime": 1516906910306}, {"current_trial": 159, "trialdata": {"rt": -1, "trial_type": "single-stim", "word": "sunrise", "stimulus": "<p id=\"stim\">SUNRISE</p>", "conditions": [24, 1600, "v", 24000], "internal_node_id": "0.0-114.0", "trial": 4, "time_elapsed": 940043, "serialpos": 2, "key_press": -1, "wordID": 1406, "type": "PRES_VIS", "trial_index": 159}, "uniqueid": "MTK2256:3JMSRU9HQJ1J0V1MK2M82DCZVJLEVL", "dateTime": 1516906913017}, {"current_trial": 160, "trialdata": {"rt": -1, "trial_type": "single-stim", "word": "orange", "stimulus": "<p id=\"stim\">ORANGE</p>", "conditions": [24, 1600, "v", 24000], "internal_node_id": "0.0-115.0", "trial": 4, "time_elapsed": 942678, "serialpos": 3, "key_press": -1, "wordID": 979, "type": "PRES_VIS", "trial_index": 160}, "uniqueid": "MTK2256:3JMSRU9HQJ1J0V1MK2M82DCZVJLEVL", "dateTime": 1516906915652}, {"current_trial": 161, "trialdata": {"rt": -1, "trial_type": "single-stim", "word": "husband", "stimulus": "<p id=\"stim\">HUSBAND</p>", "conditions": [24, 1600, "v", 24000], "internal_node_id": "0.0-116.0", "trial": 4, "time_elapsed": 945423, "serialpos": 4, "key_press": -1, "wordID": 727, "type": "PRES_VIS", "trial_index": 161}, "uniqueid": "MTK2256:3JMSRU9HQJ1J0V1MK2M82DCZVJLEVL", "dateTime": 1516906918397}, {"current_trial": 162, "trialdata": {"rt": -1, "trial_type": "single-stim", "word": "globe", "stimulus": "<p id=\"stim\">GLOBE</p>", "conditions": [24, 1600, "v", 24000], "internal_node_id": "0.0-117.0", "trial": 4, "time_elapsed": 947872, "serialpos": 5, "key_press": -1, "wordID": 640, "type": "PRES_VIS", "trial_index": 162}, "uniqueid": "MTK2256:3JMSRU9HQJ1J0V1MK2M82DCZVJLEVL", "dateTime": 1516906920845}, {"current_trial": 163, "trialdata": {"rt": -1, "trial_type": "single-stim", "word": "world", "stimulus": "<p id=\"stim\">WORLD</p>", "conditions": [24, 1600, "v", 24000], "internal_node_id": "0.0-118.0", "trial": 4, "time_elapsed": 950614, "serialpos": 6, "key_press": -1, "wordID": 1621, "type": "PRES_VIS", "trial_index": 163}, "uniqueid": "MTK2256:3JMSRU9HQJ1J0V1MK2M82DCZVJLEVL", "dateTime": 1516906923587}, {"current_trial": 164, "trialdata": {"rt": -1, "trial_type": "single-stim", "word": "boyfriend", "stimulus": "<p id=\"stim\">BOYFRIEND</p>", "conditions": [24, 1600, "v", 24000], "internal_node_id": "0.0-119.0", "trial": 4, "time_elapsed": 953452, "serialpos": 7, "key_press": -1, "wordID": 161, "type": "PRES_VIS", "trial_index": 164}, "uniqueid": "MTK2256:3JMSRU9HQJ1J0V1MK2M82DCZVJLEVL", "dateTime": 1516906926426}, {"current_trial": 165, "trialdata": {"rt": -1, "trial_type": "single-stim", "word": "gavel", "stimulus": "<p id=\"stim\">GAVEL</p>", "conditions": [24, 1600, "v", 24000], "internal_node_id": "0.0-120.0", "trial": 4, "time_elapsed": 955994, "serialpos": 8, "key_press": -1, "wordID": 626, "type": "PRES_VIS", "trial_index": 165}, "uniqueid": "MTK2256:3JMSRU9HQJ1J0V1MK2M82DCZVJLEVL", "dateTime": 1516906928967}, {"current_trial": 166, "trialdata": {"rt": -1, "trial_type": "single-stim", "word": "parsley", "stimulus": "<p id=\"stim\">PARSLEY</p>", "conditions": [24, 1600, "v", 24000], "internal_node_id": "0.0-121.0", "trial": 4, "time_elapsed": 958784, "serialpos": 9, "key_press": -1, "wordID": 1015, "type": "PRES_VIS", "trial_index": 166}, "uniqueid": "MTK2256:3JMSRU9HQJ1J0V1MK2M82DCZVJLEVL", "dateTime": 1516906931758}, {"current_trial": 167, "trialdata": {"rt": -1, "trial_type": "single-stim", "word": "award", "stimulus": "<p id=\"stim\">AWARD</p>", "conditions": [24, 1600, "v", 24000], "internal_node_id": "0.0-122.0", "trial": 4, "time_elapsed": 961419, "serialpos": 10, "key_press": -1, "wordID": 62, "type": "PRES_VIS", "trial_index": 167}, "uniqueid": "MTK2256:3JMSRU9HQJ1J0V1MK2M82DCZVJLEVL", "dateTime": 1516906934393}, {"current_trial": 168, "trialdata": {"rt": -1, "trial_type": "single-stim", "word": "taxi", "stimulus": "<p id=\"stim\">TAXI</p>", "conditions": [24, 1600, "v", 24000], "internal_node_id": "0.0-123.0", "trial": 4, "time_elapsed": 964040, "serialpos": 11, "key_press": -1, "wordID": 1437, "type": "PRES_VIS", "trial_index": 168}, "uniqueid": "MTK2256:3JMSRU9HQJ1J0V1MK2M82DCZVJLEVL", "dateTime": 1516906937014}, {"current_trial": 169, "trialdata": {"rt": -1, "trial_type": "single-stim", "word": "daughter", "stimulus": "<p id=\"stim\">DAUGHTER</p>", "conditions": [24, 1600, "v", 24000], "internal_node_id": "0.0-124.0", "trial": 4, "time_elapsed": 966505, "serialpos": 12, "key_press": -1, "wordID": 441, "type": "PRES_VIS", "trial_index": 169}, "uniqueid": "MTK2256:3JMSRU9HQJ1J0V1MK2M82DCZVJLEVL", "dateTime": 1516906939479}, {"current_trial": 170, "trialdata": {"rt": -1, "trial_type": "single-stim", "word": "champagne", "stimulus": "<p id=\"stim\">CHAMPAGNE</p>", "conditions": [24, 1600, "v", 24000], "internal_node_id": "0.0-125.0", "trial": 4, "time_elapsed": 969172, "serialpos": 13, "key_press": -1, "wordID": 277, "type": "PRES_VIS", "trial_index": 170}, "uniqueid": "MTK2256:3JMSRU9HQJ1J0V1MK2M82DCZVJLEVL", "dateTime": 1516906942146}, {"current_trial": 171, "trialdata": {"rt": -1, "trial_type": "single-stim", "word": "candy", "stimulus": "<p id=\"stim\">CANDY</p>", "conditions": [24, 1600, "v", 24000], "internal_node_id": "0.0-126.0", "trial": 4, "time_elapsed": 971760, "serialpos": 14, "key_press": -1, "wordID": 229, "type": "PRES_VIS", "trial_index": 171}, "uniqueid": "MTK2256:3JMSRU9HQJ1J0V1MK2M82DCZVJLEVL", "dateTime": 1516906944733}, {"current_trial": 172, "trialdata": {"rt": -1, "trial_type": "single-stim", "word": "twig", "stimulus": "<p id=\"stim\">TWIG</p>", "conditions": [24, 1600, "v", 24000], "internal_node_id": "0.0-127.0", "trial": 4, "time_elapsed": 974256, "serialpos": 15, "key_press": -1, "wordID": 1526, "type": "PRES_VIS", "trial_index": 172}, "uniqueid": "MTK2256:3JMSRU9HQJ1J0V1MK2M82DCZVJLEVL", "dateTime": 1516906947230}, {"current_trial": 173, "trialdata": {"rt": -1, "trial_type": "single-stim", "word": "mummy", "stimulus": "<p id=\"stim\">MUMMY</p>", "conditions": [24, 1600, "v", 24000], "internal_node_id": "0.0-128.0", "trial": 4, "time_elapsed": 976893, "serialpos": 16, "key_press": -1, "wordID": 931, "type": "PRES_VIS", "trial_index": 173}, "uniqueid": "MTK2256:3JMSRU9HQJ1J0V1MK2M82DCZVJLEVL", "dateTime": 1516906949866}, {"current_trial": 174, "trialdata": {"rt": -1, "trial_type": "single-stim", "word": "yacht", "stimulus": "<p id=\"stim\">YACHT</p>", "conditions": [24, 1600, "v", 24000], "internal_node_id": "0.0-129.0", "trial": 4, "time_elapsed": 979623, "serialpos": 17, "key_press": -1, "wordID": 1628, "type": "PRES_VIS", "trial_index": 174}, "uniqueid": "MTK2256:3JMSRU9HQJ1J0V1MK2M82DCZVJLEVL", "dateTime": 1516906952596}, {"current_trial": 175, "trialdata": {"rt": -1, "trial_type": "single-stim", "word": "popcorn", "stimulus": "<p id=\"stim\">POPCORN</p>", "conditions": [24, 1600, "v", 24000], "internal_node_id": "0.0-130.0", "trial": 4, "time_elapsed": 982312, "serialpos": 18, "key_press": -1, "wordID": 1103, "type": "PRES_VIS", "trial_index": 175}, "uniqueid": "MTK2256:3JMSRU9HQJ1J0V1MK2M82DCZVJLEVL", "dateTime": 1516906955286}, {"current_trial": 176, "trialdata": {"rt": -1, "trial_type": "single-stim", "word": "cobra", "stimulus": "<p id=\"stim\">COBRA</p>", "conditions": [24, 1600, "v", 24000], "internal_node_id": "0.0-131.0", "trial": 4, "time_elapsed": 984776, "serialpos": 19, "key_press": -1, "wordID": 335, "type": "PRES_VIS", "trial_index": 176}, "uniqueid": "MTK2256:3JMSRU9HQJ1J0V1MK2M82DCZVJLEVL", "dateTime": 1516906957750}, {"current_trial": 177, "trialdata": {"rt": -1, "trial_type": "single-stim", "word": "snake", "stimulus": "<p id=\"stim\">SNAKE</p>", "conditions": [24, 1600, "v", 24000], "internal_node_id": "0.0-132.0", "trial": 4, "time_elapsed": 987581, "serialpos": 20, "key_press": -1, "wordID": 1332, "type": "PRES_VIS", "trial_index": 177}, "uniqueid": "MTK2256:3JMSRU9HQJ1J0V1MK2M82DCZVJLEVL", "dateTime": 1516906960555}, {"current_trial": 178, "trialdata": {"rt": -1, "trial_type": "single-stim", "word": "turtle", "stimulus": "<p id=\"stim\">TURTLE</p>", "conditions": [24, 1600, "v", 24000], "internal_node_id": "0.0-133.0", "trial": 4, "time_elapsed": 990248, "serialpos": 21, "key_press": -1, "wordID": 1521, "type": "PRES_VIS", "trial_index": 178}, "uniqueid": "MTK2256:3JMSRU9HQJ1J0V1MK2M82DCZVJLEVL", "dateTime": 1516906963222}, {"current_trial": 179, "trialdata": {"rt": -1, "trial_type": "single-stim", "word": "farmer", "stimulus": "<p id=\"stim\">FARMER</p>", "conditions": [24, 1600, "v", 24000], "internal_node_id": "0.0-134.0", "trial": 4, "time_elapsed": 992730, "serialpos": 22, "key_press": -1, "wordID": 552, "type": "PRES_VIS", "trial_index": 179}, "uniqueid": "MTK2256:3JMSRU9HQJ1J0V1MK2M82DCZVJLEVL", "dateTime": 1516906965704}, {"current_trial": 180, "trialdata": {"rt": -1, "trial_type": "single-stim", "word": "iceberg", "stimulus": "<p id=\"stim\">ICEBERG</p>", "conditions": [24, 1600, "v", 24000], "internal_node_id": "0.0-135.0", "trial": 4, "time_elapsed": 995273, "serialpos": 23, "key_press": -1, "wordID": 730, "type": "PRES_VIS", "trial_index": 180}, "uniqueid": "MTK2256:3JMSRU9HQJ1J0V1MK2M82DCZVJLEVL", "dateTime": 1516906968247}, {"current_trial": 181, "trialdata": {"rt": -1, "trial_type": "single-stim", "stimulus": "", "internal_node_id": "0.0-136.0-0.0", "time_elapsed": 997473, "key_press": -1, "type": "PRE_RECALL_DELAY", "trial_index": 181}, "uniqueid": "MTK2256:3JMSRU9HQJ1J0V1MK2M82DCZVJLEVL", "dateTime": 1516906970447}, {"current_trial": 182, "trialdata": {"rt": -1000, "trial_type": "single-audio", "stimulus": "/static/audio/400Hz.wav", "internal_node_id": "0.0-137.0", "time_elapsed": 997999, "key_press": -1, "type": "PRE_RECALL_ALERT", "trial_index": 182}, "uniqueid": "MTK2256:3JMSRU9HQJ1J0V1MK2M82DCZVJLEVL", "dateTime": 1516906970973}, {"current_trial": 183, "trialdata": {"rt": [3216, 6876, 10200, 11828, 13585, 20018, 30025], "recwords": ["orange", "husband", "parsley", "award", "snake", "globe", "yaht"], "key_times": [1428, 1668, 2262, 2452, 2662, 2807, 3216, 3994, 4185, 4421, 4753, 5172, 5437, 5645, 5899, 6099, 6876, 8077, 8257, 8574, 8943, 9171, 9367, 9617, 10200, 10767, 10948, 11162, 11421, 11617, 11828, 12622, 12917, 13069, 13199, 13395, 13585, 18871, 19085, 19318, 19603, 19828, 20018, 25673, 26039, 26334, 26635, 30025], "trial_type": "free-recall", "conditions": [24, 1600, "v", 24000], "internal_node_id": "0.0-138.0-0.0", "key_presses": [79, 82, 65, 78, 71, 69, 13, 72, 85, 83, 78, 8, 66, 65, 78, 68, 13, 80, 65, 82, 83, 76, 69, 89, 13, 65, 87, 65, 82, 68, 13, 83, 78, 65, 75, 69, 13, 71, 76, 79, 66, 69, 13, 89, 65, 72, 84, 13], "trial": 4, "time_elapsed": 1058023, "type": "FREE_RECALL", "trial_index": 183}, "uniqueid": "MTK2256:3JMSRU9HQJ1J0V1MK2M82DCZVJLEVL", "dateTime": 1516907031000}, {"current_trial": 184, "trialdata": {"rt": 2626, "trial_type": "text", "internal_node_id": "0.0-139.0", "time_elapsed": 1062680, "key_press": 39, "type": "INSTRUCTIONS", "trial_index": 184}, "uniqueid": "MTK2256:3JMSRU9HQJ1J0V1MK2M82DCZVJLEVL", "dateTime": 1516907035654}, {"current_trial": 185, "trialdata": {"rt": [3742, 5427], "trial_type": "math-distractor", "key_times": [3172, 3405, 3742, 5100, 5254, 5427], "responses": ["14", "11"], "num2": [5, 5, 9], "num3": [8, 1, 8], "conditions": [24, 1600, "v", 12000], "internal_node_id": "0.0-140.0", "key_presses": [49, 52, 13, 49, 49, 13], "trial": 5, "time_elapsed": 1076721, "type": "DISTRACTOR", "trial_index": 185, "num1": [1, 5, 5]}, "uniqueid": "MTK2256:3JMSRU9HQJ1J0V1MK2M82DCZVJLEVL", "dateTime": 1516907049695}, {"current_trial": 186, "trialdata": {"rt": -1, "trial_type": "single-stim", "stimulus": "<p id=\"stim\">10</p>", "internal_node_id": "0.0-141.0-0.0", "time_elapsed": 1079756, "key_press": -1, "trial_index": 186}, "uniqueid": "MTK2256:3JMSRU9HQJ1J0V1MK2M82DCZVJLEVL", "dateTime": 1516907052729}, {"current_trial": 187, "trialdata": {"rt": -1, "trial_type": "single-stim", "stimulus": "<p id=\"stim\">9</p>", "internal_node_id": "0.0-141.0-1.0", "time_elapsed": 1080749, "key_press": -1, "trial_index": 187}, "uniqueid": "MTK2256:3JMSRU9HQJ1J0V1MK2M82DCZVJLEVL", "dateTime": 1516907053723}, {"current_trial": 188, "trialdata": {"rt": -1, "trial_type": "single-stim", "stimulus": "<p id=\"stim\">8</p>", "internal_node_id": "0.0-141.0-2.0", "time_elapsed": 1081758, "key_press": -1, "trial_index": 188}, "uniqueid": "MTK2256:3JMSRU9HQJ1J0V1MK2M82DCZVJLEVL", "dateTime": 1516907054732}, {"current_trial": 189, "trialdata": {"rt": -1, "trial_type": "single-stim", "stimulus": "<p id=\"stim\">7</p>", "internal_node_id": "0.0-141.0-3.0", "time_elapsed": 1082752, "key_press": -1, "trial_index": 189}, "uniqueid": "MTK2256:3JMSRU9HQJ1J0V1MK2M82DCZVJLEVL", "dateTime": 1516907055726}, {"current_trial": 190, "trialdata": {"rt": -1, "trial_type": "single-stim", "stimulus": "<p id=\"stim\">6</p>", "internal_node_id": "0.0-141.0-4.0", "time_elapsed": 1083756, "key_press": -1, "trial_index": 190}, "uniqueid": "MTK2256:3JMSRU9HQJ1J0V1MK2M82DCZVJLEVL", "dateTime": 1516907056730}, {"current_trial": 191, "trialdata": {"rt": -1, "trial_type": "single-stim", "stimulus": "<p id=\"stim\">5</p>", "internal_node_id": "0.0-141.0-5.0", "time_elapsed": 1084749, "key_press": -1, "trial_index": 191}, "uniqueid": "MTK2256:3JMSRU9HQJ1J0V1MK2M82DCZVJLEVL", "dateTime": 1516907057723}, {"current_trial": 192, "trialdata": {"rt": -1, "trial_type": "single-stim", "stimulus": "<p id=\"stim\">4</p>", "internal_node_id": "0.0-141.0-6.0", "time_elapsed": 1085758, "key_press": -1, "trial_index": 192}, "uniqueid": "MTK2256:3JMSRU9HQJ1J0V1MK2M82DCZVJLEVL", "dateTime": 1516907058732}, {"current_trial": 193, "trialdata": {"rt": -1, "trial_type": "single-stim", "stimulus": "<p id=\"stim\">3</p>", "internal_node_id": "0.0-141.0-7.0", "time_elapsed": 1086764, "key_press": -1, "trial_index": 193}, "uniqueid": "MTK2256:3JMSRU9HQJ1J0V1MK2M82DCZVJLEVL", "dateTime": 1516907059738}, {"current_trial": 194, "trialdata": {"rt": -1, "trial_type": "single-stim", "stimulus": "<p id=\"stim\">2</p>", "internal_node_id": "0.0-141.0-8.0", "time_elapsed": 1087757, "key_press": -1, "trial_index": 194}, "uniqueid": "MTK2256:3JMSRU9HQJ1J0V1MK2M82DCZVJLEVL", "dateTime": 1516907060731}, {"current_trial": 195, "trialdata": {"rt": -1, "trial_type": "single-stim", "stimulus": "<p id=\"stim\">1</p>", "internal_node_id": "0.0-141.0-9.0", "time_elapsed": 1088756, "key_press": -1, "trial_index": 195}, "uniqueid": "MTK2256:3JMSRU9HQJ1J0V1MK2M82DCZVJLEVL", "dateTime": 1516907061730}, {"current_trial": 196, "trialdata": {"rt": -1, "trial_type": "single-stim", "stimulus": "<p id=\"stim\">+</p>", "internal_node_id": "0.0-142.0-0.0", "time_elapsed": 1090283, "key_press": -1, "type": "FIXATION", "trial_index": 196}, "uniqueid": "MTK2256:3JMSRU9HQJ1J0V1MK2M82DCZVJLEVL", "dateTime": 1516907063257}, {"current_trial": 197, "trialdata": {"rt": -1, "trial_type": "single-stim", "word": "princess", "stimulus": "<p id=\"stim\">PRINCESS</p>", "conditions": [24, 1600, "v", 12000], "internal_node_id": "0.0-143.0", "trial": 5, "time_elapsed": 1091895, "serialpos": 0, "key_press": -1, "wordID": 1124, "type": "PRES_VIS", "trial_index": 197}, "uniqueid": "MTK2256:3JMSRU9HQJ1J0V1MK2M82DCZVJLEVL", "dateTime": 1516907064869}, {"current_trial": 198, "trialdata": {"rt": -1, "trial_type": "single-stim", "word": "wardrobe", "stimulus": "<p id=\"stim\">WARDROBE</p>", "conditions": [24, 1600, "v", 12000], "internal_node_id": "0.0-144.0", "trial": 5, "time_elapsed": 1094715, "serialpos": 1, "key_press": -1, "wordID": 1586, "type": "PRES_VIS", "trial_index": 198}, "uniqueid": "MTK2256:3JMSRU9HQJ1J0V1MK2M82DCZVJLEVL", "dateTime": 1516907067689}, {"current_trial": 199, "trialdata": {"rt": -1, "trial_type": "single-stim", "word": "scallop", "stimulus": "<p id=\"stim\">SCALLOP</p>", "conditions": [24, 1600, "v", 12000], "internal_node_id": "0.0-145.0", "trial": 5, "time_elapsed": 1097223, "serialpos": 2, "key_press": -1, "wordID": 1241, "type": "PRES_VIS", "trial_index": 199}, "uniqueid": "MTK2256:3JMSRU9HQJ1J0V1MK2M82DCZVJLEVL", "dateTime": 1516907070197}, {"current_trial": 200, "trialdata": {"rt": -1, "trial_type": "single-stim", "word": "europe", "stimulus": "<p id=\"stim\">EUROPE</p>", "conditions": [24, 1600, "v", 12000], "internal_node_id": "0.0-146.0", "trial": 5, "time_elapsed": 1099957, "serialpos": 3, "key_press": -1, "wordID": 540, "type": "PRES_VIS", "trial_index": 200}, "uniqueid": "MTK2256:3JMSRU9HQJ1J0V1MK2M82DCZVJLEVL", "dateTime": 1516907072931}, {"current_trial": 201, "trialdata": {"rt": -1, "trial_type": "single-stim", "word": "asia", "stimulus": "<p id=\"stim\">ASIA</p>", "conditions": [24, 1600, "v", 12000], "internal_node_id": "0.0-147.0", "trial": 5, "time_elapsed": 1102506, "serialpos": 4, "key_press": -1, "wordID": 45, "type": "PRES_VIS", "trial_index": 201}, "uniqueid": "MTK2256:3JMSRU9HQJ1J0V1MK2M82DCZVJLEVL", "dateTime": 1516907075479}, {"current_trial": 202, "trialdata": {"rt": -1, "trial_type": "single-stim", "word": "monster", "stimulus": "<p id=\"stim\">MONSTER</p>", "conditions": [24, 1600, "v", 12000], "internal_node_id": "0.0-148.0", "trial": 5, "time_elapsed": 1104994, "serialpos": 5, "key_press": -1, "wordID": 911, "type": "PRES_VIS", "trial_index": 202}, "uniqueid": "MTK2256:3JMSRU9HQJ1J0V1MK2M82DCZVJLEVL", "dateTime": 1516907077968}, {"current_trial": 203, "trialdata": {"rt": -1, "trial_type": "single-stim", "word": "creature", "stimulus": "<p id=\"stim\">CREATURE</p>", "conditions": [24, 1600, "v", 12000], "internal_node_id": "0.0-149.0", "trial": 5, "time_elapsed": 1107536, "serialpos": 6, "key_press": -1, "wordID": 402, "type": "PRES_VIS", "trial_index": 203}, "uniqueid": "MTK2256:3JMSRU9HQJ1J0V1MK2M82DCZVJLEVL", "dateTime": 1516907080509}, {"current_trial": 204, "trialdata": {"rt": -1, "trial_type": "single-stim", "word": "heart", "stimulus": "<p id=\"stim\">HEART</p>", "conditions": [24, 1600, "v", 12000], "internal_node_id": "0.0-150.0", "trial": 5, "time_elapsed": 1110125, "serialpos": 7, "key_press": -1, "wordID": 696, "type": "PRES_VIS", "trial_index": 204}, "uniqueid": "MTK2256:3JMSRU9HQJ1J0V1MK2M82DCZVJLEVL", "dateTime": 1516907083099}, {"current_trial": 205, "trialdata": {"rt": -1, "trial_type": "single-stim", "word": "chauffeur", "stimulus": "<p id=\"stim\">CHAUFFEUR</p>", "conditions": [24, 1600, "v", 12000], "internal_node_id": "0.0-151.0", "trial": 5, "time_elapsed": 1112714, "serialpos": 8, "key_press": -1, "wordID": 282, "type": "PRES_VIS", "trial_index": 205}, "uniqueid": "MTK2256:3JMSRU9HQJ1J0V1MK2M82DCZVJLEVL", "dateTime": 1516907085688}, {"current_trial": 206, "trialdata": {"rt": -1, "trial_type": "single-stim", "word": "typist", "stimulus": "<p id=\"stim\">TYPIST</p>", "conditions": [24, 1600, "v", 12000], "internal_node_id": "0.0-152.0", "trial": 5, "time_elapsed": 1115551, "serialpos": 9, "key_press": -1, "wordID": 1531, "type": "PRES_VIS", "trial_index": 206}, "uniqueid": "MTK2256:3JMSRU9HQJ1J0V1MK2M82DCZVJLEVL", "dateTime": 1516907088525}, {"current_trial": 207, "trialdata": {"rt": -1, "trial_type": "single-stim", "word": "blouse", "stimulus": "<p id=\"stim\">BLOUSE</p>", "conditions": [24, 1600, "v", 12000], "internal_node_id": "0.0-153.0", "trial": 5, "time_elapsed": 1118246, "serialpos": 10, "key_press": -1, "wordID": 138, "type": "PRES_VIS", "trial_index": 207}, "uniqueid": "MTK2256:3JMSRU9HQJ1J0V1MK2M82DCZVJLEVL", "dateTime": 1516907091220}, {"current_trial": 208, "trialdata": {"rt": -1, "trial_type": "single-stim", "word": "perfume", "stimulus": "<p id=\"stim\">PERFUME</p>", "conditions": [24, 1600, "v", 12000], "internal_node_id": "0.0-154.0", "trial": 5, "time_elapsed": 1120738, "serialpos": 11, "key_press": -1, "wordID": 1048, "type": "PRES_VIS", "trial_index": 208}, "uniqueid": "MTK2256:3JMSRU9HQJ1J0V1MK2M82DCZVJLEVL", "dateTime": 1516907093713}, {"current_trial": 209, "trialdata": {"rt": -1, "trial_type": "single-stim", "word": "orchid", "stimulus": "<p id=\"stim\">ORCHID</p>", "conditions": [24, 1600, "v", 12000], "internal_node_id": "0.0-155.0", "trial": 5, "time_elapsed": 1123223, "serialpos": 12, "key_press": -1, "wordID": 981, "type": "PRES_VIS", "trial_index": 209}, "uniqueid": "MTK2256:3JMSRU9HQJ1J0V1MK2M82DCZVJLEVL", "dateTime": 1516907096196}, {"current_trial": 210, "trialdata": {"rt": -1, "trial_type": "single-stim", "word": "branch", "stimulus": "<p id=\"stim\">BRANCH</p>", "conditions": [24, 1600, "v", 12000], "internal_node_id": "0.0-156.0", "trial": 5, "time_elapsed": 1125855, "serialpos": 13, "key_press": -1, "wordID": 167, "type": "PRES_VIS", "trial_index": 210}, "uniqueid": "MTK2256:3JMSRU9HQJ1J0V1MK2M82DCZVJLEVL", "dateTime": 1516907098829}, {"current_trial": 211, "trialdata": {"rt": -1, "trial_type": "single-stim", "word": "kidney", "stimulus": "<p id=\"stim\">KIDNEY</p>", "conditions": [24, 1600, "v", 12000], "internal_node_id": "0.0-157.0", "trial": 5, "time_elapsed": 1128425, "serialpos": 14, "key_press": -1, "wordID": 775, "type": "PRES_VIS", "trial_index": 211}, "uniqueid": "MTK2256:3JMSRU9HQJ1J0V1MK2M82DCZVJLEVL", "dateTime": 1516907101398}, {"current_trial": 212, "trialdata": {"rt": -1, "trial_type": "single-stim", "word": "pigment", "stimulus": "<p id=\"stim\">PIGMENT</p>", "conditions": [24, 1600, "v", 12000], "internal_node_id": "0.0-158.0", "trial": 5, "time_elapsed": 1131105, "serialpos": 15, "key_press": -1, "wordID": 1065, "type": "PRES_VIS", "trial_index": 212}, "uniqueid": "MTK2256:3JMSRU9HQJ1J0V1MK2M82DCZVJLEVL", "dateTime": 1516907104078}, {"current_trial": 213, "trialdata": {"rt": -1, "trial_type": "single-stim", "word": "diner", "stimulus": "<p id=\"stim\">DINER</p>", "conditions": [24, 1600, "v", 12000], "internal_node_id": "0.0-159.0", "trial": 5, "time_elapsed": 1133849, "serialpos": 16, "key_press": -1, "wordID": 466, "type": "PRES_VIS", "trial_index": 213}, "uniqueid": "MTK2256:3JMSRU9HQJ1J0V1MK2M82DCZVJLEVL", "dateTime": 1516907106823}, {"current_trial": 214, "trialdata": {"rt": -1, "trial_type": "single-stim", "word": "cafe", "stimulus": "<p id=\"stim\">CAFE</p>", "conditions": [24, 1600, "v", 12000], "internal_node_id": "0.0-160.0", "trial": 5, "time_elapsed": 1136407, "serialpos": 17, "key_press": -1, "wordID": 215, "type": "PRES_VIS", "trial_index": 214}, "uniqueid": "MTK2256:3JMSRU9HQJ1J0V1MK2M82DCZVJLEVL", "dateTime": 1516907109381}, {"current_trial": 215, "trialdata": {"rt": -1, "trial_type": "single-stim", "word": "liver", "stimulus": "<p id=\"stim\">LIVER</p>", "conditions": [24, 1600, "v", 12000], "internal_node_id": "0.0-161.0", "trial": 5, "time_elapsed": 1139042, "serialpos": 18, "key_press": -1, "wordID": 832, "type": "PRES_VIS", "trial_index": 215}, "uniqueid": "MTK2256:3JMSRU9HQJ1J0V1MK2M82DCZVJLEVL", "dateTime": 1516907112015}, {"current_trial": 216, "trialdata": {"rt": -1, "trial_type": "single-stim", "word": "pastry", "stimulus": "<p id=\"stim\">PASTRY</p>", "conditions": [24, 1600, "v", 12000], "internal_node_id": "0.0-162.0", "trial": 5, "time_elapsed": 1141880, "serialpos": 19, "key_press": -1, "wordID": 1021, "type": "PRES_VIS", "trial_index": 216}, "uniqueid": "MTK2256:3JMSRU9HQJ1J0V1MK2M82DCZVJLEVL", "dateTime": 1516907114853}, {"current_trial": 217, "trialdata": {"rt": -1, "trial_type": "single-stim", "word": "costume", "stimulus": "<p id=\"stim\">COSTUME</p>", "conditions": [24, 1600, "v", 12000], "internal_node_id": "0.0-163.0", "trial": 5, "time_elapsed": 1144390, "serialpos": 20, "key_press": -1, "wordID": 382, "type": "PRES_VIS", "trial_index": 217}, "uniqueid": "MTK2256:3JMSRU9HQJ1J0V1MK2M82DCZVJLEVL", "dateTime": 1516907117363}, {"current_trial": 218, "trialdata": {"rt": -1, "trial_type": "single-stim", "word": "dentist", "stimulus": "<p id=\"stim\">DENTIST</p>", "conditions": [24, 1600, "v", 12000], "internal_node_id": "0.0-164.0", "trial": 5, "time_elapsed": 1146980, "serialpos": 21, "key_press": -1, "wordID": 446, "type": "PRES_VIS", "trial_index": 218}, "uniqueid": "MTK2256:3JMSRU9HQJ1J0V1MK2M82DCZVJLEVL", "dateTime": 1516907119954}, {"current_trial": 219, "trialdata": {"rt": -1, "trial_type": "single-stim", "word": "blackboard", "stimulus": "<p id=\"stim\">BLACKBOARD</p>", "conditions": [24, 1600, "v", 12000], "internal_node_id": "0.0-165.0", "trial": 5, "time_elapsed": 1149745, "serialpos": 22, "key_press": -1, "wordID": 132, "type": "PRES_VIS", "trial_index": 219}, "uniqueid": "MTK2256:3JMSRU9HQJ1J0V1MK2M82DCZVJLEVL", "dateTime": 1516907122719}, {"current_trial": 220, "trialdata": {"rt": -1, "trial_type": "single-stim", "word": "dorm", "stimulus": "<p id=\"stim\">DORM</p>", "conditions": [24, 1600, "v", 12000], "internal_node_id": "0.0-166.0", "trial": 5, "time_elapsed": 1152227, "serialpos": 23, "key_press": -1, "wordID": 487, "type": "PRES_VIS", "trial_index": 220}, "uniqueid": "MTK2256:3JMSRU9HQJ1J0V1MK2M82DCZVJLEVL", "dateTime": 1516907125201}, {"current_trial": 221, "trialdata": {"rt": -1, "trial_type": "single-stim", "stimulus": "", "internal_node_id": "0.0-167.0-0.0", "time_elapsed": 1154428, "key_press": -1, "type": "PRE_RECALL_DELAY", "trial_index": 221}, "uniqueid": "MTK2256:3JMSRU9HQJ1J0V1MK2M82DCZVJLEVL", "dateTime": 1516907127402}, {"current_trial": 222, "trialdata": {"rt": -1000, "trial_type": "single-audio", "stimulus": "/static/audio/400Hz.wav", "internal_node_id": "0.0-168.0", "time_elapsed": 1154956, "key_press": -1, "type": "PRE_RECALL_ALERT", "trial_index": 222}, "uniqueid": "MTK2256:3JMSRU9HQJ1J0V1MK2M82DCZVJLEVL", "dateTime": 1516907127930}, {"current_trial": 223, "trialdata": {"rt": [3213, 6596, 9734, 15852], "recwords": ["dorm", "princess", "kidney", "blouse"], "key_times": [1679, 1864, 2072, 2230, 3213, 3795, 4047, 4370, 4675, 4963, 5194, 5517, 5681, 6596, 7274, 7515, 7805, 8105, 8383, 8621, 9734, 14771, 14986, 15190, 15393, 15546, 15733, 15852], "trial_type": "free-recall", "conditions": [24, 1600, "v", 12000], "internal_node_id": "0.0-169.0-0.0", "key_presses": [68, 79, 82, 77, 13, 80, 82, 73, 78, 67, 69, 83, 83, 13, 75, 73, 68, 78, 69, 89, 13, 66, 76, 79, 85, 83, 69, 13], "trial": 5, "time_elapsed": 1214986, "type": "FREE_RECALL", "trial_index": 223}, "uniqueid": "MTK2256:3JMSRU9HQJ1J0V1MK2M82DCZVJLEVL", "dateTime": 1516907187993}, {"current_trial": 224, "trialdata": {"rt": 1454, "trial_type": "text", "internal_node_id": "0.0-170.0", "time_elapsed": 1218493, "key_press": 32, "type": "INSTRUCTIONS", "trial_index": 224}, "uniqueid": "MTK2256:3JMSRU9HQJ1J0V1MK2M82DCZVJLEVL", "dateTime": 1516907191467}, {"current_trial": 225, "trialdata": {"rt": [4308, 6496, 8951, 10788, 13445, 17864], "trial_type": "math-distractor", "key_times": [3807, 3988, 4308, 6033, 6292, 6496, 8650, 8825, 8951, 10520, 10673, 10788, 13108, 13285, 13445, 17140, 17682, 17864, 23845], "responses": ["17", "14", "21", "11", "13", "18"], "num2": [9, 6, 9, 3, 5, 6, 7], "num3": [4, 6, 3, 2, 3, 6, 5], "conditions": [24, 1600, "v", 24000], "internal_node_id": "0.0-171.0", "key_presses": [49, 55, 13, 49, 52, 13, 50, 49, 13, 49, 49, 13, 49, 51, 13, 49, 56, 13, 49], "trial": 6, "time_elapsed": 1244540, "type": "DISTRACTOR", "trial_index": 225, "num1": [4, 2, 9, 6, 5, 6, 6]}, "uniqueid": "MTK2256:3JMSRU9HQJ1J0V1MK2M82DCZVJLEVL", "dateTime": 1516907217514}, {"current_trial": 226, "trialdata": {"rt": -1, "trial_type": "single-stim", "stimulus": "<p id=\"stim\">10</p>", "internal_node_id": "0.0-172.0-0.0", "time_elapsed": 1247576, "key_press": -1, "trial_index": 226}, "uniqueid": "MTK2256:3JMSRU9HQJ1J0V1MK2M82DCZVJLEVL", "dateTime": 1516907220550}, {"current_trial": 227, "trialdata": {"rt": -1, "trial_type": "single-stim", "stimulus": "<p id=\"stim\">9</p>", "internal_node_id": "0.0-172.0-1.0", "time_elapsed": 1248570, "key_press": -1, "trial_index": 227}, "uniqueid": "MTK2256:3JMSRU9HQJ1J0V1MK2M82DCZVJLEVL", "dateTime": 1516907221544}, {"current_trial": 228, "trialdata": {"rt": -1, "trial_type": "single-stim", "stimulus": "<p id=\"stim\">8</p>", "internal_node_id": "0.0-172.0-2.0", "time_elapsed": 1249577, "key_press": -1, "trial_index": 228}, "uniqueid": "MTK2256:3JMSRU9HQJ1J0V1MK2M82DCZVJLEVL", "dateTime": 1516907222550}, {"current_trial": 229, "trialdata": {"rt": -1, "trial_type": "single-stim", "stimulus": "<p id=\"stim\">7</p>", "internal_node_id": "0.0-172.0-3.0", "time_elapsed": 1250569, "key_press": -1, "trial_index": 229}, "uniqueid": "MTK2256:3JMSRU9HQJ1J0V1MK2M82DCZVJLEVL", "dateTime": 1516907223542}, {"current_trial": 230, "trialdata": {"rt": -1, "trial_type": "single-stim", "stimulus": "<p id=\"stim\">6</p>", "internal_node_id": "0.0-172.0-4.0", "time_elapsed": 1251579, "key_press": -1, "trial_index": 230}, "uniqueid": "MTK2256:3JMSRU9HQJ1J0V1MK2M82DCZVJLEVL", "dateTime": 1516907224552}, {"current_trial": 231, "trialdata": {"rt": -1, "trial_type": "single-stim", "stimulus": "<p id=\"stim\">5</p>", "internal_node_id": "0.0-172.0-5.0", "time_elapsed": 1252585, "key_press": -1, "trial_index": 231}, "uniqueid": "MTK2256:3JMSRU9HQJ1J0V1MK2M82DCZVJLEVL", "dateTime": 1516907225559}, {"current_trial": 232, "trialdata": {"rt": -1, "trial_type": "single-stim", "stimulus": "<p id=\"stim\">4</p>", "internal_node_id": "0.0-172.0-6.0", "time_elapsed": 1253577, "key_press": -1, "trial_index": 232}, "uniqueid": "MTK2256:3JMSRU9HQJ1J0V1MK2M82DCZVJLEVL", "dateTime": 1516907226550}, {"current_trial": 233, "trialdata": {"rt": -1, "trial_type": "single-stim", "stimulus": "<p id=\"stim\">3</p>", "internal_node_id": "0.0-172.0-7.0", "time_elapsed": 1254570, "key_press": -1, "trial_index": 233}, "uniqueid": "MTK2256:3JMSRU9HQJ1J0V1MK2M82DCZVJLEVL", "dateTime": 1516907227545}, {"current_trial": 234, "trialdata": {"rt": -1, "trial_type": "single-stim", "stimulus": "<p id=\"stim\">2</p>", "internal_node_id": "0.0-172.0-8.0", "time_elapsed": 1255575, "key_press": -1, "trial_index": 234}, "uniqueid": "MTK2256:3JMSRU9HQJ1J0V1MK2M82DCZVJLEVL", "dateTime": 1516907228548}, {"current_trial": 235, "trialdata": {"rt": -1, "trial_type": "single-stim", "stimulus": "<p id=\"stim\">1</p>", "internal_node_id": "0.0-172.0-9.0", "time_elapsed": 1256583, "key_press": -1, "trial_index": 235}, "uniqueid": "MTK2256:3JMSRU9HQJ1J0V1MK2M82DCZVJLEVL", "dateTime": 1516907229556}, {"current_trial": 236, "trialdata": {"rt": -1, "trial_type": "single-stim", "stimulus": "<p id=\"stim\">+</p>", "internal_node_id": "0.0-173.0-0.0", "time_elapsed": 1258103, "key_press": -1, "type": "FIXATION", "trial_index": 236}, "uniqueid": "MTK2256:3JMSRU9HQJ1J0V1MK2M82DCZVJLEVL", "dateTime": 1516907231077}, {"current_trial": 237, "trialdata": {"rt": -1, "trial_type": "single-stim", "word": "crab", "stimulus": "<p id=\"stim\">CRAB</p>", "conditions": [24, 1600, "v", 24000], "internal_node_id": "0.0-174.0", "trial": 6, "time_elapsed": 1259730, "serialpos": 0, "key_press": -1, "wordID": 396, "type": "PRES_VIS", "trial_index": 237}, "uniqueid": "MTK2256:3JMSRU9HQJ1J0V1MK2M82DCZVJLEVL", "dateTime": 1516907232703}, {"current_trial": 238, "trialdata": {"rt": -1, "trial_type": "single-stim", "word": "lady", "stimulus": "<p id=\"stim\">LADY</p>", "conditions": [24, 1600, "v", 24000], "internal_node_id": "0.0-175.0", "trial": 6, "time_elapsed": 1262366, "serialpos": 1, "key_press": -1, "wordID": 793, "type": "PRES_VIS", "trial_index": 238}, "uniqueid": "MTK2256:3JMSRU9HQJ1J0V1MK2M82DCZVJLEVL", "dateTime": 1516907235340}, {"current_trial": 239, "trialdata": {"rt": -1, "trial_type": "single-stim", "word": "badge", "stimulus": "<p id=\"stim\">BADGE</p>", "conditions": [24, 1600, "v", 24000], "internal_node_id": "0.0-176.0", "trial": 6, "time_elapsed": 1265106, "serialpos": 2, "key_press": -1, "wordID": 67, "type": "PRES_VIS", "trial_index": 239}, "uniqueid": "MTK2256:3JMSRU9HQJ1J0V1MK2M82DCZVJLEVL", "dateTime": 1516907238080}, {"current_trial": 240, "trialdata": {"rt": -1, "trial_type": "single-stim", "word": "sticker", "stimulus": "<p id=\"stim\">STICKER</p>", "conditions": [24, 1600, "v", 24000], "internal_node_id": "0.0-177.0", "trial": 6, "time_elapsed": 1267637, "serialpos": 3, "key_press": -1, "wordID": 1381, "type": "PRES_VIS", "trial_index": 240}, "uniqueid": "MTK2256:3JMSRU9HQJ1J0V1MK2M82DCZVJLEVL", "dateTime": 1516907240611}, {"current_trial": 241, "trialdata": {"rt": -1, "trial_type": "single-stim", "word": "waitress", "stimulus": "<p id=\"stim\">WAITRESS</p>", "conditions": [24, 1600, "v", 24000], "internal_node_id": "0.0-178.0", "trial": 6, "time_elapsed": 1270196, "serialpos": 4, "key_press": -1, "wordID": 1580, "type": "PRES_VIS", "trial_index": 241}, "uniqueid": "MTK2256:3JMSRU9HQJ1J0V1MK2M82DCZVJLEVL", "dateTime": 1516907243170}, {"current_trial": 242, "trialdata": {"rt": -1, "trial_type": "single-stim", "word": "receipt", "stimulus": "<p id=\"stim\">RECEIPT</p>", "conditions": [24, 1600, "v", 24000], "internal_node_id": "0.0-179.0", "trial": 6, "time_elapsed": 1272937, "serialpos": 5, "key_press": -1, "wordID": 1172, "type": "PRES_VIS", "trial_index": 242}, "uniqueid": "MTK2256:3JMSRU9HQJ1J0V1MK2M82DCZVJLEVL", "dateTime": 1516907245911}, {"current_trial": 243, "trialdata": {"rt": -1, "trial_type": "single-stim", "word": "grill", "stimulus": "<p id=\"stim\">GRILL</p>", "conditions": [24, 1600, "v", 24000], "internal_node_id": "0.0-180.0", "trial": 6, "time_elapsed": 1275669, "serialpos": 6, "key_press": -1, "wordID": 660, "type": "PRES_VIS", "trial_index": 243}, "uniqueid": "MTK2256:3JMSRU9HQJ1J0V1MK2M82DCZVJLEVL", "dateTime": 1516907248642}, {"current_trial": 244, "trialdata": {"rt": -1, "trial_type": "single-stim", "word": "barrel", "stimulus": "<p id=\"stim\">BARREL</p>", "conditions": [24, 1600, "v", 24000], "internal_node_id": "0.0-181.0", "trial": 6, "time_elapsed": 1278491, "serialpos": 7, "key_press": -1, "wordID": 90, "type": "PRES_VIS", "trial_index": 244}, "uniqueid": "MTK2256:3JMSRU9HQJ1J0V1MK2M82DCZVJLEVL", "dateTime": 1516907251465}, {"current_trial": 245, "trialdata": {"rt": -1, "trial_type": "single-stim", "word": "peanut", "stimulus": "<p id=\"stim\">PEANUT</p>", "conditions": [24, 1600, "v", 24000], "internal_node_id": "0.0-182.0", "trial": 6, "time_elapsed": 1280988, "serialpos": 8, "key_press": -1, "wordID": 1031, "type": "PRES_VIS", "trial_index": 245}, "uniqueid": "MTK2256:3JMSRU9HQJ1J0V1MK2M82DCZVJLEVL", "dateTime": 1516907253962}, {"current_trial": 246, "trialdata": {"rt": -1, "trial_type": "single-stim", "word": "airplane", "stimulus": "<p id=\"stim\">AIRPLANE</p>", "conditions": [24, 1600, "v", 24000], "internal_node_id": "0.0-183.0", "trial": 6, "time_elapsed": 1283624, "serialpos": 9, "key_press": -1, "wordID": 11, "type": "PRES_VIS", "trial_index": 246}, "uniqueid": "MTK2256:3JMSRU9HQJ1J0V1MK2M82DCZVJLEVL", "dateTime": 1516907256598}, {"current_trial": 247, "trialdata": {"rt": -1, "trial_type": "single-stim", "word": "gallon", "stimulus": "<p id=\"stim\">GALLON</p>", "conditions": [24, 1600, "v", 24000], "internal_node_id": "0.0-184.0", "trial": 6, "time_elapsed": 1286306, "serialpos": 10, "key_press": -1, "wordID": 617, "type": "PRES_VIS", "trial_index": 247}, "uniqueid": "MTK2256:3JMSRU9HQJ1J0V1MK2M82DCZVJLEVL", "dateTime": 1516907259279}, {"current_trial": 248, "trialdata": {"rt": -1, "trial_type": "single-stim", "word": "mister", "stimulus": "<p id=\"stim\">MISTER</p>", "conditions": [24, 1600, "v", 24000], "internal_node_id": "0.0-185.0", "trial": 6, "time_elapsed": 1288831, "serialpos": 11, "key_press": -1, "wordID": 900, "type": "PRES_VIS", "trial_index": 248}, "uniqueid": "MTK2256:3JMSRU9HQJ1J0V1MK2M82DCZVJLEVL", "dateTime": 1516907261805}, {"current_trial": 249, "trialdata": {"rt": -1, "trial_type": "single-stim", "word": "jello", "stimulus": "<p id=\"stim\">JELLO</p>", "conditions": [24, 1600, "v", 24000], "internal_node_id": "0.0-186.0", "trial": 6, "time_elapsed": 1291545, "serialpos": 12, "key_press": -1, "wordID": 753, "type": "PRES_VIS", "trial_index": 249}, "uniqueid": "MTK2256:3JMSRU9HQJ1J0V1MK2M82DCZVJLEVL", "dateTime": 1516907264519}, {"current_trial": 250, "trialdata": {"rt": -1, "trial_type": "single-stim", "word": "oyster", "stimulus": "<p id=\"stim\">OYSTER</p>", "conditions": [24, 1600, "v", 24000], "internal_node_id": "0.0-187.0", "trial": 6, "time_elapsed": 1294211, "serialpos": 13, "key_press": -1, "wordID": 994, "type": "PRES_VIS", "trial_index": 250}, "uniqueid": "MTK2256:3JMSRU9HQJ1J0V1MK2M82DCZVJLEVL", "dateTime": 1516907267185}, {"current_trial": 251, "trialdata": {"rt": -1, "trial_type": "single-stim", "word": "hornet", "stimulus": "<p id=\"stim\">HORNET</p>", "conditions": [24, 1600, "v", 24000], "internal_node_id": "0.0-188.0", "trial": 6, "time_elapsed": 1296906, "serialpos": 14, "key_press": -1, "wordID": 717, "type": "PRES_VIS", "trial_index": 251}, "uniqueid": "MTK2256:3JMSRU9HQJ1J0V1MK2M82DCZVJLEVL", "dateTime": 1516907269880}, {"current_trial": 252, "trialdata": {"rt": -1, "trial_type": "single-stim", "word": "wasp", "stimulus": "<p id=\"stim\">WASP</p>", "conditions": [24, 1600, "v", 24000], "internal_node_id": "0.0-189.0", "trial": 6, "time_elapsed": 1299434, "serialpos": 15, "key_press": -1, "wordID": 1592, "type": "PRES_VIS", "trial_index": 252}, "uniqueid": "MTK2256:3JMSRU9HQJ1J0V1MK2M82DCZVJLEVL", "dateTime": 1516907272408}, {"current_trial": 253, "trialdata": {"rt": -1, "trial_type": "single-stim", "word": "stamp", "stimulus": "<p id=\"stim\">STAMP</p>", "conditions": [24, 1600, "v", 24000], "internal_node_id": "0.0-190.0", "trial": 6, "time_elapsed": 1302070, "serialpos": 16, "key_press": -1, "wordID": 1369, "type": "PRES_VIS", "trial_index": 253}, "uniqueid": "MTK2256:3JMSRU9HQJ1J0V1MK2M82DCZVJLEVL", "dateTime": 1516907275044}, {"current_trial": 254, "trialdata": {"rt": -1, "trial_type": "single-stim", "word": "blender", "stimulus": "<p id=\"stim\">BLENDER</p>", "conditions": [24, 1600, "v", 24000], "internal_node_id": "0.0-191.0", "trial": 6, "time_elapsed": 1304872, "serialpos": 17, "key_press": -1, "wordID": 135, "type": "PRES_VIS", "trial_index": 254}, "uniqueid": "MTK2256:3JMSRU9HQJ1J0V1MK2M82DCZVJLEVL", "dateTime": 1516907277846}, {"current_trial": 255, "trialdata": {"rt": -1, "trial_type": "single-stim", "word": "sandwich", "stimulus": "<p id=\"stim\">SANDWICH</p>", "conditions": [24, 1600, "v", 24000], "internal_node_id": "0.0-192.0", "trial": 6, "time_elapsed": 1307357, "serialpos": 18, "key_press": -1, "wordID": 1231, "type": "PRES_VIS", "trial_index": 255}, "uniqueid": "MTK2256:3JMSRU9HQJ1J0V1MK2M82DCZVJLEVL", "dateTime": 1516907280331}, {"current_trial": 256, "trialdata": {"rt": -1, "trial_type": "single-stim", "word": "clam", "stimulus": "<p id=\"stim\">CLAM</p>", "conditions": [24, 1600, "v", 24000], "internal_node_id": "0.0-193.0", "trial": 6, "time_elapsed": 1309867, "serialpos": 19, "key_press": -1, "wordID": 314, "type": "PRES_VIS", "trial_index": 256}, "uniqueid": "MTK2256:3JMSRU9HQJ1J0V1MK2M82DCZVJLEVL", "dateTime": 1516907282842}, {"current_trial": 257, "trialdata": {"rt": -1, "trial_type": "single-stim", "word": "blueprint", "stimulus": "<p id=\"stim\">BLUEPRINT</p>", "conditions": [24, 1600, "v", 24000], "internal_node_id": "0.0-194.0", "trial": 6, "time_elapsed": 1312488, "serialpos": 20, "key_press": -1, "wordID": 141, "type": "PRES_VIS", "trial_index": 257}, "uniqueid": "MTK2256:3JMSRU9HQJ1J0V1MK2M82DCZVJLEVL", "dateTime": 1516907285462}, {"current_trial": 258, "trialdata": {"rt": -1, "trial_type": "single-stim", "word": "trout", "stimulus": "<p id=\"stim\">TROUT</p>", "conditions": [24, 1600, "v", 24000], "internal_node_id": "0.0-195.0", "trial": 6, "time_elapsed": 1315107, "serialpos": 21, "key_press": -1, "wordID"